##NAMES=Chalcopyrite
##RRUFFID=R050222
##IDEAL CHEMISTRY=Cu^1+^Fe^3+^S^2-^_2_
##LOCALITY=Iron Cap mine, Landsman Camp, Graham County, Arizona, USA
##OWNER=RRUFF
##SOURCE=Bob Downs
##DESCRIPTION=Group of brass yellow metallic tetrahedra, dark streaks represent alteration by bacteria where S is left behind
##STATUS=The identification of this mineral has been confirmed by X-ray diffraction and chemical analysis
##URL=rruff.info/R050222
##MEASURED CHEMISTRY=Cu_1.00_Fe_1.00_S_2.00_
93.74609, 23.06643
94.22821, 22.81425
94.71033, 22.97145
95.19244, 23.45440
95.67456, 23.92516
96.15668, 24.20015
96.63879, 24.33620
97.12091, 24.56829
97.60303, 24.93288
98.08514, 25.30643
98.56726, 25.36649
99.04938, 25.08924
99.53149, 25.05089
100.0136, 25.77622
100.4957, 27.28949
100.9778, 28.30484
101.4600, 28.62663
101.9421, 28.46441
102.4242, 28.33573
102.9063, 28.16748
103.3884, 28.21588
103.8705, 28.70039
104.3527, 29.78198
104.8348, 30.83594
105.3169, 31.76397
105.7990, 32.58496
106.2811, 33.61376
106.7632, 34.89031
107.2454, 36.32805
107.7275, 37.93780
108.2096, 40.86470
108.6917, 42.36869
109.1738, 41.42139
109.6559, 37.39825
110.1381, 34.96404
110.6202, 35.17885
111.1023, 36.58453
111.5844, 37.64219
112.0665, 38.07212
112.5486, 38.39990
113.0308, 38.49004
113.5129, 37.87075
113.9950, 38.56098
114.4771, 41.78269
114.9592, 46.31297
115.4413, 50.34083
115.9235, 53.45356
116.4056, 55.94234
116.8877, 57.96714
117.3698, 59.82045
117.8519, 60.73682
118.3340, 59.73899
118.8162, 57.52440
119.2983, 55.81208
119.7804, 55.45452
120.2625, 55.79697
120.7446, 56.26287
121.2267, 56.28801
121.7089, 57.01728
122.1910, 59.85765
122.6731, 64.31702
123.1552, 68.19493
123.6373, 70.81258
124.1194, 71.89765
124.6016, 70.99288
125.0837, 66.50036
125.5658, 61.15676
126.0479, 57.61476
126.5300, 55.82970
127.0121, 55.04837
127.4943, 54.35509
127.9764, 54.18194
128.4585, 55.54031
128.9406, 60.12457
129.4227, 66.07639
129.9048, 70.10153
130.3869, 72.13522
130.8691, 72.88195
131.3512, 72.81483
131.8333, 72.00545
132.3154, 70.87492
132.7975, 69.49941
133.2796, 67.92400
133.7618, 66.10258
134.2439, 63.60662
134.7260, 61.42457
135.2081, 62.03066
135.6902, 65.60835
136.1723, 69.04737
136.6545, 70.56315
137.1366, 70.18320
137.6187, 70.60693
138.1008, 72.11242
138.5829, 74.21230
139.0650, 76.29855
139.5472, 78.71679
140.0293, 79.88242
140.5114, 78.74854
140.9935, 74.92181
141.4756, 70.58898
141.9577, 65.22388
142.4399, 59.55341
142.9220, 56.66393
143.4041, 57.70977
143.8862, 59.32947
144.3683, 59.25641
144.8504, 56.27449
145.3326, 54.52753
145.8147, 54.76829
146.2968, 56.73819
146.7789, 58.35204
147.2610, 59.76140
147.7431, 60.69709
148.2253, 60.93946
148.7074, 59.92760
149.1895, 59.02746
149.6716, 58.28947
150.1537, 57.69409
150.6358, 57.69473
151.1180, 58.50513
151.6001, 59.78518
152.0822, 61.24225
152.5643, 63.98872
153.0464, 65.76456
153.5285, 65.70009
154.0107, 63.43909
154.4928, 62.28752
154.9749, 63.87062
155.4570, 66.05553
155.9391, 66.73083
156.4212, 64.33171
156.9034, 61.65163
157.3855, 59.13353
157.8676, 56.63819
158.3497, 55.37533
158.8318, 56.62933
159.3139, 58.94576
159.7961, 60.48171
160.2782, 59.71103
160.7603, 58.94406
161.2424, 59.31148
161.7245, 61.30218
162.2066, 62.96069
162.6888, 63.47069
163.1709, 63.24400
163.6530, 62.94794
164.1351, 62.88099
164.6172, 62.77903
165.0993, 62.46104
165.5815, 61.83332
166.0636, 61.19127
166.5457, 60.54028
167.0278, 59.97112
167.5099, 59.67378
167.9921, 59.90867
168.4742, 60.35387
168.9563, 60.77292
169.4384, 61.14192
169.9205, 61.44211
170.4026, 61.72560
170.8848, 61.94596
171.3669, 61.96845
171.8490, 61.77698
172.3311, 61.32866
172.8132, 60.45615
173.2953, 58.77502
173.7775, 57.30374
174.2596, 57.36275
174.7417, 58.55448
175.2238, 59.38169
175.7059, 58.32766
176.1880, 56.45127
176.6702, 55.28215
177.1523, 55.34626
177.6344, 55.98079
178.1165, 56.68935
178.5986, 57.41764
179.0807, 57.79550
179.5629, 57.41586
180.0450, 56.51130
180.5271, 55.51563
181.0092, 54.37939
181.4913, 53.35663
181.9734, 52.93251
182.4556, 53.07182
182.9377, 53.32808
183.4198, 53.44299
183.9019, 53.40929
184.3840, 53.15191
184.8661, 52.41585
185.3483, 51.63725
185.8304, 51.78918
186.3125, 52.87649
186.7946, 54.10253
187.2767, 54.87980
187.7588, 55.23761
188.2409, 55.25326
188.7231, 54.85505
189.2052, 54.17659
189.6873, 53.50857
190.1694, 52.83824
190.6515, 52.25500
191.1336, 51.87284
191.6158, 51.67351
192.0979, 51.49027
192.5800, 51.22582
193.0621, 50.95214
193.5442, 50.98590
194.0263, 51.37291
194.5085, 51.79932
194.9906, 52.00443
195.4727, 51.99083
195.9548, 51.65033
196.4369, 50.68859
196.9190, 49.35796
197.4012, 49.17630
197.8833, 50.39790
198.3654, 51.74071
198.8475, 51.49803
199.3296, 49.57132
199.8117, 48.13932
200.2939, 48.00702
200.7760, 48.96103
201.2581, 49.35838
201.7402, 49.09057
202.2223, 48.55061
202.7044, 48.10760
203.1866, 47.74920
203.6687, 47.62372
204.1508, 47.89089
204.6329, 48.50486
205.1150, 48.71756
205.5971, 48.43405
206.0793, 47.95628
206.5614, 47.60059
207.0435, 47.37051
207.5256, 47.27744
208.0077, 47.45687
208.4898, 47.89317
208.9720, 47.65263
209.4541, 46.43795
209.9362, 45.06002
210.4183, 44.61292
210.9004, 45.42779
211.3825, 45.96238
211.8647, 45.62718
212.3468, 44.39671
212.8289, 44.01278
213.3110, 44.79465
213.7931, 45.96461
214.2752, 46.55263
214.7574, 46.37219
215.2395, 46.16817
215.7216, 46.06458
216.2037, 46.05355
216.6858, 46.47409
217.1679, 47.62807
217.6501, 48.83479
218.1322, 49.14803
218.6143, 48.08695
219.0964, 47.38243
219.5785, 47.67738
220.0606, 49.05778
220.5428, 49.56786
221.0249, 48.80180
221.5070, 47.62482
221.9891, 46.99229
222.4712, 46.91844
222.9533, 47.38058
223.4355, 48.62248
223.9176, 50.75647
224.3997, 51.93198
224.8818, 51.88656
225.3639, 51.18476
225.8460, 50.32151
226.3282, 48.99771
226.8103, 48.16224
227.2924, 48.09418
227.7745, 48.82142
228.2566, 49.79969
228.7387, 51.40577
229.2209, 52.86787
229.7030, 53.21225
230.1851, 51.65086
230.6672, 50.54679
231.1493, 50.49192
231.6314, 51.52880
232.1136, 52.41509
232.5957, 53.19979
233.0778, 53.78345
233.5599, 53.96033
234.0420, 53.25213
234.5241, 53.11243
235.0063, 54.13550
235.4884, 56.32137
235.9705, 57.43995
236.4526, 56.85973
236.9347, 55.88276
237.4168, 55.75049
237.8990, 56.96494
238.3811, 58.04162
238.8632, 58.70579
239.3453, 58.96288
239.8274, 59.17583
240.3095, 59.18565
240.7917, 59.32796
241.2738, 59.97443
241.7559, 61.62187
242.2380, 62.75573
242.7201, 62.94324
243.2022, 62.25957
243.6844, 62.03205
244.1665, 62.44682
244.6486, 63.09541
245.1307, 63.69688
245.6128, 64.33371
246.0949, 64.73285
246.5771, 64.67146
247.0592, 64.24888
247.5413, 64.47419
248.0234, 65.67418
248.5055, 67.10739
248.9876, 68.18532
249.4697, 68.53817
249.9519, 69.40200
250.4340, 71.16524
250.9161, 73.60842
251.3982, 75.41821
251.8803, 76.47816
252.3624, 77.04127
252.8446, 77.17240
253.3267, 76.59167
253.8088, 76.22832
254.2909, 76.05762
254.7730, 76.15822
255.2551, 76.95671
255.7373, 78.89799
256.2194, 80.81149
256.7015, 81.89853
257.1836, 81.58411
257.6657, 82.08632
258.1479, 83.97325
258.6300, 86.62855
259.1121, 88.14085
259.5942, 88.05873
260.0763, 87.64444
260.5584, 87.46472
261.0406, 87.54810
261.5227, 87.80185
262.0048, 88.31155
262.4869, 88.94463
262.9690, 89.33270
263.4511, 89.25831
263.9333, 89.40601
264.4154, 90.24301
264.8975, 92.16453
265.3796, 93.12922
265.8617, 92.70885
266.3438, 91.71026
266.8260, 91.72099
267.3081, 93.09421
267.7902, 94.52866
268.2723, 95.40483
268.7544, 95.59141
269.2365, 96.28124
269.7187, 97.55870
270.2008, 99.22826
270.6829, 100.8271
271.1650, 102.0987
271.6471, 104.2324
272.1292, 107.8843
272.6114, 113.0999
273.0935, 117.7585
273.5756, 121.8744
274.0577, 125.3331
274.5398, 127.8059
275.0219, 129.0325
275.5041, 130.5331
275.9862, 133.0057
276.4683, 136.3028
276.9504, 138.2181
277.4325, 138.3025
277.9146, 138.1742
278.3968, 139.5738
278.8788, 142.6012
279.3610, 146.1167
279.8431, 149.9706
280.3252, 154.0590
280.8073, 157.9377
281.2894, 161.5112
281.7715, 165.2699
282.2537, 169.6622
282.7358, 174.6947
283.2179, 179.9914
283.7000, 185.3718
284.1821, 191.0604
284.6642, 197.2753
285.1464, 203.9092
285.6285, 212.1781
286.1106, 223.3020
286.5927, 237.1465
287.0748, 251.9123
287.5569, 267.4434
288.0391, 283.7000
288.5212, 300.8173
289.0033, 318.8905
289.4854, 336.1548
289.9675, 352.7635
290.4496, 368.1422
290.9318, 379.1492
291.4139, 386.3324
291.8960, 387.3104
292.3781, 377.2772
292.8602, 356.6205
293.3423, 330.5501
293.8245, 298.6453
294.3066, 263.0983
294.7887, 230.4227
295.2708, 201.1187
295.7529, 175.3668
296.2350, 153.8170
296.7172, 136.3394
297.1993, 121.8598
297.6814, 110.4245
298.1635, 101.4051
298.6456, 93.77660
299.1277, 87.50204
299.6099, 82.31411
300.0920, 78.19240
300.5741, 75.01566
301.0562, 72.67030
301.5383, 71.51751
302.0204, 70.90832
302.5026, 69.82035
302.9847, 68.27220
303.4668, 66.91773
303.9489, 66.46645
304.4310, 66.54182
304.9131, 66.44318
305.3953, 65.83875
305.8774, 65.11327
306.3595, 64.60287
306.8416, 64.31072
307.3237, 64.24764
307.8058, 64.66096
308.2880, 65.22565
308.7701, 65.47153
309.2522, 65.05054
309.7343, 64.77419
310.2164, 65.45775
310.6985, 66.84026
311.1807, 68.16225
311.6628, 68.96804
312.1449, 69.56704
312.6270, 70.12840
313.1091, 70.58553
313.5912, 71.34409
314.0734, 72.94469
314.5555, 74.99179
315.0376, 76.77962
315.5197, 76.98254
316.0018, 77.59312
316.4839, 80.41105
316.9661, 85.98611
317.4482, 90.45791
317.9303, 91.19968
318.4124, 90.23309
318.8945, 89.93112
319.3766, 92.76219
319.8588, 94.84933
320.3409, 94.16812
320.8230, 90.72883
321.3051, 87.56658
321.7872, 85.78516
322.2693, 84.51270
322.7515, 83.06270
323.2336, 81.58047
323.7157, 79.60821
324.1978, 76.58473
324.6799, 72.79579
325.1620, 69.74175
325.6442, 68.30895
326.1263, 67.19347
326.6084, 65.74192
327.0905, 63.91559
327.5726, 61.72804
328.0547, 58.24612
328.5369, 54.35871
329.0190, 52.33302
329.5011, 53.99524
329.9832, 55.81313
330.4653, 56.58862
330.9474, 55.81290
331.4296, 55.29551
331.9117, 54.94477
332.3938, 54.89651
332.8759, 55.40191
333.3580, 57.04704
333.8401, 58.36173
334.3223, 58.86153
334.8044, 58.45562
335.2865, 58.32811
335.7686, 58.59165
336.2507, 59.00768
336.7328, 59.32082
337.2150, 59.43567
337.6971, 59.74042
338.1792, 60.46484
338.6613, 61.46095
339.1434, 61.70611
339.6255, 60.87129
340.1077, 60.05570
340.5898, 60.13164
341.0719, 61.24474
341.5540, 62.15261
342.0361, 62.71354
342.5182, 63.01553
343.0004, 63.09264
343.4825, 62.85804
343.9646, 63.02216
344.4467, 64.18877
344.9288, 66.25137
345.4109, 67.85250
345.8931, 68.75053
346.3752, 69.74919
346.8573, 72.21297
347.3394, 76.04261
347.8215, 79.73055
348.3036, 82.79406
348.7858, 85.25222
349.2679, 87.03748
349.7500, 88.12634
350.2321, 88.94786
350.7142, 89.89807
351.1964, 90.89591
351.6785, 91.80618
352.1606, 92.96499
352.6427, 93.58386
353.1248, 92.50740
353.6069, 89.83823
354.0891, 86.27445
354.5712, 81.83305
355.0533, 76.95705
355.5354, 72.13168
356.0175, 67.34553
356.4996, 62.96727
356.9818, 59.40295
357.4639, 56.45761
357.9460, 53.66611
358.4281, 50.50182
358.9102, 47.57406
359.3923, 45.41181
359.8745, 44.08283
360.3566, 43.30845
360.8387, 43.58158
361.3208, 44.13367
361.8029, 44.01159
362.2850, 41.77874
362.7672, 39.80420
363.2493, 39.40289
363.7314, 40.45723
364.2135, 41.27302
364.6956, 40.93875
365.1777, 40.36243
365.6599, 40.17955
366.1420, 40.93156
366.6241, 41.56747
367.1062, 41.95885
367.5883, 42.10408
368.0704, 41.98684
368.5526, 41.06569
369.0347, 40.34037
369.5168, 40.27456
369.9989, 41.37361
370.4810, 41.97113
370.9631, 41.71912
371.4453, 41.11717
371.9274, 40.85657
372.4095, 41.27855
372.8916, 41.53047
373.3737, 41.27837
373.8558, 40.48845
374.3380, 40.34768
374.8201, 41.13636
375.3022, 42.19506
375.7843, 42.98673
376.2664, 43.47732
376.7485, 43.81717
377.2307, 43.95144
377.7128, 43.97949
378.1949, 44.43734
378.6770, 45.57140
379.1591, 46.11800
379.6412, 44.98202
380.1234, 42.13512
380.6055, 40.14381
381.0876, 39.26023
381.5697, 38.87609
382.0518, 38.15477
382.5339, 37.11452
383.0161, 35.93574
383.4982, 34.47362
383.9803, 32.96250
384.4624, 32.24493
384.9445, 32.33964
385.4266, 32.65071
385.9088, 32.67811
386.3909, 32.50841
386.8730, 32.37989
387.3551, 32.40761
387.8372, 32.41721
388.3193, 32.13108
388.8015, 31.61564
389.2836, 31.14310
389.7657, 30.92012
390.2478, 30.80646
390.7299, 30.62475
391.2120, 30.31687
391.6942, 30.10440
392.1763, 30.15562
392.6584, 30.40265
393.1405, 30.73786
393.6226, 31.37568
394.1047, 31.87376
394.5869, 31.87354
395.0690, 31.38714
395.5511, 31.03505
396.0332, 31.33794
396.5153, 31.69837
396.9974, 31.65582
397.4796, 30.37105
397.9617, 29.54734
398.4438, 29.84348
398.9259, 30.87925
399.4080, 31.46453
399.8901, 30.94595
400.3723, 30.42745
400.8544, 30.36957
401.3365, 31.05459
401.8186, 31.35815
402.3007, 30.96316
402.7828, 30.37964
403.2649, 30.28165
403.7470, 31.06415
404.2292, 31.55730
404.7113, 31.33526
405.1934, 30.50581
405.6755, 30.47195
406.1576, 31.60492
406.6397, 32.70537
407.1219, 32.75008
407.6040, 31.56961
408.0861, 30.78487
408.5682, 30.60505
409.0503, 30.80665
409.5324, 31.02490
410.0146, 31.26339
410.4967, 31.39022
410.9788, 31.25005
411.4609, 30.92798
411.9430, 30.77119
412.4251, 30.78246
412.9073, 30.93783
413.3894, 31.30034
413.8715, 31.79840
414.3536, 32.22153
414.8357, 32.52880
415.3178, 32.71261
415.8000, 32.71265
416.2821, 32.55806
416.7642, 32.38731
417.2463, 32.13064
417.7284, 31.97871
418.2105, 32.31466
418.6927, 33.42143
419.1748, 34.07396
419.6569, 32.98465
420.1390, 31.06122
420.6211, 29.73111
421.1032, 29.98385
421.5854, 30.47237
422.0675, 30.60774
422.5496, 30.38748
423.0317, 30.21814
423.5138, 30.22611
423.9959, 30.30765
424.4781, 30.39110
424.9602, 30.24644
425.4423, 30.38947
425.9244, 31.28765
426.4065, 32.47106
426.8886, 32.85659
427.3708, 31.58845
427.8529, 30.59721
428.3350, 30.64223
428.8171, 31.97009
429.2992, 32.53976
429.7813, 32.00348
430.2635, 31.17116
430.7456, 30.89784
431.2277, 31.36952
431.7098, 31.58102
432.1919, 31.20359
432.6740, 30.54120
433.1562, 30.78701
433.6383, 32.08527
434.1204, 33.05588
434.6025, 32.50390
435.0846, 30.75171
435.5667, 29.85292
436.0489, 30.00660
436.5310, 30.46900
437.0131, 30.29261
437.4952, 29.64988
437.9773, 29.13524
438.4594, 29.08085
438.9416, 29.18010
439.4237, 28.89911
439.9058, 28.31662
440.3879, 27.98322
440.8700, 28.55466
441.3521, 29.42078
441.8343, 29.90487
442.3164, 29.78352
442.7985, 29.58327
443.2806, 29.82098
443.7627, 30.14163
444.2448, 29.98084
444.7270, 28.24999
445.2091, 26.82658
445.6912, 26.65826
446.1733, 27.77477
446.6554, 28.70725
447.1375, 28.88034
447.6197, 28.96174
448.1018, 29.37627
448.5839, 31.10743
449.0660, 31.86066
449.5481, 31.03161
450.0302, 29.36399
450.5124, 28.46884
450.9945, 28.70874
451.4766, 29.09426
451.9587, 29.36104
452.4408, 29.50955
452.9229, 29.50419
453.4051, 29.26738
453.8872, 29.05815
454.3693, 29.26391
454.8514, 29.92604
455.3335, 30.05224
455.8156, 29.36560
456.2978, 28.24333
456.7799, 27.29283
457.2620, 26.52232
457.7441, 26.15384
458.2262, 26.60146
458.7083, 27.47601
459.1905, 27.87460
459.6726, 27.74949
460.1547, 27.57895
460.6368, 27.94961
461.1189, 28.52023
461.6010, 28.71863
462.0832, 28.23014
462.5653, 27.52870
463.0474, 26.73015
463.5295, 25.96223
464.0116, 25.60793
464.4937, 26.44248
464.9759, 27.27569
465.4580, 27.37158
465.9401, 26.54509
466.4222, 25.65093
466.9043, 24.55893
467.3864, 23.66084
467.8686, 23.32564
468.3507, 23.96335
468.8328, 24.74376
469.3149, 25.88144
469.7970, 27.13825
470.2791, 27.56199
470.7613, 26.65942
471.2434, 25.65835
471.7255, 25.01862
472.2076, 24.74836
472.6897, 24.85017
473.1718, 25.45856
473.6540, 26.17887
474.1361, 26.57514
474.6182, 26.64038
475.1003, 26.51232
475.5824, 26.14535
476.0645, 25.68071
476.5467, 25.47406
477.0288, 25.50800
477.5109, 25.57914
477.9930, 25.44645
478.4751, 25.28912
478.9572, 25.53887
479.4394, 26.25652
479.9215, 26.98664
480.4036, 27.38184
480.8857, 27.51354
481.3678, 27.48487
481.8499, 27.35972
482.3321, 27.04962
482.8142, 26.19494
483.2963, 25.05602
483.7784, 24.45917
484.2605, 25.44672
484.7426, 26.46954
485.2248, 26.67996
485.7069, 25.77697
486.1890, 25.00511
486.6711, 24.56705
487.1532, 24.30927
487.6353, 24.06736
488.1175, 23.60030
488.5996, 23.56812
489.0817, 24.32610
489.5638, 25.52699
490.0459, 25.96699
490.5280, 25.36249
491.0102, 24.70089
491.4923, 24.44175
491.9744, 24.59225
492.4565, 24.52185
492.9386, 24.17092
493.4207, 23.83803
493.9029, 23.89993
494.3850, 24.29659
494.8671, 24.66702
495.3492, 24.99461
495.8313, 25.15822
496.3134, 24.69956
496.7956, 23.83937
497.2777, 23.40468
497.7598, 24.52140
498.2419, 25.91677
498.7240, 26.11841
499.2061, 25.06378
499.6883, 23.89214
500.1704, 23.06223
500.6525, 22.54183
501.1346, 22.30462
501.6167, 22.36737
502.0988, 22.67196
502.5810, 23.51334
503.0631, 24.56682
503.5452, 25.14317
504.0273, 24.57196
504.5094, 24.10247
504.9915, 24.12631
505.4737, 24.66794
505.9558, 24.94390
506.4379, 24.89974
506.9200, 24.65813
507.4021, 24.23134
507.8842, 23.51066
508.3664, 23.12032
508.8485, 23.17684
509.3306, 23.44082
509.8127, 23.51447
510.2948, 23.40231
510.7769, 23.28735
511.2591, 23.22516
511.7412, 23.21368
512.2233, 23.28901
512.7054, 23.43998
513.1875, 23.53396
513.6696, 23.34799
514.1517, 23.09349
514.6339, 23.10928
515.1160, 23.49641
515.5981, 23.89015
516.0802, 24.14476
516.5623, 24.22642
517.0444, 24.08997
517.5266, 23.28699
518.0087, 22.70440
518.4908, 22.87020
518.9729, 23.59131
519.4550, 23.98498
519.9371, 23.47410
520.4193, 22.99117
520.9014, 22.98414
521.3835, 23.67932
521.8656, 23.81794
522.3477, 22.97264
522.8298, 22.04333
523.3120, 22.01346
523.7941, 23.13731
524.2762, 23.99237
524.7583, 24.35610
525.2404, 24.37123
525.7225, 24.30955
526.2047, 24.17176
526.6868, 24.04054
527.1689, 23.85171
527.6510, 23.71605
528.1331, 24.14701
528.6152, 25.12380
529.0974, 25.73867
529.5795, 24.76771
530.0616, 23.17179
530.5437, 22.37691
531.0258, 22.87276
531.5079, 23.55948
531.9901, 23.85740
532.4722, 23.88514
532.9543, 23.82430
533.4364, 23.61179
533.9185, 23.44328
534.4006, 23.45841
534.8828, 23.62205
535.3649, 23.58604
535.8470, 22.77319
536.3291, 22.29440
536.8112, 22.75467
537.2933, 24.57084
537.7755, 25.67261
538.2576, 25.91769
538.7397, 25.63235
539.2218, 25.04620
539.7039, 24.11767
540.1860, 23.37110
540.6682, 22.88427
541.1503, 22.66748
541.6324, 22.86285
542.1145, 23.42720
542.5966, 23.93634
543.0787, 24.19880
543.5609, 24.25577
544.0430, 24.07769
544.5251, 23.68458
545.0072, 23.38524
545.4893, 23.54203
545.9714, 23.83792
546.4536, 23.95001
546.9357, 23.79123
547.4178, 23.50448
547.8999, 22.75117
548.3820, 22.01950
548.8641, 21.98332
549.3463, 23.89103
549.8284, 25.25196
550.3105, 25.29506
550.7926, 24.30083
551.2747, 23.74198
551.7568, 23.76640
552.2390, 23.97167
552.7211, 24.24638
553.2032, 24.61574
553.6853, 24.72236
554.1674, 24.51826
554.6495, 24.20100
555.1317, 23.93682
555.6138, 23.73003
556.0959, 23.56424
556.5780, 23.41433
557.0601, 23.36270
557.5422, 23.70300
558.0244, 24.26035
558.5065, 24.52459
558.9886, 23.92061
559.4707, 23.16555
559.9528, 22.81004
560.4349, 22.83429
560.9171, 23.09666
561.3992, 23.96005
561.8813, 24.73095
562.3634, 24.86406
562.8455, 23.99214
563.3276, 23.48987
563.8098, 23.87757
564.2919, 24.50446
564.7740, 24.79711
565.2561, 24.58923
565.7382, 24.36718
566.2203, 24.14498
566.7025, 23.95441
567.1846, 23.94380
567.6667, 24.16252
568.1488, 24.19299
568.6309, 23.71148
569.1130, 22.94001
569.5952, 22.82972
570.0773, 23.36898
570.5594, 23.81417
571.0415, 23.21081
571.5236, 22.27674
572.0057, 22.39008
572.4879, 23.89286
572.9700, 25.28507
573.4521, 25.45702
573.9342, 24.91164
574.4163, 24.24373
574.8984, 23.07019
575.3806, 22.44596
575.8627, 23.14091
576.3448, 24.62706
576.8269, 25.43817
577.3090, 25.02335
577.7911, 24.42626
578.2733, 23.80767
578.7554, 23.18082
579.2375, 22.86004
579.7196, 22.91642
580.2017, 23.10795
580.6838, 23.28478
581.1660, 23.44666
581.6481, 23.65502
582.1302, 23.92471
582.6123, 24.18503
583.0944, 24.42174
583.5765, 24.58518
584.0587, 24.47412
584.5408, 23.82992
585.0229, 23.24169
585.5050, 23.35076
585.9871, 23.97977
586.4692, 24.69067
586.9514, 25.73115
587.4335, 26.41743
587.9156, 26.24764
588.3977, 25.25479
588.8798, 24.26811
589.3619, 22.93972
589.8441, 22.09588
590.3262, 22.25105
590.8083, 23.83621
591.2904, 24.95898
591.7725, 25.61101
592.2546, 25.81118
592.7368, 25.35561
593.2189, 24.12079
593.7010, 23.56027
594.1831, 24.08683
594.6652, 25.03786
595.1473, 25.23783
595.6295, 24.81675
596.1116, 24.44764
596.5937, 24.61953
597.0758, 24.87025
597.5579, 24.40761
598.0400, 23.41762
598.5222, 22.79547
599.0043, 23.40179
599.4864, 24.27152
599.9685, 24.75682
600.4506, 24.73272
600.9327, 24.65817
601.4149, 24.51819
601.8970, 24.44201
602.3791, 24.55111
602.8612, 25.16955
603.3433, 25.31847
603.8254, 24.69675
604.3076, 23.84827
604.7897, 23.81346
605.2718, 24.75968
605.7539, 25.17942
606.2360, 24.42347
606.7181, 23.14164
607.2003, 23.03051
607.6824, 23.93883
608.1645, 24.74177
608.6466, 24.77860
609.1287, 24.33727
609.6108, 23.47974
610.0930, 22.27886
610.5751, 21.69909
611.0572, 23.00593
611.5393, 24.69958
612.0214, 25.56466
612.5035, 25.14269
612.9857, 24.70268
613.4678, 24.24768
613.9499, 24.01761
614.4320, 24.29084
614.9141, 25.57150
615.3962, 26.36083
615.8784, 26.43407
616.3605, 26.00024
616.8426, 25.32380
617.3247, 24.33028
617.8068, 23.90360
618.2889, 24.65919
618.7711, 26.03436
619.2532, 26.59970
619.7353, 26.42650
620.2174, 26.07256
620.6995, 25.77463
621.1816, 25.56210
621.6638, 25.50911
622.1459, 25.62000
622.6280, 25.71730
623.1101, 26.01117
623.5922, 26.06803
624.0743, 25.40235
624.5565, 22.88395
625.0386, 21.73623
625.5207, 23.46318
626.0028, 25.99372
626.4849, 26.92444
626.9670, 25.64657
627.4492, 24.31970
627.9313, 23.10526
628.4134, 22.17044
628.8955, 22.06652
629.3776, 22.79740
629.8597, 23.54619
630.3419, 24.01200
630.8240, 24.25983
631.3061, 24.28465
631.7882, 24.14207
632.2703, 24.18991
632.7524, 24.97086
633.2346, 25.83820
633.7167, 26.16542
634.1988, 25.85393
634.6809, 25.57892
635.1630, 25.74695
635.6451, 25.93146
636.1273, 25.79232
636.6094, 24.92291
637.0915, 24.45216
637.5736, 24.52842
638.0557, 24.87458
638.5378, 25.16133
639.0200, 25.38051
639.5021, 25.61709
639.9842, 25.93515
640.4663, 26.20634
640.9484, 26.10764
641.4305, 25.69485
641.9127, 25.32317
642.3948, 25.02014
642.8769, 24.93421
643.3590, 25.41846
643.8411, 26.34112
644.3232, 27.09847
644.8054, 27.34518
645.2875, 27.36664
645.7696, 27.25796
646.2517, 27.00295
646.7338, 26.93267
647.2159, 27.41402
647.6981, 27.82834
648.1802, 27.78516
648.6623, 27.01361
649.1444, 26.64454
649.6265, 26.76415
650.1086, 27.10458
650.5908, 27.43325
651.0729, 27.74123
651.5550, 27.83645
652.0371, 27.65404
652.5192, 27.33120
653.0013, 26.98573
653.4835, 26.65228
653.9656, 26.40519
654.4477, 26.05259
654.9298, 26.02298
655.4119, 26.98809
655.8940, 28.54548
656.3762, 29.48209
656.8583, 28.91107
657.3404, 28.18477
657.8225, 27.74615
658.3046, 27.58364
658.7867, 27.32460
659.2689, 26.84079
659.7510, 26.50606
660.2331, 26.61584
660.7152, 27.17074
661.1973, 27.39284
661.6794, 27.24922
662.1616, 27.01571
662.6437, 26.85150
663.1258, 26.80194
663.6079, 27.08560
664.0900, 27.84397
664.5721, 28.37173
665.0543, 27.71715
665.5364, 26.67899
666.0185, 26.24637
666.5006, 27.34767
666.9827, 28.21561
667.4648, 28.29514
667.9470, 27.89918
668.4291, 27.64720
668.9112, 27.65858
669.3933, 27.58225
669.8754, 27.33423
670.3575, 26.95908
670.8397, 26.47135
671.3218, 25.83606
671.8039, 25.65821
672.2860, 26.54006
672.7681, 27.93674
673.2502, 28.74551
673.7324, 28.99716
674.2145, 28.91774
674.6966, 28.35753
675.1787, 27.73334
675.6608, 27.45844
676.1429, 27.59393
676.6251, 27.63795
677.1072, 27.30378
677.5893, 26.92069
678.0714, 26.69724
678.5535, 26.63033
679.0356, 26.75182
679.5178, 27.15378
679.9999, 27.61479
680.4820, 27.91808
680.9641, 28.06787
681.4462, 28.02361
681.9283, 27.72967
682.4105, 27.39780
682.8926, 27.35163
683.3747, 27.50633
683.8568, 27.62586
684.3389, 27.54818
684.8210, 27.53853
685.3032, 27.96110
685.7853, 28.58319
686.2674, 28.91139
686.7495, 28.34618
687.2316, 27.95592
687.7137, 28.25574
688.1959, 29.02576
688.6780, 29.35616
689.1601, 29.12041
689.6422, 28.71402
690.1243, 28.18709
690.6064, 27.59673
691.0886, 27.46017
691.5707, 27.79302
692.0528, 28.10395
692.5349, 27.91597
693.0170, 27.53377
693.4991, 27.56251
693.9813, 28.02863
694.4634, 28.40148
694.9455, 28.20730
695.4276, 27.85873
695.9097, 27.65288
696.3918, 27.58455
696.8740, 27.81597
697.3561, 28.58245
697.8382, 29.50212
698.3203, 30.36057
698.8024, 31.32925
699.2845, 31.56300
699.7667, 30.78257
700.2488, 29.72744
700.7309, 29.54060
701.2130, 30.06851
701.6951, 30.30035
702.1772, 29.84353
702.6594, 29.32802
703.1415, 29.71204
703.6236, 30.54862
704.1057, 30.97543
704.5878, 30.03750
705.0699, 29.26475
705.5521, 29.47574
706.0342, 30.35247
706.5163, 30.89187
706.9984, 30.93100
707.4805, 30.77236
707.9626, 30.42455
708.4448, 29.93393
708.9269, 29.46639
709.4090, 28.98699
709.8911, 28.84311
710.3732, 29.40670
710.8553, 30.39818
711.3374, 31.11021
711.8195, 31.55160
712.3016, 31.82186
712.7838, 32.01469
713.2659, 32.04266
713.7480, 31.77355
714.2301, 31.17913
714.7122, 30.61638
715.1943, 30.07116
715.6765, 29.67482
716.1586, 29.52122
716.6407, 29.68017
717.1228, 29.82531
717.6049, 29.99568
718.0870, 30.07573
718.5692, 29.91680
719.0513, 29.54306
719.5334, 29.17031
720.0155, 28.80059
720.4976, 28.53417
720.9797, 28.53441
721.4619, 28.68813
721.9440, 28.78579
722.4261, 28.66408
722.9082, 28.73300
723.3903, 29.49407
723.8724, 30.43903
724.3546, 30.91504
724.8367, 30.62831
725.3188, 30.12619
725.8009, 29.23888
726.2830, 28.29187
726.7651, 28.00364
727.2473, 28.44873
727.7294, 28.70841
728.2115, 28.51678
728.6936, 28.04955
729.1757, 27.41121
729.6578, 26.73148
730.1400, 26.47060
730.6221, 27.23826
731.1042, 28.14098
731.5863, 28.56334
732.0684, 28.60921
732.5505, 28.62913
733.0327, 28.71989
733.5148, 28.79223
733.9969, 28.82429
734.4790, 28.81700
734.9611, 28.72382
735.4432, 28.45168
735.9254, 28.43473
736.4075, 29.16410
736.8896, 30.29130
737.3717, 30.18105
737.8538, 28.92808
738.3359, 27.80500
738.8181, 27.76550
739.3002, 28.24298
739.7823, 28.82380
740.2644, 29.46330
740.7465, 29.74910
741.2286, 29.27408
741.7108, 28.59549
742.1929, 27.91441
742.6750, 27.11869
743.1571, 27.06734
743.6392, 28.04743
744.1213, 29.20578
744.6035, 29.95189
745.0856, 30.29694
745.5677, 30.36904
746.0498, 30.15521
746.5319, 29.86011
747.0140, 29.63569
747.4962, 29.46620
747.9783, 29.33818
748.4604, 29.25569
748.9425, 29.17871
749.4246, 29.03774
749.9067, 28.92386
750.3889, 28.92915
750.8710, 29.21821
751.3531, 29.34031
751.8352, 29.24497
752.3173, 29.04673
752.7994, 28.75281
753.2816, 28.34991
753.7637, 28.56623
754.2458, 29.63093
754.7279, 30.88660
755.2100, 31.71879
755.6921, 32.11076
756.1743, 31.96556
756.6564, 30.83159
757.1385, 29.94427
757.6206, 30.34550
758.1027, 31.27647
758.5848, 31.62238
759.0670, 30.69802
759.5491, 29.92382
760.0312, 29.45343
760.5133, 29.15939
760.9954, 28.68017
761.4775, 27.97091
761.9597, 27.86914
762.4418, 28.79963
762.9239, 30.06087
763.4060, 30.48148
763.8881, 30.29304
764.3702, 30.11488
764.8524, 30.39866
765.3345, 30.59180
765.8166, 30.10402
766.2987, 29.30109
766.7808, 29.12797
767.2629, 30.60405
767.7451, 31.57032
768.2272, 31.43332
768.7093, 30.58764
769.1914, 30.35298
769.6735, 30.79856
770.1556, 31.06085
770.6378, 30.72668
771.1199, 30.08097
771.6020, 29.49245
772.0841, 29.02547
772.5662, 28.91450
773.0483, 29.69619
773.5305, 30.48883
774.0126, 30.65470
774.4947, 30.32503
774.9768, 30.25998
775.4589, 30.99315
775.9410, 31.43968
776.4232, 31.18670
776.9053, 30.38277
777.3874, 29.86128
777.8695, 29.61755
778.3516, 29.67400
778.8337, 30.30042
779.3159, 31.11658
779.7980, 31.36012
780.2801, 31.09186
780.7622, 30.63924
781.2443, 29.76315
781.7264, 29.13274
782.2086, 29.32448
782.6907, 30.30773
783.1728, 31.00362
783.6549, 31.22200
784.1370, 31.28056
784.6191, 31.19037
785.1013, 31.00633
785.5834, 31.37673
786.0655, 32.34176
786.5476, 33.21699
787.0297, 33.59200
787.5118, 33.57266
787.9940, 33.21915
788.4761, 32.57846
788.9582, 31.97599
789.4403, 31.35514
789.9224, 31.03172
790.4045, 31.45644
790.8867, 32.71185
791.3688, 33.07994
791.8509, 31.95947
792.3330, 30.91234
792.8151, 30.82505
793.2972, 31.57600
793.7794, 31.53799
794.2615, 30.69003
794.7436, 30.03791
795.2257, 30.59510
795.7078, 31.61945
796.1899, 32.08183
796.6721, 31.97426
797.1542, 31.85964
797.6363, 32.05139
798.1184, 32.26714
798.6005, 32.41298
799.0826, 32.50174
799.5648, 32.14509
800.0469, 31.02868
800.5290, 30.17255
801.0111, 30.34445
801.4932, 31.35642
801.9753, 31.78235
802.4575, 31.63886
802.9396, 31.49096
803.4217, 32.04948
803.9038, 32.62269
804.3859, 32.20879
804.8680, 30.78500
805.3502, 29.98040
805.8323, 30.94650
806.3144, 32.09819
806.7965, 32.69722
807.2786, 32.72614
807.7607, 32.44988
808.2429, 31.75514
808.7250, 31.17702
809.2071, 31.07182
809.6892, 31.35742
810.1713, 31.96930
810.6534, 32.84580
811.1356, 33.33475
811.6177, 32.27514
812.0998, 31.20364
812.5819, 31.59448
813.0640, 33.57481
813.5461, 34.87542
814.0283, 34.78992
814.5104, 34.35777
814.9925, 33.96002
815.4746, 33.58999
815.9567, 33.10463
816.4388, 32.48054
816.9210, 31.97528
817.4031, 31.72980
817.8852, 31.72967
818.3673, 32.13092
818.8494, 32.85175
819.3315, 33.28218
819.8137, 32.58797
820.2958, 31.95277
820.7779, 32.25591
821.2600, 33.56346
821.7421, 34.18082
822.2242, 33.87222
822.7064, 33.32652
823.1885, 32.75908
823.6706, 32.21147
824.1527, 31.90235
824.6348, 31.82306
825.1169, 31.83162
825.5991, 31.93336
826.0812, 32.00830
826.5633, 31.77504
827.0454, 31.33077
827.5275, 31.28204
828.0096, 32.38966
828.4918, 33.33864
828.9739, 33.61495
829.4560, 33.30314
829.9381, 33.08362
830.4202, 33.02173
830.9023, 32.68329
831.3845, 31.51672
831.8666, 30.15965
832.3487, 30.38151
832.8308, 31.83595
833.3129, 32.97008
833.7950, 32.70024
834.2772, 32.09501
834.7593, 31.48077
835.2414, 30.99092
835.7235, 31.27891
836.2056, 33.19672
836.6877, 34.42405
837.1699, 34.05628
837.6520, 32.73423
838.1341, 32.68851
838.6162, 33.82496
839.0983, 34.46910
839.5804, 33.48173
840.0626, 32.13605
840.5447, 31.96973
841.0268, 32.63201
841.5089, 33.26536
841.9910, 33.98999
842.4731, 34.13470
842.9553, 32.93128
843.4374, 31.18414
843.9195, 30.64363
844.4016, 31.59492
844.8837, 32.49407
845.3658, 33.01911
845.8480, 33.23162
846.3301, 32.97276
846.8122, 32.47403
847.2943, 32.43878
847.7764, 33.58912
848.2585, 34.52505
848.7407, 34.09481
849.2228, 33.02467
849.7049, 32.46817
850.1870, 32.98485
850.6691, 33.22602
851.1512, 33.02315
851.6334, 32.58834
852.1155, 32.17212
852.5976, 31.78787
853.0797, 31.53693
853.5618, 31.42554
854.0439, 31.49658
854.5261, 31.91796
855.0082, 32.49723
855.4903, 33.01488
855.9724, 33.54623
856.4545, 33.73332
856.9366, 33.27089
857.4188, 32.62962
857.9009, 32.15049
858.3830, 31.81418
858.8651, 31.91120
859.3472, 32.56797
859.8293, 33.12062
860.3115, 32.65254
860.7936, 31.66764
861.2757, 31.08707
861.7578, 31.05061
862.2399, 31.20378
862.7220, 31.64156
863.2042, 31.99878
863.6863, 31.93336
864.1684, 31.34512
864.6505, 30.96641
865.1326, 30.80657
865.6147, 30.84034
866.0969, 31.21320
866.5790, 31.77972
867.0611, 31.87329
867.5432, 31.50509
868.0253, 31.09284
868.5074, 30.79931
868.9896, 30.66312
869.4717, 30.88747
869.9538, 31.45904
870.4359, 31.48395
870.9180, 30.36381
871.4001, 29.54140
871.8823, 29.69153
872.3644, 30.57124
872.8465, 30.86532
873.3286, 30.60478
873.8107, 30.35922
874.2928, 30.50144
874.7750, 30.76887
875.2571, 30.94157
875.7392, 31.01038
876.2213, 30.93900
876.7034, 30.70932
877.1855, 30.31782
877.6677, 29.52458
878.1498, 28.67024
878.6319, 28.80772
879.1140, 30.08527
879.5961, 30.86226
880.0782, 30.60419
880.5604, 29.84967
881.0425, 29.19800
881.5246, 28.66533
882.0067, 28.28638
882.4888, 28.10287
882.9709, 28.02970
883.4531, 28.27444
883.9352, 28.48961
884.4173, 28.13693
884.8994, 26.82436
885.3815, 26.43077
885.8636, 27.33654
886.3458, 28.49434
886.8279, 28.65668
887.3100, 28.07202
887.7921, 27.16339
888.2742, 25.88308
888.7563, 25.11740
889.2385, 26.11481
889.7206, 27.38006
890.2027, 27.50274
890.6848, 25.90718
891.1669, 25.34807
891.6490, 26.15231
892.1312, 27.22150
892.6133, 27.89939
893.0954, 28.18831
893.5775, 27.95794
894.0596, 27.24231
894.5417, 26.66684
895.0239, 26.97446
895.5060, 27.28914
895.9881, 26.68399
896.4702, 25.22649
896.9523, 24.77841
897.4344, 26.24963
897.9166, 27.24286
898.3987, 26.76916
898.8808, 25.28843
899.3629, 24.28101
899.8450, 23.73104
900.3271, 23.59311
900.8093, 24.06850
901.2914, 24.70107
901.7735, 25.22882
902.2556, 25.60382
902.7377, 25.73027
903.2198, 25.27479
903.7020, 24.98915
904.1841, 25.03763
904.6662, 25.20581
905.1483, 25.10822
905.6304, 24.76138
906.1125, 24.46197
906.5947, 24.24481
907.0768, 24.17342
907.5589, 24.60559
908.0410, 25.08929
908.5231, 24.98955
909.0052, 23.80193
909.4874, 23.02340
909.9695, 23.10334
910.4516, 23.35706
910.9337, 23.26731
911.4158, 22.81390
911.8979, 22.46541
912.3801, 22.21716
912.8622, 22.28158
913.3443, 23.28918
913.8264, 24.41707
914.3085, 24.51458
914.7906, 23.59460
915.2728, 22.97716
915.7549, 23.39269
916.2370, 23.82617
916.7191, 23.89577
917.2012, 23.68059
917.6833, 23.69061
918.1655, 23.93666
918.6476, 23.95393
919.1297, 23.29048
919.6118, 22.55969
920.0939, 22.74243
920.5760, 23.47924
921.0582, 23.92871
921.5403, 23.75136
922.0224, 23.29403
922.5045, 22.34814
922.9866, 21.36196
923.4688, 21.08451
923.9509, 21.57418
924.4330, 21.92382
924.9151, 21.95855
925.3972, 21.96002
925.8793, 22.23040
926.3615, 22.67509
926.8436, 23.27295
927.3257, 24.20704
927.8078, 24.51270
928.2899, 23.14867
928.7720, 21.74174
929.2542, 21.28176
929.7363, 21.83459
930.2184, 22.12105
930.7005, 22.12807
931.1826, 22.09517
931.6647, 22.22774
932.1469, 22.40199
932.6290, 22.35410
933.1111, 22.15635
933.5932, 22.23734
934.0753, 23.29741
934.5574, 24.01577
935.0396, 23.97860
935.5217, 23.32998
936.0038, 22.24036
936.4859, 20.65465
936.9680, 20.25354
937.4501, 22.03366
937.9323, 24.22800
938.4144, 24.71013
938.8965, 24.02836
939.3786, 23.05144
939.8607, 21.52139
940.3428, 20.59999
940.8250, 20.86489
941.3071, 21.41651
941.7892, 21.29111
942.2713, 20.44155
942.7534, 20.30040
943.2355, 21.00415
943.7177, 21.82090
944.1998, 22.20247
944.6819, 22.28774
945.1640, 22.14423
945.6461, 21.77952
946.1282, 21.54896
946.6104, 21.86710
947.0925, 21.92615
947.5746, 21.33839
948.0567, 20.25845
948.5388, 19.35610
949.0209, 18.65069
949.5031, 18.52024
949.9852, 19.46539
950.4673, 20.70936
950.9494, 21.65755
951.4315, 22.30116
951.9136, 22.61050
952.3958, 22.24929
952.8779, 22.00533
953.3600, 21.99745
953.8421, 22.06643
954.3242, 21.98669
954.8063, 21.77853
955.2885, 21.56613
955.7706, 21.35308
956.2527, 21.25716
956.7348, 21.60125
957.2169, 21.96357
957.6990, 21.89301
958.1811, 21.22195
958.6632, 20.76449
959.1453, 20.63765
959.6274, 20.54117
960.1096, 20.27447
960.5917, 19.91715
961.0738, 19.88613
961.5559, 20.12218
962.0380, 20.27331
962.5201, 19.94623
963.0023, 19.67624
963.4844, 19.88374
963.9665, 20.38545
964.4486, 20.67582
964.9307, 20.63014
965.4128, 20.69194
965.8950, 21.02383
966.3771, 21.26819
966.8592, 20.68821
967.3413, 19.63061
967.8234, 18.99193
968.3055, 18.98511
968.7877, 19.22828
969.2698, 19.72728
969.7519, 20.23187
970.2340, 20.56084
970.7161, 20.71221
971.1982, 20.73260
971.6804, 20.61541
972.1625, 20.40265
972.6446, 19.99774
973.1267, 19.56955
973.6088, 19.50125
974.0909, 19.70211
974.5731, 19.83410
975.0552, 19.69195
975.5373, 19.53161
976.0194, 19.39237
976.5015, 19.30326
976.9836, 19.30960
977.4658, 19.40821
977.9479, 19.67770
978.4300, 20.17748
978.9121, 20.66361
979.3942, 20.86217
979.8763, 20.88609
980.3585, 20.90170
980.8406, 20.97971
981.3227, 20.86247
981.8048, 20.32391
982.2869, 19.83575
982.7690, 19.69159
983.2512, 19.85018
983.7333, 19.89211
984.2154, 19.83425
984.6975, 19.89695
985.1796, 20.33829
985.6617, 20.83691
986.1439, 21.24311
986.6260, 21.50720
987.1081, 21.45147
987.5902, 20.78441
988.0723, 20.42781
988.5544, 20.62392
989.0366, 20.97446
989.5187, 20.71295
990.0008, 20.10205
990.4829, 20.12881
990.9650, 21.12839
991.4471, 21.72892
991.9293, 20.55490
992.4114, 19.10906
992.8935, 18.52777
993.3756, 18.85996
993.8577, 19.38757
994.3398, 20.15479
994.8220, 20.84899
995.3041, 21.43076
995.7862, 21.73549
996.2683, 21.22828
996.7504, 20.19866
997.2325, 19.47973
997.7147, 19.57059
998.1968, 19.80152
998.6789, 20.08194
999.1610, 20.36149
999.6431, 20.57743
1000.125, 20.72654
1000.607, 20.78229
1001.089, 20.72823
1001.572, 20.68204
1002.054, 20.79659
1002.536, 20.94639
1003.018, 20.89173
1003.500, 20.54299
1003.982, 20.86469
1004.464, 22.47644
1004.946, 23.58913
1005.429, 23.25652
1005.911, 21.96738
1006.393, 21.12530
1006.875, 20.67905
1007.357, 20.45921
1007.839, 20.42912
1008.321, 20.54212
1008.803, 20.86514
1009.285, 21.28013
1009.768, 21.67612
1010.250, 22.20439
1010.732, 22.01060
1011.214, 20.91171
1011.696, 19.79612
1012.178, 19.62743
1012.660, 19.97963
1013.142, 20.30807
1013.625, 20.55474
1014.107, 20.60706
1014.589, 19.92905
1015.071, 19.66804
1015.553, 20.42637
1016.035, 21.77086
1016.517, 22.17449
1016.999, 21.71478
1017.481, 21.19805
1017.964, 20.86650
1018.446, 20.62685
1018.928, 20.27616
1019.410, 20.02288
1019.892, 20.17597
1020.374, 21.08030
1020.856, 21.56783
1021.338, 21.51335
1021.820, 21.37376
1022.303, 21.64097
1022.785, 22.05695
1023.267, 21.70968
1023.749, 20.77695
1024.231, 20.34817
1024.713, 21.81195
1025.195, 22.93141
1025.677, 22.55487
1026.160, 21.34988
1026.642, 20.58727
1027.124, 20.27866
1027.606, 20.23941
1028.088, 20.47652
1028.570, 20.78356
1029.052, 21.02423
1029.534, 21.16916
1030.016, 21.12133
1030.499, 20.78432
1030.981, 20.79733
1031.463, 21.49244
1031.945, 21.95405
1032.427, 21.53261
1032.909, 20.61446
1033.391, 20.67034
1033.873, 21.45992
1034.356, 21.96167
1034.838, 21.35391
1035.320, 20.75622
1035.802, 20.66195
1036.284, 20.88227
1036.766, 21.21831
1037.248, 21.75421
1037.730, 21.83735
1038.213, 21.37577
1038.695, 20.83706
1039.177, 20.42603
1039.659, 20.33130
1040.141, 21.15616
1040.623, 22.79356
1041.105, 23.49296
1041.587, 22.12277
1042.069, 21.02196
1042.552, 20.85537
1043.034, 21.24511
1043.516, 21.36494
1043.998, 21.27132
1044.480, 21.15757
1044.962, 21.01633
1045.444, 21.05572
1045.926, 21.77715
1046.408, 22.45235
1046.891, 22.37500
1047.373, 21.42966
1047.855, 20.75778
1048.337, 20.37106
1048.819, 20.15132
1049.301, 20.01602
1049.783, 20.01103
1050.265, 20.36830
1050.748, 20.90188
1051.230, 21.11901
1051.712, 20.57274
1052.194, 20.11472
1052.676, 19.79127
1053.158, 19.62719
1053.640, 19.76901
1054.122, 20.10888
1054.604, 20.15802
1055.087, 19.86348
1055.569, 19.68721
1056.051, 20.07248
1056.533, 20.50008
1057.015, 20.66442
1057.497, 20.61036
1057.979, 20.50739
1058.461, 20.34167
1058.943, 20.32591
1059.426, 20.60039
1059.908, 20.88090
1060.390, 20.71613
1060.872, 20.40180
1061.354, 20.40323
1061.836, 21.16024
1062.318, 21.18426
1062.800, 20.05312
1063.283, 18.96976
1063.765, 18.84869
1064.247, 19.35996
1064.729, 19.37638
1065.211, 19.01539
1065.693, 18.76471
1066.175, 18.94321
1066.657, 19.18013
1067.140, 19.33159
1067.622, 19.47482
1068.104, 19.77802
1068.586, 20.25156
1069.068, 20.35818
1069.550, 20.01451
1070.032, 19.69565
1070.514, 19.97481
1070.996, 20.33724
1071.479, 20.37060
1071.961, 20.03836
1072.443, 19.42688
1072.925, 18.24763
1073.407, 17.69808
1073.889, 18.29245
1074.371, 19.32227
1074.853, 19.70601
1075.335, 19.65936
1075.818, 19.55012
1076.300, 19.36941
1076.782, 19.47468
1077.264, 20.37885
1077.746, 21.10454
1078.228, 20.95011
1078.710, 20.11310
1079.192, 19.96457
1079.675, 20.40889
1080.157, 20.75356
1080.639, 20.59949
1081.121, 20.28108
1081.603, 19.86361
1082.085, 19.45771
1082.567, 19.28623
1083.049, 19.47768
1083.531, 19.15252
1084.014, 18.17421
1084.496, 17.35599
1084.978, 17.66413
1085.460, 18.35474
1085.942, 18.61397
1086.424, 18.45141
1086.906, 18.20502
1087.388, 17.78210
1087.870, 17.59990
1088.353, 17.83810
1088.835, 18.17513
1089.317, 17.98752
1089.799, 17.50106
1090.281, 17.24354
1090.763, 17.32420
1091.245, 17.50931
1091.727, 17.97554
1092.209, 18.20711
1092.692, 17.79214
1093.174, 16.95757
1093.656, 17.01292
1094.138, 17.84512
1094.620, 18.43401
1095.102, 18.17875
1095.584, 17.94279
1096.066, 18.65966
1096.549, 19.55464
1097.031, 19.63744
1097.513, 18.62627
1097.995, 18.12904
1098.477, 18.20313
1098.959, 18.34974
1099.441, 18.21520
1099.923, 17.96498
1100.406, 17.80087
1100.888, 17.68637
1101.370, 17.50386
1101.852, 17.07458
1102.334, 16.86670
1102.816, 16.96784
1103.298, 17.19574
1103.780, 17.28066
1104.262, 17.34820
1104.745, 17.89012
1105.227, 18.88908
1105.709, 19.35941
1106.191, 18.26912
1106.673, 17.31612
1107.155, 17.14981
1107.637, 17.42854
1108.119, 17.32158
1108.601, 16.89647
1109.084, 16.57693
1109.566, 16.45815
1110.048, 16.43702
1110.530, 16.60262
1111.012, 16.70014
1111.494, 16.42184
1111.976, 15.81693
1112.458, 15.79510
1112.941, 16.39102
1113.423, 16.80544
1113.905, 16.61371
1114.387, 16.25412
1114.869, 16.06025
1115.351, 16.05261
1115.833, 16.31183
1116.315, 17.03958
1116.797, 17.44687
1117.280, 17.48198
1117.762, 17.39645
1118.244, 17.47751
1118.726, 17.49392
1119.208, 16.76122
1119.690, 15.61808
1120.172, 15.06076
1120.654, 16.05315
1121.136, 16.75229
1121.619, 16.98561
1122.101, 16.85890
1122.583, 16.17444
1123.065, 15.25838
1123.547, 15.32727
1124.029, 16.36185
1124.511, 17.21899
1124.993, 17.31571
1125.476, 17.11206
1125.958, 16.64561
1126.440, 16.11644
1126.922, 15.97079
1127.404, 16.16363
1127.886, 16.34401
1128.368, 16.46222
1128.850, 16.45526
1129.333, 16.10880
1129.815, 15.77012
1130.297, 15.74149
1130.779, 15.95259
1131.261, 15.88737
1131.743, 15.52112
1132.225, 15.56574
1132.707, 16.47335
1133.189, 17.28763
1133.672, 16.95956
1134.154, 16.09396
1134.636, 15.27121
1135.118, 14.48131
1135.600, 14.36347
1136.082, 15.07529
1136.564, 15.72102
1137.046, 15.87024
1137.528, 15.65611
1138.011, 14.81564
1138.493, 13.87142
1138.975, 13.81502
1139.457, 16.27230
1139.939, 17.15831
1140.421, 15.79821
1140.903, 14.37626
1141.385, 15.02414
1141.868, 16.70131
1142.350, 16.97210
1142.832, 16.13760
1143.314, 15.49807
1143.796, 15.93820
1144.278, 16.03918
1144.760, 15.32067
1145.242, 14.56814
1145.724, 15.00526
1146.207, 16.20341
1146.689, 16.54661
1147.171, 15.97633
1147.653, 15.37216
1148.135, 15.04943
1148.617, 14.99489
1149.099, 15.37533
1149.581, 15.85885
1150.063, 15.61757
1150.546, 14.80302
1151.028, 14.59197
1151.510, 15.23030
1151.992, 15.80332
1152.474, 15.62061
1152.956, 15.25074
1153.438, 14.93293
1153.920, 14.73250
1154.403, 15.04704
1154.885, 15.85557
1155.367, 16.31328
1155.849, 16.08759
1156.331, 15.76954
1156.813, 15.90292
1157.295, 16.14757
1157.777, 16.22744
1158.260, 16.14075
1158.742, 15.58472
1159.224, 14.49602
1159.706, 13.92531
1160.188, 14.65967
1160.670, 15.46991
1161.152, 14.65801
1161.634, 13.31931
1162.116, 13.04559
1162.599, 14.41264
1163.081, 15.02948
1163.563, 14.76454
1164.045, 14.50208
1164.527, 15.02446
1165.009, 15.63066
1165.491, 15.11689
1165.973, 14.05277
1166.455, 13.59863
1166.938, 14.44965
1167.420, 15.00653
1167.902, 15.27183
1168.384, 15.19571
1168.866, 14.22532
1169.348, 13.17885
1169.830, 13.88190
1170.312, 15.73046
1170.795, 16.67407
1171.277, 15.24850
1171.759, 14.32026
1172.241, 14.23831
1172.723, 14.41738
1173.205, 14.14139
1173.687, 13.70336
1174.169, 13.75953
1174.651, 14.27022
1175.134, 14.68342
1175.616, 14.72816
1176.098, 14.78064
1176.580, 14.93547
1177.062, 15.07381
1177.544, 14.86601
1178.026, 14.54180
1178.508, 14.88120
1178.990, 15.94224
1179.473, 16.42271
1179.955, 14.82999
1180.437, 13.89787
1180.919, 14.67434
1181.401, 16.19843
1181.883, 16.52446
1182.365, 16.00543
1182.847, 15.68448
1183.330, 15.75677
1183.812, 15.96354
1184.294, 16.46640
1184.776, 16.74530
1185.258, 16.53709
1185.740, 16.00754
1186.222, 15.52352
1186.704, 15.14064
1187.187, 15.17183
1187.669, 15.87404
1188.151, 16.27205
1188.633, 15.52516
1189.115, 14.70805
1189.597, 14.38140
1190.079, 14.45839
1190.561, 14.66093
1191.043, 14.93561
1191.526, 14.98807
1192.008, 14.61236
1192.490, 14.24780
1192.972, 14.06661
1193.454, 14.02078
1193.936, 14.08273
1194.418, 14.24849
1194.900, 14.56976
1195.382, 14.99421
1195.865, 15.20533
1196.347, 15.04127
1196.829, 14.66485
1197.311, 13.77995
1197.793, 13.03131
1198.275, 13.08998
1198.757, 13.92625
1199.239, 14.17588
1199.722, 13.89214
1200.204, 13.58651
1200.686, 13.45751
1201.168, 13.46851
1201.650, 13.66952
1202.132, 13.96214
1202.614, 14.35452
1203.096, 14.84268
1203.578, 14.49752
1204.061, 13.38690
1204.543, 12.57088
1205.025, 12.94810
1205.507, 13.51592
1205.989, 13.75110
1206.471, 13.86805
1206.953, 14.20210
1207.435, 14.74745
1207.917, 14.91449
1208.400, 14.68694
1208.882, 14.44213
1209.364, 14.62831
1209.846, 14.65728
1210.328, 13.82680
1210.810, 12.82609
1211.292, 12.82497
1211.774, 13.78560
1212.257, 14.39031
1212.739, 14.53461
1213.221, 14.50868
1213.703, 14.56281
1214.185, 14.44850
1214.667, 13.75176
1215.149, 12.92044
1215.631, 12.89312
1216.114, 13.60988
1216.596, 14.01946
1217.078, 13.97984
1217.560, 14.01456
1218.042, 14.66131
1218.524, 15.30242
1219.006, 15.65900
1219.488, 15.73132
1219.970, 15.35501
1220.453, 14.59165
1220.935, 14.21934
1221.417, 14.38697
1221.899, 14.58504
1222.381, 14.30328
1222.863, 14.15862
1223.345, 14.66773
1223.827, 14.53020
1224.309, 14.62704
1224.792, 14.94372
1225.274, 14.72777
1225.756, 15.14236
1226.238, 15.34166
1226.720, 14.31524
1227.202, 13.47821
1227.684, 13.80419
1228.166, 13.01302
1228.649, 14.33232
1229.131, 12.88466
1229.613, 12.32771
1230.095, 13.21625
1230.577, 14.28736
1231.059, 15.30804
1231.541, 15.76072
1232.023, 15.17472
1232.505, 13.99313
1232.988, 13.70780
1233.470, 14.13837
1233.952, 14.59385
1234.434, 14.93892
1234.916, 15.09629
1235.398, 14.84337
1235.880, 14.60311
1236.362, 14.65016
1236.844, 14.80662
1237.327, 14.32553
1237.809, 13.44092
1238.291, 12.94203
1238.773, 13.10639
1239.255, 13.46178
1239.737, 14.01345
1240.219, 14.50206
1240.701, 14.81085
1241.184, 14.97858
1241.666, 15.11253
1242.148, 15.20903
1242.630, 15.25447
1243.112, 15.23834
1243.594, 15.19068
1244.076, 15.11903
1244.558, 15.00822
1245.041, 14.78245
1245.523, 14.57113
1246.005, 14.84517
1246.487, 15.36731
1246.969, 15.55694
1247.451, 15.06040
1247.933, 14.82489
1248.415, 15.10283
1248.897, 15.31798
1249.380, 15.19976
1249.862, 14.78559
1250.344, 13.81805
1250.826, 12.71646
1251.308, 12.32499
1251.790, 13.23929
1252.272, 13.86612
1252.754, 14.04046
1253.236, 14.25994
1253.719, 15.08777
1254.201, 15.79042
1254.683, 14.59855
1255.165, 12.67127
1255.647, 12.05332
1256.129, 13.86898
1256.611, 14.87046
1257.093, 14.94742
1257.576, 14.73437
1258.058, 14.44077
1258.540, 14.22872
1259.022, 14.38733
1259.504, 14.72010
1259.986, 14.92651
1260.468, 14.97508
1260.950, 14.97429
1261.432, 14.93681
1261.915, 14.68013
1262.397, 13.86094
1262.879, 13.09469
1263.361, 12.87819
1263.843, 13.09830
1264.325, 13.69706
1264.807, 14.76738
1265.289, 15.12619
1265.771, 14.79254
1266.254, 14.50146
1266.736, 14.90058
1267.218, 15.13379
1267.700, 14.27722
1268.182, 13.23010
1268.664, 12.99336
1269.146, 13.54887
1269.628, 14.00603
1270.111, 14.35072
1270.593, 14.44525
1271.075, 13.82018
1271.557, 13.51608
1272.039, 14.50122
1272.521, 15.54848
1273.003, 15.82779
1273.485, 15.37264
1273.968, 13.88957
1274.450, 11.76504
1274.932, 10.70500
1275.414, 12.43960
1275.896, 13.67110
1276.378, 13.32702
1276.860, 12.93420
1277.342, 13.87476
1277.824, 15.51995
1278.307, 15.94161
1278.789, 15.43730
1279.271, 14.83280
1279.753, 14.03273
1280.235, 13.94451
1280.717, 14.92307
1281.199, 15.77623
1281.681, 15.62186
1282.163, 14.86557
1282.646, 13.90325
1283.128, 12.97259
1283.610, 12.57946
1284.092, 13.12505
1284.574, 13.46000
1285.056, 13.54516
1285.538, 13.62913
1286.020, 13.86098
1286.503, 14.18112
1286.985, 14.78780
1287.467, 15.31960
1287.949, 15.08850
1288.431, 13.85061
1288.913, 13.29486
1289.395, 13.43050
1289.877, 13.80020
1290.359, 14.24242
1290.842, 14.69662
1291.324, 15.41034
1291.806, 15.87535
1292.288, 15.42618
1292.770, 14.07945
1293.252, 13.60021
1293.734, 13.87812
1294.216, 14.03544
1294.698, 13.36157
1295.181, 12.97904
1295.663, 13.80410
1296.145, 14.68995
1296.627, 14.91134
1297.109, 14.54650
1297.591, 13.52300
1298.073, 12.21042
1298.555, 11.87122
1299.038, 13.80595
1299.520, 14.94757
1300.002, 14.65870
1300.484, 13.99946
1300.966, 13.43685
1301.448, 13.09316
1301.930, 13.40537
1302.412, 14.07634
1302.895, 14.51099
1303.377, 14.49790
1303.859, 14.41212
1304.341, 14.26480
1304.823, 13.99611
1305.305, 13.57417
##END=



