##NAMES=Chalcanthite
##RRUFFID=R060018
##IDEAL CHEMISTRY=Cu^2+^S^6+^O_4_&#183;5H_2_O
##LOCALITY=Chuquicamata, Chile
##OWNER=RRUFF
##SOURCE=American Museum of Natural History
##DESCRIPTION=Dark blue fragment
##STATUS=The identification of this mineral is confirmed by single-crystal X-ray diffraction and chemical analysis.
##URL=rruff.info/R060018
##MEASURED CHEMISTRY=Cu_1.00_S_1.00_O_4_Â·5H_2_O
93.40625, 34.72246
93.88837, 33.66613
94.37048, 34.19624
94.85260, 36.14083
95.33472, 39.07656
95.81683, 43.15371
96.29895, 48.00556
96.78107, 52.93345
97.26318, 57.97065
97.74530, 62.99070
98.22742, 67.79646
98.70953, 72.41167
99.19165, 76.97291
99.67377, 81.41089
100.1559, 85.74483
100.6380, 90.41514
101.1201, 95.42567
101.6022, 100.6865
102.0844, 105.9285
102.5665, 111.0938
103.0486, 116.5571
103.5307, 122.3242
104.0128, 128.3859
104.4949, 135.1431
104.9771, 142.8197
105.4592, 151.1476
105.9413, 159.6829
106.4234, 167.9273
106.9055, 176.9543
107.3876, 187.1619
107.8698, 199.4216
108.3519, 211.6983
108.8340, 223.6836
109.3161, 235.6647
109.7982, 248.5211
110.2803, 262.4505
110.7624, 277.2676
111.2446, 292.8502
111.7267, 310.1024
112.2088, 327.3612
112.6909, 344.5620
113.1730, 361.8419
113.6551, 378.9216
114.1373, 395.5540
114.6194, 412.0045
115.1015, 428.6898
115.5836, 445.6465
116.0657, 462.8043
116.5478, 479.5456
117.0300, 495.9549
117.5121, 513.5934
117.9942, 533.6414
118.4763, 555.1218
118.9584, 576.6809
119.4405, 597.9612
119.9227, 619.4117
120.4048, 640.9835
120.8869, 662.6649
121.3690, 685.0751
121.8511, 710.0792
122.3332, 736.1705
122.8154, 760.1769
123.2975, 779.7162
123.7796, 796.5994
124.2617, 813.0745
124.7438, 829.5900
125.2259, 844.8734
125.7081, 858.4592
126.1902, 869.6000
126.6723, 872.9614
127.1544, 868.1492
127.6365, 859.7570
128.1186, 849.5841
128.6008, 837.2957
129.0829, 824.5143
129.5650, 813.5374
130.0471, 804.2937
130.5292, 796.1947
131.0113, 788.9612
131.4935, 782.4981
131.9756, 776.4299
132.4577, 770.5947
132.9398, 765.0939
133.4219, 760.3425
133.9040, 756.2629
134.3862, 753.0402
134.8683, 751.5031
135.3504, 751.5911
135.8325, 750.8031
136.3146, 747.8762
136.7967, 743.1146
137.2789, 739.6254
137.7610, 737.6143
138.2431, 736.2612
138.7252, 734.5497
139.2073, 732.4881
139.6894, 730.0033
140.1716, 726.7990
140.6537, 722.6301
141.1358, 719.4890
141.6179, 717.5576
142.1000, 716.3899
142.5821, 715.1364
143.0643, 713.5738
143.5464, 712.3762
144.0285, 712.0001
144.5106, 713.2076
144.9927, 713.2090
145.4748, 711.5178
145.9570, 708.7196
146.4391, 706.6902
146.9212, 706.5952
147.4033, 705.8455
147.8854, 703.2230
148.3675, 698.2106
148.8497, 692.1474
149.3318, 685.0240
149.8139, 676.9257
150.2960, 668.1705
150.7781, 659.2161
151.2602, 649.3132
151.7424, 638.1473
152.2245, 625.4797
152.7066, 611.8493
153.1887, 596.9285
153.6708, 580.9439
154.1529, 565.1575
154.6351, 549.6580
155.1172, 534.2215
155.5993, 518.7207
156.0814, 502.2128
156.5635, 486.3736
157.0456, 471.5300
157.5278, 457.8161
158.0099, 444.6314
158.4920, 431.2999
158.9741, 418.5830
159.4562, 407.1003
159.9383, 397.3530
160.4205, 388.5295
160.9026, 380.3996
161.3847, 372.9489
161.8668, 366.1817
162.3489, 359.9185
162.8310, 354.3852
163.3132, 349.8449
163.7953, 346.9244
164.2774, 344.5892
164.7595, 342.3069
165.2416, 339.9840
165.7237, 337.9862
166.2059, 336.2647
166.6880, 334.9853
167.1701, 334.4040
167.6522, 334.8788
168.1343, 335.9223
168.6164, 337.2362
169.0986, 338.8127
169.5807, 340.5621
170.0628, 342.5994
170.5449, 344.7719
171.0270, 346.7621
171.5091, 347.5909
171.9913, 348.5674
172.4734, 351.1064
172.9555, 355.6822
173.4376, 360.9313
173.9197, 365.7532
174.4018, 370.3360
174.8840, 375.1566
175.3661, 380.5263
175.8482, 386.2322
176.3303, 391.9736
176.8124, 397.7164
177.2945, 403.5097
177.7767, 409.3992
178.2588, 415.4280
178.7409, 421.5219
179.2230, 427.3201
179.7051, 433.2700
180.1872, 440.2748
180.6694, 448.9161
181.1515, 457.9989
181.6336, 465.8936
182.1157, 472.6755
182.5978, 478.8439
183.0799, 484.4159
183.5621, 489.6794
184.0442, 495.3567
184.5263, 501.8053
185.0084, 508.5127
185.4905, 514.5617
185.9726, 519.9626
186.4547, 525.6382
186.9369, 532.2444
187.4190, 539.7501
187.9011, 547.8524
188.3832, 556.9401
188.8653, 566.2971
189.3474, 574.0746
189.8296, 580.2878
190.3117, 586.5313
190.7938, 594.4296
191.2759, 603.7592
191.7580, 612.7265
192.2401, 621.0724
192.7223, 628.8148
193.2044, 636.1583
193.6865, 643.2039
194.1686, 649.6035
194.6507, 654.9060
195.1328, 659.1400
195.6150, 662.9085
196.0971, 666.4215
196.5792, 669.5125
197.0613, 671.5959
197.5434, 672.6735
198.0255, 672.6989
198.5077, 671.6785
198.9898, 669.6228
199.4719, 666.2432
199.9540, 661.2463
200.4361, 654.8845
200.9182, 648.3303
201.4004, 641.6644
201.8825, 634.6912
202.3646, 627.3117
202.8467, 619.6586
203.3288, 611.0984
203.8109, 601.3064
204.2931, 590.4225
204.7752, 579.4280
205.2573, 568.0996
205.7394, 557.1946
206.2215, 547.7031
206.7036, 540.0186
207.1858, 532.1097
207.6679, 523.3738
208.1500, 513.8884
208.6321, 504.8229
209.1142, 496.1466
209.5963, 487.9410
210.0785, 480.3973
210.5606, 473.7624
211.0427, 467.0196
211.5248, 459.7131
212.0069, 451.8742
212.4890, 444.9362
212.9712, 439.1372
213.4533, 433.8512
213.9354, 428.4512
214.4175, 422.7781
214.8996, 417.3093
215.3817, 411.9562
215.8639, 406.7589
216.3460, 402.5650
216.8281, 399.6630
217.3102, 397.3623
217.7923, 395.0879
218.2744, 393.1198
218.7566, 390.3251
219.2387, 386.0515
219.7208, 380.1891
220.2029, 375.9531
220.6850, 373.6052
221.1671, 372.6164
221.6493, 372.6213
222.1314, 374.1232
222.6135, 375.4435
223.0956, 375.9949
223.5777, 375.7211
224.0598, 376.3770
224.5420, 378.3974
225.0241, 380.8728
225.5062, 382.7237
225.9883, 383.1968
226.4704, 384.6412
226.9525, 387.7755
227.4347, 392.7251
227.9168, 397.1245
228.3989, 400.3648
228.8810, 403.7005
229.3631, 408.4617
229.8452, 415.4066
230.3274, 422.3734
230.8095, 428.8250
231.2916, 434.7227
231.7737, 441.2762
232.2558, 448.8073
232.7379, 456.6609
233.2201, 463.9529
233.7022, 469.8786
234.1843, 476.8120
234.6664, 485.4494
235.1485, 495.7396
235.6306, 505.8086
236.1128, 515.8061
236.5949, 525.5573
237.0770, 534.8615
237.5591, 543.2792
238.0412, 552.1201
238.5233, 562.0556
239.0055, 573.1223
239.4876, 582.0070
239.9697, 587.7265
240.4518, 592.4254
240.9339, 598.1022
241.4160, 605.7591
241.8982, 612.4109
242.3803, 617.4866
242.8624, 621.0234
243.3445, 623.8292
243.8266, 626.0989
244.3087, 627.4503
244.7909, 627.4930
245.2730, 625.7904
245.7551, 623.6088
246.2372, 620.9242
246.7193, 617.7898
247.2014, 615.0488
247.6836, 613.0515
248.1657, 611.0364
248.6478, 608.3732
249.1299, 604.5236
249.6120, 601.1776
250.0941, 598.7371
250.5762, 597.0586
251.0584, 594.8441
251.5405, 591.4691
252.0226, 588.4329
252.5047, 586.8605
252.9868, 587.1917
253.4689, 587.9990
253.9511, 589.4625
254.4332, 591.3707
254.9153, 592.2841
255.3974, 591.4306
255.8795, 590.7980
256.3617, 591.8607
256.8438, 595.6768
257.3259, 598.3943
257.8080, 599.3321
258.2901, 598.9813
258.7722, 599.4146
259.2544, 601.2726
259.7365, 602.8237
260.2186, 602.9684
260.7007, 601.0779
261.1828, 599.6872
261.6649, 599.2192
262.1471, 599.2274
262.6292, 598.2291
263.1113, 595.6921
263.5934, 593.2112
264.0755, 591.6181
264.5576, 591.1044
265.0398, 590.7424
265.5219, 590.5381
266.0040, 590.4543
266.4861, 590.2893
266.9682, 589.8022
267.4503, 589.8657
267.9325, 591.0748
268.4146, 593.8176
268.8967, 595.8744
269.3788, 596.7543
269.8609, 597.4572
270.3430, 600.0276
270.8252, 604.9453
271.3073, 610.1194
271.7894, 614.5755
272.2715, 618.2216
272.7536, 622.1796
273.2357, 626.4797
273.7179, 630.9718
274.2000, 635.5515
274.6821, 640.2355
275.1642, 644.8118
275.6463, 649.5486
276.1284, 654.4459
276.6106, 657.5215
277.0927, 658.7112
277.5748, 658.2170
278.0569, 656.2971
278.5390, 652.9913
279.0211, 648.1285
279.5032, 641.6203
279.9854, 633.5552
280.4675, 624.0375
280.9496, 612.9919
281.4317, 600.7779
281.9138, 587.5587
282.3959, 573.3094
282.8781, 558.8676
283.3602, 544.7081
283.8423, 530.4221
284.3244, 514.3493
284.8065, 496.1948
285.2886, 477.6188
285.7708, 459.8778
286.2529, 442.9662
286.7350, 426.9067
287.2171, 411.8709
287.6992, 397.5049
288.1813, 383.0679
288.6635, 368.4691
289.1456, 354.2081
289.6277, 340.4818
290.1098, 327.2976
290.5919, 315.1810
291.0740, 304.1646
291.5562, 294.1115
292.0383, 285.2469
292.5204, 277.4492
293.0025, 269.7878
293.4846, 261.2346
293.9667, 252.1993
294.4489, 244.1415
294.9310, 237.4256
295.4131, 231.4557
295.8952, 225.5938
296.3773, 219.8376
296.8594, 214.0274
297.3416, 207.4044
297.8237, 200.6620
298.3058, 195.7579
298.7879, 193.0324
299.2700, 190.9134
299.7521, 187.3832
300.2343, 182.8948
300.7164, 179.0762
301.1985, 176.5376
301.6806, 175.1583
302.1627, 175.2474
302.6448, 176.9227
303.1270, 178.4249
303.6091, 178.0215
304.0912, 176.2599
304.5733, 174.2585
305.0554, 172.9960
305.5375, 171.4463
306.0197, 167.4439
306.5018, 161.2194
306.9839, 156.5934
307.4660, 158.2067
307.9481, 162.8194
308.4302, 165.8584
308.9124, 165.6115
309.3945, 163.5791
309.8766, 160.0369
310.3587, 155.3484
310.8408, 151.6071
311.3229, 150.5489
311.8051, 150.8341
312.2872, 151.1485
312.7693, 151.1058
313.2514, 151.1533
313.7335, 151.6311
314.2156, 152.4238
314.6978, 153.1979
315.1799, 153.7173
315.6620, 154.2139
316.1441, 154.8033
316.6262, 155.4414
317.1083, 156.3513
317.5905, 157.8560
318.0726, 159.6641
318.5547, 161.2924
319.0368, 162.5835
319.5189, 163.6303
320.0010, 164.3329
320.4832, 164.5618
320.9653, 165.1223
321.4474, 166.6269
321.9295, 168.4563
322.4116, 169.8857
322.8937, 170.2065
323.3759, 170.6420
323.8580, 171.6053
324.3401, 173.1297
324.8222, 174.6532
325.3043, 176.3781
325.7864, 177.9212
326.2686, 178.9870
326.7507, 179.1020
327.2328, 179.2321
327.7149, 179.4939
328.1970, 179.8779
328.6791, 180.3014
329.1613, 181.2198
329.6434, 181.8151
330.1255, 181.6616
330.6076, 180.2181
331.0897, 178.8009
331.5718, 177.4208
332.0540, 176.0807
332.5361, 174.8109
333.0182, 173.8778
333.5003, 172.6453
333.9824, 170.7932
334.4645, 167.9963
334.9467, 165.5418
335.4288, 163.5279
335.9109, 161.8036
336.3930, 160.1704
336.8751, 158.5993
337.3572, 157.1652
337.8394, 155.9586
338.3215, 155.0146
338.8036, 153.6905
339.2857, 151.8426
339.7678, 149.8596
340.2499, 148.1792
340.7321, 146.9108
341.2142, 145.4268
341.6963, 143.4377
342.1784, 141.1492
342.6605, 139.6497
343.1426, 139.0604
343.6248, 138.7464
344.1069, 138.2647
344.5890, 137.6256
345.0711, 136.8972
345.5532, 136.0716
346.0353, 135.1961
346.5175, 134.3384
346.9996, 133.4933
347.4817, 132.8063
347.9638, 132.4609
348.4459, 132.3590
348.9280, 132.1218
349.4102, 131.6972
349.8923, 131.2446
350.3744, 131.0305
350.8565, 130.9890
351.3386, 130.8570
351.8207, 130.2551
352.3029, 129.5731
352.7850, 129.5849
353.2671, 130.3091
353.7492, 131.0388
354.2313, 131.0537
354.7134, 130.6677
355.1956, 130.4272
355.6777, 130.5257
356.1598, 130.8413
356.6419, 131.3445
357.1240, 132.0025
357.6061, 132.6349
358.0883, 133.1408
358.5704, 133.5660
359.0525, 133.9122
359.5346, 134.0646
360.0167, 134.3770
360.4988, 135.2075
360.9810, 136.3499
361.4631, 137.3447
361.9452, 137.9988
362.4273, 138.4508
362.9094, 138.7084
363.3915, 138.7029
363.8737, 138.8302
364.3558, 139.2263
364.8379, 139.8185
365.3200, 140.5212
365.8021, 141.4293
366.2842, 142.3362
366.7664, 143.2941
367.2485, 144.3100
367.7306, 144.9084
368.2127, 144.5832
368.6948, 144.1069
369.1769, 143.9915
369.6591, 144.7478
370.1412, 145.2561
370.6233, 145.2148
371.1054, 144.8498
371.5875, 145.0640
372.0696, 146.4521
372.5518, 147.6911
373.0339, 148.1604
373.5160, 147.4422
373.9981, 147.1641
374.4802, 147.4756
374.9623, 148.1039
375.4445, 148.6234
375.9266, 149.0220
376.4087, 149.3415
376.8908, 149.4837
377.3729, 149.4688
377.8550, 150.0634
378.3372, 151.4392
378.8193, 152.9539
379.3014, 153.9182
379.7835, 154.3142
380.2656, 154.7464
380.7477, 155.3529
381.2299, 156.0413
381.7120, 156.4602
382.1941, 156.5932
382.6762, 157.0129
383.1583, 158.2310
383.6404, 160.0817
384.1226, 161.8669
384.6047, 163.4951
385.0868, 165.1289
385.5689, 167.1702
386.0510, 169.4591
386.5331, 171.4238
387.0153, 172.2138
387.4974, 172.7802
387.9795, 174.8502
388.4616, 178.4363
388.9437, 181.7880
389.4258, 183.0955
389.9080, 183.4375
390.3901, 184.3483
390.8722, 186.6290
391.3543, 189.2394
391.8364, 191.3448
392.3185, 193.1001
392.8007, 195.1496
393.2828, 197.7780
393.7649, 200.8272
394.2470, 204.1772
394.7291, 207.8280
395.2112, 211.7186
395.6934, 216.0169
396.1755, 220.4969
396.6576, 224.8222
397.1397, 228.7200
397.6218, 232.6270
398.1039, 236.6448
398.5861, 240.7728
399.0682, 245.0815
399.5503, 249.3801
400.0324, 254.0029
400.5145, 259.1442
400.9966, 265.0406
401.4788, 271.1668
401.9609, 277.4537
402.4430, 283.9440
402.9251, 290.8563
403.4072, 298.5352
403.8893, 306.1416
404.3714, 313.0233
404.8535, 318.7447
405.3357, 325.7900
405.8178, 334.3638
406.2999, 343.8697
406.7820, 353.5085
407.2641, 363.3008
407.7462, 373.0801
408.2284, 382.7788
408.7105, 392.3413
409.1926, 402.5391
409.6747, 413.4652
410.1568, 424.3501
410.6389, 433.9191
411.1211, 442.5592
411.6032, 453.1865
412.0853, 466.8173
412.5674, 481.6521
413.0495, 495.5624
413.5316, 508.7465
414.0138, 521.7935
414.4959, 534.9114
414.9780, 548.3333
415.4601, 562.4857
415.9422, 577.5812
416.4243, 592.3529
416.9065, 605.5865
417.3886, 617.9559
417.8707, 630.1929
418.3528, 642.9633
418.8349, 655.4282
419.3170, 667.3447
419.7992, 678.7570
420.2813, 689.2659
420.7634, 698.3482
421.2455, 706.9618
421.7276, 715.9471
422.2097, 726.3215
422.6919, 735.1154
423.1740, 741.1615
423.6561, 745.3164
424.1382, 749.0389
424.6203, 751.6833
425.1024, 754.6822
425.5846, 758.7562
426.0667, 764.0014
426.5488, 768.1846
427.0309, 770.0425
427.5130, 771.9977
427.9951, 775.8231
428.4773, 782.4648
428.9594, 788.8745
429.4415, 794.5498
429.9236, 799.9827
430.4057, 806.5834
430.8878, 814.5089
431.3700, 823.0402
431.8521, 831.8415
432.3342, 840.9189
432.8163, 850.6872
433.2984, 861.1375
433.7805, 872.3375
434.2627, 884.5507
434.7448, 897.7066
435.2269, 910.9191
435.7090, 923.7551
436.1911, 936.9844
436.6732, 952.5687
437.1554, 970.2766
437.6375, 987.7647
438.1196, 1003.274
438.6017, 1017.587
439.0838, 1031.889
439.5659, 1046.343
440.0481, 1060.871
440.5302, 1075.528
441.0123, 1090.343
441.4944, 1105.376
441.9765, 1122.652
442.4586, 1138.492
442.9408, 1149.723
443.4229, 1156.790
443.9050, 1164.391
444.3871, 1175.274
444.8692, 1186.701
445.3513, 1196.876
445.8335, 1205.223
446.3156, 1212.866
446.7977, 1219.632
447.2798, 1225.830
447.7619, 1231.971
448.2440, 1239.059
448.7262, 1244.983
449.2083, 1249.412
449.6904, 1252.398
450.1725, 1253.305
450.6546, 1251.910
451.1367, 1248.719
451.6189, 1243.996
452.1010, 1237.475
452.5831, 1230.438
453.0652, 1223.630
453.5473, 1215.677
454.0294, 1202.926
454.5116, 1184.960
454.9937, 1165.068
455.4758, 1144.023
455.9579, 1122.056
456.4400, 1100.455
456.9221, 1079.183
457.4043, 1056.866
457.8864, 1031.055
458.3685, 1002.907
458.8506, 975.0188
459.3327, 948.4641
459.8148, 922.1190
460.2970, 894.4238
460.7791, 865.6180
461.2612, 837.3702
461.7433, 810.3220
462.2254, 784.3146
462.7076, 759.8431
463.1897, 736.8079
463.6718, 714.1545
464.1539, 691.6309
464.6360, 669.2156
465.1181, 647.2642
465.6003, 624.6232
466.0824, 603.7872
466.5645, 586.5136
467.0466, 571.9213
467.5287, 556.6293
468.0108, 539.3326
468.4930, 522.0980
468.9751, 505.5915
469.4572, 489.8640
469.9393, 474.8421
470.4214, 460.7721
470.9035, 447.2961
471.3857, 434.0546
471.8678, 420.9994
472.3499, 408.2184
472.8320, 395.3845
473.3141, 382.7784
473.7962, 371.2698
474.2784, 360.9465
474.7605, 351.1129
475.2426, 341.3813
475.7247, 331.7531
476.2068, 322.5781
476.6889, 313.8566
477.1711, 305.3698
477.6532, 296.3746
478.1353, 287.3747
478.6174, 279.8495
479.0995, 274.9534
479.5816, 270.9452
480.0638, 265.9507
480.5459, 260.1996
481.0280, 254.6318
481.5101, 249.8837
481.9922, 245.4366
482.4743, 240.8119
482.9565, 235.7993
483.4386, 231.3245
483.9207, 228.3136
484.4028, 225.8414
484.8849, 222.9410
485.3670, 218.9961
485.8492, 215.1191
486.3313, 211.3638
486.8134, 207.8084
487.2955, 204.7614
487.7776, 202.6347
488.2597, 200.6161
488.7419, 198.3951
489.2240, 195.9523
489.7061, 193.4362
490.1882, 190.6190
490.6703, 188.0610
491.1524, 186.6149
491.6346, 186.4924
492.1167, 185.6650
492.5988, 183.4833
493.0809, 180.5744
493.5630, 178.5478
494.0451, 177.3682
494.5273, 176.5159
495.0094, 175.9583
495.4915, 175.4483
495.9736, 174.2944
496.4557, 172.4389
496.9378, 170.5348
497.4200, 169.1879
497.9021, 168.1763
498.3842, 167.2073
498.8663, 166.2930
499.3484, 165.2380
499.8305, 163.7112
500.3127, 161.9340
500.7948, 160.4728
501.2769, 159.9371
501.7590, 159.4031
502.2411, 158.3282
502.7232, 156.5419
503.2054, 155.1195
503.6875, 154.5343
504.1696, 154.1657
504.6517, 153.5720
505.1338, 152.5805
505.6159, 151.6657
506.0981, 150.8777
506.5802, 150.1733
507.0623, 149.4698
507.5444, 148.7713
508.0265, 148.0190
508.5086, 147.1164
508.9908, 146.1104
509.4729, 145.4975
509.9550, 145.3430
510.4371, 145.0948
510.9192, 144.0088
511.4013, 142.3733
511.8835, 141.3775
512.3655, 141.3109
512.8477, 141.5428
513.3298, 141.4069
513.8119, 141.0010
514.2940, 140.5553
514.7761, 140.1401
515.2582, 139.7548
515.7404, 139.4153
516.2225, 139.1126
516.7046, 138.7818
517.1867, 138.2872
517.6688, 137.8279
518.1509, 137.5632
518.6331, 137.6461
519.1152, 137.5956
519.5973, 137.4231
520.0794, 137.0334
520.5615, 136.2896
521.0436, 134.6600
521.5258, 133.5053
522.0079, 133.1987
522.4900, 133.5449
522.9721, 133.5922
523.4542, 133.2815
523.9363, 132.8448
524.4185, 132.3210
524.9006, 131.7116
525.3827, 131.4013
525.8648, 131.4298
526.3469, 131.5546
526.8290, 131.5142
527.3112, 131.3478
527.7933, 131.2179
528.2754, 131.2145
528.7575, 131.1724
529.2396, 130.8279
529.7217, 130.2690
530.2039, 129.7608
530.6860, 129.3255
531.1681, 129.0707
531.6502, 129.1693
532.1323, 129.6160
532.6144, 129.9397
533.0966, 129.8535
533.5787, 129.6416
534.0608, 129.5007
534.5429, 129.4885
535.0250, 129.5016
535.5071, 129.6489
535.9893, 129.7722
536.4714, 129.5908
536.9535, 128.7842
537.4356, 128.3172
537.9177, 128.5502
538.3998, 129.3238
538.8820, 129.6027
539.3641, 129.3078
539.8462, 128.8801
540.3283, 128.5080
540.8104, 128.2130
541.2925, 128.2001
541.7747, 128.5129
542.2568, 128.8798
542.7389, 129.0214
543.2210, 128.9930
543.7031, 128.9151
544.1852, 128.7864
544.6674, 128.6786
545.1495, 128.6476
545.6316, 128.6903
546.1137, 128.7982
546.5958, 128.9021
547.0779, 129.1265
547.5601, 129.6705
548.0422, 130.5542
548.5243, 131.1078
549.0064, 130.9053
549.4885, 130.5288
549.9706, 130.3282
550.4528, 130.3085
550.9349, 130.4626
551.4170, 130.8213
551.8991, 131.3288
552.3812, 131.7462
552.8633, 131.8163
553.3455, 133.0450
553.8276, 136.5667
554.3097, 141.0706
554.7918, 141.6778
555.2739, 138.3855
555.7560, 135.0894
556.2382, 134.3432
556.7203, 135.2547
557.2024, 135.9649
557.6845, 136.3898
558.1666, 136.6890
558.6487, 136.8382
559.1309, 136.9959
559.6130, 137.3968
560.0951, 138.2744
560.5772, 139.0616
561.0593, 139.3434
561.5414, 139.3743
562.0236, 139.5992
562.5057, 140.2581
562.9878, 140.9848
563.4699, 141.6126
563.9520, 142.1677
564.4341, 143.0873
564.9163, 144.7659
565.3984, 146.2517
565.8805, 147.0102
566.3626, 146.8882
566.8447, 146.9311
567.3268, 147.0757
567.8090, 147.5514
568.2911, 148.9186
568.7732, 151.0379
569.2553, 152.4150
569.7374, 152.4578
570.2195, 152.2611
570.7017, 153.6538
571.1838, 156.1704
571.6659, 158.3048
572.1480, 158.8067
572.6301, 159.0144
573.1122, 160.1679
573.5944, 162.1782
574.0765, 164.0192
574.5586, 164.9368
575.0407, 165.7636
575.5228, 167.0632
576.0049, 169.1302
576.4871, 170.9947
576.9692, 172.3355
577.4513, 173.6062
577.9334, 175.2881
578.4155, 177.5730
578.8976, 179.7574
579.3798, 181.7395
579.8619, 183.5939
580.3440, 185.3301
580.8261, 186.9002
581.3082, 188.8855
581.7903, 191.7013
582.2725, 195.0598
582.7546, 198.0931
583.2367, 200.8164
583.7188, 203.4208
584.2009, 205.5673
584.6830, 207.8480
585.1652, 211.2565
585.6473, 216.1129
586.1294, 220.8458
586.6115, 224.1021
587.0936, 226.9922
587.5757, 230.6426
588.0579, 235.8689
588.5400, 241.2518
589.0221, 246.4638
589.5042, 251.6704
589.9863, 257.2757
590.4684, 263.5238
590.9506, 269.6407
591.4327, 275.1942
591.9148, 280.3492
592.3969, 286.6845
592.8790, 294.3738
593.3611, 302.4996
593.8433, 310.4689
594.3254, 318.2749
594.8075, 326.7865
595.2896, 336.0966
595.7717, 345.5223
596.2538, 354.0764
596.7360, 362.3400
597.2181, 371.4834
597.7002, 381.8582
598.1823, 392.6192
598.6644, 403.1286
599.1465, 413.6124
599.6287, 424.5011
600.1108, 435.8649
600.5929, 447.5724
601.0750, 459.6440
601.5571, 472.0272
602.0392, 484.6219
602.5214, 497.4141
603.0035, 510.6096
603.4856, 524.4874
603.9677, 539.3224
604.4498, 552.1088
604.9319, 562.3168
605.4141, 572.4234
605.8962, 585.1274
606.3783, 599.9772
606.8604, 612.7899
607.3425, 623.0131
607.8246, 631.6226
608.3068, 639.3395
608.7889, 646.2995
609.2710, 652.6575
609.7531, 658.9582
610.2352, 664.1006
610.7173, 667.7634
611.1995, 669.7565
611.6816, 669.6340
612.1637, 667.1583
612.6458, 662.6721
613.1279, 655.8083
613.6100, 646.5683
614.0922, 637.2060
614.5743, 628.4999
615.0564, 618.5120
615.5385, 605.8611
616.0206, 589.8497
616.5027, 574.8055
616.9849, 561.1677
617.4670, 547.2383
617.9491, 530.9843
618.4312, 512.8479
618.9133, 495.5840
619.3954, 479.7663
619.8776, 464.4549
620.3597, 448.1406
620.8418, 431.3451
621.3239, 415.5707
621.8060, 401.7701
622.2881, 388.4603
622.7703, 374.5695
623.2524, 360.3614
623.7345, 346.9536
624.2166, 334.7338
624.6987, 323.2435
625.1808, 312.5275
625.6630, 302.5763
626.1451, 292.6323
626.6272, 282.2210
627.1093, 272.4137
627.5914, 264.1933
628.0735, 257.7028
628.5557, 250.5654
629.0378, 242.5538
629.5199, 234.5293
630.0020, 227.4559
630.4841, 221.1518
630.9662, 215.0399
631.4484, 208.9532
631.9305, 203.0674
632.4126, 197.5886
632.8947, 192.4587
633.3768, 187.4227
633.8589, 182.2421
634.3411, 177.3559
634.8232, 172.9525
635.3053, 169.0128
635.7874, 165.3964
636.2695, 162.3815
636.7516, 159.3761
637.2338, 156.1551
637.7159, 152.6643
638.1980, 149.5365
638.6801, 146.7915
639.1622, 144.2844
639.6443, 142.0060
640.1265, 139.9267
640.6086, 137.5516
641.0907, 134.8007
641.5728, 132.0930
642.0549, 129.8681
642.5370, 127.9895
643.0192, 126.1507
643.5013, 124.2056
643.9834, 122.4148
644.4655, 121.0817
644.9476, 119.9836
645.4297, 118.6872
645.9119, 116.6849
646.3940, 114.9215
646.8761, 113.8288
647.3582, 113.1974
647.8403, 112.2751
648.3224, 110.9351
648.8046, 109.5222
649.2867, 108.0935
649.7688, 106.6650
650.2509, 105.5609
650.7330, 104.7953
651.2151, 104.0987
651.6973, 103.2871
652.1794, 102.3829
652.6615, 101.4279
653.1436, 100.4165
653.6257, 99.51584
654.1078, 98.95943
654.5900, 98.55073
655.0721, 98.05140
655.5542, 97.30500
656.0363, 96.68867
656.5184, 96.55818
657.0005, 96.53844
657.4827, 96.10570
657.9648, 94.76534
658.4469, 93.83400
658.9290, 93.56728
659.4111, 93.74181
659.8932, 93.90911
660.3754, 94.10291
660.8575, 93.96659
661.3396, 93.17413
661.8217, 92.08495
662.3038, 91.62827
662.7859, 91.73522
663.2681, 91.93542
663.7502, 92.19685
664.2323, 92.23938
664.7144, 91.62246
665.1965, 90.35780
665.6786, 89.26496
666.1608, 88.65601
666.6429, 88.35885
667.1250, 88.30528
667.6071, 88.61007
668.0892, 88.83914
668.5714, 88.97604
669.0535, 89.06094
669.5356, 89.14579
670.0177, 89.25137
670.4998, 89.20542
670.9819, 88.96032
671.4641, 88.64367
671.9462, 88.39278
672.4283, 88.22147
672.9104, 88.16492
673.3925, 88.23136
673.8746, 88.42117
674.3568, 88.89966
674.8389, 89.49258
675.3210, 89.82214
675.8031, 89.47469
676.2852, 89.09036
676.7673, 88.92557
677.2495, 88.94967
677.7316, 88.92570
678.2137, 88.68639
678.6958, 88.63023
679.1779, 89.01819
679.6600, 89.81497
680.1422, 89.99435
680.6243, 89.46168
681.1064, 88.88770
681.5885, 88.72372
682.0706, 88.88741
682.5527, 89.12928
683.0349, 89.44124
683.5170, 89.81107
683.9991, 90.35013
684.4812, 90.89072
684.9633, 91.24845
685.4454, 91.35838
685.9276, 91.37309
686.4097, 91.20912
686.8918, 91.04277
687.3739, 91.07163
687.8560, 91.39035
688.3381, 91.75356
688.8203, 92.22437
689.3024, 92.66671
689.7845, 92.74238
690.2666, 92.40008
690.7487, 92.45138
691.2308, 93.29446
691.7130, 94.35302
692.1951, 94.51981
692.6772, 94.01013
693.1593, 93.61670
693.6414, 93.79517
694.1235, 94.18266
694.6057, 94.60499
695.0878, 95.02127
695.5699, 95.29176
696.0520, 95.18491
696.5341, 95.10735
697.0162, 95.26802
697.4984, 95.66292
697.9805, 95.89251
698.4626, 95.88424
698.9447, 95.86396
699.4268, 95.93372
699.9089, 96.09548
700.3911, 96.41076
700.8732, 96.88865
701.3553, 97.40707
701.8374, 97.98177
702.3195, 98.48814
702.8016, 98.66332
703.2838, 98.43952
703.7659, 98.14061
704.2480, 97.76802
704.7301, 97.51990
705.2122, 97.60621
705.6943, 98.40724
706.1765, 98.97399
706.6586, 99.09237
707.1407, 99.05241
707.6228, 99.22728
708.1049, 99.70736
708.5870, 100.0356
709.0692, 100.1460
709.5513, 100.0711
710.0334, 99.66402
710.5155, 99.04427
710.9976, 98.89478
711.4797, 99.76900
711.9618, 100.7870
712.4439, 100.9965
712.9260, 100.6309
713.4081, 100.2606
713.8903, 100.0292
714.3724, 99.92142
714.8545, 99.98459
715.3366, 100.1879
715.8187, 100.3348
716.3008, 100.4575
716.7830, 100.4628
717.2651, 100.2577
717.7472, 99.89029
718.2293, 99.78236
718.7114, 99.94724
719.1935, 100.1555
719.6757, 100.3289
720.1578, 100.4221
720.6399, 100.3049
721.1220, 99.98630
721.6041, 99.66576
722.0862, 99.39684
722.5684, 99.23495
723.0505, 99.30968
723.5326, 99.74844
724.0147, 99.83134
724.4968, 99.09700
724.9789, 98.28368
725.4611, 97.88551
725.9432, 98.08492
726.4253, 97.96245
726.9074, 97.43755
727.3895, 96.80783
727.8716, 96.37568
728.3538, 96.10949
728.8359, 95.92545
729.3180, 95.83872
729.8001, 95.70010
730.2822, 95.38060
730.7643, 94.92148
731.2465, 94.36304
731.7286, 93.51203
732.2107, 92.88180
732.6928, 92.78509
733.1749, 92.93339
733.6570, 92.87483
734.1392, 92.47198
734.6213, 92.18758
735.1034, 92.16840
735.5855, 92.19992
736.0676, 91.71249
736.5497, 90.75510
737.0319, 90.11012
737.5140, 90.17867
737.9961, 90.50135
738.4782, 90.52121
738.9603, 90.31155
739.4424, 90.05986
739.9246, 89.87053
740.4067, 89.64067
740.8888, 89.31721
741.3709, 88.91392
741.8530, 88.48093
742.3351, 88.00600
742.8173, 87.52380
743.2994, 87.00917
743.7815, 86.49134
744.2636, 86.14690
744.7457, 85.98391
745.2278, 85.87566
745.7100, 85.84197
746.1921, 85.78358
746.6742, 85.43394
747.1563, 84.83672
747.6384, 84.31223
748.1205, 84.07266
748.6027, 83.94447
749.0848, 83.84342
749.5669, 83.76424
750.0490, 83.63522
750.5311, 83.53787
751.0132, 83.28699
751.4954, 82.74126
751.9775, 81.86585
752.4596, 81.11422
752.9417, 80.44233
753.4238, 80.07816
753.9059, 80.47028
754.3881, 81.26254
754.8702, 81.54594
755.3523, 81.24863
755.8344, 80.65976
756.3165, 79.65867
756.7986, 78.67176
757.2808, 78.13844
757.7629, 78.27293
758.2450, 78.27534
758.7271, 77.80965
759.2092, 77.33803
759.6913, 77.19890
760.1735, 77.49796
760.6556, 77.71745
761.1377, 77.86700
761.6198, 77.86256
762.1019, 77.51376
762.5840, 76.92674
763.0662, 76.48013
763.5483, 76.26604
764.0304, 76.03273
764.5125, 75.43533
764.9946, 74.76814
765.4767, 74.39400
765.9589, 74.63258
766.4410, 74.73807
766.9231, 74.43452
767.4052, 74.03487
767.8873, 73.91967
768.3694, 74.25689
768.8516, 74.16553
769.3337, 73.42227
769.8158, 72.52399
770.2979, 72.24048
770.7800, 72.43351
771.2621, 72.64399
771.7443, 72.83707
772.2264, 72.80063
772.7085, 72.04664
773.1906, 71.03436
773.6727, 70.44877
774.1548, 70.96829
774.6370, 71.33508
775.1191, 71.30029
775.6012, 71.01546
776.0833, 70.66006
776.5654, 70.16016
777.0475, 69.92370
777.5297, 70.10638
778.0118, 70.44083
778.4939, 70.46571
778.9760, 70.22803
779.4581, 69.88647
779.9402, 69.39024
780.4224, 68.97182
780.9045, 68.97594
781.3866, 69.16894
781.8687, 69.11214
782.3508, 68.36450
782.8329, 67.73836
783.3151, 67.38470
783.7972, 67.24686
784.2793, 67.25738
784.7614, 67.47635
785.2435, 67.49202
785.7256, 67.11188
786.2078, 66.57348
786.6899, 66.38913
787.1720, 66.47366
787.6541, 66.52187
788.1362, 66.24617
788.6183, 66.03635
789.1005, 66.35652
789.5826, 66.94731
790.0647, 67.14854
790.5468, 66.41628
791.0289, 65.75304
791.5110, 65.30087
791.9932, 65.06876
792.4753, 65.23684
792.9574, 65.88634
793.4395, 66.17928
793.9216, 65.65443
794.4037, 64.77496
794.8859, 64.38747
795.3680, 64.39508
795.8501, 64.51275
796.3322, 64.72655
796.8143, 64.88877
797.2964, 64.87693
797.7786, 64.73972
798.2607, 64.66099
798.7428, 64.82069
799.2249, 64.77406
799.7070, 64.27657
800.1891, 63.55719
800.6713, 63.45020
801.1534, 63.96528
801.6355, 64.52116
802.1176, 64.95070
802.5997, 65.20958
803.0818, 65.14656
803.5640, 64.84683
804.0461, 64.56890
804.5282, 64.29814
805.0103, 64.20969
805.4924, 64.57899
805.9745, 65.23575
806.4567, 65.41045
806.9388, 64.83932
807.4209, 64.34075
807.9030, 64.12101
808.3851, 64.14285
808.8672, 64.38509
809.3494, 64.81582
809.8315, 65.14553
810.3136, 65.14809
810.7957, 65.06117
811.2778, 65.15224
811.7599, 65.35403
812.2421, 65.47836
812.7242, 65.35624
813.2063, 65.26083
813.6884, 65.28752
814.1705, 65.40402
814.6526, 65.49946
815.1348, 65.55281
815.6169, 65.68405
816.0990, 65.96171
816.5811, 66.30792
817.0632, 66.58428
817.5453, 66.78480
818.0275, 66.88044
818.5096, 66.78609
818.9917, 66.65152
819.4738, 66.50236
819.9559, 66.38763
820.4380, 66.43858
820.9202, 66.88403
821.4023, 67.24072
821.8844, 67.41094
822.3665, 67.44477
822.8486, 67.41845
823.3307, 67.32636
823.8129, 67.38515
824.2950, 67.75130
824.7771, 68.18046
825.2592, 68.21803
825.7413, 68.03677
826.2234, 68.05220
826.7056, 68.72138
827.1877, 69.30642
827.6698, 69.40483
828.1519, 69.23952
828.6340, 69.35545
829.1161, 69.93372
829.5983, 70.36026
830.0804, 70.49657
830.5625, 70.46297
831.0446, 70.44596
831.5267, 70.45683
832.0089, 70.57429
832.4910, 70.91174
832.9731, 71.19987
833.4552, 71.08248
833.9373, 70.78198
834.4194, 70.65685
834.9016, 70.92730
835.3837, 71.22452
835.8658, 71.51994
836.3479, 71.80227
836.8300, 72.07327
837.3121, 72.34346
837.7943, 72.44955
838.2764, 72.32588
838.7585, 72.14148
839.2406, 72.07700
839.7227, 72.13213
840.2048, 72.33125
840.6870, 72.78361
841.1691, 73.15543
841.6512, 73.19973
842.1333, 73.12171
842.6154, 73.17712
843.0975, 73.48184
843.5797, 73.66026
844.0618, 73.62144
844.5439, 73.59696
845.0260, 73.94572
845.5081, 74.57877
845.9902, 75.06882
846.4724, 75.35946
846.9545, 75.45547
847.4366, 75.22717
847.9187, 74.87598
848.4008, 74.60567
848.8829, 74.41722
849.3651, 74.42442
849.8472, 74.85496
850.3293, 75.26261
850.8114, 75.25642
851.2935, 74.77163
851.7756, 74.50827
852.2578, 74.48289
852.7399, 74.70721
853.2220, 75.46975
853.7041, 76.37870
854.1862, 76.72578
854.6683, 76.40524
855.1505, 76.14291
855.6326, 76.17270
856.1147, 76.45753
856.5968, 77.10887
857.0789, 78.22057
857.5610, 78.66412
858.0432, 78.22878
858.5253, 77.75199
859.0074, 77.83458
859.4895, 78.31823
859.9716, 78.62015
860.4537, 78.75785
860.9359, 78.94080
861.4180, 79.36803
861.9001, 79.83857
862.3822, 80.26721
862.8643, 80.63667
863.3464, 80.81007
863.8286, 80.67139
864.3107, 80.52754
864.7928, 80.47342
865.2749, 80.50249
865.7570, 80.60081
866.2391, 80.76617
866.7213, 80.93728
867.2034, 80.97194
867.6855, 81.08791
868.1676, 81.71136
868.6497, 82.62386
869.1318, 83.18204
869.6140, 82.73842
870.0961, 82.44380
870.5782, 82.68346
871.0603, 83.21770
871.5424, 83.43004
872.0245, 83.28344
872.5067, 83.18830
872.9888, 83.30642
873.4709, 83.42248
873.9530, 83.01842
874.4351, 82.38206
874.9172, 82.15765
875.3994, 82.84155
875.8815, 83.54478
876.3636, 84.03475
876.8457, 84.30485
877.3278, 84.33800
877.8099, 84.01509
878.2921, 83.84664
878.7742, 83.92893
879.2563, 84.04670
879.7384, 83.92789
880.2205, 83.62302
880.7026, 83.22487
881.1848, 82.70967
881.6669, 82.33829
882.1490, 82.44736
882.6311, 82.67770
883.1132, 82.67802
883.5953, 82.26263
884.0775, 82.09914
884.5596, 82.32303
885.0417, 82.54005
885.5238, 82.35107
886.0059, 81.85635
886.4880, 81.78865
886.9702, 82.15556
887.4523, 82.39898
887.9344, 82.01682
888.4165, 81.40008
888.8986, 80.77271
889.3807, 80.16003
889.8629, 79.91535
890.3450, 80.33820
890.8271, 80.76739
891.3092, 80.98079
891.7913, 81.00147
892.2734, 80.96616
892.7556, 80.86916
893.2377, 80.56847
893.7198, 79.71150
894.2019, 78.84229
894.6840, 78.57603
895.1661, 78.75069
895.6483, 78.91987
896.1304, 79.03904
896.6125, 79.00642
897.0946, 78.69089
897.5767, 78.28005
898.0588, 78.26717
898.5410, 78.67620
899.0231, 78.78916
899.5052, 78.37534
899.9873, 77.77686
900.4694, 77.24370
900.9515, 76.86967
901.4337, 76.84148
901.9158, 77.44780
902.3979, 77.92904
902.8800, 78.02184
903.3621, 77.93638
903.8442, 77.83506
904.3264, 77.72172
904.8085, 77.51353
905.2906, 77.15501
905.7727, 76.97501
906.2548, 77.56473
906.7369, 78.43217
907.2191, 78.68016
907.7012, 78.20078
908.1833, 77.78465
908.6654, 77.80123
909.1475, 77.97558
909.6296, 78.22400
910.1118, 78.53948
910.5939, 78.49169
911.0760, 77.99139
911.5581, 77.60413
912.0402, 77.63706
912.5223, 77.99657
913.0045, 78.76256
913.4866, 79.74742
913.9687, 80.21839
914.4508, 79.06908
914.9329, 78.14073
915.4150, 78.53269
915.8972, 79.67892
916.3793, 80.07548
916.8614, 79.45457
917.3435, 79.20542
917.8256, 79.75468
918.3077, 80.53507
918.7899, 80.50453
919.2720, 79.99338
919.7541, 79.80913
920.2362, 80.32870
920.7183, 80.86239
921.2004, 81.03130
921.6826, 81.08995
922.1647, 81.30044
922.6468, 81.69727
923.1289, 82.16044
923.6110, 82.70131
924.0931, 83.27293
924.5753, 84.02906
925.0574, 84.72606
925.5395, 84.55880
926.0216, 83.49915
926.5037, 82.81069
926.9858, 83.53141
927.4680, 84.53334
927.9501, 85.09193
928.4322, 85.23552
928.9143, 85.68297
929.3964, 86.55186
929.8785, 87.28335
930.3607, 87.59013
930.8428, 87.64198
931.3249, 87.68282
931.8070, 87.77808
932.2891, 88.14075
932.7712, 89.05827
933.2534, 90.05385
933.7355, 91.08792
934.2176, 92.02813
934.6997, 92.58498
935.1818, 92.59106
935.6639, 92.80128
936.1461, 93.31229
936.6282, 94.07380
937.1103, 95.17702
937.5924, 96.45432
938.0745, 97.52572
938.5566, 98.32391
939.0388, 98.94823
939.5209, 99.26073
940.0030, 99.55709
940.4851, 100.0422
940.9672, 100.7231
941.4493, 101.5370
941.9315, 102.5146
942.4136, 103.4477
942.8957, 104.0936
943.3778, 104.6408
943.8599, 105.3785
944.3420, 106.3427
944.8242, 107.7122
945.3063, 110.1359
945.7884, 112.3693
946.2705, 113.5871
946.7526, 114.2755
947.2347, 115.8783
947.7169, 118.6001
948.1990, 120.8552
948.6811, 122.1006
949.1632, 123.0265
949.6453, 124.4264
950.1274, 126.2880
950.6096, 128.5970
951.0917, 131.5393
951.5738, 134.5312
952.0559, 137.4906
952.5380, 140.3564
953.0201, 142.9292
953.5023, 145.0575
953.9844, 148.1485
954.4665, 152.2521
954.9486, 156.7493
955.4307, 161.1675
955.9128, 165.6459
956.3950, 170.2858
956.8771, 175.1187
957.3591, 180.3655
957.8412, 185.9770
958.3234, 192.2130
958.8055, 199.2267
959.2876, 206.9690
959.7697, 215.3349
960.2518, 224.3545
960.7339, 233.5794
961.2161, 242.7742
961.6982, 252.4221
962.1803, 262.7202
962.6624, 274.0161
963.1445, 287.0078
963.6266, 301.5277
964.1088, 318.4130
964.5909, 337.4270
965.0730, 359.1866
965.5551, 383.5979
966.0372, 410.7881
966.5193, 442.8119
967.0015, 479.5167
967.4836, 522.6249
967.9657, 569.7966
968.4478, 626.2795
968.9299, 695.2667
969.4120, 777.4413
969.8942, 873.7180
970.3763, 988.0215
970.8584, 1108.722
971.3405, 1235.118
971.8226, 1363.519
972.3047, 1486.585
972.7869, 1605.304
973.2690, 1725.329
973.7511, 1844.855
974.2332, 1971.846
974.7153, 2108.008
975.1974, 2256.437
975.6796, 2422.587
976.1617, 2600.084
976.6438, 2807.745
977.1259, 3041.075
977.6080, 3313.557
978.0901, 3628.273
978.5723, 3990.063
979.0544, 4417.474
979.5365, 4910.334
980.0186, 5453.421
980.5007, 6059.021
980.9828, 6686.268
981.4650, 7356.688
981.9471, 8042.633
982.4292, 8620.872
982.9113, 9106.921
983.3934, 9305.894
983.8755, 9129.705
984.3577, 8643.143
984.8398, 7807.859
985.3219, 6748.061
985.8040, 5707.551
986.2861, 4676.604
986.7682, 3801.111
987.2504, 3101.657
987.7325, 2539.183
988.2146, 2096.232
988.6967, 1767.639
989.1788, 1499.887
989.6609, 1289.571
990.1431, 1119.102
990.6252, 982.1126
991.1073, 869.6572
991.5894, 777.3049
992.0715, 705.1068
992.5536, 641.1834
993.0358, 584.9388
993.5179, 535.2019
994.0000, 492.4650
994.4821, 455.7482
994.9642, 423.8858
995.4464, 396.6383
995.9285, 372.1981
996.4106, 350.6231
996.8927, 331.0069
997.3748, 313.0714
997.8569, 296.9219
998.3391, 282.2918
998.8212, 269.2276
999.3033, 257.5261
999.7854, 247.5380
1000.268, 238.0915
1000.750, 228.0571
1001.232, 218.1805
1001.714, 209.7251
1002.196, 202.7340
1002.678, 196.3672
1003.160, 191.0120
1003.642, 185.5870
1004.124, 179.5645
1004.607, 173.3894
1005.089, 168.5685
1005.571, 165.0146
1006.053, 161.7824
1006.535, 158.6581
1007.017, 155.4933
1007.499, 151.9188
1007.981, 148.2532
1008.464, 144.7833
1008.946, 141.5121
1009.428, 138.7041
1009.910, 136.3994
1010.392, 134.4150
1010.874, 132.8604
1011.356, 131.5133
1011.838, 129.4108
1012.320, 126.7359
1012.803, 124.4649
1013.285, 123.4871
1013.767, 122.7010
1014.249, 121.6231
1014.731, 120.3534
1015.213, 119.1421
1015.695, 117.9960
1016.177, 116.8309
1016.659, 115.5865
1017.142, 114.5185
1017.624, 114.2969
1018.106, 114.2991
1018.588, 113.5200
1019.070, 111.6317
1019.552, 110.0758
1020.034, 109.1766
1020.516, 108.6446
1020.999, 108.4914
1021.481, 108.5947
1021.963, 108.2552
1022.445, 107.5267
1022.927, 106.7874
1023.409, 106.1329
1023.891, 105.6349
1024.373, 105.3615
1024.855, 105.2732
1025.338, 105.3389
1025.820, 105.7371
1026.302, 105.6948
1026.784, 105.0471
1027.266, 104.3601
1027.748, 104.2487
1028.230, 104.5085
1028.712, 104.8615
1029.195, 105.2607
1029.677, 105.4196
1030.159, 105.0243
1030.641, 104.5718
1031.123, 104.1653
1031.605, 103.8643
1032.087, 104.0477
1032.569, 104.6668
1033.052, 104.7365
1033.534, 103.6304
1034.016, 102.6929
1034.498, 103.4284
1034.980, 104.8828
1035.462, 105.9022
1035.944, 106.1293
1036.426, 106.5074
1036.908, 107.0870
1037.391, 107.6766
1037.873, 108.2189
1038.355, 108.6452
1038.837, 108.5593
1039.319, 108.1241
1039.801, 108.0667
1040.283, 108.8933
1040.765, 109.9659
1041.247, 111.2254
1041.730, 112.5162
1042.212, 113.6227
1042.694, 114.5380
1043.176, 115.3305
1043.658, 116.0133
1044.140, 116.6077
1044.622, 117.0391
1045.104, 117.4773
1045.587, 118.0586
1046.069, 118.8073
1046.551, 119.8070
1047.033, 121.1851
1047.515, 122.4782
1047.997, 123.4758
1048.479, 124.3175
1048.961, 125.3833
1049.443, 126.5356
1049.926, 127.4168
1050.408, 127.6584
1050.890, 128.0330
1051.372, 128.9774
1051.854, 130.0329
1052.336, 130.8456
1052.818, 131.4109
1053.300, 131.9752
1053.782, 132.5415
1054.265, 133.0028
1054.747, 133.1345
1055.229, 133.2565
1055.711, 133.5976
1056.193, 134.1599
1056.675, 134.9479
1057.157, 136.1305
1057.639, 137.0567
1058.122, 137.5798
1058.604, 137.9255
1059.086, 138.3537
1059.568, 138.8475
1060.050, 139.4059
1060.532, 140.0383
1061.014, 140.6126
1061.496, 141.0375
1061.979, 141.4160
1062.461, 141.7086
1062.943, 142.0007
1063.425, 142.8049
1063.907, 144.0745
1064.389, 145.2835
1064.871, 146.1680
1065.353, 147.0623
1065.835, 148.3244
1066.318, 149.6915
1066.800, 150.8134
1067.282, 151.4723
1067.764, 152.5276
1068.246, 153.9577
1068.728, 155.8362
1069.210, 158.8547
1069.692, 162.0034
1070.174, 163.1307
1070.657, 162.8399
1071.139, 163.6038
1071.621, 166.9934
1072.103, 170.5382
1072.585, 173.8774
1073.067, 177.1537
1073.549, 180.7127
1074.031, 184.4285
1074.514, 187.8617
1074.996, 190.8802
1075.478, 194.4971
1075.960, 199.8152
1076.442, 205.4785
1076.924, 210.5402
1077.406, 215.1719
1077.888, 220.0335
1078.370, 225.1192
1078.853, 230.4780
1079.335, 235.9070
1079.817, 241.9951
1080.299, 249.9588
1080.781, 258.8421
1081.263, 267.2500
1081.745, 274.7857
1082.227, 282.5418
1082.709, 290.4057
1083.192, 298.7443
1083.674, 308.0091
1084.156, 317.9268
1084.638, 328.0336
1085.120, 338.2299
1085.602, 348.4395
1086.084, 358.5387
1086.566, 368.9306
1087.048, 379.9286
1087.531, 391.0550
1088.013, 401.9287
1088.495, 412.5384
1088.977, 422.0176
1089.459, 430.3573
1089.941, 438.6611
1090.423, 447.9272
1090.905, 457.2202
1091.388, 466.5778
1091.870, 475.4887
1092.352, 481.6352
1092.834, 484.7004
1093.316, 487.4909
1093.798, 490.7116
1094.280, 493.5955
1094.762, 495.5687
1095.245, 496.4918
1095.727, 496.4042
1096.209, 495.4613
1096.691, 491.7820
1097.173, 484.5456
1097.655, 476.6651
1098.137, 469.6617
1098.619, 462.6810
1099.101, 453.5441
1099.583, 442.8453
1100.066, 431.6483
1100.548, 420.0714
1101.030, 408.4918
1101.512, 397.2892
1101.994, 385.9636
1102.476, 374.1197
1102.958, 361.8634
1103.440, 349.0162
1103.923, 335.7323
1104.405, 323.1621
1104.887, 311.8583
1105.369, 301.4584
1105.851, 292.0715
1106.333, 283.2147
1106.815, 274.0060
1107.297, 264.3035
1107.780, 255.3253
1108.262, 247.1406
1108.744, 239.4629
1109.226, 231.8599
1109.708, 224.6345
1110.190, 217.9335
1110.672, 211.8272
1111.154, 206.4014
1111.636, 201.8643
1112.119, 197.2673
1112.601, 192.1353
1113.083, 187.3491
1113.565, 184.6768
1114.047, 183.0462
1114.529, 180.3778
1115.011, 176.0016
1115.493, 172.4384
1115.975, 170.5150
1116.458, 169.0559
1116.940, 167.5970
1117.422, 166.2238
1117.904, 165.2171
1118.386, 164.5313
1118.868, 163.9590
1119.350, 163.4021
1119.832, 163.0107
1120.315, 162.6902
1120.797, 162.7160
1121.279, 163.3657
1121.761, 164.6314
1122.243, 165.8008
1122.725, 166.8946
1123.207, 168.2442
1123.689, 169.8516
1124.172, 171.9837
1124.654, 175.0728
1125.136, 178.7417
1125.618, 182.1906
1126.100, 185.2928
1126.582, 188.9092
1127.064, 193.1260
1127.546, 197.5313
1128.028, 201.5177
1128.510, 205.7034
1128.993, 210.7364
1129.475, 216.5276
1129.957, 222.8867
1130.439, 229.8942
1130.921, 237.0946
1131.403, 244.4560
1131.885, 251.8601
1132.367, 258.8725
1132.850, 265.9283
1133.332, 274.0353
1133.814, 283.3195
1134.296, 292.8117
1134.778, 302.4287
1135.260, 311.8177
1135.742, 320.7016
1136.224, 329.5014
1136.707, 339.5615
1137.189, 350.4037
1137.671, 360.9272
1138.153, 371.0294
1138.635, 380.4104
1139.117, 388.9199
1139.599, 396.4804
1140.081, 402.7273
1140.563, 407.9488
1141.046, 414.7820
1141.528, 422.5624
1142.010, 428.1395
1142.492, 429.5470
1142.974, 429.5887
1143.456, 430.0351
1143.938, 429.3522
1144.420, 426.0282
1144.902, 419.9268
1145.385, 414.3230
1145.867, 409.1630
1146.349, 402.7464
1146.831, 392.6558
1147.313, 382.4027
1147.795, 375.5916
1148.277, 369.9425
1148.759, 361.7592
1149.242, 350.9540
1149.724, 337.3786
1150.206, 320.7914
1150.688, 304.9645
1151.170, 293.9893
1151.652, 284.8560
1152.134, 275.1607
1152.616, 264.9279
1153.099, 254.8476
1153.581, 244.6643
1154.063, 235.8027
1154.545, 228.7392
1155.027, 221.8233
1155.509, 212.9439
1155.991, 203.5279
1156.473, 195.3231
1156.955, 188.4435
1157.438, 182.3028
1157.920, 176.9982
1158.402, 171.7787
1158.884, 166.4537
1159.366, 161.3050
1159.848, 156.9087
1160.330, 152.9559
1160.812, 148.8804
1161.294, 144.5537
1161.777, 140.5510
1162.259, 136.9118
1162.741, 133.7063
1163.223, 131.0495
1163.705, 128.6852
1164.187, 125.9917
1164.669, 123.1505
1165.151, 120.5714
1165.634, 118.4576
1166.116, 116.2192
1166.598, 113.3935
1167.080, 110.8001
1167.562, 108.9696
1168.044, 107.6052
1168.526, 105.6173
1169.008, 103.1527
1169.490, 100.6681
1169.973, 98.02217
1170.455, 95.95638
1170.937, 95.33262
1171.419, 94.80308
1171.901, 93.33575
1172.383, 91.11659
1172.865, 89.55741
1173.347, 88.59917
1173.829, 87.76087
1174.312, 86.97419
1174.794, 86.05000
1175.276, 84.82825
1175.758, 83.47829
1176.240, 82.08705
1176.722, 80.66589
1177.204, 79.40613
1177.686, 78.32442
1178.169, 77.51074
1178.651, 77.25341
1179.133, 77.04079
1179.615, 76.71370
1180.097, 76.20478
1180.579, 75.26186
1181.061, 73.88447
1181.543, 73.25042
1182.026, 73.43666
1182.508, 73.35831
1182.990, 71.76505
1183.472, 70.10188
1183.954, 69.42290
1184.436, 69.36677
1184.918, 69.10054
1185.400, 68.61732
1185.882, 68.05734
1186.365, 67.43296
1186.847, 66.81647
1187.329, 66.22722
1187.811, 65.69509
1188.293, 65.33372
1188.775, 65.05314
1189.257, 64.46246
1189.739, 63.51928
1190.221, 62.87022
1190.704, 62.66463
1191.186, 62.60556
1191.668, 62.59009
1192.150, 62.45331
1192.632, 61.93011
1193.114, 61.08873
1193.596, 60.59671
1194.078, 60.49832
1194.561, 60.27577
1195.043, 59.72611
1195.525, 59.23889
1196.007, 59.42321
1196.489, 59.72546
1196.971, 59.45767
1197.453, 58.58839
1197.935, 58.40529
1198.417, 59.04947
1198.900, 59.08029
1199.382, 57.72740
1199.864, 56.21796
1200.346, 55.85632
1200.828, 56.04869
1201.310, 56.14829
1201.792, 56.08580
1202.274, 56.04020
1202.756, 56.03120
1203.239, 55.86053
1203.721, 55.35189
1204.203, 54.80168
1204.685, 54.57602
1205.167, 54.48863
1205.649, 54.25576
1206.131, 53.77304
1206.613, 53.64574
1207.096, 53.93161
1207.578, 54.04921
1208.060, 53.52596
1208.542, 52.88725
1209.024, 52.72868
1209.506, 52.83558
1209.988, 52.89607
1210.470, 52.90270
1210.953, 52.76939
1211.435, 52.47915
1211.917, 52.18645
1212.399, 52.05342
1212.881, 51.90275
1213.363, 51.40882
1213.845, 50.80848
1214.327, 50.55138
1214.809, 50.76799
1215.292, 50.94732
1215.774, 51.09218
1216.256, 51.11983
1216.738, 50.84422
1217.220, 50.53186
1217.702, 50.49215
1218.184, 50.58993
1218.666, 50.51643
1219.148, 50.18812
1219.631, 49.99535
1220.113, 49.96948
1220.595, 49.93801
1221.077, 49.64278
1221.559, 49.39532
1222.041, 49.65615
1222.523, 49.42192
1223.005, 49.31026
1223.488, 49.43111
1223.970, 49.09258
1224.452, 49.21285
1224.934, 49.40155
1225.416, 49.37366
1225.898, 49.25021
1226.380, 49.16268
1226.862, 49.04998
1227.344, 48.73150
1227.827, 48.15574
1228.309, 47.67904
1228.791, 47.32568
1229.273, 47.14054
1229.755, 47.40545
1230.237, 47.62763
1230.719, 47.29350
1231.201, 46.61950
1231.683, 46.25412
1232.166, 46.22284
1232.648, 46.26275
1233.130, 46.35130
1233.612, 46.37742
1234.094, 46.26799
1234.576, 46.04593
1235.058, 45.65493
1235.540, 45.18216
1236.023, 44.84545
1236.505, 44.64703
1236.987, 44.31272
1237.469, 43.78833
1237.951, 43.45237
1238.433, 43.95840
1238.915, 44.39334
1239.397, 43.90319
1239.880, 44.12540
1240.362, 44.07942
1240.844, 43.62696
1241.326, 43.81236
1241.808, 43.25705
1242.290, 42.65552
1242.772, 42.40841
1243.254, 42.33891
1243.736, 42.38473
1244.219, 42.50536
1244.701, 42.68871
1245.183, 42.89204
1245.665, 42.79284
1246.147, 42.31892
1246.629, 41.85925
1247.111, 41.58978
1247.593, 41.44555
1248.075, 41.43539
1248.558, 41.47705
1249.040, 41.36524
1249.522, 41.13579
1250.004, 40.93200
1250.486, 40.77792
1250.968, 40.65384
1251.450, 40.61915
1251.932, 40.52900
1252.415, 40.32918
1252.897, 40.05400
1253.379, 39.72320
1253.861, 39.38983
1254.343, 39.20441
1254.825, 39.20065
1255.307, 39.20204
1255.789, 39.19596
1256.271, 39.10652
1256.754, 38.86030
1257.236, 38.59796
1257.718, 38.67613
1258.200, 38.89923
1258.682, 38.86993
1259.164, 38.50533
1259.646, 38.17170
1260.128, 37.90385
1260.610, 37.72448
1261.093, 37.66506
1261.575, 37.64555
1262.057, 37.52581
1262.539, 37.37704
1263.021, 37.33147
1263.503, 37.20677
1263.985, 37.08239
1264.467, 37.07349
1264.950, 36.88435
1265.432, 36.92304
1265.914, 36.96752
1266.396, 36.71688
1266.878, 36.32545
1267.360, 35.94395
1267.842, 35.59069
1268.324, 35.28346
1268.807, 35.00002
1269.289, 34.99508
1269.771, 35.43248
1270.253, 35.83318
1270.735, 35.64696
1271.217, 35.26282
1271.699, 35.03764
1272.181, 34.95924
1272.663, 34.90679
1273.146, 34.87838
1273.628, 34.69384
1274.110, 34.26011
1274.592, 33.87530
1275.074, 33.80284
1275.556, 33.82269
1276.038, 33.81985
1276.520, 33.77026
1277.002, 33.51101
1277.485, 33.09861
1277.967, 32.87918
1278.449, 32.96662
1278.931, 33.08356
1279.413, 33.13649
1279.895, 33.11513
1280.377, 32.99949
1280.859, 32.82581
1281.342, 32.69351
1281.824, 32.57973
1282.306, 32.36647
1282.788, 31.99263
1283.270, 31.85412
1283.752, 32.34155
1284.234, 32.62142
1284.716, 32.34064
1285.198, 31.84101
1285.681, 31.79662
1286.163, 31.96491
1286.645, 31.86587
1287.127, 31.39340
1287.609, 31.11060
1288.091, 31.15503
1288.573, 31.10229
1289.055, 30.76643
1289.537, 30.44604
1290.020, 30.65823
1290.502, 31.04555
1290.984, 31.15842
1291.466, 30.95413
1291.948, 30.91377
1292.430, 31.07029
1292.912, 31.14572
1293.394, 31.05856
1293.877, 30.91892
1294.359, 30.84641
1294.841, 30.75503
1295.323, 30.52011
1295.805, 30.19964
1296.287, 30.03884
1296.769, 30.02630
1297.251, 29.98938
1297.734, 29.88830
1298.216, 29.79198
1298.698, 29.74648
1299.180, 29.72043
1299.662, 29.71582
1300.144, 29.70254
1300.626, 29.56782
1301.108, 29.36181
1301.590, 29.27604
1302.073, 29.34566
1302.555, 29.41507
1303.037, 29.47711
1303.519, 29.43473
1304.001, 29.20743
1304.483, 28.95736
1304.965, 28.89286
##END=



