##NAMES=Chalcophanite
##RRUFFID=R050451
##IDEAL CHEMISTRY=Zn^2+^Mn^4+^_3_O_7_&#183;3H_2_O
##LOCALITY=Morenci mine, Morenci, Greenlee County, Arizona, USA
##OWNER=RRUFF
##SOURCE=University of Arizona Mineral Museum
##DESCRIPTION=A mass of small black hexagonal plates, not homogeneous
##STATUS=The identification of this mineral has been confirmed by X-ray diffraction and chemical analysis
##URL=rruff.info/R050451
##MEASURED CHEMISTRY=(Zn_0.60_Fe^2+^_0.20_Cu_0.12_Fe^3+^_0.08_)_Σ=1_(Mn^4+^_2.92_Fe^3+^_0.08_)_Σ=3_O_7_·3H_2_O ; = bright phase. The gray phase is jacobsite (Mn_0.65_Zn_0.25_Cu_0.09_)_Σ=1_(Fe^3+^_1.58_Mn^3+^_0.42_)_Σ=2_O_4_; dark phase: K-feldspar
91.00781, 4.646358
91.48993, 4.725850
91.97205, 4.757779
92.45416, 4.716560
92.93628, 4.629097
93.41840, 4.561424
93.90051, 4.539492
94.38263, 4.515071
94.86475, 4.374637
95.34686, 4.119666
95.82898, 3.890923
96.31110, 3.837097
96.79321, 3.939131
97.27533, 3.989612
97.75745, 3.904954
98.23956, 3.738005
98.72168, 3.723668
99.20380, 3.883048
99.68591, 4.128801
100.1680, 4.376489
100.6501, 4.622737
101.1323, 4.879584
101.6144, 5.171990
102.0965, 5.512233
102.5786, 5.710696
103.0607, 5.673239
103.5428, 5.578157
104.0250, 5.749103
104.5071, 6.349154
104.9892, 6.938776
105.4713, 7.340352
105.9534, 7.437987
106.4355, 7.597990
106.9177, 7.821858
107.3998, 8.107553
107.8819, 8.462915
108.3640, 9.033975
108.8461, 9.553645
109.3282, 9.902938
109.8104, 9.700768
110.2925, 9.755887
110.7746, 10.19835
111.2567, 10.98123
111.7388, 11.75806
112.2209, 12.54839
112.7031, 13.28365
113.1852, 13.92501
113.6673, 14.28255
114.1494, 14.71153
114.6315, 15.35738
115.1136, 16.23780
115.5958, 17.05783
116.0779, 17.68209
116.5600, 18.21060
117.0421, 18.75315
117.5242, 19.34792
118.0063, 19.97172
118.4885, 20.58965
118.9706, 21.17587
119.4527, 21.88357
119.9348, 22.78368
120.4169, 23.85920
120.8990, 25.09667
121.3812, 26.75871
121.8633, 28.44865
122.3454, 29.84480
122.8275, 31.00445
123.3096, 31.62545
123.7917, 31.19263
124.2739, 29.90760
124.7560, 28.51039
125.2381, 27.23960
125.7202, 26.20214
126.2023, 25.62356
126.6844, 25.65211
127.1666, 26.01864
127.6487, 26.43368
128.1308, 26.89347
128.6129, 27.30791
129.0950, 27.57699
129.5771, 27.73578
130.0593, 27.91166
130.5414, 28.14704
131.0235, 28.41968
131.5056, 28.59751
131.9877, 28.55658
132.4698, 28.47576
132.9520, 28.81578
133.4341, 29.54617
133.9162, 30.07201
134.3983, 30.06658
134.8804, 29.63059
135.3625, 29.53909
135.8447, 29.83825
136.3268, 30.34606
136.8089, 30.80504
137.2910, 31.19000
137.7731, 31.68463
138.2552, 32.45908
138.7374, 33.58340
139.2195, 34.39993
139.7016, 34.95111
140.1837, 35.18172
140.6658, 34.86090
141.1479, 33.71272
141.6301, 32.64797
142.1122, 32.06865
142.5943, 32.05126
143.0764, 32.29477
143.5585, 32.82296
144.0406, 33.59440
144.5228, 34.49738
145.0049, 35.52290
145.4870, 36.67702
145.9691, 37.97635
146.4512, 39.70887
146.9333, 41.14552
147.4155, 42.20346
147.8976, 42.91970
148.3797, 43.54271
148.8618, 44.38802
149.3439, 44.92830
149.8260, 44.83034
150.3082, 43.60538
150.7903, 42.28994
151.2724, 40.90180
151.7545, 39.44202
152.2366, 38.08569
152.7188, 36.55110
153.2009, 35.25359
153.6830, 34.54574
154.1651, 35.30267
154.6472, 35.82137
155.1293, 35.59100
155.6115, 34.49241
156.0936, 33.55289
156.5757, 32.87898
157.0578, 32.46664
157.5399, 32.32302
158.0220, 32.64441
158.5042, 33.06578
158.9863, 33.46122
159.4684, 33.81661
159.9505, 34.17040
160.4326, 34.38662
160.9147, 34.63034
161.3969, 35.14739
161.8790, 36.21437
162.3611, 37.43682
162.8432, 38.63540
163.3253, 39.79589
163.8074, 40.86217
164.2896, 42.02787
164.7717, 43.08290
165.2538, 43.60596
165.7359, 43.32940
166.2180, 42.49688
166.7001, 41.21651
167.1823, 39.36800
167.6644, 37.42682
168.1465, 35.51680
168.6286, 33.71873
169.1107, 32.26225
169.5928, 31.55081
170.0750, 31.13183
170.5571, 30.50127
171.0392, 29.43445
171.5213, 28.33256
172.0034, 27.49616
172.4855, 26.90256
172.9677, 26.47050
173.4498, 26.22555
173.9319, 26.08449
174.4140, 25.92587
174.8961, 25.69202
175.3782, 25.45779
175.8604, 25.28192
176.3425, 25.16543
176.8246, 25.12312
177.3067, 25.27876
177.7888, 25.51169
178.2709, 25.56664
178.7531, 25.29589
179.2352, 24.86728
179.7173, 24.46817
180.1994, 24.09960
180.6815, 23.85927
181.1636, 23.91861
181.6458, 24.19200
182.1279, 24.42024
182.6100, 24.48340
183.0921, 24.46522
183.5742, 24.57066
184.0563, 24.80526
184.5385, 25.01647
185.0206, 25.00605
185.5027, 24.81864
185.9848, 24.67528
186.4669, 24.74055
186.9490, 24.89736
187.4312, 24.70685
187.9133, 24.12098
188.3954, 23.53061
188.8775, 23.46710
189.3596, 23.87681
189.8417, 24.25606
190.3239, 24.41853
190.8060, 24.39183
191.2881, 24.25852
191.7702, 23.98596
192.2523, 23.73940
192.7344, 23.77801
193.2166, 24.10153
193.6987, 24.40523
194.1808, 24.57420
194.6629, 24.61504
195.1450, 24.60051
195.6271, 24.51559
196.1093, 24.41380
196.5914, 24.37756
197.0735, 24.41119
197.5556, 24.45429
198.0377, 24.45701
198.5198, 24.41824
199.0020, 24.51258
199.4841, 24.79499
199.9662, 25.11329
200.4483, 25.18498
200.9304, 24.96526
201.4125, 24.77106
201.8947, 24.79240
202.3768, 25.05971
202.8589, 25.12986
203.3410, 24.93744
203.8231, 24.63047
204.3052, 24.49088
204.7874, 24.54519
205.2695, 24.64946
205.7516, 24.74440
206.2337, 24.82720
206.7158, 24.91424
207.1979, 24.99051
207.6801, 25.08650
208.1622, 25.29043
208.6443, 25.65411
209.1264, 25.96996
209.6085, 26.13160
210.0906, 26.10699
210.5728, 26.06519
211.0549, 25.98215
211.5370, 25.90248
212.0191, 25.93721
212.5012, 26.11627
212.9833, 26.33647
213.4655, 26.54942
213.9476, 26.75072
214.4297, 26.96718
214.9118, 27.20445
215.3939, 27.45438
215.8760, 27.70721
216.3581, 27.96912
216.8403, 28.21677
217.3224, 28.43422
217.8045, 28.61522
218.2866, 28.78340
218.7687, 28.91415
219.2508, 29.04053
219.7330, 29.26954
220.2151, 29.68135
220.6972, 30.04526
221.1793, 30.20707
221.6614, 30.01180
222.1435, 30.04342
222.6257, 30.37305
223.1078, 30.91599
223.5899, 31.45658
224.0720, 32.00962
224.5541, 32.53925
225.0362, 33.03384
225.5184, 33.46476
226.0005, 33.92362
226.4826, 34.42157
226.9647, 34.94773
227.4468, 35.48357
227.9289, 36.00643
228.4111, 36.56996
228.8932, 37.21926
229.3753, 38.04406
229.8574, 38.73379
230.3395, 39.22824
230.8216, 39.59277
231.3038, 40.04567
231.7859, 40.76456
232.2680, 41.30454
232.7501, 41.43665
233.2322, 40.95968
233.7143, 40.51517
234.1965, 40.04084
234.6786, 39.61129
235.1607, 39.44835
235.6428, 39.69325
236.1249, 39.99796
236.6070, 40.20071
237.0892, 40.20816
237.5713, 40.31539
238.0534, 40.51764
238.5355, 40.82025
239.0176, 41.24384
239.4997, 41.84300
239.9819, 42.49483
240.4640, 43.17846
240.9461, 44.04449
241.4282, 44.60097
241.9103, 44.84110
242.3924, 44.77502
242.8746, 44.40549
243.3567, 43.62553
243.8388, 42.70572
244.3209, 41.72517
244.8030, 40.63499
245.2851, 39.64347
245.7673, 38.77085
246.2494, 37.98895
246.7315, 37.23838
247.2136, 36.51754
247.6957, 35.83033
248.1778, 35.16829
248.6600, 34.51371
249.1421, 33.96837
249.6242, 33.62177
250.1063, 33.33319
250.5884, 32.81235
251.0705, 31.93502
251.5527, 31.03276
252.0348, 30.23821
252.5169, 29.58159
252.9990, 28.88252
253.4811, 28.05707
253.9632, 27.23551
254.4454, 26.67935
254.9275, 26.50736
255.4096, 26.36544
255.8917, 26.12655
256.3738, 25.75665
256.8560, 25.44907
257.3381, 25.19124
257.8202, 25.00365
258.3023, 24.93291
258.7844, 25.04553
259.2665, 25.13114
259.7487, 25.11366
260.2308, 24.97298
260.7129, 24.87160
261.1950, 24.82514
261.6771, 24.80103
262.1592, 24.75074
262.6414, 24.65617
263.1235, 24.58147
263.6056, 24.54131
264.0877, 24.53483
264.5698, 24.57598
265.0519, 24.67759
265.5341, 24.80877
266.0162, 24.94927
266.4983, 25.12178
266.9804, 25.22438
267.4625, 25.19286
267.9446, 25.03145
268.4268, 25.04585
268.9089, 25.32495
269.3910, 25.62239
269.8731, 25.64485
270.3552, 25.30301
270.8373, 25.04910
271.3195, 25.00352
271.8016, 25.14451
272.2837, 25.24496
272.7658, 25.30668
273.2479, 25.32554
273.7300, 25.28358
274.2122, 25.16784
274.6943, 25.06960
275.1764, 24.99226
275.6585, 24.94743
276.1406, 25.01699
276.6227, 25.22972
277.1049, 25.46249
277.5870, 25.59941
278.0691, 25.62826
278.5512, 25.71755
279.0333, 25.93470
279.5154, 26.21003
279.9976, 26.28161
280.4797, 26.11603
280.9618, 25.91875
281.4439, 25.81365
281.9260, 25.80161
282.4081, 25.88356
282.8903, 26.09763
283.3724, 26.36369
283.8545, 26.49491
284.3366, 26.48664
284.8187, 26.39220
285.3008, 26.15751
285.7830, 25.80911
286.2651, 25.72738
286.7472, 26.01974
287.2293, 26.44888
287.7114, 26.55989
288.1935, 26.35501
288.6757, 26.11156
289.1578, 25.93336
289.6399, 25.83343
290.1220, 25.93030
290.6041, 26.27485
291.0862, 26.67030
291.5684, 26.81272
292.0505, 26.72560
292.5326, 26.62800
293.0147, 26.64554
293.4968, 26.73579
293.9789, 26.76050
294.4611, 26.70709
294.9432, 26.64266
295.4253, 26.64473
295.9074, 26.70371
296.3895, 26.77694
296.8716, 26.87322
297.3538, 26.96628
297.8359, 26.98001
298.3180, 26.91032
298.8001, 26.85510
299.2822, 26.89326
299.7643, 27.01710
300.2465, 27.21237
300.7286, 27.57531
301.2107, 27.93894
301.6928, 28.02606
302.1749, 27.85243
302.6570, 27.67047
303.1392, 27.70459
303.6213, 27.86331
304.1034, 27.98312
304.5855, 27.97421
305.0676, 27.96035
305.5497, 28.09667
306.0319, 28.35543
306.5140, 28.59939
306.9961, 28.69642
307.4782, 28.74048
307.9603, 28.86031
308.4424, 29.14137
308.9246, 29.39564
309.4067, 29.39690
309.8888, 29.23780
310.3709, 29.18426
310.8530, 29.49847
311.3351, 29.91548
311.8173, 30.19541
312.2994, 30.26131
312.7815, 30.31989
313.2636, 30.56243
313.7457, 30.87743
314.2278, 31.06496
314.7100, 30.83766
315.1921, 30.60205
315.6742, 30.64843
316.1563, 31.05657
316.6384, 31.42290
317.1205, 31.49544
317.6027, 31.44406
318.0848, 31.48327
318.5669, 31.77038
319.0490, 32.08003
319.5311, 32.32827
320.0132, 32.50903
320.4954, 32.66497
320.9775, 32.83929
321.4596, 32.97759
321.9417, 33.03039
322.4238, 32.89482
322.9059, 32.76909
323.3881, 32.73069
323.8702, 32.76727
324.3523, 32.71986
324.8344, 32.44147
325.3165, 32.15472
325.7986, 31.98873
326.2808, 32.24446
326.7629, 32.27927
327.2450, 31.90563
327.7271, 31.24220
328.2092, 30.75710
328.6913, 30.60233
329.1735, 30.49633
329.6556, 30.32927
330.1377, 30.08386
330.6198, 29.80540
331.1019, 29.43503
331.5840, 29.04961
332.0662, 28.79102
332.5483, 28.71218
333.0304, 28.68749
333.5125, 28.72807
333.9946, 28.90027
334.4767, 28.76271
334.9589, 28.14954
335.4410, 27.39101
335.9231, 26.90943
336.4052, 26.78826
336.8873, 26.73817
337.3694, 26.70383
337.8516, 26.68520
338.3336, 26.68239
338.8158, 26.70591
339.2979, 26.72409
339.7800, 26.68789
340.2621, 26.57962
340.7442, 26.55464
341.2263, 26.67284
341.7085, 26.87700
342.1906, 26.94720
342.6727, 26.86121
343.1548, 26.78450
343.6369, 26.87958
344.1190, 27.12803
344.6012, 27.21763
345.0833, 27.07106
345.5654, 26.83577
346.0475, 26.78071
346.5296, 26.89613
347.0117, 27.03279
347.4939, 27.10136
347.9760, 27.12630
348.4581, 27.22349
348.9402, 27.42158
349.4223, 27.55494
349.9044, 27.31657
350.3866, 26.83002
350.8687, 26.51616
351.3508, 26.66238
351.8329, 27.03101
352.3150, 27.24454
352.7971, 27.30845
353.2793, 27.37857
353.7614, 27.62064
354.2435, 27.94419
354.7256, 28.20586
355.2077, 28.36476
355.6898, 28.44583
356.1720, 28.38773
356.6541, 28.24059
357.1362, 28.21676
357.6183, 28.55636
358.1004, 29.01038
358.5826, 29.34680
359.0647, 29.48214
359.5468, 29.60056
360.0289, 29.78502
360.5110, 30.02303
360.9931, 30.29202
361.4753, 30.61315
361.9574, 30.93576
362.4395, 31.22538
362.9216, 31.47043
363.4037, 31.73817
363.8858, 32.10205
364.3680, 32.47820
364.8501, 32.77956
365.3322, 32.73596
365.8143, 32.87004
366.2964, 33.47607
366.7785, 34.53900
367.2607, 35.23523
367.7428, 35.06688
368.2249, 34.79551
368.7070, 34.88472
369.1891, 35.65574
369.6712, 36.36613
370.1534, 37.01545
370.6355, 37.59290
371.1176, 38.05047
371.5997, 38.25217
372.0818, 38.50898
372.5639, 38.97840
373.0461, 39.78259
373.5282, 40.39779
374.0103, 40.77683
374.4924, 41.02238
374.9745, 41.29711
375.4566, 41.64294
375.9388, 41.89441
376.4209, 42.00976
376.9030, 41.98999
377.3851, 41.84399
377.8672, 41.57804
378.3493, 41.16957
378.8315, 40.51894
379.3136, 39.61419
379.7957, 38.88738
380.2778, 38.45260
380.7599, 38.20159
381.2420, 37.89091
381.7242, 37.52580
382.2063, 37.08004
382.6884, 36.46783
383.1705, 35.75143
383.6526, 35.18008
384.1347, 34.79491
384.6169, 34.48431
385.0990, 34.07668
385.5811, 33.62241
386.0632, 33.30607
386.5453, 33.36729
387.0274, 33.54495
387.5096, 33.47092
387.9917, 33.14333
388.4738, 32.76493
388.9559, 32.46577
389.4380, 32.22607
389.9201, 32.01232
390.4023, 31.74833
390.8844, 31.58816
391.3665, 31.74687
391.8486, 32.12895
392.3307, 32.37725
392.8128, 32.22728
393.2950, 31.94562
393.7771, 31.68884
394.2592, 31.44894
394.7413, 31.32327
395.2234, 31.45055
395.7055, 31.69154
396.1877, 31.83115
396.6698, 31.83322
397.1519, 31.71587
397.6340, 31.44626
398.1161, 31.00339
398.5982, 30.60486
399.0804, 30.22030
399.5625, 29.91346
400.0446, 29.73385
400.5267, 29.75380
401.0088, 29.80293
401.4909, 29.92534
401.9731, 30.07282
402.4552, 30.02272
402.9373, 29.64561
403.4194, 29.28257
403.9015, 29.10689
404.3836, 29.17099
404.8658, 29.22262
405.3479, 29.27820
405.8300, 29.29746
406.3121, 29.17879
406.7942, 28.88881
407.2763, 28.70143
407.7585, 28.77747
408.2406, 29.03710
408.7227, 28.95885
409.2048, 28.49884
409.6869, 28.06790
410.1690, 28.13257
410.6512, 28.58032
411.1333, 28.85599
411.6154, 28.82123
412.0975, 28.63320
412.5796, 28.49238
413.0617, 28.39817
413.5439, 28.34302
414.0260, 28.33558
414.5081, 28.35925
414.9902, 28.40272
415.4723, 28.46927
415.9544, 28.51411
416.4366, 28.45571
416.9187, 28.36144
417.4008, 28.33212
417.8829, 28.49345
418.3650, 28.65484
418.8471, 28.68519
419.3293, 28.60564
419.8114, 28.54696
420.2935, 28.57748
420.7756, 28.64033
421.2577, 28.69771
421.7398, 28.74233
422.2220, 28.78527
422.7041, 28.79965
423.1862, 28.81847
423.6683, 28.90037
424.1504, 29.19192
424.6325, 29.40927
425.1147, 29.44318
425.5968, 29.26470
426.0789, 29.17067
426.5610, 29.17739
427.0431, 29.25337
427.5252, 29.37958
428.0074, 29.57728
428.4895, 29.77937
428.9716, 29.99392
429.4537, 30.19998
429.9358, 30.32279
430.4179, 30.34921
430.9001, 30.33784
431.3822, 30.28467
431.8643, 30.18740
432.3464, 30.21719
432.8285, 30.39535
433.3106, 30.63248
433.7928, 30.82024
434.2749, 30.96445
434.7570, 31.11040
435.2391, 31.25483
435.7212, 31.42327
436.2033, 31.71655
436.6855, 32.11508
437.1676, 32.44550
437.6497, 32.46827
438.1318, 32.37711
438.6139, 32.48978
439.0960, 32.89511
439.5782, 33.36587
440.0603, 33.76722
440.5424, 34.09816
441.0245, 34.35162
441.5066, 34.41062
441.9887, 34.48865
442.4709, 34.71784
442.9530, 35.09851
443.4351, 35.52381
443.9172, 35.98899
444.3993, 36.45929
444.8814, 36.90300
445.3636, 37.31360
445.8457, 37.70363
446.3278, 38.09394
446.8099, 38.46294
447.2920, 38.76537
447.7741, 38.89457
448.2563, 39.08123
448.7384, 39.43943
449.2205, 40.02507
449.7026, 40.36671
450.1847, 40.41011
450.6668, 40.27571
451.1490, 40.05514
451.6311, 39.73016
452.1132, 39.38798
452.5953, 39.03847
453.0774, 38.67995
453.5595, 38.29378
454.0417, 37.87951
454.5238, 37.42424
455.0059, 36.91092
455.4880, 36.34749
455.9701, 35.70554
456.4522, 34.96377
456.9344, 34.30154
457.4165, 33.94925
457.8986, 33.83344
458.3807, 33.76833
458.8628, 33.73967
459.3449, 33.68193
459.8271, 33.45849
460.3092, 33.11722
460.7913, 32.85911
461.2734, 32.80197
461.7555, 32.87886
462.2376, 33.07514
462.7198, 33.42762
463.2019, 33.70490
463.6840, 33.75596
464.1661, 33.68296
464.6482, 33.60947
465.1303, 33.42946
465.6125, 33.39565
466.0946, 33.66474
466.5767, 34.19685
467.0588, 34.59901
467.5409, 34.76617
468.0230, 34.86535
468.5052, 34.94855
468.9873, 34.94371
469.4694, 35.11602
469.9515, 35.55243
470.4336, 36.08968
470.9157, 36.49633
471.3979, 36.73198
471.8800, 36.96546
472.3621, 37.22702
472.8442, 37.52058
473.3263, 37.89500
473.8084, 38.36086
474.2906, 38.82525
474.7727, 39.18830
475.2548, 39.48180
475.7369, 39.86829
476.2190, 40.37592
476.7011, 40.93476
477.1833, 41.48174
477.6654, 42.01892
478.1475, 42.55239
478.6296, 43.10644
479.1117, 43.64305
479.5938, 44.10780
480.0760, 44.51264
480.5581, 44.92089
481.0402, 45.41390
481.5223, 45.90377
482.0044, 46.34469
482.4865, 46.77612
482.9687, 47.01647
483.4508, 46.90171
483.9329, 46.58492
484.4150, 46.28666
484.8971, 45.97028
485.3792, 45.75385
485.8614, 45.71313
486.3435, 45.83138
486.8256, 45.87141
487.3077, 45.75149
487.7898, 45.64901
488.2719, 45.69008
488.7541, 45.98069
489.2362, 46.05072
489.7183, 45.81964
490.2004, 45.47066
490.6825, 45.30249
491.1646, 45.33986
491.6468, 45.28693
492.1289, 44.99325
492.6110, 44.58058
493.0931, 44.42826
493.5752, 44.53267
494.0573, 44.64627
494.5395, 44.57292
495.0216, 44.38375
495.5037, 44.22459
495.9858, 44.11902
496.4679, 44.02258
496.9500, 43.84938
497.4322, 43.66684
497.9143, 43.59013
498.3964, 43.67055
498.8785, 43.86361
499.3606, 44.15904
499.8427, 44.55377
500.3249, 45.01212
500.8070, 45.53503
501.2891, 46.11235
501.7712, 46.75069
502.2533, 47.49189
502.7354, 48.17085
503.2176, 48.67541
503.6997, 49.15985
504.1818, 49.77578
504.6639, 50.52822
505.1460, 51.41528
505.6281, 52.50782
506.1103, 53.72761
506.5924, 54.69648
507.0745, 55.33940
507.5566, 55.99321
508.0387, 56.90908
508.5208, 58.06089
509.0030, 58.93019
509.4851, 59.50948
509.9672, 59.84745
510.4493, 59.94734
510.9314, 59.84206
511.4135, 59.64533
511.8957, 59.40554
512.3778, 59.05883
512.8599, 58.52699
513.3420, 57.82746
513.8242, 57.01264
514.3063, 56.08097
514.7884, 55.05156
515.2705, 53.95033
515.7526, 52.78390
516.2347, 51.50890
516.7169, 49.91930
517.1990, 48.32574
517.6811, 46.96548
518.1632, 45.99675
518.6453, 45.09827
519.1274, 44.19800
519.6096, 43.35238
520.0917, 42.68257
520.5738, 42.23992
521.0559, 41.88912
521.5380, 41.59245
522.0201, 41.35332
522.5023, 41.23298
522.9844, 41.23722
523.4665, 41.34617
523.9486, 41.56105
524.4307, 41.87934
524.9128, 42.22497
525.3950, 42.57837
525.8771, 42.99462
526.3592, 43.56323
526.8413, 44.25675
527.3234, 44.99759
527.8055, 45.74367
528.2877, 46.52407
528.7698, 47.38192
529.2519, 48.30626
529.7340, 49.28467
530.2161, 50.32930
530.6982, 51.40900
531.1804, 52.46812
531.6625, 53.43721
532.1446, 54.66063
532.6267, 56.45329
533.1088, 58.44605
533.5909, 60.27036
534.0731, 61.40117
534.5552, 62.98613
535.0373, 65.32787
535.5194, 68.13373
536.0015, 70.75816
536.4836, 72.96392
536.9658, 75.44112
537.4479, 78.53357
537.9300, 82.18541
538.4121, 85.43448
538.8942, 88.22293
539.3763, 90.77071
539.8585, 93.31669
540.3406, 95.80554
540.8227, 97.99039
541.3048, 99.93162
541.7869, 101.2988
542.2690, 101.8487
542.7512, 101.5198
543.2333, 100.1489
543.7154, 97.13819
544.1975, 93.50347
544.6796, 89.91969
545.1617, 86.36510
545.6439, 82.88815
546.1260, 79.30729
546.6081, 75.95995
547.0902, 73.02518
547.5723, 70.56480
548.0544, 68.47104
548.5366, 66.83309
549.0187, 65.48381
549.5008, 64.29163
549.9829, 63.45975
550.4650, 62.40233
550.9471, 60.97108
551.4293, 59.34308
551.9114, 57.93343
552.3935, 56.80397
552.8756, 55.58652
553.3577, 54.06086
553.8398, 52.33390
554.3220, 50.91621
554.8041, 49.80867
555.2862, 48.83916
555.7683, 47.85093
556.2504, 46.89875
556.7325, 46.07814
557.2147, 45.40880
557.6968, 44.83334
558.1789, 44.37126
558.6610, 43.95321
559.1431, 43.48172
559.6252, 42.75817
560.1074, 42.14279
560.5895, 41.83260
561.0716, 41.75353
561.5537, 41.66328
562.0358, 41.57864
562.5179, 41.40910
563.0001, 41.08194
563.4822, 40.57159
563.9643, 40.19987
564.4464, 39.99644
564.9285, 39.89013
565.4106, 39.87353
565.8928, 39.98740
566.3749, 39.90046
566.8570, 39.54968
567.3391, 39.07222
567.8212, 38.62994
568.3033, 38.22741
568.7855, 37.93637
569.2676, 37.83073
569.7497, 37.79453
570.2318, 37.64962
570.7139, 37.41759
571.1960, 37.18105
571.6782, 37.07854
572.1603, 36.93309
572.6424, 36.53511
573.1245, 35.84167
573.6066, 35.27942
574.0887, 35.02952
574.5709, 34.96082
575.0530, 34.96975
575.5351, 35.15858
576.0172, 35.25660
576.4993, 35.20240
576.9814, 35.08067
577.4636, 35.05242
577.9457, 35.21037
578.4278, 35.19669
578.9099, 34.83795
579.3920, 34.27379
579.8741, 34.07158
580.3563, 34.25489
580.8384, 34.49890
581.3205, 34.62500
581.8026, 34.66212
582.2847, 34.68821
582.7668, 34.70613
583.2490, 34.69605
583.7311, 34.60661
584.2132, 34.49246
584.6953, 34.42339
585.1774, 34.42156
585.6595, 34.45437
586.1416, 34.51074
586.6237, 34.58965
587.1058, 34.69029
587.5880, 34.95789
588.0701, 35.08785
588.5522, 34.91811
589.0343, 34.52850
589.5164, 34.28574
589.9985, 34.25146
590.4807, 34.25992
590.9628, 34.23968
591.4449, 34.18900
591.9270, 34.19874
592.4091, 34.27910
592.8912, 34.37474
593.3734, 34.43914
593.8555, 34.47640
594.3376, 34.49744
594.8197, 34.49608
595.3018, 34.51054
595.7839, 34.62065
596.2661, 34.77321
596.7482, 34.86466
597.2303, 34.79172
597.7124, 34.71278
598.1945, 34.72006
598.6766, 34.79588
599.1588, 34.88906
599.6409, 35.00858
600.1230, 35.11999
600.6051, 35.19818
601.0872, 35.23824
601.5693, 35.31988
602.0515, 35.44322
602.5336, 35.60613
603.0157, 35.81919
603.4978, 36.09533
603.9799, 36.35511
604.4620, 36.61106
604.9442, 36.81361
605.4263, 36.82967
605.9084, 36.70658
606.3905, 36.73706
606.8726, 37.05048
607.3547, 37.42801
607.8369, 37.58219
608.3190, 37.58417
608.8011, 37.61970
609.2832, 37.81139
609.7653, 38.03453
610.2474, 38.22786
610.7296, 38.38947
611.2117, 38.51092
611.6938, 38.63872
612.1759, 38.68509
612.6580, 38.55597
613.1401, 38.15615
613.6223, 38.01327
614.1044, 38.24007
614.5865, 38.57214
615.0686, 38.77193
615.5507, 38.81884
616.0328, 38.92096
616.5150, 39.11471
616.9971, 39.32976
617.4792, 39.47047
617.9613, 39.54266
618.4434, 39.56635
618.9255, 39.52138
619.4077, 39.46557
619.8898, 39.47437
620.3719, 39.52974
620.8540, 39.57422
621.3361, 39.53537
621.8182, 39.51483
622.3004, 39.58508
622.7825, 39.74730
623.2646, 39.89109
623.7467, 39.87410
624.2288, 39.93690
624.7109, 40.23529
625.1931, 40.90639
625.6752, 41.32153
626.1573, 41.38713
626.6394, 41.35622
627.1215, 41.49314
627.6036, 41.79991
628.0858, 42.10947
628.5679, 42.39248
629.0500, 42.67991
629.5321, 43.01311
630.0142, 43.38847
630.4963, 43.78520
630.9785, 44.24117
631.4606, 44.67482
631.9427, 44.95375
632.4248, 45.14129
632.9069, 45.44033
633.3890, 46.00415
633.8712, 46.63200
634.3533, 47.24756
634.8354, 47.84510
635.3175, 48.44967
635.7996, 49.12473
636.2817, 49.73520
636.7639, 50.18787
637.2460, 50.42705
637.7281, 50.78856
638.2102, 51.30492
638.6923, 51.85351
639.1744, 52.27522
639.6566, 52.59506
640.1387, 53.01028
640.6208, 53.58035
641.1029, 54.15461
641.5850, 54.53432
642.0671, 54.78671
642.5493, 55.05568
643.0314, 55.54713
643.5135, 55.92436
643.9956, 55.98019
644.4777, 55.77797
644.9598, 55.51836
645.4420, 55.15189
645.9241, 54.83814
646.4062, 54.68054
646.8883, 54.66621
647.3704, 54.43568
647.8525, 53.90837
648.3347, 53.34462
648.8168, 52.85767
649.2989, 52.44497
649.7810, 52.32285
650.2631, 52.52689
650.7452, 52.72583
651.2274, 52.49367
651.7095, 52.03831
652.1916, 51.80426
652.6737, 51.91728
653.1558, 52.09987
653.6379, 52.13984
654.1201, 52.13102
654.6022, 52.19738
655.0843, 52.36096
655.5664, 52.61931
656.0485, 53.06637
656.5306, 53.59652
657.0128, 53.96457
657.4949, 54.02919
657.9770, 54.20050
658.4591, 54.60350
658.9412, 55.18489
659.4233, 55.70877
659.9055, 56.17114
660.3876, 56.64325
660.8697, 57.14967
661.3518, 57.70192
661.8339, 58.34183
662.3160, 59.06604
662.7982, 59.81768
663.2803, 60.53783
663.7624, 61.28026
664.2445, 62.08200
664.7266, 62.94978
665.2087, 63.89274
665.6909, 65.00955
666.1730, 66.14629
666.6551, 67.16758
667.1372, 67.96188
667.6193, 68.84121
668.1014, 69.83942
668.5836, 70.87705
669.0657, 71.77581
669.5478, 72.49171
670.0299, 73.51981
670.5120, 75.02750
670.9941, 76.77620
671.4763, 78.39487
671.9584, 79.89705
672.4405, 81.35548
672.9226, 82.84422
673.4047, 84.28474
673.8868, 85.46715
674.3690, 86.50664
674.8511, 87.84976
675.3332, 89.74747
675.8153, 91.91044
676.2974, 94.35071
676.7795, 97.08926
677.2617, 99.59583
677.7438, 101.7723
678.2259, 103.8941
678.7080, 106.0669
679.1901, 108.2965
679.6722, 110.8534
680.1544, 113.8131
680.6365, 116.8447
681.1186, 119.6490
681.6007, 122.3059
682.0828, 125.1215
682.5649, 128.1348
683.0471, 131.1888
683.5292, 134.0051
684.0113, 136.7853
684.4934, 139.7245
684.9755, 143.1607
685.4576, 146.3624
685.9398, 149.2808
686.4219, 151.8249
686.9040, 153.9152
687.3861, 155.4876
687.8682, 156.7239
688.3503, 157.6190
688.8325, 158.2245
689.3146, 158.8241
689.7967, 159.4327
690.2788, 159.1902
690.7609, 157.5480
691.2430, 154.9892
691.7252, 152.3054
692.2073, 149.4388
692.6894, 146.2365
693.1715, 142.5175
693.6536, 138.4954
694.1357, 134.1914
694.6179, 129.6304
695.1000, 125.2521
695.5821, 121.5231
696.0642, 117.6679
696.5463, 113.2209
697.0284, 108.0057
697.5106, 103.3737
697.9927, 99.37761
698.4748, 95.83129
698.9569, 92.82353
699.4390, 90.25137
699.9211, 87.27483
700.4033, 83.78751
700.8854, 80.28080
701.3675, 77.17369
701.8496, 74.39722
702.3317, 71.82643
702.8138, 69.43295
703.2960, 67.31158
703.7781, 65.62758
704.2602, 64.20141
704.7423, 62.81337
705.2244, 61.41704
705.7065, 60.07156
706.1887, 58.77771
706.6708, 57.54184
707.1529, 56.29990
707.6350, 55.02217
708.1171, 53.92778
708.5992, 53.11768
709.0814, 52.46877
709.5635, 51.69704
710.0456, 50.83040
710.5277, 50.01865
711.0098, 49.41150
711.4919, 48.83321
711.9741, 48.01872
712.4562, 47.07653
712.9383, 46.41035
713.4204, 46.57290
713.9025, 46.65730
714.3846, 46.17482
714.8668, 45.15811
715.3489, 44.38668
715.8310, 43.88887
716.3131, 43.57140
716.7952, 43.49073
717.2773, 43.60943
717.7595, 43.30145
718.2416, 42.54469
718.7237, 41.75459
719.2058, 41.32161
719.6879, 41.05083
720.1700, 40.58024
720.6522, 39.85095
721.1343, 39.28546
721.6164, 39.30414
722.0985, 39.47500
722.5806, 39.43890
723.0627, 39.04663
723.5449, 38.66613
724.0270, 38.31845
724.5091, 37.98363
724.9912, 37.63092
725.4733, 37.23976
725.9554, 36.95307
726.4376, 36.81732
726.9197, 36.68181
727.4018, 36.26069
727.8839, 35.66535
728.3660, 35.26512
728.8481, 35.20941
729.3303, 35.23443
729.8124, 35.13083
730.2945, 34.95584
730.7766, 34.79790
731.2587, 34.70118
731.7408, 34.60075
732.2230, 34.47761
732.7051, 34.34230
733.1872, 34.22295
733.6693, 34.14940
734.1514, 34.00217
734.6335, 33.72780
735.1157, 33.38655
735.5978, 33.12885
736.0799, 32.94890
736.5620, 32.79876
737.0441, 32.71372
737.5262, 32.60108
738.0084, 32.26915
738.4905, 31.80128
738.9726, 31.48111
739.4547, 31.55027
739.9368, 31.67886
740.4189, 31.71399
740.9011, 31.66044
741.3832, 31.70184
741.8653, 31.96572
742.3474, 32.08748
742.8295, 31.85886
743.3116, 31.33627
743.7938, 30.98772
744.2759, 30.81679
744.7580, 30.69733
745.2401, 30.50254
745.7222, 30.32327
746.2043, 30.34908
746.6865, 30.57471
747.1686, 30.74669
747.6507, 30.78794
748.1328, 30.68231
748.6149, 30.33160
749.0970, 29.62014
749.5792, 29.28070
750.0613, 29.58667
750.5434, 29.94458
751.0255, 29.93164
751.5076, 29.49719
751.9897, 29.31484
752.4719, 29.42075
752.9540, 29.60687
753.4361, 29.75674
753.9182, 29.82669
754.4003, 29.67720
754.8824, 29.25917
755.3646, 28.89063
755.8467, 28.82829
756.3288, 28.89123
756.8109, 28.91093
757.2930, 28.81642
757.7751, 28.77422
758.2573, 28.86675
758.7394, 28.94553
759.2215, 28.83603
759.7036, 28.49333
760.1857, 28.28919
760.6678, 28.28206
761.1500, 28.33803
761.6321, 28.24350
762.1142, 28.08224
762.5963, 28.09138
763.0784, 28.40378
763.5605, 28.68006
764.0427, 28.66246
764.5248, 28.47520
765.0069, 28.27397
765.4890, 28.00944
765.9711, 27.84909
766.4532, 27.83512
766.9354, 27.90456
767.4175, 27.97782
767.8996, 28.06094
768.3817, 28.10907
768.8638, 28.10913
769.3459, 28.08549
769.8281, 28.04712
770.3102, 28.01487
770.7923, 28.06750
771.2744, 28.35278
771.7565, 28.53974
772.2386, 28.24178
772.7208, 27.72392
773.2029, 27.44761
773.6850, 27.76920
774.1671, 28.02986
774.6492, 28.14371
775.1313, 28.14001
775.6135, 28.04022
776.0956, 27.81533
776.5777, 27.72259
777.0598, 27.87949
777.5419, 28.13011
778.0240, 28.17707
778.5062, 28.07919
778.9883, 28.02054
779.4704, 28.15871
779.9525, 28.28618
780.4346, 28.25097
780.9167, 28.10871
781.3989, 27.99694
781.8810, 27.93964
782.3631, 27.92277
782.8452, 27.96264
783.3273, 28.03547
783.8094, 28.07228
784.2916, 28.07143
784.7737, 28.05287
785.2558, 28.02413
785.7379, 27.98145
786.2200, 27.89775
786.7021, 27.79019
787.1843, 27.72056
787.6664, 27.73744
788.1485, 27.78029
788.6306, 27.82370
789.1127, 27.86700
789.5948, 27.91160
790.0770, 28.02540
790.5591, 28.03390
791.0412, 27.84351
791.5233, 27.53490
792.0054, 27.42500
792.4875, 27.51918
792.9697, 27.57992
793.4518, 27.44406
793.9339, 27.26473
794.4160, 27.34793
794.8981, 27.60856
795.3802, 27.76356
795.8624, 27.52802
796.3445, 27.30494
796.8266, 27.30083
797.3087, 27.48229
797.7908, 27.65348
798.2729, 27.87343
798.7551, 27.95208
799.2372, 27.78498
799.7193, 27.45843
800.2014, 27.26859
800.6835, 27.21235
801.1656, 27.24236
801.6478, 27.39627
802.1299, 27.57765
802.6120, 27.68174
803.0941, 27.71942
803.5762, 27.72691
804.0583, 27.74783
804.5405, 27.70984
805.0226, 27.49312
805.5047, 27.17971
805.9868, 27.13319
806.4689, 27.46965
806.9510, 27.70939
807.4332, 27.66037
807.9153, 27.42253
808.3974, 27.23825
808.8795, 27.11227
809.3616, 27.07133
809.8438, 27.22584
810.3259, 27.39036
810.8080, 27.36494
811.2901, 27.21780
811.7722, 27.17343
812.2543, 27.38406
812.7365, 27.60464
813.2186, 27.83465
813.7007, 28.02197
814.1828, 27.91347
814.6649, 27.45642
815.1470, 27.11923
815.6292, 27.11888
816.1113, 27.29742
816.5934, 27.36960
817.0755, 27.36898
817.5576, 27.40631
818.0397, 27.56960
818.5219, 27.74966
819.0040, 27.93973
819.4861, 28.10678
819.9682, 28.13647
820.4503, 27.95972
820.9324, 27.75653
821.4146, 27.52362
821.8967, 27.32230
822.3788, 27.36805
822.8609, 27.64266
823.3430, 27.87304
823.8251, 27.96783
824.3073, 27.95621
824.7894, 27.82035
825.2715, 27.61100
825.7536, 27.43232
826.2357, 27.34931
826.7178, 27.27406
827.2000, 27.13817
827.6821, 27.00609
828.1642, 27.01209
828.6463, 27.19107
829.1284, 27.39957
829.6105, 27.64277
830.0927, 27.84680
830.5748, 27.84122
831.0569, 27.67862
831.5390, 27.53705
832.0211, 27.46403
832.5032, 27.45087
832.9854, 27.54967
833.4675, 27.68740
833.9496, 27.75089
834.4317, 27.58891
834.9138, 27.53767
835.3959, 27.68497
835.8781, 27.88845
836.3602, 27.89790
836.8423, 27.71405
837.3244, 27.65727
837.8065, 27.83805
838.2886, 27.99377
838.7708, 27.64914
839.2529, 27.11390
839.7350, 26.92584
840.2171, 27.45448
840.6992, 27.88818
841.1813, 27.86665
841.6635, 27.67407
842.1456, 27.62249
842.6277, 27.79358
843.1098, 27.84041
843.5919, 27.71300
844.0740, 27.54494
844.5562, 27.51965
845.0383, 27.58449
845.5204, 27.56338
846.0025, 27.41322
846.4846, 27.29592
846.9667, 27.37166
847.4489, 27.51040
847.9310, 27.58635
848.4131, 27.54965
848.8952, 27.54362
849.3773, 27.62245
849.8594, 27.66199
850.3416, 27.53615
850.8237, 27.25073
851.3058, 27.03921
851.7879, 26.90743
852.2700, 26.86395
852.7521, 26.92527
853.2343, 27.06969
853.7164, 27.33643
854.1985, 27.73460
854.6806, 27.95769
855.1627, 27.71076
855.6448, 27.43969
856.1270, 27.38354
856.6091, 27.54757
857.0912, 27.62695
857.5733, 27.60942
858.0554, 27.57123
858.5375, 27.59916
859.0197, 27.62836
859.5018, 27.46900
859.9839, 27.15470
860.4660, 26.89135
860.9481, 26.77826
861.4302, 26.76033
861.9124, 26.84600
862.3945, 27.02056
862.8766, 27.14246
863.3587, 27.20674
863.8408, 27.22278
864.3229, 27.17894
864.8051, 27.09864
865.2872, 27.02941
865.7693, 26.97959
866.2514, 27.00260
866.7335, 27.18249
867.2156, 27.38760
867.6978, 27.54597
868.1799, 27.64850
868.6620, 27.67615
869.1441, 27.55508
869.6262, 27.44419
870.1083, 27.35954
870.5905, 27.29860
871.0726, 27.26368
871.5547, 27.25355
872.0368, 27.24216
872.5189, 27.23413
873.0010, 27.19248
873.4832, 27.01035
873.9653, 26.78239
874.4474, 26.66682
874.9295, 26.75990
875.4116, 26.87568
875.8937, 27.03236
876.3759, 27.15160
876.8580, 27.12969
877.3401, 26.92230
877.8222, 26.84525
878.3043, 26.94730
878.7864, 27.05901
879.2686, 26.97506
879.7507, 26.78086
880.2328, 26.60714
880.7149, 26.46460
881.1970, 26.42965
881.6791, 26.69355
882.1613, 26.95950
882.6434, 26.98176
883.1255, 26.70537
883.6076, 26.62489
884.0897, 26.79875
884.5718, 26.98073
885.0540, 27.01039
885.5361, 26.91676
886.0182, 26.71708
886.5003, 26.44149
886.9824, 26.32848
887.4645, 26.74669
887.9467, 27.17274
888.4288, 27.22634
888.9109, 26.93534
889.3930, 26.79691
889.8751, 26.89407
890.3572, 26.99636
890.8394, 27.03564
891.3215, 27.02702
891.8036, 26.99493
892.2857, 26.94719
892.7678, 26.92657
893.2499, 26.99027
893.7321, 27.04214
894.2142, 26.97708
894.6963, 26.85563
895.1784, 26.79469
895.6605, 26.84892
896.1426, 26.92078
896.6248, 27.01610
897.1069, 27.11073
897.5890, 27.18139
898.0711, 27.22476
898.5532, 27.17504
899.0353, 26.99148
899.5175, 26.85335
899.9996, 27.05624
900.4817, 27.33801
900.9638, 27.34955
901.4459, 26.85934
901.9280, 26.60415
902.4102, 26.76233
902.8923, 27.04285
903.3744, 27.28348
903.8565, 27.48761
904.3386, 27.50802
904.8207, 27.33777
905.3029, 27.18707
905.7850, 27.29784
906.2671, 27.46736
906.7492, 27.42913
907.2313, 27.19149
907.7134, 27.05780
908.1956, 27.24038
908.6777, 27.40402
909.1598, 27.41595
909.6419, 27.32058
910.1240, 27.36716
910.6061, 27.55905
911.0883, 27.68008
911.5704, 27.58756
912.0525, 27.43483
912.5346, 27.36609
913.0167, 27.39435
913.4988, 27.54786
913.9810, 28.07881
914.4631, 28.42599
914.9452, 28.40991
915.4273, 28.20284
915.9094, 28.00792
916.3915, 27.81792
916.8737, 27.78067
917.3558, 27.94247
917.8379, 28.14336
918.3200, 28.23742
918.8021, 28.23867
919.2842, 28.13877
919.7664, 27.89942
920.2485, 27.73761
920.7306, 27.73913
921.2127, 27.82846
921.6948, 27.99329
922.1769, 28.24886
922.6591, 28.32947
923.1412, 28.21993
923.6233, 28.08514
924.1054, 28.07504
924.5875, 28.08977
925.0696, 27.93614
925.5518, 27.65420
926.0339, 27.47927
926.5160, 27.64686
926.9981, 27.77595
927.4802, 27.67729
927.9623, 27.46258
928.4445, 27.51843
928.9266, 27.87346
929.4087, 28.15452
929.8908, 28.25825
930.3729, 28.22778
930.8550, 28.00879
931.3372, 27.72511
931.8193, 27.61497
932.3014, 27.93283
932.7835, 28.12088
933.2656, 27.93209
933.7477, 27.65027
934.2299, 27.52014
934.7120, 27.55423
935.1941, 27.66657
935.6762, 27.86944
936.1583, 28.00546
936.6404, 27.80730
937.1226, 27.51629
937.6047, 27.50780
938.0868, 27.81391
938.5689, 28.00233
939.0510, 27.79147
939.5331, 27.58776
940.0153, 27.57550
940.4974, 27.71129
940.9795, 27.66412
941.4616, 27.42980
941.9437, 27.24302
942.4258, 27.23428
942.9080, 27.30408
943.3901, 27.37248
943.8722, 27.42501
944.3543, 27.43050
944.8364, 27.35122
945.3185, 27.25667
945.8007, 27.12160
946.2828, 27.01108
946.7649, 27.03007
947.2470, 27.17496
947.7291, 27.28275
948.2112, 27.32150
948.6934, 27.39949
949.1755, 27.73938
949.6576, 28.10633
950.1397, 28.22966
950.6218, 28.03623
951.1039, 27.81640
951.5861, 27.55019
952.0682, 27.35186
952.5503, 27.30172
953.0324, 27.37316
953.5145, 27.36261
953.9966, 27.28063
954.4788, 27.25259
954.9609, 27.41489
955.4430, 27.60109
955.9251, 27.67659
956.4072, 27.67127
956.8893, 27.66703
957.3715, 27.69275
957.8536, 27.68911
958.3357, 27.63738
958.8178, 27.57003
959.2999, 27.53714
959.7820, 27.53381
960.2642, 27.55242
960.7463, 27.60330
961.2284, 27.60500
961.7105, 27.38276
962.1926, 27.16230
962.6747, 27.18751
963.1569, 27.56779
963.6390, 27.70427
964.1211, 27.51198
964.6032, 27.30862
965.0853, 27.27878
965.5674, 27.39031
966.0496, 27.65868
966.5317, 28.01987
967.0138, 28.17759
967.4959, 27.74339
967.9780, 27.30912
968.4601, 27.12400
968.9423, 27.15760
969.4244, 27.38065
969.9065, 27.89490
970.3886, 28.14316
970.8707, 27.97592
971.3528, 27.68394
971.8350, 27.66241
972.3171, 27.79478
972.7992, 27.86864
973.2813, 27.83472
973.7634, 27.78207
974.2455, 27.76100
974.7277, 27.71266
975.2098, 27.58069
975.6919, 27.36268
976.1740, 27.24277
976.6561, 27.22078
977.1382, 27.30010
977.6204, 27.54270
978.1025, 27.84606
978.5846, 28.17912
979.0667, 28.47508
979.5488, 28.54526
980.0309, 28.03691
980.5131, 27.68329
980.9952, 27.62949
981.4773, 27.75033
981.9594, 27.87975
982.4415, 28.00867
982.9236, 28.05227
983.4058, 27.98399
983.8879, 27.89780
984.3700, 27.84020
984.8521, 27.82361
985.3342, 27.87466
985.8163, 28.01938
986.2985, 28.10871
986.7806, 28.12786
987.2627, 28.12544
987.7448, 28.15064
988.2269, 28.16500
988.7090, 27.95023
989.1912, 27.59063
989.6733, 27.43764
990.1554, 27.96516
990.6375, 28.41754
991.1196, 28.36456
991.6017, 28.02264
992.0839, 27.75044
992.5660, 27.53662
993.0481, 27.45236
993.5302, 27.51814
994.0123, 27.66418
994.4944, 27.85167
994.9766, 28.04807
995.4587, 28.22692
995.9408, 28.38778
996.4229, 28.42498
996.9050, 28.10564
997.3871, 27.86809
997.8693, 27.93799
998.3514, 28.24868
998.8335, 28.38928
999.3156, 28.36856
999.7977, 28.34342
1000.280, 28.38590
1000.762, 28.45062
1001.244, 28.52101
1001.726, 28.57829
1002.208, 28.58930
1002.690, 28.50138
1003.173, 28.44873
1003.655, 28.43938
1004.137, 28.45836
1004.619, 28.52311
1005.101, 28.60327
1005.583, 28.54030
1006.065, 28.33538
1006.547, 28.23599
1007.029, 28.54683
1007.512, 28.85638
1007.994, 28.87504
1008.476, 28.67669
1008.958, 28.59643
1009.440, 28.65335
1009.922, 28.70694
1010.404, 28.71075
1010.886, 28.70146
1011.369, 28.78637
1011.851, 28.87777
1012.333, 28.80840
1012.815, 28.42338
1013.297, 28.14985
1013.779, 28.07790
1014.261, 28.11428
1014.743, 28.22915
1015.225, 28.41651
1015.708, 28.54502
1016.190, 28.61389
1016.672, 28.60607
1017.154, 28.44995
1017.636, 28.26916
1018.118, 28.10826
1018.600, 27.69502
1019.082, 28.08089
1019.565, 28.28862
1020.047, 28.32788
1020.529, 27.69388
1021.011, 27.92926
1021.493, 27.81623
1021.975, 27.68891
1022.457, 28.04664
1022.939, 27.51057
1023.421, 27.86061
1023.904, 27.85689
1024.386, 28.01509
1024.868, 27.82275
1025.350, 27.73868
1025.832, 28.00527
1026.314, 28.07771
1026.796, 27.84501
1027.278, 28.01351
1027.760, 27.46519
1028.243, 27.54585
1028.725, 27.89794
1029.207, 27.68287
1029.689, 27.85778
1030.171, 27.88416
1030.653, 27.23555
1031.135, 27.76082
1031.617, 27.77843
1032.100, 27.26024
1032.582, 27.13045
1033.064, 27.05390
1033.546, 26.99858
1034.028, 26.89039
1034.510, 26.85982
1034.992, 27.03738
1035.474, 27.32741
1035.957, 27.44548
1036.439, 27.38444
1036.921, 27.29305
1037.403, 27.18775
1037.885, 27.12827
1038.367, 27.25547
1038.849, 27.43196
1039.331, 27.47345
1039.813, 27.31025
1040.296, 27.16437
1040.778, 27.00397
1041.260, 26.96142
1041.742, 27.21862
1042.224, 27.61239
1042.706, 27.46584
1043.188, 26.92553
1043.670, 26.55412
1044.152, 26.82941
1044.635, 27.09291
1045.117, 26.98558
1045.599, 26.76653
1046.081, 26.80039
1046.563, 27.14289
1047.045, 27.24684
1047.527, 27.05511
1048.009, 26.88740
1048.492, 27.19403
1048.974, 27.55746
1049.456, 27.43210
1049.938, 26.85028
1050.420, 26.56484
1050.902, 26.79675
1051.384, 27.03067
1051.866, 27.15267
1052.349, 27.19415
1052.831, 27.19456
1053.313, 27.16477
1053.795, 27.14428
1054.277, 27.15882
1054.759, 27.11456
1055.241, 26.81066
1055.723, 26.58124
1056.205, 26.70485
1056.688, 27.16505
1057.170, 27.22844
1057.652, 26.89465
1058.134, 26.65991
1058.616, 26.89455
1059.098, 27.22189
1059.580, 27.35254
1060.062, 27.31010
1060.544, 27.11620
1061.027, 26.54952
1061.509, 26.33607
1061.991, 26.59521
1062.473, 26.94648
1062.955, 27.01604
1063.437, 26.90667
1063.919, 26.79432
1064.401, 26.70305
1064.884, 26.71913
1065.366, 27.01202
1065.848, 27.26476
1066.330, 27.40012
1066.812, 27.42049
1067.294, 27.26671
1067.776, 26.96619
1068.258, 26.80129
1068.740, 26.84229
1069.223, 26.96515
1069.705, 27.22197
1070.187, 27.40801
1070.669, 27.27117
1071.151, 26.78210
1071.633, 26.54359
1072.115, 26.59201
1072.597, 26.71008
1073.079, 26.83117
1073.562, 26.92901
1074.044, 26.93810
1074.526, 26.90131
1075.008, 26.89973
1075.490, 26.98532
1075.972, 27.05899
1076.454, 27.12149
1076.936, 27.15640
1077.419, 27.13925
1077.901, 27.08241
1078.383, 27.05064
1078.865, 27.03829
1079.347, 27.00344
1079.829, 26.89705
1080.311, 26.79099
1080.793, 26.71376
1081.275, 26.65891
1081.758, 26.60246
1082.240, 26.53818
1082.722, 26.60328
1083.204, 26.82867
1083.686, 27.04686
1084.168, 27.10507
1084.650, 27.09461
1085.132, 27.10011
1085.615, 27.12550
1086.097, 27.11057
1086.579, 27.04041
1087.061, 26.98072
1087.543, 26.96584
1088.025, 26.61539
1088.507, 27.02467
1088.989, 27.25586
1089.471, 27.31853
1089.953, 26.70795
1090.436, 26.96674
1090.918, 26.87712
1091.400, 26.77322
1091.882, 27.15437
1092.364, 26.64171
1092.846, 27.01516
1093.328, 27.03490
1093.810, 27.21652
1094.293, 27.04759
1094.775, 26.98694
1095.257, 27.27695
1095.739, 27.37279
1096.221, 27.16350
1096.703, 27.35542
1097.185, 26.83051
1097.667, 26.93463
1098.150, 27.31014
1098.632, 27.11847
1099.114, 27.31680
1099.596, 27.36659
1100.078, 26.74140
1100.560, 27.29008
1101.042, 27.33110
1101.524, 26.85085
1102.006, 27.35932
1102.489, 26.95094
1102.971, 26.86981
1103.453, 27.03497
1103.935, 26.94339
1104.417, 27.25659
1104.899, 27.17983
1105.381, 27.06823
1105.863, 27.10868
1106.345, 26.71828
1106.828, 27.12720
1107.310, 26.99011
1107.792, 27.12443
1108.274, 27.32026
1108.756, 27.16956
1109.238, 27.28647
1109.720, 27.27773
1110.202, 27.21375
1110.685, 27.11467
1111.167, 26.99323
1111.649, 26.95868
1112.131, 27.00485
1112.613, 27.07370
1113.095, 27.14631
1113.577, 27.22191
1114.059, 27.31409
1114.542, 27.39911
1115.024, 27.44681
1115.506, 27.44901
1115.988, 27.46581
1116.470, 27.50209
1116.952, 27.50302
1117.434, 27.39050
1117.916, 27.25689
1118.398, 27.24590
1118.880, 27.28894
1119.363, 27.20357
1119.845, 26.80929
1120.327, 26.63942
1120.809, 26.77148
1121.291, 26.99697
1121.773, 27.13556
1122.255, 27.21183
1122.737, 27.25444
1123.220, 27.27113
1123.702, 27.29538
1124.184, 27.32735
1124.666, 27.38675
1125.148, 27.48877
1125.630, 27.60258
1126.112, 27.70765
1126.594, 27.78192
1127.077, 27.74269
1127.559, 27.57515
1128.041, 27.38465
1128.523, 27.12144
1129.005, 26.96624
1129.487, 27.02015
1129.969, 27.21819
1130.451, 27.37733
1130.933, 27.49834
1131.416, 27.58282
1131.898, 27.62954
1132.380, 27.64907
1132.862, 27.62986
1133.344, 27.60106
1133.826, 27.58038
1134.308, 27.56873
1134.790, 27.58260
1135.272, 27.62215
1135.755, 27.69870
1136.237, 27.85115
1136.719, 27.98325
1137.201, 27.99177
1137.683, 27.93233
1138.165, 27.86253
1138.647, 27.76604
1139.129, 27.78103
1139.612, 27.92826
1140.094, 28.04912
1140.576, 27.98411
1141.058, 27.88626
1141.540, 28.00209
1142.022, 28.22462
1142.504, 28.32103
1142.986, 28.10951
1143.469, 28.04972
1143.951, 28.19049
1144.433, 28.36582
1144.915, 28.44100
1145.397, 28.44918
1145.879, 28.44800
1146.361, 28.43576
1146.843, 28.39735
1147.325, 28.22080
1147.807, 28.19139
1148.290, 28.40095
1148.772, 28.66031
1149.254, 28.71019
1149.736, 28.63338
1150.218, 28.65166
1150.700, 28.77500
1151.182, 28.90298
1151.664, 29.05047
1152.147, 29.11443
1152.629, 29.04813
1153.111, 28.90957
1153.593, 28.75070
1154.075, 28.60967
1154.557, 28.67215
1155.039, 28.97713
1155.521, 29.27546
1156.004, 29.50022
1156.486, 29.59671
1156.968, 29.49170
1157.450, 29.27950
1157.932, 29.25826
1158.414, 29.40781
1158.896, 29.60269
1159.378, 29.83281
1159.860, 30.00063
1160.343, 29.99442
1160.825, 29.94208
1161.307, 29.92602
1161.789, 29.94626
1162.271, 30.00247
1162.753, 30.09327
1163.235, 30.19006
1163.717, 30.28874
1164.199, 30.37486
1164.682, 30.44692
1165.164, 30.48953
1165.646, 30.46096
1166.128, 30.35178
1166.610, 30.41862
1167.092, 30.66987
1167.574, 30.84004
1168.056, 30.72723
1168.539, 30.58215
1169.021, 30.60202
1169.503, 30.74522
1169.985, 30.98270
1170.467, 31.35607
1170.949, 31.59913
1171.431, 31.71016
1171.913, 31.69507
1172.396, 31.42634
1172.878, 31.15186
1173.360, 31.14585
1173.842, 31.31933
1174.324, 31.50889
1174.806, 31.71086
1175.288, 31.89643
1175.770, 32.07966
1176.252, 32.16053
1176.734, 31.94150
1177.217, 31.66281
1177.699, 31.64173
1178.181, 31.80947
1178.663, 31.95857
1179.145, 32.07275
1179.627, 32.13056
1180.109, 32.12498
1180.591, 32.08490
1181.074, 32.00499
1181.556, 31.92933
1182.038, 31.92681
1182.520, 31.98845
1183.002, 32.05685
1183.484, 32.14520
1183.966, 32.19603
1184.448, 32.20470
1184.931, 32.16964
1185.413, 32.05620
1185.895, 31.91382
1186.377, 31.80395
1186.859, 31.73596
1187.341, 31.75686
1187.823, 31.97516
1188.305, 32.05854
1188.787, 31.89570
1189.270, 31.69344
1189.752, 31.77857
1190.234, 32.00445
1190.716, 32.13684
1191.198, 32.15010
1191.680, 32.07981
1192.162, 31.87427
1192.644, 31.70859
1193.126, 31.64527
1193.609, 31.59895
1194.091, 31.37394
1194.573, 31.08899
1195.055, 30.97497
1195.537, 31.07223
1196.019, 31.20909
1196.501, 31.42312
1196.983, 31.52900
1197.466, 31.43761
1197.948, 31.26409
1198.430, 31.21397
1198.912, 31.24093
1199.394, 31.25073
1199.876, 31.22018
1200.358, 31.21396
1200.840, 31.25636
1201.323, 31.29953
1201.805, 31.31371
1202.287, 31.33574
1202.769, 31.51445
1203.251, 31.74302
1203.733, 31.75255
1204.215, 31.40295
1204.697, 31.23645
1205.179, 31.49309
1205.661, 31.63992
1206.144, 31.35066
1206.626, 30.90881
1207.108, 31.05068
1207.590, 31.52577
1208.072, 31.77329
1208.554, 31.54507
1209.036, 31.41800
1209.518, 31.53253
1210.001, 31.64344
1210.483, 31.60614
1210.965, 31.50126
1211.447, 31.55680
1211.929, 31.69212
1212.411, 31.71579
1212.893, 31.48154
1213.375, 31.39260
1213.858, 31.55364
1214.340, 31.73211
1214.822, 31.83898
1215.304, 31.84208
1215.786, 31.53657
1216.268, 31.08848
1216.750, 30.90087
1217.232, 31.33658
1217.714, 31.47221
1218.197, 31.09206
1218.679, 30.74217
1219.161, 30.82919
1219.643, 31.14259
1220.125, 31.24557
1220.607, 31.20947
1221.089, 31.20371
1221.571, 31.34897
1222.053, 31.38780
1222.536, 31.29836
1223.018, 31.13063
1223.500, 30.83716
1223.982, 30.53970
1224.464, 30.55853
1224.946, 30.75834
1225.428, 30.83058
1225.910, 30.52619
1226.393, 30.36640
1226.875, 30.38813
1227.357, 30.46457
1227.839, 30.53900
1228.321, 30.58615
1228.803, 30.57760
1229.285, 30.50734
1229.767, 30.35413
1230.250, 29.97767
1230.732, 29.80943
1231.214, 29.89582
1231.696, 30.02776
1232.178, 30.06602
1232.660, 30.03831
1233.142, 29.91403
1233.624, 29.76406
1234.106, 29.76890
1234.589, 30.05614
1235.071, 30.23296
1235.553, 30.29463
1236.035, 30.22201
1236.517, 29.82947
1236.999, 29.43449
1237.481, 29.51645
1237.963, 29.85929
1238.445, 29.94299
1238.928, 29.62190
1239.410, 29.45545
1239.892, 29.47698
1240.374, 29.50611
1240.856, 29.32841
1241.338, 29.16654
1241.820, 29.27648
1242.302, 29.53866
1242.785, 29.70407
1243.267, 29.76577
1243.749, 29.73010
1244.231, 29.59595
1244.713, 29.40335
1245.195, 29.04660
1245.677, 28.77847
1246.159, 28.90249
1246.641, 29.20518
1247.124, 29.29050
1247.606, 29.13900
1248.088, 28.95195
1248.570, 28.74293
1249.052, 28.67634
1249.534, 29.08265
1250.016, 29.42477
1250.498, 29.22751
1250.980, 28.86220
1251.463, 28.86046
1251.945, 29.21472
1252.427, 29.36429
1252.909, 29.29778
1253.391, 29.14696
1253.873, 28.90845
1254.355, 28.70333
1254.837, 28.54943
1255.320, 28.48661
1255.802, 28.61625
1256.284, 28.89570
1256.766, 29.06119
1257.248, 29.10839
1257.730, 29.09533
1258.212, 29.05175
1258.694, 28.93821
1259.177, 28.67618
1259.659, 28.44594
1260.141, 28.48730
1260.623, 28.71027
1261.105, 28.81058
1261.587, 28.80012
1262.069, 28.79062
1262.551, 28.88667
1263.033, 28.88578
1263.516, 28.72930
1263.998, 28.54880
1264.480, 28.46149
1264.962, 28.44863
1265.444, 28.49716
1265.926, 28.58766
1266.408, 28.65598
1266.890, 28.66576
1267.372, 28.69831
1267.855, 28.77476
1268.337, 28.81763
1268.819, 28.68513
1269.301, 28.53201
1269.783, 28.64568
1270.265, 28.91148
1270.747, 28.98838
1271.229, 28.77353
1271.712, 28.59889
1272.194, 28.47025
1272.676, 28.44415
1273.158, 28.68056
1273.640, 28.93064
1274.122, 28.88351
1274.604, 28.71065
1275.086, 28.77635
1275.568, 29.15494
1276.051, 29.29756
1276.533, 29.18851
1277.015, 29.03382
1277.497, 28.90332
1277.979, 28.84286
1278.461, 28.97063
1278.943, 29.12508
1279.425, 29.09617
1279.907, 28.88770
1280.390, 28.69548
1280.872, 28.53188
1281.354, 28.46537
1281.836, 28.73193
1282.318, 28.83556
1282.800, 28.41803
1283.282, 27.97168
1283.764, 27.97651
1284.247, 28.32107
1284.729, 28.45158
1285.211, 28.41465
1285.693, 28.39428
1286.175, 28.50024
1286.657, 28.57272
1287.139, 28.57702
1287.621, 28.57944
1288.104, 28.66317
1288.586, 28.76229
1289.068, 28.72777
1289.550, 28.59823
1290.032, 28.46104
1290.514, 28.29708
1290.996, 28.21543
1291.478, 28.22371
1291.960, 28.28617
1292.443, 28.42178
1292.925, 28.55587
1293.407, 28.61220
1293.889, 28.59731
1294.371, 28.50552
1294.853, 28.32370
1295.335, 28.16967
1295.817, 28.04217
1296.299, 27.95513
1296.782, 27.91646
1297.264, 27.91877
1297.746, 28.04321
1298.228, 28.13343
1298.710, 28.01231
1299.192, 27.70120
1299.674, 27.56412
1300.156, 27.56872
1300.639, 27.47292
1301.121, 27.05030
1301.603, 26.81140
1302.085, 27.17947
1302.567, 27.62005
1303.049, 27.89679
1303.531, 28.00281
##END=



