##NAMES=Chalcophanite
##RRUFFID=R060271
##IDEAL CHEMISTRY=Zn^2+^Mn^4+^_3_O_7_&#183;3H_2_O
##LOCALITY=&#34;Glory Hole&#34;, Gold Hill mine, Tooele County, Utah, USA
##OWNER=RRUFF
##SOURCE=Michael Scott
##DESCRIPTION=Black hexagonal plates
##STATUS=The identification of this mineral has been confirmed by X-ray diffraction and chemical analysis
##URL=rruff.info/R060271
##MEASURED CHEMISTRY=(Zn_0.97_Mn^2+^_0.03_)_Σ=1_Mn^4+^_3.00_O_7_·3(H_2_O)
91.11523, 5.800811
91.59735, 6.194144
92.07947, 6.037971
92.56158, 5.421341
93.04370, 4.618907
93.52582, 3.453167
94.00793, 2.234716
94.49006, 1.896027
94.97218, 2.852884
95.45429, 3.971644
95.93641, 2.939526
96.41853, -0.1805643
96.90064, -2.813559
97.38276, -2.498297
97.86488, 0.4350274
98.34699, 2.178312
98.82911, 1.682855
99.31123, -0.1772142
99.79334, -0.3297013
100.2755, 1.575534
100.7576, 3.980236
101.2397, 5.625326
101.7218, 6.512748
102.2039, 6.624168
102.6861, 5.595284
103.1682, 3.440372
103.6503, 2.610592
104.1324, 3.749563
104.6145, 5.493241
105.0966, 6.189548
105.5788, 5.338295
106.0609, 4.279833
106.5430, 3.272671
107.0251, 2.203261
107.5072, 1.581760
107.9893, 1.743569
108.4715, 2.267390
108.9536, 2.382209
109.4357, 0.9626561
109.9178, 0.1432477
110.3999, 0.7768495
110.8820, 4.812577
111.3642, 7.086274
111.8463, 5.988417
112.3284, 2.827696
112.8105, 1.225598
113.2926, 3.059418
113.7747, 5.587119
114.2569, 7.414560
114.7390, 7.878918
115.2211, 8.156269
115.7032, 8.542902
116.1853, 8.977904
116.6674, 9.151646
117.1496, 8.839952
117.6317, 8.278845
118.1138, 7.668745
118.5959, 6.429556
119.0780, 5.688424
119.5602, 6.281133
120.0423, 8.145391
120.5244, 9.936027
121.0065, 10.97376
121.4886, 11.47128
121.9707, 11.70987
122.4529, 11.73158
122.9350, 11.58252
123.4171, 11.12511
123.8992, 10.30781
124.3813, 9.781211
124.8634, 10.22166
125.3456, 11.36966
125.8277, 12.64149
126.3098, 13.71335
126.7919, 14.73140
127.2740, 15.92273
127.7561, 17.32884
128.2383, 18.81353
128.7204, 20.44072
129.2025, 22.11272
129.6846, 23.31698
130.1667, 23.58117
130.6488, 23.11051
131.1310, 22.38259
131.6131, 21.20579
132.0952, 20.24153
132.5773, 21.05147
133.0594, 23.67376
133.5415, 26.28028
134.0237, 27.65943
134.5058, 27.85806
134.9879, 27.45700
135.4700, 26.20181
135.9521, 24.61002
136.4343, 24.71570
136.9164, 27.00293
137.3985, 29.00085
137.8806, 28.15497
138.3627, 23.91008
138.8448, 20.62611
139.3270, 19.29778
139.8091, 19.69557
140.2912, 19.62280
140.7733, 18.84334
141.2554, 18.00809
141.7375, 17.98039
142.2197, 19.33329
142.7018, 19.91701
143.1839, 18.94648
143.6660, 16.26384
144.1481, 14.50609
144.6302, 13.87797
145.1124, 14.01907
145.5945, 14.54615
146.0766, 15.75061
146.5587, 16.91601
147.0408, 17.96335
147.5230, 19.05063
148.0051, 19.35796
148.4872, 18.00647
148.9693, 16.04968
149.4514, 15.33285
149.9335, 17.42640
150.4157, 19.07415
150.8978, 19.11327
151.3799, 15.88266
151.8620, 14.58813
152.3441, 16.91982
152.8262, 20.97615
153.3084, 23.13054
153.7905, 21.64499
154.2726, 19.59957
154.7547, 18.00811
155.2368, 16.83378
155.7189, 16.33505
156.2011, 17.12750
156.6832, 18.65046
157.1653, 19.49991
157.6474, 18.73646
158.1295, 17.71979
158.6116, 17.11204
159.0938, 16.95839
159.5759, 17.29177
160.0580, 18.59942
160.5401, 20.51987
161.0222, 21.81171
161.5044, 21.69938
161.9865, 21.04472
162.4686, 20.43248
162.9507, 20.12844
163.4328, 19.75108
163.9149, 18.88150
164.3971, 17.68015
164.8792, 16.99899
165.3613, 17.57335
165.8434, 18.69193
166.3255, 19.71224
166.8076, 20.42600
167.2898, 20.98284
167.7719, 21.58155
168.2540, 22.18190
168.7361, 22.40611
169.2182, 21.32885
169.7003, 19.95332
170.1825, 19.47883
170.6646, 20.97211
171.1467, 23.09712
171.6288, 25.08813
172.1109, 26.91313
172.5931, 28.16818
173.0752, 27.87063
173.5573, 26.88875
174.0394, 26.62981
174.5215, 28.32303
175.0036, 30.68452
175.4858, 32.43367
175.9679, 33.57436
176.4500, 34.09118
176.9321, 33.47320
177.4142, 32.19953
177.8963, 31.37410
178.3785, 32.19422
178.8606, 33.51006
179.3427, 33.38531
179.8248, 31.71370
180.3069, 29.55161
180.7890, 27.81847
181.2712, 26.46129
181.7533, 25.34026
182.2354, 24.52068
182.7175, 23.87891
183.1996, 23.24670
183.6818, 22.64607
184.1639, 21.85889
184.6460, 20.32441
185.1281, 18.23012
185.6102, 16.48884
186.0923, 15.77065
186.5745, 15.78342
187.0566, 15.53784
187.5387, 14.88958
188.0208, 14.34981
188.5029, 14.86554
188.9850, 16.33494
189.4672, 17.54734
189.9493, 17.79814
190.4314, 17.24089
190.9135, 16.61385
191.3956, 15.89459
191.8777, 15.26509
192.3599, 14.96180
192.8420, 14.98676
193.3241, 15.30688
193.8062, 16.19753
194.2883, 17.56389
194.7704, 18.15817
195.2526, 17.78860
195.7347, 16.87035
196.2168, 15.99200
196.6989, 15.12633
197.1810, 14.61698
197.6632, 14.90084
198.1453, 15.97649
198.6274, 16.41449
199.1095, 15.96496
199.5916, 15.09004
200.0737, 14.69561
200.5559, 14.79562
201.0380, 15.24871
201.5201, 16.16150
202.0022, 17.60605
202.4843, 18.53939
202.9664, 18.73895
203.4486, 18.56824
203.9307, 18.99560
204.4128, 20.21991
204.8949, 21.22452
205.3770, 21.28201
205.8591, 20.20281
206.3413, 19.58400
206.8234, 19.63342
207.3055, 20.09670
207.7876, 20.22554
208.2697, 19.81191
208.7519, 19.68416
209.2340, 20.55014
209.7161, 22.79648
210.1982, 23.99669
210.6803, 23.70000
211.1624, 22.46368
211.6446, 21.72214
212.1267, 21.43075
212.6088, 21.75570
213.0909, 23.03497
213.5730, 25.72512
214.0551, 27.53049
214.5373, 27.99936
215.0194, 27.65633
215.5015, 28.12268
215.9836, 29.84460
216.4657, 31.47134
216.9478, 32.24401
217.4300, 31.81132
217.9121, 31.63732
218.3942, 31.74360
218.8763, 32.15656
219.3584, 33.21159
219.8405, 35.70936
220.3227, 37.35278
220.8048, 36.74689
221.2869, 32.90638
221.7690, 29.61027
222.2511, 27.01010
222.7333, 25.03169
223.2154, 23.53841
223.6975, 22.50954
224.1796, 21.97522
224.6617, 22.10941
225.1438, 23.46023
225.6260, 23.99413
226.1081, 23.39492
226.5902, 22.01982
227.0723, 20.85774
227.5544, 19.82792
228.0365, 19.11892
228.5187, 18.86754
229.0008, 19.30280
229.4829, 19.66033
229.9650, 20.05280
230.4471, 20.32781
230.9292, 19.99943
231.4114, 18.55386
231.8935, 17.28160
232.3756, 16.85891
232.8577, 17.90026
233.3398, 18.26003
233.8220, 17.51792
234.3041, 16.22968
234.7862, 15.82553
235.2683, 16.77029
235.7504, 17.87987
236.2325, 18.78823
236.7147, 19.75049
237.1968, 19.72383
237.6789, 18.08564
238.1610, 15.70750
238.6431, 14.56917
239.1252, 15.31029
239.6074, 16.28697
240.0895, 16.85675
240.5716, 16.79424
241.0537, 17.00281
241.5358, 17.77569
242.0179, 18.67898
242.5001, 18.77041
242.9822, 17.44338
243.4643, 16.29160
243.9464, 15.96140
244.4285, 16.81597
244.9106, 17.31350
245.3928, 17.48745
245.8749, 17.28947
246.3570, 16.50390
246.8391, 14.48930
247.3212, 12.99332
247.8034, 12.67798
248.2855, 13.83934
248.7676, 15.00426
249.2497, 16.41480
249.7318, 17.66369
250.2139, 18.02049
250.6961, 16.85864
251.1782, 15.95928
251.6603, 15.95663
252.1424, 17.08341
252.6245, 17.71951
253.1066, 17.75536
253.5888, 17.40776
254.0709, 16.87518
254.5530, 15.88729
255.0351, 15.28663
255.5172, 15.49801
255.9993, 16.66913
256.4815, 17.02052
256.9636, 16.19980
257.4457, 14.93468
257.9278, 14.00982
258.4099, 13.44559
258.8921, 13.19451
259.3742, 13.38744
259.8563, 14.03641
260.3384, 14.16777
260.8205, 13.49945
261.3026, 12.68775
261.7848, 12.43591
262.2669, 12.99603
262.7490, 13.43250
263.2311, 13.58885
263.7132, 13.46818
264.1953, 12.97714
264.6775, 11.81807
265.1596, 10.77788
265.6417, 10.61895
266.1238, 11.58172
266.6059, 12.63753
267.0880, 13.81394
267.5702, 14.98579
268.0523, 15.00189
268.5344, 13.27852
269.0165, 11.60176
269.4986, 11.59009
269.9807, 13.80338
270.4629, 15.15236
270.9450, 15.04609
271.4271, 13.83274
271.9092, 12.78086
272.3913, 11.78144
272.8734, 11.25207
273.3556, 11.69746
273.8377, 13.32933
274.3198, 14.47950
274.8019, 14.98280
275.2840, 14.92651
275.7661, 14.33526
276.2483, 12.98991
276.7304, 12.02441
277.2125, 12.43071
277.6946, 14.35523
278.1768, 15.46407
278.6589, 15.51726
279.1410, 14.82412
279.6231, 13.76753
280.1052, 12.21740
280.5873, 11.12043
281.0695, 11.31850
281.5516, 12.78527
282.0337, 13.24082
282.5158, 12.34593
282.9979, 11.03504
283.4800, 10.99262
283.9622, 12.28864
284.4443, 13.35528
284.9264, 13.26670
285.4085, 12.19878
285.8906, 11.82081
286.3727, 12.26754
286.8549, 12.91900
287.3370, 12.90581
287.8191, 12.26211
288.3012, 11.69849
288.7833, 11.51182
289.2654, 11.60995
289.7476, 11.57579
290.2297, 11.36744
290.7118, 11.35092
291.1939, 12.16904
291.6760, 13.64430
292.1581, 14.71988
292.6403, 14.91747
293.1224, 14.59614
293.6045, 14.65144
294.0866, 15.08636
294.5687, 15.44271
295.0508, 15.29986
295.5330, 14.74550
296.0151, 14.04540
296.4972, 13.12178
296.9793, 12.23847
297.4614, 11.76800
297.9435, 11.71027
298.4257, 12.15493
298.9078, 13.69389
299.3899, 15.74820
299.8720, 17.01299
300.3541, 17.18103
300.8362, 16.69033
301.3184, 15.69060
301.8005, 14.35960
302.2826, 13.47071
302.7647, 13.71366
303.2469, 14.60505
303.7290, 15.62508
304.2111, 16.84525
304.6932, 17.58323
305.1753, 16.59111
305.6574, 14.53584
306.1396, 13.03130
306.6217, 13.35334
307.1038, 14.37082
307.5859, 14.85046
308.0680, 14.66304
308.5501, 14.48220
309.0323, 15.19875
309.5144, 16.20215
309.9965, 16.52121
310.4786, 14.72618
310.9607, 12.83653
311.4428, 12.53409
311.9250, 13.79824
312.4071, 15.18550
312.8892, 16.11429
313.3713, 16.59799
313.8534, 16.64577
314.3355, 15.77072
314.8177, 14.90372
315.2998, 14.72339
315.7819, 15.06292
316.2640, 15.02008
316.7461, 13.36815
317.2282, 11.64267
317.7104, 11.08190
318.1925, 12.93126
318.6746, 14.52637
319.1567, 14.68270
319.6388, 13.86773
320.1209, 13.32233
320.6031, 13.89697
321.0852, 14.49263
321.5673, 14.46395
322.0494, 13.31762
322.5315, 12.50624
323.0136, 12.54661
323.4958, 13.07047
323.9779, 13.47967
324.4600, 13.68758
324.9421, 13.75366
325.4242, 13.61208
325.9064, 13.15333
326.3885, 12.97303
326.8706, 13.18481
327.3527, 13.67032
327.8348, 14.30570
328.3170, 15.86488
328.7991, 16.73393
329.2812, 16.40009
329.7633, 14.82392
330.2454, 13.60891
330.7275, 12.78143
331.2097, 12.30454
331.6918, 12.18509
332.1739, 12.70663
332.6560, 13.11960
333.1381, 13.27003
333.6202, 13.24102
334.1024, 13.50457
334.5845, 14.48975
335.0666, 15.12600
335.5487, 14.62038
336.0308, 12.16318
336.5129, 11.03582
336.9951, 11.86184
337.4772, 13.67714
337.9593, 14.43519
338.4414, 13.75965
338.9235, 13.12281
339.4056, 13.19039
339.8878, 14.03242
340.3699, 14.62224
340.8520, 14.97590
341.3341, 15.04775
341.8162, 14.51919
342.2983, 13.27591
342.7805, 12.74042
343.2626, 13.67218
343.7447, 15.69970
344.2268, 16.76296
344.7089, 16.77049
345.1910, 16.41159
345.6732, 16.31554
346.1553, 16.44071
346.6374, 16.42568
347.1195, 16.09747
347.6016, 15.70790
348.0837, 15.92820
348.5659, 16.71651
349.0480, 17.33437
349.5301, 17.13208
350.0122, 16.37537
350.4944, 15.73267
350.9765, 15.29489
351.4586, 14.96136
351.9407, 14.54305
352.4228, 14.11314
352.9049, 13.91446
353.3871, 14.24465
353.8692, 14.80250
354.3513, 15.13345
354.8334, 15.19970
355.3155, 15.37858
355.7976, 16.14791
356.2798, 17.20309
356.7619, 18.06344
357.2440, 18.55236
357.7261, 18.76166
358.2082, 18.59273
358.6903, 18.11168
359.1725, 17.77710
359.6546, 18.15676
360.1367, 18.63548
360.6188, 18.61458
361.1009, 17.51729
361.5830, 16.58557
362.0652, 16.57460
362.5473, 17.14467
363.0294, 17.45830
363.5115, 16.95509
363.9936, 16.33844
364.4757, 16.02137
364.9579, 16.21434
365.4400, 16.15711
365.9221, 15.22452
366.4042, 14.10284
366.8863, 13.66192
367.3684, 14.52970
367.8506, 15.57151
368.3327, 16.56938
368.8148, 17.50931
369.2969, 18.44024
369.7790, 19.64999
370.2611, 20.65634
370.7433, 21.08989
371.2254, 20.37128
371.7075, 19.99718
372.1896, 20.25317
372.6717, 20.95738
373.1538, 21.29048
373.6360, 20.89172
374.1181, 20.70577
374.6002, 21.24797
375.0823, 22.76703
375.5645, 24.19289
376.0466, 25.65741
376.5287, 26.86551
377.0108, 27.12985
377.4929, 26.20446
377.9750, 25.51314
378.4572, 25.68323
378.9393, 26.58879
379.4214, 26.88884
379.9035, 26.42233
380.3856, 26.01663
380.8677, 26.88070
381.3499, 28.86251
381.8320, 29.87144
382.3141, 29.18247
382.7962, 27.59318
383.2783, 26.63727
383.7604, 26.30597
384.2426, 26.34833
384.7247, 26.93622
385.2068, 27.74313
385.6889, 27.98635
386.1710, 27.50945
386.6531, 26.74500
387.1353, 25.73187
387.6174, 24.75344
388.0995, 24.52659
388.5816, 26.27714
389.0637, 28.41867
389.5458, 29.36435
390.0280, 29.10422
390.5101, 28.28471
390.9922, 26.83497
391.4743, 25.25988
391.9564, 24.09835
392.4385, 23.54807
392.9207, 23.41997
393.4028, 23.95945
393.8849, 24.90441
394.3670, 25.46756
394.8491, 24.70986
395.3312, 23.94873
395.8134, 24.12104
396.2955, 25.97029
396.7776, 26.98550
397.2597, 26.02500
397.7418, 24.10335
398.2239, 22.53423
398.7061, 21.54394
399.1882, 20.87110
399.6703, 20.49511
400.1524, 20.41742
400.6346, 20.55500
401.1167, 21.50370
401.5988, 22.15260
402.0809, 21.63981
402.5630, 18.94794
403.0451, 17.09729
403.5273, 16.50793
404.0094, 16.83169
404.4915, 17.22051
404.9736, 17.89511
405.4557, 18.08766
405.9378, 17.18570
406.4200, 15.01321
406.9021, 13.90716
407.3842, 14.10898
407.8663, 14.83560
408.3484, 15.09910
408.8305, 14.89023
409.3127, 14.78359
409.7948, 14.96374
410.2769, 15.33951
410.7590, 15.69413
411.2411, 16.02935
411.7232, 16.29981
412.2054, 16.41889
412.6875, 16.44894
413.1696, 16.62927
413.6517, 17.08814
414.1338, 17.40532
414.6159, 16.81844
415.0981, 15.65412
415.5802, 14.80670
416.0623, 15.06890
416.5444, 15.67668
417.0265, 15.75305
417.5086, 15.27899
417.9908, 14.99631
418.4729, 15.74190
418.9550, 16.77889
419.4371, 17.30417
419.9192, 16.79711
420.4013, 16.10105
420.8835, 15.49030
421.3656, 14.96066
421.8477, 14.48776
422.3298, 13.70555
422.8119, 13.27643
423.2940, 13.60882
423.7762, 15.04582
424.2583, 16.29577
424.7404, 17.35946
425.2225, 18.09213
425.7047, 18.35051
426.1868, 17.67739
426.6689, 17.13444
427.1510, 16.96830
427.6331, 17.13017
428.1152, 17.00788
428.5974, 16.35321
429.0795, 15.78361
429.5616, 15.78531
430.0437, 16.62577
430.5258, 16.82863
431.0079, 16.11164
431.4901, 15.00405
431.9722, 14.35200
432.4543, 14.14847
432.9364, 14.49402
433.4185, 15.75302
433.9006, 17.61194
434.3828, 18.52384
434.8649, 18.43746
435.3470, 18.03819
435.8291, 17.78775
436.3112, 17.71216
436.7933, 17.98978
437.2755, 18.85031
437.7576, 19.66007
438.2397, 19.43427
438.7218, 18.42661
439.2039, 17.48417
439.6860, 17.07611
440.1682, 16.95882
440.6503, 16.87919
441.1324, 16.81302
441.6145, 16.91059
442.0966, 17.37561
442.5787, 18.00648
443.0609, 18.58795
443.5430, 19.17840
444.0251, 19.57615
444.5072, 19.48553
444.9893, 19.09138
445.4714, 19.05839
445.9536, 19.88318
446.4357, 20.80877
446.9178, 21.59799
447.3999, 22.43354
447.8820, 22.55679
448.3641, 21.30207
448.8463, 19.70909
449.3284, 18.90309
449.8105, 19.33146
450.2926, 19.75131
450.7747, 19.98110
451.2569, 20.03735
451.7390, 19.98555
452.2211, 19.75853
452.7032, 19.59121
453.1853, 19.69693
453.6674, 20.10570
454.1496, 20.24010
454.6317, 20.03914
455.1138, 19.66106
455.5959, 19.25691
456.0780, 18.83921
456.5602, 18.60348
457.0423, 18.74093
457.5244, 19.02457
458.0065, 18.94726
458.4886, 18.53963
458.9707, 18.13235
459.4529, 17.85809
459.9350, 17.77549
460.4171, 18.01901
460.8992, 18.66941
461.3813, 19.42950
461.8634, 20.40622
462.3456, 21.29409
462.8277, 21.55684
463.3098, 20.18289
463.7919, 18.83176
464.2740, 18.57503
464.7561, 19.33825
465.2383, 19.72498
465.7204, 18.53744
466.2025, 17.37250
466.6846, 17.27407
467.1667, 19.24282
467.6488, 20.84690
468.1310, 21.66904
468.6131, 22.13288
469.0952, 22.97317
469.5773, 24.63636
470.0594, 25.94574
470.5415, 26.49517
471.0237, 26.31839
471.5058, 26.54597
471.9879, 27.39163
472.4700, 28.16612
472.9521, 28.11693
473.4342, 27.16524
473.9164, 27.06854
474.3985, 28.16547
474.8806, 29.80552
475.3627, 30.92122
475.8448, 31.55839
476.3270, 32.19708
476.8091, 33.15982
477.2912, 34.20736
477.7733, 34.66418
478.2554, 34.58355
478.7375, 34.77615
479.2197, 36.22004
479.7018, 38.19277
480.1839, 39.67336
480.6660, 40.36364
481.1481, 40.80278
481.6302, 41.07298
482.1124, 41.36669
482.5945, 42.00976
483.0766, 43.90460
483.5587, 45.46003
484.0408, 45.60006
484.5229, 44.36964
485.0051, 43.85643
485.4872, 45.90296
485.9693, 47.73793
486.4514, 47.63971
486.9335, 44.11415
487.4156, 41.26493
487.8978, 39.45089
488.3799, 38.13160
488.8620, 36.29988
489.3441, 33.54594
489.8262, 31.28661
490.3083, 29.87995
490.7905, 29.26726
491.2726, 29.22808
491.7547, 29.91232
492.2368, 30.43381
492.7189, 30.07186
493.2010, 28.92148
493.6832, 27.40464
494.1653, 25.31727
494.6474, 23.77357
495.1295, 24.89373
495.6116, 27.82392
496.0938, 29.91475
496.5759, 29.68703
497.0580, 28.49208
497.5401, 27.38926
498.0222, 26.45681
498.5044, 26.14896
498.9865, 27.53704
499.4686, 29.13755
499.9507, 29.54421
500.4328, 28.09882
500.9149, 27.24082
501.3971, 28.23204
501.8792, 30.07826
502.3613, 31.62345
502.8434, 32.68710
503.3255, 33.44173
503.8076, 33.44995
504.2898, 33.04373
504.7719, 33.92516
505.2540, 37.30269
505.7361, 40.17100
506.2182, 40.94861
506.7003, 39.08604
507.1825, 38.82478
507.6646, 40.56877
508.1467, 43.04749
508.6288, 44.98597
509.1109, 46.38578
509.5930, 47.36754
510.0752, 47.70031
510.5573, 48.00715
511.0394, 49.92640
511.5215, 53.15343
512.0037, 55.76131
512.4858, 56.95552
512.9679, 56.77169
513.4500, 54.79285
513.9321, 51.04047
514.4142, 47.23634
514.8964, 44.60731
515.3785, 42.53328
515.8606, 40.36555
516.3427, 37.74952
516.8248, 35.33834
517.3069, 33.47075
517.7891, 31.96972
518.2712, 30.50118
518.7533, 29.06194
519.2354, 27.59374
519.7175, 26.06674
520.1996, 24.47769
520.6818, 22.90082
521.1639, 20.79350
521.6460, 19.36537
522.1281, 19.64767
522.6102, 22.44051
523.0923, 23.70237
523.5745, 22.92261
524.0566, 21.30198
524.5387, 20.55298
525.0208, 20.66971
525.5029, 20.90673
525.9850, 21.13962
526.4672, 21.27740
526.9493, 21.07687
527.4314, 20.56185
527.9135, 19.97652
528.3956, 19.35316
528.8777, 18.79071
529.3599, 18.41225
529.8420, 18.22198
530.3241, 18.25013
530.8062, 18.65718
531.2883, 19.23759
531.7704, 19.75362
532.2526, 20.17313
532.7347, 20.49208
533.2168, 20.69612
533.6989, 20.80088
534.1810, 20.84851
534.6631, 20.96056
535.1453, 20.88339
535.6274, 20.39136
536.1095, 19.45179
536.5916, 19.19473
537.0737, 20.05940
537.5558, 20.92366
538.0380, 20.92495
538.5201, 19.89186
539.0022, 19.12560
539.4843, 18.66497
539.9664, 18.58467
540.4485, 19.22309
540.9307, 20.47792
541.4128, 21.51655
541.8949, 21.99392
542.3770, 22.15760
542.8591, 22.31592
543.3412, 22.48890
543.8234, 22.79038
544.3055, 23.34896
544.7876, 24.03389
545.2697, 24.84612
545.7518, 25.82330
546.2339, 26.38428
546.7161, 25.59790
547.1982, 24.60740
547.6803, 24.41852
548.1624, 26.03249
548.6445, 27.46151
549.1266, 28.45481
549.6088, 29.08838
550.0909, 29.44007
550.5730, 28.86803
551.0551, 29.08932
551.5372, 30.86103
552.0193, 33.96368
552.5015, 36.04707
552.9836, 36.90081
553.4657, 37.48256
553.9478, 38.32835
554.4299, 39.43798
554.9120, 40.86958
555.3942, 42.64863
555.8763, 44.55321
556.3584, 46.31711
556.8405, 48.00157
557.3226, 49.73293
557.8047, 51.41411
558.2869, 53.37152
558.7690, 56.18858
559.2511, 59.54424
559.7332, 62.59865
560.2154, 64.64976
560.6975, 66.57816
561.1796, 68.70376
561.6617, 71.04591
562.1439, 73.98433
562.6260, 78.07210
563.1081, 82.42209
563.5902, 86.56293
564.0723, 90.22604
564.5544, 94.27459
565.0366, 98.80579
565.5187, 103.6784
566.0008, 108.7406
566.4829, 114.1299
566.9650, 119.1635
567.4471, 123.5876
567.9293, 127.6745
568.4114, 132.2166
568.8935, 137.1572
569.3756, 141.4502
569.8577, 144.6508
570.3398, 146.7439
570.8220, 147.6800
571.3041, 147.4686
571.7862, 145.8989
572.2683, 143.0057
572.7504, 138.5957
573.2325, 132.1112
573.7147, 122.6380
574.1968, 113.3706
574.6789, 105.4803
575.1610, 98.50443
575.6431, 91.74358
576.1252, 84.91188
576.6074, 78.62029
577.0895, 72.82072
577.5716, 67.58669
578.0537, 63.12065
578.5358, 59.50405
579.0179, 56.47909
579.5001, 54.12250
579.9822, 52.35884
580.4643, 50.11766
580.9464, 47.27825
581.4285, 44.79484
581.9106, 43.81066
582.3928, 43.86034
582.8749, 43.27436
583.3570, 41.68571
583.8391, 40.14868
584.3212, 40.03709
584.8033, 40.62142
585.2855, 40.64172
585.7676, 38.94041
586.2497, 37.31855
586.7318, 36.94138
587.2139, 37.36854
587.6960, 37.34002
588.1782, 35.70227
588.6603, 34.37547
589.1424, 34.31898
589.6245, 35.62093
590.1066, 35.95831
590.5887, 34.76513
591.0709, 33.42441
591.5530, 32.90001
592.0351, 33.37508
592.5172, 33.22135
592.9993, 32.24755
593.4814, 31.05616
593.9636, 30.44552
594.4457, 30.31410
594.9278, 30.05158
595.4099, 29.37708
595.8920, 28.73911
596.3741, 29.05377
596.8563, 29.90024
597.3384, 30.17539
597.8205, 28.54679
598.3026, 26.83200
598.7847, 26.30714
599.2668, 26.87530
599.7490, 27.41259
600.2311, 27.99004
600.7132, 28.12496
601.1953, 27.29692
601.6774, 24.81652
602.1595, 23.87511
602.6417, 25.49918
603.1238, 27.45916
603.6059, 27.42284
604.0880, 24.87588
604.5701, 23.41636
605.0522, 23.69074
605.5344, 24.75360
606.0165, 24.82738
606.4986, 24.11938
606.9807, 24.02980
607.4628, 25.71937
607.9449, 27.68362
608.4271, 27.41149
608.9092, 25.43939
609.3913, 23.87480
609.8735, 24.20865
610.3556, 25.10721
610.8377, 25.76154
611.3198, 26.10175
611.8019, 26.30469
612.2841, 26.24764
612.7662, 26.19312
613.2483, 26.36688
613.7304, 27.14048
614.2125, 27.23969
614.6946, 26.30399
615.1768, 25.08013
615.6589, 24.37499
616.1410, 24.18024
616.6231, 24.67123
617.1052, 26.19225
617.5873, 27.92042
618.0695, 27.89627
618.5516, 26.42348
619.0337, 25.18771
619.5158, 24.82565
619.9979, 25.20445
620.4800, 26.54366
620.9622, 28.64438
621.4443, 30.44064
621.9264, 31.38293
622.4085, 31.84663
622.8906, 32.22184
623.3727, 32.66357
623.8549, 32.07400
624.3370, 28.49291
624.8191, 25.08628
625.3012, 24.07082
625.7833, 26.86260
626.2654, 28.65956
626.7476, 29.14486
627.2297, 28.99832
627.7118, 29.13445
628.1939, 29.56288
628.6760, 29.84481
629.1581, 29.77204
629.6403, 29.68800
630.1224, 30.39475
630.6045, 31.66072
631.0866, 32.61343
631.5687, 32.33761
632.0508, 31.91394
632.5330, 32.60263
633.0151, 34.14739
633.4972, 35.16390
633.9793, 34.68536
634.4614, 33.85067
634.9435, 33.16333
635.4257, 32.64340
635.9078, 32.45976
636.3899, 32.71625
636.8720, 33.20130
637.3541, 33.83950
637.8362, 34.75578
638.3184, 35.16679
638.8005, 34.81733
639.2826, 34.48592
639.7647, 35.50478
640.2468, 37.62832
640.7289, 39.06108
641.2111, 39.17605
641.6932, 38.83281
642.1753, 39.06026
642.6574, 39.66191
643.1395, 40.15691
643.6216, 40.19963
644.1038, 40.19898
644.5859, 40.28344
645.0680, 40.49086
645.5501, 40.98217
646.0322, 42.35896
646.5143, 43.45795
646.9965, 43.67590
647.4786, 42.92654
647.9607, 42.94113
648.4428, 43.96651
648.9249, 45.25553
649.4070, 46.33705
649.8892, 47.21342
650.3713, 48.10109
650.8534, 48.96255
651.3355, 50.16956
651.8176, 52.36029
652.2997, 55.16811
652.7819, 57.86285
653.2640, 60.37726
653.7461, 62.45277
654.2282, 63.20369
654.7103, 63.54291
655.1924, 64.82262
655.6746, 68.27738
656.1567, 71.82989
656.6388, 74.79875
657.1209, 77.45650
657.6030, 80.55022
658.0851, 84.47115
658.5673, 88.15023
659.0494, 91.07179
659.5316, 93.47527
660.0137, 96.87955
660.4958, 101.3050
660.9779, 106.1645
661.4600, 111.6909
661.9421, 117.3280
662.4243, 121.1906
662.9064, 123.2914
663.3885, 125.9843
663.8706, 131.6628
664.3527, 138.4367
664.8348, 144.4444
665.3170, 149.2886
665.7991, 153.7913
666.2812, 157.7891
666.7633, 161.8030
667.2454, 166.4176
667.7275, 172.7502
668.2097, 177.6918
668.6918, 180.9968
669.1739, 183.0702
669.6560, 184.5044
670.1381, 185.3081
670.6202, 185.3989
671.1024, 184.7948
671.5845, 183.4059
672.0666, 180.8235
672.5487, 177.2520
673.0308, 173.5027
673.5129, 170.3350
673.9951, 166.9277
674.4772, 162.6723
674.9593, 157.5721
675.4414, 151.7658
675.9235, 144.5042
676.4056, 137.2696
676.8878, 130.8838
677.3699, 125.3951
677.8520, 119.7445
678.3341, 113.7036
678.8162, 107.9118
679.2983, 102.8869
679.7805, 98.71359
680.2626, 94.23824
680.7447, 89.42428
681.2268, 84.70214
681.7089, 80.27455
682.1910, 76.31231
682.6732, 73.60783
683.1553, 72.49651
683.6374, 71.47032
684.1195, 69.10513
684.6016, 66.19339
685.0837, 63.70238
685.5659, 62.51387
686.0480, 60.94820
686.5301, 57.99440
687.0122, 54.57777
687.4943, 52.31753
687.9764, 52.04153
688.4586, 51.17518
688.9407, 48.93713
689.4228, 46.06552
689.9049, 44.57476
690.3870, 44.47286
690.8691, 44.75598
691.3513, 45.42323
691.8334, 45.90076
692.3155, 44.68611
692.7976, 42.17289
693.2797, 40.20285
693.7618, 40.68739
694.2440, 41.40908
694.7261, 40.61240
695.2082, 38.28210
695.6903, 36.30816
696.1724, 35.00681
696.6545, 34.30564
697.1367, 34.32249
697.6188, 35.23632
698.1009, 35.59655
698.5830, 35.30028
699.0651, 34.67529
699.5472, 33.83139
700.0294, 32.82366
700.5115, 32.23102
700.9936, 32.15235
701.4757, 32.02201
701.9578, 30.87694
702.4399, 29.42642
702.9221, 28.90248
703.4042, 30.02395
703.8863, 30.86992
704.3684, 30.13025
704.8505, 28.70528
705.3326, 27.65743
705.8148, 27.44974
706.2969, 27.26251
706.7790, 27.16886
707.2611, 26.99760
707.7432, 26.33161
708.2253, 25.04434
708.7075, 24.07977
709.1896, 23.66944
709.6718, 23.72037
710.1539, 24.20140
710.6360, 25.01867
711.1181, 25.79494
711.6002, 26.67916
712.0823, 27.17884
712.5645, 26.36356
713.0466, 24.69279
713.5287, 23.87832
714.0108, 25.58030
714.4929, 27.22393
714.9750, 27.62246
715.4572, 26.89189
715.9393, 26.44008
716.4214, 26.42662
716.9035, 26.34863
717.3856, 25.94231
717.8677, 25.23004
718.3499, 24.49998
718.8320, 23.74029
719.3141, 23.05070
719.7962, 22.47097
720.2783, 22.01813
720.7604, 21.62788
721.2426, 21.28869
721.7247, 21.35499
722.2068, 22.64692
722.6889, 24.01015
723.1710, 24.52718
723.6531, 23.73438
724.1353, 22.96431
724.6174, 22.26671
725.0995, 21.63465
725.5816, 20.89473
726.0637, 19.89570
726.5458, 20.11169
727.0280, 21.95657
727.5101, 24.01469
727.9922, 24.32000
728.4743, 23.39754
728.9564, 22.75900
729.4385, 22.82877
729.9207, 23.09960
730.4028, 23.53826
730.8849, 23.80787
731.3670, 23.43199
731.8491, 21.37057
732.3312, 19.74138
732.8134, 19.21891
733.2955, 19.27261
733.7776, 19.03229
734.2597, 18.27915
734.7418, 17.98584
735.2239, 18.60162
735.7061, 19.51056
736.1882, 19.02179
736.6703, 17.35520
737.1524, 16.20136
737.6345, 16.44221
738.1166, 17.31913
738.5988, 18.41652
739.0809, 19.49651
739.5630, 19.87917
740.0451, 18.40276
740.5272, 17.04071
741.0093, 16.85239
741.4915, 17.61357
741.9736, 17.77733
742.4557, 16.88652
742.9378, 16.28510
743.4199, 16.52387
743.9020, 17.46066
744.3842, 18.54207
744.8663, 19.77778
745.3484, 20.17631
745.8305, 18.38583
746.3126, 15.74197
746.7947, 14.17705
747.2769, 13.67631
747.7590, 13.75000
748.2411, 14.52662
748.7232, 15.47833
749.2053, 16.41386
749.6874, 17.35838
750.1696, 17.79901
750.6517, 17.53691
751.1338, 17.04454
751.6159, 16.53930
752.0980, 16.01323
752.5801, 15.54413
753.0623, 15.12093
753.5444, 14.84564
754.0265, 14.85984
754.5086, 15.06540
754.9907, 15.32622
755.4728, 15.63942
755.9550, 15.81533
756.4371, 15.71010
756.9192, 15.43390
757.4013, 15.09432
757.8835, 14.78779
758.3656, 14.13779
758.8477, 12.61897
759.3298, 11.29741
759.8120, 11.26318
760.2941, 12.76685
760.7762, 13.16319
761.2583, 12.05747
761.7404, 10.98346
762.2225, 12.28869
762.7047, 14.85156
763.1868, 15.84873
763.6689, 14.39548
764.1510, 12.95199
764.6331, 13.44324
765.1152, 14.69880
765.5974, 15.46694
766.0795, 15.24372
766.5616, 14.91858
767.0437, 14.35811
767.5258, 13.88438
768.0079, 13.97517
768.4901, 14.73388
768.9722, 15.16153
769.4543, 15.06249
769.9364, 14.78345
770.4185, 14.95255
770.9006, 15.31723
771.3828, 15.12546
771.8649, 13.80234
772.3470, 12.70547
772.8291, 12.96872
773.3112, 13.93497
773.7933, 14.69551
774.2755, 14.75050
774.7576, 15.03763
775.2397, 16.05425
775.7218, 17.04498
776.2039, 16.49047
776.6860, 14.11391
777.1682, 12.80540
777.6503, 13.44336
778.1324, 14.73281
778.6145, 14.33228
779.0966, 12.92511
779.5787, 12.40522
780.0609, 14.21666
780.5430, 15.95919
781.0251, 15.93691
781.5072, 14.90750
781.9893, 14.25432
782.4714, 14.25149
782.9536, 14.66769
783.4357, 15.75545
783.9178, 17.07137
784.3999, 17.69806
784.8820, 17.60461
785.3641, 17.20862
785.8463, 16.48454
786.3284, 15.75287
786.8105, 15.65615
787.2926, 15.97950
787.7747, 16.19946
788.2568, 16.06975
788.7390, 15.79779
789.2211, 15.29152
789.7032, 14.72746
790.1853, 14.53617
790.6674, 15.00287
791.1495, 15.46813
791.6317, 15.92683
792.1138, 16.24724
792.5959, 15.87583
793.0780, 14.81575
793.5601, 14.30673
794.0422, 15.08781
794.5244, 16.17954
795.0065, 16.03372
795.4886, 15.10984
795.9707, 14.51384
796.4528, 15.23701
796.9349, 15.81198
797.4171, 15.43842
797.8992, 14.47416
798.3813, 13.94289
798.8634, 13.95181
799.3455, 14.19406
799.8276, 14.65350
800.3098, 15.26184
800.7919, 16.02093
801.2740, 16.87467
801.7561, 17.20262
802.2382, 16.48948
802.7203, 15.50452
803.2025, 14.82271
803.6846, 14.51829
804.1667, 14.74725
804.6488, 16.21884
805.1309, 17.50174
805.6130, 18.25576
806.0952, 18.50960
806.5773, 18.20917
807.0594, 17.17446
807.5416, 16.16643
808.0237, 15.30728
808.5058, 14.66898
808.9879, 14.53610
809.4700, 14.79848
809.9521, 14.97763
810.4343, 14.76770
810.9164, 14.54340
811.3985, 14.47437
811.8806, 14.61502
812.3627, 15.07963
812.8448, 16.69265
813.3270, 17.60740
813.8091, 17.27901
814.2912, 16.21549
814.7733, 15.46833
815.2554, 15.05465
815.7375, 14.77482
816.2197, 14.56020
816.7018, 14.48153
817.1839, 14.80063
817.6660, 15.34281
818.1481, 15.68848
818.6302, 15.55582
819.1124, 15.33608
819.5945, 15.14368
820.0766, 15.00049
820.5587, 14.98104
821.0408, 15.39897
821.5229, 15.24685
822.0051, 13.98243
822.4872, 12.57650
822.9693, 13.40659
823.4514, 16.14974
823.9335, 17.12317
824.4156, 14.65143
824.8978, 11.69373
825.3799, 11.64983
825.8620, 13.20140
826.3441, 14.18706
826.8262, 13.29434
827.3083, 12.59848
827.7905, 12.79756
828.2726, 13.31483
828.7547, 13.36042
829.2368, 12.69376
829.7189, 12.68086
830.2010, 13.70143
830.6832, 14.90198
831.1653, 14.94200
831.6474, 14.19675
832.1295, 13.77261
832.6116, 14.15518
833.0938, 14.29193
833.5759, 12.78970
834.0580, 10.99584
834.5401, 10.43207
835.0222, 12.77855
835.5043, 14.16659
835.9865, 14.29807
836.4686, 13.84684
836.9507, 13.45475
837.4328, 13.12368
837.9149, 12.90216
838.3970, 12.79205
838.8792, 12.80260
839.3613, 12.94463
839.8434, 13.21258
840.3255, 13.65556
840.8076, 14.37718
841.2897, 14.88338
841.7719, 14.91661
842.2540, 14.72958
842.7361, 14.51633
843.2182, 14.29661
843.7003, 13.95295
844.1824, 13.46440
844.6646, 12.94088
845.1467, 12.26487
845.6288, 11.66056
846.1109, 11.90380
846.5930, 13.06525
847.0751, 14.10002
847.5573, 14.15718
848.0394, 13.93302
848.5215, 14.10059
849.0036, 14.91661
849.4857, 14.68003
849.9678, 12.51912
850.4500, 10.69318
850.9321, 10.72211
851.4142, 12.38134
851.8963, 12.87470
852.3784, 12.23916
852.8605, 11.83163
853.3427, 13.02659
853.8248, 14.66272
854.3069, 15.66071
854.7890, 15.97646
855.2711, 15.78641
855.7532, 14.29732
856.2354, 13.23269
856.7175, 13.36540
857.1996, 14.49699
857.6818, 15.22858
858.1639, 15.53777
858.6460, 15.61098
859.1281, 15.48768
859.6102, 15.22091
860.0923, 14.78307
860.5745, 14.26425
861.0566, 13.98714
861.5387, 14.49565
862.0208, 14.86835
862.5029, 14.52006
862.9850, 13.70170
863.4672, 13.27082
863.9493, 13.33310
864.4314, 13.52965
864.9135, 13.85603
865.3956, 14.17365
865.8777, 14.13596
866.3599, 13.81868
866.8420, 13.53926
867.3241, 13.37482
867.8062, 13.32677
868.2883, 13.55758
868.7704, 13.85452
869.2526, 13.89826
869.7347, 13.29694
870.2168, 12.88361
870.6989, 12.66856
871.1810, 12.69259
871.6631, 13.23871
872.1453, 14.24343
872.6274, 14.36141
873.1095, 13.19392
873.5916, 12.25929
874.0737, 13.71198
874.5558, 16.04638
875.0380, 17.41905
875.5201, 17.34482
876.0022, 16.72188
876.4843, 15.15012
876.9664, 13.59762
877.4485, 12.63809
877.9307, 12.28273
878.4128, 12.59770
878.8949, 13.67207
879.3770, 14.71536
879.8591, 14.92350
880.3412, 14.73121
880.8234, 15.01362
881.3055, 15.78570
881.7876, 15.97164
882.2697, 14.12186
882.7518, 12.45678
883.2339, 12.41308
883.7161, 13.86921
884.1982, 14.39882
884.6803, 13.74749
885.1624, 13.21608
885.6445, 13.63280
886.1266, 14.50463
886.6088, 14.64630
887.0909, 14.18131
887.5730, 13.62263
888.0551, 12.79424
888.5372, 12.37879
889.0193, 13.05686
889.5015, 14.44907
889.9836, 15.33346
890.4657, 15.68030
890.9478, 15.50308
891.4299, 14.62807
891.9120, 13.48601
892.3942, 13.00720
892.8763, 12.99599
893.3584, 12.54739
893.8405, 10.96551
894.3226, 9.857334
894.8047, 10.89416
895.2869, 12.88373
895.7690, 14.36265
896.2511, 14.96432
896.7332, 15.19026
897.2153, 14.98869
897.6974, 14.49059
898.1796, 13.71278
898.6617, 12.71325
899.1438, 11.86134
899.6259, 11.16584
900.1080, 10.93267
900.5901, 11.79103
901.0723, 12.97667
901.5544, 13.73395
902.0365, 13.87566
902.5186, 14.34276
903.0007, 15.74364
903.4828, 16.73221
903.9650, 16.50901
904.4471, 15.22608
904.9292, 14.26326
905.4113, 13.60640
905.8935, 13.23207
906.3756, 13.18047
906.8577, 13.35829
907.3398, 13.81299
907.8220, 14.44816
908.3041, 14.89014
908.7862, 14.93789
909.2683, 14.91174
909.7504, 14.87580
910.2325, 14.81137
910.7147, 14.70331
911.1968, 14.54817
911.6789, 14.11318
912.1610, 13.07868
912.6431, 12.34724
913.1252, 13.50254
913.6074, 15.47222
914.0895, 16.57972
914.5716, 15.64029
915.0537, 15.05533
915.5358, 15.69323
916.0179, 16.32746
916.5001, 15.41117
916.9822, 12.77651
917.4643, 12.33733
917.9464, 14.54812
918.4285, 16.81171
918.9106, 15.96322
919.3928, 14.15974
919.8749, 14.33853
920.3570, 16.86978
920.8391, 18.69316
921.3212, 18.26394
921.8033, 17.60708
922.2855, 17.79165
922.7676, 18.61318
923.2497, 17.40637
923.7318, 14.10482
924.2139, 11.72380
924.6960, 12.61034
925.1782, 14.67521
925.6603, 15.27737
926.1424, 14.83437
926.6245, 14.44363
927.1066, 14.77215
927.5887, 14.82196
928.0709, 14.13544
928.5530, 13.22344
929.0351, 13.02752
929.5172, 13.56455
929.9993, 14.41999
930.4814, 15.62762
930.9636, 16.68047
931.4457, 17.08091
931.9278, 16.93191
932.4099, 16.22469
932.8920, 14.61843
933.3741, 13.56782
933.8563, 13.53916
934.3384, 14.07187
934.8205, 15.14052
935.3026, 16.82589
935.7847, 17.22087
936.2668, 16.26938
936.7490, 15.35257
937.2311, 15.75212
937.7132, 16.56656
938.1953, 16.79192
938.6774, 16.45033
939.1595, 15.91180
939.6417, 15.06677
940.1238, 14.28327
940.6059, 13.55504
941.0880, 13.00517
941.5701, 13.19145
942.0522, 14.08930
942.5344, 14.60874
943.0165, 14.35572
943.4986, 13.73014
943.9807, 12.87923
944.4628, 12.04130
944.9449, 11.58677
945.4271, 11.98015
945.9092, 12.09334
946.3913, 11.48358
946.8734, 11.00971
947.3555, 11.79651
947.8376, 13.71233
948.3198, 14.47098
948.8019, 13.91614
949.2840, 13.06086
949.7661, 12.33763
950.2482, 11.99404
950.7303, 12.51103
951.2125, 13.89000
951.6946, 14.70874
952.1767, 14.44831
952.6588, 14.24097
953.1409, 14.54449
953.6230, 15.13953
954.1052, 15.24185
954.5873, 14.92869
955.0695, 14.69037
955.5516, 14.84269
956.0337, 14.98300
956.5158, 14.75153
956.9979, 14.32084
957.4800, 13.96668
957.9622, 13.73023
958.4443, 13.56710
958.9264, 13.51099
959.4085, 13.45750
959.8906, 13.15425
960.3727, 12.74610
960.8549, 12.87628
961.3370, 13.62008
961.8191, 14.30029
962.3012, 14.47008
962.7833, 14.42630
963.2654, 14.28512
963.7476, 14.05897
964.2297, 14.22847
964.7118, 15.09126
965.1939, 15.25346
965.6760, 13.58804
966.1581, 11.31148
966.6403, 11.07353
967.1224, 12.46930
967.6045, 14.29734
968.0866, 17.46091
968.5687, 19.26151
969.0508, 17.37807
969.5330, 14.20074
970.0151, 13.11670
970.4972, 14.68794
970.9793, 15.61639
971.4614, 15.56104
971.9435, 15.05148
972.4257, 14.13181
972.9078, 13.36254
973.3899, 13.92714
973.8720, 16.03213
974.3541, 17.46285
974.8362, 16.81679
975.3184, 15.97260
975.8005, 15.80071
976.2826, 16.16419
976.7647, 16.13172
977.2468, 15.70768
977.7289, 15.14590
978.2111, 14.47016
978.6932, 13.83317
979.1753, 13.28665
979.6574, 12.92306
980.1395, 12.91748
980.6216, 13.60949
981.1038, 14.28083
981.5859, 14.97939
982.0680, 15.51032
982.5501, 15.55516
983.0322, 15.18499
983.5143, 14.81210
983.9965, 14.46544
984.4786, 14.41665
984.9607, 15.33533
985.4428, 16.26510
985.9249, 16.49461
986.4070, 15.93082
986.8892, 14.91739
987.3713, 13.06181
987.8534, 11.91835
988.3355, 12.34479
988.8176, 13.58318
989.2997, 14.00216
989.7819, 13.78470
990.2640, 13.44298
990.7461, 12.85405
991.2282, 12.67134
991.7103, 13.57676
992.1924, 14.80097
992.6746, 15.39748
993.1567, 15.19624
993.6388, 15.36643
994.1209, 16.03941
994.6030, 16.56237
995.0851, 16.09473
995.5673, 15.25905
996.0494, 14.84917
996.5315, 14.90529
997.0136, 15.16736
997.4957, 16.10070
997.9778, 16.54161
998.4600, 15.96497
998.9421, 14.75772
999.4242, 14.01822
999.9063, 13.73701
1000.388, 13.80061
1000.871, 14.27933
1001.353, 14.84358
1001.835, 15.31682
1002.317, 15.65249
1002.799, 15.80682
1003.281, 15.84362
1003.763, 15.39359
1004.245, 14.10974
1004.728, 13.15611
1005.210, 13.87057
1005.692, 15.57030
1006.174, 16.01230
1006.656, 15.32805
1007.138, 14.73854
1007.620, 15.21336
1008.102, 15.58787
1008.584, 14.91776
1009.067, 13.83321
1009.549, 13.96337
1010.031, 15.50636
1010.513, 16.77860
1010.995, 17.57014
1011.477, 17.50749
1011.959, 15.13884
1012.441, 12.06640
1012.924, 10.58452
1013.406, 11.39059
1013.888, 12.52614
1014.370, 14.09101
1014.852, 15.29105
1015.334, 15.64884
1015.816, 15.28544
1016.298, 14.78140
1016.780, 14.19572
1017.263, 13.93601
1017.745, 14.46567
1018.227, 15.14626
1018.709, 15.73421
1019.191, 16.13991
1019.673, 16.19735
1020.155, 15.85521
1020.637, 15.21593
1021.120, 14.11733
1021.602, 13.29870
1022.084, 14.00889
1022.566, 15.42250
1023.048, 16.04070
1023.530, 15.71243
1024.012, 14.99856
1024.494, 13.52254
1024.976, 12.38815
1025.458, 12.05847
1025.941, 12.39525
1026.423, 12.94498
1026.905, 13.69046
1027.387, 14.30086
1027.869, 14.75086
1028.351, 14.81835
1028.833, 13.79038
1029.316, 12.48269
1029.798, 12.05542
1030.280, 13.75139
1030.762, 13.45793
1031.244, 10.19620
1031.726, 7.421752
1032.208, 9.009366
1032.690, 12.78843
1033.172, 11.81638
1033.655, 7.030328
1034.137, 3.931270
1034.619, 7.245826
1035.101, 10.52983
1035.583, 10.90294
1036.065, 9.855058
1036.547, 10.13645
1037.029, 11.80088
1037.511, 13.08391
1037.994, 13.67319
1038.476, 13.91642
1038.958, 13.83475
1039.440, 13.77854
1039.922, 14.38762
1040.404, 15.91776
1040.886, 15.97453
1041.368, 13.59602
1041.851, 11.71050
1042.333, 11.80242
1042.815, 13.00704
1043.297, 12.92386
1043.779, 12.00734
1044.261, 11.67996
1044.743, 13.38061
1045.225, 14.34571
1045.708, 11.96626
1046.190, 9.440860
1046.672, 10.36750
1047.154, 15.33327
1047.636, 16.96845
1048.118, 14.97986
1048.600, 12.86118
1049.082, 13.83620
1049.564, 15.56534
1050.047, 15.46777
1050.529, 13.98559
1051.011, 13.67505
1051.493, 15.67601
1051.975, 16.87238
1052.457, 16.58013
1052.939, 15.53303
1053.421, 14.68660
1053.903, 14.01335
1054.386, 13.42158
1054.868, 12.89991
1055.350, 12.46064
1055.832, 11.91921
1056.314, 11.67870
1056.796, 12.06971
1057.278, 12.97311
1057.760, 13.35563
1058.243, 13.24007
1058.725, 13.12500
1059.207, 13.19930
1059.689, 13.40076
1060.171, 13.87398
1060.653, 14.36054
1061.135, 14.46739
1061.617, 14.02861
1062.099, 13.39401
1062.582, 12.36007
1063.064, 11.77172
1063.546, 12.85660
1064.028, 14.64633
1064.510, 14.93680
1064.992, 13.99190
1065.474, 13.51401
1065.956, 14.69694
1066.438, 15.81563
1066.921, 16.68674
1067.403, 17.04695
1067.885, 16.05798
1068.367, 13.93546
1068.849, 12.86791
1069.331, 13.24280
1069.813, 13.78183
1070.295, 13.50011
1070.778, 13.03355
1071.260, 12.85060
1071.742, 12.95819
1072.224, 13.26100
1072.706, 13.86125
1073.188, 13.96386
1073.670, 12.99633
1074.152, 11.92933
1074.635, 12.64432
1075.117, 13.99559
1075.599, 14.03002
1076.081, 11.27229
1076.563, 9.529891
1077.045, 9.156140
1077.527, 9.661926
1078.009, 11.13616
1078.491, 13.18849
1078.974, 14.28676
1079.456, 14.53531
1079.938, 14.48388
1080.420, 14.47052
1080.902, 14.14343
1081.384, 12.74682
1081.866, 11.32119
1082.348, 11.42055
1082.831, 13.13643
1083.313, 13.98467
1083.795, 13.72780
1084.277, 13.18034
1084.759, 12.87013
1085.241, 12.68311
1085.723, 12.52264
1086.205, 12.39541
1086.688, 12.39910
1087.170, 12.62277
1087.652, 12.65344
1088.134, 12.32213
1088.616, 11.93922
1089.098, 12.03062
1089.580, 12.35441
1090.062, 12.42767
1090.544, 12.03817
1091.026, 12.14431
1091.509, 13.42075
1091.991, 14.48323
1092.473, 14.68707
1092.955, 14.21689
1093.437, 13.49304
1093.919, 12.64448
1094.401, 12.23575
1094.883, 12.67465
1095.366, 13.27449
1095.848, 13.78951
1096.330, 14.27918
1096.812, 14.89409
1097.294, 14.91721
1097.776, 15.70323
1098.258, 14.85895
1098.740, 14.05592
1099.223, 13.82563
1099.705, 13.92892
1100.187, 14.46634
1100.669, 15.14937
1101.151, 15.17821
1101.633, 14.16696
1102.115, 13.63278
1102.597, 13.77819
1103.079, 14.14011
1103.562, 14.32869
1104.044, 14.35977
1104.526, 14.13422
1105.008, 13.68702
1105.490, 13.55411
1105.972, 14.31229
1106.454, 14.63456
1106.936, 14.04593
1107.418, 13.09049
1107.901, 12.77711
1108.383, 12.96639
1108.865, 13.29455
1109.347, 13.69500
1109.829, 14.17782
1110.311, 15.24149
1110.793, 15.84369
1111.275, 15.24761
1111.758, 13.75216
1112.240, 13.14589
1112.722, 13.34206
1113.204, 13.54616
1113.686, 13.27624
1114.168, 13.27883
1114.650, 14.78276
1115.132, 16.37134
1115.615, 16.32657
1116.097, 14.21016
1116.579, 13.43486
1117.061, 14.11555
1117.543, 14.69523
1118.025, 13.68107
1118.507, 12.46203
1118.989, 12.69263
1119.471, 13.80879
1119.953, 14.55777
1120.436, 14.70775
1120.918, 14.54648
1121.400, 13.96579
1121.882, 13.48539
1122.364, 13.86822
1122.846, 14.55297
1123.328, 14.41382
1123.810, 13.57968
1124.293, 13.12597
1124.775, 13.75537
1125.257, 14.31437
1125.739, 14.67455
1126.221, 14.78186
1126.703, 14.39045
1127.185, 13.68627
1127.667, 13.12474
1128.150, 12.75563
1128.632, 12.93252
1129.114, 14.72691
1129.596, 16.06550
1130.078, 15.98931
1130.560, 14.92941
1131.042, 14.01933
1131.524, 13.30021
1132.006, 13.13543
1132.489, 13.77790
1132.971, 14.29224
1133.453, 13.48432
1133.935, 12.78150
1134.417, 13.64322
1134.899, 15.93033
1135.381, 16.20683
1135.863, 14.48363
1136.346, 12.70968
1136.828, 11.46924
1137.310, 10.95156
1137.792, 12.11051
1138.274, 13.72161
1138.756, 14.01068
1139.238, 12.49847
1139.720, 11.61720
1140.203, 11.38076
1140.685, 11.64861
1141.167, 12.86143
1141.649, 14.09483
1142.131, 14.15600
1142.613, 13.35758
1143.095, 12.32111
1143.577, 10.47121
1144.059, 9.910244
1144.542, 11.01992
1145.024, 12.47358
1145.506, 13.07903
1145.988, 13.19875
1146.470, 13.60614
1146.952, 14.16347
1147.434, 14.18243
1147.916, 12.55028
1148.398, 11.71634
1148.881, 12.25581
1149.363, 13.20054
1149.845, 13.10077
1150.327, 12.46004
1150.809, 12.63240
1151.291, 13.68662
1151.773, 14.71419
1152.255, 15.92526
1152.738, 16.17251
1153.220, 14.64787
1153.702, 12.52473
1154.184, 12.26182
1154.666, 13.41335
1155.148, 14.21939
1155.630, 14.37532
1156.112, 14.33722
1156.594, 14.28834
1157.077, 14.15862
1157.559, 13.83139
1158.041, 13.43286
1158.523, 13.50207
1159.005, 13.96993
1159.487, 14.37177
1159.969, 14.67978
1160.451, 14.50464
1160.933, 12.71203
1161.416, 11.11346
1161.898, 11.28010
1162.380, 12.98581
1162.862, 13.61703
1163.344, 13.22415
1163.826, 13.18540
1164.308, 14.33806
1164.790, 15.39949
1165.273, 15.14807
1165.755, 14.40039
1166.237, 13.90915
1166.719, 13.62806
1167.201, 14.65147
1167.683, 17.10710
1168.165, 18.66605
1168.647, 17.44137
1169.130, 15.61004
1169.612, 15.07305
1170.094, 15.31682
1170.576, 15.56993
1171.058, 15.66089
1171.540, 16.24177
1172.022, 17.41103
1172.504, 18.30176
1172.986, 18.14990
1173.469, 17.53935
1173.951, 17.11972
1174.433, 16.74339
1174.915, 15.93172
1175.397, 13.98326
1175.879, 13.72522
1176.361, 15.65275
1176.843, 17.53371
1177.326, 16.73479
1177.808, 15.24462
1178.290, 15.84301
1178.772, 18.06420
1179.254, 19.71113
1179.736, 20.57816
1180.218, 20.71441
1180.700, 20.02791
1181.182, 18.94648
1181.665, 17.38438
1182.147, 16.02861
1182.629, 16.36449
1183.111, 18.13407
1183.593, 19.02162
1184.075, 17.95247
1184.557, 17.50665
1185.039, 18.28104
1185.521, 19.38042
1186.004, 19.65923
1186.486, 19.40472
1186.968, 18.90603
1187.450, 18.22573
1187.932, 18.00134
1188.414, 18.72968
1188.896, 19.16035
1189.378, 18.86853
1189.861, 18.40908
1190.343, 18.87817
1190.825, 19.75547
1191.307, 19.99832
1191.789, 19.39922
1192.271, 19.05476
1192.753, 19.25509
1193.235, 19.66636
1193.718, 20.36972
1194.200, 20.92978
1194.682, 20.06338
1195.164, 18.55117
1195.646, 18.08719
1196.128, 19.19922
1196.610, 20.19434
1197.092, 20.85605
1197.574, 21.11097
1198.057, 20.93802
1198.539, 20.32745
1199.021, 18.73532
1199.503, 16.78141
1199.985, 15.91398
1200.467, 16.69913
1200.949, 17.93255
1201.431, 19.94986
1201.913, 21.33852
1202.396, 21.23688
1202.878, 20.18423
1203.360, 19.30624
1203.842, 18.64498
1204.324, 18.32859
1204.806, 18.39961
1205.288, 18.83529
1205.770, 19.94245
1206.253, 20.82905
1206.735, 20.92811
1207.217, 20.46449
1207.699, 19.94691
1208.181, 19.42218
1208.663, 18.97526
1209.145, 18.50171
1209.627, 18.42431
1210.109, 18.92791
1210.592, 19.56437
1211.074, 20.19927
1211.556, 20.67065
1212.038, 20.15937
1212.520, 19.04292
1213.002, 18.41281
1213.484, 19.19230
1213.966, 19.60178
1214.448, 19.21959
1214.931, 18.84142
1215.413, 19.27253
1215.895, 20.13284
1216.377, 20.33586
1216.859, 20.02792
1217.341, 19.68776
1217.823, 19.52190
1218.305, 19.30028
1218.788, 19.04284
1219.270, 18.65106
1219.752, 17.85444
1220.234, 16.91807
1220.716, 16.58235
1221.198, 16.72567
1221.680, 16.89065
1222.162, 16.95847
1222.645, 16.95647
1223.127, 16.84335
1223.609, 16.76188
1224.091, 16.76460
1224.573, 16.93250
1225.055, 17.67369
1225.537, 18.77857
1226.019, 19.42926
1226.501, 18.84520
1226.984, 18.58349
1227.466, 18.89497
1227.948, 19.21852
1228.430, 19.05643
1228.912, 18.48034
1229.394, 17.11787
1229.876, 15.36518
1230.358, 14.91436
1230.841, 17.45015
1231.323, 18.76358
1231.805, 18.20330
1232.287, 17.16916
1232.769, 17.04248
1233.251, 17.42703
1233.733, 17.81919
1234.215, 18.16658
1234.698, 18.36063
1235.180, 18.38978
1235.662, 18.23845
1236.144, 17.85187
1236.626, 17.48999
1237.108, 17.67413
1237.590, 17.87725
1238.072, 17.14967
1238.554, 17.11867
1239.036, 16.90239
1239.519, 16.12497
1240.001, 16.36399
1240.483, 15.50064
1240.965, 14.89664
1241.447, 16.70715
1241.929, 18.90871
1242.411, 18.90027
1242.893, 17.17038
1243.376, 16.85179
1243.858, 18.53557
1244.340, 19.30551
1244.822, 18.70542
1245.304, 17.60849
1245.786, 16.36885
1246.268, 15.38730
1246.750, 15.22667
1247.233, 14.76005
1247.715, 14.66906
1248.197, 15.05997
1248.679, 15.07537
1249.161, 15.91963
1249.643, 16.72239
1250.125, 16.47507
1250.607, 16.12439
1251.089, 16.62442
1251.572, 16.32108
1252.054, 17.54480
1252.536, 16.59534
1253.018, 16.37457
1253.500, 17.15454
1253.982, 17.81891
1254.464, 17.36909
1254.946, 16.71578
1255.428, 16.53000
1255.911, 16.47822
1256.393, 15.56196
1256.875, 13.95942
1257.357, 13.50718
1257.839, 14.46720
1258.321, 15.46097
1258.803, 15.86541
1259.285, 15.79285
1259.768, 15.11494
1260.250, 14.23076
1260.732, 13.89030
1261.214, 14.01037
1261.696, 14.33184
1262.178, 14.81679
1262.660, 15.18621
1263.142, 15.30305
1263.625, 15.27973
1264.107, 15.12393
1264.589, 14.89277
1265.071, 14.56908
1265.553, 14.26756
1266.035, 14.47551
1266.517, 15.19017
1266.999, 15.29314
1267.481, 13.76872
1267.964, 12.72594
1268.446, 12.63547
1268.928, 13.07781
1269.410, 13.66557
1269.892, 14.27414
1270.374, 14.80312
1270.856, 15.21008
1271.338, 15.10459
1271.820, 14.30058
1272.303, 13.38958
1272.785, 12.34064
1273.267, 11.73426
1273.749, 12.71961
1274.231, 14.20799
1274.713, 15.02574
1275.195, 15.12070
1275.677, 14.86148
1276.160, 14.09827
1276.642, 14.03805
1277.124, 14.99868
1277.606, 15.78108
1278.088, 14.66050
1278.570, 13.40652
1279.052, 13.81975
1279.534, 15.28938
1280.016, 15.73806
1280.499, 15.13545
1280.981, 14.44793
1281.463, 13.77896
1281.945, 13.51586
1282.427, 14.48747
1282.909, 15.34431
1283.391, 15.14543
1283.873, 14.44262
1284.356, 14.31264
1284.838, 14.61557
1285.320, 14.33892
1285.802, 13.41040
1286.284, 12.76565
1286.766, 13.11782
1287.248, 13.61294
1287.730, 14.09854
1288.213, 14.41070
1288.695, 14.08930
1289.177, 13.46458
1289.659, 13.54330
1290.141, 14.30863
1290.623, 14.85855
1291.105, 14.67303
1291.587, 14.58790
1292.069, 14.71410
1292.552, 14.98160
1293.034, 15.68766
1293.516, 16.25202
1293.998, 15.36541
1294.480, 13.39124
1294.962, 12.65950
1295.444, 13.81751
1295.926, 14.50979
1296.408, 14.43761
1296.891, 14.17239
1297.373, 14.29574
1297.855, 14.42111
1298.337, 14.05527
1298.819, 13.42166
1299.301, 13.11910
1299.783, 13.15010
1300.265, 13.78491
1300.748, 15.04803
1301.230, 15.47126
1301.712, 12.83532
1302.194, 10.37958
1302.676, 9.571518
##END=



