##NAMES=Chalcopyrite
##RRUFFID=R050559
##IDEAL CHEMISTRY=Cu^1+^Fe^3+^S^2-^_2_
##LOCALITY=Recuerdo Vein, Haunzala mine, Huallanca District, Dos de Mayo Province, Huanuco Department, Peru
##OWNER=RRUFF
##SOURCE=Dave Bunk Minerals
##DESCRIPTION=Brass-yellow striated crystals
##STATUS=The identification of this mineral has been confirmed by X-ray diffraction and chemical analysis
##URL=rruff.info/R050559
##MEASURED CHEMISTRY=Cu^1+^_1.00_Fe^3+^_1.00_S_2.00_
92.06543, 197.2910
92.54755, 199.0208
93.02966, 200.3922
93.51178, 198.7134
93.99390, 195.6160
94.47601, 191.9285
94.95813, 187.8852
95.44025, 183.2974
95.92236, 177.8759
96.40448, 171.4429
96.88660, 166.4051
97.36871, 163.0988
97.85082, 160.6947
98.33294, 158.9367
98.81506, 157.6745
99.29717, 156.0169
99.77929, 153.6702
100.2614, 150.7792
100.7435, 147.4431
101.2256, 142.3041
101.7078, 136.6814
102.1899, 134.0711
102.6720, 136.6024
103.1541, 140.3808
103.6362, 141.7222
104.1183, 140.6801
104.6005, 138.8202
105.0826, 137.4573
105.5647, 136.7074
106.0468, 135.4481
106.5289, 133.6726
107.0110, 131.1352
107.4931, 127.0087
107.9753, 121.0983
108.4574, 114.9262
108.9395, 111.7212
109.4216, 114.3629
109.9037, 115.5574
110.3858, 113.5054
110.8680, 110.1269
111.3501, 107.3737
111.8322, 106.2987
112.3143, 106.7096
112.7964, 107.4552
113.2785, 108.8977
113.7607, 110.2593
114.2428, 111.5430
114.7249, 112.6193
115.2070, 113.2096
115.6891, 113.0696
116.1712, 112.1553
116.6534, 111.0765
117.1355, 109.8639
117.6176, 108.4766
118.0997, 106.5148
118.5818, 103.8748
119.0639, 101.8303
119.5461, 102.3268
120.0282, 104.5608
120.5103, 106.1657
120.9924, 105.9302
121.4745, 104.5973
121.9566, 104.0299
122.4388, 105.0459
122.9209, 105.7929
123.4030, 105.0261
123.8851, 102.9898
124.3672, 100.5046
124.8493, 97.85046
125.3315, 94.93785
125.8136, 93.05866
126.2957, 93.32563
126.7778, 93.96037
127.2599, 94.44186
127.7420, 94.62532
128.2242, 94.50600
128.7063, 93.94431
129.1884, 92.29222
129.6705, 91.60049
130.1526, 93.12126
130.6347, 94.70246
131.1169, 94.52324
131.5990, 92.03572
132.0811, 88.25215
132.5632, 85.39005
133.0453, 83.40054
133.5274, 82.49471
134.0096, 83.54785
134.4917, 85.53948
134.9738, 87.07273
135.4559, 87.51791
135.9380, 87.05754
136.4201, 86.25312
136.9023, 84.47094
137.3844, 83.21210
137.8665, 83.49249
138.3486, 85.00625
138.8307, 86.40781
139.3128, 87.10402
139.7950, 87.05029
140.2771, 86.36758
140.7592, 84.78467
141.2413, 82.85442
141.7234, 80.89742
142.2055, 78.78707
142.6877, 77.35800
143.1698, 77.56953
143.6519, 78.60018
144.1340, 79.66203
144.6161, 80.67202
145.0982, 81.39597
145.5803, 81.05910
146.0625, 78.69926
146.5446, 76.81612
147.0267, 76.58313
147.5088, 77.29809
147.9909, 77.84230
148.4730, 77.36843
148.9552, 75.96099
149.4373, 75.35787
149.9194, 76.69349
150.4015, 77.84275
150.8836, 78.34357
151.3657, 78.21036
151.8479, 77.58332
152.3300, 76.48104
152.8121, 74.66086
153.2942, 73.90846
153.7763, 74.98310
154.2584, 76.21191
154.7406, 76.88585
155.2227, 76.89670
155.7048, 76.39445
156.1869, 75.41623
156.6690, 73.64001
157.1511, 72.78603
157.6333, 73.85088
158.1154, 75.26315
158.5975, 75.46870
159.0796, 74.11445
159.5617, 72.27407
160.0438, 71.38113
160.5260, 71.46203
161.0081, 71.51978
161.4902, 71.06291
161.9723, 70.47865
162.4544, 70.59856
162.9365, 71.86496
163.4187, 73.36673
163.9008, 74.09079
164.3829, 74.08463
164.8650, 73.76039
165.3471, 73.30556
165.8292, 72.71502
166.3113, 71.88620
166.7935, 70.24546
167.2756, 68.92834
167.7577, 68.89729
168.2398, 70.15682
168.7219, 71.78445
169.2040, 73.08569
169.6862, 74.10819
170.1683, 74.46028
170.6504, 73.52063
171.1325, 72.24150
171.6146, 70.86842
172.0967, 69.52668
172.5789, 68.55895
173.0610, 68.64336
173.5431, 70.58764
174.0252, 71.72297
174.5073, 71.58601
174.9894, 70.91978
175.4716, 70.17300
175.9537, 69.51555
176.4358, 68.93180
176.9179, 68.37200
177.4000, 67.48412
177.8821, 67.17271
178.3643, 67.84309
178.8464, 68.90388
179.3285, 69.92251
179.8106, 70.72396
180.2927, 71.14056
180.7748, 70.66683
181.2570, 68.11918
181.7391, 66.15175
182.2212, 65.24761
182.7033, 65.06348
183.1854, 65.18253
183.6675, 65.47298
184.1497, 65.81343
184.6318, 65.78562
185.1139, 65.26464
185.5960, 64.67716
186.0781, 64.17430
186.5602, 63.72081
187.0423, 63.17435
187.5245, 62.36944
188.0066, 61.53878
188.4887, 61.20882
188.9708, 61.62446
189.4529, 62.09688
189.9350, 62.02534
190.4172, 61.48471
190.8993, 61.33440
191.3814, 62.33246
191.8635, 63.74347
192.3456, 63.38921
192.8277, 64.21902
193.3099, 64.40410
193.7920, 63.97934
194.2741, 61.11768
194.7562, 61.40277
195.2383, 60.42678
195.7204, 59.39908
196.2026, 60.12692
196.6847, 57.61971
197.1668, 58.31985
197.6489, 57.73966
198.1310, 57.57904
198.6131, 57.89553
199.0953, 58.00871
199.5774, 57.97939
200.0595, 57.75474
200.5416, 57.27833
201.0237, 56.81515
201.5058, 57.03046
201.9880, 58.48176
202.4701, 59.62001
202.9522, 60.26125
203.4343, 60.46780
203.9164, 60.08673
204.3985, 59.02299
204.8807, 57.72795
205.3628, 57.60899
205.8449, 59.81104
206.3270, 61.78971
206.8091, 63.68082
207.2912, 65.07027
207.7733, 65.36607
208.2555, 64.24491
208.7376, 62.11581
209.2197, 60.49558
209.7018, 59.40720
210.1839, 58.86079
210.6660, 59.13912
211.1482, 59.91043
211.6303, 60.87780
212.1124, 61.94318
212.5945, 62.89203
213.0766, 62.78526
213.5587, 60.09040
214.0409, 58.21931
214.5230, 58.23199
215.0051, 59.49209
215.4872, 61.02119
215.9693, 62.46238
216.4514, 63.61209
216.9336, 63.57265
217.4157, 61.49862
217.8978, 59.62752
218.3799, 58.57939
218.8620, 58.27402
219.3441, 58.63981
219.8263, 59.89502
220.3084, 61.53117
220.7905, 62.12054
221.2726, 60.98771
221.7547, 60.09566
222.2368, 60.90585
222.7190, 62.93977
223.2011, 64.16706
223.6832, 63.41410
224.1653, 61.57433
224.6474, 60.42773
225.1295, 60.04062
225.6117, 60.14711
226.0938, 60.95036
226.5759, 62.31997
227.0580, 63.07084
227.5401, 62.33321
228.0222, 61.06579
228.5043, 60.50390
228.9865, 60.81480
229.4686, 61.40498
229.9507, 61.87445
230.4328, 62.22267
230.9149, 62.39548
231.3970, 62.07470
231.8792, 61.79551
232.3613, 62.08839
232.8434, 63.04735
233.3255, 64.13793
233.8076, 65.10580
234.2897, 66.02599
234.7719, 65.92613
235.2540, 63.12767
235.7361, 60.19279
236.2182, 58.73519
236.7003, 58.97363
237.1824, 60.05738
237.6646, 61.24881
238.1467, 62.62324
238.6288, 63.71107
239.1109, 64.48069
239.5930, 64.90684
240.0751, 64.58057
240.5573, 63.61251
241.0394, 62.93686
241.5215, 64.02298
242.0036, 67.65266
242.4857, 69.84605
242.9678, 69.46300
243.4500, 68.35837
243.9321, 66.97346
244.4142, 65.58981
244.8963, 64.70767
245.3784, 65.09428
245.8605, 67.27634
246.3427, 68.78928
246.8248, 69.66819
247.3069, 69.91431
247.7890, 69.15341
248.2711, 67.59068
248.7532, 66.00092
249.2354, 65.24076
249.7175, 65.57806
250.1996, 65.61600
250.6817, 64.86184
251.1638, 64.27634
251.6459, 64.33581
252.1281, 65.01861
252.6102, 66.05372
253.0923, 67.28296
253.5744, 68.87758
254.0565, 69.50122
254.5386, 68.58231
255.0208, 67.41396
255.5029, 66.39961
255.9850, 65.63150
256.4671, 65.13554
256.9492, 64.96425
257.4313, 65.15780
257.9135, 65.21172
258.3956, 65.39940
258.8777, 65.23255
259.3598, 63.97511
259.8419, 62.07203
260.3240, 60.85310
260.8062, 61.44276
261.2883, 63.82790
261.7704, 65.35091
262.2525, 65.85174
262.7346, 65.90085
263.2167, 65.52583
263.6989, 64.85927
264.1810, 64.07277
264.6631, 63.14142
265.1452, 62.21907
265.6273, 62.70184
266.1094, 66.06481
266.5916, 68.94878
267.0737, 69.72909
267.5558, 69.07696
268.0379, 68.54214
268.5200, 68.87827
269.0021, 70.06055
269.4843, 72.04398
269.9664, 75.18685
270.4485, 78.48967
270.9306, 82.32813
271.4127, 86.09126
271.8948, 88.20502
272.3770, 87.65252
272.8591, 85.63929
273.3412, 85.42302
273.8233, 87.69068
274.3054, 89.84126
274.7875, 90.88235
275.2697, 91.28377
275.7518, 91.96858
276.2339, 93.31773
276.7160, 94.92357
277.1981, 96.06398
277.6802, 96.84940
278.1623, 97.10242
278.6444, 96.16594
279.1266, 94.79205
279.6087, 94.14339
280.0908, 94.45901
280.5729, 95.76389
281.0550, 98.79800
281.5371, 103.6322
282.0193, 107.3462
282.5014, 108.5780
282.9835, 108.4688
283.4656, 108.7177
283.9477, 109.6881
284.4298, 110.5488
284.9120, 110.0401
285.3941, 108.3957
285.8762, 107.4871
286.3583, 108.8108
286.8404, 110.5567
287.3225, 110.2441
287.8047, 107.4795
288.2868, 104.3139
288.7689, 102.7536
289.2510, 102.1881
289.7331, 100.3500
290.2152, 95.88638
290.6974, 90.59476
291.1795, 86.40459
291.6616, 83.38273
292.1437, 80.35302
292.6258, 76.31413
293.1079, 71.79128
293.5901, 67.99162
294.0722, 65.22950
294.5543, 63.00389
295.0364, 61.10511
295.5185, 59.49883
296.0006, 57.65010
296.4828, 54.99390
296.9649, 52.15271
297.4470, 50.08181
297.9291, 48.76600
298.4112, 48.32758
298.8933, 49.57955
299.3755, 52.13211
299.8576, 53.51104
300.3397, 52.38549
300.8218, 50.22791
301.3039, 49.15277
301.7860, 49.30058
302.2682, 49.46333
302.7503, 48.77579
303.2324, 47.52844
303.7145, 46.77556
304.1966, 46.90163
304.6787, 47.31467
305.1609, 47.39155
305.6430, 47.17115
306.1251, 46.93787
306.6072, 46.72248
307.0893, 46.59180
307.5714, 46.79026
308.0536, 47.49894
308.5357, 48.10226
309.0178, 48.01461
309.4999, 47.40669
309.9820, 46.63963
310.4641, 45.25624
310.9463, 44.00685
311.4284, 44.35390
311.9105, 46.63447
312.3926, 48.78289
312.8747, 49.30228
313.3568, 48.78078
313.8390, 48.15807
314.3211, 47.33529
314.8032, 46.76374
315.2853, 47.16893
315.7674, 48.57441
316.2495, 49.64874
316.7317, 49.60736
317.2138, 48.95736
317.6959, 48.54809
318.1780, 48.57609
318.6601, 48.48223
319.1422, 47.44814
319.6243, 45.70227
320.1064, 44.99693
320.5886, 46.46389
321.0707, 48.54832
321.5528, 49.33078
322.0349, 48.77233
322.5170, 47.78535
322.9991, 46.54277
323.4813, 45.22816
323.9634, 44.35866
324.4455, 44.07019
324.9276, 44.16991
325.4097, 44.73947
325.8918, 45.64988
326.3740, 46.12833
326.8561, 45.58907
327.3382, 44.56074
327.8203, 43.92751
328.3024, 43.82574
328.7845, 43.72153
329.2667, 42.79946
329.7488, 41.56805
330.2309, 41.37621
330.7130, 43.65636
331.1951, 46.24238
331.6772, 46.63764
332.1594, 44.88019
332.6415, 43.41399
333.1236, 43.82921
333.6057, 45.23140
334.0878, 45.59671
334.5699, 44.34753
335.0521, 43.00901
335.5342, 42.53334
336.0163, 42.79275
336.4984, 43.36296
336.9805, 44.43420
337.4626, 45.26167
337.9448, 44.44638
338.4269, 41.73450
338.9090, 39.44225
339.3911, 38.89375
339.8732, 39.31157
340.3553, 39.11124
340.8375, 37.84035
341.3196, 36.50415
341.8017, 36.30497
342.2838, 37.13244
342.7659, 38.09689
343.2480, 39.19450
343.7302, 40.25830
344.2123, 41.18288
344.6944, 41.95146
345.1765, 42.36115
345.6586, 42.15872
346.1407, 41.41529
346.6229, 40.80215
347.1050, 40.40229
347.5871, 40.06713
348.0692, 39.64713
348.5513, 39.19950
349.0334, 38.96578
349.5156, 39.12707
349.9977, 39.51402
350.4798, 39.64784
350.9619, 39.40196
351.4440, 39.20910
351.9261, 39.38518
352.4083, 39.66381
352.8904, 39.44872
353.3725, 38.49339
353.8546, 37.51362
354.3367, 37.76881
354.8188, 39.80621
355.3010, 40.68546
355.7831, 39.11477
356.2652, 36.91845
356.7473, 35.70150
357.2294, 35.64318
357.7115, 36.06903
358.1937, 36.52898
358.6758, 37.01855
359.1579, 36.77000
359.6400, 34.83952
360.1221, 33.15992
360.6042, 32.71849
361.0863, 33.30629
361.5685, 34.35445
362.0506, 35.62583
362.5327, 36.97333
363.0148, 37.76744
363.4969, 37.73296
363.9790, 37.53426
364.4612, 37.06137
364.9433, 36.54844
365.4254, 36.41257
365.9075, 36.77057
366.3896, 37.15129
366.8717, 36.74230
367.3539, 34.87313
367.8360, 33.75290
368.3181, 33.48861
368.8002, 33.82686
369.2823, 35.04603
369.7644, 36.86804
370.2466, 38.24965
370.7287, 38.07906
371.2108, 36.19197
371.6929, 35.68327
372.1750, 38.55583
372.6571, 40.56658
373.1393, 39.94349
373.6214, 37.66858
374.1035, 35.43361
374.5856, 34.15259
375.0677, 33.68082
375.5498, 33.58839
376.0320, 34.37077
376.5141, 34.79182
376.9962, 34.53154
377.4783, 34.02256
377.9604, 33.61710
378.4425, 33.40997
378.9247, 33.30156
379.4068, 33.14255
379.8889, 32.88063
380.3710, 32.75466
380.8531, 32.82270
381.3352, 32.97500
381.8174, 33.04629
382.2995, 33.14465
382.7816, 33.64693
383.2637, 35.10468
383.7458, 37.21619
384.2279, 37.77106
384.7101, 35.75281
385.1922, 33.64820
385.6743, 31.95123
386.1564, 30.70633
386.6385, 29.95096
387.1206, 29.71924
387.6028, 29.93791
388.0849, 30.59584
388.5670, 31.80076
389.0491, 32.92629
389.5312, 34.06075
390.0133, 34.89065
390.4955, 35.10862
390.9776, 34.72350
391.4597, 34.13733
391.9418, 33.62643
392.4239, 33.17225
392.9060, 32.62528
393.3882, 31.78828
393.8703, 31.20475
394.3524, 31.45050
394.8345, 32.18422
395.3166, 32.67399
395.7987, 32.57295
396.2809, 32.15369
396.7630, 31.73135
397.2451, 31.29714
397.7272, 30.95435
398.2093, 30.81561
398.6914, 30.75609
399.1736, 30.56725
399.6557, 30.20130
400.1378, 29.83527
400.6199, 29.31460
401.1020, 28.86641
401.5841, 29.37183
402.0662, 31.35957
402.5483, 33.33723
403.0305, 33.14069
403.5126, 30.93340
403.9947, 29.37087
404.4768, 29.29859
404.9589, 29.82017
405.4410, 30.31953
405.9232, 30.70184
406.4053, 30.64241
406.8874, 29.75108
407.3695, 28.28976
407.8516, 27.59371
408.3337, 28.30542
408.8159, 28.92450
409.2980, 28.41220
409.7801, 27.64347
410.2622, 28.43594
410.7443, 31.47215
411.2264, 34.96376
411.7086, 35.96785
412.1907, 33.03741
412.6728, 31.06422
413.1549, 30.29730
413.6370, 30.24673
414.1191, 30.97834
414.6013, 32.21753
415.0834, 33.19059
415.5655, 33.25596
416.0476, 32.46668
416.5297, 31.74143
417.0118, 30.90519
417.4940, 30.34728
417.9761, 30.21334
418.4582, 30.36651
418.9403, 30.70740
419.4224, 31.18824
419.9045, 31.66938
420.3867, 31.91920
420.8688, 31.92215
421.3509, 31.72096
421.8330, 30.81930
422.3151, 30.14724
422.7972, 30.42167
423.2794, 31.45490
423.7615, 32.43316
424.2436, 32.67210
424.7257, 32.29576
425.2078, 32.20226
425.6899, 32.75695
426.1721, 32.93649
426.6542, 32.28341
427.1363, 31.14116
427.6184, 29.67230
428.1005, 27.76516
428.5826, 26.37633
429.0648, 27.27846
429.5469, 30.52497
430.0290, 32.37879
430.5111, 31.26760
430.9932, 29.30625
431.4753, 28.31569
431.9575, 28.22130
432.4396, 28.39123
432.9217, 28.64800
433.4038, 28.93835
433.8859, 29.16997
434.3680, 29.33379
434.8502, 29.50045
435.3323, 29.90491
435.8144, 30.27774
436.2965, 29.88582
436.7786, 27.94911
437.2607, 26.38994
437.7429, 26.51050
438.2250, 27.76538
438.7071, 29.03554
439.1892, 30.04415
439.6713, 30.61533
440.1534, 30.30758
440.6356, 28.76174
441.1177, 28.03437
441.5998, 28.93931
442.0819, 30.13942
442.5640, 30.70727
443.0461, 30.66365
443.5282, 30.49416
444.0103, 30.54291
444.4925, 30.71462
444.9746, 30.46295
445.4567, 29.40368
445.9388, 28.38970
446.4209, 27.23678
446.9030, 26.31638
447.3852, 26.08210
447.8673, 26.61193
448.3494, 27.50427
448.8315, 28.33749
449.3136, 29.21490
449.7957, 29.50345
450.2779, 28.40560
450.7600, 27.49854
451.2421, 27.67081
451.7242, 28.39266
452.2063, 28.48950
452.6884, 27.16702
453.1706, 25.27242
453.6527, 24.96201
454.1348, 26.77439
454.6169, 28.46966
455.0990, 29.90875
455.5811, 30.74009
456.0633, 30.42501
456.5454, 28.99116
457.0275, 27.43421
457.5096, 26.04869
457.9917, 25.07904
458.4738, 25.79415
458.9560, 29.03606
459.4381, 31.79151
459.9202, 31.37523
460.4023, 29.14218
460.8844, 27.51239
461.3665, 26.97299
461.8487, 27.02610
462.3308, 27.48958
462.8129, 28.27131
463.2950, 29.15734
463.7771, 30.21617
464.2592, 30.98629
464.7414, 30.59627
465.2235, 28.82562
465.7056, 27.55197
466.1877, 27.19988
466.6698, 27.24602
467.1519, 27.28576
467.6341, 27.32774
468.1162, 27.68967
468.5983, 28.68619
469.0804, 30.00702
469.5625, 30.17657
470.0446, 27.66073
470.5268, 25.92969
471.0089, 25.74661
471.4910, 26.17104
471.9731, 26.39069
472.4552, 26.22012
472.9373, 25.86856
473.4195, 25.48397
473.9016, 25.02330
474.3837, 25.12663
474.8658, 26.72214
475.3479, 27.85254
475.8300, 27.33276
476.3122, 26.20779
476.7943, 26.14347
477.2764, 27.93680
477.7585, 30.29026
478.2406, 31.15520
478.7227, 30.36991
479.2049, 29.49366
479.6870, 28.48756
480.1691, 27.80498
480.6512, 27.86460
481.1333, 28.54933
481.6154, 29.29394
482.0976, 30.16547
482.5797, 30.78877
483.0618, 30.29878
483.5439, 28.65365
484.0260, 27.32515
484.5081, 27.14456
484.9902, 27.65605
485.4724, 27.83773
485.9545, 27.57915
486.4366, 27.34363
486.9187, 27.22381
487.4008, 27.24597
487.8829, 27.56446
488.3651, 28.17022
488.8472, 28.64658
489.3293, 28.60324
489.8114, 28.04428
490.2935, 27.53798
490.7756, 26.58802
491.2578, 26.25159
491.7399, 27.51087
492.2220, 29.30452
492.7041, 30.10361
493.1862, 29.43214
493.6683, 28.20123
494.1505, 27.73427
494.6326, 28.21459
495.1147, 28.73471
495.5968, 29.86523
496.0789, 30.45965
496.5610, 29.59044
497.0432, 27.93099
497.5253, 26.79432
498.0074, 26.92600
498.4895, 27.71949
498.9716, 28.07540
499.4537, 27.93478
499.9359, 27.70231
500.4180, 27.14120
500.9001, 26.83956
501.3822, 27.54296
501.8643, 29.12119
502.3464, 30.28204
502.8286, 30.56061
503.3107, 29.99937
503.7928, 28.19065
504.2749, 25.13697
504.7570, 22.78810
505.2391, 22.33417
505.7213, 23.17571
506.2034, 23.67296
506.6855, 23.49502
507.1676, 23.76925
507.6497, 25.49561
508.1318, 27.45397
508.6140, 28.01821
509.0961, 27.10094
509.5782, 26.13151
510.0603, 26.47373
510.5424, 28.00986
511.0245, 28.24642
511.5067, 25.49159
511.9888, 23.48211
512.4709, 22.96479
512.9530, 23.43054
513.4351, 24.64264
513.9172, 26.39630
514.3994, 27.92892
514.8815, 28.16147
515.3636, 26.96683
515.8457, 26.20609
516.3278, 26.16643
516.8099, 26.19151
517.2921, 26.06468
517.7742, 25.80906
518.2563, 25.45266
518.7384, 24.98685
519.2205, 24.47758
519.7026, 23.82532
520.1848, 23.10730
520.6669, 23.09441
521.1490, 24.33911
521.6311, 25.52699
522.1132, 24.66955
522.5953, 22.27256
523.0775, 21.32736
523.5596, 24.04580
524.0417, 26.85008
524.5238, 26.81031
525.0059, 24.76678
525.4880, 23.23648
525.9702, 23.27266
526.4523, 24.10574
526.9344, 24.43436
527.4165, 24.01474
527.8986, 23.69178
528.3807, 22.93184
528.8629, 22.74972
529.3450, 24.25998
529.8271, 26.78041
530.3092, 28.75229
530.7913, 29.28717
531.2734, 28.80822
531.7556, 28.29617
532.2377, 27.73458
532.7198, 27.19037
533.2019, 27.06984
533.6840, 26.63553
534.1661, 24.82552
534.6483, 22.13225
535.1304, 20.61248
535.6125, 22.40200
536.0946, 25.47307
536.5767, 25.62559
537.0588, 22.67587
537.5410, 20.77736
538.0231, 22.07034
538.5052, 24.76667
538.9873, 26.10301
539.4694, 26.01278
539.9515, 25.50463
540.4337, 24.15149
540.9158, 22.98458
541.3979, 23.34711
541.8800, 25.03098
542.3621, 26.65174
542.8442, 27.40752
543.3264, 27.38224
543.8085, 26.83777
544.2906, 24.61662
544.7726, 23.52824
545.2548, 24.63059
545.7369, 26.07525
546.2190, 26.49117
546.7011, 25.90236
547.1832, 25.09287
547.6653, 24.61444
548.1475, 24.41961
548.6296, 24.35798
549.1117, 24.49836
549.5938, 24.59025
550.0759, 24.53390
550.5580, 24.41803
551.0402, 24.17279
551.5223, 23.83136
552.0044, 23.84729
552.4865, 24.97321
552.9686, 26.44830
553.4507, 26.70376
553.9329, 25.67064
554.4150, 24.86173
554.8971, 25.21921
555.3792, 26.20116
555.8613, 26.38374
556.3434, 25.50922
556.8256, 24.66246
557.3077, 23.82772
557.7898, 23.25842
558.2719, 23.27943
558.7540, 23.83267
559.2361, 24.66411
559.7183, 25.68892
560.2004, 26.67329
560.6825, 26.55752
561.1646, 24.34008
561.6467, 22.72912
562.1288, 21.74304
562.6110, 21.54710
563.0931, 22.62835
563.5752, 24.73190
564.0573, 26.81152
564.5394, 28.36204
565.0215, 29.25111
565.5037, 28.88209
565.9858, 27.03149
566.4679, 25.34581
566.9500, 24.26372
567.4321, 23.81409
567.9142, 24.12061
568.3964, 25.24861
568.8785, 26.17025
569.3606, 26.47708
569.8427, 26.45875
570.3248, 26.23646
570.8069, 25.91737
571.2891, 25.94375
571.7712, 26.62045
572.2533, 27.59952
572.7354, 28.02731
573.2175, 27.89872
573.6996, 27.14965
574.1818, 24.60387
574.6639, 22.51133
575.1460, 22.75108
575.6281, 24.62473
576.1102, 26.09500
576.5923, 25.93586
577.0745, 24.78269
577.5566, 24.10294
578.0387, 24.08077
578.5208, 23.42443
579.0029, 20.57594
579.4850, 18.46026
579.9672, 20.03986
580.4493, 24.40523
580.9314, 27.60555
581.4135, 27.48013
581.8956, 26.17510
582.3777, 25.68654
582.8599, 25.80090
583.3420, 25.65354
583.8241, 24.91505
584.3062, 23.96790
584.7883, 23.25504
585.2704, 22.72072
585.7526, 22.82673
586.2347, 24.17731
586.7168, 25.47857
587.1989, 26.25396
587.6810, 26.58656
588.1631, 26.50197
588.6453, 26.04547
589.1274, 25.68930
589.6095, 26.37008
590.0916, 28.31062
590.5737, 29.15774
591.0558, 28.34311
591.5380, 27.19464
592.0201, 26.23172
592.5022, 25.39967
592.9843, 24.48887
593.4664, 23.26186
593.9485, 22.67262
594.4307, 24.36252
594.9128, 27.11206
595.3949, 27.71212
595.8770, 25.58134
596.3591, 23.20313
596.8412, 22.34283
597.3234, 22.88003
597.8055, 23.99768
598.2876, 26.74721
598.7697, 28.60089
599.2518, 28.89619
599.7339, 28.28394
600.2161, 27.01468
600.6982, 25.36921
601.1803, 24.06254
601.6624, 23.73272
602.1445, 24.14209
602.6266, 24.11039
603.1088, 23.24895
603.5909, 22.96246
604.0730, 24.00899
604.5551, 25.49131
605.0372, 27.06637
605.5193, 28.60593
606.0015, 29.41983
606.4836, 28.68025
606.9657, 27.36322
607.4478, 26.74030
607.9299, 26.70002
608.4120, 26.34920
608.8942, 25.19622
609.3763, 24.06225
609.8584, 24.36326
610.3405, 26.80099
610.8226, 28.04676
611.3047, 27.17478
611.7869, 26.13256
612.2690, 25.83437
612.7511, 25.97655
613.2332, 25.91457
613.7153, 25.41287
614.1974, 24.87244
614.6796, 24.96323
615.1617, 25.73756
615.6438, 26.04234
616.1259, 25.66218
616.6080, 25.13003
617.0901, 24.54176
617.5723, 24.03160
618.0544, 23.84094
618.5365, 24.07469
619.0186, 24.38111
619.5007, 24.46399
619.9828, 24.52786
620.4650, 25.02264
620.9471, 25.94790
621.4292, 26.72709
621.9113, 26.96058
622.3934, 26.76431
622.8755, 26.58688
623.3577, 26.86300
623.8398, 26.49754
624.3219, 24.70801
624.8040, 22.94577
625.2861, 22.20755
625.7682, 22.36565
626.2504, 22.77247
626.7325, 23.09057
627.2145, 23.35991
627.6967, 23.69276
628.1788, 24.09976
628.6609, 24.26371
629.1430, 23.88067
629.6251, 23.62292
630.1072, 24.27018
630.5894, 25.58767
631.0715, 26.76682
631.5536, 28.05941
632.0357, 28.78722
632.5178, 28.04621
632.9999, 26.71458
633.4821, 26.32125
633.9642, 27.13142
634.4463, 28.14385
634.9284, 28.43041
635.4105, 28.02302
635.8926, 27.35806
636.3748, 26.23812
636.8569, 25.17627
637.3390, 23.83176
637.8211, 22.88052
638.3032, 23.11673
638.7853, 24.42651
639.2675, 25.70603
639.7496, 26.11558
640.2317, 26.16825
640.7138, 27.01803
641.1959, 28.53460
641.6780, 28.86014
642.1602, 26.98433
642.6423, 24.62637
643.1244, 24.14544
643.6065, 25.96972
644.0886, 27.10972
644.5707, 27.23694
645.0529, 27.04926
645.5350, 26.61712
646.0171, 26.13496
646.4992, 25.77280
646.9813, 25.60721
647.4634, 25.76293
647.9456, 26.56785
648.4277, 27.91735
648.9098, 28.52093
649.3919, 28.19724
649.8740, 27.57320
650.3561, 26.43146
650.8383, 25.40369
651.3204, 25.21875
651.8025, 25.93395
652.2846, 27.03675
652.7667, 28.75414
653.2488, 30.44964
653.7310, 31.79752
654.2131, 32.59698
654.6952, 32.06760
655.1773, 29.82512
655.6594, 27.06297
656.1415, 25.70974
656.6237, 26.14586
657.1058, 26.23355
657.5879, 25.29403
658.0700, 24.75819
658.5521, 25.22115
659.0342, 26.20817
659.5164, 27.30477
659.9985, 28.39676
660.4806, 28.96795
660.9627, 28.26829
661.4448, 26.81501
661.9269, 25.63657
662.4091, 24.78517
662.8912, 24.78040
663.3733, 26.23670
663.8554, 28.14234
664.3375, 28.35250
664.8196, 25.90353
665.3018, 24.55137
665.7839, 24.89915
666.2660, 25.83055
666.7481, 27.37169
667.2302, 28.90509
667.7123, 29.31179
668.1945, 28.21275
668.6766, 26.73273
669.1587, 26.40506
669.6408, 27.13072
670.1229, 27.26571
670.6050, 26.48132
671.0872, 25.97103
671.5693, 26.55088
672.0514, 27.65579
672.5335, 28.26699
673.0156, 28.24276
673.4977, 28.35723
673.9799, 29.42155
674.4620, 30.23386
674.9441, 29.17402
675.4262, 26.99159
675.9083, 25.99747
676.3904, 27.21825
676.8726, 29.26776
677.3547, 29.82739
677.8368, 28.60284
678.3189, 27.83322
678.8010, 27.64688
679.2831, 27.74385
679.7653, 28.31704
680.2474, 28.93418
680.7295, 28.96287
681.2116, 28.25388
681.6937, 27.61766
682.1758, 27.57260
682.6580, 27.80850
683.1401, 27.96426
683.6222, 28.02346
684.1043, 28.03437
684.5864, 28.01310
685.0685, 27.98217
685.5507, 27.92329
686.0328, 27.65924
686.5149, 28.07348
686.9970, 30.87208
687.4791, 32.41037
687.9612, 30.30475
688.4434, 26.96414
688.9255, 25.54667
689.4076, 26.75345
689.8897, 28.33781
690.3718, 28.46105
690.8539, 27.80204
691.3361, 27.68340
691.8182, 28.12674
692.3003, 28.69781
692.7824, 29.28322
693.2645, 29.70641
693.7466, 29.61558
694.2288, 28.76691
694.7109, 28.43430
695.1930, 29.03536
695.6751, 29.62952
696.1572, 30.06959
696.6393, 30.22721
697.1215, 29.73189
697.6036, 28.60781
698.0857, 27.75689
698.5678, 28.50989
699.0499, 30.06776
699.5320, 29.59361
700.0142, 26.95213
700.4963, 25.57687
700.9784, 27.18703
701.4605, 29.79734
701.9426, 30.69321
702.4247, 29.60386
702.9069, 28.73122
703.3890, 27.87488
703.8711, 27.50055
704.3532, 28.02585
704.8353, 29.01158
705.3174, 30.16920
705.7996, 31.28996
706.2817, 31.86526
706.7638, 31.35658
707.2459, 30.00363
707.7280, 28.33984
708.2101, 26.26250
708.6923, 24.89388
709.1743, 24.63325
709.6564, 25.05939
710.1385, 25.84511
710.6207, 26.97020
711.1028, 28.19402
711.5849, 29.89170
712.0670, 31.22885
712.5491, 31.85647
713.0313, 31.97172
713.5134, 31.70746
713.9955, 31.14626
714.4776, 30.43735
714.9597, 29.65619
715.4418, 28.86729
715.9240, 28.03541
716.4061, 27.03209
716.8882, 27.31534
717.3703, 30.03493
717.8524, 32.70141
718.3345, 33.03003
718.8167, 31.59304
719.2988, 30.30849
719.7809, 29.26471
720.2630, 28.48921
720.7451, 27.86267
721.2272, 27.59659
721.7094, 28.20850
722.1915, 29.44223
722.6736, 30.29192
723.1557, 30.11838
723.6378, 29.47675
724.1199, 29.48536
724.6021, 30.18992
725.0842, 30.99506
725.5663, 31.93830
726.0484, 32.80333
726.5305, 33.76920
727.0126, 34.45809
727.4948, 33.95503
727.9769, 31.71303
728.4590, 29.82612
728.9411, 29.25126
729.4232, 28.99135
729.9053, 28.14184
730.3875, 26.91439
730.8696, 25.99589
731.3517, 25.67676
731.8338, 25.67747
732.3159, 25.47934
732.7980, 25.08572
733.2802, 25.63078
733.7623, 27.49532
734.2444, 29.23431
734.7265, 30.35377
735.2086, 30.93209
735.6907, 31.09278
736.1729, 30.82615
736.6550, 30.30806
737.1371, 29.32074
737.6192, 28.34840
738.1013, 27.51182
738.5834, 26.94335
739.0656, 26.91505
739.5477, 27.43858
740.0298, 28.15409
740.5119, 28.83845
740.9940, 29.36684
741.4761, 29.01497
741.9583, 27.54179
742.4404, 26.58462
742.9225, 26.62694
743.4046, 27.23962
743.8867, 28.25310
744.3688, 29.55766
744.8510, 30.49473
745.3331, 30.71996
745.8152, 30.93656
746.2973, 31.53263
746.7794, 32.12435
747.2615, 32.23431
747.7437, 31.92850
748.2258, 31.68804
748.7079, 31.83884
749.1900, 32.06002
749.6721, 31.67920
750.1542, 30.70782
750.6364, 29.89619
751.1185, 29.30430
751.6006, 28.97019
752.0827, 29.04045
752.5648, 29.33895
753.0469, 29.30219
753.5291, 28.54694
754.0112, 28.48710
754.4933, 30.12248
754.9754, 31.70337
755.4575, 32.00688
755.9396, 31.51949
756.4218, 31.32840
756.9039, 31.75818
757.3860, 31.97959
757.8681, 30.45004
758.3502, 28.01179
758.8323, 28.22740
759.3145, 31.25386
759.7966, 33.20946
760.2787, 32.31487
760.7608, 30.56623
761.2429, 30.66956
761.7250, 32.89841
762.2072, 33.70153
762.6893, 31.48055
763.1714, 30.00084
763.6535, 30.68851
764.1356, 32.09932
764.6177, 33.19989
765.0999, 33.73912
765.5820, 33.54584
766.0641, 32.22324
766.5462, 30.68338
767.0283, 30.23822
767.5104, 30.60912
767.9926, 30.69341
768.4747, 30.29723
768.9568, 30.02470
769.4389, 30.28459
769.9210, 31.00985
770.4031, 32.05082
770.8853, 34.28807
771.3674, 35.10085
771.8495, 32.98555
772.3316, 31.12910
772.8137, 31.19053
773.2958, 32.25553
773.7780, 32.88365
774.2601, 32.73384
774.7422, 32.39899
775.2243, 32.24365
775.7064, 32.11752
776.1885, 31.76123
776.6707, 31.25389
777.1528, 30.79888
777.6349, 30.46943
778.1170, 30.59763
778.5991, 31.73290
779.0812, 33.78731
779.5634, 34.83701
780.0455, 34.48373
780.5276, 34.00395
781.0097, 33.33062
781.4918, 32.96233
781.9739, 33.61055
782.4561, 34.95760
782.9382, 35.64630
783.4203, 34.98981
783.9024, 34.18993
784.3845, 33.77927
784.8666, 33.55697
785.3488, 33.37528
785.8309, 33.16313
786.3130, 32.69606
786.7951, 31.81684
787.2772, 31.03500
787.7593, 31.52548
788.2415, 33.23592
788.7236, 33.81968
789.2057, 32.84164
789.6878, 31.93947
790.1699, 31.86197
790.6520, 32.34832
791.1342, 33.05391
791.6162, 34.05598
792.0983, 34.80772
792.5804, 35.74599
793.0626, 35.88429
793.5447, 33.87991
794.0268, 31.43344
794.5089, 30.56099
794.9910, 31.42057
795.4731, 32.73888
795.9553, 33.93415
796.4374, 34.75623
796.9195, 34.60879
797.4016, 33.70158
797.8837, 32.96747
798.3658, 32.57862
798.8480, 32.28085
799.3301, 31.84513
799.8122, 31.41981
800.2943, 31.52576
800.7764, 32.43139
801.2585, 33.29185
801.7407, 34.34810
802.2228, 35.08227
802.7049, 34.98013
803.1870, 34.56658
803.6691, 34.71485
804.1512, 35.61134
804.6334, 36.12493
805.1155, 35.27687
805.5976, 34.16125
806.0797, 33.56295
806.5618, 33.54955
807.0439, 34.43894
807.5261, 36.18913
808.0082, 37.81715
808.4903, 38.40796
808.9724, 38.12591
809.4545, 37.45076
809.9366, 36.27453
810.4188, 35.45602
810.9009, 35.30501
811.3830, 35.21851
811.8651, 34.53235
812.3472, 33.57956
812.8293, 33.55438
813.3115, 34.87848
813.7936, 36.20955
814.2757, 37.79253
814.7578, 38.89936
815.2399, 38.90443
815.7220, 38.16749
816.2042, 37.20904
816.6863, 36.21085
817.1684, 35.34388
817.6505, 34.83570
818.1326, 34.52925
818.6147, 34.11835
819.0969, 33.63269
819.5790, 33.21156
820.0611, 32.88783
820.5432, 32.79306
821.0253, 33.10333
821.5074, 33.73302
821.9896, 34.10394
822.4717, 34.12157
822.9538, 34.08628
823.4359, 33.51606
823.9180, 33.46899
824.4001, 35.24862
824.8823, 37.74964
825.3644, 38.74388
825.8465, 37.58188
826.3286, 36.19892
826.8107, 35.00023
827.2928, 34.16121
827.7750, 33.91201
828.2571, 34.11304
828.7392, 34.52997
829.2213, 35.07776
829.7034, 35.75384
830.1855, 36.78194
830.6677, 37.77367
831.1498, 37.20044
831.6319, 35.13512
832.1140, 34.35552
832.5961, 35.82792
833.0782, 37.07749
833.5604, 35.71566
834.0425, 32.65511
834.5246, 31.86747
835.0067, 35.69941
835.4888, 37.80750
835.9709, 37.47844
836.4531, 36.31505
836.9352, 34.00528
837.4173, 31.74141
837.8994, 31.54441
838.3815, 33.81876
838.8636, 35.66865
839.3458, 35.07761
839.8279, 33.93053
840.3100, 33.92720
840.7921, 34.66951
841.2742, 35.42219
841.7563, 35.95580
842.2385, 36.09010
842.7206, 35.56094
843.2027, 34.81725
843.6848, 35.32703
844.1669, 37.13422
844.6490, 37.57619
845.1312, 35.93362
845.6133, 34.32855
846.0954, 33.96669
846.5775, 34.51836
847.0596, 35.40824
847.5417, 37.05890
848.0239, 37.67807
848.5060, 36.03056
848.9881, 34.89119
849.4702, 35.90174
849.9523, 37.37741
850.4344, 37.28941
850.9166, 35.69420
851.3987, 34.47157
851.8808, 34.76347
852.3629, 35.35290
852.8450, 35.22925
853.3271, 34.72845
853.8093, 34.33237
854.2914, 34.11423
854.7735, 34.03901
855.2556, 34.09686
855.7377, 34.17451
856.2198, 34.04118
856.7020, 33.71123
857.1841, 33.57718
857.6662, 33.68350
858.1483, 33.75376
858.6304, 33.61237
859.1125, 33.52628
859.5947, 33.84903
860.0768, 34.58281
860.5589, 35.23526
861.0410, 36.24859
861.5231, 36.55984
862.0052, 35.43652
862.4874, 34.13973
862.9695, 33.46729
863.4516, 33.29649
863.9337, 33.27252
864.4158, 33.34422
864.8979, 33.26484
865.3801, 32.56292
865.8622, 31.88521
866.3443, 32.00702
866.8264, 32.72815
867.3085, 33.49316
867.7906, 34.14060
868.2728, 34.93975
868.7549, 36.36152
869.2370, 37.83418
869.7191, 37.37494
870.2012, 35.00327
870.6833, 33.25022
871.1655, 32.57780
871.6476, 32.29308
872.1297, 31.84155
872.6118, 31.57645
873.0939, 32.55549
873.5760, 35.78364
874.0581, 37.27528
874.5402, 35.46228
875.0223, 33.76160
875.5045, 33.17277
875.9866, 33.08202
876.4687, 32.87572
876.9508, 32.53025
877.4329, 32.32152
877.9150, 32.72594
878.3972, 32.78789
878.8793, 31.31705
879.3614, 29.70633
879.8435, 30.08951
880.3256, 31.79720
880.8077, 32.10272
881.2899, 29.75334
881.7720, 27.26078
882.2541, 27.96270
882.7362, 30.77797
883.2183, 32.86598
883.7004, 34.12609
884.1826, 33.90557
884.6647, 31.87461
885.1468, 29.78041
885.6289, 29.44218
886.1110, 30.43771
886.5931, 30.42592
887.0753, 28.90213
887.5574, 27.88242
888.0395, 27.57488
888.5216, 27.75078
889.0037, 28.80983
889.4858, 30.05481
889.9680, 30.24798
890.4501, 29.19712
890.9322, 28.17791
891.4143, 26.93864
891.8964, 26.27812
892.3785, 27.06368
892.8607, 28.22837
893.3428, 28.66084
893.8249, 28.35972
894.3070, 27.91738
894.7891, 27.57907
895.2712, 27.27142
895.7534, 26.69193
896.2355, 26.22969
896.7176, 26.80587
897.1997, 28.12579
897.6818, 28.96600
898.1639, 28.85529
898.6461, 28.17943
899.1282, 27.21352
899.6103, 26.12800
900.0924, 25.74593
900.5745, 26.10440
901.0566, 26.37303
901.5388, 26.40252
902.0209, 26.24214
902.5030, 25.85431
902.9851, 25.36955
903.4672, 25.12269
903.9493, 24.96070
904.4315, 25.49032
904.9136, 27.79711
905.3957, 29.38764
905.8778, 28.81978
906.3599, 27.68933
906.8420, 27.76144
907.3242, 28.91520
907.8063, 29.43466
908.2884, 28.71235
908.7705, 27.57186
909.2526, 26.01064
909.7347, 24.43190
910.2169, 22.55426
910.6990, 21.08988
911.1811, 22.00645
911.6632, 25.89316
912.1453, 29.15948
912.6274, 27.73860
913.1096, 24.59119
913.5917, 24.61096
914.0738, 26.64433
914.5559, 26.96734
915.0380, 24.97935
915.5201, 23.03590
916.0023, 22.84307
916.4844, 23.66898
916.9665, 23.99564
917.4486, 23.82579
917.9307, 23.42273
918.4128, 22.69118
918.8950, 22.35252
919.3771, 22.69489
919.8592, 23.60483
920.3413, 25.17469
920.8234, 27.36941
921.3055, 28.16217
921.7877, 26.61319
922.2698, 25.32439
922.7519, 24.68070
923.2340, 24.24876
923.7161, 23.67002
924.1982, 23.20291
924.6804, 23.47762
925.1625, 24.74748
925.6446, 25.47635
926.1267, 24.82153
926.6088, 24.07760
927.0909, 23.83276
927.5731, 23.88261
928.0552, 24.05409
928.5373, 24.27344
929.0194, 24.43525
929.5015, 24.47821
929.9836, 24.49691
930.4658, 24.91500
930.9479, 25.14276
931.4300, 23.66146
931.9121, 21.26304
932.3942, 20.78505
932.8763, 22.89564
933.3585, 24.91744
933.8406, 24.11085
934.3227, 21.85737
934.8048, 21.86061
935.2869, 23.80789
935.7690, 24.79058
936.2512, 24.38415
936.7333, 23.62606
937.2154, 23.00809
937.6975, 22.60903
938.1796, 22.61843
938.6617, 23.06656
939.1439, 23.15389
939.6260, 22.55457
940.1081, 22.52347
940.5902, 23.69024
941.0723, 25.02072
941.5544, 26.00451
942.0366, 26.48749
942.5187, 25.73212
943.0008, 22.51976
943.4829, 21.05850
943.9650, 23.16117
944.4471, 25.05337
944.9293, 25.26037
945.4114, 24.60436
945.8935, 23.78857
946.3756, 22.95813
946.8577, 22.34118
947.3398, 22.06479
947.8220, 21.90617
948.3041, 21.66890
948.7862, 21.58490
949.2683, 22.04903
949.7504, 22.77306
950.2325, 23.18721
950.7147, 23.14590
951.1968, 22.94627
951.6789, 22.88077
952.1610, 22.69361
952.6431, 21.44469
953.1252, 20.02691
953.6074, 21.01282
954.0895, 24.08063
954.5716, 25.89690
955.0537, 24.76938
955.5358, 22.59706
956.0179, 22.13805
956.5000, 22.86558
956.9821, 22.03482
957.4642, 19.74073
957.9464, 18.44819
958.4285, 18.76847
958.9106, 19.83415
959.3927, 21.07833
959.8748, 22.38358
960.3569, 23.53608
960.8391, 24.71777
961.3212, 24.53981
961.8033, 22.23529
962.2854, 20.82340
962.7675, 21.82523
963.2496, 23.39524
963.7318, 23.58043
964.2139, 22.60894
964.6960, 22.21492
965.1781, 22.82826
965.6602, 23.31922
966.1423, 23.92734
966.6245, 24.12210
967.1066, 23.28420
967.5887, 22.15206
968.0708, 21.62258
968.5529, 21.73646
969.0350, 22.04533
969.5172, 22.94867
969.9993, 23.36884
970.4814, 22.75400
970.9635, 21.71845
971.4456, 20.08381
971.9277, 18.61707
972.4099, 19.03946
972.8920, 21.70590
973.3741, 23.68475
973.8562, 22.50074
974.3383, 20.87444
974.8204, 21.26935
975.3026, 22.38554
975.7847, 22.08981
976.2668, 20.71247
976.7489, 20.36100
977.2310, 21.99858
977.7131, 23.67854
978.1953, 23.01925
978.6774, 21.35966
979.1595, 21.04295
979.6416, 21.70627
980.1237, 22.35848
980.6058, 22.69817
981.0880, 22.12829
981.5701, 20.13298
982.0522, 18.11387
982.5343, 18.87018
983.0164, 21.81833
983.4985, 23.86131
983.9807, 24.92095
984.4628, 25.31440
984.9449, 25.13312
985.4270, 24.12397
985.9091, 21.82037
986.3912, 19.04338
986.8734, 18.57567
987.3555, 20.82575
987.8376, 21.75561
988.3197, 20.78778
988.8018, 20.34975
989.2839, 21.65976
989.7661, 23.14062
990.2482, 22.88361
990.7303, 21.23849
991.2124, 20.85208
991.6945, 22.57114
992.1766, 23.55243
992.6588, 23.41530
993.1409, 22.89801
993.6230, 22.06254
994.1051, 21.20309
994.5872, 20.73368
995.0693, 20.64939
995.5515, 20.55538
996.0336, 20.06810
996.5157, 20.12990
996.9978, 21.67282
997.4799, 22.90195
997.9620, 22.74448
998.4442, 21.72418
998.9263, 20.31432
999.4084, 18.59372
999.8905, 17.94860
1000.373, 19.56948
1000.855, 21.19137
1001.337, 22.25559
1001.819, 22.78726
1002.301, 22.48552
1002.783, 21.78053
1003.265, 21.39946
1003.747, 21.51417
1004.230, 21.92880
1004.712, 23.51159
1005.194, 24.25407
1005.676, 21.41621
1006.158, 18.03576
1006.640, 18.02952
1007.122, 20.61894
1007.604, 22.97994
1008.086, 24.11983
1008.569, 24.00103
1009.051, 21.13590
1009.533, 18.32612
1010.015, 19.70037
1010.497, 22.82194
1010.979, 23.02080
1011.461, 20.49547
1011.943, 18.78551
1012.426, 19.54597
1012.908, 20.80721
1013.390, 20.33952
1013.872, 19.02652
1014.354, 18.24937
1014.836, 18.05185
1015.318, 18.97880
1015.800, 20.79699
1016.282, 21.51218
1016.765, 19.94041
1017.247, 17.71321
1017.729, 17.15149
1018.211, 17.83252
1018.693, 18.45257
1019.175, 18.96008
1019.657, 18.92306
1020.139, 18.28649
1020.622, 17.86254
1021.104, 18.17644
1021.586, 19.06753
1022.068, 20.57396
1022.550, 22.53938
1023.032, 23.16745
1023.514, 22.43945
1023.996, 21.40847
1024.478, 20.26612
1024.961, 19.55199
1025.443, 19.74308
1025.925, 20.35250
1026.407, 20.18527
1026.889, 19.17480
1027.371, 18.85509
1027.853, 19.32230
1028.335, 19.92825
1028.818, 20.51647
1029.300, 21.21639
1029.782, 22.23865
1030.264, 23.27556
1030.746, 23.36753
1031.228, 22.20659
1031.710, 22.16104
1032.192, 23.95588
1032.674, 23.62144
1033.156, 24.62507
1033.639, 24.98313
1034.121, 24.73229
1034.603, 22.04443
1035.085, 22.50345
1035.567, 21.70127
1036.049, 20.84751
1036.531, 21.74931
1037.013, 19.41602
1037.496, 20.28904
1037.978, 19.88268
1038.460, 20.06242
1038.942, 18.97317
1039.424, 20.94148
1039.906, 23.98611
1040.388, 25.03343
1040.870, 22.20759
1041.353, 20.09567
1041.835, 20.28529
1042.317, 21.14316
1042.799, 21.49969
1043.281, 21.51495
1043.763, 21.74381
1044.245, 22.58648
1044.727, 22.44362
1045.209, 19.95027
1045.692, 18.19362
1046.174, 18.36109
1046.656, 19.24549
1047.138, 20.29118
1047.620, 21.23519
1048.102, 21.30878
1048.584, 19.94449
1049.066, 19.65875
1049.548, 22.09126
1050.031, 23.93175
1050.513, 23.43170
1050.995, 22.54574
1051.477, 23.20313
1051.959, 24.70776
1052.441, 24.97552
1052.923, 23.38158
1053.405, 22.29452
1053.888, 23.05043
1054.370, 23.30891
1054.852, 21.50093
1055.334, 19.45806
1055.816, 18.74303
1056.298, 19.02688
1056.780, 19.30337
1057.262, 19.36192
1057.745, 19.69807
1058.227, 20.58150
1058.709, 21.60008
1059.191, 23.49089
1059.673, 24.63738
1060.155, 22.77071
1060.637, 19.34576
1061.119, 17.75982
1061.601, 18.79989
1062.083, 19.53925
1062.566, 18.62086
1063.048, 17.65674
1063.530, 17.07086
1064.012, 16.99473
1064.494, 17.92001
1064.976, 19.29728
1065.458, 20.07323
1065.940, 20.04040
1066.423, 19.81043
1066.905, 19.70698
1067.387, 19.34486
1067.869, 17.81404
1068.351, 16.62574
1068.833, 17.46891
1069.315, 19.45468
1069.797, 21.03933
1070.280, 21.88686
1070.762, 21.95337
1071.244, 20.78074
1071.726, 19.40365
1072.208, 17.88959
1072.690, 16.74843
1073.172, 16.32236
1073.654, 16.58768
1074.136, 17.86564
1074.619, 19.95859
1075.101, 21.07035
1075.583, 19.88689
1076.065, 18.57918
1076.547, 17.70485
1077.029, 17.59071
1077.511, 19.43867
1077.993, 21.70751
1078.475, 21.77471
1078.958, 19.70046
1079.440, 18.15856
1079.922, 18.11378
1080.404, 18.80192
1080.886, 20.91979
1081.368, 22.51888
1081.850, 21.58914
1082.332, 19.67196
1082.814, 18.84109
1083.297, 19.15854
1083.779, 19.52057
1084.261, 19.68069
1084.743, 19.46214
1085.225, 18.46659
1085.707, 17.42080
1086.189, 16.32625
1086.671, 15.78114
1087.154, 17.03629
1087.636, 19.41953
1088.118, 20.59313
1088.600, 19.71234
1089.082, 18.64566
1089.564, 17.92405
1090.046, 17.51339
1090.528, 17.50422
1091.010, 17.70844
1091.493, 18.02243
1091.975, 18.37727
1092.457, 18.58924
1092.939, 18.58346
1093.421, 18.91426
1093.903, 20.42105
1094.385, 21.48683
1094.867, 21.09507
1095.349, 20.21325
1095.832, 19.41639
1096.314, 18.84460
1096.796, 18.73876
1097.278, 19.11992
1097.760, 19.17127
1098.242, 18.39851
1098.724, 17.59598
1099.206, 16.41885
1099.689, 15.92266
1100.171, 17.56482
1100.653, 19.93452
1101.135, 20.95856
1101.617, 20.52377
1102.099, 19.95876
1102.581, 19.55488
1103.063, 19.07647
1103.546, 18.63959
1104.028, 17.91328
1104.510, 16.22745
1104.992, 14.51895
1105.474, 13.90974
1105.956, 14.26963
1106.438, 14.66280
1106.920, 14.87522
1107.402, 15.31959
1107.885, 16.54669
1108.367, 17.39056
1108.849, 16.87433
1109.331, 16.28696
1109.813, 16.96721
1110.295, 18.45357
1110.777, 19.44164
1111.259, 19.89538
1111.741, 19.64881
1112.224, 17.89817
1112.706, 16.56240
1113.188, 16.05493
1113.670, 16.05476
1114.152, 16.64519
1114.634, 17.48644
1115.116, 17.94317
1115.598, 17.96550
1116.081, 18.20195
1116.563, 18.98777
1117.045, 19.40430
1117.527, 19.20811
1118.009, 18.85494
1118.491, 18.49701
1118.973, 18.14390
1119.455, 17.81479
1119.938, 17.50543
1120.420, 17.13124
1120.902, 16.46683
1121.384, 16.31872
1121.866, 16.85075
1122.348, 17.67071
1122.830, 19.07153
1123.312, 19.89589
1123.794, 18.67441
1124.276, 16.35237
1124.759, 16.11807
1125.241, 18.57593
1125.723, 19.63018
1126.205, 19.05709
1126.687, 17.74695
1127.169, 15.49366
1127.651, 14.02487
1128.133, 14.66797
1128.616, 16.40451
1129.098, 17.45635
1129.580, 17.84892
1130.062, 18.37520
1130.544, 17.99884
1131.026, 19.19207
1131.508, 19.74070
1131.990, 19.67942
1132.473, 17.18061
1132.955, 17.82919
1133.437, 16.15443
1133.919, 18.03731
1134.401, 19.27570
1134.883, 19.90412
1135.365, 18.09553
1135.847, 19.43381
1136.329, 19.51092
1136.812, 19.53726
1137.294, 21.31835
1137.776, 15.52893
1138.258, 17.09747
1138.740, 18.02137
1139.222, 18.33532
1139.704, 16.21234
1140.186, 17.23614
1140.668, 18.04780
1141.151, 18.90929
1141.633, 19.76542
1142.115, 20.68983
1142.597, 20.77442
1143.079, 18.09250
1143.561, 14.75499
1144.043, 14.65078
1144.525, 16.38184
1145.008, 17.23915
1145.490, 17.19240
1145.972, 17.22954
1146.454, 17.66360
1146.936, 18.22602
1147.418, 18.76879
1147.900, 19.28628
1148.382, 19.93943
1148.865, 20.42287
1149.347, 20.45020
1149.829, 20.00987
1150.311, 18.68944
1150.793, 16.87206
1151.275, 16.19754
1151.757, 17.53177
1152.239, 18.90607
1152.721, 19.51269
1153.203, 19.43164
1153.686, 18.16952
1154.168, 16.69567
1154.650, 15.71140
1155.132, 15.40455
1155.614, 16.35715
1156.096, 18.69446
1156.578, 19.72705
1157.060, 17.07585
1157.543, 15.35810
1158.025, 16.84208
1158.507, 18.49273
1158.989, 18.50752
1159.471, 17.70877
1159.953, 17.02813
1160.435, 16.53630
1160.917, 16.34609
1161.400, 16.41083
1161.882, 16.91138
1162.364, 18.60095
1162.846, 19.55299
1163.328, 18.95967
1163.810, 17.88391
1164.292, 16.91463
1164.774, 16.11448
1165.256, 15.57854
1165.739, 15.28872
1166.221, 15.68793
1166.703, 16.99791
1167.185, 18.19817
1167.667, 19.23613
1168.149, 19.84329
1168.631, 19.79684
1169.113, 19.63088
1169.595, 19.97846
1170.078, 20.63567
1170.560, 21.00020
1171.042, 21.05976
1171.524, 20.15355
1172.006, 18.29728
1172.488, 16.63868
1172.970, 15.48676
1173.452, 15.61366
1173.934, 17.66920
1174.417, 19.63416
1174.899, 17.72242
1175.381, 13.94042
1175.863, 14.00138
1176.345, 16.69787
1176.827, 18.93152
1177.309, 20.17075
1177.791, 19.96922
1178.274, 18.35100
1178.756, 16.89266
1179.238, 16.86285
1179.720, 17.27964
1180.202, 16.88977
1180.684, 16.49707
1181.166, 17.63330
1181.648, 19.23653
1182.130, 18.99269
1182.613, 17.24402
1183.095, 16.62748
1183.577, 18.24842
1184.059, 19.57349
1184.541, 19.09809
1185.023, 18.21204
1185.505, 16.78567
1185.987, 16.11724
1186.469, 18.42508
1186.952, 21.68007
1187.434, 22.07389
1187.916, 19.46105
1188.398, 17.70720
1188.880, 17.76190
1189.362, 18.09901
1189.844, 18.86633
1190.326, 19.50726
1190.809, 19.99198
1191.291, 20.10057
1191.773, 19.36133
1192.255, 18.27628
1192.737, 18.05998
1193.219, 18.77758
1193.701, 19.85309
1194.183, 21.85317
1194.666, 21.70539
1195.148, 18.32081
1195.630, 15.69763
1196.112, 15.76303
1196.594, 16.89624
1197.076, 17.38925
1197.558, 17.47306
1198.040, 17.83964
1198.522, 18.43783
1199.005, 18.78776
1199.487, 18.91594
1199.969, 19.32445
1200.451, 20.03974
1200.933, 20.15485
1201.415, 19.15832
1201.897, 18.06973
1202.379, 17.98503
1202.861, 18.55114
1203.344, 19.97031
1203.826, 21.17654
1204.308, 19.66517
1204.790, 16.47563
1205.272, 14.21666
1205.754, 13.56966
1206.236, 14.35409
1206.718, 16.97700
1207.201, 19.13944
1207.683, 19.13276
1208.165, 18.51889
1208.647, 17.87175
1209.129, 17.56323
1209.611, 18.40887
1210.093, 19.68507
1210.575, 19.61674
1211.057, 17.92379
1211.540, 16.97245
1212.022, 17.56974
1212.504, 18.19582
1212.986, 19.40900
1213.468, 19.57849
1213.950, 17.02385
1214.432, 14.60471
1214.914, 15.24233
1215.396, 17.73151
1215.879, 18.73935
1216.361, 18.12780
1216.843, 17.82316
1217.325, 17.85131
1217.807, 18.01313
1218.289, 18.27809
1218.771, 18.79163
1219.253, 19.67723
1219.736, 20.09256
1220.218, 18.97964
1220.700, 17.32950
1221.182, 17.65499
1221.664, 19.18262
1222.146, 19.21211
1222.628, 18.12340
1223.110, 17.50129
1223.593, 17.60614
1224.075, 17.98436
1224.557, 18.43595
1225.039, 19.20443
1225.521, 21.47042
1226.003, 22.85088
1226.485, 19.84378
1226.967, 16.10439
1227.449, 15.49867
1227.932, 16.77256
1228.414, 17.94004
1228.896, 18.58587
1229.378, 18.46094
1229.860, 17.08477
1230.342, 16.61202
1230.824, 18.69888
1231.306, 20.11115
1231.788, 18.94440
1232.271, 17.96209
1232.753, 19.12407
1233.235, 21.04038
1233.717, 22.00408
1234.199, 22.06442
1234.681, 21.45256
1235.163, 19.95328
1235.645, 18.86015
1236.128, 18.28739
1236.610, 17.28907
1237.092, 15.48983
1237.574, 14.91825
1238.056, 16.89274
1238.538, 19.79699
1239.020, 21.78497
1239.502, 22.76160
1239.984, 21.96129
1240.467, 20.12852
1240.949, 19.64300
1241.431, 20.10700
1241.913, 19.33576
1242.395, 17.27973
1242.877, 16.46736
1243.359, 18.25969
1243.841, 20.32931
1244.323, 21.33269
1244.806, 21.52467
1245.288, 20.59008
1245.770, 19.41218
1246.252, 18.73645
1246.734, 18.44479
1247.216, 18.18647
1247.698, 17.98797
1248.180, 18.34937
1248.662, 19.88870
1249.145, 20.62284
1249.627, 19.80509
1250.109, 19.27795
1250.591, 19.83088
1251.073, 19.92625
1251.555, 18.40162
1252.037, 16.46172
1252.519, 15.77636
1253.002, 16.07665
1253.484, 16.08479
1253.966, 15.81527
1254.448, 15.88539
1254.930, 16.31707
1255.412, 17.15513
1255.894, 18.33766
1256.376, 19.19990
1256.859, 19.38057
1257.341, 19.41982
1257.823, 19.79366
1258.305, 20.44226
1258.787, 22.21328
1259.269, 23.46549
1259.751, 20.80599
1260.233, 16.56590
1260.715, 15.20416
1261.198, 16.67386
1261.680, 17.89223
1262.162, 17.95935
1262.644, 17.91989
1263.126, 17.91959
1263.608, 18.12058
1264.090, 19.22063
1264.572, 19.74170
1265.054, 18.17692
1265.537, 16.37733
1266.019, 16.35939
1266.501, 17.64222
1266.983, 18.63910
1267.465, 19.32551
1267.947, 19.98862
1268.429, 20.65298
1268.911, 21.00970
1269.394, 21.01153
1269.876, 20.62596
1270.358, 19.83757
1270.840, 19.30807
1271.322, 19.71304
1271.804, 20.35654
1272.286, 20.01142
1272.768, 19.30666
1273.250, 19.36465
1273.733, 19.84042
1274.215, 19.99110
1274.697, 19.94142
1275.179, 20.60685
1275.661, 20.69271
1276.143, 22.12584
1276.625, 22.91434
1277.107, 23.09286
1277.589, 20.83449
1278.072, 21.72279
1278.554, 21.35010
1279.036, 20.92569
1279.518, 22.25698
1280.000, 20.35304
1280.482, 21.65647
1280.964, 21.67959
1281.446, 22.28867
1281.929, 21.62881
1282.411, 21.36093
1282.893, 17.38527
1283.375, 14.65130
1283.857, 14.49644
1284.339, 15.99053
1284.821, 18.64310
1285.303, 20.99945
1285.786, 21.67771
1286.268, 20.66717
##END=



