##NAMES=Chalcomenite
##RRUFFID=R060586
##IDEAL CHEMISTRY=Cu^2+^Se^4+^O_3_&#183;2H_2_O
##LOCALITY=El Dragon mine, Potosi, Bolivia
##OWNER=RRUFF
##SOURCE=Michael Scott
##DESCRIPTION=Blue crystalline mass, associated with white needle calcite
##STATUS=The identification of this mineral is confirmed by single-crystal X-ray diffraction and chemical analysis.
##URL=rruff.info/R060586
##MEASURED CHEMISTRY=Cu_1.00_Se^4+^_1.00_O_3_Â·1.84H_2_O ; trace amounts of Fe
162.8097, 33.40491
163.2918, 36.65257
163.7739, 36.29375
164.2560, 35.58875
164.7382, 35.76403
165.2203, 36.70649
165.7024, 37.98319
166.1845, 39.33540
166.6666, 40.96074
167.1487, 43.07691
167.6309, 46.68313
168.1130, 49.84454
168.5951, 50.37946
169.0772, 48.84839
169.5593, 48.64511
170.0414, 53.42942
170.5236, 60.21602
171.0057, 65.35777
171.4878, 66.87695
171.9699, 66.95921
172.4520, 66.72881
172.9341, 66.27637
173.4163, 66.82435
173.8984, 69.76678
174.3805, 74.27845
174.8626, 78.88107
175.3447, 85.15278
175.8268, 90.22465
176.3090, 89.38073
176.7911, 82.56953
177.2732, 76.02871
177.7553, 74.61367
178.2374, 77.17586
178.7195, 81.41585
179.2017, 87.89291
179.6838, 94.95097
180.1659, 99.57114
180.6480, 101.6648
181.1301, 103.3237
181.6122, 107.0387
182.0944, 112.1775
182.5765, 116.5571
183.0586, 119.1363
183.5407, 120.3609
184.0228, 120.9978
184.5049, 120.9391
184.9871, 121.0397
185.4692, 123.5453
185.9513, 127.7384
186.4334, 129.5276
186.9155, 125.7645
187.3976, 117.9919
187.8798, 110.8879
188.3619, 104.4482
188.8440, 99.32609
189.3261, 96.99977
189.8082, 97.28061
190.2903, 98.15001
190.7725, 98.77584
191.2546, 99.17591
191.7367, 99.35524
192.2188, 99.27150
192.7009, 99.08949
193.1830, 99.02700
193.6652, 99.08069
194.1473, 99.31663
194.6294, 99.73906
195.1115, 100.3522
195.5936, 101.3514
196.0757, 102.9116
196.5579, 104.5780
197.0400, 105.0431
197.5221, 104.1121
198.0042, 104.0051
198.4863, 106.5683
198.9684, 111.8340
199.4506, 115.9710
199.9327, 118.7276
200.4148, 120.2001
200.8969, 119.9866
201.3790, 117.6694
201.8611, 115.8979
202.3433, 116.6983
202.8254, 120.3787
203.3075, 122.8852
203.7896, 123.7542
204.2717, 123.4183
204.7538, 122.5334
205.2360, 120.6906
205.7181, 119.7768
206.2002, 121.6051
206.6823, 126.8971
207.1644, 130.0900
207.6465, 130.2638
208.1287, 128.3302
208.6108, 126.6163
209.0929, 124.6868
209.5750, 124.1486
210.0571, 126.5720
210.5392, 132.8775
211.0214, 137.7000
211.5035, 140.0347
211.9856, 140.7517
212.4677, 143.0086
212.9498, 147.2050
213.4319, 152.0605
213.9140, 156.7713
214.3962, 161.0854
214.8783, 166.3133
215.3604, 173.0354
215.8425, 180.6878
216.3246, 186.7502
216.8067, 191.1267
217.2889, 194.2265
217.7710, 196.2974
218.2531, 197.2856
218.7352, 197.4876
219.2173, 197.2838
219.6994, 196.3021
220.1816, 192.7528
220.6637, 185.7927
221.1458, 177.6482
221.6279, 169.5582
222.1100, 161.0359
222.5921, 153.8017
223.0743, 148.6868
223.5564, 145.0023
224.0385, 138.7632
224.5206, 128.0867
225.0027, 118.0455
225.4848, 111.8844
225.9670, 110.8728
226.4491, 110.8718
226.9312, 112.0443
227.4133, 114.0313
227.8954, 115.2286
228.3775, 115.7907
228.8597, 115.3199
229.3418, 113.2059
229.8239, 107.9401
230.3060, 104.5715
230.7881, 103.8820
231.2702, 105.4254
231.7524, 107.3703
232.2345, 110.6042
232.7166, 112.9568
233.1987, 112.7875
233.6808, 108.1878
234.1629, 105.3411
234.6451, 105.1538
235.1272, 107.0372
235.6093, 108.3340
236.0914, 108.4149
236.5735, 108.7701
237.0556, 110.4037
237.5378, 114.3952
238.0199, 117.3438
238.5020, 119.1426
238.9841, 119.7900
239.4662, 119.0470
239.9483, 116.0354
240.4305, 112.8424
240.9126, 110.4647
241.3947, 108.8426
241.8768, 108.2644
242.3589, 109.4246
242.8410, 111.5993
243.3232, 112.0936
243.8053, 109.8626
244.2874, 107.3781
244.7695, 106.0238
245.2516, 106.7417
245.7337, 106.3439
246.2159, 103.9064
246.6980, 100.3871
247.1801, 98.99488
247.6622, 100.6481
248.1443, 103.0112
248.6264, 105.0475
249.1086, 106.8076
249.5907, 108.1605
250.0728, 109.1270
250.5549, 109.6816
251.0370, 109.5848
251.5191, 108.0412
252.0013, 107.1124
252.4834, 108.1196
252.9655, 112.8186
253.4476, 114.6021
253.9297, 111.8447
254.4118, 106.9003
254.8940, 105.0531
255.3761, 107.3152
255.8582, 110.9023
256.3403, 115.0800
256.8224, 120.6527
257.3046, 123.9955
257.7867, 124.3205
258.2688, 122.8911
258.7509, 122.1190
259.2330, 122.2720
259.7151, 122.5538
260.1973, 122.8442
260.6794, 123.3889
261.1615, 122.7766
261.6436, 120.7364
262.1257, 117.7911
262.6078, 114.7012
263.0900, 111.3169
263.5721, 108.2061
264.0542, 105.5131
264.5363, 103.1482
265.0184, 101.6508
265.5005, 101.1182
265.9827, 101.2992
266.4648, 102.1258
266.9469, 104.1540
267.4290, 105.1595
267.9111, 104.0613
268.3932, 100.6653
268.8754, 98.52194
269.3575, 97.98711
269.8396, 98.15128
270.3217, 97.80552
270.8038, 96.71902
271.2859, 96.03770
271.7681, 96.27464
272.2502, 97.37828
272.7323, 97.74308
273.2144, 97.09272
273.6965, 96.24985
274.1786, 96.16805
274.6608, 97.00161
275.1429, 97.74826
275.6250, 98.10082
276.1071, 98.13774
276.5892, 98.50029
277.0714, 99.24925
277.5535, 100.1352
278.0356, 101.2493
278.5177, 102.7330
278.9998, 102.7836
279.4819, 100.2903
279.9641, 96.22355
280.4462, 95.37035
280.9283, 98.36108
281.4104, 101.8504
281.8925, 103.1030
282.3746, 102.0944
282.8568, 100.6543
283.3389, 98.64220
283.8210, 96.73368
284.3031, 97.20206
284.7852, 100.2933
285.2673, 103.7205
285.7495, 106.3527
286.2316, 108.1415
286.7137, 108.0332
287.1958, 105.2612
287.6779, 101.4771
288.1600, 100.5103
288.6422, 102.4082
289.1243, 104.1063
289.6064, 103.0379
290.0885, 99.86193
290.5706, 98.34201
291.0527, 99.27345
291.5349, 100.8288
292.0170, 100.0973
292.4991, 97.20872
292.9812, 93.54155
293.4633, 89.04428
293.9454, 84.30102
294.4276, 81.51589
294.9097, 81.08784
295.3918, 81.47493
295.8739, 80.66898
296.3560, 78.94125
296.8381, 77.53568
297.3203, 77.96535
297.8024, 78.97112
298.2845, 77.26238
298.7666, 72.48406
299.2487, 67.91628
299.7308, 67.63802
300.2130, 70.33345
300.6951, 72.20945
301.1772, 70.87086
301.6593, 68.27916
302.1414, 67.44299
302.6235, 68.33006
303.1057, 69.26295
303.5878, 68.60033
304.0699, 67.01964
304.5520, 65.78118
305.0341, 65.39474
305.5162, 65.43527
305.9984, 65.53238
306.4805, 65.68334
306.9626, 65.87592
307.4447, 66.50007
307.9268, 67.03712
308.4089, 66.59925
308.8911, 63.98907
309.3732, 61.84809
309.8553, 63.50274
310.3374, 67.72507
310.8195, 70.38557
311.3016, 67.37063
311.7838, 62.63311
312.2659, 59.76010
312.7480, 59.98537
313.2301, 60.87452
313.7122, 61.33410
314.1943, 61.40196
314.6765, 61.14488
315.1586, 59.59941
315.6407, 58.43435
316.1228, 59.12748
316.6049, 62.47236
317.0870, 65.03794
317.5692, 64.71066
318.0513, 62.80659
318.5334, 61.16064
319.0155, 60.49998
319.4976, 60.10671
319.9797, 59.50718
320.4619, 58.59496
320.9440, 58.44733
321.4261, 60.46697
321.9082, 62.93430
322.3903, 64.21180
322.8724, 63.32846
323.3546, 61.84958
323.8367, 59.62635
324.3188, 56.74320
324.8009, 55.02275
325.2830, 55.44857
325.7651, 56.71561
326.2473, 57.98226
326.7294, 59.80008
327.2115, 60.89238
327.6936, 60.71247
328.1757, 59.55573
328.6578, 58.89233
329.1400, 59.59019
329.6221, 60.07479
330.1042, 59.56660
330.5863, 56.32942
331.0684, 54.99775
331.5505, 56.35246
332.0327, 59.46924
332.5148, 62.45125
332.9969, 66.29579
333.4790, 68.63889
333.9611, 68.37984
334.4432, 64.65467
334.9254, 61.72566
335.4075, 59.65537
335.8896, 58.35596
336.3717, 57.66842
336.8538, 57.41667
337.3359, 58.31016
337.8180, 61.18633
338.3001, 65.97236
338.7823, 68.11717
339.2644, 66.71738
339.7465, 64.42588
340.2286, 63.84999
340.7107, 65.25803
341.1928, 66.80692
341.6750, 68.07553
342.1571, 69.23656
342.6392, 71.29605
343.1213, 74.60761
343.6034, 77.04580
344.0855, 76.17480
344.5677, 72.20333
345.0498, 70.37716
345.5319, 71.74415
346.0140, 74.84977
346.4961, 77.26643
346.9782, 78.98930
347.4604, 80.01916
347.9425, 80.06686
348.4246, 79.36855
348.9067, 78.66592
349.3888, 77.93896
349.8709, 77.49920
350.3531, 77.67779
350.8352, 78.45191
351.3173, 79.73116
351.7994, 82.18948
352.2815, 84.90054
352.7636, 86.29929
353.2458, 86.38423
353.7279, 85.78030
354.2100, 84.57089
354.6921, 83.09603
355.1742, 81.98399
355.6563, 81.76751
356.1385, 81.61216
356.6206, 80.73671
357.1027, 79.21128
357.5848, 77.42332
358.0669, 74.36063
358.5490, 71.74596
359.0312, 71.59102
359.5133, 75.46751
359.9954, 79.13108
360.4775, 79.66970
360.9596, 78.21726
361.4417, 77.17561
361.9239, 77.58044
362.4060, 78.60648
362.8881, 80.11379
363.3702, 82.33958
363.8523, 83.66061
364.3344, 83.00011
364.8166, 81.34985
365.2987, 79.82838
365.7808, 77.67781
366.2629, 76.74094
366.7450, 78.36112
367.2271, 82.51049
367.7093, 85.12221
368.1914, 85.04937
368.6735, 83.72082
369.1556, 82.02443
369.6377, 77.94852
370.1198, 76.16786
370.6020, 78.22990
371.0841, 82.90803
371.5662, 85.75655
372.0483, 85.92577
372.5304, 85.25956
373.0125, 84.37141
373.4947, 83.01103
373.9768, 82.13585
374.4589, 81.65232
374.9410, 81.71844
375.4231, 82.69605
375.9052, 84.89140
376.3874, 87.21012
376.8695, 89.65394
377.3516, 92.20515
377.8337, 92.71812
378.3158, 90.71938
378.7979, 88.04382
379.2801, 86.43822
379.7622, 85.92097
380.2443, 85.90233
380.7264, 86.61205
381.2085, 87.45969
381.6906, 86.34810
382.1728, 83.23170
382.6549, 80.63113
383.1370, 80.69212
383.6191, 82.79731
384.1012, 84.49231
384.5833, 85.46627
385.0655, 86.26022
385.5476, 87.61792
386.0297, 89.42270
386.5118, 91.18184
386.9939, 93.42541
387.4760, 95.19008
387.9582, 94.37437
388.4403, 90.91146
388.9224, 87.92892
389.4045, 88.60743
389.8866, 91.20268
390.3687, 93.24570
390.8509, 93.36952
391.3330, 93.27003
391.8151, 94.84446
392.2972, 97.45853
392.7793, 98.56828
393.2614, 94.82369
393.7436, 90.43405
394.2257, 88.55434
394.7078, 90.77660
395.1899, 93.01222
395.6720, 93.54800
396.1541, 93.22700
396.6363, 93.40504
397.1184, 95.64065
397.6005, 97.28140
398.0826, 97.06764
398.5647, 94.64594
399.0468, 92.94119
399.5290, 92.83737
400.0111, 93.22118
400.4932, 93.19138
400.9753, 92.20607
401.4574, 91.52860
401.9395, 91.32390
402.4217, 91.52451
402.9038, 91.93788
403.3859, 93.20376
403.8680, 93.74425
404.3501, 92.48173
404.8322, 88.53220
405.3144, 85.95934
405.7965, 85.06454
406.2786, 85.21752
406.7607, 85.57188
407.2428, 86.18961
407.7249, 86.68055
408.2071, 86.97256
408.6892, 87.03928
409.1713, 86.74374
409.6534, 86.10682
410.1355, 84.95267
410.6176, 82.57126
411.0998, 79.29197
411.5819, 77.19410
412.0640, 76.90105
412.5461, 77.59224
413.0282, 78.37975
413.5103, 79.13756
413.9925, 79.16353
414.4746, 76.57955
414.9567, 73.48089
415.4388, 73.96754
415.9209, 78.79378
416.4030, 83.21265
416.8852, 82.60746
417.3673, 79.06686
417.8494, 76.01315
418.3315, 74.80430
418.8136, 74.45749
419.2957, 74.83318
419.7779, 75.74207
420.2600, 76.00229
420.7421, 74.65535
421.2242, 72.70430
421.7063, 70.82471
422.1884, 68.77976
422.6706, 67.43132
423.1527, 66.81175
423.6348, 67.03841
424.1169, 68.30875
424.5990, 72.95981
425.0811, 76.46326
425.5633, 76.96873
426.0454, 73.92136
426.5275, 71.78492
427.0096, 70.46796
427.4917, 70.11526
427.9738, 71.06718
428.4560, 74.55824
428.9381, 76.73180
429.4202, 76.88523
429.9023, 75.47110
430.3844, 73.87679
430.8665, 71.95496
431.3487, 70.30211
431.8308, 69.26985
432.3129, 68.88583
432.7950, 68.52750
433.2771, 68.08910
433.7592, 67.96004
434.2414, 69.14742
434.7235, 71.47339
435.2056, 72.69418
435.6877, 71.58816
436.1698, 69.29651
436.6519, 68.37549
437.1341, 68.75197
437.6162, 69.06829
438.0983, 67.61996
438.5804, 65.59362
439.0625, 65.36842
439.5446, 67.85159
440.0268, 70.41044
440.5089, 70.63330
440.9910, 69.19907
441.4731, 67.50538
441.9552, 65.20318
442.4373, 63.60302
442.9195, 64.00631
443.4016, 66.37666
443.8837, 68.34081
444.3658, 68.47465
444.8479, 68.05728
445.3300, 68.11714
445.8122, 69.94529
446.2943, 70.83699
446.7764, 69.34032
447.2585, 66.54665
447.7406, 65.25479
448.2227, 67.36998
448.7049, 69.29644
449.1870, 69.82936
449.6691, 68.59537
450.1512, 68.25973
450.6333, 69.41408
451.1154, 70.82761
451.5976, 71.29812
452.0797, 70.57165
452.5618, 69.66526
453.0439, 68.45178
453.5260, 67.30926
454.0081, 67.48011
454.4903, 69.10857
454.9724, 71.13642
455.4545, 73.74902
455.9366, 76.57272
456.4187, 76.45463
456.9008, 72.85084
457.3830, 68.76185
457.8651, 67.93311
458.3472, 69.58823
458.8293, 71.30663
459.3114, 72.39246
459.7935, 73.06968
460.2757, 73.28333
460.7578, 73.20477
461.2399, 73.69955
461.7220, 75.86057
462.2041, 78.54298
462.6862, 80.87263
463.1684, 82.90828
463.6505, 83.73531
464.1326, 81.60143
464.6147, 78.35423
465.0968, 76.35288
465.5789, 77.36501
466.0611, 78.68876
466.5432, 79.69921
467.0253, 80.37196
467.5074, 80.74577
467.9895, 80.10568
468.4716, 79.75228
468.9538, 80.41082
469.4359, 82.94629
469.9180, 84.53686
470.4001, 84.73308
470.8822, 84.30698
471.3643, 84.50105
471.8465, 85.65732
472.3286, 86.43337
472.8107, 86.45046
473.2928, 85.80028
473.7749, 84.80573
474.2570, 83.33962
474.7392, 82.22936
475.2213, 82.24398
475.7034, 83.23855
476.1855, 84.25099
476.6676, 85.19534
477.1497, 86.10021
477.6319, 86.83794
478.1140, 87.52866
478.5961, 88.56460
479.0782, 90.86760
479.5603, 93.14283
480.0424, 93.57021
480.5246, 92.35537
481.0067, 91.16758
481.4888, 91.18111
481.9709, 91.61864
482.4530, 91.81390
482.9352, 91.61674
483.4173, 91.22227
483.8994, 90.23463
484.3815, 89.19768
484.8636, 88.94901
485.3457, 91.05213
485.8279, 92.54887
486.3100, 92.34974
486.7921, 90.43214
487.2742, 89.06104
487.7563, 89.01916
488.2384, 88.71742
488.7206, 86.99746
489.2027, 82.55161
489.6848, 80.33089
490.1669, 80.95152
490.6490, 83.21348
491.1311, 85.66056
491.6133, 88.47981
492.0954, 90.05007
492.5775, 89.77305
493.0596, 87.87941
493.5417, 84.49377
494.0238, 79.58486
494.5060, 75.73026
494.9881, 75.31393
495.4702, 77.41191
495.9523, 80.15287
496.4344, 83.61267
496.9165, 86.15637
497.3987, 84.84607
497.8808, 81.56918
498.3629, 79.91176
498.8450, 83.20554
499.3271, 87.04313
499.8092, 88.70763
500.2914, 88.42263
500.7735, 87.40540
501.2556, 85.44317
501.7377, 83.40451
502.2198, 81.51293
502.7019, 78.96996
503.1841, 78.70248
503.6662, 83.72617
504.1483, 90.10925
504.6304, 93.16096
505.1125, 90.58100
505.5946, 88.34810
506.0768, 87.40694
506.5589, 87.52150
507.0410, 87.51218
507.5231, 87.36880
508.0052, 87.12890
508.4873, 86.47094
508.9695, 85.39046
509.4516, 85.97913
509.9337, 88.54231
510.4158, 91.54359
510.8979, 93.43720
511.3800, 94.30614
511.8622, 94.31219
512.3443, 93.04748
512.8264, 91.61152
513.3085, 91.51253
513.7906, 92.51341
514.2728, 93.76395
514.7549, 94.57607
515.2370, 95.56762
515.7191, 97.68153
516.2012, 101.0861
516.6833, 103.5781
517.1655, 102.8008
517.6476, 101.3996
518.1297, 101.6533
518.6118, 105.8090
519.0939, 109.4329
519.5760, 112.0862
520.0582, 113.7117
520.5403, 114.2293
521.0224, 112.1935
521.5045, 111.0825
521.9866, 112.1530
522.4688, 115.4070
522.9509, 117.6211
523.4330, 118.2061
523.9151, 119.1434
524.3972, 122.5174
524.8793, 128.3914
525.3615, 132.5261
525.8436, 134.1712
526.3257, 135.0984
526.8078, 138.4311
527.2899, 143.5672
527.7720, 147.5429
528.2542, 148.3650
528.7363, 147.9988
529.2184, 149.0511
529.7005, 151.3227
530.1826, 153.7787
530.6647, 155.5853
531.1469, 157.4155
531.6290, 159.7812
532.1111, 162.6833
532.5932, 166.4328
533.0753, 172.5455
533.5574, 178.9783
534.0396, 183.5113
534.5217, 184.0538
535.0038, 184.7308
535.4859, 185.5829
535.9680, 186.9565
536.4501, 190.1998
536.9323, 196.7008
537.4144, 202.6912
537.8965, 206.5093
538.3786, 208.0739
538.8607, 210.4571
539.3428, 213.6793
539.8250, 217.5910
540.3071, 222.8616
540.7892, 229.0994
541.2713, 232.6004
541.7534, 231.9584
542.2355, 230.6808
542.7177, 234.4990
543.1998, 241.9579
543.6819, 248.3283
544.1640, 250.4311
544.6461, 251.0876
545.1282, 252.9328
545.6104, 255.7598
546.0925, 258.2880
546.5746, 259.2144
547.0567, 260.0577
547.5388, 261.9944
548.0209, 265.6037
548.5031, 268.8729
548.9852, 271.4730
549.4673, 273.5102
549.9494, 275.0919
550.4315, 276.0045
550.9136, 276.8086
551.3958, 277.5869
551.8779, 278.2853
552.3600, 278.8589
552.8421, 279.5044
553.3242, 279.3261
553.8063, 277.5674
554.2885, 274.5126
554.7706, 272.5596
555.2527, 271.7958
555.7348, 271.2168
556.2169, 270.4740
556.6990, 269.2274
557.1812, 266.2803
557.6633, 261.0899
558.1454, 255.5862
558.6275, 251.8567
559.1096, 249.0999
559.5917, 245.8166
560.0739, 242.4111
560.5560, 237.4408
561.0381, 228.4778
561.5202, 216.8412
562.0023, 207.9436
562.4844, 204.7981
562.9666, 203.2600
563.4487, 202.0790
563.9308, 201.6877
564.4129, 199.1042
564.8950, 192.5758
565.3771, 185.7673
565.8593, 182.2581
566.3414, 183.4551
566.8235, 181.5487
567.3056, 174.9093
567.7877, 166.1425
568.2698, 159.7084
568.7520, 155.4881
569.2341, 152.4346
569.7162, 150.4619
570.1983, 149.1564
570.6804, 147.8917
571.1625, 146.6400
571.6447, 145.1667
572.1268, 143.4689
572.6089, 141.3895
573.0910, 138.5325
573.5731, 134.6616
574.0552, 131.3886
574.5374, 129.5812
575.0195, 128.6155
575.5016, 127.8964
575.9837, 128.9024
576.4658, 128.1591
576.9479, 124.1799
577.4301, 118.5225
577.9122, 114.0906
578.3943, 110.7091
578.8764, 108.9307
579.3585, 109.5499
579.8406, 112.0350
580.3228, 112.6666
580.8049, 111.3434
581.2870, 108.8324
581.7691, 104.8905
582.2512, 100.0607
582.7333, 96.44511
583.2155, 94.17521
583.6975, 92.94180
584.1796, 93.04948
584.6617, 93.81731
585.1439, 94.15659
585.6260, 93.88330
586.1081, 92.91190
586.5902, 90.29538
587.0723, 87.02809
587.5544, 85.06786
588.0366, 86.12569
588.5187, 87.35550
589.0008, 87.75471
589.4829, 87.36137
589.9650, 87.50378
590.4471, 89.25826
590.9293, 90.12403
591.4114, 88.41887
591.8935, 83.47907
592.3756, 80.78672
592.8577, 80.69840
593.3398, 81.89426
593.8220, 83.86173
594.3041, 86.28150
594.7862, 86.26106
595.2683, 82.62081
595.7504, 78.11791
596.2325, 75.90675
596.7147, 75.64717
597.1968, 76.46825
597.6789, 79.14396
598.1610, 81.78413
598.6431, 83.00810
599.1252, 82.98788
599.6074, 82.60414
600.0895, 82.11127
600.5716, 81.38517
601.0537, 80.13245
601.5358, 78.03484
602.0179, 77.03531
602.5001, 77.99848
602.9822, 79.22173
603.4643, 79.37041
603.9464, 78.08692
604.4285, 77.16521
604.9106, 76.78844
605.3928, 76.65005
605.8749, 76.27489
606.3570, 75.67898
606.8391, 75.05360
607.3212, 74.27206
607.8033, 73.72607
608.2855, 74.34181
608.7676, 75.79772
609.2497, 76.93349
609.7318, 77.26939
610.2139, 76.89916
610.6960, 75.46455
611.1782, 73.02354
611.6603, 71.26083
612.1424, 71.08758
612.6245, 71.52699
613.1066, 72.05059
613.5887, 72.87055
614.0709, 73.18127
614.5530, 72.86890
615.0351, 72.15267
615.5172, 71.08633
615.9993, 69.41856
616.4814, 68.53226
616.9636, 68.71375
617.4457, 69.62879
617.9278, 70.91106
618.4099, 72.49409
618.8920, 73.70237
619.3741, 74.14430
619.8563, 74.14861
620.3384, 74.13972
620.8205, 74.10461
621.3026, 73.98073
621.7847, 74.16171
622.2668, 73.92874
622.7490, 72.27024
623.2311, 68.88088
623.7132, 66.73655
624.1953, 67.69398
624.6774, 69.44751
625.1595, 70.35629
625.6417, 69.62540
626.1238, 69.58085
626.6059, 70.45350
627.0880, 71.75944
627.5701, 73.14120
628.0522, 74.72987
628.5344, 75.04871
629.0165, 73.54302
629.4986, 70.96996
629.9807, 68.09528
630.4628, 65.19193
630.9449, 63.78015
631.4271, 65.68223
631.9092, 68.73832
632.3913, 70.87277
632.8734, 72.11411
633.3555, 72.71897
633.8376, 72.55050
634.3198, 72.00620
634.8019, 71.03503
635.2840, 69.32620
635.7661, 68.87659
636.2482, 70.99520
636.7303, 73.49878
637.2125, 74.81273
637.6946, 74.27830
638.1767, 74.66264
638.6588, 76.55704
639.1409, 78.54520
639.6230, 78.22060
640.1052, 75.75761
640.5873, 73.81725
641.0694, 73.23006
641.5515, 73.23754
642.0336, 72.67254
642.5157, 71.76085
642.9979, 71.15396
643.4800, 71.27668
643.9621, 71.73919
644.4442, 72.39268
644.9263, 73.19172
645.4084, 73.90707
645.8906, 74.56806
646.3727, 75.03205
646.8548, 75.14122
647.3369, 74.82303
647.8190, 74.83294
648.3011, 75.62039
648.7833, 76.06100
649.2654, 75.02522
649.7475, 72.31107
650.2296, 70.43644
650.7117, 69.52802
651.1938, 69.47553
651.6760, 70.48545
652.1581, 72.28568
652.6402, 73.99272
653.1223, 75.31290
653.6044, 76.60668
654.0865, 78.70152
654.5687, 80.97240
655.0508, 82.23547
655.5329, 80.94669
656.0150, 79.72153
656.4971, 79.14779
656.9792, 79.35365
657.4614, 81.00981
657.9435, 86.53769
658.4256, 90.06409
658.9077, 88.85572
659.3898, 83.19601
659.8719, 80.26585
660.3541, 80.41575
660.8362, 81.64735
661.3183, 82.92417
661.8004, 84.16059
662.2825, 85.06748
662.7646, 85.62218
663.2468, 85.96922
663.7289, 86.34323
664.2110, 86.54543
664.6931, 86.05893
665.1752, 84.05708
665.6573, 83.27807
666.1395, 86.17973
666.6216, 90.48325
667.1037, 93.38429
667.5858, 92.51305
668.0679, 92.82468
668.5500, 95.54578
669.0322, 99.27951
669.5143, 100.7652
669.9964, 99.59842
670.4785, 98.10691
670.9606, 96.54900
671.4427, 95.45975
671.9249, 96.91322
672.4070, 100.6006
672.8891, 104.0098
673.3712, 105.3405
673.8533, 105.7591
674.3354, 106.4380
674.8176, 107.4138
675.2997, 108.5895
675.7818, 110.6730
676.2639, 112.3529
676.7460, 112.5541
677.2281, 110.5544
677.7103, 109.4958
678.1924, 109.8670
678.6745, 110.8190
679.1566, 111.8584
679.6387, 113.1048
680.1208, 113.6232
680.6030, 112.9721
681.0851, 112.6470
681.5672, 115.0673
682.0493, 119.5809
682.5314, 123.6545
683.0135, 126.9215
683.4957, 128.8671
683.9778, 127.9746
684.4599, 125.4514
684.9420, 123.6064
685.4241, 123.6879
685.9063, 124.1640
686.3884, 124.1081
686.8705, 123.9408
687.3526, 125.2609
687.8347, 130.3973
688.3168, 133.7051
688.7990, 133.0856
689.2811, 129.2439
689.7632, 126.8062
690.2453, 125.8689
690.7274, 125.6932
691.2095, 126.2647
691.6917, 127.2471
692.1738, 127.5636
692.6559, 127.2227
693.1380, 126.8050
693.6201, 126.6254
694.1022, 126.6375
694.5844, 126.7513
695.0665, 126.9202
695.5486, 127.4395
696.0307, 128.4485
696.5128, 129.8249
696.9949, 131.5440
697.4771, 134.0938
697.9592, 135.9762
698.4413, 137.2754
698.9234, 137.7785
699.4055, 136.6293
699.8876, 133.7710
700.3698, 132.7749
700.8519, 134.7208
701.3340, 137.4985
701.8161, 138.1133
702.2982, 137.2073
702.7803, 136.3582
703.2625, 135.9047
703.7446, 136.0062
704.2267, 137.1883
704.7088, 138.9821
705.1909, 140.3511
705.6730, 140.6502
706.1552, 140.8934
706.6373, 141.5100
707.1194, 142.2983
707.6015, 142.1190
708.0836, 140.4513
708.5657, 139.4120
709.0479, 140.0634
709.5300, 142.0090
710.0121, 143.6263
710.4942, 144.9287
710.9763, 146.1324
711.4584, 147.8588
711.9406, 149.3321
712.4227, 149.3045
712.9048, 147.7686
713.3869, 146.3471
713.8690, 145.9893
714.3511, 145.9025
714.8333, 145.5443
715.3154, 144.7276
715.7975, 144.0208
716.2796, 142.9438
716.7617, 142.5620
717.2438, 144.4091
717.7260, 148.9278
718.2081, 150.2477
718.6902, 147.4387
719.1723, 143.7979
719.6544, 142.9889
720.1365, 144.4044
720.6187, 146.8376
721.1008, 150.6000
721.5829, 153.5938
722.0650, 153.3398
722.5471, 151.6866
723.0292, 151.1109
723.5114, 153.6812
723.9935, 155.6936
724.4756, 155.9287
724.9577, 155.5110
725.4398, 156.5367
725.9219, 159.7231
726.4041, 162.1135
726.8862, 162.9681
727.3683, 162.7570
727.8504, 162.1732
728.3325, 161.3508
728.8146, 161.2575
729.2968, 162.8699
729.7789, 164.9729
730.2610, 166.2702
730.7431, 166.9040
731.2252, 167.3470
731.7073, 167.2353
732.1895, 167.5240
732.6716, 169.2919
733.1537, 172.3005
733.6358, 173.1116
734.1179, 170.0407
734.6000, 167.6612
735.0822, 168.0318
735.5643, 170.8852
736.0464, 174.0848
736.5285, 177.7079
737.0106, 180.1798
737.4927, 179.3876
737.9749, 177.0728
738.4570, 176.1471
738.9391, 176.7535
739.4212, 177.9449
739.9033, 179.4604
740.3854, 181.1396
740.8676, 183.1560
741.3497, 186.0263
741.8318, 187.0567
742.3139, 185.0930
742.7960, 182.4624
743.2781, 180.5964
743.7603, 179.5218
744.2424, 179.2766
744.7245, 180.1206
745.2066, 180.7227
745.6887, 178.8312
746.1708, 175.6553
746.6530, 174.9626
747.1351, 178.0284
747.6172, 180.2140
748.0993, 176.9693
748.5814, 171.4613
749.0635, 167.2854
749.5457, 166.1678
750.0278, 164.8766
750.5099, 162.8016
750.9920, 160.5119
751.4741, 158.8929
751.9562, 158.4333
752.4384, 156.4026
752.9205, 152.0273
753.4026, 146.8596
753.8847, 143.2520
754.3668, 141.0009
754.8489, 139.3232
755.3311, 138.3475
755.8132, 137.1766
756.2953, 134.3984
756.7774, 130.9954
757.2595, 128.7508
757.7416, 129.3805
758.2238, 129.8427
758.7059, 129.3633
759.1880, 128.2762
759.6701, 127.4149
760.1522, 127.2129
760.6343, 125.5914
761.1165, 121.1925
761.5986, 115.8746
762.0807, 114.7605
762.5628, 117.1782
763.0449, 119.1974
763.5270, 118.4867
764.0092, 117.0146
764.4913, 116.9244
764.9734, 117.6424
765.4555, 117.3843
765.9376, 113.9502
766.4197, 111.0787
766.9019, 110.4633
767.3840, 111.5858
767.8661, 112.0859
768.3482, 111.7647
768.8303, 111.4024
769.3124, 111.3422
769.7946, 111.4648
770.2767, 111.2581
770.7588, 110.7704
771.2409, 110.4507
771.7230, 111.5255
772.2051, 112.2316
772.6873, 110.0288
773.1694, 105.3801
773.6515, 102.0117
774.1336, 100.5892
774.6157, 101.3886
775.0978, 105.8706
775.5800, 113.7530
776.0621, 117.1307
776.5442, 114.5890
777.0263, 111.5639
777.5084, 111.3311
777.9905, 113.1296
778.4727, 113.0037
778.9548, 111.0845
779.4369, 109.7225
779.9190, 111.0517
780.4011, 113.4543
780.8832, 115.5533
781.3654, 117.2174
781.8475, 118.4787
782.3296, 118.8028
782.8117, 119.2140
783.2938, 120.2578
783.7759, 121.9956
784.2581, 123.6759
784.7402, 125.2856
785.2223, 126.8489
785.7044, 128.4848
786.1865, 130.1021
786.6686, 130.9630
787.1508, 131.0830
787.6329, 132.2196
788.1150, 137.0930
788.5971, 142.7662
789.0792, 146.2922
789.5613, 147.2387
790.0435, 147.6384
790.5256, 146.5893
791.0077, 146.3709
791.4898, 148.3075
791.9719, 152.6572
792.4540, 157.4106
792.9362, 162.6412
793.4183, 167.6268
793.9004, 171.1951
794.3825, 174.0358
794.8646, 177.9866
795.3467, 183.2175
795.8289, 189.1157
796.3110, 196.0396
796.7931, 202.8548
797.2752, 207.8131
797.7573, 209.6050
798.2394, 214.9881
798.7216, 226.9319
799.2037, 240.1223
799.6858, 251.1597
800.1679, 259.7490
800.6500, 268.5789
801.1321, 277.6916
801.6143, 287.5223
802.0964, 299.0940
802.5785, 311.4759
803.0606, 322.4423
803.5427, 331.5552
804.0248, 342.4023
804.5070, 359.8170
804.9891, 378.0587
805.4712, 392.4090
805.9533, 400.8300
806.4354, 410.4868
806.9175, 421.5342
807.3997, 433.6338
807.8818, 446.8114
808.3639, 460.9373
808.8460, 475.6870
809.3281, 491.2578
809.8102, 504.8349
810.2924, 513.2809
810.7745, 518.4525
811.2566, 522.8190
811.7387, 526.7122
812.2208, 529.3550
812.7029, 530.6564
813.1851, 530.3940
813.6672, 528.5667
814.1493, 525.5206
814.6314, 519.6375
815.1135, 510.7931
815.5956, 499.5264
816.0778, 485.6120
816.5599, 469.5831
817.0420, 454.3071
817.5241, 439.8910
818.0062, 425.1502
818.4883, 408.9059
818.9705, 391.7663
819.4526, 374.0596
819.9347, 355.6542
820.4168, 338.6096
820.8989, 324.0757
821.3810, 310.3908
821.8632, 296.6771
822.3453, 282.9158
822.8274, 268.9017
823.3095, 254.6023
823.7916, 241.6861
824.2737, 232.1762
824.7559, 225.0035
825.2380, 218.4706
825.7201, 212.4839
826.2022, 206.1641
826.6843, 198.2975
827.1664, 190.5286
827.6486, 184.0895
828.1307, 179.2441
828.6128, 174.3478
829.0949, 169.3256
829.5770, 164.2907
830.0591, 159.0369
830.5413, 153.6805
831.0234, 149.4204
831.5055, 146.2455
831.9876, 143.4138
832.4697, 140.3266
832.9518, 137.3182
833.4340, 135.0832
833.9161, 133.5423
834.3982, 131.0155
834.8803, 125.0076
835.3624, 119.8048
835.8445, 117.4576
836.3267, 117.8402
836.8088, 117.8283
837.2909, 117.2943
837.7730, 116.9708
838.2551, 117.8639
838.7372, 119.0805
839.2194, 118.0807
839.7015, 115.1567
840.1836, 111.9976
840.6657, 109.3481
841.1478, 106.9709
841.6299, 104.6696
842.1121, 102.4825
842.5942, 100.8697
843.0763, 100.2068
843.5584, 99.40029
844.0405, 97.85001
844.5226, 95.97575
845.0048, 95.88512
845.4869, 97.42679
845.9690, 98.27957
846.4511, 97.00806
846.9332, 94.68906
847.4153, 91.77644
847.8975, 88.72569
848.3796, 86.82375
848.8617, 87.27432
849.3438, 88.10323
849.8259, 88.95467
850.3080, 89.73056
850.7902, 90.19823
851.2723, 90.36520
851.7544, 90.01820
852.2365, 88.66068
852.7186, 87.43954
853.2007, 89.71398
853.6829, 93.84561
854.1650, 95.30830
854.6471, 89.94621
855.1292, 84.59765
855.6113, 82.76920
856.0934, 83.10551
856.5756, 83.02336
857.0577, 81.74340
857.5398, 81.42536
858.0219, 82.57021
858.5040, 84.34757
858.9861, 85.92229
859.4683, 87.08456
859.9504, 86.26057
860.4325, 82.45546
860.9146, 78.69257
861.3967, 77.58165
861.8788, 78.22762
862.3610, 79.66434
862.8431, 83.16020
863.3252, 84.61271
863.8073, 82.30409
864.2894, 79.35094
864.7715, 79.20924
865.2537, 82.09160
865.7358, 83.09364
866.2179, 81.57881
866.7000, 80.11295
867.1821, 82.55859
867.6642, 86.18556
868.1464, 86.34916
868.6285, 81.68980
869.1106, 78.37807
869.5927, 80.64812
870.0748, 83.51556
870.5569, 83.35300
871.0391, 79.39033
871.5212, 78.21349
872.0033, 80.66805
872.4854, 82.53653
872.9675, 79.27705
873.4496, 73.35941
873.9318, 70.94964
874.4139, 72.03438
874.8960, 73.88589
875.3781, 75.77218
875.8602, 77.15990
876.3423, 77.60148
876.8245, 77.05701
877.3066, 76.25961
877.7887, 74.85549
878.2708, 74.06750
878.7529, 74.78660
879.2350, 76.32317
879.7172, 75.86667
880.1993, 73.79687
880.6814, 72.52870
881.1635, 74.30611
881.6456, 76.53598
882.1277, 77.18122
882.6099, 76.70631
883.0920, 76.54170
883.5741, 77.40579
884.0562, 77.93689
884.5383, 77.77950
885.0204, 77.28613
885.5026, 77.16170
885.9847, 77.40210
886.4668, 78.02614
886.9489, 79.20126
887.4310, 80.38577
887.9131, 81.39558
888.3953, 81.88007
888.8774, 81.26595
889.3595, 78.01252
889.8416, 75.76383
890.3237, 75.29464
890.8058, 75.77744
891.2880, 76.54989
891.7701, 77.66167
892.2522, 78.37917
892.7343, 78.63814
893.2164, 78.54888
893.6985, 77.46168
894.1807, 76.42381
894.6628, 77.45511
895.1449, 81.29133
895.6270, 83.91271
896.1091, 83.54626
896.5912, 81.74585
897.0734, 79.09839
897.5555, 75.42666
898.0376, 73.63105
898.5197, 74.00410
899.0018, 74.56753
899.4839, 73.23917
899.9661, 71.44798
900.4482, 72.42635
900.9303, 75.76720
901.4124, 78.48233
901.8945, 78.84762
902.3766, 78.52752
902.8588, 77.93999
903.3409, 77.27943
903.8230, 77.45504
904.3051, 78.77428
904.7872, 79.64912
905.2693, 79.26028
905.7515, 78.49232
906.2336, 79.57762
906.7157, 81.82454
907.1978, 83.21737
907.6799, 82.34337
908.1620, 81.16969
908.6442, 80.43432
909.1263, 80.01299
909.6084, 79.69527
910.0905, 79.55320
910.5726, 79.23968
911.0547, 78.59189
911.5369, 78.07266
912.0190, 78.65494
912.5011, 79.84361
912.9832, 80.20084
913.4653, 79.42445
913.9474, 78.18558
914.4296, 75.61658
914.9117, 73.63362
915.3938, 74.47600
915.8759, 79.53444
916.3580, 81.32403
916.8401, 78.57132
917.3223, 75.69604
917.8044, 76.14227
918.2865, 78.95628
918.7686, 80.88016
919.2507, 81.87656
919.7328, 81.97513
920.2150, 80.74540
920.6971, 79.02990
921.1792, 76.71216
921.6613, 74.14743
922.1434, 73.62486
922.6255, 76.15410
923.1077, 78.47525
923.5898, 79.87390
924.0719, 80.25461
924.5540, 78.56731
925.0361, 75.49179
925.5182, 73.92266
926.0004, 75.81682
926.4825, 78.02988
926.9646, 79.04297
927.4467, 78.97401
927.9288, 77.76637
928.4109, 73.51976
928.8931, 72.56569
929.3752, 76.45103
929.8573, 81.11238
930.3394, 81.36072
930.8215, 78.48504
931.3036, 77.33995
931.7858, 78.59981
932.2679, 79.87827
932.7500, 79.14614
933.2321, 78.04595
933.7142, 77.99502
934.1964, 79.32742
934.6785, 79.76421
935.1606, 78.88404
935.6427, 78.13929
936.1248, 78.36700
936.6069, 79.29478
937.0891, 80.09548
937.5712, 80.76958
938.0533, 81.26440
938.5354, 81.98035
939.0175, 82.07954
939.4996, 80.69521
939.9818, 78.31071
940.4639, 76.19050
940.9460, 73.74318
941.4281, 73.66508
941.9102, 77.51681
942.3923, 81.85646
942.8745, 79.66330
943.3566, 73.35691
943.8387, 70.37821
944.3208, 73.43165
944.8029, 76.63925
945.2850, 76.51500
945.7672, 75.09325
946.2493, 74.25457
946.7314, 74.23135
947.2135, 74.06902
947.6956, 73.59093
948.1777, 73.57629
948.6599, 75.06087
949.1420, 77.34946
949.6241, 79.05866
950.1062, 80.07452
950.5883, 79.92263
951.0704, 76.73122
951.5526, 73.88118
952.0347, 73.74383
952.5168, 75.45569
952.9989, 75.67283
953.4810, 74.03432
953.9631, 72.56753
954.4453, 71.77000
954.9274, 71.58627
955.4095, 72.41592
955.8916, 73.71896
956.3737, 74.25124
956.8558, 72.83389
957.3380, 72.09414
957.8201, 74.00267
958.3022, 76.26717
958.7843, 76.51259
959.2664, 74.13328
959.7485, 73.41082
960.2307, 74.68047
960.7128, 76.04866
961.1949, 75.23270
961.6770, 73.77950
962.1591, 74.57195
962.6412, 77.56973
963.1234, 78.80538
963.6055, 74.78281
964.0876, 71.05520
964.5697, 69.33631
965.0518, 69.48790
965.5339, 71.60000
966.0161, 75.67515
966.4982, 78.12012
966.9803, 76.86821
967.4624, 74.52407
967.9445, 73.96973
968.4266, 74.36629
968.9088, 74.33968
969.3909, 72.99716
969.8730, 71.93605
970.3551, 71.18782
970.8372, 70.82688
971.3193, 71.14303
971.8015, 72.01948
972.2836, 72.25219
972.7657, 71.73131
973.2478, 71.18813
973.7299, 71.25156
974.2120, 71.49011
974.6942, 71.73801
975.1763, 71.95633
975.6584, 71.20009
976.1405, 68.53194
976.6226, 66.90082
977.1047, 67.75894
977.5869, 70.07129
978.0690, 70.83538
978.5511, 70.48663
979.0332, 70.77003
979.5153, 73.56113
979.9974, 75.44224
980.4796, 72.91942
980.9617, 69.13435
981.4438, 68.71432
981.9259, 73.37056
982.4080, 76.45869
982.8901, 77.70963
983.3723, 77.29428
983.8544, 74.03584
984.3365, 69.70983
984.8186, 67.92307
985.3007, 68.91808
985.7828, 70.10551
986.2650, 69.85416
986.7471, 70.14141
987.2292, 72.46474
987.7113, 76.08070
988.1934, 76.76039
988.6755, 74.38770
989.1577, 71.67713
989.6398, 69.28280
990.1219, 67.70530
990.6040, 68.08112
991.0861, 69.57057
991.5682, 70.75642
992.0504, 71.06570
992.5325, 71.31310
993.0146, 71.62486
993.4967, 71.82877
993.9788, 71.48024
994.4609, 70.74527
994.9431, 71.51228
995.4252, 73.86991
995.9073, 75.59706
996.3894, 74.32694
996.8715, 72.44276
997.3536, 71.88946
997.8358, 72.61046
998.3179, 72.24399
998.8000, 69.65524
999.2821, 69.12703
999.7642, 72.90556
1000.246, 77.99599
1000.728, 77.73357
1001.211, 73.84507
1001.693, 70.63347
1002.175, 69.22116
1002.657, 69.08306
1003.139, 71.38078
1003.621, 73.90590
1004.103, 74.53020
1004.585, 72.81406
1005.068, 71.70200
1005.550, 71.20485
1006.032, 71.11745
1006.514, 71.21734
1006.996, 71.67152
1007.478, 73.04966
1007.960, 75.11598
1008.442, 76.52554
1008.924, 77.19902
1009.407, 76.62744
1009.889, 73.99065
1010.371, 70.70937
1010.853, 70.17936
1011.335, 71.91260
1011.817, 72.56868
1012.299, 71.09425
1012.781, 69.67921
1013.263, 70.29389
1013.746, 71.55640
1014.228, 71.98721
1014.710, 71.15593
1015.192, 71.56618
1015.674, 73.82148
1016.156, 75.30493
1016.638, 73.21117
1017.120, 69.82511
1017.603, 71.42410
1018.085, 76.35969
1018.567, 78.76270
1019.049, 72.49777
1019.531, 67.60397
1020.013, 67.83644
1020.495, 70.52447
1020.977, 72.01401
1021.459, 72.27864
1021.942, 72.21470
1022.424, 71.83085
1022.906, 71.95852
1023.388, 74.64719
1023.870, 77.39229
1024.352, 77.27644
1024.834, 73.76135
1025.316, 71.05503
1025.799, 69.45358
1026.281, 68.61898
1026.763, 68.31750
1027.245, 68.78248
1027.727, 71.78121
1028.209, 76.20117
1028.691, 78.14601
1029.173, 73.88059
1029.656, 70.37887
1030.138, 72.06645
1030.620, 75.41096
1031.102, 76.59258
1031.584, 75.14299
1032.066, 74.11600
1032.548, 73.58676
1033.030, 73.30785
1033.512, 73.16697
1033.995, 73.10391
1034.477, 73.00895
1034.959, 72.90823
1035.441, 72.99694
1035.923, 73.56194
1036.405, 73.87865
1036.887, 73.48765
1037.369, 73.15876
1037.851, 75.22726
1038.334, 78.76332
1038.816, 80.13892
1039.298, 78.19263
1039.780, 75.61205
1040.262, 72.79854
1040.744, 71.01537
1041.226, 71.99734
1041.708, 76.05601
1042.191, 75.99134
1042.673, 71.25077
1043.155, 67.17763
1043.637, 66.96458
1044.119, 68.77365
1044.601, 70.78113
1045.083, 72.73926
1045.565, 74.00779
1046.047, 73.63232
1046.530, 73.76246
1047.012, 75.08829
1047.494, 76.21162
1047.976, 74.89684
1048.458, 71.87997
1048.940, 71.05081
1049.422, 72.64476
1049.904, 74.42433
1050.386, 75.54586
1050.869, 75.91258
1051.351, 75.00185
1051.833, 73.23607
1052.315, 72.18845
1052.797, 71.88920
1053.279, 72.08887
1053.761, 72.74178
1054.243, 73.80711
1054.726, 76.37161
1055.208, 78.82845
1055.690, 78.40858
1056.172, 72.78071
1056.654, 70.24800
1057.136, 72.53977
1057.618, 75.91895
1058.100, 78.96855
1058.583, 81.17048
1059.065, 79.55807
1059.547, 74.92891
1060.029, 70.94641
1060.511, 69.24834
1060.993, 68.97002
1061.475, 70.84008
1061.957, 73.41050
1062.439, 74.64529
1062.922, 74.36810
1063.404, 74.48952
1063.886, 75.24324
1064.368, 75.54959
1064.850, 73.71665
1065.332, 71.48195
1065.814, 70.65970
1066.296, 71.28700
1066.778, 72.05403
1067.261, 73.46069
1067.743, 73.41299
1068.225, 70.70513
1068.707, 67.40550
1069.189, 68.14768
1069.671, 71.22805
1070.153, 72.34614
1070.635, 69.67471
1071.118, 67.95632
1071.600, 70.37922
1072.082, 73.13371
1072.564, 73.99760
1073.046, 73.13787
1073.528, 72.41311
1074.010, 71.87785
1074.492, 72.27338
1074.974, 75.24440
1075.457, 77.87292
1075.939, 77.40498
1076.421, 75.32587
1076.903, 74.13991
1077.385, 74.08701
1077.867, 74.71127
1078.349, 76.16241
1078.831, 77.55385
1079.313, 78.18446
1079.796, 78.16653
1080.278, 77.32584
1080.760, 75.84026
1081.242, 74.90878
1081.724, 75.47350
1082.206, 75.93443
1082.688, 76.12836
1083.170, 75.87290
1083.652, 74.11190
1084.135, 71.53256
1084.617, 71.06518
1085.099, 73.49874
1085.581, 76.18147
1086.063, 78.94273
1086.545, 80.07572
1087.027, 77.77901
1087.509, 72.63714
1087.992, 70.92764
1088.474, 72.69632
1088.956, 73.79660
1089.438, 71.74551
1089.920, 69.74435
1090.402, 71.50584
1090.884, 75.01868
1091.366, 77.52833
1091.849, 78.37124
1092.331, 79.02851
1092.813, 79.53026
1093.295, 79.74400
1093.777, 79.85041
1094.259, 79.46564
1094.741, 77.19580
1095.223, 73.70104
1095.705, 71.28646
1096.188, 71.47038
1096.670, 71.99965
1097.152, 72.52482
1097.634, 73.16904
1098.116, 74.40800
1098.598, 75.96597
1099.080, 76.55822
1099.562, 76.07342
1100.044, 74.79939
1100.527, 71.29739
1101.009, 68.70541
1101.491, 69.31095
1101.973, 72.03597
1102.455, 73.70550
1102.937, 74.32509
1103.419, 74.47884
1103.901, 74.32925
1104.384, 73.67049
1104.866, 71.66776
1105.348, 69.47653
1105.830, 68.51364
1106.312, 69.18144
1106.794, 68.13418
1107.276, 64.50679
1107.758, 62.67620
1108.240, 65.23608
1108.723, 69.97385
1109.205, 74.79070
1109.687, 78.87292
1110.169, 80.61201
1110.651, 77.93912
1111.133, 75.82852
1111.615, 74.65078
1112.097, 74.05254
1112.579, 73.58556
1113.062, 73.48730
1113.544, 75.25976
1114.026, 78.40271
1114.508, 80.40896
1114.990, 78.41744
1115.472, 77.20673
1115.954, 79.56113
1116.436, 82.38451
1116.919, 81.02433
1117.401, 75.87318
1117.883, 72.59709
1118.365, 71.69170
1118.847, 71.84908
1119.329, 73.22188
1119.811, 74.32643
1120.293, 73.70979
1120.776, 72.00636
1121.258, 71.44716
1121.740, 72.13599
1122.222, 73.00278
1122.704, 73.88614
1123.186, 74.62051
1123.668, 75.13615
1124.150, 75.36742
1124.632, 75.12780
1125.115, 74.33486
1125.597, 73.86548
1126.079, 73.70161
1126.561, 74.06304
1127.043, 75.47755
1127.525, 76.74949
1128.007, 75.30308
1128.489, 72.51229
1128.971, 70.75215
1129.454, 70.89953
1129.936, 71.34741
1130.418, 71.99654
1130.900, 72.76543
1131.382, 74.07713
1131.864, 75.29124
1132.346, 73.69727
1132.828, 70.22701
1133.311, 67.95554
1133.793, 68.93973
1134.275, 70.38363
1134.757, 72.19821
1135.239, 73.60182
1135.721, 73.57625
1136.203, 72.33306
1136.685, 71.48094
1137.167, 71.10969
1137.650, 71.62760
1138.132, 74.60316
1138.614, 77.07194
1139.096, 77.15151
1139.578, 75.99112
1140.060, 75.35189
1140.542, 75.24653
1141.024, 74.62881
1141.506, 73.33375
1141.989, 72.61656
1142.471, 74.90116
1142.953, 76.89562
1143.435, 75.20110
1143.917, 70.80181
1144.399, 68.89433
1144.881, 69.78316
1145.363, 71.50256
1145.846, 73.95078
1146.328, 75.59821
1146.810, 74.15617
1147.292, 71.37287
1147.774, 68.67168
1148.256, 66.22293
1148.738, 65.66821
1149.220, 67.53522
1149.703, 69.58489
1150.185, 71.49194
1150.667, 72.29699
1151.149, 68.66963
1151.631, 63.69525
1152.113, 62.59791
1152.595, 67.89215
1153.077, 72.19717
1153.559, 75.14101
1154.042, 76.70876
1154.524, 76.29119
1155.006, 75.00365
1155.488, 75.72005
1155.970, 77.55903
1156.452, 78.35827
1156.934, 77.07957
1157.416, 75.21742
1157.898, 72.48390
1158.381, 70.09664
1158.863, 69.05643
1159.345, 69.11633
1159.827, 69.31794
1160.309, 69.71998
1160.791, 70.56728
1161.273, 72.41677
1161.755, 74.17159
1162.238, 75.93290
1162.720, 77.09228
1163.202, 76.91575
1163.684, 75.50819
1164.166, 72.92384
1164.648, 69.42350
1165.130, 67.39605
1165.612, 69.72123
1166.094, 72.08939
1166.577, 72.90359
1167.059, 72.50101
1167.541, 70.70120
1168.023, 67.73289
1168.505, 66.97881
1168.987, 68.78951
1169.469, 70.95627
1169.951, 72.15813
1170.433, 73.03803
1170.916, 74.07697
1171.398, 75.07856
1171.880, 75.45251
1172.362, 75.20814
1172.844, 74.80991
1173.326, 74.31030
1173.808, 73.94006
1174.290, 73.95593
1174.773, 74.12871
1175.255, 74.34234
1175.737, 74.56236
1176.219, 74.59428
1176.701, 74.42400
1177.183, 74.49851
1177.665, 75.16080
1178.147, 75.30361
1178.630, 73.01304
1179.112, 70.28976
1179.594, 69.34799
1180.076, 70.27678
1180.558, 70.10595
1181.040, 68.64406
1181.522, 68.10950
1182.004, 69.98100
1182.486, 71.75425
1182.969, 69.15618
1183.451, 65.76233
1183.933, 66.68674
1184.415, 73.56440
1184.897, 76.41212
1185.379, 74.63951
1185.861, 72.70031
1186.343, 72.93959
1186.825, 74.07610
1187.308, 74.92331
1187.790, 75.51742
1188.272, 75.93242
1188.754, 76.40334
1189.236, 75.76089
1189.718, 73.68456
1190.200, 72.18547
1190.682, 73.37286
1191.165, 75.20338
1191.647, 74.98723
1192.129, 73.42324
1192.611, 71.82387
1193.093, 69.68757
1193.575, 69.54656
1194.057, 71.97886
1194.539, 74.18515
1195.021, 72.83337
1195.504, 70.75008
1195.986, 72.96537
1196.468, 72.08623
1196.950, 71.92913
1197.432, 74.36955
1197.914, 72.69568
1198.396, 75.87731
1198.878, 78.91106
1199.360, 75.31961
1199.843, 69.70063
1200.325, 69.16328
1200.807, 72.74671
1201.289, 75.56480
1201.771, 76.96014
1202.253, 76.85227
1202.735, 74.71254
1203.217, 72.76176
1203.700, 74.63486
1204.182, 77.56777
1204.664, 76.73079
1205.146, 72.64523
1205.628, 70.93481
1206.110, 73.89973
1206.592, 75.87199
1207.074, 75.81773
1207.557, 74.96910
1208.039, 74.94164
1208.521, 75.07816
1209.003, 74.10809
1209.485, 72.04570
1209.967, 71.00751
1210.449, 71.62720
1210.931, 72.27334
1211.413, 72.60284
1211.896, 72.86361
1212.378, 73.14600
1212.860, 73.71409
1213.342, 75.61607
1213.824, 78.95052
1214.306, 79.28426
1214.788, 74.59064
1215.270, 71.64793
1215.752, 72.62607
1216.235, 75.11956
1216.717, 76.04908
1217.199, 76.08459
1217.681, 76.02354
1218.163, 75.94865
1218.645, 76.79294
1219.127, 79.56303
1219.609, 80.14967
1220.092, 76.50323
1220.574, 71.77129
1221.056, 70.50664
1221.538, 71.24827
1222.020, 72.17862
1222.502, 73.09617
1222.984, 72.90840
1223.466, 70.92928
1223.948, 70.15993
1224.431, 72.09105
1224.913, 74.94453
1225.395, 76.53376
1225.877, 77.18616
1226.359, 77.19334
1226.841, 76.34789
1227.323, 76.55382
1227.805, 78.39122
1228.287, 78.81676
1228.770, 75.99017
1229.252, 72.17639
1229.734, 69.70699
1230.216, 68.61135
1230.698, 69.40046
1231.180, 72.84492
1231.662, 73.94219
1232.144, 72.16540
1232.627, 71.19882
1233.109, 73.30085
1233.591, 76.04018
1234.073, 76.78019
1234.555, 76.23135
1235.037, 75.16158
1235.519, 73.48462
1236.001, 72.67957
1236.484, 72.88779
1236.966, 72.71411
1237.448, 70.99547
1237.930, 69.31771
1238.412, 69.00195
1238.894, 69.85530
1239.376, 72.06084
1239.858, 76.03281
1240.340, 77.47819
1240.823, 76.26832
1241.305, 74.90848
1241.787, 74.80807
1242.269, 74.96941
1242.751, 74.28680
1243.233, 73.54556
1243.715, 73.82032
1244.197, 75.25335
1244.679, 76.51882
1245.162, 77.60415
1245.644, 77.41306
1246.126, 74.01513
1246.608, 70.93306
1247.090, 71.25273
1247.572, 72.69238
1248.054, 72.59457
1248.536, 70.90588
1249.019, 68.80807
1249.501, 66.46497
1249.983, 65.64098
1250.465, 68.96761
1250.947, 71.99975
1251.429, 71.96236
1251.911, 70.90714
1252.393, 70.64619
1252.875, 71.13988
1253.358, 71.76124
1253.840, 72.47681
1254.322, 73.08842
1254.804, 73.57430
1255.286, 73.80024
1255.768, 72.89940
1256.250, 72.58493
1256.732, 75.29823
1257.214, 80.09768
1257.697, 80.70718
1258.179, 77.85635
1258.661, 75.01733
1259.143, 72.72027
1259.625, 72.29549
1260.107, 75.09290
1260.589, 77.83912
1261.071, 77.15295
1261.554, 74.32691
1262.036, 73.51153
1262.518, 74.24647
1263.000, 74.81924
1263.482, 74.15620
1263.964, 74.01831
1264.446, 74.70336
1264.928, 75.56457
1265.411, 76.21655
1265.893, 76.58320
1266.375, 76.59928
1266.857, 76.20694
1267.339, 75.22390
1267.821, 72.52794
1268.303, 71.25986
1268.785, 71.60732
1269.267, 72.91302
1269.750, 75.47264
1270.232, 78.04986
1270.714, 79.19272
1271.196, 79.07814
1271.678, 77.95338
1272.160, 75.33707
1272.642, 73.43076
1273.124, 72.23661
1273.606, 72.26339
1274.089, 75.69318
1274.571, 78.75726
1275.053, 76.96900
1275.535, 72.86394
1276.017, 70.99584
1276.499, 71.78452
1276.981, 72.97294
1277.463, 74.49698
1277.946, 75.29253
1278.428, 73.78153
1278.910, 72.29842
1279.392, 72.66680
1279.874, 73.62413
1280.356, 73.32359
1280.838, 71.84020
1281.320, 73.53277
1281.802, 77.87128
1282.285, 79.95305
1282.767, 73.69658
1283.249, 69.17587
1283.731, 71.29799
1284.213, 75.21227
1284.695, 76.70742
1285.177, 76.38864
1285.659, 77.62394
1286.141, 79.83743
1286.624, 80.54095
1287.106, 76.36800
1287.588, 74.15808
1288.070, 75.26568
1288.552, 77.33524
1289.034, 79.10843
1289.516, 80.12744
1289.998, 78.52132
1290.481, 75.36560
1290.963, 73.42314
1291.445, 74.40795
1291.927, 75.08469
1292.409, 75.40663
1292.891, 75.55668
1293.373, 75.75614
1293.855, 75.78530
1294.338, 75.03865
1294.820, 74.01472
1295.302, 73.79832
1295.784, 74.85685
1296.266, 74.69488
1296.748, 73.20251
1297.230, 72.47366
1297.712, 74.44334
1298.194, 76.90605
1298.677, 79.01019
1299.159, 79.92661
1299.641, 78.22173
1300.123, 73.75029
1300.605, 73.65316
1301.087, 77.31158
1301.569, 79.06596
1302.051, 74.13251
1302.533, 69.77599
1303.016, 68.37415
##END=



