##NAMES=Chalcocite
##RRUFFID=R070730
##IDEAL CHEMISTRY=Cu^1+^_2_S^2-^
##LOCALITY=La Mesa, Chihuahua, Mexico
##OWNER=RRUFF
##SOURCE=Michael Scott
##DESCRIPTION=Dark gray rounded metallic grains associated with ajoite
##STATUS=The identification of this mineral is confirmed by single-crystal X-ray diffraction and chemical analysis.
##URL=rruff.info/R070730
##MEASURED CHEMISTRY=Cu_1.97_Ag_0.01_S
89.15009, 43798.20
89.63220, 44616.91
90.11432, 45277.50
90.59644, 46003.64
91.07855, 46840.71
91.56067, 47696.29
92.04279, 48561.37
92.52490, 49418.07
93.00702, 50203.91
93.48914, 50802.43
93.97125, 51033.43
94.45337, 51211.73
94.93549, 50952.32
95.41760, 50440.04
95.89972, 49934.48
96.38184, 49378.08
96.86395, 48810.63
97.34607, 48342.21
97.82819, 47971.73
98.31030, 47664.89
98.79242, 47423.71
99.27454, 47243.63
99.75665, 47055.28
100.2388, 46780.96
100.7209, 46468.88
101.2030, 46209.83
101.6851, 46054.02
102.1672, 45957.23
102.6494, 45819.65
103.1315, 45592.88
103.6136, 45398.59
104.0957, 45287.74
104.5778, 45247.14
105.0599, 45248.45
105.5421, 45294.46
106.0242, 45395.21
106.5063, 45430.27
106.9884, 45345.23
107.4705, 45229.62
107.9526, 45110.25
108.4348, 44994.63
108.9169, 44882.36
109.3990, 44770.69
109.8811, 44638.41
110.3632, 44544.30
110.8453, 44501.73
111.3275, 44485.77
111.8096, 44480.56
112.2917, 44479.33
112.7738, 44475.87
113.2559, 44446.37
113.7380, 44371.52
114.2202, 44294.25
114.7023, 44211.83
115.1844, 44131.90
115.6665, 44070.49
116.1486, 44040.19
116.6307, 44039.95
117.1129, 44043.59
117.5950, 44059.96
118.0771, 44073.09
118.5592, 44075.93
119.0413, 44068.63
119.5234, 44039.73
120.0056, 43955.96
120.4877, 43837.40
120.9698, 43743.57
121.4519, 43696.99
121.9340, 43687.54
122.4161, 43693.60
122.8982, 43718.37
123.3804, 43752.71
123.8625, 43801.88
124.3446, 43859.89
124.8267, 43896.45
125.3088, 43874.64
125.7909, 43788.62
126.2731, 43727.40
126.7552, 43715.18
127.2373, 43722.97
127.7194, 43750.46
128.2015, 43793.94
128.6837, 43832.16
129.1658, 43830.61
129.6479, 43764.79
130.1300, 43704.25
130.6121, 43665.49
131.0942, 43628.68
131.5764, 43566.88
132.0585, 43468.55
132.5406, 43355.09
133.0227, 43304.10
133.5048, 43394.84
133.9869, 43465.84
134.4691, 43504.94
134.9512, 43511.48
135.4333, 43482.35
135.9154, 43411.38
136.3975, 43301.89
136.8796, 43215.00
137.3618, 43145.73
137.8439, 43098.01
138.3260, 43075.27
138.8081, 43077.07
139.2902, 43101.43
139.7723, 43158.54
140.2545, 43246.57
140.7366, 43297.85
141.2187, 43295.09
141.7008, 43260.02
142.1829, 43206.04
142.6650, 43128.13
143.1472, 43059.71
143.6293, 43046.20
144.1114, 43075.89
144.5935, 43100.09
145.0756, 43083.27
145.5577, 43042.16
146.0399, 43040.25
146.5220, 43126.30
147.0041, 43206.06
147.4862, 43186.75
147.9683, 43073.95
148.4504, 42971.62
148.9326, 42985.82
149.4147, 43130.59
149.8968, 43242.68
150.3789, 43285.32
150.8610, 43288.57
151.3431, 43251.36
151.8252, 43175.45
152.3074, 43089.62
152.7895, 43036.14
153.2716, 43017.30
153.7537, 43030.80
154.2358, 43119.99
154.7179, 43213.67
155.2001, 43242.36
155.6822, 43175.96
156.1643, 43048.57
156.6464, 42965.34
157.1285, 42965.69
157.6106, 42969.92
158.0928, 42960.98
158.5749, 42952.59
159.0570, 42968.85
159.5391, 43026.79
160.0212, 43120.30
160.5033, 43177.37
160.9855, 43186.51
161.4676, 43177.64
161.9497, 43148.87
162.4318, 43107.37
162.9139, 43069.80
163.3960, 43049.69
163.8782, 43047.92
164.3603, 43040.52
164.8424, 43026.71
165.3245, 43008.52
165.8066, 42984.21
166.2887, 42954.21
166.7709, 42926.15
167.2530, 42903.91
167.7351, 42888.38
168.2172, 42892.17
168.6993, 42954.21
169.1814, 43021.74
169.6636, 43007.54
170.1457, 42877.39
170.6278, 42752.71
171.1099, 42806.60
171.5920, 43002.34
172.0741, 43141.04
172.5563, 43097.65
173.0384, 42933.98
173.5205, 42830.84
174.0026, 42837.95
174.4847, 42884.62
174.9668, 42912.23
175.4490, 42921.36
175.9311, 42915.41
176.4132, 42881.29
176.8953, 42820.49
177.3774, 42796.64
177.8595, 42868.66
178.3417, 42943.07
178.8238, 42949.69
179.3059, 42884.02
179.7880, 42808.22
180.2701, 42799.78
180.7522, 42880.59
181.2344, 42936.32
181.7165, 42927.53
182.1986, 42903.18
182.6807, 42893.15
183.1628, 42905.43
183.6449, 42925.92
184.1271, 42928.70
184.6092, 42897.39
185.0913, 42881.34
185.5734, 42889.73
186.0555, 42910.49
186.5376, 42939.71
187.0198, 42975.57
187.5019, 43007.49
187.9840, 43007.38
188.4661, 42947.74
188.9482, 42887.04
189.4303, 42803.32
189.9125, 42728.93
190.3946, 42713.76
190.8767, 42786.59
191.3588, 42918.37
191.8409, 42972.42
192.3230, 42851.04
192.8052, 42760.29
193.2873, 42757.30
193.7694, 42808.25
194.2515, 42850.23
194.7336, 42843.71
195.2157, 42795.84
195.6979, 42778.36
196.1800, 42816.20
196.6621, 42851.11
197.1442, 42851.55
197.6263, 42828.72
198.1084, 42821.24
198.5906, 42861.15
199.0727, 42942.63
199.5548, 42987.73
200.0369, 42990.07
200.5190, 42966.14
201.0011, 42903.02
201.4833, 42808.26
201.9654, 42739.92
202.4475, 42750.32
202.9296, 42833.88
203.4117, 42897.97
203.8938, 42941.66
204.3760, 42964.35
204.8581, 42958.90
205.3402, 42923.95
205.8223, 42882.64
206.3044, 42845.26
206.7865, 42815.20
207.2687, 42806.83
207.7508, 42848.81
208.2329, 42904.09
208.7150, 42913.40
209.1971, 42860.69
209.6792, 42811.21
210.1614, 42823.24
210.6435, 42878.18
211.1256, 42940.15
211.6077, 43017.11
212.0898, 43089.78
212.5719, 43107.10
213.0541, 43041.07
213.5362, 42970.93
214.0183, 42963.37
214.5004, 42996.01
214.9825, 43013.09
215.4646, 42974.29
215.9468, 42893.12
216.4289, 42824.59
216.9110, 42764.24
217.3931, 42728.26
217.8752, 42731.60
218.3573, 42764.37
218.8395, 42797.95
219.3216, 42806.59
219.8037, 42793.72
220.2858, 42803.99
220.7679, 42868.66
221.2500, 42923.98
221.7322, 42928.66
222.2143, 42896.17
222.6964, 42870.58
223.1785, 42897.17
223.6606, 42979.50
224.1427, 43033.52
224.6249, 43046.23
225.1070, 43038.10
225.5891, 43005.48
226.0712, 42955.26
226.5533, 42905.46
227.0354, 42870.76
227.5176, 42851.14
227.9997, 42846.11
228.4818, 42873.88
228.9639, 42900.54
229.4460, 42913.13
229.9281, 42911.25
230.4103, 42900.89
230.8924, 42885.35
231.3745, 42860.16
231.8566, 42849.93
232.3387, 42868.53
232.8208, 42889.18
233.3030, 42899.98
233.7851, 42900.48
234.2672, 42896.84
234.7493, 42894.56
235.2314, 42891.46
235.7135, 42899.57
236.1957, 42933.31
236.6778, 42965.28
237.1599, 42981.12
237.6420, 42979.88
238.1241, 42968.96
238.6062, 42956.91
239.0884, 42945.90
239.5705, 42925.82
240.0526, 42868.55
240.5347, 42825.17
241.0168, 42838.14
241.4989, 42905.01
241.9811, 42983.17
242.4632, 43024.39
242.9453, 43019.02
243.4274, 42999.38
243.9095, 42951.20
244.3916, 42901.36
244.8738, 42861.16
245.3559, 42834.65
245.8380, 42826.64
246.3201, 42846.79
246.8022, 42913.70
247.2843, 42946.05
247.7665, 42917.20
248.2486, 42876.26
248.7307, 42855.24
249.2128, 42859.21
249.6949, 42877.99
250.1770, 42901.59
250.6592, 42932.91
251.1413, 42958.41
251.6234, 42980.47
252.1055, 42995.54
252.5876, 42997.06
253.0697, 42985.62
253.5519, 42973.35
254.0340, 42975.91
254.5161, 43001.09
254.9982, 43005.72
255.4803, 42967.10
255.9624, 42923.34
256.4445, 42901.79
256.9267, 42906.60
257.4088, 42930.25
257.8909, 42969.77
258.3730, 43031.44
258.8551, 43070.36
259.3372, 43066.74
259.8194, 43052.98
260.3015, 43062.37
260.7836, 43096.88
261.2657, 43121.88
261.7478, 43097.08
262.2299, 43011.80
262.7121, 42960.00
263.1942, 42969.57
263.6763, 42995.75
264.1584, 42996.96
264.6405, 42970.57
265.1227, 42952.36
265.6048, 42983.38
266.0869, 43067.87
266.5690, 43111.09
267.0511, 43055.42
267.5332, 42995.21
268.0154, 43034.13
268.4975, 43173.38
268.9796, 43289.91
269.4617, 43265.42
269.9438, 43099.86
270.4259, 42998.42
270.9081, 43006.08
271.3902, 43051.16
271.8723, 43088.38
272.3544, 43113.89
272.8365, 43121.00
273.3186, 43092.55
273.8008, 43035.92
274.2829, 43022.30
274.7650, 43097.03
275.2471, 43182.37
275.7292, 43224.13
276.2113, 43221.80
276.6935, 43194.63
277.1756, 43147.08
277.6577, 43083.65
278.1398, 43037.00
278.6219, 43003.17
279.1040, 42989.16
279.5862, 43020.95
280.0683, 43090.12
280.5504, 43126.11
281.0325, 43066.14
281.5146, 42940.89
281.9967, 42882.67
282.4789, 42927.40
282.9610, 43003.77
283.4431, 43089.38
283.9252, 43177.70
284.4073, 43227.98
284.8894, 43207.96
285.3716, 43137.99
285.8537, 43088.49
286.3358, 43064.92
286.8179, 43053.62
287.3000, 43054.13
287.7821, 43062.89
288.2643, 43065.61
288.7464, 43055.56
289.2285, 43035.11
289.7106, 43008.56
290.1927, 42959.98
290.6748, 42933.36
291.1570, 42973.89
291.6391, 43057.52
292.1212, 43106.95
292.6033, 43085.07
293.0854, 43022.53
293.5675, 42982.52
294.0497, 42971.54
294.5318, 42960.54
295.0139, 42935.84
295.4960, 42902.68
295.9781, 42870.65
296.4602, 42840.07
296.9424, 42817.78
297.4245, 42821.59
297.9066, 42856.97
298.3887, 42884.61
298.8708, 42879.72
299.3529, 42861.13
299.8351, 42868.43
300.3172, 42918.07
300.7993, 42972.62
301.2814, 42964.89
301.7635, 42885.64
302.2456, 42843.03
302.7278, 42900.39
303.2099, 42994.32
303.6920, 43031.75
304.1741, 42990.53
304.6562, 42930.32
305.1383, 42923.31
305.6205, 42973.46
306.1026, 43001.81
306.5847, 42972.56
307.0668, 42930.54
307.5489, 42927.02
308.0310, 42968.43
308.5132, 43017.61
308.9953, 43044.61
309.4774, 43047.38
309.9595, 43030.91
310.4416, 42973.58
310.9237, 42912.60
311.4059, 42872.35
311.8880, 42855.19
312.3701, 42861.64
312.8522, 42899.79
313.3343, 42966.66
313.8164, 43011.29
314.2986, 43016.19
314.7807, 43015.02
315.2628, 43024.38
315.7449, 43043.85
316.2270, 43072.07
316.7091, 43114.61
317.1913, 43162.78
317.6734, 43169.15
318.1555, 43085.32
318.6376, 43017.92
319.1197, 43020.09
319.6018, 43069.47
320.0840, 43113.99
320.5661, 43128.41
321.0482, 43120.67
321.5303, 43116.32
322.0124, 43139.53
322.4945, 43134.37
322.9767, 43060.33
323.4588, 42957.67
323.9409, 42884.38
324.4230, 42862.08
324.9051, 42879.39
325.3872, 42917.43
325.8694, 43006.02
326.3515, 43061.50
326.8336, 43068.75
327.3157, 43044.03
327.7978, 42986.74
328.2799, 42900.17
328.7621, 42825.54
329.2442, 42823.39
329.7263, 42937.60
330.2084, 43019.07
330.6905, 43013.08
331.1726, 43014.38
331.6548, 43134.32
332.1369, 43361.61
332.6190, 43549.70
333.1011, 43533.21
333.5832, 43255.89
334.0653, 43090.34
334.5475, 43096.06
335.0296, 43135.75
335.5117, 43155.18
335.9938, 43151.12
336.4759, 43135.81
336.9580, 43115.31
337.4402, 43090.16
337.9223, 43098.50
338.4044, 43192.02
338.8865, 43261.87
339.3686, 43278.93
339.8507, 43252.95
340.3329, 43197.09
340.8150, 43115.47
341.2971, 43020.32
341.7792, 42963.89
342.2613, 42979.08
342.7434, 42995.17
343.2256, 43012.59
343.7077, 43023.67
344.1898, 43015.75
344.6719, 42984.26
345.1540, 42945.22
345.6361, 42934.25
346.1183, 42979.57
346.6004, 42997.63
347.0825, 42955.36
347.5646, 42907.01
348.0467, 42897.12
348.5288, 42932.10
349.0110, 42978.68
349.4931, 42990.68
349.9752, 42954.54
350.4573, 42937.93
350.9394, 42947.69
351.4215, 42972.96
351.9037, 43027.10
352.3858, 43098.13
352.8679, 43147.48
353.3500, 43128.91
353.8321, 43045.49
354.3142, 43001.86
354.7964, 43033.36
355.2785, 43063.86
355.7606, 43059.95
356.2427, 43033.05
356.7248, 43007.64
357.2069, 42999.88
357.6891, 43001.66
358.1712, 42988.11
358.6533, 42950.96
359.1354, 42916.72
359.6175, 42885.46
360.0996, 42866.23
360.5818, 42874.73
361.0639, 42922.32
361.5460, 42983.06
362.0281, 43028.14
362.5102, 43058.87
362.9923, 43062.75
363.4745, 43021.09
363.9566, 42958.66
364.4387, 42889.94
364.9208, 42811.67
365.4029, 42762.36
365.8850, 42791.97
366.3672, 42884.13
366.8493, 42947.21
367.3314, 42951.49
367.8135, 42936.01
368.2956, 42946.35
368.7777, 42980.16
369.2599, 42999.11
369.7420, 42993.03
370.2241, 42960.72
370.7062, 42882.74
371.1883, 42745.69
371.6704, 42628.81
372.1526, 42616.67
372.6347, 42690.46
373.1168, 42739.67
373.5989, 42725.52
374.0810, 42700.46
374.5631, 42717.74
375.0453, 42771.60
375.5274, 42804.57
376.0095, 42775.00
376.4916, 42700.12
376.9737, 42657.30
377.4558, 42670.81
377.9380, 42684.00
378.4201, 42659.59
378.9022, 42622.06
379.3843, 42629.70
379.8664, 42711.14
380.3485, 42819.94
380.8307, 42855.96
381.3128, 42766.12
381.7949, 42701.61
382.2770, 42681.81
382.7591, 42685.95
383.2412, 42699.69
383.7234, 42718.41
384.2055, 42738.29
384.6876, 42756.92
385.1697, 42779.97
385.6518, 42775.16
386.1339, 42705.58
386.6161, 42647.06
387.0982, 42643.64
387.5803, 42684.75
388.0624, 42734.46
388.5445, 42768.22
389.0266, 42786.62
389.5088, 42795.89
389.9909, 42801.60
390.4730, 42789.81
390.9551, 42735.14
391.4372, 42669.41
391.9193, 42632.63
392.4015, 42642.38
392.8836, 42682.84
393.3657, 42726.79
393.8478, 42783.88
394.3299, 42818.18
394.8120, 42798.23
395.2942, 42773.61
395.7763, 42784.73
396.2584, 42834.71
396.7405, 42885.22
397.2226, 42888.45
397.7047, 42843.89
398.1869, 42832.07
398.6690, 42891.74
399.1511, 42944.86
399.6332, 42942.27
400.1153, 42897.61
400.5974, 42851.36
401.0796, 42824.09
401.5617, 42810.14
402.0438, 42795.80
402.5259, 42779.47
403.0080, 42770.14
403.4901, 42778.19
403.9723, 42795.29
404.4544, 42809.60
404.9365, 42820.28
405.4186, 42825.87
405.9007, 42817.50
406.3828, 42799.53
406.8650, 42800.30
407.3471, 42839.85
407.8292, 42888.91
408.3113, 42889.32
408.7934, 42825.24
409.2755, 42794.97
409.7577, 42879.04
410.2398, 42994.68
410.7219, 43003.18
411.2040, 42879.69
411.6861, 42760.16
412.1682, 42797.78
412.6504, 43022.06
413.1325, 43133.03
413.6146, 43030.76
414.0967, 42911.98
414.5788, 42892.50
415.0609, 42952.26
415.5431, 43013.44
416.0252, 43030.29
416.5073, 43008.55
416.9894, 42974.11
417.4715, 42896.82
417.9536, 42844.21
418.4358, 42840.38
418.9179, 42856.82
419.4000, 42859.21
419.8821, 42838.40
420.3642, 42816.61
420.8463, 42833.93
421.3285, 42918.42
421.8106, 42964.21
422.2927, 42933.76
422.7748, 42899.55
423.2569, 42890.70
423.7390, 42909.24
424.2212, 42949.15
424.7033, 43018.72
425.1854, 43106.44
425.6675, 43135.38
426.1496, 43062.09
426.6317, 43002.31
427.1139, 43004.03
427.5960, 43040.93
428.0781, 43087.02
428.5602, 43141.89
429.0423, 43178.97
429.5244, 43149.93
430.0066, 43052.92
430.4887, 42976.68
430.9708, 42945.47
431.4529, 42948.49
431.9350, 42978.01
432.4171, 43036.28
432.8993, 43080.79
433.3814, 43079.97
433.8635, 43054.91
434.3456, 43045.40
434.8277, 43058.13
435.3098, 43074.17
435.7920, 43077.54
436.2741, 43068.97
436.7562, 43062.90
437.2383, 43062.43
437.7204, 43062.08
438.2025, 43057.27
438.6847, 43049.72
439.1668, 43045.92
439.6489, 43050.14
440.1310, 43057.09
440.6131, 43052.32
441.0952, 43022.59
441.5774, 42999.60
442.0595, 42981.29
442.5416, 42972.35
443.0237, 42981.71
443.5058, 43008.41
443.9879, 43037.39
444.4701, 43048.51
444.9522, 43034.93
445.4343, 43051.89
445.9164, 43186.33
446.3985, 43262.83
446.8806, 43164.82
447.3628, 42974.58
447.8449, 42846.71
448.3270, 42870.82
448.8091, 42991.94
449.2912, 43083.47
449.7733, 43152.16
450.2555, 43170.23
450.7376, 43070.41
451.2197, 42954.53
451.7018, 42906.26
452.1839, 42938.85
452.6660, 42981.84
453.1482, 42971.73
453.6303, 42922.04
454.1124, 42902.72
454.5945, 42940.24
455.0766, 42968.21
455.5587, 42900.96
456.0409, 42773.85
456.5230, 42695.41
457.0051, 42725.32
457.4872, 42786.19
457.9693, 42810.98
458.4514, 42804.59
458.9336, 42797.88
459.4156, 42804.57
459.8978, 42821.38
460.3799, 42840.00
460.8620, 42856.68
461.3441, 42881.05
461.8262, 42926.36
462.3083, 42973.75
462.7905, 43009.08
463.2726, 43027.25
463.7547, 43016.39
464.2368, 42954.59
464.7189, 42827.71
465.2010, 42774.55
465.6832, 42865.54
466.1653, 42950.31
466.6474, 42972.46
467.1295, 42957.40
467.6116, 42956.57
468.0938, 42997.77
468.5759, 43052.99
469.0580, 43048.80
469.5401, 42948.45
470.0222, 42893.74
470.5043, 42965.38
470.9865, 43049.59
471.4686, 43067.35
471.9507, 43016.89
472.4328, 42962.84
472.9149, 42965.38
473.3970, 43004.55
473.8792, 42998.27
474.3613, 42923.35
474.8434, 42861.89
475.3255, 42872.66
475.8076, 42935.05
476.2897, 43014.19
476.7719, 43147.67
477.2540, 43242.29
477.7361, 43198.47
478.2182, 43059.99
478.7003, 42962.91
479.1824, 42958.99
479.6646, 42996.58
480.1467, 42994.64
480.6288, 42934.61
481.1109, 42894.79
481.5930, 42891.34
482.0751, 42899.86
482.5573, 42909.52
483.0394, 42915.93
483.5215, 42909.72
484.0036, 42881.02
484.4857, 42836.36
484.9678, 42820.35
485.4500, 42853.87
485.9321, 42889.57
486.4142, 42933.41
486.8963, 42969.46
487.3784, 42978.17
487.8605, 42956.11
488.3427, 42924.46
488.8248, 42901.95
489.3069, 42888.15
489.7890, 42900.55
490.2711, 42969.96
490.7532, 43025.36
491.2354, 43020.66
491.7175, 42974.72
492.1996, 42929.69
492.6817, 42888.86
493.1638, 42869.48
493.6459, 42909.53
494.1281, 43003.61
494.6102, 43073.68
495.0923, 43086.95
495.5744, 43064.91
496.0565, 43045.85
496.5386, 43035.50
497.0208, 43004.30
497.5029, 42891.80
497.9850, 42787.17
498.4671, 42808.09
498.9492, 42948.00
499.4313, 43083.04
499.9135, 43111.73
500.3956, 43042.72
500.8777, 42993.98
501.3598, 42982.80
501.8419, 42971.54
502.3240, 42954.05
502.8062, 42933.91
503.2883, 42912.72
503.7704, 42892.00
504.2525, 42878.25
504.7346, 42887.05
505.2167, 42925.48
505.6989, 42934.73
506.1810, 42881.52
506.6631, 42836.10
507.1452, 42841.42
507.6273, 42878.88
508.1094, 42905.38
508.5916, 42898.48
509.0737, 42877.27
509.5558, 42865.20
510.0379, 42862.11
510.5200, 42865.12
511.0021, 42875.97
511.4843, 42888.96
511.9664, 42890.95
512.4485, 42877.51
512.9306, 42882.52
513.4127, 42939.09
513.8948, 43002.14
514.3770, 43026.37
514.8591, 43010.80
515.3412, 42974.73
515.8233, 42924.74
516.3054, 42869.95
516.7875, 42870.39
517.2697, 43020.55
517.7518, 43109.38
518.2339, 43076.96
518.7160, 42997.03
519.1981, 42933.50
519.6802, 42902.64
520.1624, 42892.76
520.6445, 42897.46
521.1266, 42917.52
521.6087, 42919.39
522.0908, 42887.86
522.5729, 42860.59
523.0551, 42858.71
523.5372, 42870.11
524.0193, 42874.70
524.5014, 42862.84
524.9835, 42851.05
525.4656, 42858.76
525.9478, 42882.12
526.4299, 42900.15
526.9120, 42905.46
527.3941, 42909.27
527.8762, 42930.39
528.3583, 42970.43
528.8405, 42986.23
529.3226, 42943.49
529.8047, 42902.05
530.2868, 42908.95
530.7689, 42950.29
531.2510, 42986.41
531.7332, 42998.00
532.2153, 42986.98
532.6974, 42955.23
533.1795, 42876.68
533.6616, 42825.78
534.1437, 42827.04
534.6259, 42833.43
535.1080, 42801.49
535.5901, 42744.15
536.0722, 42718.24
536.5543, 42780.45
537.0364, 42894.83
537.5186, 42943.43
538.0007, 42911.13
538.4828, 42871.01
538.9649, 42837.34
539.4470, 42818.00
539.9291, 42833.57
540.4113, 42894.33
540.8934, 42925.55
541.3755, 42857.47
541.8576, 42749.06
542.3397, 42691.74
542.8218, 42695.52
543.3040, 42725.98
543.7861, 42761.30
544.2682, 42800.94
544.7503, 42841.04
545.2324, 42901.51
545.7145, 42937.75
546.1967, 42937.13
546.6788, 42909.86
547.1609, 42849.03
547.6430, 42762.37
548.1251, 42696.99
548.6072, 42716.57
549.0894, 42825.51
549.5715, 42892.71
550.0536, 42900.56
550.5357, 42890.69
551.0178, 42870.44
551.4999, 42847.38
551.9821, 42831.08
552.4642, 42824.07
552.9463, 42825.02
553.4284, 42830.92
553.9105, 42843.18
554.3926, 42871.47
554.8748, 42921.64
555.3569, 42971.85
555.8390, 43003.12
556.3211, 43014.40
556.8032, 43015.26
557.2853, 43003.48
557.7675, 42983.25
558.2496, 42938.72
558.7317, 42891.03
559.2138, 42875.62
559.6959, 42905.16
560.1780, 42969.34
560.6602, 43067.62
561.1423, 43235.34
561.6244, 43296.61
562.1065, 43155.31
562.5886, 42997.96
563.0707, 42856.54
563.5529, 42750.29
564.0350, 42707.79
564.5171, 42750.23
564.9992, 42836.07
565.4813, 42926.07
565.9634, 43017.99
566.4456, 43070.51
566.9277, 43061.29
567.4098, 43033.34
567.8919, 43035.79
568.3740, 43064.51
568.8561, 43078.56
569.3383, 43048.06
569.8204, 43022.80
570.3025, 43058.60
570.7846, 43124.33
571.2667, 43132.00
571.7488, 43043.52
572.2310, 42923.43
572.7131, 42892.44
573.1952, 42994.50
573.6773, 43067.50
574.1594, 43111.33
574.6415, 43128.35
575.1237, 43093.93
575.6058, 43035.66
576.0879, 43012.04
576.5700, 43060.39
577.0521, 43132.33
577.5342, 43150.53
578.0164, 43114.63
578.4985, 43076.05
578.9806, 43042.23
579.4627, 43016.39
579.9448, 43002.58
580.4269, 42999.86
580.9091, 43005.59
581.3912, 43022.43
581.8733, 43044.70
582.3554, 43085.50
582.8375, 43128.40
583.3196, 43123.75
583.8018, 43049.02
584.2839, 42952.78
584.7660, 42922.14
585.2481, 42984.79
585.7302, 43035.21
586.2123, 43073.71
586.6945, 43100.65
587.1766, 43110.87
587.6587, 43110.29
588.1408, 43109.16
588.6229, 43111.46
589.1050, 43117.46
589.5872, 43132.13
590.0693, 43154.73
590.5514, 43163.51
591.0335, 43150.98
591.5156, 43129.03
591.9977, 43102.62
592.4799, 43073.73
592.9620, 43062.05
593.4441, 43075.90
593.9262, 43102.02
594.4083, 43138.03
594.8904, 43179.68
595.3726, 43222.32
595.8547, 43263.87
596.3368, 43295.63
596.8189, 43303.17
597.3010, 43281.34
597.7831, 43259.41
598.2653, 43241.16
598.7474, 43218.51
599.2295, 43174.99
599.7116, 43129.64
600.1937, 43112.92
600.6758, 43138.28
601.1580, 43181.56
601.6401, 43227.98
602.1222, 43273.13
602.6043, 43288.70
603.0864, 43262.72
603.5685, 43237.23
604.0507, 43255.21
604.5328, 43309.79
605.0149, 43329.26
605.4970, 43266.94
605.9791, 43224.80
606.4612, 43265.66
606.9434, 43334.33
607.4255, 43360.17
607.9076, 43327.64
608.3897, 43264.38
608.8718, 43186.26
609.3539, 43095.14
609.8361, 43094.14
610.3182, 43257.90
610.8003, 43387.44
611.2824, 43394.34
611.7645, 43349.06
612.2466, 43323.75
612.7288, 43331.64
613.2109, 43347.27
613.6930, 43353.67
614.1751, 43356.70
614.6572, 43373.34
615.1393, 43404.19
615.6215, 43416.41
616.1036, 43380.50
616.5857, 43317.77
617.0678, 43305.71
617.5499, 43421.09
618.0320, 43480.09
618.5142, 43422.78
618.9963, 43346.67
619.4784, 43332.12
619.9605, 43371.91
620.4426, 43404.94
620.9247, 43383.59
621.4069, 43334.61
621.8890, 43333.50
622.3711, 43389.08
622.8532, 43441.76
623.3353, 43485.09
623.8174, 43510.07
624.2996, 43500.23
624.7817, 43458.44
625.2638, 43429.73
625.7459, 43437.63
626.2280, 43453.08
626.7101, 43455.93
627.1923, 43447.88
627.6744, 43430.33
628.1565, 43403.48
628.6386, 43384.34
629.1207, 43405.37
629.6028, 43484.00
630.0850, 43531.97
630.5671, 43525.89
631.0492, 43511.57
631.5313, 43502.23
632.0134, 43493.89
632.4955, 43479.38
632.9777, 43456.26
633.4598, 43427.34
633.9419, 43388.60
634.4240, 43345.86
634.9061, 43315.21
635.3882, 43297.21
635.8704, 43308.09
636.3525, 43377.06
636.8346, 43486.74
637.3167, 43523.72
637.7988, 43421.46
638.2809, 43345.26
638.7631, 43352.15
639.2452, 43377.29
639.7273, 43349.09
640.2094, 43271.13
640.6915, 43208.89
641.1736, 43219.42
641.6558, 43278.98
642.1379, 43301.50
642.6200, 43277.55
643.1021, 43257.80
643.5842, 43255.72
644.0663, 43264.68
644.5485, 43277.35
645.0306, 43293.64
645.5127, 43313.69
645.9948, 43336.81
646.4769, 43364.09
646.9590, 43405.45
647.4412, 43450.97
647.9233, 43473.08
648.4054, 43460.79
648.8875, 43434.74
649.3696, 43427.58
649.8517, 43445.96
650.3339, 43448.31
650.8160, 43409.57
651.2981, 43384.70
651.7802, 43398.82
652.2623, 43434.50
652.7444, 43467.84
653.2266, 43492.96
653.7087, 43514.88
654.1908, 43547.91
654.6729, 43578.50
655.1550, 43574.95
655.6371, 43534.17
656.1193, 43470.52
656.6014, 43381.61
657.0835, 43286.58
657.5656, 43259.14
658.0477, 43362.39
658.5298, 43449.46
659.0120, 43515.76
659.4941, 43569.07
659.9762, 43631.90
660.4583, 43688.24
660.9404, 43685.30
661.4225, 43576.32
661.9047, 43428.05
662.3868, 43354.45
662.8689, 43353.48
663.3510, 43374.71
663.8331, 43414.93
664.3152, 43456.89
664.7974, 43486.56
665.2795, 43503.22
665.7616, 43507.25
666.2437, 43467.98
666.7258, 43451.87
667.2079, 43507.86
667.6901, 43588.73
668.1722, 43642.84
668.6543, 43656.36
669.1364, 43632.40
669.6185, 43557.97
670.1006, 43449.46
670.5828, 43414.23
671.0649, 43475.39
671.5470, 43533.34
672.0291, 43557.60
672.5112, 43561.68
672.9933, 43561.50
673.4755, 43557.11
673.9576, 43547.20
674.4397, 43513.89
674.9218, 43489.86
675.4039, 43509.82
675.8860, 43558.91
676.3682, 43606.57
676.8503, 43640.44
677.3324, 43650.80
677.8145, 43610.29
678.2966, 43504.13
678.7787, 43473.47
679.2609, 43587.03
679.7430, 43675.30
680.2251, 43645.38
680.7072, 43567.91
681.1893, 43533.01
681.6714, 43559.39
682.1536, 43599.04
682.6357, 43644.39
683.1178, 43677.24
683.5999, 43657.09
684.0820, 43593.03
684.5641, 43548.02
685.0463, 43557.06
685.5284, 43600.96
686.0105, 43636.65
686.4926, 43664.49
686.9747, 43682.30
687.4568, 43676.42
687.9390, 43673.58
688.4211, 43695.01
688.9032, 43724.86
689.3853, 43732.48
689.8674, 43705.53
690.3495, 43664.64
690.8317, 43614.44
691.3138, 43565.70
691.7959, 43545.30
692.2780, 43556.17
692.7601, 43580.88
693.2422, 43611.36
693.7244, 43641.80
694.2065, 43647.70
694.6886, 43596.79
695.1707, 43574.39
695.6528, 43627.38
696.1349, 43667.80
696.6171, 43614.83
697.0992, 43504.95
697.5813, 43444.82
698.0634, 43497.46
698.5455, 43585.66
699.0276, 43620.82
699.5098, 43616.66
699.9919, 43626.97
700.4740, 43663.63
700.9561, 43692.15
701.4382, 43679.63
701.9203, 43633.50
702.4025, 43612.39
702.8846, 43630.75
703.3667, 43655.91
703.8488, 43708.75
704.3309, 43749.18
704.8130, 43734.17
705.2952, 43676.37
705.7773, 43630.12
706.2594, 43626.92
706.7415, 43649.35
707.2236, 43684.17
707.7057, 43726.27
708.1879, 43737.07
708.6700, 43701.16
709.1521, 43671.37
709.6342, 43705.79
710.1163, 43799.75
710.5984, 43842.62
711.0806, 43794.22
711.5627, 43750.45
712.0448, 43727.98
712.5269, 43713.81
713.0090, 43690.16
713.4911, 43661.43
713.9733, 43653.80
714.4554, 43692.15
714.9375, 43751.16
715.4196, 43809.24
715.9017, 43859.46
716.3839, 43826.09
716.8660, 43671.30
717.3481, 43512.67
717.8302, 43469.52
718.3123, 43541.75
718.7944, 43601.86
719.2766, 43651.70
719.7587, 43688.52
720.2408, 43729.42
720.7229, 43745.13
721.2050, 43685.40
721.6871, 43565.33
722.1693, 43472.19
722.6514, 43466.99
723.1335, 43515.58
723.6156, 43584.16
724.0977, 43664.30
724.5798, 43682.89
725.0620, 43609.63
725.5441, 43525.53
726.0262, 43514.63
726.5083, 43576.88
726.9904, 43632.22
727.4725, 43689.13
727.9547, 43728.40
728.4368, 43741.14
728.9189, 43738.67
729.4010, 43732.05
729.8831, 43720.69
730.3652, 43693.25
730.8474, 43628.99
731.3295, 43559.52
731.8116, 43532.82
732.2937, 43542.98
732.7758, 43567.61
733.2579, 43604.75
733.7401, 43623.81
734.2222, 43585.23
734.7043, 43493.43
735.1864, 43454.55
735.6685, 43527.05
736.1506, 43577.05
736.6328, 43566.92
737.1149, 43546.20
737.5970, 43559.50
738.0791, 43602.19
738.5612, 43632.96
739.0433, 43618.12
739.5255, 43596.77
740.0076, 43630.48
740.4897, 43695.25
740.9718, 43704.34
741.4539, 43637.54
741.9360, 43563.85
742.4182, 43543.40
742.9003, 43572.36
743.3824, 43621.75
743.8645, 43719.71
744.3466, 43789.13
744.8287, 43822.03
745.3109, 43824.63
745.7930, 43786.00
746.2751, 43718.29
746.7572, 43660.65
747.2393, 43623.58
747.7214, 43607.99
748.2036, 43631.39
748.6857, 43672.73
749.1678, 43688.04
749.6499, 43671.84
750.1320, 43650.46
750.6141, 43643.78
751.0963, 43648.41
751.5784, 43653.67
752.0605, 43667.30
752.5426, 43658.01
753.0247, 43592.85
753.5068, 43534.36
753.9890, 43522.16
754.4711, 43545.73
754.9532, 43576.58
755.4353, 43613.87
755.9174, 43648.09
756.3995, 43680.04
756.8817, 43702.99
757.3638, 43703.93
757.8459, 43686.25
758.3280, 43669.19
758.8101, 43665.40
759.2922, 43665.85
759.7744, 43648.67
760.2565, 43611.60
760.7386, 43580.43
761.2207, 43554.23
761.7028, 43541.34
762.1849, 43555.41
762.6671, 43584.96
763.1492, 43601.14
763.6313, 43602.16
764.1134, 43592.06
764.5955, 43545.34
765.0776, 43510.39
765.5598, 43542.20
766.0419, 43613.49
766.5240, 43653.39
767.0061, 43630.55
767.4882, 43591.22
767.9703, 43606.18
768.4525, 43660.40
768.9346, 43655.37
769.4167, 43575.28
769.8988, 43529.72
770.3809, 43583.98
770.8630, 43692.64
771.3452, 43771.84
771.8273, 43828.21
772.3094, 43832.29
772.7915, 43735.02
773.2736, 43642.47
773.7557, 43598.12
774.2379, 43583.90
774.7200, 43569.61
775.2021, 43548.85
775.6842, 43547.25
776.1663, 43610.05
776.6484, 43689.77
777.1306, 43698.64
777.6127, 43649.28
778.0948, 43610.48
778.5769, 43605.47
779.0590, 43637.32
779.5411, 43724.61
780.0233, 43870.62
780.5054, 43909.54
780.9875, 43751.63
781.4696, 43634.48
781.9517, 43642.39
782.4338, 43691.55
782.9160, 43709.54
783.3981, 43700.25
783.8802, 43726.73
784.3623, 43836.86
784.8444, 43961.41
785.3265, 44101.85
785.8087, 44208.78
786.2908, 44153.56
786.7729, 43950.32
787.2550, 43815.77
787.7371, 43937.08
788.2192, 44215.15
788.7014, 44378.24
789.1835, 44423.22
789.6656, 44365.29
790.1477, 44154.22
790.6298, 43953.98
791.1119, 43908.77
791.5941, 43982.19
792.0762, 43998.30
792.5583, 43908.49
793.0404, 43840.21
793.5225, 43823.85
794.0046, 43825.09
794.4868, 43828.05
794.9689, 43827.45
795.4510, 43815.19
795.9331, 43785.95
796.4152, 43760.29
796.8973, 43768.00
797.3795, 43794.46
797.8616, 43805.69
798.3437, 43798.80
798.8258, 43766.90
799.3079, 43700.81
799.7900, 43629.59
800.2722, 43608.39
800.7543, 43648.61
801.2364, 43685.97
801.7185, 43736.16
802.2006, 43760.89
802.6827, 43715.79
803.1649, 43659.86
803.6470, 43662.05
804.1291, 43729.03
804.6112, 43802.16
805.0933, 43867.53
805.5754, 43923.54
806.0576, 43979.07
806.5397, 44020.48
807.0218, 44018.43
807.5039, 43970.02
807.9860, 43902.70
808.4681, 43830.09
808.9503, 43768.00
809.4324, 43786.02
809.9145, 43891.30
810.3966, 43941.67
810.8787, 43884.79
811.3608, 43821.30
811.8430, 43845.68
812.3251, 43942.23
812.8072, 43996.32
813.2893, 43984.93
813.7714, 43965.55
814.2535, 43936.14
814.7357, 43906.01
815.2178, 43870.24
815.6999, 43840.21
816.1820, 43846.50
816.6641, 43910.19
817.1462, 43965.51
817.6284, 43943.07
818.1105, 43885.69
818.5926, 43862.50
819.0747, 43874.54
819.5568, 43895.11
820.0389, 43911.95
820.5211, 43929.29
821.0032, 43960.55
821.4853, 44009.21
821.9674, 44004.79
822.4495, 43917.28
822.9316, 43853.85
823.4138, 43871.14
823.8959, 43918.02
824.3780, 43928.43
824.8601, 43901.91
825.3422, 43878.07
825.8243, 43807.86
826.3065, 43804.68
826.7886, 44000.20
827.2707, 44228.80
827.7528, 44293.56
828.2349, 44197.58
828.7170, 44100.89
829.1992, 44108.95
829.6813, 44150.82
830.1633, 44131.79
830.6454, 44066.95
831.1276, 43999.54
831.6097, 43937.34
832.0918, 43892.05
832.5739, 43872.88
833.0560, 43873.16
833.5381, 43872.85
834.0203, 43865.47
834.5024, 43881.71
834.9845, 43942.64
835.4666, 43998.06
835.9487, 44013.07
836.4308, 44011.30
836.9130, 44029.41
837.3951, 44074.64
837.8772, 44109.99
838.3593, 44144.41
838.8414, 44147.56
839.3235, 44062.80
839.8057, 43951.58
840.2878, 43912.42
840.7699, 43961.41
841.2520, 44023.27
841.7341, 44041.91
842.2162, 44031.26
842.6984, 44007.99
843.1805, 43976.34
843.6626, 43961.40
844.1447, 43969.51
844.6268, 43980.78
845.1089, 43977.80
845.5911, 43964.60
846.0732, 43960.64
846.5553, 43971.87
847.0374, 43975.87
847.5195, 43964.82
848.0016, 43953.18
848.4838, 43952.45
848.9659, 43956.16
849.4480, 43947.47
849.9301, 43912.01
850.4122, 43905.65
850.8943, 43961.98
851.3765, 44034.65
851.8586, 44114.47
852.3407, 44180.03
852.8228, 44188.54
853.3049, 44132.89
853.7870, 44073.86
854.2692, 44083.14
854.7513, 44021.29
855.2334, 44068.58
855.7155, 43962.58
856.1976, 43898.64
856.6797, 43904.30
857.1619, 43927.22
857.6440, 43917.08
858.1261, 43939.36
858.6082, 43892.62
859.0903, 43961.57
859.5724, 44004.40
860.0546, 43997.92
860.5367, 43980.49
861.0188, 43981.37
861.5009, 43989.43
861.9830, 43975.17
862.4651, 43923.37
862.9473, 43885.41
863.4294, 43879.23
863.9115, 43881.23
864.3936, 43864.58
864.8757, 43851.68
865.3578, 43891.87
865.8400, 43993.55
866.3221, 44081.93
866.8042, 44096.67
867.2863, 44070.32
867.7684, 44030.69
868.2505, 43988.30
868.7327, 43978.63
869.2148, 44007.96
869.6969, 44040.42
870.1790, 44044.48
870.6611, 44027.70
871.1432, 44015.05
871.6254, 44005.89
872.1075, 44004.78
872.5896, 44012.61
873.0717, 44028.39
873.5538, 44057.43
874.0359, 44091.30
874.5181, 44106.36
875.0002, 44093.00
875.4823, 44081.80
875.9644, 44074.43
876.4465, 44067.71
876.9286, 44060.92
877.4108, 44053.93
877.8929, 44043.82
878.3750, 44031.07
878.8571, 44028.75
879.3392, 44058.52
879.8214, 44086.05
880.3035, 44075.92
880.7856, 44048.26
881.2677, 44032.74
881.7498, 44035.37
882.2319, 44054.62
882.7141, 44093.83
883.1962, 44134.22
883.6783, 44131.85
884.1604, 44096.07
884.6425, 44096.72
885.1246, 44144.07
885.6068, 44172.31
886.0889, 44141.14
886.5710, 44084.02
887.0531, 44067.27
887.5352, 44103.69
888.0173, 44105.45
888.4995, 44048.59
888.9816, 43997.90
889.4637, 43963.02
889.9458, 43951.27
890.4279, 43981.72
890.9100, 44049.76
891.3922, 44097.11
891.8743, 44109.29
892.3564, 44108.30
892.8385, 44088.04
893.3206, 44068.00
893.8027, 44066.30
894.2849, 44079.63
894.7670, 44095.41
895.2491, 44109.27
895.7312, 44120.26
896.2133, 44137.58
896.6954, 44145.77
897.1776, 44109.57
897.6597, 44041.05
898.1418, 43981.29
898.6239, 43945.69
899.1060, 43941.74
899.5881, 43986.96
900.0703, 44067.20
900.5524, 44124.25
901.0345, 44158.67
901.5166, 44148.31
901.9987, 44075.46
902.4808, 44002.99
902.9630, 43976.63
903.4451, 43994.80
903.9272, 44052.47
904.4093, 44168.61
904.8914, 44288.43
905.3735, 44481.30
905.8557, 44593.32
906.3378, 44523.18
906.8199, 44353.99
907.3020, 44181.71
907.7841, 44006.14
908.2662, 43910.71
908.7484, 43973.32
909.2305, 44052.66
909.7126, 44087.17
910.1947, 44095.22
910.6768, 44091.50
911.1589, 44084.64
911.6411, 44094.55
912.1232, 44140.89
912.6053, 44186.41
913.0874, 44181.57
913.5695, 44155.39
914.0516, 44164.78
914.5338, 44205.94
915.0159, 44228.58
915.4980, 44208.79
915.9801, 44194.93
916.4622, 44284.22
916.9443, 44447.00
917.4265, 44469.05
917.9086, 44344.89
918.3907, 44212.91
918.8728, 44103.88
919.3549, 44040.59
919.8370, 44056.57
920.3192, 44135.14
920.8013, 44159.59
921.2834, 44097.98
921.7655, 44060.04
922.2476, 44063.74
922.7297, 44081.93
923.2119, 44111.80
923.6940, 44142.30
924.1761, 44152.40
924.6582, 44137.23
925.1403, 44120.58
925.6224, 44082.18
926.1046, 44070.45
926.5867, 44133.66
927.0688, 44216.24
927.5509, 44257.78
928.0330, 44255.21
928.5151, 44242.16
928.9973, 44235.25
929.4794, 44219.75
929.9615, 44166.16
930.4436, 44109.58
930.9257, 44100.34
931.4078, 44130.66
931.8900, 44159.98
932.3721, 44170.86
932.8542, 44183.50
933.3363, 44237.75
933.8184, 44231.29
934.3005, 44304.62
934.7827, 44244.04
935.2648, 44202.55
935.7469, 44201.58
936.2290, 44224.52
936.7111, 44262.09
937.1932, 44302.73
937.6754, 44297.08
938.1575, 44236.23
938.6396, 44208.63
939.1217, 44234.98
939.6038, 44257.79
940.0859, 44244.79
940.5681, 44211.77
941.0502, 44186.37
941.5323, 44169.40
942.0144, 44156.98
942.4965, 44145.26
942.9786, 44144.43
943.4608, 44154.88
943.9429, 44178.60
944.4250, 44231.36
944.9071, 44301.61
945.3892, 44339.27
945.8713, 44329.50
946.3535, 44299.72
946.8356, 44235.34
947.3177, 44174.27
947.7998, 44134.75
948.2819, 44119.44
948.7640, 44134.79
949.2462, 44181.14
949.7283, 44229.65
950.2104, 44275.85
950.6925, 44304.84
951.1746, 44293.85
951.6567, 44260.89
952.1389, 44232.28
952.6210, 44212.62
953.1031, 44198.52
953.5852, 44188.80
954.0673, 44179.44
954.5494, 44141.40
955.0316, 44105.11
955.5137, 44193.18
955.9958, 44381.40
956.4779, 44452.60
956.9600, 44326.06
957.4421, 44177.82
957.9243, 44217.04
958.4064, 44391.34
958.8885, 44456.81
959.3706, 44408.21
959.8527, 44327.82
960.3348, 44212.85
960.8170, 44151.71
961.2991, 44221.38
961.7812, 44354.32
962.2633, 44384.53
962.7454, 44274.44
963.2275, 44236.83
963.7097, 44321.90
964.1918, 44382.93
964.6739, 44365.39
965.1560, 44313.50
965.6381, 44263.66
966.1202, 44217.24
966.6024, 44188.36
967.0845, 44195.12
967.5666, 44192.93
968.0487, 44171.33
968.5308, 44146.62
969.0129, 44123.91
969.4951, 44105.82
969.9772, 44095.12
970.4593, 44092.37
970.9414, 44096.64
971.4235, 44107.85
971.9056, 44125.85
972.3878, 44133.96
972.8699, 44160.46
973.3520, 44273.37
973.8341, 44437.57
974.3162, 44516.77
974.7983, 44436.19
975.2805, 44325.34
975.7626, 44277.89
976.2447, 44258.09
976.7268, 44227.50
977.2089, 44188.16
977.6910, 44152.98
978.1732, 44124.80
978.6553, 44093.78
979.1374, 44040.71
979.6195, 43995.49
980.1016, 43990.40
980.5837, 44035.12
981.0659, 44216.59
981.5480, 44507.39
982.0301, 44648.14
982.5122, 44502.05
982.9943, 44246.65
983.4764, 44135.42
983.9586, 44145.00
984.4407, 44134.34
984.9228, 44104.32
985.4049, 44121.61
985.8870, 44209.01
986.3691, 44289.59
986.8513, 44298.78
987.3334, 44258.00
987.8155, 44230.48
988.2976, 44217.36
988.7797, 44212.18
989.2618, 44218.99
989.7440, 44219.69
990.2261, 44207.62
990.7082, 44183.56
991.1903, 44141.03
991.6724, 44081.33
992.1545, 44067.63
992.6367, 44129.90
993.1188, 44176.38
993.6009, 44187.27
994.0830, 44192.00
994.5651, 44207.44
995.0472, 44228.51
995.5294, 44242.48
996.0115, 44243.84
996.4936, 44262.59
996.9757, 44341.71
997.4578, 44384.40
997.9399, 44329.24
998.4221, 44257.15
998.9042, 44240.36
999.3863, 44267.26
999.8684, 44279.50
1000.351, 44253.64
1000.833, 44243.59
1001.315, 44273.90
1001.797, 44313.74
1002.279, 44343.00
1002.761, 44371.30
1003.243, 44424.76
1003.725, 44499.24
1004.207, 44537.78
1004.690, 44483.29
1005.172, 44432.85
1005.654, 44460.03
1006.136, 44504.46
1006.618, 44500.29
1007.100, 44462.73
1007.582, 44443.52
1008.064, 44457.66
1008.547, 44460.49
1009.029, 44388.73
1009.511, 44318.65
1009.993, 44348.68
1010.475, 44426.19
1010.957, 44460.13
1011.439, 44448.52
1011.921, 44450.73
1012.403, 44499.38
1012.886, 44542.41
1013.368, 44507.91
1013.850, 44436.80
1014.332, 44389.23
1014.814, 44371.89
1015.296, 44413.31
1015.778, 44509.57
1016.260, 44575.75
1016.742, 44533.31
1017.225, 44476.77
1017.707, 44606.48
1018.189, 44861.38
1018.671, 45027.18
1019.153, 45091.64
1019.635, 45098.88
1020.117, 45064.83
1020.599, 45003.80
1021.082, 44922.81
1021.564, 44835.05
1022.046, 44783.25
1022.528, 44766.55
1023.010, 44781.80
1023.492, 44829.92
1023.974, 44869.68
1024.456, 44881.08
1024.938, 44869.25
1025.421, 44838.99
1025.903, 44791.94
1026.385, 44749.06
1026.867, 44712.72
1027.349, 44650.27
1027.831, 44542.25
1028.313, 44470.75
1028.795, 44499.14
1029.278, 44585.30
1029.760, 44635.05
1030.242, 44643.54
1030.724, 44663.46
1031.206, 44709.01
1031.688, 44711.16
1032.170, 44632.12
1032.652, 44544.67
1033.135, 44507.09
1033.617, 44515.20
1034.099, 44559.66
1034.581, 44669.84
1035.063, 44728.36
1035.545, 44713.40
1036.027, 44687.55
1036.509, 44659.04
1036.991, 44647.32
1037.474, 44683.38
1037.956, 44760.18
1038.438, 44801.51
1038.920, 44750.80
1039.402, 44777.67
1039.884, 44987.70
1040.366, 45142.21
1040.848, 45095.19
1041.330, 44959.29
1041.813, 44863.98
1042.295, 44806.35
1042.777, 44851.34
1043.259, 45138.56
1043.741, 45321.68
1044.223, 45302.96
1044.705, 45242.39
1045.187, 45211.63
1045.670, 45202.85
1046.152, 45211.51
1046.634, 45246.82
1047.116, 45227.48
1047.598, 45092.27
1048.080, 44977.09
1048.562, 44908.32
1049.044, 44873.63
1049.526, 44890.07
1050.009, 44927.41
1050.491, 44893.71
1050.973, 44727.36
1051.455, 44725.70
1051.937, 45209.75
1052.419, 45517.30
1052.901, 45251.43
1053.383, 44847.48
1053.865, 44681.35
1054.348, 44711.93
1054.830, 44723.77
1055.312, 44647.13
1055.794, 44653.97
1056.276, 44906.35
1056.758, 45108.99
1057.240, 45092.04
1057.722, 44976.88
1058.205, 44874.23
1058.687, 44797.41
1059.169, 44742.08
1059.651, 44712.91
1060.133, 44692.19
1060.615, 44668.09
1061.097, 44657.99
1061.579, 44691.78
1062.062, 44733.00
1062.544, 44727.04
1063.026, 44678.79
1063.508, 44653.42
1063.990, 44691.94
1064.472, 44716.71
1064.954, 44678.38
1065.436, 44636.63
1065.918, 44650.24
1066.401, 44677.19
1066.883, 44632.37
1067.365, 44519.21
1067.847, 44467.45
1068.329, 44564.34
1068.811, 44669.78
1069.293, 44745.81
1069.775, 44784.73
1070.257, 44764.69
1070.740, 44710.54
1071.222, 44643.37
1071.704, 44573.90
1072.186, 44564.41
1072.668, 44713.78
1073.150, 44833.38
1073.632, 44803.74
1074.114, 44734.40
1074.597, 44710.43
1075.079, 44719.92
1075.561, 44728.12
1076.043, 44727.48
1076.525, 44726.64
1077.007, 44728.51
1077.489, 44732.02
1077.971, 44758.50
1078.453, 44767.23
1078.936, 44691.02
1079.418, 44578.04
1079.900, 44534.02
1080.382, 44583.08
1080.864, 44632.93
1081.346, 44649.47
1081.828, 44647.63
1082.310, 44631.07
1082.792, 44603.39
1083.275, 44556.29
1083.757, 44504.00
1084.239, 44476.13
1084.721, 44480.26
1085.203, 44493.47
1085.685, 44519.14
1086.167, 44535.04
1086.649, 44511.23
1087.131, 44487.25
1087.614, 44516.24
1088.096, 44572.96
1088.578, 44591.67
1089.060, 44555.10
1089.542, 44503.56
1090.024, 44420.61
1090.506, 44366.98
1090.988, 44389.89
1091.471, 44443.19
1091.953, 44503.12
1092.435, 44551.61
1092.917, 44553.44
1093.399, 44496.16
1093.881, 44434.63
1094.363, 44369.04
1094.845, 44328.39
1095.328, 44341.12
1095.810, 44372.50
1096.292, 44402.10
1096.774, 44421.12
1097.256, 44406.26
1097.738, 44342.02
1098.220, 44322.93
1098.702, 44439.21
1099.184, 44530.84
1099.667, 44520.79
1100.149, 44462.82
1100.631, 44373.10
1101.113, 44283.05
1101.595, 44264.95
1102.077, 44347.69
1102.559, 44405.64
1103.041, 44380.70
1103.523, 44360.78
1104.006, 44391.52
1104.488, 44428.73
1104.970, 44433.01
1105.452, 44414.02
1105.934, 44397.50
1106.416, 44383.68
1106.898, 44387.80
1107.380, 44423.40
1107.863, 44462.50
1108.345, 44516.34
1108.827, 44552.24
1109.309, 44531.58
1109.791, 44476.77
1110.273, 44446.25
1110.755, 44456.19
1111.237, 44432.82
1111.719, 44292.66
1112.202, 44224.67
1112.684, 44356.11
1113.166, 44491.28
1113.648, 44478.38
1114.130, 44374.32
1114.612, 44302.30
1115.094, 44259.29
1115.576, 44273.02
1116.058, 44403.27
1116.541, 44499.46
1117.023, 44524.85
1117.505, 44524.30
1117.987, 44522.64
1118.469, 44515.61
1118.951, 44491.89
1119.433, 44447.33
1119.915, 44415.69
1120.398, 44385.96
1120.880, 44396.04
1121.362, 44487.57
1121.844, 44556.76
1122.326, 44521.80
1122.808, 44446.63
1123.290, 44451.31
1123.772, 44541.83
1124.255, 44579.34
1124.737, 44544.41
1125.219, 44517.18
1125.701, 44509.93
1126.183, 44510.91
1126.665, 44516.73
1127.147, 44521.00
1127.629, 44510.84
1128.111, 44518.53
1128.594, 44491.20
1129.076, 44525.77
1129.558, 44550.29
1130.040, 44561.57
1130.522, 44544.17
1131.004, 44481.50
1131.486, 44424.42
1131.968, 44445.07
1132.450, 44528.30
1132.933, 44598.67
1133.415, 44655.84
1133.897, 44655.53
1134.379, 44591.34
1134.861, 44571.88
1135.343, 44647.32
1135.825, 44731.17
1136.307, 44721.07
1136.790, 44657.63
1137.272, 44666.85
1137.754, 44731.99
1138.236, 44753.89
1138.718, 44729.05
1139.200, 44703.96
1139.682, 44695.03
1140.164, 44689.54
1140.646, 44674.71
1141.129, 44659.81
1141.611, 44668.79
1142.093, 44688.57
1142.575, 44678.07
1143.057, 44646.04
1143.539, 44639.47
1144.021, 44665.94
1144.503, 44675.80
1144.985, 44624.81
1145.468, 44573.80
1145.950, 44622.00
1146.432, 44697.89
1146.914, 44669.16
1147.396, 44588.30
1147.878, 44590.15
1148.360, 44683.34
1148.842, 44766.91
1149.325, 44791.67
1149.807, 44783.17
1150.289, 44729.71
1150.771, 44683.71
1151.253, 44717.59
1151.735, 44776.79
1152.217, 44773.04
1152.699, 44715.75
1153.182, 44679.47
1153.664, 44690.90
1154.146, 44714.94
1154.628, 44722.73
1155.110, 44752.96
1155.592, 44873.55
1156.074, 44988.68
1156.556, 44987.42
1157.038, 44904.18
1157.521, 44835.23
1158.003, 44792.30
1158.485, 44794.94
1158.967, 44883.38
1159.449, 44967.30
1159.931, 45041.19
1160.413, 45080.87
1160.895, 45052.84
1161.377, 44986.75
1161.860, 44931.64
1162.342, 44887.14
1162.824, 44874.95
1163.306, 44922.38
1163.788, 44954.14
1164.270, 44961.91
1164.752, 44955.99
1165.234, 44939.74
1165.717, 44913.61
1166.199, 44869.20
1166.681, 44814.07
1167.163, 44824.48
1167.645, 44926.30
1168.127, 44977.14
1168.609, 44959.77
1169.091, 44921.43
1169.573, 44871.39
1170.056, 44841.09
1170.538, 44865.19
1171.020, 44869.07
1171.502, 44956.94
1171.984, 44965.57
1172.466, 45025.16
1172.948, 45132.44
1173.430, 45155.24
1173.912, 45061.82
1174.395, 44972.81
1174.877, 44974.32
1175.359, 45016.94
1175.841, 45025.17
1176.323, 45012.20
1176.805, 45001.40
1177.287, 45001.63
1177.769, 45055.75
1178.252, 45153.11
1178.734, 45210.85
1179.216, 45189.71
1179.698, 45146.84
1180.180, 45147.99
1180.662, 45144.55
1181.144, 45047.18
1181.626, 44932.60
1182.109, 44927.68
1182.591, 44999.85
1183.073, 45037.54
1183.555, 45012.35
1184.037, 44989.47
1184.519, 45017.33
1185.001, 45036.37
1185.483, 44981.36
1185.965, 44940.54
1186.448, 45010.48
1186.930, 45122.82
1187.412, 45175.84
1187.894, 45162.34
1188.376, 45130.14
1188.858, 45065.96
1189.340, 45023.38
1189.822, 45024.37
1190.304, 45029.04
1190.787, 44997.30
1191.269, 44987.46
1191.751, 45094.11
1192.233, 45014.78
1192.715, 45238.42
1193.197, 44980.97
1193.679, 44865.10
1194.161, 44930.70
1194.644, 45028.04
1195.126, 45146.34
1195.608, 45223.51
1196.090, 45215.68
1196.572, 45156.51
1197.054, 45094.33
1197.536, 45033.32
1198.018, 45011.48
1198.500, 45026.97
1198.983, 45027.27
1199.465, 45007.42
1199.947, 45007.70
1200.429, 45044.62
1200.911, 45080.47
1201.393, 45067.29
1201.875, 45052.23
1202.357, 45153.89
1202.839, 45304.30
1203.322, 45361.67
1203.804, 45329.86
1204.286, 45221.52
1204.768, 45063.11
1205.250, 44960.20
1205.732, 44976.75
1206.214, 45039.35
1206.696, 45128.63
1207.179, 45197.55
1207.661, 45193.82
1208.143, 45151.82
1208.625, 45101.99
1209.107, 45057.36
1209.589, 45035.42
1210.071, 45040.54
1210.553, 45066.48
1211.036, 45143.70
1211.518, 45196.43
1212.000, 45199.65
1212.482, 45173.72
1212.964, 45104.55
1213.446, 45029.90
1213.928, 44999.12
1214.410, 45012.50
1214.892, 45087.48
1215.375, 45293.76
1215.857, 45361.09
1216.339, 45221.38
1216.821, 45106.89
1217.303, 45105.66
1217.785, 45131.71
1218.267, 45109.25
1218.749, 45056.79
1219.231, 45015.55
1219.714, 44986.08
1220.196, 44973.43
1220.678, 44978.78
1221.160, 45032.06
1221.642, 45130.79
1222.124, 45183.59
1222.606, 45140.84
1223.088, 45075.79
1223.571, 45075.89
1224.053, 45099.61
1224.535, 45082.90
1225.017, 45041.48
1225.499, 44986.52
1225.981, 44934.81
1226.463, 44919.92
1226.945, 44948.62
1227.427, 45005.09
1227.910, 45107.07
1228.392, 45179.06
1228.874, 45171.16
1229.356, 45130.02
1229.838, 45042.74
1230.320, 44972.75
1230.802, 45022.04
1231.284, 45150.94
1231.766, 45199.05
1232.249, 45124.21
1232.731, 45063.52
1233.213, 45024.94
1233.695, 44994.21
1234.177, 44959.90
1234.659, 44951.45
1235.141, 44993.50
1235.623, 45057.04
1236.106, 45101.76
1236.588, 45129.73
1237.070, 45164.69
1237.552, 45208.04
1238.034, 45169.29
1238.516, 45044.38
1238.998, 45000.94
1239.480, 45087.90
1239.963, 45160.11
1240.445, 45099.52
1240.927, 45011.57
1241.409, 45052.01
1241.891, 45173.90
1242.373, 45359.43
1242.855, 45526.89
1243.337, 45459.69
1243.819, 45218.86
1244.302, 45091.86
1244.784, 45176.04
1245.266, 45252.64
1245.748, 45171.45
1246.230, 45083.14
1246.712, 45063.66
1247.194, 45068.13
1247.676, 45063.21
1248.158, 45060.66
1248.641, 45087.20
1249.123, 45138.03
1249.605, 45164.88
1250.087, 45152.13
1250.569, 45147.51
1251.051, 45160.71
1251.533, 45157.19
1252.015, 45116.27
1252.498, 45090.47
1252.980, 45124.86
1253.462, 45166.65
1253.944, 45112.66
1254.426, 44990.34
1254.908, 44988.21
1255.390, 45091.20
1255.872, 45166.73
1256.354, 45199.66
1256.837, 45172.52
1257.319, 45087.85
1257.801, 45035.43
1258.283, 45092.34
1258.765, 45173.38
1259.247, 45171.72
1259.729, 45147.25
1260.211, 45187.75
1260.693, 45165.38
1261.176, 45232.78
1261.658, 45167.09
1262.140, 45135.24
1262.622, 45161.68
1263.104, 45187.51
1263.586, 45188.24
1264.068, 45194.81
1264.550, 45215.51
1265.033, 45244.34
1265.515, 45293.98
1265.997, 45334.58
1266.479, 45327.15
1266.961, 45283.76
1267.443, 45257.70
1267.925, 45250.22
1268.407, 45250.05
1268.890, 45255.77
1269.372, 45279.85
1269.854, 45324.98
1270.336, 45391.16
1270.818, 45479.72
1271.300, 45571.44
1271.782, 45662.10
1272.264, 45716.77
1272.746, 45634.75
1273.229, 45482.50
1273.711, 45373.16
1274.193, 45313.22
1274.675, 45296.66
1275.157, 45314.63
1275.639, 45339.32
1276.121, 45367.50
1276.603, 45369.85
1277.085, 45283.98
1277.568, 45230.77
1278.050, 45307.76
1278.532, 45407.14
1279.014, 45439.42
1279.496, 45428.30
1279.978, 45427.61
1280.460, 45437.07
1280.942, 45434.86
1281.425, 45416.77
1281.907, 45395.88
1282.389, 45364.39
1282.871, 45385.21
1283.353, 45487.23
1283.835, 45569.42
1284.317, 45548.15
1284.799, 45597.62
1285.281, 45510.93
1285.764, 45573.55
1286.246, 45546.02
1286.728, 45478.08
1287.210, 45517.86
1287.692, 45631.92
1288.174, 45686.90
1288.656, 45626.70
##END=



