##NAMES=Chalcocite
##RRUFFID=R050067
##IDEAL CHEMISTRY=Cu^1+^_2_S^2-^
##LOCALITY=Flambeau, Rusk County, Wisconsin, USA
##OWNER=RRUFF
##SOURCE=Rock Currier
##DESCRIPTION=Iridescent blue irregular hexagonal tablet
##STATUS=The identification of this mineral has been confirmed by X-ray diffraction and chemical analysis
##URL=rruff.info/R050067
##MEASURED CHEMISTRY=Cu_2.00_S_1.00_
200.5686, 4985.575
201.0508, 5003.866
201.5329, 5024.854
202.0150, 5040.540
202.4971, 5048.746
202.9792, 5052.323
203.4613, 5056.458
203.9435, 5064.575
204.4256, 5064.957
204.9077, 5045.730
205.3898, 5027.580
205.8719, 5026.990
206.3540, 5046.067
206.8362, 5072.241
207.3183, 5088.427
207.8004, 5090.424
208.2825, 5092.422
208.7646, 5095.237
209.2467, 5097.565
209.7289, 5099.060
210.2110, 5099.443
210.6931, 5097.975
211.1752, 5091.621
211.6573, 5075.099
212.1395, 5073.913
212.6216, 5106.960
213.1037, 5138.167
213.5858, 5146.480
214.0679, 5134.189
214.5500, 5118.997
215.0322, 5118.707
215.5143, 5135.835
215.9964, 5151.404
216.4785, 5162.132
216.9606, 5174.424
217.4427, 5193.978
217.9249, 5217.878
218.4070, 5238.129
218.8891, 5247.694
219.3712, 5246.304
219.8533, 5243.911
220.3354, 5240.485
220.8176, 5235.983
221.2997, 5226.991
221.7818, 5216.918
222.2639, 5212.404
222.7460, 5218.675
223.2281, 5234.736
223.7103, 5249.404
224.1924, 5265.988
224.6745, 5277.063
225.1566, 5278.193
225.6387, 5273.481
226.1208, 5268.124
226.6030, 5264.658
227.0851, 5263.861
227.5672, 5269.330
228.0493, 5286.883
228.5314, 5303.278
229.0135, 5317.475
229.4957, 5328.917
229.9778, 5337.102
230.4599, 5341.800
230.9420, 5343.202
231.4241, 5341.782
231.9062, 5337.583
232.3884, 5329.965
232.8705, 5314.057
233.3526, 5297.849
233.8347, 5286.466
234.3168, 5281.940
234.7989, 5286.004
235.2811, 5305.165
235.7632, 5353.293
236.2453, 5383.017
236.7274, 5375.390
237.2095, 5361.087
237.6916, 5361.950
238.1738, 5381.397
238.6559, 5405.802
239.1380, 5417.786
239.6201, 5413.540
240.1022, 5410.904
240.5843, 5408.150
241.0665, 5409.034
241.5486, 5418.225
242.0307, 5434.207
242.5128, 5449.662
242.9949, 5457.674
243.4770, 5457.820
243.9592, 5455.548
244.4413, 5449.297
244.9234, 5441.831
245.4055, 5429.297
245.8876, 5415.816
246.3697, 5411.709
246.8519, 5428.653
247.3340, 5463.096
247.8161, 5481.638
248.2982, 5474.621
248.7803, 5463.426
249.2624, 5454.025
249.7446, 5446.141
250.2267, 5437.907
250.7088, 5426.034
251.1909, 5415.597
251.6730, 5424.759
252.1551, 5469.109
252.6373, 5501.039
253.1194, 5495.992
253.6015, 5475.941
254.0836, 5464.174
254.5657, 5469.617
255.0478, 5484.176
255.5300, 5497.195
256.0121, 5510.246
256.4942, 5515.452
256.9763, 5496.920
257.4584, 5477.460
257.9406, 5476.820
258.4227, 5499.685
258.9048, 5526.887
259.3869, 5539.717
259.8690, 5537.827
260.3511, 5528.184
260.8333, 5496.757
261.3154, 5472.024
261.7975, 5479.543
262.2796, 5518.056
262.7617, 5556.756
263.2438, 5575.834
263.7260, 5576.891
264.2081, 5566.944
264.6902, 5538.152
265.1723, 5511.670
265.6544, 5504.187
266.1365, 5511.520
266.6187, 5520.564
267.1008, 5522.387
267.5829, 5522.235
268.0650, 5533.037
268.5471, 5558.259
269.0292, 5583.997
269.5114, 5604.217
269.9935, 5618.051
270.4756, 5621.616
270.9577, 5605.268
271.4398, 5585.306
271.9219, 5583.709
272.4041, 5601.163
272.8862, 5612.861
273.3683, 5602.645
273.8504, 5580.420
274.3325, 5565.743
274.8146, 5560.773
275.2968, 5561.060
275.7789, 5566.536
276.2610, 5575.613
276.7431, 5581.601
277.2252, 5581.572
277.7073, 5578.087
278.1895, 5573.889
278.6716, 5567.188
279.1537, 5567.004
279.6358, 5582.927
280.1179, 5606.101
280.6000, 5621.201
281.0822, 5624.619
281.5643, 5621.486
282.0464, 5615.791
282.5285, 5607.015
283.0106, 5602.723
283.4927, 5610.581
283.9749, 5618.973
284.4570, 5613.244
284.9391, 5593.738
285.4212, 5578.610
285.9033, 5584.185
286.3854, 5610.259
286.8676, 5628.721
287.3497, 5635.042
287.8318, 5638.945
288.3139, 5645.202
288.7960, 5652.908
289.2781, 5658.978
289.7603, 5661.646
290.2424, 5661.504
290.7245, 5660.920
291.2066, 5659.662
291.6887, 5658.281
292.1708, 5654.729
292.6530, 5651.854
293.1351, 5655.045
293.6172, 5665.994
294.0993, 5678.506
294.5814, 5681.350
295.0635, 5668.195
295.5457, 5656.663
296.0278, 5641.773
296.5099, 5631.930
296.9920, 5633.743
297.4741, 5647.481
297.9562, 5669.582
298.4384, 5699.447
298.9205, 5741.496
299.4026, 5759.774
299.8847, 5730.442
300.3668, 5701.920
300.8489, 5690.740
301.3311, 5693.415
301.8131, 5699.937
302.2953, 5704.277
302.7774, 5706.536
303.2595, 5707.341
303.7416, 5707.912
304.2237, 5704.807
304.7058, 5692.168
305.1880, 5678.142
305.6701, 5670.208
306.1522, 5671.002
306.6343, 5681.208
307.1164, 5707.236
307.5985, 5757.871
308.0807, 5791.039
308.5628, 5784.668
309.0449, 5768.228
309.5270, 5756.369
310.0091, 5751.125
310.4912, 5749.358
310.9734, 5749.035
311.4555, 5750.080
311.9376, 5752.216
312.4197, 5757.984
312.9018, 5760.900
313.3839, 5755.624
313.8661, 5744.599
314.3482, 5734.133
314.8303, 5725.934
315.3124, 5720.515
315.7945, 5719.699
316.2766, 5724.227
316.7588, 5729.082
317.2409, 5732.459
317.7230, 5734.068
318.2051, 5733.770
318.6872, 5732.664
319.1693, 5727.663
319.6515, 5709.794
320.1336, 5683.877
320.6157, 5672.734
321.0978, 5687.592
321.5799, 5715.173
322.0620, 5735.342
322.5442, 5747.676
323.0263, 5757.958
323.5084, 5772.366
323.9905, 5783.749
324.4726, 5776.744
324.9547, 5748.934
325.4369, 5726.094
325.9190, 5737.239
326.4011, 5786.847
326.8832, 5812.050
327.3653, 5787.752
327.8474, 5763.145
328.3296, 5771.161
328.8117, 5803.078
329.2938, 5829.467
329.7759, 5833.101
330.2580, 5818.117
330.7401, 5803.092
331.2223, 5773.233
331.7044, 5761.779
332.1865, 5793.062
332.6686, 5834.900
333.1507, 5847.664
333.6328, 5820.979
334.1150, 5782.162
334.5971, 5773.331
335.0792, 5809.436
335.5613, 5835.521
336.0434, 5855.496
336.5255, 5863.471
337.0077, 5850.559
337.4898, 5821.602
337.9719, 5789.748
338.4540, 5762.780
338.9361, 5741.926
339.4182, 5740.079
339.9004, 5774.020
340.3825, 5802.488
340.8646, 5811.451
341.3467, 5809.460
341.8288, 5807.495
342.3109, 5809.964
342.7931, 5812.497
343.2752, 5806.340
343.7573, 5789.377
344.2394, 5778.881
344.7215, 5781.737
345.2036, 5790.750
345.6858, 5801.128
346.1679, 5812.519
346.6500, 5823.751
347.1321, 5838.153
347.6142, 5851.805
348.0963, 5852.155
348.5785, 5835.061
349.0606, 5813.469
349.5427, 5790.700
350.0248, 5770.701
350.5069, 5767.611
350.9890, 5802.784
351.4712, 5840.837
351.9533, 5846.322
352.4354, 5826.018
352.9175, 5818.724
353.3996, 5848.306
353.8817, 5895.673
354.3639, 5907.195
354.8460, 5865.567
355.3281, 5832.998
355.8102, 5826.121
356.2923, 5834.214
356.7744, 5847.609
357.2566, 5863.581
357.7387, 5879.016
358.2208, 5890.999
358.7029, 5900.153
359.1850, 5901.277
359.6671, 5885.337
360.1493, 5871.550
360.6314, 5873.215
361.1135, 5883.624
361.5956, 5885.972
362.0777, 5869.279
362.5598, 5840.921
363.0420, 5828.578
363.5241, 5845.838
364.0062, 5857.729
364.4883, 5856.302
364.9704, 5850.792
365.4525, 5850.550
365.9347, 5856.880
366.4168, 5861.480
366.8989, 5849.579
367.3810, 5818.925
367.8631, 5809.659
368.3452, 5842.323
368.8274, 5874.197
369.3095, 5881.791
369.7916, 5872.014
370.2737, 5861.618
370.7558, 5855.697
371.2379, 5855.871
371.7201, 5870.019
372.2022, 5900.652
372.6843, 5919.990
373.1664, 5906.356
373.6485, 5880.609
374.1306, 5875.889
374.6128, 5898.691
375.0949, 5922.572
375.5770, 5933.624
376.0591, 5936.040
376.5412, 5937.975
377.0233, 5941.142
377.5055, 5943.488
377.9876, 5943.705
378.4697, 5941.632
378.9518, 5933.511
379.4339, 5908.080
379.9160, 5886.683
380.3982, 5885.922
380.8803, 5900.261
381.3624, 5914.146
381.8445, 5919.631
382.3266, 5917.302
382.8087, 5908.571
383.2909, 5878.091
383.7730, 5862.000
384.2551, 5868.940
384.7372, 5885.184
385.2193, 5903.593
385.7014, 5920.761
386.1836, 5931.280
386.6657, 5926.392
387.1478, 5904.598
387.6299, 5897.158
388.1120, 5921.055
388.5941, 5939.929
389.0763, 5934.873
389.5584, 5918.868
390.0405, 5913.981
390.5226, 5931.880
391.0047, 5958.073
391.4868, 5969.165
391.9690, 5963.620
392.4511, 5956.877
392.9332, 5950.117
393.4153, 5946.398
393.8974, 5950.582
394.3795, 5962.510
394.8617, 5970.819
395.3438, 5965.913
395.8259, 5955.227
396.3080, 5952.073
396.7901, 5957.976
397.2722, 5964.536
397.7544, 5966.382
398.2365, 5963.865
398.7186, 5960.287
399.2007, 5950.096
399.6828, 5945.038
400.1649, 5954.757
400.6471, 5971.427
401.1292, 5983.094
401.6113, 5985.866
402.0934, 5980.132
402.5755, 5963.942
403.0576, 5925.793
403.5398, 5914.354
404.0219, 5955.264
404.5040, 5995.144
404.9861, 6004.777
405.4682, 5990.146
405.9503, 5971.076
406.4325, 5959.522
406.9146, 5954.181
407.3967, 5950.456
407.8788, 5946.952
408.3609, 5948.192
408.8430, 5958.173
409.3252, 5970.759
409.8073, 5983.686
410.2894, 5995.840
410.7715, 6001.537
411.2536, 5986.569
411.7357, 5958.054
412.2179, 5958.997
412.7000, 6006.439
413.1821, 6048.908
413.6642, 6035.409
414.1463, 5992.419
414.6284, 5973.984
415.1106, 6012.897
415.5927, 6050.982
416.0748, 6035.488
416.5569, 5983.176
417.0390, 5946.625
417.5211, 5944.769
418.0033, 5961.442
418.4854, 5973.323
418.9675, 5977.835
419.4496, 5986.434
419.9317, 6008.768
420.4138, 6027.592
420.8960, 6026.103
421.3781, 6009.821
421.8602, 5998.499
422.3423, 6005.352
422.8244, 6026.049
423.3065, 6042.042
423.7887, 6053.204
424.2708, 6059.340
424.7529, 6055.125
425.2350, 6049.946
425.7171, 6052.321
426.1992, 6062.933
426.6814, 6075.103
427.1635, 6085.193
427.6456, 6092.643
428.1277, 6087.125
428.6098, 6058.089
429.0919, 6036.526
429.5741, 6047.471
430.0562, 6073.386
430.5383, 6087.595
431.0204, 6079.564
431.5025, 6067.917
431.9846, 6069.542
432.4668, 6080.613
432.9489, 6087.760
433.4310, 6087.706
433.9131, 6082.300
434.3952, 6072.091
434.8773, 6056.370
435.3595, 6044.351
435.8416, 6039.083
436.3237, 6035.398
436.8058, 6026.126
437.2879, 6015.724
437.7701, 6018.015
438.2522, 6041.147
438.7343, 6074.142
439.2164, 6087.906
439.6985, 6064.178
440.1806, 6053.678
440.6628, 6071.211
441.1449, 6089.282
441.6270, 6086.974
442.1091, 6067.312
442.5912, 6048.799
443.0733, 6045.104
443.5555, 6053.545
444.0376, 6064.836
444.5197, 6080.688
445.0018, 6094.668
445.4839, 6109.247
445.9660, 6117.994
446.4482, 6109.225
446.9303, 6078.437
447.4124, 6054.970
447.8945, 6064.356
448.3766, 6092.335
448.8587, 6110.802
449.3409, 6116.195
449.8230, 6110.329
450.3051, 6089.732
450.7872, 6057.344
451.2693, 6041.632
451.7514, 6047.702
452.2336, 6062.972
452.7157, 6094.456
453.1978, 6128.692
453.6799, 6146.410
454.1620, 6142.339
454.6441, 6125.348
455.1263, 6104.277
455.6084, 6075.685
456.0905, 6062.661
456.5726, 6078.613
457.0547, 6097.270
457.5368, 6116.712
458.0190, 6132.258
458.5011, 6135.639
458.9832, 6121.685
459.4653, 6102.589
459.9474, 6096.344
460.4295, 6103.165
460.9117, 6109.121
461.3938, 6108.881
461.8759, 6110.902
462.3580, 6128.343
462.8401, 6156.970
463.3222, 6173.236
463.8044, 6159.913
464.2865, 6140.146
464.7686, 6136.708
465.2507, 6145.505
465.7328, 6147.071
466.2149, 6131.324
466.6971, 6109.761
467.1792, 6104.960
467.6613, 6124.735
468.1434, 6146.375
468.6255, 6181.451
469.1076, 6208.455
469.5898, 6208.051
470.0719, 6187.121
470.5540, 6166.826
471.0361, 6160.471
471.5182, 6163.703
472.0003, 6163.088
472.4825, 6155.513
472.9646, 6152.627
473.4467, 6164.603
473.9288, 6176.521
474.4109, 6177.492
474.8930, 6167.821
475.3752, 6157.140
475.8573, 6152.367
476.3394, 6149.552
476.8215, 6138.625
477.3036, 6119.294
477.7857, 6108.792
478.2679, 6118.279
478.7500, 6139.958
479.2321, 6155.432
479.7142, 6163.903
480.1963, 6169.354
480.6784, 6170.983
481.1606, 6170.949
481.6427, 6172.189
482.1248, 6174.151
482.6069, 6171.857
483.0890, 6160.009
483.5711, 6142.508
484.0533, 6142.345
484.5354, 6177.810
485.0175, 6200.425
485.4996, 6192.783
485.9817, 6178.616
486.4638, 6179.260
486.9460, 6195.464
487.4281, 6209.139
487.9102, 6200.653
488.3923, 6179.025
488.8744, 6175.501
489.3565, 6194.580
489.8387, 6205.974
490.3208, 6185.864
490.8029, 6152.996
491.2850, 6148.325
491.7671, 6183.899
492.2492, 6212.292
492.7314, 6207.864
493.2135, 6193.204
493.6956, 6196.263
494.1777, 6217.938
494.6598, 6240.176
495.1419, 6250.482
495.6241, 6248.678
496.1062, 6232.572
496.5883, 6172.264
497.0704, 6140.817
497.5525, 6170.227
498.0346, 6212.691
498.5168, 6227.785
498.9989, 6212.126
499.4810, 6189.978
499.9631, 6179.541
500.4452, 6178.651
500.9273, 6179.688
501.4095, 6182.737
501.8916, 6187.521
502.3737, 6195.457
502.8558, 6204.193
503.3379, 6209.847
503.8200, 6211.631
504.3022, 6213.303
504.7843, 6213.155
505.2664, 6215.402
505.7485, 6229.632
506.2306, 6253.747
506.7127, 6269.838
507.1949, 6264.526
507.6770, 6243.783
508.1591, 6233.903
508.6412, 6244.963
509.1233, 6252.455
509.6054, 6250.799
510.0876, 6248.557
510.5697, 6258.255
511.0518, 6275.513
511.5339, 6278.217
512.0161, 6240.055
512.4982, 6182.616
512.9803, 6171.122
513.4624, 6214.213
513.9445, 6251.668
514.4266, 6262.968
514.9088, 6257.819
515.3909, 6246.535
515.8730, 6228.000
516.3551, 6217.192
516.8372, 6230.125
517.3193, 6244.269
517.8015, 6229.457
518.2836, 6194.153
518.7657, 6178.963
519.2478, 6207.850
519.7299, 6258.887
520.2120, 6278.132
520.6942, 6238.139
521.1763, 6218.788
521.6584, 6234.481
522.1405, 6254.792
522.6226, 6265.795
523.1047, 6267.808
523.5869, 6263.881
524.0690, 6252.241
524.5511, 6243.020
525.0332, 6261.037
525.5153, 6305.990
525.9974, 6328.291
526.4796, 6310.982
526.9617, 6275.848
527.4438, 6233.456
527.9259, 6186.521
528.4080, 6172.676
528.8901, 6234.516
529.3723, 6294.013
529.8544, 6297.095
530.3365, 6266.039
530.8186, 6244.951
531.3007, 6248.935
531.7828, 6265.400
532.2650, 6278.226
532.7471, 6287.854
533.2292, 6291.278
533.7113, 6284.043
534.1934, 6275.404
534.6755, 6261.970
535.1577, 6251.200
535.6398, 6256.907
536.1219, 6285.082
536.6040, 6310.496
537.0861, 6304.097
537.5682, 6275.854
538.0504, 6257.834
538.5325, 6254.289
539.0146, 6256.969
539.4967, 6259.274
539.9788, 6263.279
540.4609, 6278.854
540.9431, 6328.347
541.4252, 6357.864
541.9073, 6340.167
542.3894, 6308.265
542.8715, 6292.539
543.3536, 6296.041
543.8358, 6306.170
544.3179, 6313.884
544.8000, 6319.125
545.2821, 6321.903
545.7642, 6322.954
546.2463, 6319.382
546.7285, 6301.307
547.2106, 6285.304
547.6927, 6285.569
548.1748, 6301.507
548.6569, 6320.054
549.1390, 6345.585
549.6211, 6363.733
550.1032, 6352.534
550.5853, 6317.996
551.0674, 6284.637
551.5496, 6260.655
552.0317, 6249.373
552.5138, 6257.859
552.9959, 6295.104
553.4780, 6321.878
553.9601, 6334.414
554.4423, 6342.254
554.9244, 6352.966
555.4065, 6360.375
555.8886, 6349.907
556.3707, 6315.504
556.8528, 6281.696
557.3350, 6283.778
557.8171, 6316.466
558.2992, 6335.449
558.7813, 6333.638
559.2634, 6327.828
559.7455, 6329.216
560.2277, 6334.905
560.7098, 6334.941
561.1919, 6321.847
561.6740, 6316.062
562.1561, 6334.385
562.6382, 6356.837
563.1204, 6358.037
563.6025, 6339.242
564.0846, 6323.833
564.5667, 6330.116
565.0488, 6350.662
565.5309, 6354.375
566.0131, 6331.272
566.4952, 6316.598
566.9773, 6323.505
567.4594, 6335.114
567.9415, 6341.468
568.4236, 6343.114
568.9058, 6345.169
569.3879, 6348.864
569.8700, 6354.753
570.3521, 6366.125
570.8342, 6380.521
571.3163, 6388.951
571.7985, 6388.368
572.2806, 6384.433
572.7627, 6385.153
573.2448, 6392.402
573.7269, 6386.187
574.2090, 6346.128
574.6912, 6317.519
575.1733, 6321.077
575.6554, 6337.020
576.1375, 6341.514
576.6196, 6330.018
577.1017, 6318.402
577.5839, 6319.137
578.0660, 6331.272
578.5481, 6359.173
579.0302, 6406.997
579.5123, 6431.509
579.9944, 6402.037
580.4766, 6347.285
580.9587, 6325.009
581.4408, 6342.885
581.9229, 6353.538
582.4050, 6341.066
582.8871, 6328.042
583.3693, 6331.484
583.8514, 6346.085
584.3335, 6358.486
584.8156, 6362.531
585.2977, 6361.807
585.7798, 6359.317
586.2620, 6353.946
586.7441, 6361.735
587.2262, 6392.479
587.7083, 6421.693
588.1904, 6434.632
588.6725, 6437.159
589.1547, 6438.327
589.6368, 6440.413
590.1189, 6438.336
590.6010, 6424.567
591.0831, 6408.001
591.5652, 6400.969
592.0474, 6403.447
592.5295, 6407.509
593.0116, 6408.146
593.4937, 6406.008
593.9758, 6402.829
594.4579, 6397.633
594.9401, 6393.760
595.4222, 6395.137
595.9043, 6394.537
596.3864, 6383.542
596.8685, 6367.783
597.3506, 6362.040
597.8328, 6375.088
598.3149, 6393.352
598.7970, 6408.335
599.2791, 6418.683
599.7612, 6420.660
600.2433, 6413.542
600.7255, 6398.663
601.2076, 6374.349
601.6897, 6343.445
602.1718, 6329.381
602.6539, 6349.251
603.1360, 6363.073
603.6182, 6362.813
604.1003, 6359.531
604.5824, 6366.277
605.0645, 6378.991
605.5466, 6377.351
606.0287, 6338.722
606.5109, 6294.360
606.9930, 6297.086
607.4751, 6341.111
607.9572, 6381.145
608.4393, 6406.888
608.9214, 6423.366
609.4036, 6436.092
609.8857, 6444.995
610.3678, 6442.158
610.8499, 6415.986
611.3320, 6393.963
611.8141, 6381.340
612.2963, 6376.539
612.7784, 6380.809
613.2605, 6392.215
613.7426, 6402.992
614.2247, 6406.387
614.7068, 6405.736
615.1890, 6409.630
615.6711, 6418.290
616.1532, 6427.514
616.6353, 6438.659
617.1174, 6445.171
617.5995, 6435.750
618.0817, 6409.980
618.5638, 6396.084
619.0459, 6405.271
619.5280, 6414.789
620.0101, 6416.527
620.4922, 6413.335
620.9744, 6406.359
621.4565, 6397.500
621.9386, 6394.224
622.4207, 6406.516
622.9028, 6428.371
623.3849, 6433.571
623.8671, 6418.462
624.3492, 6408.786
624.8313, 6417.027
625.3134, 6428.555
625.7955, 6422.229
626.2776, 6399.282
626.7598, 6386.454
627.2419, 6391.991
627.7240, 6403.531
628.2061, 6417.236
628.6882, 6432.080
629.1703, 6448.382
629.6525, 6465.409
630.1346, 6479.112
630.6167, 6485.857
631.0988, 6485.760
631.5809, 6479.209
632.0630, 6465.465
632.5452, 6447.147
633.0273, 6417.153
633.5094, 6390.528
633.9915, 6384.523
634.4736, 6398.168
634.9557, 6417.462
635.4379, 6455.013
635.9200, 6481.318
636.4021, 6468.142
636.8842, 6437.138
637.3663, 6424.883
637.8484, 6438.492
638.3306, 6454.144
638.8127, 6445.812
639.2948, 6419.272
639.7769, 6412.364
640.2590, 6431.819
640.7411, 6446.779
641.2233, 6445.789
641.7054, 6439.217
642.1875, 6437.133
642.6696, 6439.286
643.1517, 6443.052
643.6339, 6448.613
644.1160, 6454.882
644.5981, 6465.114
645.0802, 6474.155
645.5623, 6471.917
646.0444, 6457.640
646.5266, 6442.610
647.0087, 6438.299
647.4908, 6441.479
647.9729, 6435.358
648.4550, 6416.528
648.9371, 6401.812
649.4193, 6392.622
649.9014, 6392.309
650.3835, 6411.063
650.8656, 6444.790
651.3477, 6463.819
651.8298, 6453.090
652.3120, 6438.217
652.7941, 6426.035
653.2762, 6419.368
653.7583, 6423.045
654.2404, 6436.860
654.7225, 6455.904
655.2047, 6477.862
655.6868, 6499.782
656.1689, 6511.192
656.6510, 6511.109
657.1331, 6505.750
657.6152, 6492.617
658.0974, 6480.058
658.5795, 6481.362
659.0616, 6491.351
659.5437, 6485.586
660.0258, 6436.822
660.5079, 6403.145
660.9901, 6413.993
661.4722, 6443.463
661.9543, 6469.792
662.4364, 6487.550
662.9185, 6494.298
663.4006, 6486.706
663.8828, 6471.948
664.3649, 6466.831
664.8470, 6471.808
665.3291, 6470.875
665.8112, 6459.548
666.2933, 6446.627
666.7755, 6437.210
667.2576, 6431.640
667.7397, 6430.463
668.2218, 6434.689
668.7039, 6441.577
669.1860, 6448.345
669.6682, 6459.411
670.1503, 6490.150
670.6324, 6528.067
671.1145, 6537.158
671.5966, 6496.868
672.0787, 6441.573
672.5609, 6415.327
673.0430, 6416.633
673.5251, 6441.343
674.0072, 6494.771
674.4893, 6538.740
674.9714, 6551.740
675.4536, 6539.089
675.9357, 6511.844
676.4178, 6452.240
676.8999, 6417.128
677.3820, 6421.091
677.8641, 6436.464
678.3463, 6457.094
678.8284, 6476.435
679.3105, 6485.820
679.7926, 6482.489
680.2747, 6472.481
680.7568, 6455.411
681.2390, 6437.366
681.7211, 6434.836
682.2032, 6447.811
682.6853, 6465.653
683.1674, 6486.427
683.6495, 6500.723
684.1317, 6490.284
684.6138, 6445.474
685.0959, 6427.309
685.5780, 6453.627
686.0601, 6485.444
686.5422, 6527.783
687.0244, 6562.422
687.5065, 6564.755
687.9886, 6534.826
688.4707, 6506.523
688.9528, 6506.006
689.4349, 6511.586
689.9171, 6491.519
690.3992, 6456.956
690.8813, 6442.957
691.3634, 6458.796
691.8455, 6485.914
692.3276, 6507.459
692.8098, 6522.972
693.2919, 6526.839
693.7740, 6513.291
694.2561, 6500.765
694.7382, 6489.848
695.2203, 6483.595
695.7025, 6488.063
696.1846, 6499.513
696.6667, 6503.812
697.1488, 6491.888
697.6309, 6480.507
698.1130, 6476.921
698.5952, 6479.885
699.0773, 6492.139
699.5594, 6510.455
700.0415, 6521.553
700.5236, 6516.279
701.0057, 6504.539
701.4879, 6510.179
701.9700, 6534.694
702.4521, 6543.839
702.9342, 6529.465
703.4163, 6512.586
703.8984, 6503.635
704.3806, 6501.440
704.8627, 6503.938
705.3448, 6514.507
705.8269, 6519.792
706.3090, 6511.732
706.7911, 6504.153
707.2733, 6507.604
707.7554, 6516.501
708.2375, 6519.792
708.7196, 6514.435
709.2017, 6509.182
709.6838, 6515.298
710.1660, 6527.099
710.6481, 6530.040
711.1302, 6524.221
711.6123, 6514.314
712.0944, 6501.363
712.5765, 6487.250
713.0587, 6473.326
713.5408, 6459.217
714.0229, 6453.350
714.5050, 6457.683
714.9871, 6468.030
715.4692, 6489.372
715.9514, 6511.939
716.4335, 6528.403
716.9156, 6538.677
717.3977, 6546.459
717.8798, 6558.137
718.3619, 6560.671
718.8441, 6531.394
719.3262, 6490.692
719.8083, 6476.413
720.2904, 6490.650
720.7725, 6508.278
721.2546, 6512.419
721.7368, 6509.082
722.2189, 6513.606
722.7010, 6527.778
723.1831, 6537.999
723.6652, 6545.033
724.1473, 6544.332
724.6295, 6527.730
725.1116, 6503.772
725.5937, 6490.417
726.0758, 6491.027
726.5579, 6490.934
727.0400, 6479.765
727.5222, 6474.978
728.0043, 6499.449
728.4864, 6532.697
728.9685, 6536.938
729.4506, 6504.502
729.9327, 6469.792
730.4149, 6468.266
730.8970, 6484.866
731.3791, 6484.671
731.8612, 6469.352
732.3433, 6451.903
732.8254, 6434.196
733.3076, 6429.151
733.7897, 6455.513
734.2718, 6508.725
734.7539, 6528.237
735.2360, 6487.182
735.7181, 6457.289
736.2003, 6455.306
736.6824, 6458.281
737.1645, 6452.021
737.6466, 6439.186
738.1287, 6427.467
738.6108, 6414.136
739.0930, 6413.894
739.5751, 6448.889
740.0572, 6492.124
740.5393, 6511.116
741.0214, 6508.420
741.5035, 6502.832
741.9857, 6503.154
742.4678, 6503.624
742.9499, 6494.024
743.4320, 6475.470
743.9141, 6464.034
744.3962, 6461.007
744.8784, 6458.190
745.3605, 6449.683
745.8426, 6444.223
746.3247, 6457.264
746.8068, 6492.719
747.2889, 6509.213
747.7711, 6490.676
748.2532, 6475.294
748.7353, 6471.741
749.2174, 6475.284
749.6995, 6486.842
750.1816, 6502.033
750.6638, 6505.660
751.1459, 6482.678
751.6280, 6460.661
752.1101, 6472.529
752.5922, 6500.800
753.0743, 6511.816
753.5565, 6503.154
754.0386, 6490.598
754.5207, 6483.288
755.0028, 6478.302
755.4849, 6466.950
755.9670, 6446.749
756.4492, 6447.577
756.9313, 6482.219
757.4134, 6506.250
757.8955, 6492.289
758.3776, 6463.336
758.8597, 6455.347
759.3419, 6470.035
759.8240, 6482.929
760.3061, 6498.301
760.7882, 6504.154
761.2703, 6483.604
761.7524, 6459.376
762.2346, 6457.388
762.7167, 6477.528
763.1988, 6500.871
763.6809, 6520.073
764.1630, 6531.773
764.6451, 6530.873
765.1273, 6519.684
765.6094, 6500.900
766.0915, 6476.259
766.5736, 6453.521
767.0557, 6436.331
767.5378, 6429.415
768.0200, 6449.877
768.5021, 6507.358
768.9842, 6530.954
769.4663, 6505.463
769.9484, 6475.783
770.4305, 6454.105
770.9127, 6443.696
771.3948, 6456.262
771.8769, 6495.327
772.3590, 6510.327
772.8411, 6474.158
773.3232, 6438.433
773.8054, 6421.741
774.2875, 6416.324
774.7696, 6414.457
775.2517, 6414.794
775.7338, 6419.040
776.2159, 6430.124
776.6981, 6441.241
777.1802, 6445.471
777.6623, 6443.740
778.1444, 6435.160
778.6265, 6421.238
779.1086, 6413.005
779.5908, 6417.104
780.0729, 6427.262
780.5550, 6429.636
781.0371, 6421.907
781.5192, 6432.711
782.0013, 6472.443
782.4835, 6503.242
782.9656, 6510.051
783.4477, 6501.633
783.9298, 6487.003
784.4119, 6466.111
784.8940, 6443.854
785.3762, 6402.206
785.8583, 6382.954
786.3404, 6418.962
786.8225, 6464.844
787.3046, 6481.020
787.7867, 6470.925
788.2689, 6459.468
788.7510, 6456.275
789.2331, 6457.133
789.7152, 6461.427
790.1973, 6465.913
790.6794, 6463.329
791.1616, 6455.476
791.6437, 6451.232
792.1258, 6454.408
792.6079, 6463.466
793.0900, 6480.763
793.5721, 6503.563
794.0543, 6498.125
794.5364, 6456.995
795.0185, 6437.423
795.5006, 6465.070
795.9827, 6499.402
796.4648, 6498.668
796.9470, 6466.906
797.4291, 6447.677
797.9112, 6453.089
798.3933, 6453.912
798.8754, 6445.380
799.3575, 6435.430
799.8397, 6426.321
800.3218, 6419.754
800.8039, 6419.905
801.2860, 6429.283
801.7681, 6434.252
802.2502, 6419.644
802.7324, 6405.002
803.2145, 6412.815
803.6966, 6432.509
804.1787, 6442.682
804.6608, 6438.337
805.1429, 6428.613
805.6251, 6418.802
806.1072, 6411.964
806.5893, 6418.074
807.0714, 6434.829
807.5535, 6443.715
808.0356, 6441.231
808.5178, 6437.603
808.9999, 6440.510
809.4820, 6444.993
809.9641, 6437.517
810.4462, 6413.221
810.9283, 6394.401
811.4105, 6380.375
811.8926, 6372.787
812.3747, 6370.452
812.8568, 6376.316
813.3389, 6402.230
813.8210, 6447.770
814.3032, 6466.527
814.7853, 6416.999
815.2674, 6383.828
815.7495, 6417.746
816.2316, 6463.406
816.7137, 6460.703
817.1959, 6423.263
817.6780, 6412.077
818.1601, 6459.849
818.6422, 6504.743
819.1243, 6477.936
819.6064, 6423.876
820.0886, 6416.119
820.5707, 6445.848
821.0528, 6465.320
821.5349, 6457.689
822.0170, 6439.935
822.4991, 6428.894
822.9813, 6424.351
823.4634, 6425.834
823.9455, 6433.520
824.4276, 6446.416
824.9097, 6467.847
825.3918, 6479.602
825.8740, 6464.730
826.3561, 6432.085
826.8382, 6411.746
827.3203, 6408.731
827.8024, 6406.312
828.2845, 6396.699
828.7667, 6397.491
829.2488, 6430.228
829.7309, 6467.593
830.2130, 6472.225
830.6951, 6442.337
831.1772, 6421.373
831.6594, 6426.289
832.1415, 6434.063
832.6236, 6436.162
833.1057, 6435.215
833.5878, 6430.844
834.0699, 6426.166
834.5521, 6430.787
835.0342, 6451.190
835.5163, 6469.323
835.9984, 6466.868
836.4805, 6452.140
836.9626, 6431.381
837.4448, 6410.551
837.9269, 6413.323
838.4090, 6445.885
838.8911, 6474.006
839.3732, 6456.137
839.8553, 6409.589
840.3375, 6404.235
840.8196, 6441.191
841.3017, 6458.881
841.7838, 6443.117
842.2659, 6423.646
842.7480, 6420.190
843.2302, 6427.434
843.7123, 6432.479
844.1944, 6436.270
844.6765, 6434.509
845.1586, 6424.167
845.6407, 6412.793
846.1229, 6397.020
846.6050, 6385.464
847.0871, 6391.675
847.5692, 6413.497
848.0513, 6423.571
848.5334, 6404.838
849.0156, 6392.053
849.4977, 6400.695
849.9798, 6413.335
850.4619, 6416.527
850.9440, 6412.847
851.4261, 6410.835
851.9083, 6413.343
852.3904, 6413.816
852.8725, 6400.693
853.3546, 6389.484
853.8367, 6402.442
854.3188, 6428.276
854.8010, 6443.235
855.2831, 6443.145
855.7652, 6438.188
856.2473, 6434.600
856.7294, 6433.897
857.2115, 6441.881
857.6937, 6455.481
858.1758, 6461.498
858.6579, 6458.611
859.1400, 6446.355
859.6221, 6422.913
860.1042, 6401.317
860.5864, 6401.921
861.0685, 6423.691
861.5506, 6437.187
862.0327, 6440.211
862.5148, 6443.786
862.9969, 6451.494
863.4791, 6458.111
863.9612, 6459.614
864.4433, 6456.776
864.9254, 6452.194
865.4075, 6443.790
865.8896, 6437.966
866.3718, 6434.815
866.8539, 6433.981
867.3360, 6439.156
867.8181, 6444.167
868.3002, 6439.512
868.7823, 6425.811
869.2645, 6418.681
869.7466, 6429.698
870.2287, 6438.133
870.7108, 6429.646
871.1929, 6420.570
871.6750, 6434.245
872.1572, 6457.794
872.6393, 6455.747
873.1214, 6415.153
873.6035, 6376.732
874.0856, 6372.271
874.5677, 6383.240
875.0499, 6392.099
875.5320, 6399.057
876.0141, 6408.923
876.4962, 6420.444
876.9783, 6420.578
877.4604, 6398.003
877.9426, 6369.848
878.4247, 6366.294
878.9068, 6380.829
879.3889, 6388.990
879.8710, 6389.553
880.3531, 6391.139
880.8353, 6397.313
881.3174, 6403.983
881.7995, 6406.714
882.2816, 6405.454
882.7637, 6400.083
883.2458, 6390.812
883.7280, 6373.035
884.2101, 6340.004
884.6922, 6319.115
885.1743, 6331.524
885.6564, 6363.890
886.1385, 6387.539
886.6207, 6400.620
887.1028, 6413.141
887.5849, 6427.969
888.0670, 6437.589
888.5491, 6442.623
889.0313, 6439.289
889.5134, 6413.940
889.9955, 6375.449
890.4776, 6365.932
890.9597, 6419.417
891.4418, 6445.328
891.9240, 6403.970
892.4061, 6362.067
892.8882, 6358.527
893.3703, 6373.868
893.8524, 6379.392
894.3345, 6371.835
894.8167, 6367.393
895.2988, 6379.869
895.7809, 6388.137
896.2630, 6369.909
896.7451, 6350.233
897.2272, 6360.698
897.7094, 6392.083
898.1915, 6415.048
898.6736, 6419.080
899.1557, 6417.276
899.6378, 6420.346
900.1199, 6423.078
900.6021, 6416.092
901.0842, 6404.639
901.5663, 6401.445
902.0484, 6407.153
902.5305, 6411.265
903.0126, 6407.032
903.4948, 6399.390
903.9769, 6395.886
904.4590, 6394.825
904.9411, 6388.616
905.4232, 6378.574
905.9053, 6377.071
906.3875, 6388.076
906.8696, 6405.563
907.3517, 6426.120
907.8338, 6444.679
908.3159, 6442.929
908.7980, 6420.762
909.2802, 6393.160
909.7623, 6358.474
910.2444, 6345.227
910.7265, 6371.647
911.2086, 6413.246
911.6907, 6436.095
912.1729, 6440.235
912.6550, 6432.559
913.1371, 6406.042
913.6192, 6391.309
914.1013, 6401.591
914.5834, 6408.781
915.0656, 6388.495
915.5477, 6356.110
916.0298, 6348.739
916.5119, 6376.303
916.9940, 6391.586
917.4761, 6385.731
917.9583, 6380.111
918.4404, 6377.749
918.9225, 6379.090
919.4046, 6388.956
919.8867, 6403.174
920.3688, 6405.652
920.8510, 6386.658
921.3331, 6374.978
921.8152, 6390.940
922.2973, 6396.308
922.7794, 6353.560
923.2615, 6303.498
923.7437, 6300.655
924.2258, 6342.315
924.7079, 6374.215
925.1900, 6381.427
925.6721, 6374.253
926.1542, 6340.800
926.6364, 6309.636
927.1185, 6303.870
927.6006, 6316.951
928.0827, 6338.482
928.5648, 6364.720
929.0469, 6386.318
929.5291, 6401.318
930.0112, 6406.021
930.4933, 6388.597
930.9754, 6365.433
931.4575, 6356.682
931.9396, 6361.125
932.4218, 6371.945
932.9039, 6386.289
933.3860, 6391.325
933.8681, 6362.791
934.3502, 6329.397
934.8323, 6335.577
935.3145, 6362.917
935.7966, 6372.205
936.2787, 6360.938
936.7608, 6349.710
937.2429, 6349.279
937.7250, 6355.243
938.2072, 6363.505
938.6893, 6373.677
939.1714, 6388.273
939.6535, 6404.236
940.1356, 6406.606
940.6177, 6393.729
941.0999, 6383.903
941.5820, 6390.333
942.0641, 6405.504
942.5462, 6422.974
943.0283, 6438.113
943.5104, 6417.557
943.9926, 6363.860
944.4747, 6328.050
944.9568, 6326.000
945.4389, 6341.044
945.9210, 6361.920
946.4031, 6380.133
946.8853, 6364.138
947.3674, 6314.208
947.8495, 6294.123
948.3316, 6310.646
948.8137, 6324.997
949.2958, 6321.874
949.7780, 6312.728
950.2601, 6309.684
950.7422, 6312.147
951.2243, 6317.541
951.7064, 6326.458
952.1885, 6335.076
952.6707, 6344.206
953.1528, 6347.625
953.6349, 6340.069
954.1170, 6330.404
954.5991, 6331.175
955.0812, 6341.784
955.5634, 6348.204
956.0455, 6346.538
956.5276, 6354.179
957.0097, 6381.631
957.4918, 6401.196
957.9739, 6396.754
958.4561, 6376.590
958.9382, 6350.393
959.4203, 6316.080
959.9024, 6306.164
960.3845, 6340.954
960.8666, 6358.473
961.3488, 6333.182
961.8309, 6311.730
962.3130, 6332.045
962.7951, 6370.395
963.2772, 6378.025
963.7593, 6347.266
964.2415, 6326.809
964.7236, 6320.867
965.2057, 6319.117
965.6878, 6316.126
966.1699, 6320.448
966.6520, 6346.505
967.1342, 6381.940
967.6163, 6397.231
968.0984, 6386.306
968.5805, 6377.019
969.0626, 6371.719
969.5447, 6366.819
970.0269, 6357.318
970.5090, 6351.608
970.9911, 6363.015
971.4732, 6382.352
971.9553, 6383.786
972.4374, 6358.797
972.9196, 6338.034
973.4017, 6322.842
973.8838, 6315.950
974.3659, 6326.323
974.8480, 6338.736
975.3301, 6337.735
975.8123, 6327.489
976.2944, 6322.955
976.7765, 6327.533
977.2586, 6334.332
977.7407, 6348.599
978.2228, 6356.524
978.7050, 6345.125
979.1871, 6329.840
979.6692, 6326.445
980.1513, 6333.063
980.6334, 6339.198
981.1155, 6343.903
981.5977, 6343.947
982.0798, 6331.180
982.5619, 6321.940
983.0440, 6327.935
983.5261, 6339.351
984.0082, 6345.688
984.4904, 6347.032
984.9725, 6348.520
985.4546, 6352.162
985.9367, 6354.033
986.4188, 6355.163
986.9009, 6351.377
987.3831, 6330.031
987.8652, 6309.399
988.3473, 6316.252
988.8294, 6345.311
989.3115, 6365.738
989.7936, 6368.652
990.2758, 6361.099
990.7579, 6333.757
991.2400, 6310.169
991.7221, 6311.556
992.2042, 6321.450
992.6863, 6316.503
993.1685, 6298.833
993.6506, 6290.531
994.1327, 6303.397
994.6148, 6313.088
995.0969, 6305.025
995.5790, 6294.161
996.0612, 6284.203
996.5433, 6281.662
997.0254, 6301.913
997.5075, 6338.137
997.9896, 6357.020
998.4717, 6342.321
998.9539, 6324.019
999.4360, 6312.804
999.9181, 6306.088
1000.400, 6301.695
1000.882, 6301.061
1001.364, 6311.420
1001.847, 6328.230
1002.329, 6329.970
1002.811, 6300.634
1003.293, 6282.704
1003.775, 6313.327
1004.257, 6343.518
1004.739, 6332.989
1005.221, 6306.303
1005.703, 6294.990
1006.186, 6273.983
1006.668, 6305.543
1007.150, 6323.004
1007.632, 6327.126
1008.114, 6277.951
1008.596, 6297.597
1009.078, 6289.663
1009.560, 6280.598
1010.043, 6309.929
1010.525, 6268.506
1011.007, 6297.229
1011.489, 6297.952
1011.971, 6311.490
1012.453, 6297.277
1012.935, 6291.635
1013.417, 6313.753
1013.899, 6320.500
1014.382, 6303.091
1014.864, 6317.444
1015.346, 6275.052
1015.828, 6282.454
1016.310, 6311.339
1016.792, 6295.327
1017.274, 6310.187
1017.756, 6313.289
1018.239, 6262.956
1018.721, 6305.551
1019.203, 6307.958
1019.685, 6269.101
1020.167, 6308.512
1020.649, 6275.344
1021.131, 6268.082
1021.613, 6280.316
1022.095, 6272.227
1022.578, 6296.179
1023.060, 6289.263
1023.542, 6279.588
1024.024, 6281.951
1024.506, 6250.206
1024.988, 6281.736
1025.470, 6270.044
1025.952, 6279.837
1026.435, 6294.499
1026.917, 6271.873
1027.399, 6288.724
1027.881, 6244.356
1028.363, 6251.213
1028.845, 6252.553
1029.327, 6286.634
1029.809, 6242.565
1030.292, 6247.997
1030.774, 6274.507
1031.256, 6271.525
1031.738, 6280.874
1032.220, 6253.719
1032.702, 6260.857
1033.184, 6258.542
1033.666, 6288.891
1034.148, 6293.453
1034.630, 6266.917
1035.113, 6240.512
1035.595, 6273.212
1036.077, 6249.893
1036.559, 6272.262
1037.041, 6270.056
1037.523, 6252.601
1038.005, 6244.955
1038.487, 6252.352
1038.970, 6261.521
1039.452, 6278.100
1039.934, 6287.909
1040.416, 6279.462
1040.898, 6265.410
1041.380, 6259.280
1041.862, 6261.071
1042.344, 6272.296
1042.826, 6308.170
1043.309, 6317.893
1043.791, 6279.583
1044.273, 6253.826
1044.755, 6272.970
1045.237, 6299.011
1045.719, 6291.403
1046.201, 6258.257
1046.683, 6237.502
1047.166, 6233.085
1047.648, 6226.196
1048.130, 6212.701
1048.612, 6210.507
1049.094, 6230.854
1049.576, 6248.223
1050.058, 6238.023
1050.540, 6212.911
1051.022, 6208.414
1051.505, 6227.139
1051.987, 6240.935
1052.469, 6249.581
1052.951, 6253.894
1053.433, 6253.761
1053.915, 6249.910
1054.397, 6241.291
1054.879, 6234.371
1055.361, 6243.311
1055.844, 6266.046
1056.326, 6279.177
1056.808, 6282.778
1057.290, 6273.589
1057.772, 6250.854
1058.254, 6234.555
1058.736, 6235.566
1059.218, 6243.338
1059.701, 6244.256
1060.183, 6240.538
1060.665, 6239.093
1061.147, 6239.837
1061.629, 6243.396
1062.111, 6249.220
1062.593, 6252.280
1063.075, 6250.762
1063.557, 6249.690
1064.040, 6255.900
1064.522, 6261.427
1065.004, 6246.924
1065.486, 6221.959
1065.968, 6208.504
1066.450, 6207.022
1066.932, 6216.040
1067.414, 6232.454
1067.896, 6239.362
1068.379, 6221.732
1068.861, 6203.247
1069.343, 6217.803
1069.825, 6242.654
1070.307, 6249.722
1070.789, 6240.573
1071.271, 6211.186
1071.753, 6171.240
1072.236, 6156.463
1072.718, 6185.371
1073.200, 6223.907
1073.682, 6260.924
1074.164, 6282.790
1074.646, 6265.322
1075.128, 6235.568
1075.610, 6228.779
1076.093, 6238.930
1076.575, 6239.012
1077.057, 6221.536
1077.539, 6206.098
1078.021, 6203.373
1078.503, 6201.697
1078.985, 6184.534
1079.467, 6177.484
1079.949, 6219.265
1080.432, 6275.675
1080.914, 6283.421
1081.396, 6238.451
1081.878, 6208.706
1082.360, 6216.251
1082.842, 6224.415
1083.324, 6233.928
1083.806, 6235.539
1084.288, 6213.974
1084.771, 6190.715
1085.253, 6194.823
1085.735, 6218.771
1086.217, 6224.554
1086.699, 6201.804
1087.181, 6188.562
1087.663, 6188.392
1088.145, 6190.944
1088.628, 6195.366
1089.110, 6198.343
1089.592, 6196.587
1090.074, 6192.750
1090.556, 6192.557
1091.038, 6196.094
1091.520, 6202.374
1092.002, 6213.430
1092.484, 6211.215
1092.967, 6190.003
1093.449, 6175.999
1093.931, 6184.175
1094.413, 6195.423
1094.895, 6183.408
1095.377, 6156.888
1095.859, 6149.436
1096.341, 6158.510
1096.823, 6164.071
1097.306, 6165.190
1097.788, 6173.680
1098.270, 6192.267
1098.752, 6200.101
1099.234, 6176.970
1099.716, 6149.597
1100.198, 6165.883
1100.680, 6204.045
1101.163, 6218.933
1101.645, 6217.644
1102.127, 6225.113
1102.609, 6241.981
1103.091, 6248.985
1103.573, 6236.772
1104.055, 6218.544
1104.537, 6200.777
1105.020, 6186.706
1105.502, 6179.446
1105.984, 6177.557
1106.466, 6182.392
1106.948, 6190.025
1107.430, 6193.128
1107.912, 6190.128
1108.394, 6183.977
1108.876, 6170.523
1109.359, 6162.242
1109.841, 6169.505
1110.323, 6176.942
1110.805, 6173.601
1111.287, 6166.187
1111.769, 6163.063
1112.251, 6163.987
1112.733, 6164.652
1113.215, 6164.380
1113.698, 6164.772
1114.180, 6171.799
1114.662, 6169.696
1115.144, 6147.008
1115.626, 6125.337
1116.108, 6118.765
1116.590, 6122.884
1117.072, 6128.898
1117.555, 6136.796
1118.037, 6161.661
1118.519, 6211.669
1119.001, 6228.369
1119.483, 6199.671
1119.965, 6173.348
1120.447, 6170.416
1120.929, 6169.212
1121.411, 6144.847
1121.894, 6112.201
1122.376, 6117.041
1122.858, 6149.565
1123.340, 6154.650
1123.822, 6136.261
1124.304, 6129.235
1124.786, 6140.810
1125.268, 6159.073
1125.750, 6177.704
1126.233, 6192.255
1126.715, 6197.089
1127.197, 6195.122
1127.679, 6189.633
1128.161, 6180.628
1128.643, 6165.929
1129.125, 6148.032
1129.607, 6131.770
1130.090, 6118.894
1130.572, 6112.537
1131.054, 6117.702
1131.536, 6123.556
1132.018, 6123.743
1132.500, 6123.505
1132.982, 6127.090
1133.464, 6131.840
1133.947, 6130.793
1134.429, 6127.619
1134.911, 6140.068
1135.393, 6180.962
1135.875, 6200.545
1136.357, 6174.309
1136.839, 6157.185
1137.321, 6166.417
1137.803, 6174.825
1138.286, 6165.031
1138.768, 6147.854
1139.250, 6138.777
1139.732, 6137.237
1140.214, 6137.689
1140.696, 6140.078
1141.178, 6146.063
1141.660, 6156.431
1142.142, 6163.572
1142.625, 6165.261
1143.107, 6157.843
1143.589, 6136.621
1144.071, 6114.159
1144.553, 6114.829
1145.035, 6131.132
1145.517, 6144.098
1145.999, 6152.182
1146.482, 6147.948
1146.964, 6134.429
1147.446, 6127.741
1147.928, 6133.375
1148.410, 6137.989
1148.892, 6129.388
1149.374, 6119.794
1149.856, 6121.469
1150.339, 6126.121
1150.821, 6126.487
1151.303, 6123.606
1151.785, 6119.719
1152.267, 6115.051
1152.749, 6107.967
1153.231, 6095.906
1153.713, 6090.246
1154.195, 6101.454
1154.677, 6108.376
1155.160, 6107.490
1155.642, 6096.724
1156.124, 6060.569
1156.606, 6026.034
1157.088, 6039.324
1157.570, 6094.350
1158.052, 6117.217
1158.534, 6099.925
1159.017, 6086.708
1159.499, 6080.132
1159.981, 6073.665
1160.463, 6064.338
1160.945, 6064.803
1161.427, 6085.823
1161.909, 6113.899
1162.391, 6130.394
1162.874, 6133.835
1163.356, 6106.576
1163.838, 6064.287
1164.320, 6065.116
1164.802, 6103.604
1165.284, 6133.202
1165.766, 6138.366
1166.248, 6128.222
1166.730, 6102.594
1167.213, 6079.924
1167.695, 6075.855
1168.177, 6081.046
1168.659, 6095.412
1169.141, 6108.045
1169.623, 6096.589
1170.105, 6073.616
1170.587, 6086.637
1171.069, 6153.631
1171.552, 6173.885
1172.034, 6079.802
1172.516, 6016.241
1172.998, 6018.850
1173.480, 6036.325
1173.962, 6055.956
1174.444, 6068.474
1174.926, 6060.880
1175.409, 6040.971
1175.891, 6036.688
1176.373, 6049.326
1176.855, 6061.084
1177.337, 6072.190
1177.819, 6070.371
1178.301, 6053.825
1178.783, 6043.277
1179.266, 6048.822
1179.748, 6059.885
1180.230, 6067.060
1180.712, 6069.674
1181.194, 6060.327
1181.676, 6049.727
1182.158, 6063.537
1182.640, 6088.070
1183.122, 6091.062
1183.604, 6072.303
1184.087, 6056.146
1184.569, 6052.437
1185.051, 6044.175
1185.533, 6009.699
1186.015, 5988.031
1186.497, 6002.621
1186.979, 6028.172
1187.461, 6056.794
1187.944, 6079.169
1188.426, 6080.782
1188.908, 6065.182
1189.390, 6053.506
1189.872, 6045.867
1190.354, 6041.983
1190.836, 6042.582
1191.318, 6044.117
1191.801, 6046.225
1192.283, 6045.200
1192.765, 6038.079
1193.247, 6033.841
1193.729, 6044.991
1194.211, 6065.383
1194.693, 6085.282
1195.175, 6100.386
1195.657, 6094.826
1196.140, 6075.124
1196.622, 6060.796
1197.104, 6055.262
1197.586, 6052.588
1198.068, 6050.674
1198.550, 6045.857
1199.032, 6028.238
1199.514, 6016.939
1199.996, 6026.125
1200.479, 6042.497
1200.961, 6064.027
1201.443, 6080.775
1201.925, 6073.908
1202.407, 6047.395
1202.889, 6036.984
1203.371, 6049.410
1203.853, 6057.342
1204.336, 6061.711
1204.818, 6057.758
1205.300, 6043.072
1205.782, 6025.976
1206.264, 6010.495
1206.746, 5996.780
1207.228, 5982.890
1207.710, 5975.108
1208.193, 5998.771
1208.675, 6038.181
1209.157, 6041.960
1209.639, 6021.650
1210.121, 6020.612
1210.603, 6039.893
1211.085, 6044.999
1211.567, 6021.875
1212.049, 6003.226
1212.531, 6013.953
1213.014, 6027.961
1213.496, 6042.701
1213.978, 6043.456
1214.460, 5999.345
1214.942, 5950.446
1215.424, 5955.397
1215.906, 5998.136
1216.388, 6012.512
1216.871, 5992.073
1217.353, 5984.239
1217.835, 5994.395
1218.317, 5991.771
1218.799, 5969.132
1219.281, 5955.604
1219.763, 5963.701
1220.245, 5979.647
1220.728, 5993.179
1221.210, 5997.700
1221.692, 5968.199
1222.174, 5929.413
1222.656, 5938.560
1223.138, 5975.718
1223.620, 6002.959
1224.102, 6016.231
1224.584, 6022.359
1225.067, 6023.313
1225.549, 6017.831
1226.031, 5997.471
1226.513, 5986.261
1226.995, 6000.315
1227.477, 6014.717
1227.959, 6016.030
1228.441, 6016.761
1228.923, 6033.611
1229.406, 6048.842
1229.888, 6026.399
1230.370, 5972.277
1230.852, 5960.210
1231.334, 5992.891
1231.816, 5995.952
1232.298, 5966.367
1232.780, 5938.112
1233.263, 5921.153
1233.745, 5923.332
1234.227, 5949.740
##END=



