##NAMES=Chalcosiderite
##RRUFFID=R060007
##IDEAL CHEMISTRY=Cu^2+^Fe^3+^_6_(PO_4_)_4_(OH)_8_&#183;4H_2_O
##LOCALITY=Cerro Negro mine, Carrizalillo, Chile
##OWNER=RRUFF
##SOURCE=William W. Pinch, Bob Jenkins
##DESCRIPTION=Groups of green foliated crystals associated with pseudomalachite, R050597
##STATUS=The identification of this mineral has been confirmed by X-ray diffraction and chemical analysis
##URL=rruff.info/R060007
##MEASURED CHEMISTRY=Cu_1.00_(Fe^3+^_3.69_Al_2.31_)_Σ=6_(P_1.00_O_4_)_4_(OH)_8_·4H_2_O
156.0814, 1232.335
156.5635, 1231.675
157.0456, 1231.844
157.5278, 1232.840
158.0099, 1233.878
158.4920, 1234.358
158.9741, 1235.036
159.4562, 1236.586
159.9383, 1240.345
160.4205, 1243.953
160.9026, 1246.279
161.3847, 1247.177
161.8668, 1248.779
162.3489, 1252.226
162.8310, 1256.663
163.3132, 1261.091
163.7953, 1264.628
164.2774, 1268.480
164.7595, 1273.423
165.2416, 1279.666
165.7237, 1285.914
166.2059, 1291.210
166.6880, 1296.171
167.1701, 1301.737
167.6522, 1307.616
168.1343, 1314.655
168.6164, 1323.847
169.0986, 1335.740
169.5807, 1347.876
170.0628, 1358.200
170.5449, 1367.618
171.0270, 1377.813
171.5091, 1389.478
171.9913, 1402.407
172.4734, 1416.565
172.9555, 1432.212
173.4376, 1448.478
173.9197, 1464.436
174.4018, 1480.427
174.8840, 1497.272
175.3661, 1515.575
175.8482, 1534.791
176.3303, 1554.174
176.8124, 1573.731
177.2945, 1593.305
177.7767, 1612.916
178.2588, 1632.624
178.7409, 1651.827
179.2230, 1670.623
179.7051, 1688.837
180.1872, 1705.890
180.6694, 1721.824
181.1515, 1736.638
181.6336, 1748.984
182.1157, 1759.333
182.5978, 1770.998
183.0799, 1788.177
183.5621, 1808.734
184.0442, 1826.311
184.5263, 1839.120
185.0084, 1849.432
185.4905, 1861.235
185.9726, 1874.437
186.4547, 1887.899
186.9369, 1901.166
187.4190, 1914.165
187.9011, 1925.821
188.3832, 1935.587
188.8653, 1944.406
189.3474, 1954.791
189.8296, 1966.925
190.3117, 1978.629
190.7938, 1987.373
191.2759, 1993.646
191.7580, 2001.235
192.2401, 2011.427
192.7223, 2023.338
193.2044, 2034.576
193.6865, 2045.218
194.1686, 2055.381
194.6507, 2065.036
195.1328, 2074.173
195.6150, 2082.995
196.0971, 2091.535
196.5792, 2099.684
197.0613, 2107.035
197.5434, 2113.497
198.0255, 2119.399
198.5077, 2124.993
198.9898, 2130.317
199.4719, 2134.774
199.9540, 2138.072
200.4361, 2140.368
200.9182, 2142.632
201.4004, 2144.949
201.8825, 2146.989
202.3646, 2148.734
202.8467, 2150.343
203.3288, 2150.442
203.8109, 2148.808
204.2931, 2145.436
204.7752, 2139.807
205.2573, 2131.391
205.7394, 2122.017
206.2215, 2114.133
206.7036, 2108.567
207.1858, 2100.534
207.6679, 2088.769
208.1500, 2073.396
208.6321, 2055.856
209.1142, 2035.313
209.5963, 2014.161
210.0785, 1995.226
210.5606, 1979.429
211.0427, 1962.802
211.5248, 1943.912
212.0069, 1922.846
212.4890, 1903.268
212.9712, 1885.732
213.4533, 1868.775
213.9354, 1850.594
214.4175, 1829.953
214.8996, 1811.432
215.3817, 1796.411
215.8639, 1785.018
216.3460, 1772.832
216.8281, 1759.287
217.3102, 1745.622
217.7923, 1733.451
218.2744, 1723.126
218.7566, 1713.079
219.2387, 1703.237
219.7208, 1693.516
220.2029, 1683.599
220.6850, 1673.641
221.1671, 1663.390
221.6493, 1652.618
222.1314, 1640.809
222.6135, 1629.430
223.0956, 1619.097
223.5777, 1609.713
224.0598, 1600.546
224.5420, 1591.717
225.0241, 1582.894
225.5062, 1573.682
225.9883, 1564.528
226.4704, 1554.085
226.9525, 1541.792
227.4347, 1527.352
227.9168, 1514.342
228.3989, 1503.122
228.8810, 1492.946
229.3631, 1483.519
229.8452, 1475.890
230.3274, 1466.627
230.8095, 1454.119
231.2916, 1438.141
231.7737, 1425.532
232.2558, 1417.893
232.7379, 1411.963
233.2201, 1404.739
233.7022, 1396.292
234.1843, 1386.377
234.6664, 1374.170
235.1485, 1359.713
235.6306, 1347.767
236.1128, 1339.029
236.5949, 1331.933
237.0770, 1325.059
237.5591, 1318.531
238.0412, 1311.985
238.5233, 1305.259
239.0055, 1298.329
239.4876, 1292.219
239.9697, 1287.578
240.4518, 1283.012
240.9339, 1277.128
241.4160, 1268.841
241.8982, 1261.403
242.3803, 1255.412
242.8624, 1250.827
243.3445, 1246.984
243.8266, 1244.063
244.3087, 1241.632
244.7909, 1239.540
245.2730, 1238.657
245.7551, 1236.225
246.2372, 1231.010
246.7193, 1223.344
247.2014, 1218.075
247.6836, 1216.504
248.1657, 1215.785
248.6478, 1213.831
249.1299, 1210.234
249.6120, 1206.293
250.0941, 1202.414
250.5762, 1198.435
251.0584, 1192.809
251.5405, 1184.749
252.0226, 1176.190
252.5047, 1168.604
252.9868, 1162.381
253.4689, 1156.164
253.9511, 1149.826
254.4332, 1143.385
254.9153, 1137.078
255.3974, 1131.064
255.8795, 1125.003
256.3617, 1118.834
256.8438, 1112.686
257.3259, 1105.986
257.8080, 1098.427
258.2901, 1090.329
258.7722, 1082.684
259.2544, 1075.570
259.7365, 1068.701
260.2186, 1061.674
260.7007, 1054.274
261.1828, 1047.551
261.6649, 1041.792
262.1471, 1036.656
262.6292, 1030.856
263.1113, 1024.002
263.5934, 1017.298
264.0755, 1011.302
264.5576, 1005.936
265.0398, 1001.459
265.5219, 998.2334
266.0040, 995.6437
266.4861, 991.8818
266.9682, 986.2031
267.4503, 981.3173
267.9325, 978.9421
268.4146, 979.8425
268.8967, 979.4117
269.3788, 976.9808
269.8609, 973.9162
270.3430, 972.9886
270.8252, 974.7303
271.3073, 976.8484
271.7894, 978.4230
272.2715, 979.4017
272.7536, 980.2032
273.2357, 980.4366
273.7179, 981.0244
274.2000, 983.6589
274.6821, 988.7421
275.1642, 993.9459
275.6463, 998.1583
276.1284, 1001.367
276.6106, 1006.251
277.0927, 1013.182
277.5748, 1020.966
278.0569, 1027.988
278.5390, 1034.073
279.0211, 1040.645
279.5032, 1047.961
279.9854, 1056.021
280.4675, 1065.598
280.9496, 1076.949
281.4317, 1088.995
281.9138, 1100.536
282.3959, 1111.544
282.8781, 1123.006
283.3602, 1135.370
283.8423, 1148.418
284.3244, 1160.626
284.8065, 1171.867
285.2886, 1183.442
285.7708, 1196.663
286.2529, 1211.454
286.7350, 1226.578
287.2171, 1242.002
287.6992, 1257.482
288.1813, 1271.825
288.6635, 1285.027
289.1456, 1298.205
289.6277, 1312.281
290.1098, 1327.194
290.5919, 1342.198
291.0740, 1357.519
291.5562, 1372.586
292.0383, 1385.311
292.5204, 1395.941
293.0025, 1407.408
293.4846, 1423.003
293.9667, 1441.315
294.4489, 1457.149
294.9310, 1469.250
295.4131, 1480.038
295.8952, 1493.115
296.3773, 1508.125
296.8594, 1522.962
297.3416, 1536.374
297.8237, 1548.943
298.3058, 1561.827
298.7879, 1575.269
299.2700, 1588.745
299.7521, 1601.008
300.2343, 1612.555
300.7164, 1624.377
301.1985, 1637.410
301.6806, 1651.008
302.1627, 1664.084
302.6448, 1676.713
303.1270, 1688.667
303.6091, 1700.284
304.0912, 1711.076
304.5733, 1720.589
305.0554, 1727.787
305.5375, 1733.948
306.0197, 1740.701
306.5018, 1747.930
306.9839, 1754.098
307.4660, 1757.185
307.9481, 1758.635
308.4302, 1760.562
308.9124, 1764.958
309.3945, 1768.792
309.8766, 1768.866
310.3587, 1765.827
310.8408, 1763.048
311.3229, 1764.121
311.8051, 1765.784
312.2872, 1764.454
312.7693, 1757.662
313.2514, 1750.518
313.7335, 1746.431
314.2156, 1744.442
314.6978, 1741.684
315.1799, 1736.781
315.6620, 1730.607
316.1441, 1723.735
316.6262, 1715.945
317.1083, 1708.166
317.5905, 1700.758
318.0726, 1693.642
318.5547, 1686.571
319.0368, 1680.283
319.5189, 1673.396
320.0010, 1665.216
320.4832, 1655.481
320.9653, 1645.293
321.4474, 1634.945
321.9295, 1624.332
322.4116, 1613.335
322.8937, 1601.650
323.3759, 1589.883
323.8580, 1578.417
324.3401, 1567.424
324.8222, 1555.551
325.3043, 1541.538
325.7864, 1527.167
326.2686, 1513.813
326.7507, 1502.889
327.2328, 1491.565
327.7149, 1479.021
328.1970, 1465.521
328.6791, 1452.797
329.1613, 1441.492
329.6434, 1430.570
330.1255, 1419.563
330.6076, 1408.974
331.0897, 1397.509
331.5718, 1384.256
332.0540, 1370.131
332.5361, 1357.730
333.0182, 1348.166
333.5003, 1338.697
333.9824, 1328.169
334.4645, 1315.738
334.9467, 1304.677
335.4288, 1295.536
335.9109, 1287.454
336.3930, 1279.151
336.8751, 1270.154
337.3572, 1261.899
337.8394, 1254.845
338.3215, 1249.100
338.8036, 1243.588
339.2857, 1238.601
339.7678, 1233.316
340.2499, 1226.167
340.7321, 1216.713
341.2142, 1208.826
341.6963, 1203.766
342.1784, 1200.955
342.6605, 1197.902
343.1426, 1194.602
343.6248, 1191.167
344.1069, 1187.608
344.5890, 1183.979
345.0711, 1180.622
345.5532, 1177.773
346.0353, 1175.003
346.5175, 1171.100
346.9996, 1166.056
347.4817, 1161.707
347.9638, 1159.957
348.4459, 1159.929
348.9280, 1158.317
349.4102, 1154.731
349.8923, 1150.237
350.3744, 1146.341
350.8565, 1142.810
351.3386, 1138.609
351.8207, 1132.278
352.3029, 1125.357
352.7850, 1120.965
353.2671, 1119.147
353.7492, 1116.743
354.2313, 1109.660
354.7134, 1100.305
355.1956, 1092.827
355.6777, 1089.461
356.1598, 1087.856
356.6419, 1086.151
357.1240, 1084.358
357.6061, 1082.506
358.0883, 1080.823
358.5704, 1078.997
359.0525, 1076.710
359.5346, 1073.752
360.0167, 1070.582
360.4988, 1066.823
360.9810, 1063.035
361.4631, 1060.499
361.9452, 1061.319
362.4273, 1062.329
362.9094, 1061.385
363.3915, 1057.649
363.8737, 1054.721
364.3558, 1053.829
364.8379, 1054.360
365.3200, 1055.615
365.8021, 1059.039
366.2842, 1061.597
366.7664, 1061.672
367.2485, 1059.222
367.7306, 1058.298
368.2127, 1060.574
368.6948, 1063.802
369.1769, 1066.514
369.6591, 1067.782
370.1412, 1069.662
370.6233, 1072.470
371.1054, 1076.013
371.5875, 1079.549
372.0696, 1082.930
372.5518, 1086.432
373.0339, 1090.054
373.5160, 1093.398
373.9981, 1098.230
374.4802, 1105.591
374.9623, 1113.658
375.4445, 1119.113
375.9266, 1120.910
376.4087, 1123.136
376.8908, 1126.976
377.3729, 1132.401
377.8550, 1138.467
378.3372, 1145.378
378.8193, 1152.252
379.3014, 1157.693
379.7835, 1161.629
380.2656, 1166.883
380.7477, 1174.364
381.2299, 1183.107
381.7120, 1190.944
382.1941, 1197.795
382.6762, 1204.123
383.1583, 1209.520
383.6404, 1214.476
384.1226, 1221.124
384.6047, 1230.089
385.0868, 1239.176
385.5689, 1245.188
386.0510, 1248.849
386.5331, 1252.963
387.0153, 1259.518
387.4974, 1267.096
387.9795, 1273.652
388.4616, 1279.173
388.9437, 1284.508
389.4258, 1290.414
389.9080, 1296.565
390.3901, 1302.359
390.8722, 1307.233
391.3543, 1312.177
391.8364, 1318.401
392.3185, 1325.379
392.8007, 1331.374
393.2828, 1334.631
393.7649, 1337.176
394.2470, 1340.460
394.7291, 1345.087
395.2112, 1349.362
395.6934, 1352.806
396.1755, 1355.470
396.6576, 1357.442
397.1397, 1357.928
397.6218, 1358.465
398.1039, 1359.843
398.5861, 1362.237
399.0682, 1363.610
399.5503, 1363.063
400.0324, 1361.848
400.5145, 1360.909
400.9966, 1360.750
401.4788, 1360.252
401.9609, 1360.063
402.4430, 1359.573
402.9251, 1356.078
403.4072, 1347.549
403.8893, 1339.088
404.3714, 1333.291
404.8535, 1331.034
405.3357, 1327.463
405.8178, 1322.007
406.2999, 1316.035
406.7820, 1312.116
407.2641, 1310.911
407.7462, 1307.818
408.2284, 1300.796
408.7105, 1290.822
409.1926, 1282.016
409.6747, 1274.423
410.1568, 1267.703
410.6389, 1262.164
411.1211, 1257.526
411.6032, 1251.764
412.0853, 1244.281
412.5674, 1236.050
413.0495, 1227.951
413.5316, 1220.032
414.0138, 1212.744
414.4959, 1206.371
414.9780, 1200.663
415.4601, 1195.445
415.9422, 1190.677
416.4243, 1185.995
416.9065, 1180.673
417.3886, 1175.295
417.8707, 1170.853
418.3528, 1168.345
418.8349, 1166.178
419.3170, 1163.148
419.7992, 1159.454
420.2813, 1156.221
420.7634, 1153.074
421.2455, 1151.047
421.7276, 1151.054
422.2097, 1154.145
422.6919, 1157.051
423.1740, 1158.379
423.6561, 1159.164
424.1382, 1161.030
424.6203, 1164.359
425.1024, 1168.615
425.5846, 1174.063
426.0667, 1180.769
426.5488, 1186.962
427.0309, 1192.298
427.5130, 1197.492
427.9951, 1203.025
428.4773, 1208.880
428.9594, 1215.085
429.4415, 1221.489
429.9236, 1228.293
430.4057, 1236.452
430.8878, 1246.540
431.3700, 1256.095
431.8521, 1263.651
432.3342, 1269.219
432.8163, 1276.333
433.2984, 1285.349
433.7805, 1294.721
434.2627, 1302.487
434.7448, 1308.831
435.2269, 1315.570
435.7090, 1323.450
436.1911, 1331.827
436.6732, 1339.241
437.1554, 1345.818
437.6375, 1352.391
438.1196, 1359.899
438.6017, 1367.631
439.0838, 1374.454
439.5659, 1380.227
440.0481, 1385.186
440.5302, 1389.461
441.0123, 1393.129
441.4944, 1396.324
441.9765, 1399.049
442.4586, 1401.373
442.9408, 1403.034
443.4229, 1404.155
443.9050, 1405.774
444.3871, 1409.821
444.8692, 1413.520
445.3513, 1414.868
445.8335, 1411.956
446.3156, 1409.563
446.7977, 1409.244
447.2798, 1409.876
447.7619, 1409.477
448.2440, 1407.161
448.7262, 1404.611
449.2083, 1402.213
449.6904, 1399.971
450.1725, 1397.492
450.6546, 1394.770
451.1367, 1391.859
451.6189, 1389.070
452.1010, 1386.959
452.5831, 1382.857
453.0652, 1375.998
453.5473, 1367.485
454.0294, 1359.388
454.5116, 1351.641
454.9937, 1344.678
455.4758, 1339.461
455.9579, 1335.369
456.4400, 1328.285
456.9221, 1317.866
457.4043, 1307.032
457.8864, 1298.367
458.3685, 1291.507
458.8506, 1285.374
459.3327, 1280.403
459.8148, 1274.940
460.2970, 1266.342
460.7791, 1255.389
461.2612, 1244.939
461.7433, 1237.186
462.2254, 1230.231
462.7076, 1222.363
463.1897, 1213.251
463.6718, 1204.653
464.1539, 1198.291
464.6360, 1192.610
465.1181, 1186.171
465.6003, 1176.691
466.0824, 1168.484
466.5645, 1163.806
467.0466, 1161.594
467.5287, 1157.759
468.0108, 1150.493
468.4930, 1142.715
468.9751, 1135.208
469.4572, 1127.648
469.9393, 1121.699
470.4214, 1118.398
470.9035, 1115.783
471.3857, 1111.534
471.8678, 1104.863
472.3499, 1099.042
472.8320, 1094.774
473.3141, 1091.604
473.7962, 1087.776
474.2784, 1083.170
474.7605, 1078.851
475.2426, 1075.708
475.7247, 1073.501
476.2068, 1070.756
476.6889, 1067.353
477.1711, 1063.830
477.6532, 1060.773
478.1353, 1058.074
478.6174, 1055.402
479.0995, 1052.456
479.5816, 1049.687
480.0638, 1048.075
480.5459, 1047.220
481.0280, 1045.677
481.5101, 1041.360
481.9922, 1036.801
482.4743, 1034.201
482.9565, 1034.049
483.4386, 1034.287
483.9207, 1034.922
484.4028, 1035.181
484.8849, 1034.243
485.3670, 1030.194
485.8492, 1026.915
486.3313, 1025.603
486.8134, 1025.856
487.2955, 1025.437
487.7776, 1023.623
488.2597, 1022.076
488.7419, 1021.633
489.2240, 1022.705
489.7061, 1022.890
490.1882, 1021.836
490.6703, 1020.417
491.1524, 1019.632
491.6346, 1019.560
492.1167, 1019.411
492.5988, 1019.052
493.0809, 1018.458
493.5630, 1017.342
494.0451, 1015.712
494.5273, 1014.505
495.0094, 1014.623
495.4915, 1015.488
495.9736, 1015.871
496.4557, 1015.712
496.9378, 1015.071
497.4200, 1013.367
497.9021, 1011.378
498.3842, 1010.386
498.8663, 1011.312
499.3484, 1012.566
499.8305, 1013.561
500.3127, 1014.145
500.7948, 1013.921
501.2769, 1011.472
501.7590, 1009.285
502.2411, 1008.570
502.7232, 1009.552
503.2054, 1010.945
503.6875, 1013.802
504.1696, 1016.204
504.6517, 1016.636
505.1338, 1013.588
505.6159, 1011.171
506.0981, 1009.605
506.5802, 1008.798
507.0623, 1008.686
507.5444, 1009.508
508.0265, 1010.218
508.5086, 1010.303
508.9908, 1009.889
509.4729, 1010.198
509.9550, 1011.339
510.4371, 1012.366
510.9192, 1011.983
511.4013, 1010.704
511.8835, 1010.607
512.3655, 1012.221
512.8477, 1014.418
513.3298, 1016.359
513.8119, 1017.892
514.2940, 1018.643
514.7761, 1017.194
515.2582, 1015.879
515.7404, 1016.507
516.2225, 1018.953
516.7046, 1022.081
517.1867, 1026.787
517.6688, 1031.031
518.1509, 1033.173
518.6331, 1031.649
519.1152, 1031.299
519.5973, 1033.474
520.0794, 1037.002
520.5615, 1040.381
521.0436, 1043.815
521.5258, 1046.740
522.0079, 1048.860
522.4900, 1050.362
522.9721, 1052.306
523.4542, 1054.860
523.9363, 1057.229
524.4185, 1058.792
524.9006, 1059.567
525.3827, 1061.272
525.8648, 1064.166
526.3469, 1066.815
526.8290, 1067.027
527.3112, 1065.544
527.7933, 1065.308
528.2754, 1067.517
528.7575, 1070.379
529.2396, 1071.949
529.7217, 1072.455
530.2039, 1072.534
530.6860, 1072.089
531.1681, 1071.654
531.6502, 1071.903
532.1323, 1072.818
532.6144, 1072.943
533.0966, 1070.612
533.5787, 1067.959
534.0608, 1066.498
534.5429, 1067.376
535.0250, 1067.953
535.5071, 1068.037
535.9893, 1067.686
536.4714, 1066.897
536.9535, 1065.255
537.4356, 1064.008
537.9177, 1063.563
538.3998, 1063.773
538.8820, 1063.796
539.3641, 1063.679
539.8462, 1063.212
540.3283, 1061.980
540.8104, 1060.163
541.2925, 1058.909
541.7747, 1058.246
542.2568, 1058.339
542.7389, 1060.274
543.2210, 1063.079
543.7031, 1064.282
544.1852, 1062.307
544.6674, 1059.945
545.1495, 1060.075
545.6316, 1061.853
546.1137, 1063.163
546.5958, 1062.797
547.0779, 1061.932
547.5601, 1060.875
548.0422, 1059.639
548.5243, 1059.223
549.0064, 1060.100
549.4885, 1061.677
549.9706, 1063.688
550.4528, 1067.159
550.9349, 1068.938
551.4170, 1067.951
551.8991, 1066.125
552.3812, 1066.447
552.8633, 1069.433
553.3455, 1072.445
553.8276, 1074.856
554.3097, 1076.854
554.7918, 1079.085
555.2739, 1081.516
555.7560, 1083.904
556.2382, 1085.948
556.7203, 1087.874
557.2024, 1090.331
557.6845, 1093.374
558.1666, 1096.252
558.6487, 1098.395
559.1309, 1099.978
559.6130, 1101.210
560.0951, 1102.276
560.5772, 1102.771
561.0593, 1102.421
561.5414, 1101.371
562.0236, 1099.895
562.5057, 1097.355
562.9878, 1095.098
563.4699, 1093.531
563.9520, 1092.604
564.4341, 1091.885
564.9163, 1092.181
565.3984, 1091.519
565.8805, 1088.513
566.3626, 1082.501
566.8447, 1078.221
567.3268, 1076.024
567.8090, 1074.395
568.2911, 1071.574
568.7732, 1067.685
569.2553, 1064.118
569.7374, 1061.255
570.2195, 1058.560
570.7017, 1055.154
571.1838, 1051.180
571.6659, 1047.169
572.1480, 1043.416
572.6301, 1039.657
573.1122, 1035.821
573.5944, 1031.826
574.0765, 1027.322
574.5586, 1021.509
575.0407, 1015.633
575.5228, 1010.469
576.0049, 1006.503
576.4871, 1002.260
576.9692, 997.6523
577.4513, 992.6757
577.9334, 987.1736
578.4155, 981.0128
578.8976, 974.8853
579.3798, 969.0163
579.8619, 963.1225
580.3440, 956.4852
580.8261, 949.0555
581.3082, 941.8887
581.7903, 935.6110
582.2725, 929.9089
582.7546, 924.1235
583.2367, 918.2428
583.7188, 912.0181
584.2009, 905.2205
584.6830, 898.0515
585.1652, 890.6910
585.6473, 883.0783
586.1294, 875.6241
586.6115, 868.6331
587.0936, 861.7889
587.5757, 854.8486
588.0579, 847.2397
588.5400, 840.1036
589.0221, 833.9119
589.5042, 828.3048
589.9863, 822.4492
590.4684, 816.3806
590.9506, 810.0833
591.4327, 803.4163
591.9148, 796.4713
592.3969, 789.9625
592.8790, 783.8311
593.3611, 778.4163
593.8433, 774.4363
594.3254, 771.5717
594.8075, 767.5176
595.2896, 762.1141
595.7717, 756.3197
596.2538, 750.6868
596.7360, 745.4103
597.2181, 740.7991
597.7002, 737.0387
598.1823, 733.9646
598.6644, 732.0589
599.1465, 730.6907
599.6287, 728.7658
600.1108, 725.1354
600.5929, 721.7454
601.0750, 719.0721
601.5571, 717.1516
602.0392, 715.9271
602.5214, 716.1943
603.0035, 716.0368
603.4856, 714.4995
603.9677, 711.4199
604.4498, 708.9630
604.9319, 707.1086
605.4141, 705.8498
605.8962, 705.6788
606.3783, 706.3182
606.8604, 705.7211
607.3425, 703.3804
607.8246, 700.7894
608.3068, 700.1589
608.7889, 700.6123
609.2710, 700.2324
609.7531, 697.4313
610.2352, 694.6428
610.7173, 693.8836
611.1995, 694.4274
611.6816, 694.2838
612.1637, 692.2806
612.6458, 690.0009
613.1279, 687.9932
613.6100, 686.3201
614.0922, 684.5616
614.5743, 682.4063
615.0564, 680.5647
615.5385, 679.6747
616.0206, 680.0948
616.5027, 679.1764
616.9849, 676.6500
617.4670, 673.6160
617.9491, 671.0516
618.4312, 669.0270
618.9133, 668.2410
619.3954, 669.2714
619.8776, 670.3898
620.3597, 669.3974
620.8418, 666.9011
621.3239, 664.2939
621.8060, 662.2762
622.2881, 660.1516
622.7703, 657.4872
623.2524, 654.3587
623.7345, 651.1048
624.2166, 647.0214
624.6987, 643.5668
625.1808, 641.7073
625.6630, 641.6107
626.1451, 640.2496
626.6272, 637.1067
627.1093, 633.4927
627.5914, 630.2425
628.0735, 627.3697
628.5557, 624.8033
629.0378, 622.7338
629.5199, 620.3068
630.0020, 616.3083
630.4841, 611.0870
630.9662, 605.5250
631.4484, 599.3556
631.9305, 594.0070
632.4126, 591.6756
632.8947, 591.1487
633.3768, 589.9098
633.8589, 586.7064
634.3411, 582.8692
634.8232, 578.7170
635.3053, 574.3321
635.7874, 570.0641
636.2695, 565.6186
636.7516, 561.7087
637.2338, 558.8336
637.7159, 557.0370
638.1980, 554.4363
638.6801, 550.8160
639.1622, 546.9150
639.6443, 543.2498
640.1265, 539.8155
640.6086, 536.3293
641.0907, 532.7581
641.5728, 529.2890
642.0549, 526.1264
642.5370, 523.1882
643.0192, 520.2881
643.5013, 517.4503
643.9834, 514.5030
644.4655, 511.2509
644.9476, 507.8390
645.4297, 504.3798
645.9119, 500.6229
646.3940, 497.1950
646.8761, 494.4687
647.3582, 492.2399
647.8403, 489.8678
648.3224, 487.3391
648.8046, 484.6302
649.2867, 481.6462
649.7688, 478.4105
650.2509, 475.4431
650.7330, 472.7406
651.2151, 470.0546
651.6973, 467.0763
652.1794, 463.9632
652.6615, 461.1991
653.1436, 458.8159
653.6257, 456.7099
654.1078, 454.9653
654.5900, 453.4159
655.0721, 451.8595
655.5542, 450.2361
656.0363, 448.6559
656.5184, 447.4372
657.0005, 446.1939
657.4827, 444.3777
657.9648, 441.5568
658.4469, 438.8647
658.9290, 436.3196
659.4111, 434.0409
659.8932, 432.5331
660.3754, 431.9336
660.8575, 430.8897
661.3396, 428.7269
661.8217, 425.8893
662.3038, 423.3499
662.7859, 421.1040
663.2681, 419.1361
663.7502, 417.6425
664.2323, 416.2892
664.7144, 414.7620
665.1965, 413.0430
665.6786, 411.1802
666.1608, 408.9138
666.6429, 406.7225
667.1250, 405.0426
667.6071, 404.4482
668.0892, 402.7814
668.5714, 399.2179
669.0535, 395.4740
669.5356, 393.2168
670.0177, 392.6712
670.4998, 392.0154
670.9819, 391.1038
671.4641, 389.9916
671.9462, 388.7311
672.4283, 387.3435
672.9104, 385.7841
673.3925, 383.8891
673.8746, 382.0638
674.3568, 380.8239
674.8389, 379.9677
675.3210, 379.0748
675.8031, 377.8702
676.2852, 376.7072
676.7673, 375.7198
677.2495, 374.8875
677.7316, 374.1004
678.2137, 373.4362
678.6958, 372.6904
679.1779, 371.8462
679.6600, 370.8817
680.1422, 369.5015
680.6243, 367.6090
681.1064, 365.7735
681.5885, 364.3471
682.0706, 363.2768
682.5527, 362.4448
683.0349, 361.8413
683.5170, 361.3729
683.9991, 361.3728
684.4812, 361.2574
684.9633, 360.2281
685.4454, 357.7850
685.9276, 355.5917
686.4097, 354.3073
686.8918, 353.5052
687.3739, 352.7158
687.8560, 351.7809
688.3381, 351.1307
688.8203, 351.0359
689.3024, 350.9918
689.7845, 349.7965
690.2666, 347.2701
690.7487, 345.9880
691.2308, 346.9936
691.7130, 349.0069
692.1951, 350.0047
692.6772, 350.1155
693.1593, 349.8495
693.6414, 349.0718
694.1235, 348.3280
694.6057, 348.3001
695.0878, 348.7527
695.5699, 348.6826
696.0520, 347.0762
696.5341, 345.5785
697.0162, 344.9908
697.4984, 345.3039
697.9805, 345.0990
698.4626, 344.2159
698.9447, 343.1561
699.4268, 342.1870
699.9089, 341.3026
700.3911, 340.2968
700.8732, 339.1299
701.3553, 338.3546
701.8374, 339.0620
702.3195, 340.3081
702.8016, 340.2311
703.2838, 338.3823
703.7659, 336.6911
704.2480, 336.5348
704.7301, 337.0046
705.2122, 337.2540
705.6943, 337.1557
706.1765, 336.7451
706.6586, 335.6474
707.1407, 334.5129
707.6228, 334.1609
708.1049, 334.7929
708.5870, 335.4687
709.0692, 336.2176
709.5513, 336.6469
710.0334, 335.5967
710.5155, 333.4141
710.9976, 332.0053
711.4797, 332.3802
711.9618, 333.3473
712.4439, 334.0575
712.9260, 334.3949
713.4081, 334.0995
713.8903, 332.0645
714.3724, 330.3960
714.8545, 329.9106
715.3366, 330.5372
715.8187, 331.5884
716.3008, 333.8354
716.7830, 335.1683
717.2651, 334.6625
717.7472, 332.5547
718.2293, 330.5518
718.7114, 328.6165
719.1935, 327.4290
719.6757, 327.9423
720.1578, 329.3224
720.6399, 330.0164
721.1220, 329.9903
721.6041, 329.7318
722.0862, 329.4171
722.5684, 329.0858
723.0505, 328.8325
723.5326, 328.7549
724.0147, 328.2876
724.4968, 326.8347
724.9789, 325.4142
725.4611, 324.6328
725.9432, 324.5735
726.4253, 324.9955
726.9074, 326.0954
727.3895, 327.1132
727.8716, 326.9619
728.3538, 325.9848
728.8359, 325.6309
729.3180, 326.2460
729.8001, 327.0174
730.2822, 327.3543
730.7643, 327.3453
731.2465, 327.0635
731.7286, 326.1215
732.2107, 325.5458
732.6928, 326.0512
733.1749, 326.9318
733.6570, 327.0778
734.1392, 326.0472
734.6213, 325.2463
735.1034, 324.8966
735.5855, 324.8195
736.0676, 324.6723
736.5497, 324.4596
737.0319, 324.2883
737.5140, 324.2113
737.9961, 324.1745
738.4782, 324.1587
738.9603, 324.1326
739.4424, 324.0116
739.9246, 323.4020
740.4067, 323.0529
740.8888, 323.6708
741.3709, 324.9473
741.8530, 325.3956
742.3351, 324.3273
742.8173, 323.3960
743.2994, 323.0420
743.7815, 323.1990
744.2636, 323.5718
744.7457, 324.1732
745.2278, 324.7982
745.7100, 325.5026
746.1921, 326.0773
746.6742, 325.9369
747.1563, 325.1803
747.6384, 324.5172
748.1205, 324.3923
748.6027, 324.4749
749.0848, 324.3784
749.5669, 324.0541
750.0490, 324.5502
750.5311, 327.0560
751.0132, 329.2129
751.4954, 329.8082
751.9775, 328.7001
752.4596, 328.0600
752.9417, 327.9205
753.4238, 328.0618
753.9059, 328.5506
754.3881, 329.1548
754.8702, 329.0450
755.3523, 328.1450
755.8344, 327.6651
756.3165, 329.0133
756.7986, 330.8741
757.2808, 332.1160
757.7629, 332.5291
758.2450, 332.5255
758.7271, 331.5867
759.2092, 330.7423
759.6913, 330.7189
760.1735, 331.6847
760.6556, 332.8468
761.1377, 334.2643
761.6198, 335.6150
762.1019, 336.5822
762.5840, 337.1913
763.0662, 337.3592
763.5483, 336.9447
764.0304, 336.7609
764.5125, 337.4679
764.9946, 338.7946
765.4767, 340.5078
765.9589, 343.2761
766.4410, 345.1629
766.9231, 345.1333
767.4052, 344.5171
767.8873, 344.6925
768.3694, 345.8520
768.8516, 347.1288
769.3337, 348.5443
769.8158, 349.7943
770.2979, 350.0970
770.7800, 349.7985
771.2621, 350.2118
771.7443, 351.8745
772.2264, 353.8645
772.7085, 355.6967
773.1906, 357.2651
773.6727, 358.4114
774.1548, 358.4525
774.6370, 358.8664
775.1191, 359.9852
775.6012, 361.5826
776.0833, 363.3737
776.5654, 365.4742
777.0475, 367.3976
777.5297, 369.1494
778.0118, 370.5430
778.4939, 371.0580
778.9760, 370.8823
779.4581, 370.7067
779.9402, 370.6952
780.4224, 370.8879
780.9045, 371.3048
781.3866, 371.9401
781.8687, 372.7872
782.3508, 374.5015
782.8329, 375.5890
783.3151, 375.5030
783.7972, 374.7286
784.2793, 374.3850
784.7614, 374.5884
785.2435, 374.6346
785.7256, 374.4075
786.2078, 373.8212
786.6899, 372.3929
787.1720, 370.3875
787.6541, 368.8378
788.1362, 368.6027
788.6183, 368.5662
789.1005, 367.9389
789.5826, 366.9426
790.0647, 366.1406
790.5468, 366.1450
791.0289, 365.7345
791.5110, 364.5530
791.9932, 362.8402
792.4753, 361.3317
792.9574, 360.0103
793.4395, 358.9268
793.9216, 358.1679
794.4037, 357.5491
794.8859, 356.5695
795.3680, 355.3990
795.8501, 354.6373
796.3322, 355.0898
796.8143, 355.5125
797.2964, 355.2607
797.7786, 354.4146
798.2607, 353.2691
798.7428, 351.4395
799.2249, 349.9671
799.7070, 349.1297
800.1891, 348.8104
800.6713, 348.7204
801.1534, 348.8688
801.6355, 348.8338
802.1176, 348.2823
802.5997, 347.6068
803.0818, 347.4926
803.5640, 347.7583
804.0461, 347.8473
804.5282, 347.2555
805.0103, 346.6912
805.4924, 346.3771
805.9745, 346.3379
806.4567, 346.5620
806.9388, 347.0238
807.4209, 347.8379
807.9030, 349.2647
808.3851, 350.9095
808.8672, 351.4300
809.3494, 350.9350
809.8315, 350.4271
810.3136, 350.2771
810.7957, 350.4364
811.2778, 351.1823
811.7599, 352.2212
812.2421, 352.7328
812.7242, 351.9590
813.2063, 351.1276
813.6884, 350.4584
814.1705, 350.0247
814.6526, 350.1620
815.1348, 351.0439
815.6169, 351.8358
816.0990, 352.3939
816.5811, 352.5944
817.0632, 351.8063
817.5453, 350.3149
818.0275, 349.2928
818.5096, 350.0532
818.9917, 350.7645
819.4738, 349.8784
819.9559, 347.9983
820.4380, 346.7549
820.9202, 347.1483
821.4023, 347.3187
821.8844, 346.9157
822.3665, 346.1138
822.8486, 345.3715
823.3307, 344.7004
823.8129, 343.8666
824.2950, 342.6678
824.7771, 341.4503
825.2592, 340.8978
825.7413, 340.7180
826.2234, 340.1868
826.7056, 338.2790
827.1877, 336.7568
827.6698, 336.8013
828.1519, 337.6197
828.6340, 337.3516
829.1161, 335.5152
829.5983, 333.6830
830.0804, 332.0705
830.5625, 330.7077
831.0446, 329.7722
831.5267, 329.1788
832.0089, 328.3981
832.4910, 327.1178
832.9731, 325.8751
833.4552, 325.3119
833.9373, 325.0749
834.4194, 324.5953
834.9016, 323.5290
835.3837, 322.4311
835.8658, 321.1961
836.3479, 320.0818
836.8300, 319.6958
837.3121, 320.1853
837.7943, 319.8454
838.2764, 318.1645
838.7585, 316.1971
839.2406, 315.5909
839.7227, 315.7325
840.2048, 315.3256
840.6870, 313.6932
841.1691, 312.1464
841.6512, 311.4919
842.1333, 311.1625
842.6154, 310.4915
843.0975, 309.5058
843.5797, 307.9932
844.0618, 305.6931
844.5439, 303.3317
845.0260, 301.8828
845.5081, 301.1886
845.9902, 300.4561
846.4724, 299.5215
846.9545, 298.8409
847.4366, 299.3060
847.9187, 299.9853
848.4008, 299.7594
848.8829, 297.9443
849.3651, 296.6014
849.8472, 296.4268
850.3293, 296.3584
850.8114, 295.5313
851.2935, 293.8367
851.7756, 292.4334
852.2578, 291.3345
852.7399, 290.7152
853.2220, 291.2581
853.7041, 292.1675
854.1862, 291.9338
854.6683, 290.3306
855.1505, 289.1607
855.6326, 289.8000
856.1147, 290.7067
856.5968, 290.7885
857.0789, 289.8920
857.5610, 289.5830
858.0432, 290.0771
858.5253, 290.4933
859.0074, 290.1371
859.4895, 289.2328
859.9716, 288.4993
860.4537, 287.9478
860.9359, 287.6817
861.4180, 287.9844
861.9001, 288.4109
862.3822, 288.6637
862.8643, 288.7344
863.3464, 288.8068
863.8286, 288.9046
864.3107, 289.0308
864.7928, 289.3447
865.2749, 289.6660
865.7570, 288.8622
866.2391, 287.0120
866.7213, 285.5427
867.2034, 285.1065
867.6855, 285.4781
868.1676, 287.0359
868.6497, 289.2371
869.1318, 290.4825
869.6140, 289.4034
870.0961, 288.2805
870.5782, 287.4468
871.0603, 287.0315
871.5424, 287.7238
872.0245, 289.7490
872.5067, 290.5360
872.9888, 289.0275
873.4709, 286.7060
873.9530, 285.6329
874.4351, 285.4965
874.9172, 285.6437
875.3994, 285.9921
875.8815, 286.3744
876.3636, 286.6970
876.8457, 287.0416
877.3278, 287.5834
877.8099, 288.5878
878.2921, 288.8936
878.7742, 288.2012
879.2563, 287.2866
879.7384, 287.2507
880.2205, 287.7816
880.7026, 287.9280
881.1848, 287.4360
881.6669, 287.0506
882.1490, 287.0131
882.6311, 287.4669
883.1132, 288.6906
883.5953, 291.2297
884.0775, 292.9390
884.5596, 293.7930
885.0417, 293.8494
885.5238, 292.6057
886.0059, 290.4283
886.4880, 289.8198
886.9702, 290.8262
887.4523, 292.1673
887.9344, 293.0753
888.4165, 293.7892
888.8986, 294.4164
889.3807, 294.9796
889.8629, 295.8088
890.3450, 297.4589
890.8271, 298.6069
891.3092, 298.4388
891.7913, 297.3738
892.2734, 297.8361
892.7556, 299.7560
893.2377, 301.7099
893.7198, 303.1491
894.2019, 304.0762
894.6840, 303.9926
895.1661, 303.4049
895.6483, 303.7174
896.1304, 306.6014
896.6125, 308.8527
897.0946, 309.4537
897.5767, 309.2686
898.0588, 310.2275
898.5410, 312.3932
899.0231, 314.1814
899.5052, 315.0965
899.9873, 315.8834
900.4694, 317.7765
900.9515, 320.1274
901.4337, 321.7899
901.9158, 321.8790
902.3979, 322.3904
902.8800, 324.2217
903.3621, 326.4508
903.8442, 328.2794
904.3264, 329.5676
904.8085, 331.2863
905.2906, 333.5618
905.7727, 335.9114
906.2548, 338.0328
906.7369, 339.8922
907.2191, 341.2156
907.7012, 341.9549
908.1833, 343.0463
908.6654, 345.3910
909.1475, 347.7464
909.6296, 349.2530
910.1118, 349.9283
910.5939, 351.6429
911.0760, 354.5538
911.5581, 357.6577
912.0402, 360.6919
912.5223, 363.4066
913.0045, 364.7683
913.4866, 365.2379
913.9687, 366.4431
914.4508, 369.9821
914.9329, 373.5481
915.4150, 376.0036
915.8972, 377.7910
916.3793, 380.0975
916.8614, 383.0899
917.3435, 385.7325
917.8256, 387.5715
918.3077, 389.4356
918.7899, 392.8398
919.2720, 397.3085
919.7541, 401.7765
920.2362, 406.0748
920.7183, 410.0069
921.2004, 413.5280
921.6826, 416.6299
922.1647, 419.2899
922.6468, 421.1353
923.1289, 423.8022
923.6110, 427.5135
924.0931, 431.3588
924.5753, 434.0164
925.0574, 436.2111
925.5395, 439.7438
926.0216, 444.7311
926.5037, 449.5313
926.9858, 453.2635
927.4680, 456.5824
927.9501, 459.6743
928.4322, 462.5848
928.9143, 465.9404
929.3964, 469.8736
929.8785, 473.7865
930.3607, 477.4140
930.8428, 481.2110
931.3249, 484.6160
931.8070, 488.4499
932.2891, 492.1149
932.7712, 495.5169
933.2534, 498.7097
933.7355, 501.6335
934.2176, 504.4172
934.6997, 507.2083
935.1818, 509.9097
935.6639, 513.1830
936.1461, 517.3443
936.6282, 521.6122
937.1103, 525.1605
937.5924, 528.0268
938.0745, 529.9752
938.5566, 530.7446
939.0388, 531.9291
939.5209, 534.3102
940.0030, 537.4304
940.4851, 541.1249
940.9672, 545.5473
941.4493, 548.8812
941.9315, 550.9235
942.4136, 552.6884
942.8957, 554.8410
943.3778, 557.2095
943.8599, 559.5615
944.3420, 561.8733
944.8242, 564.1349
945.3063, 565.5746
945.7884, 567.7632
946.2705, 572.1109
946.7526, 577.6024
947.2347, 581.3125
947.7169, 582.8909
948.1990, 585.1826
948.6811, 589.1960
949.1632, 593.6189
949.6453, 596.4693
950.1274, 598.3741
950.6096, 600.4216
951.0917, 602.8660
951.5738, 605.5910
952.0559, 608.2278
952.5380, 611.3914
953.0201, 615.8658
953.5023, 621.9838
953.9844, 626.4726
954.4665, 629.0674
954.9486, 631.7773
955.4307, 636.9103
955.9128, 642.7421
956.3950, 646.6204
956.8771, 648.6583
957.3591, 651.7504
957.8412, 658.1546
958.3234, 664.3071
958.8055, 669.0197
959.2876, 672.7446
959.7697, 677.1693
960.2518, 682.3030
960.7339, 687.4342
961.2161, 692.1028
961.6982, 697.1196
962.1803, 704.0626
962.6624, 711.7672
963.1445, 718.5114
963.6266, 722.8693
964.1088, 727.6485
964.5909, 732.9457
965.0730, 738.8128
965.5551, 745.4116
966.0372, 752.6298
966.5193, 759.7937
967.0015, 766.7957
967.4836, 773.7951
967.9657, 780.6962
968.4478, 787.7255
968.9299, 794.5021
969.4120, 801.0975
969.8942, 810.3105
970.3763, 824.5209
970.8584, 836.4486
971.3405, 842.5575
971.8226, 845.5090
972.3047, 852.9921
972.7869, 864.0580
973.2690, 874.9105
973.7511, 883.7277
974.2332, 892.2838
974.7153, 901.1834
975.1974, 910.6386
975.6796, 921.1832
976.1617, 933.1599
976.6438, 944.9438
977.1259, 956.1008
977.6080, 967.8145
978.0901, 981.8060
978.5723, 996.8402
979.0544, 1010.219
979.5365, 1021.671
980.0186, 1034.009
980.5007, 1048.823
980.9828, 1064.440
981.4650, 1080.235
981.9471, 1096.148
982.4292, 1112.303
982.9113, 1128.676
983.3934, 1145.535
983.8755, 1163.076
984.3577, 1181.057
984.8398, 1199.932
985.3219, 1219.159
985.8040, 1237.353
986.2861, 1252.049
986.7682, 1268.710
987.2504, 1288.483
987.7325, 1309.861
988.2146, 1331.238
988.6967, 1352.704
989.1788, 1374.508
989.6609, 1396.772
990.1431, 1418.826
990.6252, 1439.504
991.1073, 1460.555
991.5894, 1484.479
992.0715, 1510.984
992.5536, 1534.520
993.0358, 1552.735
993.5179, 1572.592
994.0000, 1596.906
994.4821, 1623.376
994.9642, 1645.853
995.4464, 1665.327
995.9285, 1686.185
996.4106, 1711.016
996.8927, 1734.974
997.3748, 1754.844
997.8569, 1772.713
998.3391, 1791.314
998.8212, 1811.049
999.3033, 1830.492
999.7854, 1849.466
1000.268, 1867.373
1000.750, 1882.760
1001.232, 1896.891
1001.714, 1911.723
1002.196, 1927.156
1002.678, 1942.514
1003.160, 1958.404
1003.642, 1972.672
1004.124, 1984.224
1004.607, 1993.924
1005.089, 2003.749
1005.571, 2013.745
1006.053, 2023.548
1006.535, 2033.677
1007.017, 2041.992
1007.499, 2046.069
1007.981, 2047.569
1008.464, 2048.518
1008.946, 2049.519
1009.428, 2049.002
1009.910, 2046.997
1010.392, 2043.317
1010.874, 2037.150
1011.356, 2029.266
1011.838, 2023.298
1012.320, 2018.787
1012.803, 2012.770
1013.285, 2003.147
1013.767, 1992.229
1014.249, 1979.663
1014.731, 1967.068
1015.213, 1958.605
1015.695, 1955.119
1016.177, 1950.291
1016.659, 1942.528
1017.142, 1935.390
1017.624, 1934.327
1018.106, 1936.162
1018.588, 1935.915
1019.070, 1932.068
1019.552, 1930.921
1020.034, 1934.627
1020.516, 1940.144
1020.999, 1946.452
1021.481, 1953.441
1021.963, 1960.574
1022.445, 1967.803
1022.927, 1974.648
1023.409, 1980.136
1023.891, 1986.003
1024.373, 1994.777
1024.855, 2004.261
1025.338, 2010.402
1025.820, 2011.642
1026.302, 2013.527
1026.784, 2016.427
1027.266, 2019.874
1027.748, 2024.741
1028.230, 2029.299
1028.712, 2029.842
1029.195, 2026.271
1029.677, 2022.358
1030.159, 2020.702
1030.641, 2017.722
1031.123, 2012.303
1031.605, 2004.615
1032.087, 1994.841
1032.569, 1983.133
1033.052, 1970.855
1033.534, 1958.586
1034.016, 1945.757
1034.498, 1931.475
1034.980, 1916.350
1035.462, 1901.318
1035.944, 1886.597
1036.426, 1871.243
1036.908, 1855.308
1037.391, 1838.755
1037.873, 1822.482
1038.355, 1805.459
1038.837, 1784.637
1039.319, 1760.672
1039.801, 1737.293
1040.283, 1716.512
1040.765, 1696.347
1041.247, 1676.158
1041.730, 1656.008
1042.212, 1635.601
1042.694, 1615.002
1043.176, 1594.236
1043.658, 1573.020
1044.140, 1551.852
1044.622, 1529.947
1045.104, 1508.464
1045.587, 1488.807
1046.069, 1471.096
1046.551, 1452.772
1047.033, 1433.373
1047.515, 1414.392
1047.997, 1396.825
1048.479, 1379.566
1048.961, 1359.197
1049.443, 1337.292
1049.926, 1317.678
1050.408, 1303.696
1050.890, 1288.934
1051.372, 1270.068
1051.854, 1250.394
1052.336, 1232.935
1052.818, 1217.824
1053.300, 1198.860
1053.782, 1175.967
1054.265, 1152.956
1054.747, 1132.139
1055.229, 1112.738
1055.711, 1094.902
1056.193, 1077.823
1056.675, 1058.448
1057.157, 1035.331
1057.639, 1013.364
1058.122, 993.4270
1058.604, 974.5587
1059.086, 955.8741
1059.568, 937.2039
1060.050, 917.4183
1060.532, 896.1475
1061.014, 876.2249
1061.496, 859.8719
1061.979, 844.2726
1062.461, 828.2504
1062.943, 812.0961
1063.425, 796.2027
1063.907, 780.6282
1064.389, 766.5839
1064.871, 754.7772
1065.353, 743.9639
1065.835, 733.8108
1066.318, 723.8572
1066.800, 713.0271
1067.282, 700.5438
1067.764, 689.5544
1068.246, 680.1610
1068.728, 672.1765
1069.210, 666.0961
1069.692, 660.9979
1070.174, 655.1788
1070.657, 648.9527
1071.139, 643.5836
1071.621, 640.1835
1072.103, 636.7443
1072.585, 632.8039
1073.067, 628.7946
1073.549, 625.1088
1074.031, 621.8834
1074.514, 619.5765
1074.996, 618.3132
1075.478, 617.2012
1075.960, 614.9094
1076.442, 613.3456
1076.924, 614.3343
1077.406, 617.2836
1077.888, 618.6184
1078.370, 618.2829
1078.853, 617.5426
1079.335, 616.5783
1079.817, 615.9475
1080.299, 616.3969
1080.781, 617.5025
1081.263, 618.6277
1081.745, 619.3580
1082.227, 621.1683
1082.709, 624.4362
1083.192, 627.8093
1083.674, 630.2352
1084.156, 632.2217
1084.638, 635.0703
1085.120, 638.6292
1085.602, 642.4440
1086.084, 646.7767
1086.566, 650.8307
1087.048, 654.7854
1087.531, 658.0611
1088.013, 659.1031
1088.495, 658.3226
1088.977, 661.1084
1089.459, 667.8275
1089.941, 674.0436
1090.423, 675.5565
1090.905, 676.4756
1091.388, 679.5112
1091.870, 684.3365
1092.352, 689.4241
1092.834, 695.0773
1093.316, 698.7225
1093.798, 699.2614
1094.280, 699.4592
1094.762, 702.7601
1095.245, 707.5452
1095.727, 712.0336
1096.209, 715.9740
1096.691, 718.9314
1097.173, 720.5636
1097.655, 721.9838
1098.137, 723.6252
1098.619, 725.4387
1099.101, 727.6789
1099.583, 729.9620
1100.066, 731.3624
1100.548, 731.0460
1101.030, 730.7333
1101.512, 730.9576
1101.994, 731.2639
1102.476, 731.7961
1102.958, 732.3912
1103.440, 729.6163
1103.923, 723.8530
1104.405, 719.2335
1104.887, 720.3917
1105.369, 721.0544
1105.851, 717.1627
1106.333, 710.4442
1106.815, 704.3992
1107.297, 699.1426
1107.780, 693.6199
1108.262, 687.6239
1108.744, 681.8500
1109.226, 677.0195
1109.708, 672.5856
1110.190, 668.0989
1110.672, 663.4885
1111.154, 658.3027
1111.636, 652.2480
1112.119, 646.5176
1112.601, 641.4809
1113.083, 636.5615
1113.565, 630.4167
1114.047, 623.8190
1114.529, 618.2162
1115.011, 613.8552
1115.493, 610.0623
1115.975, 607.5143
1116.458, 604.2359
1116.940, 599.1215
1117.422, 592.7907
1117.904, 586.8514
1118.386, 581.4211
1118.868, 576.6579
1119.350, 572.9941
1119.832, 569.3660
1120.315, 565.0850
1120.797, 560.8728
1121.279, 557.3710
1121.761, 554.5648
1122.243, 551.3517
1122.725, 547.7505
1123.207, 544.1073
1123.689, 540.9247
1124.172, 537.4551
1124.654, 532.6263
1125.136, 527.3936
1125.618, 523.5686
1126.100, 521.4936
1126.582, 518.8582
1127.064, 515.4347
1127.546, 512.2891
1128.028, 511.1091
1128.510, 510.0931
1128.993, 507.1094
1129.475, 502.5064
1129.957, 498.2813
1130.439, 494.4702
1130.921, 491.4517
1131.403, 489.4931
1131.885, 487.7346
1132.367, 484.9173
1132.850, 481.6402
1133.332, 478.7010
1133.814, 476.2015
1134.296, 473.9859
1134.778, 472.3076
1135.260, 470.4206
1135.742, 467.9771
1136.224, 465.3490
1136.707, 463.4108
1137.189, 461.8814
1137.671, 459.8981
1138.153, 457.0340
1138.635, 454.6174
1139.117, 453.7541
1139.599, 452.8574
1140.081, 451.0435
1140.563, 448.6012
1141.046, 446.8853
1141.528, 445.7448
1142.010, 444.2711
1142.492, 441.6671
1142.974, 439.4603
1143.456, 439.1101
1143.938, 439.0169
1144.420, 437.5182
1144.902, 434.4978
1145.385, 433.2315
1145.867, 433.6254
1146.349, 433.6273
1146.831, 431.4269
1147.313, 428.9525
1147.795, 427.5449
1148.277, 426.7899
1148.759, 426.0244
1149.242, 425.3653
1149.724, 423.8597
1150.206, 421.3896
1150.688, 419.0629
1151.170, 418.6414
1151.652, 418.1452
1152.134, 415.1154
1152.616, 410.3617
1153.099, 407.3021
1153.581, 406.7042
1154.063, 405.7242
1154.545, 403.9894
1155.027, 401.8295
1155.509, 399.6853
1155.991, 397.0116
1156.473, 394.4445
1156.955, 391.0055
1157.438, 387.5726
1157.920, 383.9718
1158.402, 381.0267
1158.884, 379.2319
1159.366, 377.5272
1159.848, 374.0457
1160.330, 369.6750
1160.812, 365.8737
1161.294, 362.8951
1161.777, 360.2836
1162.259, 358.1708
1162.741, 355.9721
1163.223, 353.4272
1163.705, 350.6975
1164.187, 348.0966
1164.669, 345.6115
1165.151, 343.1567
1165.634, 340.6847
1166.116, 338.3093
1166.598, 336.1849
1167.080, 333.9537
1167.562, 331.4412
1168.044, 328.6610
1168.526, 325.2184
1169.008, 321.5092
1169.490, 319.0323
1169.973, 319.6008
1170.455, 318.9257
1170.937, 313.8597
1171.419, 308.7525
1171.901, 306.9247
1172.383, 307.8393
1172.865, 306.9542
1173.347, 304.5410
1173.829, 302.0508
1174.312, 300.1255
1174.794, 298.3900
1175.276, 296.8867
1175.758, 295.3315
1176.240, 293.2646
1176.722, 290.7245
1177.204, 289.0306
1177.686, 288.1464
1178.169, 287.2187
1178.651, 285.8755
1179.133, 284.1979
1179.615, 281.7568
1180.097, 279.2467
1180.579, 277.7873
1181.061, 277.4143
1181.543, 276.4781
1182.026, 274.8542
1182.508, 273.1987
1182.990, 272.0836
1183.472, 270.9954
1183.954, 269.4822
1184.436, 267.8035
1184.918, 266.5437
1185.400, 265.7371
1185.882, 264.8068
1186.365, 263.6759
1186.847, 262.4696
1187.329, 261.2346
1187.811, 259.9969
1188.293, 258.6710
1188.775, 257.3696
1189.257, 256.6317
1189.739, 256.5276
1190.221, 255.9986
1190.704, 254.7696
1191.186, 253.4451
1191.668, 252.5940
1192.150, 251.9167
1192.632, 251.2895
1193.114, 250.6330
1193.596, 249.2092
1194.078, 246.8257
1194.561, 245.6843
1195.043, 246.6939
1195.525, 248.0363
1196.007, 247.7780
1196.489, 246.9753
1196.971, 246.7331
1197.453, 247.1218
1197.935, 247.2996
1198.417, 247.3065
1198.900, 246.6854
1199.382, 245.0265
1199.864, 243.3220
1200.346, 242.7878
1200.828, 242.6848
1201.310, 242.1345
1201.792, 241.0108
1202.274, 239.9287
1202.756, 238.8460
1203.239, 238.2213
1203.721, 238.4086
1204.203, 238.8902
1204.685, 239.3365
1205.167, 239.6096
1205.649, 239.4223
1206.131, 238.6059
1206.613, 238.2177
1207.096, 238.2906
1207.578, 238.4599
1208.060, 238.7091
1208.542, 238.7277
1209.024, 237.7800
1209.506, 236.5281
1209.988, 236.1465
1210.470, 237.0291
1210.953, 237.4141
1211.435, 237.2928
1211.917, 236.7926
1212.399, 235.5039
1212.881, 234.3425
1213.363, 234.5855
1213.845, 235.5259
1214.327, 235.7971
1214.809, 234.9604
1215.292, 234.7585
1215.774, 235.2731
1216.256, 235.7949
1216.738, 235.8151
1217.220, 235.5739
1217.702, 235.2913
1218.184, 234.9148
1218.666, 234.2282
1219.148, 232.9009
1219.631, 232.8320
1220.113, 234.2615
1220.595, 235.3879
1221.077, 234.4057
1221.559, 232.8442
1222.041, 231.6927
1222.523, 231.1336
1223.005, 231.5592
1223.488, 233.3321
1223.970, 234.2784
1224.452, 234.2316
1224.934, 233.6281
1225.416, 232.1798
1225.898, 230.9117
1226.380, 231.0616
1226.862, 232.0423
1227.344, 232.0543
1227.827, 230.8600
1228.309, 230.2548
1228.791, 230.4292
1229.273, 230.6735
1229.755, 230.3249
1230.237, 229.8762
1230.719, 229.7384
1231.201, 229.8108
1231.683, 229.7471
1232.166, 229.5276
1232.648, 229.3869
1233.130, 229.3473
1233.612, 229.4382
1234.094, 229.9034
1234.576, 230.2993
1235.058, 230.1680
1235.540, 229.7429
1236.023, 229.5664
1236.505, 229.6401
1236.987, 230.0891
1237.469, 230.9774
1237.951, 231.3578
1238.433, 229.8968
1238.915, 228.2855
1239.397, 227.5297
1239.880, 227.4888
1240.362, 228.1953
1240.844, 229.5501
1241.326, 229.9226
1241.808, 229.0010
1242.290, 228.0970
1242.772, 228.3476
1243.254, 228.5924
1243.736, 227.9581
1244.219, 227.0186
1244.701, 227.3401
1245.183, 228.6932
1245.665, 229.6837
1246.147, 230.0685
1246.629, 229.8791
1247.111, 228.5835
1247.593, 227.3179
1248.075, 226.4388
1248.558, 226.0130
1249.040, 226.4870
1249.522, 227.5692
1250.004, 228.0065
1250.486, 227.5667
1250.968, 227.0241
1251.450, 226.7219
1251.932, 226.3774
1252.415, 225.7632
1252.897, 225.2110
1253.379, 225.5644
1253.861, 226.5409
1254.343, 227.5929
1254.825, 228.6751
1255.307, 228.9160
1255.789, 227.3095
1256.271, 225.8803
1256.754, 225.2456
1257.236, 225.0435
1257.718, 224.4913
1258.200, 223.9202
1258.682, 224.1668
1259.164, 225.4574
1259.646, 226.0098
1260.128, 225.0187
1260.610, 224.6719
1261.093, 225.8800
1261.575, 227.4503
1262.057, 227.6488
1262.539, 226.9844
1263.021, 225.9553
1263.503, 224.5929
1263.985, 224.1925
1264.467, 225.1288
1264.950, 225.8254
1265.432, 225.7718
1265.914, 225.4462
1266.396, 225.5153
1266.878, 225.6203
1267.360, 225.3209
1267.842, 224.5572
1268.324, 223.6979
1268.807, 222.6929
1269.289, 222.0248
1269.771, 221.8711
1270.253, 221.9420
1270.735, 222.1410
1271.217, 222.2792
1271.699, 222.0569
1272.181, 221.5733
1272.663, 221.4173
1273.146, 221.5893
1273.628, 222.1057
1274.110, 223.0622
1274.592, 223.9472
1275.074, 224.6927
1275.556, 224.8975
1276.038, 224.1342
1276.520, 222.7372
1277.002, 221.8381
1277.485, 221.4241
1277.967, 221.4170
1278.449, 221.8466
1278.931, 222.4036
1279.413, 223.4395
1279.895, 223.9010
1280.377, 223.1250
1280.859, 221.6614
1281.342, 220.8963
1281.824, 220.6276
1282.306, 220.1663
1282.788, 219.2957
1283.270, 218.9092
1283.752, 219.6896
1284.234, 220.2664
1284.716, 220.0021
1285.198, 219.6140
1285.681, 221.0326
1286.163, 223.0388
1286.645, 223.2104
1287.127, 220.9824
1287.609, 219.4593
1288.091, 219.0909
1288.573, 218.9684
1289.055, 218.8712
1289.537, 218.7654
1290.020, 218.4699
1290.502, 218.2299
1290.984, 218.5484
1291.466, 219.4332
1291.948, 219.1765
1292.430, 217.4878
1292.912, 217.0186
1293.394, 218.7621
1293.877, 220.4642
1294.359, 219.3755
1294.841, 217.8087
1295.323, 218.0900
1295.805, 219.6657
1296.287, 220.3580
1296.769, 220.2008
1297.251, 219.5612
1297.734, 218.4522
1298.216, 217.4534
1298.698, 216.8636
1299.180, 216.5963
1299.662, 216.5338
1300.144, 216.7538
1300.626, 217.6971
1301.108, 219.0825
1301.590, 219.8748
1302.073, 219.8855
1302.555, 219.8656
1303.037, 220.4021
1303.519, 220.5031
1304.001, 219.7520
1304.483, 218.6858
1304.965, 218.0003
##END=



