##NAMES=Chalcophanite
##RRUFFID=R060271
##IDEAL CHEMISTRY=Zn^2+^Mn^4+^_3_O_7_&#183;3H_2_O
##LOCALITY=&#34;Glory Hole&#34;, Gold Hill mine, Tooele County, Utah, USA
##OWNER=RRUFF
##SOURCE=Michael Scott
##DESCRIPTION=Black hexagonal plates
##STATUS=The identification of this mineral has been confirmed by X-ray diffraction and chemical analysis
##URL=rruff.info/R060271
##MEASURED CHEMISTRY=(Zn_0.97_Mn^2+^_0.03_)_Σ=1_Mn^4+^_3.00_O_7_·3(H_2_O)
92.06543, 33.57233
92.54755, 34.35265
93.02966, 34.70429
93.51178, 33.63617
93.99390, 32.47871
94.47601, 31.49119
94.95813, 30.73889
95.44025, 30.27816
95.92236, 30.25484
96.40448, 30.73966
96.88660, 30.25860
97.36871, 27.65669
97.85082, 25.15864
98.33294, 24.58484
98.81506, 26.13947
99.29717, 28.02837
99.77929, 28.05202
100.2614, 26.41868
100.7435, 25.52543
101.2256, 26.47231
101.7078, 28.54174
102.1899, 30.14170
102.6720, 30.93595
103.1541, 31.16476
103.6362, 30.91465
104.1183, 30.19904
104.6005, 29.80001
105.0826, 30.74997
105.5647, 33.33843
106.0468, 35.00004
106.5289, 34.75179
107.0110, 33.69462
107.4931, 32.16138
107.9753, 30.26602
108.4574, 28.37584
108.9395, 27.24981
109.4216, 27.44612
109.9037, 27.59533
110.3858, 27.18514
110.8680, 26.76978
111.3501, 27.15946
111.8322, 28.85660
112.3143, 31.46473
112.7964, 32.39874
113.2785, 29.60353
113.7607, 27.46313
114.2428, 27.46911
114.7249, 29.11289
115.2070, 30.95662
115.6891, 32.01500
116.1712, 32.24513
116.6534, 32.25005
117.1355, 31.70296
117.6176, 31.16530
118.0997, 31.18969
118.5818, 31.85165
119.0639, 32.50904
119.5461, 32.27995
120.0282, 31.49271
120.5103, 31.20091
120.9924, 32.00191
121.4745, 33.50417
121.9566, 34.89273
122.4388, 36.31834
122.9209, 37.20691
123.4030, 37.06016
123.8851, 36.09657
124.3672, 35.07134
124.8493, 34.58389
125.3315, 34.66995
125.8136, 34.74199
126.2957, 34.77022
126.7778, 34.77245
127.2599, 34.67355
127.7420, 34.50586
128.2242, 34.43098
128.7063, 34.73514
129.1884, 35.82718
129.6705, 36.43470
130.1526, 36.39298
130.6347, 36.05890
131.1169, 35.88016
131.5990, 35.96173
132.0811, 35.83704
132.5632, 34.44933
133.0453, 29.22223
133.5274, 25.86715
134.0096, 25.99567
134.4917, 27.91674
134.9738, 29.25017
135.4559, 28.86084
135.9380, 27.24681
136.4201, 26.09110
136.9023, 25.26879
137.3844, 24.91279
137.8665, 25.64470
138.3486, 27.13702
138.8307, 27.77403
139.3128, 26.08400
139.7950, 23.13992
140.2771, 21.54474
140.7592, 22.17101
141.2413, 23.42846
141.7234, 23.54865
142.2055, 22.25830
142.6877, 21.24342
143.1698, 22.05614
143.6519, 23.52441
144.1340, 24.26457
144.6161, 23.48767
145.0982, 21.79133
145.5803, 20.73995
146.0625, 20.61691
146.5446, 20.75776
147.0267, 20.99377
147.5088, 21.27677
147.9909, 21.54720
148.4730, 21.77657
148.9552, 21.96266
149.4373, 22.05582
149.9194, 21.87456
150.4015, 21.76440
150.8836, 21.99317
151.3657, 22.39358
151.8479, 22.52805
152.3300, 21.90713
152.8121, 20.23903
153.2942, 19.67502
153.7763, 21.13244
154.2584, 22.64448
154.7406, 23.20091
155.2227, 22.75507
155.7048, 21.89727
156.1869, 21.20898
156.6690, 20.67986
157.1511, 20.55971
157.6333, 21.29906
158.1154, 22.18795
158.5975, 22.49378
159.0796, 22.04755
159.5617, 21.42480
160.0438, 21.45648
160.5260, 22.17549
161.0081, 22.73921
161.4902, 22.94464
161.9723, 22.87432
162.4544, 22.65364
162.9365, 22.27732
163.4187, 21.81919
163.9008, 21.35550
164.3829, 20.88821
164.8650, 20.43338
165.3471, 19.88534
165.8292, 19.29902
166.3113, 19.06865
166.7935, 19.45759
167.2756, 20.09242
167.7577, 20.77325
168.2398, 21.47599
168.7219, 22.02722
169.2040, 22.27793
169.6862, 22.22549
170.1683, 21.88692
170.6504, 20.66121
171.1325, 19.55218
171.6146, 19.14152
172.0967, 19.53569
172.5789, 20.40377
173.0610, 21.40198
173.5431, 22.90434
174.0252, 23.61329
174.5073, 22.81248
174.9894, 21.73158
175.4716, 21.38104
175.9537, 22.04921
176.4358, 23.15589
176.9179, 23.51696
177.4000, 22.50492
177.8821, 21.52838
178.3643, 20.39007
178.8464, 19.40178
179.3285, 18.99937
179.8106, 19.35818
180.2927, 20.13429
180.7748, 20.38258
181.2570, 19.51642
181.7391, 18.85310
182.2212, 18.44840
182.7033, 18.34476
183.1854, 18.69043
183.6675, 19.61304
184.1497, 20.89264
184.6318, 21.86057
185.1139, 22.79891
185.5960, 23.14877
186.0781, 22.23284
186.5602, 20.48675
187.0423, 19.18370
187.5245, 19.01829
188.0066, 19.61581
188.4887, 19.98039
188.9708, 20.02525
189.4529, 19.99675
189.9350, 20.10773
190.4172, 20.33145
190.8993, 20.36444
191.3814, 19.92083
191.8635, 19.28215
192.3456, 18.85903
192.8277, 18.74514
193.3099, 18.74712
193.7920, 18.62393
194.2741, 18.33399
194.7562, 18.23258
195.2383, 18.77299
195.7204, 19.44346
196.2026, 19.79227
196.6847, 19.66286
197.1668, 19.30145
197.6489, 19.02410
198.1310, 18.77217
198.6131, 18.79289
199.0953, 19.51353
199.5774, 20.34853
200.0595, 20.74155
200.5416, 20.46381
201.0237, 19.77946
201.5058, 19.21560
201.9880, 18.59434
202.4701, 18.47168
202.9522, 19.22061
203.4343, 20.30996
203.9164, 21.25586
204.3985, 21.84182
204.8807, 22.11403
205.3628, 22.19492
205.8449, 21.93974
206.3270, 21.65947
206.8091, 21.26766
207.2912, 20.91149
207.7733, 20.80254
208.2555, 21.05494
208.7376, 21.53239
209.2197, 21.72659
209.7018, 21.06818
210.1839, 20.76352
210.6660, 21.29868
211.1482, 22.18478
211.6303, 22.62227
212.1124, 22.14932
212.5945, 21.13907
213.0766, 21.16214
213.5587, 23.64790
214.0409, 25.40719
214.5230, 25.45718
215.0051, 24.38410
215.4872, 23.14853
215.9693, 22.15963
216.4514, 21.46123
216.9336, 21.28518
217.4157, 22.04722
217.8978, 22.66621
218.3799, 22.74487
218.8620, 22.40923
219.3441, 21.88960
219.8263, 21.14652
220.3084, 20.46894
220.7905, 20.69981
221.2726, 22.67680
221.7547, 24.05764
222.2368, 23.14456
222.7190, 20.47903
223.2011, 18.27687
223.6832, 17.55803
224.1653, 17.83219
224.6474, 17.91891
225.1295, 17.59615
225.6117, 17.60227
226.0938, 18.85811
226.5759, 21.16087
227.0580, 22.71286
227.5401, 22.43929
228.0222, 21.35136
228.5043, 20.76859
228.9865, 20.82685
229.4686, 21.10266
229.9507, 21.30636
230.4328, 21.43789
230.9149, 21.49964
231.3970, 21.50862
231.8792, 21.42308
232.3613, 21.14098
232.8434, 20.63175
233.3255, 20.18194
233.8076, 20.15910
234.2897, 20.61394
234.7719, 20.89581
235.2540, 20.50395
235.7361, 20.13627
236.2182, 20.27592
236.7003, 20.98244
237.1824, 21.90042
237.6646, 22.91166
238.1467, 24.22404
238.6288, 24.45523
239.1109, 21.78387
239.5930, 19.11044
240.0751, 18.03839
240.5573, 18.71455
241.0394, 20.13397
241.5215, 21.22059
242.0036, 21.92830
242.4857, 22.49722
242.9678, 23.16244
243.4500, 23.52210
243.9321, 23.13303
244.4142, 22.08360
244.8963, 20.99220
245.3784, 20.63488
245.8605, 21.29864
246.3427, 21.64730
246.8248, 21.77942
247.3069, 21.54775
247.7890, 20.58235
248.2711, 19.04666
248.7532, 17.59450
249.2354, 16.89514
249.7175, 17.04668
250.1996, 17.60376
250.6817, 19.23623
251.1638, 20.63660
251.6459, 20.99925
252.1281, 20.45981
252.6102, 19.78434
253.0923, 19.73278
253.5744, 20.43623
254.0565, 20.96304
254.5386, 21.50550
255.0208, 21.74161
255.5029, 21.23414
255.9850, 20.20590
256.4671, 19.39332
256.9492, 19.49450
257.4313, 20.63564
257.9135, 21.20081
258.3956, 20.78671
258.8777, 20.32602
259.3598, 20.14576
259.8419, 20.25326
260.3240, 20.58342
260.8062, 21.14191
261.2883, 21.92411
261.7704, 22.23857
262.2525, 21.84299
262.7346, 21.34795
263.2167, 21.01857
263.6989, 20.79435
264.1810, 20.45873
264.6631, 19.84411
265.1452, 19.00088
265.6273, 18.38111
266.1094, 17.72833
266.5916, 17.50530
267.0737, 18.02774
267.5558, 19.11628
268.0379, 20.46343
268.5200, 22.02886
269.0021, 23.59095
269.4843, 24.17852
269.9664, 22.87610
270.4485, 21.92802
270.9306, 22.39778
271.4127, 23.72644
271.8948, 24.73238
272.3770, 24.88114
272.8591, 24.42948
273.3412, 23.95493
273.8233, 23.22126
274.3054, 22.90479
274.7875, 23.51347
275.2697, 24.64840
275.7518, 25.61508
276.2339, 26.21222
276.7160, 26.43971
277.1981, 26.00624
277.6802, 24.59777
278.1623, 23.97356
278.6444, 25.40924
279.1266, 27.78302
279.6087, 29.10758
280.0908, 28.76170
280.5729, 27.71725
281.0550, 27.14561
281.5371, 26.99202
282.0193, 27.24072
282.5014, 28.42895
282.9835, 29.83966
283.4656, 30.25381
283.9477, 29.32910
284.4298, 28.19465
284.9120, 28.14573
285.3941, 29.02769
285.8762, 29.81481
286.3583, 30.17905
286.8404, 30.39464
287.3225, 30.87881
287.8047, 31.71082
288.2868, 32.41037
288.7689, 32.48986
289.2510, 32.09739
289.7331, 31.76317
290.2152, 31.53736
290.6974, 31.42701
291.1795, 31.35892
291.6616, 31.32325
292.1437, 31.64854
292.6258, 32.78833
293.1079, 34.40461
293.5901, 35.70998
294.0722, 36.73310
294.5543, 37.30774
295.0364, 37.09347
295.5185, 36.13322
296.0006, 35.24441
296.4828, 34.95714
296.9649, 34.86375
297.4470, 34.18533
297.9291, 32.60540
298.4112, 31.12818
298.8933, 30.43829
299.3755, 30.47067
299.8576, 30.89828
300.3397, 31.95532
300.8218, 32.98713
301.3039, 33.15920
301.7860, 32.41167
302.2682, 31.32261
302.7503, 29.76111
303.2324, 28.03081
303.7145, 27.29553
304.1966, 28.18179
304.6787, 29.50091
305.1609, 30.19397
305.6430, 30.30407
306.1251, 29.76409
306.6072, 27.88232
307.0893, 25.41148
307.5714, 24.09878
308.0536, 24.39571
308.5357, 25.12902
309.0178, 25.42567
309.4999, 25.38593
309.9820, 25.20872
310.4641, 24.91310
310.9463, 24.53488
311.4284, 24.03103
311.9105, 23.33468
312.3926, 22.89929
312.8747, 23.28728
313.3568, 24.10187
313.8390, 24.64991
314.3211, 24.79134
314.8032, 24.62595
315.2853, 24.08384
315.7674, 23.15445
316.2495, 22.51134
316.7317, 22.74978
317.2138, 23.29535
317.6959, 23.16802
318.1780, 21.98705
318.6601, 20.94969
319.1422, 21.23403
319.6243, 22.61953
320.1064, 23.53676
320.5886, 23.34211
321.0707, 22.63728
321.5528, 22.20468
322.0349, 22.05834
322.5170, 21.92715
322.9991, 21.53677
323.4813, 21.04340
323.9634, 20.94714
324.4455, 21.46695
324.9276, 22.12147
325.4097, 22.44694
325.8918, 22.49555
326.3740, 22.43921
326.8561, 22.21264
327.3382, 21.95987
327.8203, 21.91740
328.3024, 22.11996
328.7845, 22.45092
329.2667, 23.03275
329.7488, 23.67789
330.2309, 23.88401
330.7130, 23.20921
331.1951, 22.30154
331.6772, 21.78080
332.1594, 21.64293
332.6415, 21.64318
333.1236, 21.65292
333.6057, 21.73505
334.0878, 22.01220
334.5699, 22.60682
335.0521, 23.17576
335.5342, 23.61782
336.0163, 23.88376
336.4984, 23.68187
336.9805, 22.67779
337.4626, 21.48853
337.9448, 21.14036
338.4269, 21.71655
338.9090, 22.28995
339.3911, 22.39194
339.8732, 22.26007
340.3553, 22.40255
340.8375, 22.98146
341.3196, 23.58614
341.8017, 23.72244
342.2838, 23.43611
342.7659, 23.10312
343.2480, 22.48968
343.7302, 22.03449
344.2123, 22.38452
344.6944, 23.57217
345.1765, 24.78302
345.6586, 25.49821
346.1407, 25.69239
346.6229, 25.60759
347.1050, 24.88750
347.5871, 24.20754
348.0692, 24.11128
348.5513, 24.44380
349.0334, 24.57541
349.5156, 24.14129
349.9977, 23.37072
350.4798, 22.88577
350.9619, 22.70783
351.4440, 22.69453
351.9261, 22.99994
352.4083, 23.39962
352.8904, 23.40791
353.3725, 22.82784
353.8546, 22.19809
354.3367, 22.39515
354.8188, 23.69721
355.3010, 24.62681
355.7831, 24.74017
356.2652, 24.62089
356.7473, 24.77575
357.2294, 25.26448
357.7115, 25.89744
358.1937, 26.55624
358.6758, 27.24006
359.1579, 27.67975
359.6400, 27.65994
360.1221, 27.63191
360.6042, 28.00503
361.0863, 28.56851
361.5685, 28.65009
362.0506, 27.77825
362.5327, 26.30947
363.0148, 25.73606
363.4969, 26.70422
363.9790, 27.68901
364.4612, 28.75329
364.9433, 29.62014
365.4254, 29.86968
365.9075, 29.37747
366.3896, 28.45348
366.8717, 27.53201
367.3539, 26.29986
367.8360, 25.88927
368.3181, 26.68671
368.8002, 27.94038
369.2823, 29.32800
369.7644, 30.71750
370.2466, 31.98592
370.7287, 33.05522
371.2108, 33.93949
371.6929, 34.29736
372.1750, 33.59659
372.6571, 32.97874
373.1393, 32.95190
373.6214, 33.21354
374.1035, 33.12106
374.5856, 32.28626
375.0677, 31.07027
375.5498, 30.66055
376.0320, 31.59362
376.5141, 32.60607
376.9962, 34.04205
377.4783, 35.24137
377.9604, 35.47425
378.4425, 34.62863
378.9247, 33.36083
379.4068, 32.57873
379.8889, 32.47454
380.3710, 32.18494
380.8531, 31.29009
381.3352, 30.58660
381.8174, 30.68273
382.2995, 31.32277
382.7816, 31.71981
383.2637, 31.22225
383.7458, 29.96900
384.2279, 28.87336
384.7101, 27.71443
385.1922, 27.10751
385.6743, 27.85271
386.1564, 28.94057
386.6385, 29.01639
387.1206, 27.44314
387.6028, 25.25175
388.0849, 24.03861
388.5670, 23.93775
389.0491, 24.20324
389.5312, 25.18650
390.0133, 26.12448
390.4955, 26.64964
390.9776, 26.69399
391.4597, 26.11380
391.9418, 24.28557
392.4239, 21.53348
392.9060, 19.84885
393.3882, 19.60046
393.8703, 20.06307
394.3524, 21.17794
394.8345, 22.59247
395.3166, 23.49886
395.7987, 23.24557
396.2809, 22.61355
396.7630, 22.80562
397.2451, 23.89141
397.7272, 24.73913
398.2093, 24.74208
398.6914, 24.25733
399.1736, 23.84365
399.6557, 23.47818
400.1378, 23.31011
400.6199, 23.47071
401.1020, 23.89652
401.5841, 24.58799
402.0662, 25.74250
402.5483, 26.55281
403.0305, 25.60501
403.5126, 23.03187
403.9947, 21.26082
404.4768, 20.96766
404.9589, 21.49480
405.4410, 22.69283
405.9232, 24.38208
406.4053, 25.36193
406.8874, 24.61408
407.3695, 22.56579
407.8516, 21.46518
408.3337, 22.00607
408.8159, 22.54886
409.2980, 22.45365
409.7801, 22.06495
410.2622, 21.97648
410.7443, 22.39784
411.2264, 23.02519
411.7086, 23.36542
412.1907, 23.23331
412.6728, 23.26342
413.1549, 23.60885
413.6370, 23.98944
414.1191, 24.27387
414.6013, 24.42462
415.0834, 24.38333
415.5655, 24.06750
416.0476, 23.50594
416.5297, 23.22497
417.0118, 23.64932
417.4940, 23.87399
417.9761, 23.45854
418.4582, 22.86631
418.9403, 22.72586
419.4224, 23.26769
419.9045, 24.13757
420.3867, 24.76545
420.8688, 25.18465
421.3509, 25.24761
421.8330, 24.81937
422.3151, 24.16639
422.7972, 23.09838
423.2794, 21.85550
423.7615, 21.14706
424.2436, 21.72439
424.7257, 23.34747
425.2078, 24.37596
425.6899, 24.52289
426.1721, 24.55464
426.6542, 24.73212
427.1363, 24.97155
427.6184, 25.22938
428.1005, 25.52983
428.5826, 25.65122
429.0648, 25.16401
429.5469, 24.05297
430.0290, 23.27301
430.5111, 23.15643
430.9932, 23.31781
431.4753, 23.52184
431.9575, 23.73374
432.4396, 23.67348
432.9217, 22.66538
433.4038, 21.48433
433.8859, 21.74585
434.3680, 23.68793
434.8502, 25.46416
435.3323, 25.76744
435.8144, 25.06563
436.2965, 24.77991
436.7786, 25.11407
437.2607, 25.62679
437.7429, 26.33357
438.2250, 27.03127
438.7071, 27.14791
439.1892, 26.44217
439.6713, 25.46743
440.1534, 25.03444
440.6356, 25.32354
441.1177, 25.32825
441.5998, 24.52739
442.0819, 23.79683
442.5640, 23.93540
443.0461, 24.79298
443.5282, 25.60007
444.0103, 25.84122
444.4925, 25.60069
444.9746, 25.33849
445.4567, 24.80402
445.9388, 24.56517
446.4209, 24.85541
446.9030, 25.38097
447.3852, 26.02537
447.8673, 26.68042
448.3494, 26.97958
448.8315, 26.32120
449.3136, 24.39267
449.7957, 23.08267
450.2779, 22.72604
450.7600, 22.67107
451.2421, 22.89435
451.7242, 23.24045
452.2063, 23.43944
452.6884, 23.30417
453.1706, 23.04285
453.6527, 23.25567
454.1348, 24.22473
454.6169, 24.77127
455.0990, 23.99927
455.5811, 23.09569
456.0633, 22.97914
456.5454, 23.69829
457.0275, 24.43240
457.5096, 24.47790
457.9917, 24.04368
458.4738, 23.93771
458.9560, 24.34581
459.4381, 24.68909
459.9202, 24.35420
460.4023, 23.71492
460.8844, 23.47937
461.3665, 23.85915
461.8487, 24.54165
462.3308, 25.68018
462.8129, 26.99957
463.2950, 27.37386
463.7771, 26.23135
464.2592, 24.58943
464.7414, 23.99129
465.2235, 24.62376
465.7056, 24.87107
466.1877, 24.02578
466.6698, 23.13065
467.1519, 23.03460
467.6341, 23.69109
468.1162, 24.59245
468.5983, 25.41175
469.0804, 26.21949
469.5625, 27.31046
470.0446, 29.56834
470.5268, 30.97371
471.0089, 30.72149
471.4910, 29.92383
471.9731, 29.70276
472.4552, 30.21696
472.9373, 30.73310
473.4195, 30.33466
473.9016, 28.89948
474.3837, 28.21953
474.8658, 28.86882
475.3479, 29.69742
475.8300, 30.68885
476.3122, 31.56590
476.7943, 31.98550
477.2764, 31.79583
477.7585, 31.13604
478.2406, 29.88017
478.7227, 27.84427
479.2049, 26.99485
479.6870, 28.66028
480.1691, 30.63974
480.6512, 31.36347
481.1333, 30.97631
481.6154, 30.32203
482.0976, 29.47338
482.5797, 28.74065
483.0618, 28.84768
483.5439, 29.83027
484.0260, 30.38631
484.5081, 29.55483
484.9902, 28.13120
485.4724, 27.94952
485.9545, 29.59682
486.4366, 30.68315
486.9187, 29.84871
487.4008, 28.22424
487.8829, 27.39745
488.3651, 27.58310
488.8472, 27.86256
489.3293, 27.35793
489.8114, 26.07712
490.2935, 25.53303
490.7756, 26.25931
491.2578, 26.95530
491.7399, 27.17131
492.2220, 27.17575
492.7041, 27.47753
493.1862, 28.20837
493.6683, 28.82347
494.1505, 28.34552
494.6326, 26.22553
495.1147, 25.19569
495.5968, 26.23293
496.0789, 27.43939
496.5610, 28.37457
497.0432, 28.94093
497.5253, 29.00129
498.0074, 28.38196
498.4895, 27.51217
498.9716, 27.28567
499.4537, 27.84265
499.9359, 28.12724
500.4180, 27.51084
500.9001, 26.89124
501.3822, 27.09851
501.8643, 28.06733
502.3464, 29.01911
502.8286, 29.66897
503.3107, 30.04981
503.7928, 29.93883
504.2749, 29.33681
504.7570, 29.49859
505.2391, 31.55521
505.7213, 34.48958
506.2034, 35.48230
506.6855, 33.69989
507.1676, 32.20263
507.6497, 31.97604
508.1318, 32.35719
508.6140, 32.82990
509.0961, 33.22369
509.5782, 33.10123
510.0603, 31.89550
510.5424, 29.72266
511.0245, 29.08164
511.5067, 31.95330
511.9888, 33.96353
512.4709, 34.18522
512.9530, 33.29250
513.4351, 31.70439
513.9172, 29.67211
514.3994, 27.88076
514.8815, 27.34152
515.3636, 28.18780
515.8457, 28.42657
516.3278, 27.46907
516.8099, 26.68545
517.2921, 26.74158
517.7742, 27.28252
518.2563, 27.83041
518.7384, 28.31144
519.2205, 28.48445
519.7026, 27.94920
520.1848, 26.79297
520.6669, 25.56482
521.1490, 24.09371
521.6311, 23.15819
522.1132, 24.20684
522.5953, 26.78438
523.0775, 28.29411
523.5596, 27.39859
524.0417, 26.09689
524.5238, 25.73181
525.0059, 26.10593
525.4880, 26.65996
525.9702, 27.20484
526.4523, 27.55617
526.9344, 27.34479
527.4165, 26.17764
527.8986, 25.48702
528.3807, 25.50073
528.8629, 25.73472
529.3450, 26.10647
529.8271, 26.47376
530.3092, 26.56576
530.7913, 26.20804
531.2734, 25.61038
531.7556, 25.26323
532.2377, 25.17552
532.7198, 25.31929
533.2019, 26.01147
533.6840, 26.67636
534.1661, 27.05709
534.6483, 27.13211
535.1304, 26.92661
535.6125, 26.26227
536.0946, 25.44741
536.5767, 25.06954
537.0588, 25.14609
537.5410, 25.31751
538.0231, 25.56301
538.5052, 25.71137
538.9873, 25.32356
539.4694, 24.24592
539.9515, 23.79639
540.4337, 24.87091
540.9158, 26.38688
541.3979, 27.37614
541.8800, 27.78038
542.3621, 27.77095
542.8442, 27.37789
543.3264, 26.78721
543.8085, 26.63513
544.2906, 27.23777
544.7726, 27.87003
545.2548, 28.74442
545.7369, 29.47448
546.2190, 29.62908
546.7011, 29.32490
547.1832, 29.08880
547.6653, 29.33986
548.1475, 29.95151
548.6296, 30.36724
549.1117, 30.39968
549.5938, 30.72711
550.0759, 31.71474
550.5580, 32.97163
551.0402, 34.20822
551.5223, 35.40821
552.0044, 36.79168
552.4865, 38.80366
552.9686, 40.97172
553.4507, 42.34069
553.9329, 42.86866
554.4150, 43.41898
554.8971, 44.49175
555.3792, 45.84458
555.8613, 46.84840
556.3434, 47.45627
556.8256, 47.92130
557.3077, 47.78971
557.7898, 47.88552
558.2719, 49.21088
558.7540, 51.60158
559.2361, 53.95230
559.7183, 55.48116
560.2004, 56.41088
560.6825, 57.76170
561.1646, 59.99669
561.6467, 61.83714
562.1288, 62.75307
562.6110, 63.60732
563.0931, 65.15463
563.5752, 67.30206
564.0573, 69.30244
564.5394, 70.56916
565.0215, 71.35513
565.5037, 72.45574
565.9858, 74.02300
566.4679, 74.86655
566.9500, 73.96347
567.4321, 72.60796
567.9142, 72.83250
568.3964, 74.81326
568.8785, 75.84309
569.3606, 74.40458
569.8427, 72.00268
570.3248, 70.14165
570.8069, 68.79537
571.2891, 67.30110
571.7712, 65.36068
572.2533, 62.91193
572.7354, 59.77045
573.2175, 54.91262
573.6996, 51.18613
574.1818, 49.01822
574.6639, 47.51090
575.1460, 46.40947
575.6281, 45.49257
576.1102, 44.37486
576.5923, 42.76668
577.0745, 41.03659
577.5566, 40.05268
578.0387, 39.94055
578.5208, 39.92078
579.0029, 40.12128
579.4850, 40.07127
579.9672, 39.15911
580.4493, 37.63813
580.9314, 36.59943
581.4135, 36.91721
581.8956, 37.49103
582.3777, 37.11214
582.8599, 36.03843
583.3420, 35.29631
583.8241, 35.27497
584.3062, 35.50599
584.7883, 35.32964
585.2704, 34.59872
585.7526, 34.20034
586.2347, 34.69232
586.7168, 34.89898
587.1989, 33.78184
587.6810, 32.20274
588.1631, 31.71279
588.6453, 32.83814
589.1274, 34.44055
589.6095, 34.74092
590.0916, 33.52760
590.5737, 33.07145
591.0558, 34.15235
591.5380, 34.88332
592.0201, 33.83269
592.5022, 32.08571
592.9843, 31.39632
593.4664, 32.43649
593.9485, 33.63100
594.4307, 33.61266
594.9128, 32.87325
595.3949, 32.69682
595.8770, 33.31332
596.3591, 33.70240
596.8412, 32.90593
597.3234, 31.18415
597.8055, 30.46804
598.2876, 31.46676
598.7697, 32.36434
599.2518, 33.13699
599.7339, 33.50631
600.2161, 32.74429
600.6982, 31.12544
601.1803, 30.21793
601.6624, 31.57672
602.1445, 34.40906
602.6266, 34.70280
603.1088, 31.06632
603.5909, 28.52054
604.0730, 29.28132
604.5551, 30.95374
605.0372, 31.82651
605.5193, 31.89974
606.0015, 32.14702
606.4836, 33.59774
606.9657, 35.11396
607.4478, 34.89037
607.9299, 33.24588
608.4120, 32.20095
608.8942, 32.62292
609.3763, 33.78189
609.8584, 34.61832
610.3405, 35.08365
610.8226, 35.33301
611.3047, 35.20287
611.7869, 35.03825
612.2690, 35.12508
612.7511, 35.25076
613.2332, 34.94148
613.7153, 34.03714
614.1974, 33.09691
614.6796, 32.89353
615.1617, 33.45430
615.6438, 34.26872
616.1259, 35.66914
616.6080, 36.72759
617.0901, 36.66441
617.5723, 36.07981
618.0544, 35.74400
618.5365, 35.71165
619.0186, 36.18774
619.5007, 37.71531
619.9828, 39.66033
620.4650, 41.05534
620.9471, 41.79212
621.4292, 42.20319
621.9113, 42.59201
622.3934, 42.73100
622.8755, 41.70471
623.3577, 37.17872
623.8398, 34.90192
624.3219, 36.45609
624.8040, 38.94574
625.2861, 40.98538
625.7682, 42.26698
626.2504, 42.58001
626.7325, 41.58033
627.2145, 40.12825
627.6967, 39.96392
628.1788, 41.15383
628.6609, 42.05147
629.1430, 42.28514
629.6251, 42.22837
630.1072, 42.17507
630.5894, 42.10688
631.0715, 41.93642
631.5536, 41.09244
632.0357, 40.75201
632.5178, 42.26801
632.9999, 44.41260
633.4821, 44.98775
633.9642, 43.63589
634.4463, 41.97749
634.9284, 41.55954
635.4105, 42.29702
635.8926, 42.98719
636.3748, 43.84832
636.8569, 44.28719
637.3390, 43.70714
637.8211, 43.07470
638.3032, 43.29497
638.7853, 44.33044
639.2675, 45.32594
639.7496, 45.70118
640.2317, 45.74085
640.7138, 45.93527
641.1959, 46.25999
641.6780, 46.34604
642.1602, 45.96303
642.6423, 45.56253
643.1244, 45.81504
643.6065, 46.88908
644.0886, 47.53707
644.5707, 47.42290
645.0529, 47.25774
645.5350, 47.25757
646.0171, 47.41833
646.4992, 47.76933
646.9813, 48.28970
647.4634, 48.79480
647.9456, 49.02991
648.4277, 49.03370
648.9098, 49.20226
649.3919, 49.36759
649.8740, 50.15625
650.3561, 52.52728
650.8383, 55.19651
651.3204, 56.62740
651.8025, 56.68855
652.2846, 56.65327
652.7667, 56.87791
653.2488, 57.31882
653.7310, 57.91508
654.2131, 58.68728
654.6952, 59.84994
655.1773, 61.52184
655.6594, 63.12944
656.1415, 63.64385
656.6237, 62.62577
657.1058, 62.56270
657.5879, 64.19944
658.0700, 66.01899
658.5521, 67.50967
659.0342, 69.01814
659.5164, 71.31221
659.9985, 74.54878
660.4806, 77.13383
660.9627, 77.06693
661.4448, 75.55688
661.9269, 75.52266
662.4091, 77.11202
662.8912, 79.00384
663.3733, 80.71767
663.8554, 82.14320
664.3375, 82.99226
664.8196, 82.97164
665.3018, 83.21658
665.7839, 84.29408
666.2660, 85.10097
666.7481, 84.75237
667.2302, 83.80164
667.7123, 83.36951
668.1945, 83.84706
668.6766, 84.36166
669.1587, 83.87816
669.6408, 82.42396
670.1229, 80.27295
670.6050, 77.15531
671.0872, 74.18581
671.5693, 71.90816
672.0514, 70.15860
672.5335, 68.76279
673.0156, 67.88463
673.4977, 66.56514
673.9799, 64.12637
674.4620, 61.47231
674.9441, 59.35257
675.4262, 57.67131
675.9083, 55.93427
676.3904, 53.91316
676.8726, 51.99183
677.3547, 50.86198
677.8368, 50.67384
678.3189, 50.31071
678.8010, 49.94227
679.2831, 49.12676
679.7653, 46.98450
680.2474, 44.67848
680.7295, 43.92287
681.2116, 45.12644
681.6937, 46.04049
682.1758, 44.97721
682.6580, 43.19659
683.1401, 42.43813
683.6222, 42.58100
684.1043, 42.38417
684.5864, 41.21280
685.0685, 39.83248
685.5507, 39.72198
686.0328, 41.55315
686.5149, 41.96282
686.9970, 39.33875
687.4791, 37.08797
687.9612, 36.15998
688.4434, 36.18071
688.9255, 36.96240
689.4076, 38.41548
689.8897, 39.39303
690.3718, 38.49100
690.8539, 36.68707
691.3361, 36.03754
691.8182, 36.53750
692.3003, 36.91054
692.7824, 36.62819
693.2645, 35.88271
693.7466, 34.88627
694.2288, 33.43696
694.7109, 32.61580
695.1930, 32.75959
695.6751, 33.09287
696.1572, 33.58973
696.6393, 34.00177
697.1215, 33.93868
697.6036, 33.36196
698.0857, 32.78640
698.5678, 32.76762
699.0499, 33.08531
699.5320, 32.99287
700.0142, 32.46092
700.4963, 32.26662
700.9784, 32.88125
701.4605, 33.62413
701.9426, 33.47263
702.4247, 32.25761
702.9069, 31.47437
703.3890, 31.44506
703.8711, 31.50087
704.3532, 31.42798
704.8353, 31.27416
705.3174, 31.03892
705.7996, 30.76939
706.2817, 30.67419
706.7638, 31.02346
707.2459, 31.63857
707.7280, 31.86430
708.2101, 31.63021
708.6923, 31.73630
709.1743, 32.70078
709.6564, 33.63383
710.1385, 33.19853
710.6207, 31.57532
711.1028, 31.10671
711.5849, 33.39776
712.0670, 35.14192
712.5491, 34.55169
713.0313, 33.05781
713.5134, 32.25729
713.9955, 32.35946
714.4776, 32.76664
714.9597, 33.11461
715.4418, 33.28675
715.9240, 32.85929
716.4061, 31.74515
716.8882, 30.80388
717.3703, 30.17549
717.8524, 29.80217
718.3345, 29.64842
718.8167, 29.71435
719.2988, 30.04408
719.7809, 31.06202
720.2630, 31.69967
720.7451, 31.32932
721.2272, 30.59083
721.7094, 30.06835
722.1915, 29.80918
722.6736, 29.58893
723.1557, 29.25385
723.6378, 29.00977
724.1199, 29.42313
724.6021, 30.58851
725.0842, 31.19791
725.5663, 30.88833
726.0484, 30.49745
726.5305, 30.63667
727.0126, 31.01046
727.4948, 31.02321
727.9769, 30.58963
728.4590, 29.97641
728.9411, 28.91033
729.4232, 27.98720
729.9053, 27.84193
730.3875, 28.26052
730.8696, 28.61061
731.3517, 28.62680
731.8338, 28.63142
732.3159, 29.31153
732.7980, 30.66202
733.2802, 30.83951
733.7623, 29.35064
734.2444, 28.07325
734.7265, 27.70493
735.2086, 28.04794
735.6907, 29.14425
736.1729, 31.13031
736.6550, 31.90585
737.1371, 29.71638
737.6192, 27.56540
738.1013, 27.53667
738.5834, 28.64513
739.0656, 29.15284
739.5477, 28.68904
740.0298, 28.19880
740.5119, 28.64888
740.9940, 29.78047
741.4761, 30.59662
741.9583, 31.13945
742.4404, 31.03785
742.9225, 29.84255
743.4046, 28.45251
743.8867, 27.62374
744.3688, 27.33563
744.8510, 27.56854
745.3331, 28.83986
745.8152, 29.98070
746.2973, 30.66064
746.7794, 30.99296
747.2615, 31.01455
747.7437, 30.79454
748.2258, 30.48051
748.7079, 30.15613
749.1900, 29.82089
749.6721, 29.35161
750.1542, 28.75891
750.6364, 28.85010
751.1185, 30.01471
751.6006, 30.89746
752.0827, 30.49045
752.5648, 29.25673
753.0469, 28.46552
753.5291, 28.22714
754.0112, 28.08422
754.4933, 28.18374
754.9754, 28.16155
755.4575, 27.56995
755.9396, 26.76200
756.4218, 26.48931
756.9039, 26.95998
757.3860, 27.38630
757.8681, 26.50001
758.3502, 24.89972
758.8323, 25.08970
759.3145, 27.17695
759.7966, 28.51982
760.2787, 27.87135
760.7608, 26.71163
761.2429, 27.07332
761.7250, 29.17876
762.2072, 30.15186
762.6893, 28.84301
763.1714, 27.96828
763.6535, 28.55853
764.1356, 29.56825
764.6177, 30.08496
765.0999, 30.05536
765.5820, 29.86429
766.0641, 29.64047
766.5462, 29.52262
767.0283, 29.93875
767.5104, 30.64125
767.9926, 30.48191
768.4747, 29.24629
768.9568, 28.23847
769.4389, 28.45707
769.9210, 29.49356
770.4031, 29.97842
770.8853, 29.45642
771.3674, 29.27562
771.8495, 30.04080
772.3316, 30.48206
772.8137, 29.62716
773.2958, 28.26992
773.7780, 27.77271
774.2601, 28.49570
774.7422, 29.05614
775.2243, 27.99640
775.7064, 26.67449
776.1885, 27.16187
776.6707, 28.98940
777.1528, 30.23715
777.6349, 30.23606
778.1170, 29.75590
778.5991, 29.69917
779.0812, 30.04239
779.5634, 30.30156
780.0455, 30.41029
780.5276, 30.59019
781.0097, 31.10784
781.4918, 31.51413
781.9739, 31.34701
782.4561, 30.74845
782.9382, 30.32811
783.4203, 30.30383
783.9024, 30.36246
784.3845, 30.51724
784.8666, 30.57147
785.3488, 30.08091
785.8309, 29.22973
786.3130, 28.80261
786.7951, 29.25059
787.2772, 30.09431
787.7593, 30.55944
788.2415, 30.65038
788.7236, 30.57007
789.2057, 30.25332
789.6878, 30.04714
790.1699, 30.13406
790.6520, 30.41527
791.1342, 30.76711
791.6162, 31.22975
792.0983, 31.52277
792.5804, 31.69045
793.0626, 31.61617
793.5447, 31.04373
794.0268, 30.32956
794.5089, 29.81328
794.9910, 29.57557
795.4731, 29.59694
795.9553, 29.89701
796.4374, 30.40217
796.9195, 31.22609
797.4016, 32.20044
797.8837, 32.40020
798.3658, 31.63275
798.8480, 30.86467
799.3301, 30.80436
799.8122, 31.27145
800.2943, 31.67019
800.7764, 31.94808
801.2585, 32.27338
801.7407, 32.85092
802.2228, 33.25143
802.7049, 33.39038
803.1870, 33.21463
803.6691, 32.39922
804.1512, 30.83723
804.6334, 29.96415
805.1155, 31.42373
805.5976, 33.08630
806.0797, 32.61828
806.5618, 30.86856
807.0439, 29.66352
807.5261, 29.53457
808.0082, 30.16826
808.4903, 31.46418
808.9724, 33.06154
809.4545, 33.37707
809.9366, 32.15345
810.4188, 31.45671
810.9009, 31.90500
811.3830, 32.44806
811.8651, 32.24509
812.3472, 31.52187
812.8293, 31.09831
813.3115, 31.03641
813.7936, 31.13607
814.2757, 31.70707
814.7578, 32.09829
815.2399, 31.54997
815.7220, 30.66415
816.2042, 30.67683
816.6863, 31.86475
817.1684, 32.85272
817.6505, 32.01197
818.1326, 32.45221
818.6147, 32.22237
819.0969, 31.22542
819.5790, 31.23629
820.0611, 29.62333
820.5432, 28.14052
821.0253, 28.61898
821.5074, 30.65537
821.9896, 31.50857
822.4717, 30.54711
822.9538, 29.85778
823.4359, 29.88946
823.9180, 29.99686
824.4001, 29.68718
824.8823, 29.24204
825.3644, 29.29087
825.8465, 30.10570
826.3286, 30.68466
826.8107, 30.37077
827.2928, 29.92352
827.7750, 30.13633
828.2571, 30.64569
828.7392, 30.50199
829.2213, 29.53085
829.7034, 28.76635
830.1855, 29.36587
830.6677, 30.78250
831.1498, 31.44377
831.6319, 31.36528
832.1140, 31.19256
832.5961, 31.07453
833.0782, 30.83687
833.5604, 30.24787
834.0425, 29.46107
834.5246, 29.12566
835.0067, 29.37748
835.4888, 29.86890
835.9709, 31.00524
836.4531, 31.91735
836.9352, 32.06214
837.4173, 31.82089
837.8994, 31.84340
838.3815, 32.25750
838.8636, 32.38916
839.3458, 31.68997
839.8279, 30.74729
840.3100, 29.82114
840.7921, 29.13580
841.2742, 29.27396
841.7563, 30.23445
842.2385, 31.19804
842.7206, 31.49126
843.2027, 31.35589
843.6848, 31.56108
844.1669, 32.13012
844.6490, 31.56586
845.1312, 29.21524
845.6133, 27.54636
846.0954, 28.43357
846.5775, 30.59477
847.0596, 31.13449
847.5417, 29.17190
848.0239, 28.32788
848.5060, 29.37841
848.9881, 30.55771
849.4702, 31.74015
849.9523, 32.47691
850.4344, 31.88935
850.9166, 30.22880
851.3987, 29.32823
851.8808, 30.46945
852.3629, 32.06349
852.8450, 33.04726
853.3271, 33.49025
853.8093, 33.35392
854.2914, 32.75327
854.7735, 32.05095
855.2556, 31.43759
855.7377, 31.02493
856.2198, 31.16809
856.7020, 31.82543
857.1841, 31.84053
857.6662, 31.06568
858.1483, 30.33786
858.6304, 29.88875
859.1125, 29.76462
859.5947, 30.14856
860.0768, 31.04473
860.5589, 31.47608
861.0410, 31.09079
861.5231, 30.75263
862.0052, 30.54588
862.4874, 30.42661
862.9695, 30.37528
863.4516, 30.38413
863.9337, 30.45279
864.4158, 30.59080
864.8979, 30.73273
865.3801, 30.70395
865.8622, 30.76407
866.3443, 31.58568
866.8264, 32.66728
867.3085, 32.40060
867.7906, 30.53618
868.2728, 29.15476
868.7549, 30.48282
869.2370, 33.38356
869.7191, 34.58988
870.2012, 34.10784
870.6833, 33.11521
871.1655, 31.64620
871.6476, 30.45625
872.1297, 30.07795
872.6118, 30.31537
873.0939, 30.71224
873.5760, 31.35891
874.0581, 31.89612
874.5402, 32.28048
875.0223, 32.59937
875.5045, 33.18206
875.9866, 33.50016
876.4687, 32.62397
876.9508, 30.75594
877.4329, 29.78333
877.9150, 31.24030
878.3972, 32.55112
878.8793, 31.89938
879.3614, 30.69181
879.8435, 30.62973
880.3256, 31.50377
880.8077, 32.15658
881.2899, 32.06964
881.7720, 31.60586
882.2541, 30.86790
882.7362, 30.15154
883.2183, 30.64332
883.7004, 32.19268
884.1826, 33.09617
884.6647, 32.79911
885.1468, 31.97741
885.6289, 31.20979
886.1110, 30.55011
886.5931, 30.38285
887.0753, 31.04495
887.5574, 31.11468
888.0395, 29.75957
888.5216, 28.84760
889.0037, 29.91146
889.4858, 31.85185
889.9680, 32.84457
890.4501, 32.74102
890.9322, 32.42130
891.4143, 31.88312
891.8964, 31.30352
892.3785, 30.76477
892.8607, 30.21589
893.3428, 29.39516
893.8249, 28.48149
894.3070, 28.18788
894.7891, 28.97996
895.2712, 30.07540
895.7534, 30.77938
896.2355, 31.32790
896.7176, 32.29605
897.1997, 33.47866
897.6818, 33.94566
898.1639, 33.36152
898.6461, 32.44802
899.1282, 32.02267
899.6103, 31.95453
900.0924, 31.59520
900.5745, 30.91895
901.0566, 30.60518
901.5388, 30.86649
902.0209, 31.18716
902.5030, 31.20081
902.9851, 30.99477
903.4672, 30.79949
903.9493, 30.54633
904.4315, 30.50283
904.9136, 31.04620
905.3957, 31.30803
905.8778, 30.51422
906.3599, 29.68464
906.8420, 30.04754
907.3242, 31.47569
907.8063, 32.48697
908.2884, 32.33820
908.7705, 32.25325
909.2526, 33.39555
909.7347, 34.20312
910.2169, 32.35592
910.6990, 29.24692
911.1811, 28.43620
911.6632, 31.07699
912.1453, 33.75409
912.6274, 32.95354
913.1096, 30.89940
913.5917, 31.12796
914.0738, 32.92288
914.5559, 34.19746
915.0380, 34.50182
915.5201, 34.37319
916.0023, 34.21910
916.4844, 33.77127
916.9665, 31.91904
917.4486, 28.69116
917.9307, 28.03179
918.4128, 30.64071
918.8950, 32.67263
919.3771, 32.42393
919.8592, 31.28489
920.3413, 30.96112
920.8234, 31.42800
921.3055, 31.66619
921.7877, 31.49934
922.2698, 31.41576
922.7519, 31.42912
923.2340, 31.57926
923.7161, 31.92436
924.1982, 32.40859
924.6804, 33.09031
925.1625, 34.12848
925.6446, 34.34595
926.1267, 32.51988
926.6088, 30.88751
927.0909, 30.61406
927.5731, 31.09909
928.0552, 31.99989
928.5373, 32.98861
929.0194, 33.25983
929.5015, 32.22237
929.9836, 31.19547
930.4658, 31.41395
930.9479, 32.26360
931.4300, 33.11199
931.9121, 33.77624
932.3942, 33.81261
932.8763, 33.14601
933.3585, 32.39204
933.8406, 32.09330
934.3227, 32.15676
934.8048, 32.49866
935.2869, 33.05524
935.7690, 33.24411
936.2512, 32.98235
936.7333, 32.35873
937.2154, 31.33361
937.6975, 30.29909
938.1796, 29.97630
938.6617, 29.50067
939.1439, 29.16928
939.6260, 29.57989
940.1081, 29.29976
940.5902, 30.11698
941.0723, 31.19343
941.5544, 32.14358
942.0366, 32.81078
942.5187, 32.51574
943.0008, 30.41582
943.4829, 29.42898
943.9650, 30.64724
944.4471, 31.81702
944.9293, 32.03190
945.4114, 31.82640
945.8935, 31.73919
946.3756, 31.80802
946.8577, 31.87726
947.3398, 31.95271
947.8220, 31.92409
948.3041, 31.68822
948.7862, 31.36936
949.2683, 31.02676
949.7504, 30.70625
950.2325, 30.46419
950.7147, 30.31623
951.1968, 30.23575
951.6789, 30.06413
952.1610, 30.10049
952.6431, 31.09229
953.1252, 32.45877
953.6074, 32.82717
954.0895, 32.20016
954.5716, 31.53965
955.0537, 31.32473
955.5358, 31.46109
956.0179, 31.96126
956.5000, 32.69825
956.9821, 33.21598
957.4642, 33.49596
957.9464, 32.79310
958.4285, 30.80973
958.9106, 29.26073
959.3927, 29.47158
959.8748, 30.99113
960.3569, 32.92095
960.8391, 35.67226
961.3212, 36.36991
961.8033, 34.16226
962.2854, 32.31765
962.7675, 32.00048
963.2496, 32.42806
963.7318, 33.03926
964.2139, 33.73905
964.6960, 33.78600
965.1781, 32.16336
965.6602, 31.56472
966.1423, 33.00412
966.6245, 34.29677
967.1066, 34.42048
967.5887, 33.99283
968.0708, 33.80859
968.5529, 33.89900
969.0350, 33.76863
969.5172, 33.12131
969.9993, 32.49854
970.4814, 32.17199
970.9635, 31.84390
971.4456, 31.01932
971.9277, 30.10906
972.4099, 29.96190
972.8920, 30.77377
973.3741, 31.74332
973.8562, 32.70109
974.3383, 33.34892
974.8204, 33.39542
975.3026, 33.01157
975.7847, 32.08555
976.2668, 30.95922
976.7489, 30.66630
977.2310, 31.68442
977.7131, 32.91126
978.1953, 33.46481
978.6774, 33.35645
979.1595, 32.05047
979.6416, 30.14818
980.1237, 29.73611
980.6058, 31.01148
981.0880, 32.13057
981.5701, 31.89802
982.0522, 30.93901
982.5343, 30.05203
983.0164, 29.33925
983.4985, 29.54010
983.9807, 30.62992
984.4628, 31.54659
984.9449, 31.96212
985.4270, 32.36686
985.9091, 33.27040
986.3912, 34.30200
986.8734, 34.13944
987.3555, 32.54083
987.8376, 31.88011
988.3197, 32.44566
988.8018, 33.18271
989.2839, 33.86961
989.7661, 34.18606
990.2482, 33.64753
990.7303, 32.41826
991.2124, 31.69276
991.6945, 31.59714
992.1766, 31.71323
992.6588, 32.04107
993.1409, 32.56373
993.6230, 33.59772
994.1051, 34.58770
994.5872, 34.77168
995.0693, 34.15801
995.5515, 33.38095
996.0336, 31.66012
996.5157, 30.93895
996.9978, 32.52460
997.4799, 33.99471
997.9620, 33.78846
998.4442, 32.78167
998.9263, 32.31485
999.4084, 32.52946
999.8905, 32.70939
1000.373, 32.47022
1000.855, 32.44849
1001.337, 33.10070
1001.819, 33.84575
1002.301, 34.67676
1002.783, 35.08802
1003.265, 33.76454
1003.747, 30.44280
1004.230, 28.11724
1004.712, 28.89135
1005.194, 30.42160
1005.676, 31.59404
1006.158, 32.38131
1006.640, 32.68748
1007.122, 32.63496
1007.604, 32.43904
1008.086, 32.17769
1008.569, 32.10504
1009.051, 32.51524
1009.533, 33.12336
1010.015, 33.88465
1010.497, 34.49738
1010.979, 34.32069
1011.461, 33.45020
1011.943, 32.36256
1012.426, 31.27549
1012.908, 30.85933
1013.390, 32.60579
1013.872, 35.06272
1014.354, 35.45484
1014.836, 34.28752
1015.318, 32.74032
1015.800, 31.20107
1016.282, 30.41107
1016.765, 30.80954
1017.247, 31.78192
1017.729, 32.62419
1018.211, 33.30331
1018.693, 33.70782
1019.175, 33.83156
1019.657, 33.50348
1020.139, 32.72025
1020.622, 32.31678
1021.104, 32.94241
1021.586, 33.60817
1022.068, 31.94098
1022.550, 28.35150
1023.032, 28.09628
1023.514, 31.26270
1023.996, 31.37483
1024.478, 26.48459
1024.961, 22.48346
1025.443, 23.85407
1025.925, 28.21873
1026.407, 30.23693
1026.889, 29.76827
1027.371, 29.77950
1027.853, 30.33191
1028.335, 31.05533
1028.818, 31.93101
1029.300, 32.67917
1029.782, 33.04365
1030.264, 33.17998
1030.746, 33.57414
1031.228, 34.41642
1031.710, 34.20903
1032.192, 32.36205
1032.674, 31.29795
1033.156, 32.13803
1033.639, 32.94115
1034.121, 31.79930
1034.603, 29.68342
1035.085, 29.62331
1035.567, 32.65722
1036.049, 33.67378
1036.531, 30.93719
1037.013, 29.63770
1037.496, 32.48795
1037.978, 35.43347
1038.460, 34.54939
1038.942, 31.37615
1039.424, 30.94962
1039.906, 34.85785
1040.388, 36.66911
1040.870, 34.52021
1041.353, 32.96294
1041.835, 33.63363
1042.317, 34.79346
1042.799, 35.20114
1043.281, 35.02416
1043.763, 34.76771
1044.245, 34.56828
1044.727, 33.89318
1045.209, 31.80752
1045.692, 30.45815
1046.174, 30.99615
1046.656, 31.96804
1047.138, 32.16713
1047.620, 31.88926
1048.102, 32.12614
1048.584, 33.23645
1049.066, 33.78574
1049.548, 33.00710
1050.031, 32.39917
1050.513, 32.60154
1050.995, 33.01775
1051.477, 33.32182
1051.959, 33.41129
1052.441, 32.97684
1052.923, 31.73678
1053.405, 31.20521
1053.888, 32.52002
1054.370, 33.53728
1054.852, 32.81320
1055.334, 32.03787
1055.816, 32.97242
1056.298, 34.92122
1056.780, 36.15125
1057.262, 36.35384
1057.745, 35.91439
1058.227, 34.24171
1058.709, 32.84799
1059.191, 32.39398
1059.673, 32.45048
1060.155, 32.91187
1060.637, 33.49686
1061.119, 33.63831
1061.601, 33.18903
1062.083, 32.92276
1062.566, 33.46789
1063.048, 33.78050
1063.530, 32.80450
1064.012, 31.93667
1064.494, 33.12785
1064.976, 35.11192
1065.458, 34.94420
1065.940, 32.04873
1066.423, 29.75399
1066.905, 29.37638
1067.387, 29.83761
1067.869, 31.28312
1068.351, 32.77387
1068.833, 33.61026
1069.315, 33.85973
1069.797, 33.71650
1070.280, 33.23693
1070.762, 32.62088
1071.244, 31.33156
1071.726, 30.74261
1072.208, 32.27796
1072.690, 34.00245
1073.172, 34.36776
1073.654, 33.79355
1074.136, 33.11435
1074.619, 32.48726
1075.101, 31.71228
1075.583, 30.26898
1076.065, 29.40138
1076.547, 30.23745
1077.029, 31.34726
1077.511, 31.59199
1077.993, 31.38497
1078.475, 31.48425
1078.958, 31.93377
1079.440, 32.18196
1079.922, 31.78499
1080.404, 31.70536
1080.886, 32.85879
1081.368, 34.01102
1081.850, 34.20546
1082.332, 33.90169
1082.814, 33.73562
1083.297, 33.74784
1083.779, 33.61695
1084.261, 33.11833
1084.743, 32.85783
1085.225, 33.27863
1085.707, 33.84245
1086.189, 34.39977
1086.671, 34.76282
1087.154, 34.57624
1087.636, 34.02604
1088.118, 33.72961
1088.600, 33.86718
1089.082, 34.22850
1089.564, 35.16350
1090.046, 35.77712
1090.528, 35.26996
1091.010, 34.44027
1091.493, 34.10572
1091.975, 34.12939
1092.457, 33.99673
1092.939, 33.58153
1093.421, 33.13355
1093.903, 32.55750
1094.385, 32.21061
1094.867, 32.60658
1095.349, 32.97844
1095.832, 32.31384
1096.314, 31.28891
1096.796, 31.36190
1097.278, 32.74868
1097.760, 33.85615
1098.242, 33.95000
1098.724, 34.02725
1099.206, 34.77669
1099.689, 35.24952
1100.171, 34.40834
1100.653, 33.09237
1101.135, 32.68741
1101.617, 33.20535
1102.099, 33.22725
1102.581, 31.32053
1103.063, 30.79382
1103.546, 34.37903
1104.028, 37.26358
1104.510, 36.01722
1104.992, 33.37706
1105.474, 32.58624
1105.956, 33.38972
1106.438, 33.47013
1106.920, 31.92452
1107.402, 31.08866
1107.885, 31.74360
1108.367, 32.62091
1108.849, 33.62432
1109.331, 34.34806
1109.813, 34.20259
1110.295, 33.53997
1110.777, 33.39786
1111.259, 34.03796
1111.741, 34.37461
1112.224, 34.06162
1112.706, 33.81935
1113.188, 33.86235
1113.670, 33.95251
1114.152, 33.96448
1114.634, 33.91152
1115.116, 33.80117
1115.598, 33.62449
1116.081, 33.49940
1116.563, 33.22060
1117.045, 33.37315
1117.527, 34.57748
1118.009, 35.39898
1118.491, 34.91763
1118.973, 33.95657
1119.455, 33.51932
1119.938, 33.55124
1120.420, 33.52515
1120.902, 33.42864
1121.384, 33.26603
1121.866, 32.80050
1122.348, 32.86120
1122.830, 34.18308
1123.312, 35.30613
1123.794, 34.74322
1124.276, 33.03707
1124.759, 31.86243
1125.241, 31.23017
1125.723, 31.14048
1126.205, 31.81228
1126.687, 32.11463
1127.169, 31.63115
1127.651, 31.29662
1128.133, 31.78492
1128.616, 32.68103
1129.098, 33.25342
1129.580, 33.51566
1130.062, 33.89267
1130.544, 34.47567
1131.026, 33.72057
1131.508, 31.21195
1131.990, 29.57006
1132.473, 30.11106
1132.955, 31.41851
1133.437, 31.84731
1133.919, 31.67697
1134.401, 31.95988
1134.883, 32.61665
1135.365, 32.50827
1135.847, 31.63104
1136.329, 31.39038
1136.812, 32.20630
1137.294, 32.89933
1137.776, 32.46563
1138.258, 33.32740
1138.740, 32.49080
1139.222, 34.16219
1139.704, 35.21334
1140.186, 35.64997
1140.668, 35.54222
1141.151, 34.99646
1141.633, 34.50917
1142.115, 34.33214
1142.597, 34.13011
1143.079, 33.38222
1143.561, 32.50240
1144.043, 32.16737
1144.525, 32.22832
1145.008, 32.38609
1145.490, 32.64679
1145.972, 33.31350
1146.454, 34.38422
1146.936, 35.09706
1147.418, 35.00475
1147.900, 34.18333
1148.382, 31.83664
1148.865, 29.54166
1149.347, 29.38216
1149.829, 30.51141
1150.311, 31.37696
1150.793, 31.78956
1151.275, 32.39239
1151.757, 33.54928
1152.239, 34.33624
1152.721, 33.89960
1153.203, 33.31256
1153.686, 32.81585
1154.168, 32.90464
1154.650, 34.88623
1155.132, 37.58250
1155.614, 38.19751
1156.096, 36.19872
1156.578, 34.51958
1157.060, 34.08006
1157.543, 33.95451
1158.025, 33.73006
1158.507, 33.92388
1158.989, 35.60309
1159.471, 37.36174
1159.953, 37.15047
1160.435, 35.23002
1160.917, 33.97427
1161.400, 33.99612
1161.882, 33.62251
1162.364, 32.03924
1162.846, 31.32237
1163.328, 32.77909
1163.810, 34.20280
1164.292, 33.71136
1164.774, 32.32988
1165.256, 32.22275
1165.739, 33.45945
1166.221, 34.92928
1166.703, 37.05984
1167.185, 37.63921
1167.667, 35.97638
1168.149, 34.25202
1168.631, 33.41151
1169.113, 33.10147
1169.595, 32.97591
1170.078, 32.97844
1170.560, 32.85310
1171.042, 32.61266
1171.524, 32.82707
1172.006, 33.49754
1172.488, 33.91026
1172.970, 33.88452
1173.452, 33.57334
1173.934, 33.03943
1174.417, 32.66242
1174.899, 33.19494
1175.381, 33.04293
1175.863, 34.30775
1176.345, 33.92196
1176.827, 34.39237
1177.309, 35.59499
1177.791, 36.29935
1178.274, 36.11570
1178.756, 35.66576
1179.238, 35.28954
1179.720, 35.16000
1180.202, 35.89849
1180.684, 36.62920
1181.166, 35.78967
1181.648, 34.37686
1182.130, 34.37691
1182.613, 35.66061
1183.095, 36.64495
1183.577, 36.78771
1184.059, 36.35839
1184.541, 35.19523
1185.023, 33.87855
1185.505, 32.24589
1185.987, 31.05333
1186.469, 31.02177
1186.952, 31.81975
1187.434, 33.19137
1187.916, 34.97630
1188.398, 35.65434
1188.880, 33.93207
1189.362, 32.90557
1189.844, 33.44866
1190.326, 33.97974
1190.809, 33.77821
1191.291, 33.60298
1191.773, 34.23980
1192.255, 35.24628
1192.737, 35.54804
1193.219, 35.08237
1193.701, 34.57226
1194.183, 33.97709
1194.666, 33.45231
1195.148, 32.94076
1195.630, 32.87734
1196.112, 33.52635
1196.594, 34.45609
1197.076, 35.26774
1197.558, 35.84345
1198.040, 35.60247
1198.522, 36.14016
1199.005, 34.89424
1199.487, 35.99608
1199.969, 36.17435
1200.451, 35.14483
1200.933, 34.23592
1201.415, 34.17757
1201.897, 34.58073
1202.379, 35.29604
1202.861, 35.90256
1203.344, 35.60416
1203.826, 34.79484
1204.308, 34.08400
1204.790, 33.49089
1205.272, 32.79217
1205.754, 32.02010
1206.236, 31.65550
1206.718, 32.04740
1207.201, 32.45990
1207.683, 32.23769
1208.165, 32.12092
1208.647, 32.82817
1209.129, 33.70385
1209.611, 34.05866
1210.093, 34.04352
1210.575, 34.09557
1211.057, 34.27560
1211.540, 34.45285
1212.022, 34.60813
1212.504, 34.76294
1212.986, 35.01042
1213.468, 35.15031
1213.950, 35.35859
1214.432, 35.06464
1214.914, 33.20586
1215.396, 30.85962
1215.879, 31.30270
1216.361, 34.91931
1216.843, 35.98763
1217.325, 34.00103
1217.807, 33.00207
1218.289, 33.69700
1218.771, 34.46210
1219.253, 34.56172
1219.736, 35.13043
1220.218, 34.98277
1220.700, 35.61001
1221.182, 35.83631
1221.664, 35.72034
1222.146, 35.38502
1222.628, 34.89190
1223.110, 34.35254
1223.593, 33.83228
1224.075, 33.54935
1224.557, 33.59291
1225.039, 33.51290
1225.521, 32.32153
1226.003, 31.66612
1226.485, 34.08210
1226.967, 36.81809
1227.449, 36.68555
1227.932, 35.06739
1228.414, 34.31494
1228.896, 34.57817
1229.378, 34.82091
1229.860, 34.87370
1230.342, 34.58018
1230.824, 33.39506
1231.306, 32.57495
1231.788, 32.63868
1232.271, 33.00188
1232.753, 33.48225
1233.235, 33.91783
1233.717, 34.03855
1234.199, 33.91660
1234.681, 34.04806
1235.163, 34.51147
1235.645, 34.89314
1236.128, 35.22697
1236.610, 35.06246
1237.092, 34.19272
1237.574, 33.99999
1238.056, 35.41338
1238.538, 36.97258
1239.020, 36.66905
1239.502, 35.21574
1239.984, 34.36604
1240.467, 33.87446
1240.949, 32.60476
1241.431, 31.07604
1241.913, 31.52676
1242.395, 33.94152
1242.877, 35.56808
1243.359, 34.99837
1243.841, 33.92844
1244.323, 33.37422
1244.806, 33.07937
1245.288, 32.70893
1245.770, 32.64413
1246.252, 33.55357
1246.734, 34.85260
1247.216, 35.61062
1247.698, 35.77632
1248.180, 35.83678
1248.662, 35.95747
1249.145, 35.72346
1249.627, 34.64808
1250.109, 34.02808
1250.591, 34.49902
1251.073, 34.74594
1251.555, 33.77230
1252.037, 32.63725
1252.519, 32.88282
1253.002, 34.13837
1253.484, 34.59840
1253.966, 34.29103
1254.448, 34.46167
1254.930, 35.11605
1255.412, 35.72973
1255.894, 36.10988
1256.376, 35.41475
1256.859, 33.19635
1257.341, 31.39528
1257.823, 32.43946
1258.305, 34.39959
1258.787, 34.79861
1259.269, 34.47518
1259.751, 34.07992
1260.233, 34.07890
1260.715, 35.77613
1261.198, 38.52944
1261.680, 39.29127
1262.162, 36.82430
1262.644, 34.97510
1263.126, 35.49511
1263.608, 35.98689
1264.090, 35.69262
1264.572, 35.25477
1265.054, 34.80426
1265.537, 34.60874
1266.019, 35.09156
1266.501, 35.99155
1266.983, 36.44152
1267.465, 36.42760
1267.947, 36.01377
1268.429, 35.14457
1268.911, 34.49700
1269.394, 34.17337
1269.876, 34.20160
1270.358, 34.59306
1270.840, 34.95235
1271.322, 34.88091
1271.804, 34.76544
1272.286, 35.32342
1272.768, 36.14639
1273.250, 36.75756
1273.733, 36.98448
1274.215, 36.11814
1274.697, 34.72319
1275.179, 34.47932
1275.661, 35.70802
1276.143, 36.93739
1276.625, 38.17879
1277.107, 38.17446
1277.589, 34.85526
1278.072, 32.35770
1278.554, 33.03630
1279.036, 34.74976
1279.518, 36.30802
1280.000, 37.38042
1280.482, 37.29290
1280.964, 36.15345
1281.446, 35.19552
1281.929, 34.38114
1282.411, 34.12854
1282.893, 34.48638
1283.375, 34.94949
1283.857, 35.37621
1284.339, 34.82925
1284.821, 32.73258
1285.303, 30.69251
1285.786, 30.23932
1286.268, 31.37443
##END=



