##NAMES=Chalcomenite
##RRUFFID=R100123
##IDEAL CHEMISTRY=Cu^2+^Se^4+^O_3_&#183;2H_2_O
##LOCALITY=Baccu Locci mine, Villaputen, Sardinia
##OWNER=RRUFF
##SOURCE=William W. Pinch
##DESCRIPTION=Blue tabular crystals associated with colorless bladed orlandiite, R100122, and colorless anglesite.
##STATUS=The identification of this mineral has been confirmed only by single crystal X-ray diffraction.
##URL=rruff.info/R100123
127.1939, 8.444032
127.6761, 9.462296
128.1582, 10.69410
128.6403, 11.42914
129.1224, 11.71963
129.6045, 11.81753
130.0867, 11.76070
130.5688, 11.60800
131.0509, 11.52422
131.5330, 11.49124
132.0151, 11.59894
132.4972, 12.09082
132.9794, 12.96757
133.4615, 13.85625
133.9436, 14.50489
134.4257, 14.93018
134.9078, 15.20919
135.3899, 15.18782
135.8721, 15.15414
136.3542, 16.04374
136.8363, 17.99708
137.3184, 20.25917
137.8005, 22.24601
138.2826, 23.95095
138.7648, 25.50293
139.2469, 26.69165
139.7290, 27.69479
140.2111, 29.85461
140.6932, 33.51868
141.1753, 37.72850
141.6575, 41.62206
142.1396, 45.29366
142.6217, 48.47748
143.1038, 50.99439
143.5859, 52.82650
144.0681, 54.79370
144.5502, 56.90623
145.0323, 59.15900
145.5144, 61.65091
145.9965, 64.77515
146.4786, 67.49844
146.9608, 69.40097
147.4429, 70.24632
147.9250, 71.42530
148.4071, 73.25063
148.8892, 75.29745
149.3713, 76.88493
149.8535, 77.20647
150.3356, 77.88636
150.8177, 79.48153
151.2998, 82.69678
151.7819, 85.29846
152.2640, 86.71035
152.7462, 87.57342
153.2283, 89.00496
153.7104, 91.74384
154.1925, 94.51450
154.6746, 96.87648
155.1567, 98.70946
155.6389, 100.2252
156.1210, 101.1832
156.6031, 101.8269
157.0852, 102.7666
157.5673, 104.7042
158.0495, 106.5548
158.5316, 107.7802
159.0137, 107.9366
159.4958, 107.9438
159.9779, 107.7860
160.4600, 107.6081
160.9422, 107.8837
161.4243, 108.7489
161.9064, 110.1342
162.3885, 112.0268
162.8706, 115.0824
163.3527, 117.9047
163.8349, 119.5129
164.3170, 120.2289
164.7991, 121.5910
165.2812, 124.7629
165.7633, 128.7168
166.2454, 132.5186
166.7276, 135.5326
167.2097, 138.6350
167.6918, 142.4862
168.1739, 146.9808
168.6560, 151.5284
169.1381, 155.9701
169.6203, 160.1514
170.1024, 162.8643
170.5845, 164.4443
171.0666, 165.8443
171.5487, 167.3028
172.0309, 168.8182
172.5130, 170.4586
172.9951, 172.3410
173.4772, 174.3657
173.9593, 176.3848
174.4414, 178.1372
174.9236, 179.9503
175.4057, 181.9686
175.8878, 184.1959
176.3699, 187.0741
176.8520, 191.4601
177.3341, 196.7992
177.8163, 201.9097
178.2984, 206.1754
178.7805, 209.9175
179.2626, 213.5938
179.7447, 217.1550
180.2268, 220.5837
180.7090, 223.6579
181.1911, 226.5042
181.6732, 229.4874
182.1553, 232.5230
182.6374, 235.8318
183.1195, 239.9188
183.6017, 244.9271
184.0838, 250.2272
184.5659, 256.0727
185.0480, 262.0459
185.5301, 266.2464
186.0123, 268.7003
186.4944, 268.7759
186.9765, 263.5794
187.4586, 252.2787
187.9407, 238.3814
188.4228, 225.7945
188.9050, 214.5806
189.3871, 205.0540
189.8692, 197.3968
190.3513, 191.6227
190.8334, 187.9874
191.3155, 186.8041
191.7977, 187.0141
192.2798, 187.1410
192.7619, 187.1864
193.2440, 187.2700
193.7261, 187.2331
194.2082, 187.1488
194.6904, 187.9780
195.1725, 189.9417
195.6546, 192.4962
196.1367, 194.5425
196.6188, 196.0513
197.1009, 197.5956
197.5831, 199.6006
198.0652, 202.0800
198.5473, 204.2129
199.0294, 206.0012
199.5115, 207.3611
199.9937, 208.0348
200.4758, 207.9529
200.9579, 207.5930
201.4400, 207.2954
201.9221, 207.1038
202.4042, 206.2666
202.8864, 204.5294
203.3685, 202.3359
203.8506, 200.8255
204.3327, 200.1951
204.8148, 199.5006
205.2969, 198.1102
205.7791, 195.8791
206.2612, 193.9811
206.7433, 192.4385
207.2254, 191.2954
207.7075, 190.7644
208.1896, 191.0127
208.6718, 191.3831
209.1539, 191.3892
209.6360, 190.8241
210.1181, 191.0249
210.6002, 192.3540
211.0823, 194.3340
211.5645, 195.5091
212.0466, 195.5220
212.5287, 195.5998
213.0108, 196.3762
213.4929, 197.9239
213.9750, 199.9001
214.4572, 202.3349
214.9393, 205.1616
215.4214, 208.4005
215.9035, 212.4199
216.3856, 216.1280
216.8678, 218.7986
217.3499, 220.1773
217.8320, 221.5666
218.3141, 223.4413
218.7962, 225.2334
219.2783, 224.9660
219.7605, 221.9284
220.2426, 218.1191
220.7247, 214.5512
221.2068, 211.3022
221.6889, 208.0848
222.1710, 204.8720
222.6532, 201.6968
223.1353, 198.8064
223.6174, 196.3371
224.0995, 193.8795
224.5816, 191.2061
225.0637, 188.1356
225.5459, 185.2149
226.0280, 182.3203
226.5101, 179.6076
226.9922, 177.6884
227.4743, 176.8212
227.9564, 176.3082
228.4386, 175.8061
228.9207, 175.2474
229.4028, 174.8923
229.8849, 174.8314
230.3670, 174.9505
230.8492, 174.8788
231.3313, 174.3259
231.8134, 174.0196
232.2955, 174.3585
232.7776, 175.7293
233.2597, 176.8363
233.7419, 177.6021
234.2240, 178.1258
234.7061, 178.6178
235.1882, 178.9889
235.6703, 179.4680
236.1524, 180.1757
236.6346, 181.2207
237.1167, 182.2701
237.5988, 183.4603
238.0809, 184.6122
238.5630, 185.3008
239.0451, 185.3507
239.5273, 185.1852
240.0094, 184.9148
240.4915, 184.3666
240.9736, 184.1446
241.4557, 184.2299
241.9378, 184.6392
242.4200, 185.4780
242.9021, 187.1432
243.3842, 188.6283
243.8663, 189.5182
244.3484, 189.5920
244.8306, 189.7301
245.3127, 189.9736
245.7948, 190.2587
246.2769, 190.3889
246.7590, 189.9745
247.2411, 190.0764
247.7233, 191.2873
248.2054, 194.1898
248.6875, 195.9700
249.1696, 196.0932
249.6517, 195.4439
250.1338, 195.4482
250.6160, 196.3534
251.0981, 197.4733
251.5802, 198.5810
252.0623, 199.6399
252.5444, 200.9123
253.0265, 202.4120
253.5087, 204.1071
253.9908, 205.9806
254.4729, 208.2645
254.9550, 210.2831
255.4371, 211.7996
255.9192, 212.7349
256.4014, 213.6916
256.8835, 214.6097
257.3656, 215.6095
257.8477, 217.0124
258.3298, 219.3337
258.8120, 220.9077
259.2941, 221.3207
259.7762, 220.5371
260.2583, 219.0667
260.7404, 216.7423
261.2225, 213.9154
261.7047, 210.8780
262.1868, 207.6097
262.6689, 204.1179
263.1510, 200.1784
263.6331, 195.8530
264.1152, 192.2391
264.5974, 189.3962
265.0795, 187.2136
265.5616, 185.8759
266.0437, 185.8054
266.5258, 185.0700
267.0079, 183.0402
267.4901, 179.9263
267.9722, 177.8729
268.4543, 177.2659
268.9364, 176.9133
269.4185, 175.6376
269.9006, 173.0312
270.3828, 171.3181
270.8649, 170.9812
271.3470, 171.7707
271.8291, 172.5413
272.3112, 173.3079
272.7933, 174.0279
273.2755, 174.6835
273.7576, 175.2861
274.2397, 175.7350
274.7218, 176.0148
275.2039, 176.1261
275.6860, 175.9644
276.1682, 175.4023
276.6503, 175.0426
277.1324, 175.2991
277.6145, 176.2037
278.0966, 177.3114
278.5787, 178.6394
279.0609, 180.0967
279.5430, 181.5517
280.0251, 183.0241
280.5072, 184.3619
280.9893, 185.4096
281.4715, 186.1632
281.9536, 187.0841
282.4357, 188.2112
282.9178, 189.4725
283.3999, 190.8807
283.8820, 192.4601
284.3642, 193.6942
284.8463, 194.1333
285.3284, 193.8653
285.8105, 194.0785
286.2926, 194.9375
286.7747, 195.7540
287.2569, 195.5121
287.7390, 194.2391
288.2211, 192.7306
288.7032, 191.5490
289.1853, 190.4303
289.6674, 187.9655
290.1496, 183.9975
290.6317, 179.6689
291.1138, 176.3212
291.5959, 173.8065
292.0780, 171.1990
292.5602, 168.1247
293.0423, 164.7579
293.5244, 161.5788
294.0065, 158.6148
294.4886, 155.5647
294.9707, 151.7898
295.4529, 147.5835
295.9350, 144.1166
296.4171, 141.8496
296.8992, 140.2840
297.3813, 138.6173
297.8634, 136.8719
298.3456, 135.2180
298.8277, 133.8857
299.3098, 132.7508
299.7919, 131.5522
300.2740, 130.2462
300.7561, 128.8526
301.2383, 127.2902
301.7204, 125.6216
302.2025, 124.2414
302.6846, 123.4341
303.1667, 123.0491
303.6488, 122.9289
304.1310, 123.1531
304.6131, 123.3203
305.0952, 122.8475
305.5773, 121.9679
306.0594, 121.3140
306.5415, 121.5201
307.0237, 121.9679
307.5058, 121.9071
307.9879, 121.1896
308.4700, 120.5121
308.9521, 120.7586
309.4343, 121.3729
309.9164, 121.3862
310.3985, 119.3156
310.8806, 117.2076
311.3627, 116.9091
311.8448, 118.5169
312.3270, 120.1036
312.8091, 120.4402
313.2912, 120.1318
313.7733, 119.8934
314.2554, 120.1394
314.7375, 120.3802
315.2197, 120.2841
315.7018, 119.8977
316.1839, 119.6309
316.6660, 119.8870
317.1481, 120.2278
317.6302, 120.2875
318.1124, 119.7899
318.5945, 119.2381
319.0766, 118.7984
319.5587, 118.4380
320.0408, 118.0365
320.5229, 117.2078
321.0051, 116.5710
321.4872, 116.5541
321.9693, 117.7543
322.4514, 118.5720
322.9335, 118.4085
323.4156, 117.6686
323.8978, 117.1325
324.3799, 116.9308
324.8620, 116.9576
325.3441, 117.2866
325.8262, 118.1561
326.3083, 118.5798
326.7905, 118.0796
327.2726, 117.2231
327.7547, 116.7147
328.2368, 116.6971
328.7189, 116.9020
329.2010, 117.3709
329.6832, 118.1382
330.1653, 118.7469
330.6474, 119.1962
331.1295, 119.4873
331.6116, 119.5987
332.0938, 119.2580
332.5759, 119.1855
333.0580, 119.6278
333.5401, 120.4797
334.0222, 120.8582
334.5043, 120.3189
334.9865, 119.9219
335.4686, 120.3932
335.9507, 122.1901
336.4328, 123.6324
336.9149, 124.6510
337.3970, 125.2661
337.8792, 125.4018
338.3613, 124.8440
338.8434, 124.4177
339.3255, 124.5246
339.8076, 125.2336
340.2898, 126.0391
340.7719, 127.0762
341.2540, 127.9954
341.7361, 128.1976
342.2182, 127.6105
342.7003, 126.9583
343.1825, 126.3659
343.6646, 125.8882
344.1467, 126.0028
344.6288, 126.7787
345.1109, 127.8010
345.5930, 128.7758
346.0752, 129.6739
346.5573, 130.3110
347.0394, 130.5303
347.5215, 130.5606
348.0036, 130.9409
348.4857, 131.6636
348.9679, 132.4729
349.4500, 133.2210
349.9321, 133.9163
350.4142, 134.6234
350.8963, 135.4205
351.3784, 136.0695
351.8606, 135.9948
352.3427, 135.4159
352.8248, 135.1459
353.3069, 136.1633
353.7890, 137.5631
354.2711, 138.0231
354.7533, 137.3677
355.2354, 136.4696
355.7175, 135.8967
356.1996, 135.6148
356.6817, 135.5637
357.1638, 136.0605
357.6460, 136.5293
358.1281, 136.3426
358.6102, 135.5664
359.0923, 135.0664
359.5744, 135.7195
360.0565, 136.7203
360.5387, 137.2597
361.0208, 136.6147
361.5029, 136.0941
361.9850, 136.6247
362.4671, 137.8079
362.9492, 138.4073
363.4314, 137.1437
363.9135, 135.7995
364.3956, 135.4597
364.8777, 136.8047
365.3598, 137.8792
365.8419, 138.1020
366.3241, 137.8471
366.8062, 137.6709
367.2883, 137.3427
367.7704, 137.3969
368.2526, 138.0878
368.7347, 139.5525
369.2168, 140.8949
369.6989, 142.2107
370.1810, 143.3362
370.6631, 144.1210
371.1453, 144.1104
371.6274, 144.4439
372.1095, 145.3750
372.5916, 146.8080
373.0737, 148.0483
373.5558, 148.9306
374.0380, 149.8797
374.5201, 151.2851
375.0022, 153.5228
375.4843, 154.8306
375.9664, 154.7855
376.4485, 154.1039
376.9307, 154.3540
377.4128, 155.8174
377.8949, 156.9992
378.3770, 157.1413
378.8591, 156.3106
379.3412, 155.9634
379.8234, 156.2445
380.3055, 156.5073
380.7876, 155.8518
381.2697, 154.3360
381.7518, 153.1286
382.2339, 152.7395
382.7161, 152.7011
383.1982, 151.7514
383.6803, 149.9304
384.1624, 148.1426
384.6445, 147.1153
385.1266, 146.6461
385.6088, 146.3151
386.0909, 146.1512
386.5730, 145.8294
387.0551, 144.7531
387.5372, 143.1789
388.0193, 141.8211
388.5015, 141.0801
388.9836, 140.7442
389.4657, 140.5550
389.9478, 140.4921
390.4299, 140.7791
390.9120, 142.1348
391.3942, 143.7544
391.8763, 144.6181
392.3584, 143.6153
392.8405, 142.5009
393.3226, 142.2835
393.8047, 142.7691
394.2869, 143.0678
394.7690, 142.5922
395.2511, 141.9870
395.7332, 141.6522
396.2154, 141.7411
396.6975, 141.9130
397.1796, 142.4770
397.6617, 143.0215
398.1438, 142.8452
398.6259, 140.7670
399.1081, 139.0197
399.5902, 138.3352
400.0723, 138.8874
400.5544, 139.3071
401.0365, 139.6367
401.5186, 139.7988
402.0008, 139.7228
402.4829, 139.3452
402.9650, 138.8338
403.4471, 138.1292
403.9292, 137.3012
404.4113, 136.6541
404.8935, 136.1874
405.3756, 135.8905
405.8577, 135.8444
406.3398, 136.1216
406.8219, 136.1522
407.3040, 135.9727
407.7862, 135.4700
408.2683, 134.1720
408.7504, 132.0378
409.2325, 130.5314
409.7146, 130.3116
410.1967, 131.0651
410.6789, 131.9615
411.1610, 133.0244
411.6431, 133.6746
412.1252, 133.1259
412.6073, 131.7449
413.0894, 130.5110
413.5716, 129.5536
414.0537, 128.9945
414.5358, 129.2379
415.0179, 130.0737
415.5000, 130.8270
415.9821, 130.9895
416.4643, 130.9476
416.9464, 131.1164
417.4285, 131.5373
417.9106, 131.9585
418.3927, 132.0872
418.8748, 132.1650
419.3570, 132.4767
419.8391, 133.5117
420.3212, 134.4208
420.8033, 134.8459
421.2854, 134.8407
421.7675, 134.6761
422.2497, 134.0789
422.7318, 133.6128
423.2139, 133.6566
423.6960, 134.6522
424.1781, 135.2830
424.6602, 134.9751
425.1424, 134.3394
425.6245, 134.2834
426.1066, 135.3843
426.5887, 136.3376
427.0709, 136.8309
427.5530, 136.8639
428.0351, 136.9447
428.5172, 137.1282
428.9993, 137.2823
429.4814, 137.3049
429.9636, 137.1671
430.4457, 136.9468
430.9278, 136.4911
431.4099, 136.1121
431.8920, 136.6445
432.3741, 138.2148
432.8563, 139.7522
433.3384, 140.8039
433.8205, 141.4116
434.3026, 141.7767
434.7847, 141.8799
435.2668, 141.9133
435.7490, 141.9538
436.2311, 142.0643
436.7132, 142.5280
437.1953, 143.6397
437.6774, 144.8269
438.1595, 145.2452
438.6417, 145.0374
439.1238, 144.7935
439.6059, 145.1054
440.0880, 145.4428
440.5701, 145.1777
441.0522, 144.1774
441.5344, 143.0256
442.0165, 141.8318
442.4986, 140.7810
442.9807, 140.1085
443.4628, 140.2011
443.9449, 140.3830
444.4271, 140.3220
444.9092, 140.0874
445.3913, 140.0954
445.8734, 140.6682
446.3555, 141.3379
446.8376, 141.8784
447.3198, 142.2444
447.8019, 142.5323
448.2840, 142.6721
448.7661, 142.7640
449.2482, 142.9594
449.7303, 143.3830
450.2125, 143.7102
450.6946, 143.9623
451.1767, 144.1102
451.6588, 143.5778
452.1409, 141.9890
452.6230, 140.5834
453.1052, 140.5015
453.5873, 141.8920
454.0694, 142.5391
454.5515, 142.1204
455.0337, 141.2090
455.5158, 140.6580
455.9979, 140.4571
456.4800, 140.5392
456.9621, 141.0036
457.4442, 141.6932
457.9264, 142.2055
458.4085, 142.5473
458.8906, 142.9605
459.3727, 143.7510
459.8548, 144.7139
460.3369, 145.4812
460.8191, 145.9111
461.3012, 146.3068
461.7833, 147.0540
462.2654, 147.9470
462.7475, 148.5544
463.2296, 148.1783
463.7118, 147.8923
464.1939, 148.4473
464.6760, 149.9027
465.1581, 151.1581
465.6402, 151.6137
466.1223, 151.8869
466.6045, 152.4042
467.0866, 153.4619
467.5687, 154.4608
468.0508, 155.2415
468.5329, 155.9565
469.0150, 156.9902
469.4972, 158.6375
469.9793, 160.1358
470.4614, 161.2141
470.9435, 161.8532
471.4256, 162.4326
471.9077, 162.8619
472.3899, 163.4166
472.8720, 164.5702
473.3541, 166.4525
473.8362, 167.3811
474.3183, 166.8026
474.8004, 165.6849
475.2826, 166.1390
475.7647, 168.0519
476.2468, 169.8299
476.7289, 170.5152
477.2110, 170.5203
477.6931, 170.6168
478.1753, 170.8132
478.6574, 171.3318
479.1395, 172.7011
479.6216, 174.4127
480.1037, 175.6671
480.5858, 176.0195
481.0680, 176.3313
481.5501, 177.4049
482.0322, 178.8697
482.5143, 179.9419
482.9964, 180.1693
483.4786, 180.0646
483.9607, 179.6756
484.4428, 178.9682
484.9249, 178.7427
485.4070, 179.8329
485.8892, 181.0379
486.3713, 181.4842
486.8534, 180.3665
487.3355, 179.6786
487.8176, 179.7668
488.2997, 180.2109
488.7819, 180.0601
489.2640, 179.0033
489.7461, 178.0539
490.2282, 177.6163
490.7103, 177.6399
491.1924, 177.3270
491.6746, 176.6362
492.1567, 175.7659
492.6388, 174.6729
493.1209, 173.4327
493.6030, 172.9717
494.0851, 173.6155
494.5673, 174.4781
495.0494, 174.0683
495.5315, 172.7221
496.0136, 171.6681
496.4957, 171.5953
496.9778, 172.0402
497.4600, 172.6979
497.9421, 173.5108
498.4242, 173.9983
498.9063, 173.5708
499.3884, 172.8698
499.8705, 172.4594
500.3527, 172.5541
500.8348, 172.6911
501.3169, 172.5910
501.7990, 172.4665
502.2811, 172.6194
502.7632, 173.3460
503.2454, 174.0953
503.7275, 174.7230
504.2096, 175.2481
504.6917, 175.9123
505.1738, 176.7119
505.6559, 177.6466
506.1381, 178.7911
506.6202, 180.3104
507.1023, 181.3140
507.5844, 181.6314
508.0665, 181.7434
508.5486, 182.1819
509.0308, 182.9477
509.5129, 184.2511
509.9950, 186.3675
510.4771, 188.8320
510.9592, 190.6024
511.4413, 191.7319
511.9235, 192.8371
512.4056, 194.1599
512.8877, 195.7514
513.3698, 197.8047
513.8519, 200.3571
514.3340, 202.9647
514.8162, 205.3415
515.2983, 207.5729
515.7804, 209.7638
516.2625, 211.9852
516.7446, 214.1340
517.2267, 216.0307
517.7089, 217.8131
518.1910, 219.7982
518.6731, 222.3459
519.1552, 224.8484
519.6373, 226.9519
520.1194, 228.5860
520.6016, 230.6839
521.0837, 233.2889
521.5658, 236.2745
522.0479, 239.6423
522.5300, 243.5304
523.0121, 247.1522
523.4943, 250.3847
523.9764, 253.4178
524.4585, 256.6282
524.9406, 259.9674
525.4227, 263.2263
525.9048, 266.1021
526.3870, 268.9416
526.8691, 272.8747
527.3513, 277.8569
527.8334, 282.9057
528.3155, 287.2448
528.7976, 291.2954
529.2797, 295.6494
529.7618, 300.4008
530.2440, 305.4831
530.7261, 310.9954
531.2082, 316.7376
531.6903, 322.3497
532.1724, 327.6212
532.6545, 332.9084
533.1367, 338.3710
533.6188, 343.9749
534.1009, 349.8004
534.5830, 355.9496
535.0651, 362.1847
535.5472, 368.2867
536.0294, 374.2320
536.5115, 380.6747
536.9936, 387.9019
537.4757, 395.2296
537.9578, 402.0425
538.4399, 408.3243
538.9221, 414.5529
539.4042, 420.8358
539.8863, 427.1095
540.3684, 433.2302
540.8505, 439.2233
541.3326, 445.4086
541.8148, 452.0073
542.2969, 458.7953
542.7790, 465.5893
543.2611, 472.3342
543.7432, 478.8187
544.2253, 484.6075
544.7075, 490.2202
545.1896, 496.2682
545.6717, 502.9285
546.1538, 509.4891
546.6359, 516.0522
547.1180, 522.1632
547.6002, 527.2494
548.0823, 530.7125
548.5644, 533.6855
549.0465, 536.1409
549.5286, 538.2545
550.0107, 540.5687
550.4929, 543.5840
550.9750, 546.0414
551.4571, 547.5304
551.9392, 548.0472
552.4213, 548.1084
552.9034, 547.8166
553.3856, 546.7581
553.8677, 544.4196
554.3498, 540.8831
554.8319, 537.2676
555.3140, 533.8232
555.7961, 529.7825
556.2783, 523.9361
556.7604, 516.6986
557.2425, 509.2833
557.7246, 502.1201
558.2067, 494.9707
558.6888, 487.9292
559.1710, 480.8210
559.6531, 473.1001
560.1352, 464.1377
560.6173, 454.8400
561.0994, 445.8565
561.5815, 437.2398
562.0637, 428.5431
562.5458, 419.5521
563.0279, 410.5458
563.5100, 401.6178
563.9921, 392.6981
564.4742, 383.9316
564.9564, 375.4288
565.4385, 367.0126
565.9206, 358.2490
566.4027, 349.0018
566.8848, 340.4562
567.3669, 333.1633
567.8491, 326.7618
568.3312, 320.4393
568.8133, 314.2180
569.2954, 307.9405
569.7775, 301.3413
570.2596, 294.7133
570.7418, 288.9019
571.2239, 283.9311
571.7060, 278.9439
572.1881, 272.4652
572.6702, 265.9834
573.1523, 261.2209
573.6345, 259.6711
574.1166, 258.0458
574.5987, 255.4360
575.0808, 251.9345
575.5629, 247.6277
576.0450, 240.9977
576.5272, 235.4123
577.0093, 231.9485
577.4914, 230.2522
577.9735, 227.8516
578.4556, 224.4627
578.9377, 220.9990
579.4199, 217.8366
579.9020, 215.0198
580.3841, 212.3721
580.8662, 209.9298
581.3483, 207.5199
581.8304, 204.8086
582.3126, 201.9867
582.7947, 199.7984
583.2768, 198.5181
583.7589, 197.4820
584.2410, 196.0123
584.7231, 194.2628
585.2053, 192.5394
585.6874, 190.8238
586.1696, 189.2985
586.6517, 188.2533
587.1338, 187.5389
587.6159, 186.5085
588.0980, 184.2942
588.5801, 182.3462
589.0623, 181.4495
589.5444, 181.8212
590.0265, 181.7781
590.5086, 181.3211
590.9907, 180.4518
591.4728, 179.0217
591.9550, 176.8979
592.4371, 175.1628
592.9192, 173.9219
593.4013, 173.0755
593.8834, 172.7015
594.3655, 172.6991
594.8477, 172.3988
595.3298, 171.5043
595.8119, 170.3228
596.2940, 169.1365
596.7761, 167.9946
597.2582, 167.0241
597.7404, 166.2249
598.2225, 165.6717
598.7046, 165.4493
599.1867, 165.5595
599.6688, 165.8164
600.1509, 166.6542
600.6331, 167.2630
601.1152, 167.0406
601.5973, 165.4120
602.0794, 164.3176
602.5615, 164.0883
603.0436, 164.0854
603.5258, 163.5350
604.0079, 162.3045
604.4900, 161.2752
604.9721, 160.6374
605.4542, 160.2197
605.9363, 159.6050
606.4185, 158.8471
606.9006, 158.3757
607.3827, 158.7968
607.8648, 159.3729
608.3469, 158.8122
608.8290, 157.3071
609.3112, 155.9704
609.7933, 155.5952
610.2754, 155.5342
610.7575, 155.2642
611.2396, 154.6871
611.7217, 154.2594
612.2039, 154.2269
612.6860, 154.3177
613.1681, 154.3392
613.6502, 154.4857
614.1323, 154.1603
614.6144, 152.9881
615.0966, 151.6676
615.5787, 151.3050
616.0608, 152.0784
616.5429, 152.6836
617.0250, 152.7733
617.5071, 152.5715
617.9893, 152.6039
618.4714, 152.8362
618.9535, 152.9897
619.4356, 153.0972
619.9177, 152.9512
620.3998, 151.9130
620.8820, 150.1378
621.3641, 148.9962
621.8462, 150.0008
622.3283, 151.4067
622.8104, 151.8462
623.2925, 150.8616
623.7747, 150.0918
624.2568, 150.0197
624.7389, 150.1587
625.2210, 150.1191
625.7031, 149.8100
626.1852, 149.5200
626.6674, 149.2887
627.1495, 149.0574
627.6316, 148.6634
628.1137, 148.0919
628.5958, 147.7542
629.0779, 147.8660
629.5601, 148.1700
630.0422, 148.1054
630.5243, 147.7538
631.0064, 147.4931
631.4885, 147.7280
631.9706, 148.0217
632.4528, 147.9639
632.9349, 147.5595
633.4170, 147.0202
633.8991, 146.1535
634.3812, 145.3980
634.8633, 145.0139
635.3455, 145.0987
635.8276, 145.3753
636.3097, 145.9903
636.7918, 146.6453
637.2739, 147.1174
637.7560, 147.4179
638.2382, 147.3965
638.7203, 146.8975
639.2024, 146.3409
639.6845, 146.4586
640.1666, 147.1671
640.6487, 147.8023
641.1309, 148.2101
641.6130, 148.3854
642.0951, 148.0590
642.5772, 147.4568
643.0594, 147.2338
643.5415, 148.3957
644.0236, 149.4312
644.5057, 149.2078
644.9879, 147.8557
645.4700, 146.8564
645.9521, 146.7450
646.4342, 146.8926
646.9163, 147.0116
647.3984, 147.0759
647.8806, 147.3450
648.3627, 147.9198
648.8448, 148.5241
649.3269, 148.9809
649.8090, 149.2903
650.2911, 149.3300
650.7733, 149.0297
651.2554, 148.7471
651.7375, 148.9936
652.2196, 149.5861
652.7017, 150.0679
653.1838, 150.2605
653.6660, 150.4035
654.1481, 150.5802
654.6302, 150.8475
655.1123, 151.3128
655.5944, 152.3628
656.0765, 153.2341
656.5587, 153.5637
657.0408, 153.4749
657.5229, 153.5802
658.0050, 153.9385
658.4871, 154.3849
658.9692, 154.8749
659.4514, 155.4056
659.9335, 155.9829
660.4156, 156.6208
660.8977, 157.1752
661.3798, 157.2858
661.8619, 157.2506
662.3441, 157.9511
662.8262, 159.4508
663.3083, 161.2041
663.7904, 163.2210
664.2725, 165.0456
664.7546, 166.0979
665.2368, 166.0025
665.7189, 165.8586
666.2010, 165.8540
666.6831, 166.0759
667.1652, 166.6348
667.6473, 167.5403
668.1295, 168.7795
668.6116, 170.5113
669.0937, 172.4761
669.5758, 174.1422
670.0579, 175.4971
670.5400, 176.7730
671.0222, 178.1038
671.5043, 179.3215
671.9864, 179.9877
672.4685, 180.1978
672.9506, 180.4351
673.4327, 180.4598
673.9149, 180.9905
674.3970, 183.3163
674.8791, 187.1015
675.3612, 189.8338
675.8433, 189.1981
676.3254, 188.3960
676.8076, 189.2935
677.2897, 192.3671
677.7718, 194.6577
678.2539, 195.8484
678.7360, 196.6752
679.2181, 197.5980
679.7003, 198.6266
680.1824, 199.5784
680.6645, 200.4204
681.1466, 201.2939
681.6287, 202.4282
682.1108, 203.7216
682.5930, 204.8670
683.0751, 205.8172
683.5572, 206.5887
684.0393, 207.0350
684.5214, 207.3647
685.0035, 207.8808
685.4857, 209.3628
685.9678, 210.2466
686.4499, 209.5287
686.9320, 208.0134
687.4141, 207.5136
687.8962, 208.6645
688.3784, 209.6431
688.8605, 210.0188
689.3426, 209.9570
689.8247, 210.0712
690.3068, 210.3792
690.7889, 210.4570
691.2711, 209.8468
691.7532, 208.9851
692.2353, 208.8484
692.7174, 209.3389
693.1995, 209.8324
693.6816, 209.8407
694.1638, 209.7869
694.6459, 210.0353
695.1280, 210.6289
695.6101, 211.1240
696.0922, 211.2893
696.5743, 211.4332
697.0565, 211.7256
697.5386, 212.2057
698.0207, 212.7139
698.5028, 213.2950
698.9849, 213.8158
699.4670, 214.0883
699.9492, 214.1464
700.4313, 214.3327
700.9135, 214.6792
701.3956, 215.1694
701.8777, 215.8935
702.3598, 216.7180
702.8419, 217.3938
703.3240, 217.7338
703.8062, 218.1456
704.2883, 219.0854
704.7704, 220.1507
705.2525, 220.7384
705.7346, 220.3411
706.2167, 219.9702
706.6989, 219.6450
707.1810, 219.4413
707.6631, 219.5568
708.1452, 220.0296
708.6273, 220.6387
709.1094, 221.4560
709.5916, 222.2395
710.0737, 222.2935
710.5558, 221.7442
711.0379, 221.2411
711.5200, 220.9798
712.0021, 221.0338
712.4843, 221.5964
712.9664, 222.5762
713.4485, 223.5120
713.9306, 224.1925
714.4127, 224.8125
714.8948, 225.3797
715.3770, 225.8952
715.8591, 226.6546
716.3412, 227.5996
716.8233, 228.9012
717.3054, 230.9380
717.7875, 233.6611
718.2697, 235.1011
718.7518, 235.1801
719.2339, 235.2216
719.7160, 236.3798
720.1981, 238.2415
720.6802, 240.1941
721.1624, 242.1431
721.6445, 244.2280
722.1266, 246.7907
722.6087, 249.3526
723.0908, 251.4297
723.5729, 252.4515
724.0551, 253.9702
724.5372, 256.2738
725.0193, 258.8719
725.5014, 261.3050
725.9835, 263.5958
726.4656, 265.5706
726.9478, 267.2128
727.4299, 268.5878
727.9120, 269.3499
728.3941, 269.8780
728.8762, 271.4843
729.3583, 274.9862
729.8405, 278.6833
730.3226, 281.0789
730.8047, 282.7418
731.2868, 284.5362
731.7689, 286.9284
732.2510, 289.2679
732.7332, 291.5401
733.2153, 293.6320
733.6974, 295.2648
734.1795, 296.2042
734.6616, 297.2995
735.1437, 298.7308
735.6259, 300.4609
736.1080, 302.5317
736.5901, 304.8869
737.0722, 307.0260
737.5543, 308.4170
738.0364, 309.6867
738.5186, 311.7167
739.0007, 314.2789
739.4828, 316.6280
739.9649, 318.4171
740.4470, 319.9422
740.9291, 321.3515
741.4113, 322.6208
741.8934, 323.6032
742.3755, 324.3152
742.8576, 324.7139
743.3397, 324.7559
743.8218, 324.4676
744.3040, 324.2313
744.7861, 324.0713
745.2682, 323.1751
745.7503, 320.5273
746.2324, 316.9579
746.7145, 313.9600
747.1967, 311.5112
747.6788, 308.7608
748.1609, 305.0048
748.6430, 300.9667
749.1251, 297.1607
749.6072, 293.7613
750.0894, 289.7624
750.5715, 284.7494
751.0536, 279.6622
751.5357, 275.2290
752.0178, 271.4955
752.4999, 267.3161
752.9821, 262.5841
753.4642, 257.9584
753.9463, 254.3379
754.4284, 251.2461
754.9105, 247.5379
755.3926, 242.9263
755.8748, 238.8334
756.3569, 236.5930
756.8390, 234.9941
757.3211, 232.8775
757.8032, 229.6592
758.2853, 226.8540
758.7675, 224.7407
759.2496, 222.8732
759.7318, 220.7767
760.2139, 218.3949
760.6960, 216.4092
761.1781, 214.9590
761.6602, 213.6577
762.1423, 211.8988
762.6245, 209.9346
763.1066, 208.5344
763.5887, 208.1586
764.0708, 207.3762
764.5529, 204.4704
765.0350, 200.9003
765.5172, 198.3943
765.9993, 197.8340
766.4814, 197.7523
766.9635, 198.4654
767.4456, 199.2713
767.9277, 199.1578
768.4099, 197.9592
768.8920, 196.8859
769.3741, 196.0973
769.8562, 195.5661
770.3383, 195.3324
770.8204, 195.3144
771.3026, 195.2710
771.7847, 195.0258
772.2668, 194.9319
772.7489, 195.3879
773.2310, 196.1165
773.7131, 196.6743
774.1953, 196.7724
774.6774, 196.9536
775.1595, 197.2428
775.6416, 197.6692
776.1237, 198.2906
776.6058, 199.1144
777.0880, 200.1059
777.5701, 201.3021
778.0522, 202.5543
778.5343, 203.3611
779.0164, 203.9871
779.4985, 205.2404
779.9807, 208.0155
780.4628, 210.7909
780.9449, 212.5360
781.4270, 213.6075
781.9091, 214.7954
782.3912, 216.0643
782.8734, 217.7032
783.3555, 219.8810
783.8376, 222.4037
784.3197, 224.6320
784.8018, 226.5177
785.2839, 229.0120
785.7661, 232.6837
786.2482, 236.7098
786.7303, 239.4768
787.2124, 241.4002
787.6945, 243.7367
788.1766, 247.0828
788.6588, 250.9728
789.1409, 255.2314
789.6230, 259.8754
790.1051, 265.1263
790.5872, 271.3684
791.0693, 277.5463
791.5515, 283.2849
792.0336, 288.8807
792.5157, 294.9782
792.9978, 301.5793
793.4799, 308.6046
793.9620, 316.0206
794.4442, 323.9351
794.9263, 332.6162
795.4084, 342.0309
795.8905, 352.1699
796.3726, 363.5688
796.8547, 375.0795
797.3369, 385.6973
797.8190, 396.0609
798.3011, 408.4044
798.7832, 423.4646
799.2653, 439.2993
799.7474, 455.4666
800.2296, 472.0879
800.7117, 489.6433
801.1938, 508.0712
801.6759, 526.7131
802.1580, 544.9083
802.6401, 563.5863
803.1223, 583.7001
803.6044, 605.0381
804.0865, 626.6627
804.5686, 648.2974
805.0507, 670.2678
805.5328, 693.0043
806.0150, 716.2859
806.4971, 739.7482
806.9792, 763.4145
807.4613, 787.3840
807.9434, 812.3301
808.4255, 836.8990
808.9077, 858.5323
809.3898, 877.4774
809.8719, 894.8781
810.3540, 911.6667
810.8361, 926.6260
811.3182, 939.0566
811.8004, 948.8471
812.2825, 956.0507
812.7646, 962.0748
813.2467, 963.5323
813.7288, 959.5564
814.2109, 950.8669
814.6931, 939.4949
815.1752, 925.4507
815.6573, 907.7403
816.1394, 885.5645
816.6215, 860.2178
817.1037, 833.0648
817.5858, 804.5851
818.0679, 775.3465
818.5500, 744.1903
819.0322, 713.6880
819.5143, 686.1618
819.9964, 660.4223
820.4785, 634.3487
820.9606, 607.6725
821.4427, 581.2609
821.9249, 554.7515
822.4070, 529.0008
822.8891, 506.2757
823.3712, 486.4203
823.8533, 467.7622
824.3354, 449.6815
824.8176, 433.2384
825.2997, 417.2348
825.7818, 403.1981
826.2639, 389.9037
826.7460, 377.3423
827.2281, 365.1016
827.7103, 352.6352
828.1924, 340.4829
828.6745, 329.1454
829.1566, 318.6998
829.6387, 309.1779
830.1208, 300.7999
830.6030, 293.0088
831.0851, 285.0703
831.5672, 277.2406
832.0493, 270.3283
832.5314, 264.9979
833.0135, 259.6137
833.4957, 252.5741
833.9778, 245.1485
834.4599, 238.7175
834.9420, 234.5209
835.4241, 230.1498
835.9063, 225.4274
836.3884, 220.7494
836.8705, 216.6450
837.3526, 213.1071
837.8347, 209.8533
838.3168, 206.8188
838.7990, 204.0156
839.2811, 201.5435
839.7632, 199.2142
840.2453, 196.8037
840.7274, 194.2764
841.2095, 191.5384
841.6917, 187.8063
842.1738, 184.4055
842.6559, 182.4655
843.1380, 182.6682
843.6201, 181.8065
844.1022, 179.6669
844.5844, 177.1990
845.0665, 175.3213
845.5486, 173.8096
846.0307, 172.0198
846.5128, 169.8788
846.9949, 167.8570
847.4771, 166.2623
847.9592, 164.9198
848.4413, 163.7112
848.9234, 162.6332
849.4055, 161.6632
849.8876, 160.8462
850.3698, 160.0694
850.8519, 159.3089
851.3340, 158.5508
851.8161, 157.6325
852.2982, 156.5538
852.7803, 155.4933
853.2625, 154.5177
853.7446, 153.6713
854.2267, 153.0115
854.7088, 152.5263
855.1909, 152.0620
855.6730, 151.7519
856.1552, 151.2589
856.6373, 150.3732
857.1194, 149.1701
857.6015, 148.2413
858.0836, 147.6044
858.5657, 147.0700
859.0479, 146.5699
859.5300, 146.0914
860.0121, 145.6828
860.4942, 145.2931
860.9763, 144.7406
861.4584, 143.4220
861.9406, 142.4605
862.4227, 142.7309
862.9048, 143.8192
863.3869, 144.2588
863.8690, 143.9439
864.3511, 143.1753
864.8333, 141.7946
865.3154, 140.2750
865.7975, 139.6828
866.2796, 139.8338
866.7617, 139.8810
867.2438, 139.3072
867.7260, 138.9087
868.2081, 139.8408
868.6902, 141.1798
869.1723, 141.5049
869.6544, 139.2381
870.1365, 137.7713
870.6187, 137.5590
871.1008, 137.8946
871.5829, 137.8262
872.0650, 137.3791
872.5471, 137.1299
873.0292, 137.2391
873.5114, 137.1768
873.9935, 135.9807
874.4756, 134.4783
874.9577, 133.8167
875.4399, 134.5338
875.9220, 135.0559
876.4041, 134.8351
876.8862, 134.4207
877.3683, 134.1243
877.8505, 133.9462
878.3326, 133.9196
878.8147, 134.0684
879.2968, 134.1835
879.7789, 134.0230
880.2610, 133.7333
880.7432, 133.6293
881.2253, 133.7140
881.7074, 133.5630
882.1895, 132.3278
882.6716, 131.3981
883.1537, 131.8509
883.6359, 133.5704
884.1180, 134.2878
884.6001, 133.7919
885.0822, 133.2133
885.5643, 133.1865
886.0464, 133.4005
886.5286, 132.8963
887.0107, 131.8982
887.4928, 131.3273
887.9749, 132.2453
888.4570, 133.1435
888.9391, 133.1422
889.4213, 132.4978
889.9034, 132.0947
890.3855, 132.0009
890.8676, 132.0643
891.3497, 132.3185
891.8318, 132.6232
892.3140, 132.6563
892.7961, 132.5008
893.2782, 132.5210
893.7603, 132.9456
894.2424, 133.2877
894.7245, 133.1357
895.2067, 132.7119
895.6888, 132.2754
896.1709, 131.5344
896.6530, 131.3844
897.1351, 132.0299
897.6172, 132.9486
898.0994, 133.7244
898.5815, 134.3277
899.0636, 134.3884
899.5457, 133.8403
900.0278, 133.3011
900.5099, 133.4099
900.9921, 133.6726
901.4742, 133.5441
901.9563, 132.8735
902.4384, 132.5849
902.9205, 132.8771
903.4026, 133.4173
903.8848, 134.1683
904.3669, 135.0626
904.8490, 135.6410
905.3311, 135.8945
905.8132, 135.7183
906.2953, 134.5969
906.7775, 133.3600
907.2596, 132.7855
907.7417, 132.7904
908.2238, 133.0334
908.7059, 133.9418
909.1880, 134.3990
909.6702, 133.9573
910.1523, 133.0684
910.6344, 132.9269
911.1165, 133.5120
911.5986, 133.7663
912.0807, 133.3445
912.5629, 132.6289
913.0450, 131.7302
913.5271, 130.9362
914.0092, 130.6892
914.4913, 131.3907
914.9734, 132.1730
915.4556, 133.1158
915.9377, 133.8864
916.4198, 134.1452
916.9019, 133.8673
917.3840, 133.3629
917.8661, 132.5821
918.3483, 132.1942
918.8304, 133.4230
919.3125, 135.0434
919.7946, 135.4405
920.2767, 134.4388
920.7589, 133.3855
921.2410, 132.3485
921.7231, 131.7266
922.2052, 131.8617
922.6873, 132.6095
923.1694, 132.5759
923.6516, 131.7358
924.1337, 130.9820
924.6158, 130.6156
925.0979, 130.7089
925.5800, 131.8462
926.0621, 133.5089
926.5443, 134.4164
927.0264, 133.2209
927.5085, 132.3766
927.9906, 132.6801
928.4727, 133.3859
928.9548, 133.1657
929.4370, 131.9828
929.9191, 131.0564
930.4012, 130.6619
930.8833, 130.3267
931.3654, 129.1338
931.8475, 127.8423
932.3297, 127.6303
932.8118, 129.1252
933.2939, 130.2169
933.7761, 130.0861
934.2582, 129.7359
934.7403, 129.8169
935.2224, 130.3504
935.7045, 130.2906
936.1866, 129.6274
936.6688, 128.6254
937.1509, 126.8284
937.6330, 125.2359
938.1151, 125.3155
938.5972, 126.7649
939.0793, 127.9007
939.5615, 128.3851
940.0436, 128.2485
940.5257, 127.2839
941.0078, 125.8507
941.4899, 124.9234
941.9720, 124.4896
942.4542, 124.2229
942.9363, 124.0314
943.4184, 123.9591
943.9005, 124.2762
944.3826, 124.6527
944.8647, 124.6067
945.3469, 123.6634
945.8290, 122.9740
946.3111, 122.6853
946.7932, 122.5933
947.2753, 122.5613
947.7574, 122.5848
948.2396, 122.6109
948.7217, 122.6395
949.2038, 122.5291
949.6859, 121.7610
950.1680, 121.1120
950.6501, 121.6511
951.1323, 123.3062
951.6144, 123.8476
952.0965, 122.1253
952.5786, 120.8415
953.0607, 120.9727
953.5428, 121.9974
954.0250, 122.3872
954.5071, 122.2259
954.9892, 121.9930
955.4713, 121.8019
955.9534, 121.7209
956.4355, 121.7881
956.9177, 122.0025
957.3998, 122.3898
957.8819, 123.3228
958.3640, 123.6450
958.8461, 123.0806
959.3282, 122.4142
959.8104, 122.6026
960.2925, 123.3846
960.7746, 123.8271
961.2567, 123.8577
961.7388, 123.9279
962.2209, 124.4617
962.7031, 125.0276
963.1852, 125.2769
963.6673, 125.2195
964.1494, 125.2716
964.6315, 125.3186
965.1136, 125.9137
965.5958, 127.5297
966.0779, 129.5305
966.5600, 130.4915
967.0421, 130.7538
967.5242, 131.2265
968.0063, 132.5669
968.4885, 133.7749
968.9706, 134.3285
969.4527, 134.6340
969.9348, 135.2110
970.4169, 136.1344
970.8990, 136.8733
971.3812, 137.3231
971.8633, 137.9918
972.3454, 139.6774
972.8275, 141.7473
973.3096, 143.1318
973.7917, 143.7434
974.2739, 144.7609
974.7560, 147.0875
975.2381, 149.3869
975.7202, 151.3233
976.2023, 152.8179
976.6844, 153.4426
977.1666, 153.2086
977.6487, 152.5832
978.1308, 151.6809
978.6129, 150.6102
979.0950, 149.6997
979.5771, 148.6332
980.0593, 146.8890
980.5414, 143.6518
981.0235, 140.7210
981.5056, 138.2060
981.9877, 135.9156
982.4698, 133.6226
982.9520, 131.3425
983.4341, 129.0360
983.9162, 126.7083
984.3983, 124.9373
984.8804, 124.5666
985.3625, 124.5479
985.8447, 124.1765
986.3268, 123.4134
986.8089, 122.5488
987.2910, 121.3883
987.7731, 120.7443
988.2552, 121.1047
988.7374, 121.8294
989.2195, 121.4919
989.7016, 120.4504
990.1837, 119.6309
990.6658, 119.4106
991.1479, 119.3248
991.6301, 119.2573
992.1122, 119.1840
992.5944, 119.0856
993.0765, 118.9672
993.5586, 118.8077
994.0407, 118.6090
994.5228, 118.3471
995.0049, 117.7848
995.4871, 117.2783
995.9692, 117.5459
996.4513, 118.4396
996.9334, 118.8103
997.4155, 117.7515
997.8976, 116.7840
998.3798, 116.2394
998.8619, 116.0342
999.3440, 115.9727
999.8261, 116.0573
1000.308, 116.3813
1000.790, 117.1042
1001.272, 117.6115
1001.755, 117.0710
1002.237, 116.2210
1002.719, 115.9267
1003.201, 116.6295
1003.683, 116.7001
1004.165, 115.8340
1004.647, 115.1078
1005.129, 115.5222
1005.612, 116.5545
1006.094, 116.4595
1006.576, 115.5027
1007.058, 114.9295
1007.540, 115.9280
1008.022, 116.8354
1008.504, 116.7486
1008.986, 116.2166
1009.468, 116.2003
1009.951, 116.7704
1010.433, 117.3796
1010.915, 118.0361
1011.397, 118.2948
1011.879, 117.2857
1012.361, 115.7881
1012.843, 114.7236
1013.325, 114.2539
1013.807, 114.0611
1014.290, 114.2046
1014.772, 114.4283
1015.254, 114.6365
1015.736, 114.8339
1016.218, 115.1036
1016.700, 115.4107
1017.182, 115.5515
1017.664, 115.4158
1018.147, 115.1122
1018.629, 114.4539
1019.111, 113.7782
1019.593, 113.6069
1020.075, 114.1088
1020.557, 114.6685
1021.039, 115.3127
1021.521, 115.8093
1022.003, 115.9326
1022.486, 115.7578
1022.968, 115.1908
1023.450, 114.3139
1023.932, 113.9806
1024.414, 115.3748
1024.896, 116.3496
1025.378, 115.9860
1025.860, 114.8452
1026.343, 114.6784
1026.825, 115.3943
1027.307, 115.6205
1027.789, 114.8272
1028.271, 113.9500
1028.753, 113.6822
1029.235, 113.8680
1029.717, 114.4855
1030.199, 115.9183
1030.682, 116.2176
1031.164, 115.0035
1031.646, 113.7203
1032.128, 113.2288
1032.610, 113.3308
1033.092, 113.5495
1033.574, 113.9151
1034.056, 114.5327
1034.539, 116.0528
1035.021, 117.0885
1035.503, 116.9752
1035.985, 116.2965
1036.467, 115.6583
1036.949, 115.0531
1037.431, 115.1028
1037.913, 115.9441
1038.396, 116.7405
1038.878, 116.7270
1039.360, 116.3318
1039.842, 115.8357
1040.324, 115.2803
1040.806, 115.0889
1041.288, 115.5190
1041.770, 115.7178
1042.252, 115.3312
1042.734, 114.6690
1043.217, 114.2782
1043.699, 114.1366
1044.181, 114.1930
1044.663, 114.4903
1045.145, 114.8458
1045.627, 115.3878
1046.109, 115.7881
1046.591, 115.6858
1047.074, 115.0408
1047.556, 115.0911
1048.038, 115.8399
1048.520, 116.4139
1049.002, 116.0181
1049.484, 115.3830
1049.966, 115.0889
1050.448, 115.0690
1050.931, 115.1144
1051.413, 115.2615
1051.895, 115.3210
1052.377, 115.2516
1052.859, 115.1406
1053.341, 115.0035
1053.823, 114.9281
1054.305, 115.2057
1054.787, 115.8706
1055.270, 116.3553
1055.752, 116.3381
1056.234, 116.1451
1056.716, 115.9134
1057.198, 115.6317
1057.680, 115.1895
1058.162, 114.6079
1058.644, 114.2266
1059.126, 114.1801
1059.609, 114.3030
1060.091, 114.6838
1060.573, 115.0229
1061.055, 114.9172
1061.537, 114.1732
1062.019, 113.6062
1062.501, 113.1798
1062.983, 113.0710
1063.466, 113.6757
1063.948, 114.5297
1064.430, 114.7647
1064.912, 114.5109
1065.394, 114.1548
1065.876, 113.5025
1066.358, 113.2533
1066.840, 113.6386
1067.323, 114.3024
1067.805, 114.9398
1068.287, 115.5037
1068.769, 115.4837
1069.251, 114.8448
1069.733, 114.3284
1070.215, 114.4925
1070.697, 114.9171
1071.179, 115.5560
1071.661, 116.2407
1072.144, 116.1713
1072.626, 115.1966
1073.108, 114.4685
1073.590, 114.2485
1074.072, 114.5028
1074.554, 115.8176
1075.036, 117.2816
1075.518, 117.4885
1076.001, 115.7513
1076.483, 114.9277
1076.965, 115.7029
1077.447, 116.4159
1077.929, 116.1123
1078.411, 115.1909
1078.893, 114.7578
1079.375, 114.7065
1079.858, 114.6979
1080.340, 114.6904
1080.822, 114.5572
1081.304, 114.1512
1081.786, 113.6681
1082.268, 113.1743
1082.750, 112.6613
1083.232, 112.8665
1083.714, 113.8009
1084.197, 114.8018
1084.679, 115.6508
1085.161, 116.1522
1085.643, 115.9597
1086.125, 115.2923
1086.607, 114.8922
1087.089, 114.8837
1087.571, 114.7155
1088.054, 114.2241
1088.536, 113.8770
1089.018, 114.5255
1089.500, 115.5212
1089.982, 115.9291
1090.464, 115.6414
1090.946, 115.0769
1091.428, 113.8927
1091.911, 113.1621
1092.393, 113.3422
1092.875, 114.0530
1093.357, 114.4957
1093.839, 114.6973
1094.321, 114.7074
1094.803, 114.4300
1095.285, 114.3224
1095.767, 114.8427
1096.250, 115.3931
1096.732, 115.5876
1097.214, 115.4381
1097.696, 115.0570
1098.178, 114.4694
1098.660, 114.2144
1099.142, 114.9452
1099.624, 115.6626
1100.106, 115.3775
1100.589, 114.6713
1101.071, 114.4562
1101.553, 114.8115
1102.035, 115.6666
1102.517, 117.1844
1102.999, 118.2763
1103.481, 117.5527
1103.963, 116.1664
1104.446, 115.7217
1104.928, 116.0210
1105.410, 116.0123
1105.892, 115.0004
1106.374, 114.5045
1106.856, 114.8969
1107.338, 115.5326
1107.820, 115.4526
1108.302, 114.9514
1108.785, 114.7696
1109.267, 114.9926
1109.749, 115.1967
1110.231, 115.1627
1110.713, 115.1140
1111.195, 115.0854
1111.677, 115.1308
1112.159, 115.5933
1112.641, 116.3389
1113.124, 116.4242
1113.606, 115.4488
1114.088, 114.5001
1114.570, 114.2646
1115.052, 114.4010
1115.534, 114.7427
1116.016, 115.2555
1116.498, 115.3706
1116.981, 115.0695
1117.463, 114.9774
1117.945, 115.4595
1118.427, 116.1201
1118.909, 116.7682
1119.391, 117.2558
1119.873, 117.3691
1120.355, 117.1396
1120.838, 116.2132
1121.320, 114.3181
1121.802, 112.8913
1122.284, 113.4102
1122.766, 114.7112
1123.248, 115.0262
1123.730, 114.6504
1124.212, 114.4096
1124.694, 114.5943
1125.177, 114.8999
1125.659, 115.4072
1126.141, 115.8318
1126.623, 115.8563
1127.105, 115.5651
1127.587, 115.0012
1128.069, 114.2550
1128.551, 113.9356
1129.033, 114.7881
1129.516, 115.5093
1129.998, 115.7358
1130.480, 115.6438
1130.962, 115.4411
1131.444, 115.1712
1131.926, 115.1559
1132.408, 115.4615
1132.890, 115.4973
1133.373, 114.3086
1133.855, 113.3470
1134.337, 113.6565
1134.819, 114.7917
1135.301, 115.1829
1135.783, 114.8545
1136.265, 114.5104
1136.747, 114.3022
1137.229, 114.2469
1137.712, 114.4714
1138.194, 114.7714
1138.676, 114.9632
1139.158, 115.0426
1139.640, 115.1373
1140.122, 115.2656
1140.604, 115.2005
1141.086, 114.7183
1141.569, 114.2417
1142.051, 114.3531
1142.533, 114.7077
1143.015, 114.8092
1143.497, 114.4398
1143.979, 114.3613
1144.461, 114.6474
1144.943, 114.9339
1145.426, 114.9749
1145.908, 114.8964
1146.390, 114.8470
1146.872, 114.8405
1147.354, 114.9065
1147.836, 115.3738
1148.318, 115.3383
1148.800, 114.5877
1149.282, 113.7887
1149.765, 113.4816
1150.247, 113.5488
1150.729, 113.8301
1151.211, 114.2637
1151.693, 114.6238
1152.175, 114.7115
1152.657, 114.8998
1153.139, 115.3530
1153.621, 115.7675
1154.104, 115.7192
1154.586, 115.3376
1155.068, 114.9776
1155.550, 114.6809
1156.032, 114.6221
1156.514, 115.2293
1156.996, 115.6435
1157.478, 115.4863
1157.961, 115.8244
1158.443, 115.2234
1158.925, 115.7094
1159.407, 115.7479
1159.889, 115.2169
1160.371, 114.6044
1160.853, 113.8660
1161.335, 113.5130
1161.818, 114.0619
1162.300, 115.0686
1162.782, 115.1226
1163.264, 114.3178
1163.746, 113.8926
1164.228, 114.1999
1164.710, 114.3927
1165.192, 113.2271
1165.674, 112.2819
1166.156, 113.1479
1166.639, 115.3761
1167.121, 115.9525
1167.603, 114.8849
1168.085, 113.8945
1168.567, 113.5448
1169.049, 113.3776
1169.531, 112.8744
1170.013, 112.4467
1170.496, 112.6395
1170.978, 113.4630
1171.460, 113.7915
1171.942, 113.5955
1172.424, 113.4512
1172.906, 113.6345
1173.388, 113.9376
1173.870, 114.3758
1174.353, 114.6939
1174.835, 114.4253
1175.317, 113.3615
1175.799, 112.9856
1176.281, 113.3978
1176.763, 113.6660
1177.245, 112.9510
1177.727, 112.1642
1178.209, 112.4433
1178.692, 113.3389
1179.174, 114.1328
1179.656, 114.9119
1180.138, 115.0221
1180.620, 114.3557
1181.102, 113.5726
1181.584, 113.1767
1182.066, 112.9122
1182.548, 112.2724
1183.031, 112.2877
1183.513, 112.3954
1183.995, 112.3027
1184.477, 112.9381
1184.959, 113.2247
1185.441, 113.2863
1185.923, 113.0786
1186.405, 112.8163
1186.888, 112.9388
1187.370, 113.2843
1187.852, 113.2101
1188.334, 112.0430
1188.816, 111.6942
1189.298, 112.4697
1189.780, 113.6275
1190.262, 114.7185
1190.745, 115.5166
1191.227, 115.6612
1191.709, 115.1780
1192.191, 114.2483
1192.673, 112.3433
1193.155, 111.1628
1193.637, 111.0354
1194.119, 111.3972
1194.601, 111.7487
1195.084, 112.0465
1195.566, 112.1443
1196.048, 112.0693
1196.530, 112.2118
1197.012, 112.9252
1197.494, 113.2780
1197.976, 113.0257
1198.458, 112.5122
1198.941, 112.2010
1199.423, 111.9740
1199.905, 111.4775
1200.387, 110.6976
1200.869, 110.6456
1201.351, 112.2098
1201.833, 112.9944
1202.315, 112.1401
1202.797, 110.8126
1203.280, 111.0006
1203.762, 112.0017
1204.244, 112.6583
1204.726, 112.7906
1205.208, 112.6195
1205.690, 111.8625
1206.172, 111.5260
1206.654, 112.0726
1207.136, 112.8954
1207.619, 112.9509
1208.101, 112.5135
1208.583, 111.9939
1209.065, 111.4250
1209.547, 111.0975
1210.029, 111.1097
1210.511, 111.1930
1210.993, 111.2507
1211.476, 111.3278
1211.958, 111.6047
1212.440, 111.9295
1212.922, 111.9226
1213.404, 111.3509
1213.886, 111.4127
1214.368, 112.5858
1214.850, 113.5173
1215.333, 113.6591
1215.815, 113.2238
1216.297, 112.1448
1216.779, 110.9193
1217.261, 110.5031
1217.743, 111.3266
1218.225, 112.1092
1218.707, 112.7967
1219.189, 113.2644
1219.672, 113.4692
1220.154, 113.4017
1220.636, 112.7271
1221.118, 111.8737
1221.600, 111.6948
1222.082, 112.7912
1222.564, 113.1962
1223.046, 112.5618
1223.528, 112.0414
1224.011, 112.3992
1224.493, 113.0249
1224.975, 112.7813
1225.457, 112.0843
1225.939, 111.6343
1226.421, 111.5758
1226.903, 111.9695
1227.385, 113.0332
1227.868, 113.7508
1228.350, 113.3482
1228.832, 112.5054
1229.314, 112.2698
1229.796, 112.3372
1230.278, 112.1942
1230.760, 111.6907
1231.242, 111.0233
1231.724, 110.0733
1232.207, 109.5051
1232.689, 109.8084
1233.171, 110.6078
1233.653, 111.9669
1234.135, 113.2860
1234.617, 113.4089
1235.099, 111.5773
1235.581, 110.8077
1236.063, 111.2320
1236.546, 111.8525
1237.028, 112.1129
1237.510, 112.1962
1237.992, 112.2533
1238.474, 112.2845
1238.956, 112.2527
1239.438, 112.0497
1239.920, 112.3724
1240.403, 113.2763
1240.885, 113.8648
1241.367, 113.3159
1241.849, 112.4533
1242.331, 111.9525
1242.813, 111.6148
1243.295, 111.0697
1243.777, 111.0315
1244.260, 110.1182
1244.742, 111.0369
1245.224, 111.8866
1245.706, 112.0712
1246.188, 111.9561
1246.670, 111.6657
1247.152, 111.2899
1247.634, 110.9508
1248.116, 110.6437
1248.599, 110.2919
1249.081, 109.9263
1249.563, 109.9843
1250.045, 111.3140
1250.527, 112.4574
1251.009, 112.5651
1251.491, 112.1289
1251.973, 111.5126
1252.455, 110.7403
1252.938, 110.3778
1253.420, 110.4184
1253.902, 110.7451
1254.384, 111.4406
1254.866, 112.2370
1255.348, 113.3445
1255.830, 114.2076
1256.313, 114.2037
1256.795, 113.4707
1257.277, 112.7775
1257.759, 112.1446
1258.241, 111.6317
1258.723, 111.0261
1259.205, 110.9249
1259.687, 111.6115
1260.169, 112.5006
1260.651, 113.2612
1261.134, 113.7758
1261.616, 113.4671
1262.098, 112.5536
1262.580, 111.7998
1263.062, 111.3854
1263.544, 111.4043
1264.026, 112.0773
1264.508, 112.6489
1264.991, 112.2338
1265.473, 111.4190
1265.955, 111.4187
1266.437, 111.9622
1266.919, 112.3116
1267.401, 112.2373
1267.883, 111.9991
1268.365, 111.5608
1268.848, 111.1195
1269.330, 110.7118
1269.812, 110.4833
1270.294, 110.7919
1270.776, 111.3864
1271.258, 111.6807
1271.740, 111.4651
1272.222, 111.4918
1272.704, 111.7844
1273.187, 112.1771
1273.669, 112.7453
1274.151, 113.1725
1274.633, 113.0902
1275.115, 112.7110
1275.597, 112.3671
1276.079, 112.0565
1276.561, 111.9010
1277.043, 111.8983
1277.526, 111.9210
1278.008, 111.7429
1278.490, 111.7430
1278.972, 112.5189
1279.454, 113.3061
1279.936, 113.2509
1280.418, 112.3895
1280.900, 111.5629
1281.383, 110.8520
1281.865, 110.7572
1282.347, 112.2858
1282.829, 113.3861
1283.311, 113.2202
1283.793, 112.5713
1284.275, 111.7836
1284.757, 111.0102
1285.240, 111.0054
1285.722, 111.5881
1286.204, 112.1801
1286.686, 112.6961
1287.168, 112.9587
1287.650, 112.9513
1288.132, 112.7389
1288.614, 112.2658
1289.096, 111.6925
1289.578, 111.3057
1290.061, 111.0818
1290.543, 110.9855
1291.025, 111.1184
1291.507, 111.0180
1291.989, 110.5389
1292.471, 110.5256
1292.953, 111.7942
1293.435, 113.3497
1293.918, 114.2953
1294.400, 114.6083
1294.882, 114.0265
1295.364, 112.4082
1295.846, 111.7943
1296.328, 112.2058
1296.810, 112.5561
1297.292, 112.2573
1297.775, 111.8451
1298.257, 111.6768
1298.739, 111.6631
1299.221, 111.7231
1299.703, 111.8449
1300.185, 111.8652
1300.667, 111.8300
1301.149, 112.0648
1301.631, 112.9173
1302.114, 113.3991
1302.596, 113.3002
##END=



