##NAMES=Chalcophanite
##RRUFFID=R050605
##IDEAL CHEMISTRY=Zn^2+^Mn^4+^_3_O_7_&#183;3H_2_O
##LOCALITY=Mina Ojuela, Mapimi, Durango, Mexico
##OWNER=RRUFF
##SOURCE=University of Arizona Mineral Museum
##DESCRIPTION=Druse of grayish black pseudo-octahedra
##STATUS=The identification of this mineral has been confirmed by single-crystal X-ray diffraction.
##URL=rruff.info/R050605
92.06543, 46.93649
92.54755, 46.59114
93.02966, 46.73321
93.51178, 47.64113
93.99390, 47.88346
94.47601, 46.92272
94.95813, 45.24688
95.44025, 43.83018
95.92236, 43.54711
96.40448, 44.51891
96.88660, 44.42329
97.36871, 42.20965
97.85082, 39.96963
98.33294, 39.38587
98.81506, 40.64233
99.29717, 42.12273
99.77929, 41.90216
100.2614, 40.17508
100.7435, 39.14114
101.2256, 39.89165
101.7078, 41.68332
102.1899, 42.75559
102.6720, 42.35431
103.1541, 41.69630
103.6362, 41.88165
104.1183, 42.88794
104.6005, 44.24291
105.0826, 45.80652
105.5647, 47.70742
106.0468, 48.87514
106.5289, 48.72984
107.0110, 47.99275
107.4931, 46.85345
107.9753, 45.37996
108.4574, 43.86921
108.9395, 42.92303
109.4216, 42.89600
109.9037, 42.93433
110.3858, 42.68856
110.8680, 42.52778
111.3501, 43.02054
111.8322, 44.52485
112.3143, 46.73613
112.7964, 47.67610
113.2785, 45.68161
113.7607, 44.28900
114.2428, 44.78042
114.7249, 46.68140
115.2070, 48.68677
115.6891, 49.90251
116.1712, 50.27728
116.6534, 50.34117
117.1355, 49.64226
117.6176, 48.95711
118.0997, 49.05930
118.5818, 50.05584
119.0639, 51.02600
119.5461, 50.65802
120.0282, 49.45708
120.5103, 49.05902
120.9924, 50.44014
121.4745, 52.94227
121.9566, 55.18925
122.4388, 57.41352
122.9209, 58.69542
123.4030, 58.21511
123.8851, 56.34968
124.3672, 54.40048
124.8493, 53.27252
125.3315, 52.98426
125.8136, 53.18154
126.2957, 54.64334
126.7778, 56.01515
127.2599, 56.71257
127.7420, 56.68223
128.2242, 56.26966
128.7063, 55.92531
129.1884, 55.73484
129.6705, 55.42494
130.1526, 55.14822
130.6347, 54.69073
131.1169, 53.93661
131.5990, 52.83792
132.0811, 51.36529
132.5632, 49.43868
133.0453, 45.83821
133.5274, 43.27739
134.0096, 42.58460
134.4917, 42.88447
134.9738, 42.94519
135.4559, 42.17438
135.9380, 40.84112
136.4201, 39.85517
136.9023, 39.04647
137.3844, 38.68195
137.8665, 39.37047
138.3486, 40.81549
138.8307, 41.58496
139.3128, 40.49794
139.7950, 38.31536
140.2771, 36.93663
140.7592, 36.87985
141.2413, 37.22295
141.7234, 36.94402
142.2055, 35.88916
142.6877, 35.01534
143.1698, 35.23505
143.6519, 35.84505
144.1340, 36.00746
144.6161, 35.22482
145.0982, 33.88977
145.5803, 33.00781
146.0625, 32.66523
146.5446, 32.71452
147.0267, 33.20105
147.5088, 33.95760
147.9909, 34.76628
148.4730, 35.54186
148.9552, 36.26827
149.4373, 36.60261
149.9194, 36.02479
150.4015, 35.50606
150.8836, 35.36544
151.3657, 35.50255
151.8479, 35.59499
152.3300, 35.30523
152.8121, 34.47211
153.2942, 34.29363
153.7763, 35.50725
154.2584, 36.59872
154.7406, 36.71630
155.2227, 35.85838
155.7048, 34.62829
156.1869, 33.61258
156.6690, 32.79008
157.1511, 32.53377
157.6333, 33.31076
158.1154, 34.37864
158.5975, 35.07362
159.0796, 35.25141
159.5617, 35.20452
160.0438, 35.30964
160.5260, 35.58063
161.0081, 35.75926
161.4902, 35.71980
161.9723, 35.55920
162.4544, 35.48674
162.9365, 35.61732
163.4187, 35.70366
163.9008, 35.42482
164.3829, 34.80253
164.8650, 34.16196
165.3471, 33.65248
165.8292, 33.26936
166.3113, 32.97301
166.7935, 32.62488
167.2756, 32.52471
167.7577, 33.03033
168.2398, 34.12634
168.7219, 35.20430
169.2040, 35.69465
169.6862, 35.54921
170.1683, 35.13927
170.6504, 33.91940
171.1325, 32.85453
171.6146, 32.54227
172.0967, 33.08149
172.5789, 34.06900
173.0610, 35.03950
173.5431, 36.27600
174.0252, 36.77658
174.5073, 36.00261
174.9894, 34.91021
175.4716, 34.13203
175.9537, 33.88828
176.4358, 34.04622
176.9179, 34.38245
177.4000, 35.51764
177.8821, 35.91584
178.3643, 34.91759
178.8464, 33.46934
179.3285, 32.57649
179.8106, 32.64846
180.2927, 33.29618
180.7748, 33.45893
181.2570, 32.39793
181.7391, 31.76905
182.2212, 31.98089
182.7033, 32.69490
183.1854, 33.43719
183.6675, 34.01058
184.1497, 34.43351
184.6318, 34.78404
185.1139, 35.42814
185.5960, 35.52354
186.0781, 34.15113
186.5602, 31.88686
187.0423, 30.49515
187.5245, 31.12587
188.0066, 32.88356
188.4887, 33.48153
188.9708, 32.20984
189.4529, 31.03445
189.9350, 31.60020
190.4172, 33.71207
190.8993, 35.24500
191.3814, 34.97209
191.8635, 33.66424
192.3456, 32.41516
192.8277, 31.21929
193.3099, 30.32318
193.7920, 29.97043
194.2741, 30.18144
194.7562, 30.79454
195.2383, 32.57587
195.7204, 34.36920
196.2026, 35.03465
196.6847, 34.10897
197.1668, 32.49061
197.6489, 31.46502
198.1310, 31.09389
198.6131, 31.18443
199.0953, 32.19941
199.5774, 33.36599
200.0595, 33.92929
200.5416, 33.57209
201.0237, 32.70123
201.5058, 32.20390
201.9880, 32.21107
202.4701, 32.39671
202.9522, 32.68118
203.4343, 33.08458
203.9164, 33.67686
204.3985, 34.49506
204.8807, 35.42389
205.3628, 36.11594
205.8449, 36.49302
206.3270, 36.68729
206.8091, 36.56716
207.2912, 36.33199
207.7733, 36.23011
208.2555, 36.39064
208.7376, 36.70933
209.2197, 36.79715
209.7018, 36.16005
210.1839, 35.84666
210.6660, 36.28273
211.1482, 37.03984
211.6303, 37.45812
212.1124, 37.16887
212.5945, 36.41963
213.0766, 36.23806
213.5587, 37.07532
214.0409, 37.89066
214.5230, 38.65217
215.0051, 39.24068
215.4872, 39.39145
215.9693, 38.90467
216.4514, 37.99102
216.9336, 37.47238
217.4157, 37.57529
217.8978, 37.67383
218.3799, 37.51678
218.8620, 37.19543
219.3441, 36.90552
219.8263, 36.68866
220.3084, 36.63369
220.7905, 37.04100
221.2726, 38.54017
221.7547, 39.42091
222.2368, 38.33942
222.7190, 35.76015
223.2011, 33.58185
223.6832, 32.67247
224.1653, 32.62533
224.6474, 32.41365
225.1295, 31.76917
225.6117, 31.57951
226.0938, 33.00236
226.5759, 35.77462
227.0580, 37.55951
227.5401, 36.91178
228.0222, 35.23769
228.5043, 34.36765
228.9865, 34.51050
229.4686, 34.97948
229.9507, 35.25535
230.4328, 35.33931
230.9149, 35.44722
231.3970, 35.86967
231.8792, 36.15613
232.3613, 35.74503
232.8434, 34.51420
233.3255, 33.36510
233.8076, 33.38637
234.2897, 34.71096
234.7719, 35.64241
235.2540, 35.33972
235.7361, 34.81798
236.2182, 34.65383
236.7003, 34.93534
237.1824, 35.49148
237.6646, 36.42186
238.1467, 37.97710
238.6288, 38.49298
239.1109, 36.27758
239.5930, 33.97176
240.0751, 32.99849
240.5573, 33.50028
241.0394, 34.64149
241.5215, 35.53545
242.0036, 36.15587
242.4857, 36.64027
242.9678, 37.18368
243.4500, 37.44994
243.9321, 36.99067
244.4142, 35.91616
244.8963, 34.91583
245.3784, 34.89177
245.8605, 36.24163
246.3427, 37.10794
246.8248, 37.54801
247.3069, 37.50520
247.7890, 36.63859
248.2711, 35.11934
248.7532, 33.60078
249.2354, 32.74780
249.7175, 32.65007
250.1996, 32.89994
250.6817, 34.10917
251.1638, 35.08867
251.6459, 35.06059
252.1281, 34.17766
252.6102, 33.23539
253.0923, 33.02827
253.5744, 33.70842
254.0565, 34.20028
254.5386, 34.41721
255.0208, 34.56444
255.5029, 34.67992
255.9850, 34.79791
256.4671, 35.02074
256.9492, 35.50381
257.4313, 36.32959
257.9135, 36.36385
258.3956, 34.76911
258.8777, 33.37317
259.3598, 32.94021
259.8419, 33.38578
260.3240, 34.32058
260.8062, 35.55959
261.2883, 37.09491
261.7704, 37.76632
262.2525, 37.05330
262.7346, 36.22831
263.2167, 35.79427
263.6989, 35.66778
264.1810, 35.57241
264.6631, 35.35979
265.1452, 35.01391
265.6273, 34.38462
266.1094, 32.69223
266.5916, 31.59289
267.0737, 31.90918
267.5558, 33.28809
268.0379, 35.01995
268.5200, 36.87964
269.0021, 38.63222
269.4843, 39.24276
269.9664, 37.67243
270.4485, 36.47819
270.9306, 36.83948
271.4127, 38.15198
271.8948, 39.12297
272.3770, 39.15120
272.8591, 38.56504
273.3412, 38.14501
273.8233, 37.69316
274.3054, 37.70777
274.7875, 38.75604
275.2697, 40.33053
275.7518, 41.43431
276.2339, 41.66424
276.7160, 41.43234
277.1981, 41.47749
277.6802, 41.80791
278.1623, 42.21833
278.6444, 42.79842
279.1266, 43.39352
279.6087, 43.64937
280.0908, 43.39769
280.5729, 43.08737
281.0550, 43.42577
281.5371, 44.39933
282.0193, 45.33537
282.5014, 46.27719
282.9835, 47.01348
283.4656, 47.05718
283.9477, 46.21107
284.4298, 45.32703
284.9120, 45.44227
285.3941, 46.41371
285.8762, 47.28155
286.3583, 47.73137
286.8404, 48.03051
287.3225, 48.55365
287.8047, 49.36325
288.2868, 50.12372
288.7689, 50.53796
289.2510, 50.67278
289.7331, 50.77394
290.2152, 50.78019
290.6974, 50.82748
291.1795, 51.01070
291.6616, 51.32878
292.1437, 51.89658
292.6258, 52.97758
293.1079, 54.33398
293.5901, 55.42686
294.0722, 56.30868
294.5543, 56.79561
295.0364, 56.54033
295.5185, 55.58459
296.0006, 54.72779
296.4828, 54.49783
296.9649, 54.48350
297.4470, 53.89354
297.9291, 52.40852
298.4112, 51.04170
298.8933, 50.65059
299.3755, 51.08221
299.8576, 51.41510
300.3397, 51.42649
300.8218, 51.09624
301.3039, 50.43183
301.7860, 49.40890
302.2682, 48.27637
302.7503, 46.96389
303.2324, 45.61126
303.7145, 44.70235
304.1966, 44.39936
304.6787, 44.48436
305.1609, 44.98341
305.6430, 45.82332
306.1251, 46.12616
306.6072, 44.94262
307.0893, 43.02549
307.5714, 42.18676
308.0536, 42.98067
308.5357, 43.85671
309.0178, 43.18217
309.4999, 41.49155
309.9820, 40.19627
310.4641, 40.16465
310.9463, 40.62907
311.4284, 40.29169
311.9105, 38.94126
312.3926, 37.83808
312.8747, 38.08931
313.3568, 39.11175
313.8390, 39.89986
314.3211, 40.21718
314.8032, 40.27856
315.2853, 40.27304
315.7674, 40.20010
316.2495, 40.07362
316.7317, 39.84310
317.2138, 39.59307
317.6959, 39.45127
318.1780, 39.44619
318.6601, 39.49852
319.1422, 39.61848
319.6243, 39.77872
320.1064, 39.77625
320.5886, 39.50146
321.0707, 39.07947
321.5528, 38.59028
322.0349, 38.00377
322.5170, 37.67765
322.9991, 38.08867
323.4813, 38.92231
323.9634, 39.17640
324.4455, 38.42695
324.9276, 37.59866
325.4097, 37.85631
325.8918, 38.95967
326.3740, 39.68126
326.8561, 39.16766
327.3382, 38.15338
327.8203, 37.85884
328.3024, 38.46702
328.7845, 39.30967
329.2667, 40.06408
329.7488, 40.67120
330.2309, 40.95095
330.7130, 40.79238
331.1951, 40.34297
331.6772, 39.57202
332.1594, 38.48854
332.6415, 37.68386
333.1236, 37.52446
333.6057, 37.85143
334.0878, 38.26510
334.5699, 38.86035
335.0521, 39.34352
335.5342, 39.45573
336.0163, 39.27262
336.4984, 39.14836
336.9805, 39.27002
337.4626, 39.40730
337.9448, 39.13084
338.4269, 38.36327
338.9090, 37.76839
339.3911, 37.64132
339.8732, 37.85822
340.3553, 38.27718
340.8375, 38.93745
341.3196, 39.51355
341.8017, 39.53842
342.2838, 39.07061
342.7659, 38.68603
343.2480, 38.22459
343.7302, 38.04938
344.2123, 38.76373
344.6944, 40.39263
345.1765, 42.04071
345.6586, 43.17402
346.1407, 43.72435
346.6229, 43.79043
347.1050, 42.95064
347.5871, 42.00066
348.0692, 41.34548
348.5513, 40.97028
349.0334, 40.81976
349.5156, 40.92790
349.9977, 41.18303
350.4798, 41.28372
350.9619, 41.22345
351.4440, 41.06591
351.9261, 40.68217
352.4083, 40.24712
352.8904, 40.08466
353.3725, 40.31098
353.8546, 40.69891
354.3367, 40.90362
354.8188, 40.84147
355.3010, 40.96099
355.7831, 41.26280
356.2652, 41.78629
356.7473, 42.79618
357.2294, 44.24142
357.7115, 45.40070
358.1937, 45.52466
358.6758, 44.55548
359.1579, 44.29686
359.6400, 45.28605
360.1221, 46.38491
360.6042, 47.28778
361.0863, 47.86927
361.5685, 47.73045
362.0506, 46.50221
362.5327, 44.64685
363.0148, 44.11253
363.4969, 46.25610
363.9790, 47.92614
364.4612, 48.36278
364.9433, 48.21414
365.4254, 48.30149
365.9075, 48.88780
366.3896, 49.57793
366.8717, 49.69592
367.3539, 48.72390
367.8360, 48.37679
368.3181, 48.79456
368.8002, 49.67496
369.2823, 51.10530
369.7644, 52.90045
370.2466, 54.49901
370.7287, 55.38890
371.2108, 55.53894
371.6929, 55.44353
372.1750, 54.55204
372.6571, 54.01807
373.1393, 54.67056
373.6214, 55.84374
374.1035, 56.24117
374.5856, 55.08428
375.0677, 53.04956
375.5498, 52.38258
376.0320, 54.32978
376.5141, 55.85979
376.9962, 56.79523
377.4783, 57.19244
377.9604, 56.95144
378.4425, 56.10998
378.9247, 55.03788
379.4068, 54.27296
379.8889, 53.98304
380.3710, 53.40953
380.8531, 51.89020
381.3352, 50.68147
381.8174, 50.70583
382.2995, 51.59164
382.7816, 52.18940
383.2637, 51.57651
383.7458, 49.92731
384.2279, 48.36573
384.7101, 46.46338
385.1922, 45.38062
385.6743, 46.14506
386.1564, 47.54371
386.6385, 48.03323
387.1206, 46.93151
387.6028, 45.12993
388.0849, 43.97034
388.5670, 43.52348
389.0491, 43.40265
389.5312, 43.75835
390.0133, 44.26494
390.4955, 45.01215
390.9776, 45.90852
391.4597, 46.13530
391.9418, 44.62649
392.4239, 41.72305
392.9060, 39.35615
393.3882, 37.37347
393.8703, 36.50748
394.3524, 38.02272
394.8345, 40.89732
395.3166, 42.89810
395.7987, 42.64941
396.2809, 41.55012
396.7630, 41.71206
397.2451, 43.24683
397.7272, 44.30414
398.2093, 43.74633
398.6914, 42.39496
399.1736, 41.61433
399.6557, 41.59296
400.1378, 41.64851
400.6199, 41.16808
401.1020, 40.44749
401.5841, 40.46127
402.0662, 41.65627
402.5483, 42.94501
403.0305, 42.81498
403.5126, 41.37255
403.9947, 40.30318
404.4768, 39.86787
404.9589, 39.95538
405.4410, 40.91513
405.9232, 42.58134
406.4053, 43.51388
406.8874, 42.49648
407.3695, 40.04046
407.8516, 38.81788
408.3337, 39.65101
408.8159, 40.57737
409.2980, 41.03826
409.7801, 41.19126
410.2622, 41.25330
410.7443, 41.29594
411.2264, 41.36127
411.7086, 41.51897
412.1907, 41.80653
412.6728, 42.10485
413.1549, 42.54348
413.6370, 42.89148
414.1191, 42.96700
414.6013, 42.79087
415.0834, 42.49660
415.5655, 42.16938
416.0476, 41.81842
416.5297, 41.62910
417.0118, 41.73161
417.4940, 41.85407
417.9761, 41.85468
418.4582, 41.88733
418.9403, 42.25392
419.4224, 43.05384
419.9045, 43.89895
420.3867, 44.03742
420.8688, 43.08247
421.3509, 42.45096
421.8330, 42.66003
422.3151, 42.80160
422.7972, 42.09311
423.2794, 40.78584
423.7615, 39.90264
424.2436, 40.40795
424.7257, 42.05684
425.2078, 43.19741
425.6899, 43.65957
426.1721, 43.88155
426.6542, 43.96425
427.1363, 43.95362
427.6184, 43.90499
428.1005, 43.83878
428.5826, 43.72204
429.0648, 43.46207
429.5469, 43.05349
430.0290, 42.79816
430.5111, 42.90068
430.9932, 43.02187
431.4753, 42.82463
431.9575, 42.34850
432.4396, 41.91802
432.9217, 41.41289
433.4038, 41.14441
433.8859, 41.90319
434.3680, 43.84790
434.8502, 45.60796
435.3323, 46.31741
435.8144, 46.17446
436.2965, 45.86214
436.7786, 45.16599
437.2607, 44.65832
437.7429, 44.84722
438.2250, 45.44478
438.7071, 45.75230
439.1892, 45.52711
439.6713, 45.11669
440.1534, 45.06007
440.6356, 45.52242
441.1177, 45.54173
441.5998, 44.50523
442.0819, 43.45430
442.5640, 43.21672
443.0461, 43.70242
443.5282, 44.35182
444.0103, 44.84502
444.4925, 45.13076
444.9746, 44.89560
445.4567, 42.99177
445.9388, 41.99809
446.4209, 42.79380
446.9030, 44.31601
447.3852, 45.73349
447.8673, 46.72880
448.3494, 47.10717
448.8315, 46.45644
449.3136, 44.43689
449.7957, 43.10072
450.2779, 42.78731
450.7600, 42.83875
451.2421, 43.40651
451.7242, 44.13957
452.2063, 44.34631
452.6884, 43.52816
453.1706, 42.29534
453.6527, 42.28496
454.1348, 44.06248
454.6169, 45.27156
455.0990, 44.72490
455.5811, 43.78911
456.0633, 43.37010
456.5454, 43.55164
457.0275, 43.84465
457.5096, 43.79541
457.9917, 43.55872
458.4738, 43.79931
458.9560, 44.77779
459.4381, 45.60665
459.9202, 45.43640
460.4023, 44.73359
460.8844, 44.34301
461.3665, 44.41415
461.8487, 44.82389
462.3308, 45.82153
462.8129, 47.14523
463.2950, 47.77739
463.7771, 47.26025
464.2592, 46.29998
464.7414, 45.97806
465.2235, 46.44004
465.7056, 46.45798
466.1877, 45.05300
466.6698, 43.79092
467.1519, 44.19289
467.6341, 46.02060
468.1162, 47.84168
468.5983, 48.71970
469.0804, 48.89539
469.5625, 49.44194
470.0446, 51.22692
470.5268, 52.27312
471.0089, 51.63591
471.4910, 50.65330
471.9731, 50.79057
472.4552, 52.19733
472.9373, 53.69939
473.4195, 53.91792
473.9016, 52.71735
474.3837, 52.07340
474.8658, 52.22709
475.3479, 52.73028
475.8300, 53.81005
476.3122, 55.04913
476.7943, 55.92736
477.2764, 56.23328
477.7585, 56.04842
478.2406, 55.16707
478.7227, 53.40132
479.2049, 52.75955
479.6870, 54.74191
480.1691, 56.78421
480.6512, 56.82800
481.1333, 55.21174
481.6154, 53.68014
482.0976, 53.04753
482.5797, 53.00322
483.0618, 53.26356
483.5439, 53.84328
484.0260, 53.97262
484.5081, 52.92797
484.9902, 51.44381
485.4724, 51.22902
485.9545, 52.91170
486.4366, 53.94351
486.9187, 52.82426
487.4008, 50.83092
487.8829, 49.69240
488.3651, 49.65827
488.8472, 49.93320
489.3293, 49.81134
489.8114, 49.29725
490.2935, 49.13951
490.7756, 49.67030
491.2578, 50.10091
491.7399, 50.04103
492.2220, 49.81415
492.7041, 49.91481
493.1862, 50.49163
493.6683, 51.20520
494.1505, 51.50829
494.6326, 51.20292
495.1147, 51.26948
495.5968, 52.12889
496.0789, 52.95524
496.5610, 53.43786
497.0432, 53.66566
497.5253, 53.80564
498.0074, 53.88888
498.4895, 54.07480
498.9716, 54.86754
499.4537, 56.47054
499.9359, 57.34578
500.4180, 56.44169
500.9001, 55.30629
501.3822, 55.25565
501.8643, 56.22974
502.3464, 57.35756
502.8286, 58.24156
503.3107, 59.03232
503.7928, 59.97871
504.2749, 61.08703
504.7570, 62.27705
505.2391, 63.68462
505.7213, 65.01340
506.2034, 65.37843
506.6855, 64.24074
507.1676, 63.51964
507.6497, 64.07217
508.1318, 65.11608
508.6140, 65.98849
509.0961, 66.50439
509.5782, 66.29958
510.0603, 64.85043
510.5424, 62.28191
511.0245, 61.26665
511.5067, 64.06961
511.9888, 65.68627
512.4709, 64.92628
512.9530, 62.75208
513.4351, 59.80054
513.9172, 56.41673
514.3994, 53.42702
514.8815, 51.97988
515.3636, 52.19961
515.8457, 52.22686
516.3278, 51.96326
516.8099, 51.62782
517.2921, 51.24128
517.7742, 50.86892
518.2563, 50.70015
518.7384, 50.92311
519.2205, 50.93479
519.7026, 49.76907
520.1848, 47.62569
520.6669, 45.98183
521.1490, 44.99027
521.6311, 44.88676
522.1132, 46.73203
522.5953, 50.04482
523.0775, 51.96291
523.5596, 50.85521
524.0417, 49.22064
524.5238, 48.77838
525.0059, 49.24343
525.4880, 49.74313
525.9702, 49.93971
526.4523, 49.89620
526.9344, 49.72166
527.4165, 49.44718
527.8986, 48.92434
528.3807, 47.69651
528.8629, 46.66171
529.3450, 46.39100
529.8271, 46.71585
530.3092, 47.17220
530.7913, 47.50131
531.2734, 47.78911
531.7556, 48.28604
532.2377, 49.12297
532.7198, 49.79350
533.2019, 50.27227
533.6840, 50.51937
534.1661, 50.44253
534.6483, 50.08815
535.1304, 49.63499
535.6125, 49.05444
536.0946, 48.51778
536.5767, 48.36763
537.0588, 48.61745
537.5410, 49.01698
538.0231, 49.69191
538.5052, 50.23969
538.9873, 49.73717
539.4694, 47.91581
539.9515, 47.12344
540.4337, 48.95560
540.9158, 51.48494
541.3979, 52.87299
541.8800, 53.08732
542.3621, 52.79598
542.8442, 52.31209
543.3264, 51.80037
543.8085, 51.82560
544.2906, 52.72525
544.7726, 53.73287
545.2548, 55.34411
545.7369, 56.67024
546.2190, 56.65226
546.7011, 55.61140
547.1832, 54.94698
547.6653, 55.80747
548.1475, 57.79143
548.6296, 59.32988
549.1117, 60.38797
549.5938, 61.08852
550.0759, 60.56990
550.5580, 60.30019
551.0402, 61.68748
551.5223, 64.74965
552.0044, 67.83409
552.4865, 70.03655
552.9686, 71.63028
553.4507, 72.95029
553.9329, 74.00964
554.4150, 75.31674
554.8971, 77.22025
555.3792, 79.48170
555.8613, 81.49709
556.3434, 83.29319
556.8256, 84.84761
557.3077, 85.68306
557.7898, 86.61146
558.2719, 88.53157
558.7540, 91.33865
559.2361, 94.17757
559.7183, 96.46696
560.2004, 98.32068
560.6825, 100.2912
561.1646, 102.4912
561.6467, 104.5900
562.1288, 106.4586
562.6110, 108.3093
563.0931, 110.4472
563.5752, 112.7721
564.0573, 114.7957
564.5394, 116.0911
565.0215, 116.8907
565.5037, 117.8725
565.9858, 119.1342
566.4679, 119.9521
566.9500, 119.9414
567.4321, 119.4297
567.9142, 118.9660
568.3964, 118.5881
568.8785, 117.7565
569.3606, 116.3012
569.8427, 114.2997
570.3248, 111.5752
570.8069, 108.3010
571.2891, 105.2125
571.7712, 102.8076
572.2533, 100.6302
572.7354, 97.53590
573.2175, 92.43186
573.6996, 88.33372
574.1818, 85.66048
574.6639, 83.53681
575.1460, 81.57710
575.6281, 79.70028
576.1102, 77.88981
576.5923, 76.11480
577.0745, 74.46384
577.5566, 73.13726
578.0387, 72.15746
578.5208, 71.40842
579.0029, 71.12017
579.4850, 70.80291
579.9672, 69.87029
580.4493, 68.53252
580.9314, 67.70246
581.4135, 68.42194
581.8956, 69.20210
582.3777, 68.17188
582.8599, 65.86790
583.3420, 64.48449
583.8241, 64.89776
584.3062, 65.84994
584.7883, 65.55352
585.2704, 63.57512
585.7526, 62.51382
586.2347, 63.19423
586.7168, 63.84118
587.1989, 63.45255
587.6810, 62.59370
588.1631, 62.35429
588.6453, 63.10237
589.1274, 64.01255
589.6095, 63.72570
590.0916, 62.04043
590.5737, 61.07592
591.0558, 61.31245
591.5380, 61.61393
592.0201, 61.14407
592.5022, 60.49081
592.9843, 60.75292
593.4664, 62.53228
593.9485, 63.96906
594.4307, 63.01972
594.9128, 60.74938
595.3949, 59.90168
595.8770, 60.96490
596.3591, 61.93636
596.8412, 61.11031
597.3234, 58.83867
597.8055, 57.71690
598.2876, 58.57032
598.7697, 59.28939
599.2518, 59.59842
599.7339, 59.58062
600.2161, 59.03906
600.6982, 58.15653
601.1803, 57.73717
601.6624, 58.59073
602.1445, 60.28665
602.6266, 60.65405
603.1088, 58.96498
603.5909, 57.84528
604.0730, 58.72285
604.5551, 59.86689
605.0372, 59.70755
605.5193, 58.37915
606.0015, 57.68499
606.4836, 59.26238
606.9657, 61.43505
607.4478, 61.89129
607.9299, 60.89856
608.4120, 60.26194
608.8942, 60.77605
609.3763, 61.68384
609.8584, 61.76832
610.3405, 60.64596
610.8226, 60.12459
611.3047, 60.64091
611.7869, 61.27587
612.2690, 61.91646
612.7511, 62.29785
613.2332, 61.87598
613.7153, 60.47485
614.1974, 58.89798
614.6796, 58.09005
615.1617, 58.04154
615.6438, 59.17250
616.1259, 62.69791
616.6080, 65.32168
617.0901, 64.29741
617.5723, 61.71013
618.0544, 60.49968
618.5365, 61.28953
619.0186, 62.90895
619.5007, 65.41282
619.9828, 68.02940
620.4650, 69.44076
620.9471, 69.55273
621.4292, 69.24000
621.9113, 69.13991
622.3934, 69.00906
622.8755, 67.88731
623.3577, 63.89601
623.8398, 61.65477
624.3219, 62.31993
624.8040, 63.78098
625.2861, 64.89854
625.7682, 65.57545
626.2504, 66.09035
626.7325, 66.61135
627.2145, 67.02522
627.6967, 67.01267
628.1788, 66.54592
628.6609, 66.29478
629.1430, 66.30242
629.6251, 66.69656
630.1072, 68.09512
630.5894, 70.09679
631.0715, 71.13151
631.5536, 69.94503
632.0357, 68.86394
632.5178, 69.38688
632.9999, 70.67001
633.4821, 71.32852
633.9642, 71.08852
634.4463, 70.66165
634.9284, 70.74567
635.4105, 71.28954
635.8926, 71.53584
636.3748, 71.38772
636.8569, 71.07860
637.3390, 70.15485
637.8211, 69.46147
638.3032, 69.84072
638.7853, 71.23172
639.2675, 72.73223
639.7496, 73.81205
640.2317, 74.63553
640.7138, 75.62488
641.1959, 76.72143
641.6780, 77.08220
642.1602, 76.17669
642.6423, 75.04249
643.1244, 75.12984
643.6065, 76.72523
644.0886, 77.79404
644.5707, 78.00061
645.0529, 78.05553
645.5350, 78.00354
646.0171, 78.08157
646.4992, 78.67925
646.9813, 79.85672
647.4634, 81.19125
647.9456, 82.25272
648.4277, 83.05276
648.9098, 83.63567
649.3919, 83.73261
649.8740, 84.31573
650.3561, 86.15673
650.8383, 88.43423
651.3204, 90.26923
651.8025, 91.60635
652.2846, 92.68245
652.7667, 93.15438
653.2488, 93.72739
653.7310, 95.19203
654.2131, 97.37737
654.6952, 99.73508
655.1773, 102.0570
655.6594, 104.0933
656.1415, 105.3504
656.6237, 105.5029
657.1058, 106.3851
657.5879, 108.6395
658.0700, 110.9505
658.5521, 112.8493
659.0342, 114.6724
659.5164, 117.0082
659.9985, 119.9866
660.4806, 122.6991
660.9627, 124.1617
661.4448, 124.8698
661.9269, 126.0723
662.4091, 127.8294
662.8912, 129.3688
663.3733, 130.2271
663.8554, 130.7990
664.3375, 131.9142
664.8196, 133.9517
665.3018, 135.4188
665.7839, 136.1431
666.2660, 136.4395
666.7481, 136.3943
667.2302, 136.0645
667.7123, 135.5021
668.1945, 134.7251
668.6766, 133.7693
669.1587, 132.7800
669.6408, 131.7222
670.1229, 129.9104
670.6050, 127.0378
671.0872, 124.3102
671.5693, 122.5748
672.0514, 121.2343
672.5335, 119.3197
673.0156, 116.7770
673.4977, 113.9032
673.9799, 110.4715
674.4620, 107.0242
674.9441, 103.9403
675.4262, 101.2278
675.9083, 98.80621
676.3904, 96.62920
676.8726, 94.66866
677.3547, 92.87063
677.8368, 91.22927
678.3189, 89.84196
678.8010, 89.19361
679.2831, 88.06760
679.7653, 85.21490
680.2474, 82.03479
680.7295, 80.41428
681.2116, 80.75252
681.6937, 81.28645
682.1758, 81.05815
682.6580, 80.47293
683.1401, 80.20546
683.6222, 80.14054
684.1043, 79.40997
684.5864, 77.53297
685.0685, 75.28645
685.5507, 74.06934
686.0328, 74.24953
686.5149, 73.99329
686.9970, 72.82450
687.4791, 71.75042
687.9612, 70.78328
688.4434, 70.20866
688.9255, 70.73005
689.4076, 72.45528
689.8897, 73.62537
690.3718, 72.19968
690.8539, 69.52620
691.3361, 68.38522
691.8182, 68.78176
692.3003, 69.18742
692.7824, 68.97676
693.2645, 68.36074
693.7466, 67.62942
694.2288, 66.71214
694.7109, 65.98423
695.1930, 65.33210
695.6751, 64.98552
696.1572, 65.22362
696.6393, 65.71591
697.1215, 66.12844
697.6036, 66.35259
698.0857, 66.31861
698.5678, 65.85000
699.0499, 65.09383
699.5320, 64.35683
700.0142, 63.62340
700.4963, 63.47326
700.9784, 64.40495
701.4605, 65.50388
701.9426, 65.38831
702.4247, 63.82512
702.9069, 62.88216
703.3890, 63.27452
703.8711, 63.49810
704.3532, 62.76667
704.8353, 61.64951
705.3174, 60.78267
705.7996, 60.33379
706.2817, 60.21202
706.7638, 60.39522
707.2459, 60.81859
707.7280, 61.37170
708.2101, 62.10205
708.6923, 62.46482
709.1743, 62.14759
709.6564, 61.64769
710.1385, 61.39123
710.6207, 61.38820
711.1028, 61.82090
711.5849, 63.63265
712.0670, 64.77574
712.5491, 63.84148
713.0313, 62.19014
713.5134, 61.45506
713.9955, 61.75606
714.4776, 62.10851
714.9597, 61.75182
715.4418, 60.95796
715.9240, 60.44825
716.4061, 60.24935
716.8882, 60.10852
717.3703, 59.92227
717.8524, 59.87851
718.3345, 60.26258
718.8167, 60.93157
719.2988, 61.39789
719.7809, 61.64669
720.2630, 61.65067
720.7451, 61.25098
721.2272, 60.70595
721.7094, 60.27963
722.1915, 59.96687
722.6736, 59.52394
723.1557, 58.75751
723.6378, 58.08369
724.1199, 58.55560
724.6021, 60.31613
725.0842, 61.43013
725.5663, 61.55838
726.0484, 61.33701
726.5305, 60.94943
727.0126, 60.53014
727.4948, 60.42732
727.9769, 60.87901
728.4590, 60.96135
728.9411, 60.04333
729.4232, 58.94619
729.9053, 58.28371
730.3875, 58.03825
730.8696, 58.02108
731.3517, 58.15052
731.8338, 58.43276
732.3159, 59.10112
732.7980, 60.15104
733.2802, 60.07770
733.7623, 58.36824
734.2444, 56.97691
734.7265, 56.64951
735.2086, 57.15049
735.6907, 58.49001
736.1729, 60.81376
736.6550, 61.86670
737.1371, 59.95173
737.6192, 57.91639
738.1013, 57.54100
738.5834, 58.16032
739.0656, 58.62004
739.5477, 58.64090
740.0298, 58.66656
740.5119, 59.14463
740.9940, 59.96333
741.4761, 60.82359
741.9583, 61.88061
742.4404, 61.97324
742.9225, 60.30206
743.4046, 58.25257
743.8867, 57.07522
744.3688, 56.68632
744.8510, 56.70808
745.3331, 57.33842
745.8152, 58.08961
746.2973, 58.99684
746.7794, 59.81869
747.2615, 60.33226
747.7437, 60.51554
748.2258, 60.39724
748.7079, 59.95620
749.1900, 59.40259
749.6721, 59.11400
750.1542, 59.08784
750.6364, 59.18350
751.1185, 59.43476
751.6006, 59.66066
752.0827, 59.83581
752.5648, 59.86993
753.0469, 59.45160
753.5291, 58.27106
754.0112, 57.49845
754.4933, 57.85537
754.9754, 58.09803
755.4575, 57.04847
755.9396, 55.45470
756.4218, 54.81031
756.9039, 55.56180
757.3860, 56.58479
757.8681, 56.39094
758.3502, 55.50572
758.8323, 56.21287
759.3145, 58.62554
759.7966, 59.85736
760.2787, 58.43917
760.7608, 56.31594
761.2429, 56.03103
761.7250, 57.79186
762.2072, 58.98304
762.6893, 59.38935
763.1714, 59.54720
763.6535, 59.46229
764.1356, 59.26799
764.6177, 59.02471
765.0999, 58.77584
765.5820, 58.58318
766.0641, 58.39370
766.5462, 58.44100
767.0283, 59.47010
767.5104, 61.04345
767.9926, 61.25324
768.4747, 59.75430
768.9568, 58.15963
769.4389, 57.57196
769.9210, 57.79222
770.4031, 58.20092
770.8853, 58.94747
771.3674, 59.59436
771.8495, 60.56136
772.3316, 60.98449
772.8137, 59.89387
773.2958, 58.24939
773.7780, 57.70508
774.2601, 58.70518
774.7422, 59.41961
775.2243, 57.82129
775.7064, 55.87014
776.1885, 56.59772
776.6707, 59.28927
777.1528, 61.05861
777.6349, 60.89894
778.1170, 59.88493
778.5991, 59.16877
779.0812, 58.76904
779.5634, 59.23165
780.0455, 61.11073
780.5276, 62.61814
781.0097, 63.53771
781.4918, 63.73717
781.9739, 62.43827
782.4561, 60.20132
782.9382, 59.42884
783.4203, 62.02243
783.9024, 64.14244
784.3845, 63.36857
784.8666, 61.51302
785.3488, 60.56263
785.8309, 60.61641
786.3130, 60.97142
786.7951, 61.25927
787.2772, 61.44114
787.7593, 61.44329
788.2415, 61.26765
788.7236, 60.83832
789.2057, 59.90853
789.6878, 59.73206
790.1699, 61.48134
790.6520, 63.82265
791.1342, 64.24796
791.6162, 62.33914
792.0983, 61.20045
792.5804, 61.54718
793.0626, 62.04999
793.5447, 62.38643
794.0268, 62.47740
794.5089, 62.11354
794.9910, 61.38273
795.4731, 60.80284
795.9553, 60.68872
796.4374, 60.95164
796.9195, 61.70110
797.4016, 62.75850
797.8837, 63.25325
798.3658, 63.01677
798.8480, 62.50201
799.3301, 61.94706
799.8122, 61.48947
800.2943, 61.62722
800.7764, 62.71462
801.2585, 63.63680
801.7407, 64.56181
802.2228, 65.11825
802.7049, 65.09961
803.1870, 64.64435
803.6691, 63.75534
804.1512, 62.39864
804.6334, 61.52555
805.1155, 62.18181
805.5976, 63.04124
806.0797, 62.64457
806.5618, 61.52777
807.0439, 60.82540
807.5261, 60.87612
808.0082, 61.58228
808.4903, 63.05970
808.9724, 64.87535
809.4545, 65.14698
809.9366, 63.58245
810.4188, 62.49108
810.9009, 62.44834
811.3830, 62.62772
811.8651, 62.39764
812.3472, 61.90762
812.8293, 61.69419
813.3115, 61.82413
813.7936, 62.08146
814.2757, 62.70686
814.7578, 63.18309
815.2399, 62.94762
815.7220, 62.42163
816.2042, 62.52300
816.6863, 63.44670
817.1684, 64.03636
817.6505, 62.60538
818.1326, 60.50812
818.6147, 60.80297
819.0969, 62.94721
819.5790, 63.60249
820.0611, 61.75197
820.5432, 59.78518
821.0253, 60.11247
821.5074, 62.30574
821.9896, 63.49177
822.4717, 63.23368
822.9538, 62.98350
823.4359, 63.01169
823.9180, 62.94815
824.4001, 62.29209
824.8823, 61.48354
825.3644, 61.48116
825.8465, 62.67762
826.3286, 63.65959
826.8107, 63.64261
827.2928, 63.42851
827.7750, 63.99037
828.2571, 64.77041
828.7392, 64.27705
829.2213, 62.27030
829.7034, 60.59762
830.1855, 61.25126
830.6677, 63.38367
831.1498, 64.74593
831.6319, 65.33482
832.1140, 64.99882
832.5961, 63.44879
833.0782, 62.12012
833.5604, 62.30298
834.0425, 63.59871
834.5246, 64.29748
835.0067, 63.95922
835.4888, 63.75703
835.9709, 63.71421
836.4531, 63.77353
836.9352, 63.94075
837.4173, 64.18121
837.8994, 64.55605
838.3815, 65.08167
838.8636, 65.22549
839.3458, 64.52646
839.8279, 63.50209
840.3100, 62.10915
840.7921, 60.89804
841.2742, 61.27828
841.7563, 63.29005
842.2385, 65.13235
842.7206, 65.28336
843.2027, 64.42203
843.6848, 64.48288
844.1669, 65.50562
844.6490, 65.11616
845.1312, 62.49910
845.6133, 60.46070
846.0954, 60.99797
846.5775, 62.90622
847.0596, 63.47972
847.5417, 61.94415
848.0239, 61.48941
848.5060, 62.96412
848.9881, 64.44469
849.4702, 65.67880
849.9523, 66.36993
850.4344, 65.86986
850.9166, 64.39547
851.3987, 63.42505
851.8808, 63.82085
852.3629, 64.71274
852.8450, 65.70576
853.3271, 66.56190
853.8093, 66.69527
854.2914, 66.23019
854.7735, 66.05744
855.2556, 66.68782
855.7377, 67.54408
856.2198, 67.60399
856.7020, 66.90702
857.1841, 66.50392
857.6662, 66.51907
858.1483, 66.18140
858.6304, 65.01629
859.1125, 63.71890
859.5947, 63.10509
860.0768, 63.17955
860.5589, 63.38002
861.0410, 63.95296
861.5231, 64.29905
862.0052, 64.16775
862.4874, 63.95823
862.9695, 64.04691
863.4516, 64.24816
863.9337, 64.01807
864.4158, 63.08490
864.8979, 62.42247
865.3801, 62.54704
865.8622, 63.30719
866.3443, 65.22910
866.8264, 67.53935
867.3085, 68.06541
867.7906, 66.40074
868.2728, 64.82156
868.7549, 65.64688
869.2370, 67.89448
869.7191, 68.78165
870.2012, 68.31201
870.6833, 67.23094
871.1655, 65.47294
871.6476, 64.01044
872.1297, 63.48616
872.6118, 63.74105
873.0939, 64.47145
873.5760, 66.08698
874.0581, 66.96201
874.5402, 66.28455
875.0223, 65.82917
875.5045, 66.72163
875.9866, 67.62305
876.4687, 66.69328
876.9508, 64.16872
877.4329, 62.78518
877.9150, 64.59758
878.3972, 66.25986
878.8793, 65.38727
879.3614, 63.85014
879.8435, 63.94982
880.3256, 65.36705
880.8077, 66.41755
881.2899, 66.34384
881.7720, 65.85009
882.2541, 65.64683
882.7362, 65.69998
883.2183, 66.01752
883.7004, 66.55374
884.1826, 66.87475
884.6647, 66.84007
885.1468, 66.60622
885.6289, 66.30663
886.1110, 65.95534
886.5931, 65.67549
887.0753, 65.63673
887.5574, 65.08334
888.0395, 63.24014
888.5216, 61.92302
889.0037, 62.53341
889.4858, 64.12900
889.9680, 65.19282
890.4501, 65.65508
890.9322, 65.84904
891.4143, 65.82587
891.8964, 65.54084
892.3785, 64.71341
892.8607, 63.79467
893.3428, 63.08000
893.8249, 62.71629
894.3070, 63.07096
894.7891, 64.56791
895.2712, 66.05714
895.7534, 66.27592
896.2355, 65.94368
896.7176, 66.29976
897.1997, 67.20026
897.6818, 67.77554
898.1639, 67.68816
898.6461, 67.16287
899.1282, 66.33366
899.6103, 65.33902
900.0924, 64.73161
900.5745, 64.51304
901.0566, 64.78362
901.5388, 65.68813
902.0209, 66.57145
902.5030, 66.92256
902.9851, 66.94772
903.4672, 67.27751
903.9493, 68.26714
904.4315, 68.55215
904.9136, 67.64113
905.3957, 66.64670
905.8778, 65.59921
906.3599, 64.84242
906.8420, 64.83914
907.3242, 65.52444
907.8063, 66.22119
908.2884, 66.77956
908.7705, 67.31029
909.2526, 68.26241
909.7347, 68.85507
910.2169, 67.90988
910.6990, 66.14754
911.1811, 65.36099
911.6632, 66.13601
912.1453, 66.90901
912.6274, 65.85799
913.1096, 64.35316
913.5917, 64.72814
914.0738, 66.37509
914.5559, 67.52755
915.0380, 67.81961
915.5201, 67.78988
916.0023, 67.82629
916.4844, 67.77857
916.9665, 67.05947
917.4486, 65.68369
917.9307, 65.72682
918.4128, 67.64754
918.8950, 68.65417
919.3771, 67.17537
919.8592, 65.35154
920.3413, 66.09762
920.8234, 69.32526
921.3055, 70.84626
921.7877, 69.74475
922.2698, 68.55322
922.7519, 66.65261
923.2340, 65.64981
923.7161, 67.29884
924.1982, 70.10899
924.6804, 71.39845
925.1625, 70.74312
925.6446, 69.68090
926.1267, 67.69101
926.6088, 66.41985
927.0909, 67.31509
927.5731, 68.94553
928.0552, 69.94334
928.5373, 70.10253
929.0194, 69.46518
929.5015, 67.72997
929.9836, 66.40610
930.4658, 67.33657
930.9479, 69.11575
931.4300, 69.80022
931.9121, 69.50100
932.3942, 68.84566
932.8763, 68.08778
933.3585, 67.45977
933.8406, 67.18206
934.3227, 67.18627
934.8048, 67.36996
935.2869, 67.70695
935.7690, 68.01064
936.2512, 68.26396
936.7333, 68.20235
937.2154, 67.61451
937.6975, 66.88981
938.1796, 66.76487
938.6617, 67.29540
939.1439, 66.97350
939.6260, 65.13261
940.1081, 64.32760
940.5902, 65.77233
941.0723, 67.47237
941.5544, 67.73924
942.0366, 67.03931
942.5187, 66.99892
943.0008, 67.88841
943.4829, 68.74802
943.9650, 69.84843
944.4471, 70.54384
944.9293, 70.25666
945.4114, 69.67786
945.8935, 69.60324
946.3756, 69.98891
946.8577, 70.13897
947.3398, 69.68606
947.8220, 69.23653
948.3041, 69.06094
948.7862, 69.03455
949.2683, 69.13940
949.7504, 69.27637
950.2325, 69.33601
950.7147, 69.26738
951.1968, 68.92374
951.6789, 67.79167
952.1610, 66.76999
952.6431, 67.34895
953.1252, 68.77601
953.6074, 69.33547
954.0895, 68.98396
954.5716, 68.83993
955.0537, 69.47073
955.5358, 70.35496
956.0179, 70.89686
956.5000, 71.07771
956.9821, 70.78901
957.4642, 70.03394
957.9464, 68.68624
958.4285, 66.59415
958.9106, 65.38255
959.3927, 66.40549
959.8748, 68.91143
960.3569, 71.13860
960.8391, 73.34636
961.3212, 73.65807
961.8033, 71.27250
962.2854, 69.26890
962.7675, 68.75343
963.2496, 68.96763
963.7318, 69.33012
964.2139, 69.77591
964.6960, 69.79504
965.1781, 68.63292
965.6602, 68.29002
966.1423, 69.51843
966.6245, 70.69446
967.1066, 71.24831
967.5887, 71.33756
968.0708, 71.00849
968.5529, 70.30889
969.0350, 69.92133
969.5172, 70.50234
969.9993, 70.71847
970.4814, 69.81563
970.9635, 68.69315
971.4456, 67.88211
971.9277, 67.44345
972.4099, 67.39038
972.8920, 67.72280
973.3741, 68.28484
973.8562, 69.29627
974.3383, 70.18040
974.8204, 70.44145
975.3026, 70.30807
975.7847, 69.96813
976.2668, 69.54963
976.7489, 69.27807
977.2310, 69.25579
977.7131, 69.35166
978.1953, 69.70129
978.6774, 69.92113
979.1595, 68.83887
979.6416, 67.10104
980.1237, 67.01487
980.6058, 68.78865
981.0880, 70.32079
981.5701, 70.25130
982.0522, 69.27019
982.5343, 68.20702
983.0164, 67.21492
983.4985, 67.31902
983.9807, 68.49844
984.4628, 69.64260
984.9449, 70.42718
985.4270, 71.08393
985.9091, 71.88632
986.3912, 72.55887
986.8734, 72.06868
987.3555, 70.19120
987.8376, 69.05592
988.3197, 68.78913
988.8018, 69.15386
989.2839, 70.37518
989.7661, 71.50816
990.2482, 71.42358
990.7303, 70.31727
991.2124, 69.61710
991.6945, 69.40313
992.1766, 69.41774
992.6588, 69.76042
993.1409, 70.16322
993.6230, 70.57111
994.1051, 70.93363
994.5872, 71.26462
995.0693, 71.55830
995.5515, 71.40575
996.0336, 69.90786
996.5157, 69.28407
996.9978, 70.84627
997.4799, 72.20126
997.9620, 71.66367
998.4442, 70.31229
998.9263, 69.87992
999.4084, 70.54156
999.8905, 70.87981
1000.373, 70.05820
1000.855, 69.51170
1001.337, 69.94750
1001.819, 70.67345
1002.301, 71.60639
1002.783, 72.24248
1003.265, 71.33836
1003.747, 68.64255
1004.230, 66.87630
1004.712, 68.07478
1005.194, 69.84154
1005.676, 70.96148
1006.158, 71.53867
1006.640, 71.52244
1007.122, 71.14416
1007.604, 70.93276
1008.086, 71.07117
1008.569, 71.17422
1009.051, 70.68198
1009.533, 70.24224
1010.015, 70.88100
1010.497, 71.93016
1010.979, 72.26407
1011.461, 71.80374
1011.943, 70.72880
1012.426, 69.11456
1012.908, 68.18353
1013.390, 70.05089
1013.872, 73.02139
1014.354, 73.93596
1014.836, 73.29137
1015.318, 72.31276
1015.800, 71.35758
1016.282, 70.96555
1016.765, 71.46520
1017.247, 72.24908
1017.729, 72.45520
1018.211, 72.23796
1018.693, 72.17582
1019.175, 72.22127
1019.657, 71.95641
1020.139, 71.31300
1020.622, 70.92233
1021.104, 71.27970
1021.586, 71.60226
1022.068, 69.88766
1022.550, 66.52569
1023.032, 66.56504
1023.514, 70.09502
1023.996, 70.55361
1024.478, 65.97018
1024.961, 62.35180
1025.443, 64.36718
1025.925, 69.20325
1026.407, 70.24734
1026.889, 67.22336
1027.371, 66.35502
1027.853, 68.01055
1028.335, 69.74280
1028.818, 71.01653
1029.300, 71.86512
1029.782, 72.19627
1030.264, 72.28932
1030.746, 73.02859
1031.228, 72.63211
1031.710, 74.80299
1032.192, 72.30550
1032.674, 70.61063
1033.156, 70.90906
1033.639, 71.63877
1034.121, 71.51161
1034.603, 70.89849
1035.085, 70.96336
1035.567, 72.12630
1036.049, 72.25457
1036.531, 70.05462
1037.013, 69.42171
1037.496, 72.70724
1037.978, 76.16236
1038.460, 76.49226
1038.942, 74.70641
1039.424, 74.00587
1039.906, 74.97615
1040.388, 75.25081
1040.870, 73.96304
1041.353, 73.23545
1041.835, 74.26430
1042.317, 75.40720
1042.799, 75.30616
1043.281, 74.32017
1043.763, 73.51781
1044.245, 73.08219
1044.727, 72.31071
1045.209, 70.28757
1045.692, 69.10540
1046.174, 69.84180
1046.656, 71.16471
1047.138, 72.40681
1047.620, 73.34158
1048.102, 73.34115
1048.584, 71.93482
1049.066, 71.21467
1049.548, 72.07516
1050.031, 72.84541
1050.513, 72.97435
1050.995, 72.81909
1051.477, 72.81326
1051.959, 72.74433
1052.441, 71.74842
1052.923, 69.21430
1053.405, 68.29760
1053.888, 71.61568
1054.370, 74.13778
1054.852, 72.85307
1055.334, 71.01620
1055.816, 71.51866
1056.298, 73.64771
1056.780, 75.57673
1057.262, 77.13991
1057.745, 77.33134
1058.227, 74.52011
1058.709, 72.02100
1059.191, 71.17995
1059.673, 71.24426
1060.155, 71.89803
1060.637, 72.80721
1061.119, 73.44751
1061.601, 73.71087
1062.083, 73.81711
1062.566, 73.70720
1063.048, 73.63020
1063.530, 73.68444
1064.012, 73.82764
1064.494, 74.44553
1064.976, 74.97703
1065.458, 74.04118
1065.940, 71.37197
1066.423, 69.45119
1066.905, 69.23182
1067.387, 69.97443
1067.869, 72.44712
1068.351, 74.72289
1068.833, 74.79717
1069.315, 73.59948
1069.797, 73.04374
1070.280, 73.45644
1070.762, 73.69024
1071.244, 72.89376
1071.726, 72.31605
1072.208, 72.94097
1072.690, 73.62057
1073.172, 73.32388
1073.654, 72.46122
1074.136, 71.78032
1074.619, 71.40795
1075.101, 71.08863
1075.583, 70.54131
1076.065, 70.32863
1076.547, 71.26784
1077.029, 72.09901
1077.511, 71.47540
1077.993, 70.28780
1078.475, 70.02583
1078.958, 70.74796
1079.440, 71.27901
1079.922, 70.83421
1080.404, 70.93538
1080.886, 73.19633
1081.368, 75.32617
1081.850, 75.54969
1082.332, 74.72049
1082.814, 73.86521
1083.297, 73.18930
1083.779, 72.67290
1084.261, 72.25033
1084.743, 72.17529
1085.225, 72.77526
1085.707, 73.52550
1086.189, 74.41206
1086.671, 75.02492
1087.154, 74.48828
1087.636, 73.28434
1088.118, 73.18289
1088.600, 74.94987
1089.082, 76.34307
1089.564, 76.28262
1090.046, 75.78844
1090.528, 75.08687
1091.010, 74.51145
1091.493, 74.50782
1091.975, 74.86034
1092.457, 75.06697
1092.939, 75.03160
1093.421, 74.61453
1093.903, 73.07368
1094.385, 72.03315
1094.867, 72.76988
1095.349, 73.81941
1095.832, 73.82613
1096.314, 73.26444
1096.796, 73.23962
1097.278, 73.92334
1097.760, 74.42307
1098.242, 74.22311
1098.724, 74.13276
1099.206, 74.83650
1099.689, 75.30637
1100.171, 74.42007
1100.653, 73.08498
1101.135, 72.66354
1101.617, 73.22929
1102.099, 73.89632
1102.581, 74.34101
1103.063, 75.07165
1103.546, 77.14709
1104.028, 78.45308
1104.510, 77.02844
1104.992, 74.85296
1105.474, 74.28928
1105.956, 75.10503
1106.438, 75.46615
1106.920, 74.86806
1107.402, 74.41277
1107.885, 73.94478
1108.367, 74.06263
1108.849, 75.95905
1109.331, 77.68262
1109.813, 77.03418
1110.295, 74.91879
1110.777, 74.05715
1111.259, 75.02385
1111.741, 75.55509
1112.224, 75.06834
1112.706, 74.73189
1113.188, 74.91077
1113.670, 75.18483
1114.152, 75.37128
1114.634, 75.43882
1115.116, 75.30807
1115.598, 74.96101
1116.081, 74.63239
1116.563, 73.88107
1117.045, 73.93624
1117.527, 75.52007
1118.009, 77.08244
1118.491, 78.28670
1118.973, 78.71054
1119.455, 77.36689
1119.938, 74.58779
1120.420, 73.58195
1120.902, 75.51002
1121.384, 76.21853
1121.866, 74.67662
1122.348, 74.02795
1122.830, 76.04908
1123.312, 78.03837
1123.794, 77.28972
1124.276, 74.73113
1124.759, 73.26557
1125.241, 72.99863
1125.723, 73.36648
1126.205, 74.74644
1126.687, 75.17381
1127.169, 73.89401
1127.651, 72.60817
1128.133, 72.39666
1128.616, 73.02274
1129.098, 74.27653
1129.580, 76.05029
1130.062, 76.39465
1130.544, 75.18639
1131.026, 73.81115
1131.508, 72.36967
1131.990, 71.89401
1132.473, 72.97849
1132.955, 74.48740
1133.437, 75.11893
1133.919, 75.04958
1134.401, 74.85255
1134.883, 74.51958
1135.365, 73.68837
1135.847, 72.42746
1136.329, 72.47274
1136.812, 74.33186
1137.294, 76.25319
1137.776, 76.88631
1138.258, 76.64003
1138.740, 75.77281
1139.222, 74.72782
1139.704, 75.35806
1140.186, 77.20274
1140.668, 78.21889
1141.151, 78.09245
1141.633, 77.52648
1142.115, 76.87431
1142.597, 76.28075
1143.079, 75.89091
1143.561, 75.67214
1144.043, 75.54624
1144.525, 75.56359
1145.008, 75.84196
1145.490, 76.35910
1145.972, 77.18592
1146.454, 78.24732
1146.936, 78.82680
1147.418, 78.42519
1147.900, 77.36953
1148.382, 75.25802
1148.865, 73.27367
1149.347, 72.89944
1149.829, 73.62051
1150.311, 74.63615
1150.793, 75.67558
1151.275, 76.52764
1151.757, 77.14780
1152.239, 77.36287
1152.721, 76.73552
1153.203, 76.07347
1153.686, 75.52406
1154.168, 75.52267
1154.650, 77.30836
1155.132, 79.73170
1155.614, 80.06266
1156.096, 77.77977
1156.578, 75.81705
1157.060, 74.80035
1157.543, 74.52505
1158.025, 75.59690
1158.507, 76.65131
1158.989, 76.83214
1159.471, 76.59346
1159.953, 76.53893
1160.435, 76.64513
1160.917, 76.53282
1161.400, 75.98600
1161.882, 75.63665
1162.364, 75.44256
1162.846, 75.54271
1163.328, 76.41245
1163.810, 76.95785
1164.292, 75.89614
1164.774, 74.36115
1165.256, 74.84883
1165.739, 77.49205
1166.221, 80.06533
1166.703, 83.20747
1167.185, 83.45516
1167.667, 79.39944
1168.149, 76.07643
1168.631, 75.89079
1169.113, 77.05842
1169.595, 77.72320
1170.078, 77.92217
1170.560, 77.57939
1171.042, 76.73055
1171.524, 76.84132
1172.006, 77.93204
1172.488, 78.76408
1172.970, 79.01690
1173.452, 78.64342
1173.934, 77.55043
1174.417, 76.49125
1174.899, 76.72197
1175.381, 76.58461
1175.863, 78.03554
1176.345, 77.97871
1176.827, 78.94860
1177.309, 80.66912
1177.791, 81.26869
1178.274, 80.19302
1178.756, 78.67049
1179.238, 77.31335
1179.720, 76.67094
1180.202, 78.21214
1180.684, 80.08142
1181.166, 79.41354
1181.648, 77.64413
1182.130, 77.61316
1182.613, 79.23437
1183.095, 80.49637
1183.577, 80.70284
1184.059, 80.27122
1184.541, 79.07124
1185.023, 77.72900
1185.505, 76.08669
1185.987, 74.92531
1186.469, 75.07154
1186.952, 76.06062
1187.434, 77.25581
1187.916, 78.52931
1188.398, 79.31883
1188.880, 79.45103
1189.362, 79.24323
1189.844, 78.06618
1190.326, 77.44048
1190.809, 78.25441
1191.291, 79.35863
1191.773, 79.79761
1192.255, 79.88045
1192.737, 80.49278
1193.219, 79.91606
1193.701, 81.53626
1194.183, 79.01768
1194.666, 77.49234
1195.148, 77.53638
1195.630, 78.02377
1196.112, 78.46323
1196.594, 79.12744
1197.076, 80.45218
1197.558, 81.93166
1198.040, 81.81546
1198.522, 80.35832
1199.005, 79.90810
1199.487, 80.39907
1199.969, 80.53466
1200.451, 80.08483
1200.933, 79.78840
1201.415, 80.05538
1201.897, 80.41629
1202.379, 80.29371
1202.861, 79.99854
1203.344, 80.17758
1203.826, 80.45081
1204.308, 80.32851
1204.790, 79.66537
1205.272, 77.65039
1205.754, 74.65000
1206.236, 73.60448
1206.718, 76.61621
1207.201, 79.31541
1207.683, 78.39700
1208.165, 76.97453
1208.647, 77.00037
1209.129, 77.70722
1209.611, 78.42505
1210.093, 79.06836
1210.575, 79.73569
1211.057, 80.44850
1211.540, 80.66919
1212.022, 79.69107
1212.504, 79.21319
1212.986, 79.95340
1213.468, 80.52829
1213.950, 80.57137
1214.432, 80.07958
1214.914, 78.65684
1215.396, 76.98412
1215.879, 77.14811
1216.361, 79.40453
1216.843, 79.89979
1217.325, 78.24807
1217.807, 77.56489
1218.289, 78.41934
1218.771, 79.28970
1219.253, 79.49046
1219.736, 79.46266
1220.218, 79.65630
1220.700, 79.94844
1221.182, 80.11308
1221.664, 80.14135
1222.146, 79.93108
1222.628, 79.56512
1223.110, 79.33070
1223.593, 79.25368
1224.075, 79.18190
1224.557, 79.04762
1225.039, 78.86100
1225.521, 78.18792
1226.003, 78.04666
1226.485, 80.33548
1226.967, 82.71717
1227.449, 82.22952
1227.932, 80.44656
1228.414, 80.18557
1228.896, 81.39177
1229.378, 81.96053
1229.860, 81.30153
1230.342, 80.31863
1230.824, 78.83989
1231.306, 77.59058
1231.788, 76.30855
1232.271, 75.88540
1232.753, 77.45278
1233.235, 79.56834
1233.717, 80.24326
1234.199, 79.73487
1234.681, 79.79269
1235.163, 80.64419
1235.645, 80.93204
1236.128, 80.55624
1236.610, 80.05071
1237.092, 79.50841
1237.574, 79.22249
1238.056, 79.39130
1238.538, 79.69275
1239.020, 79.69417
1239.502, 79.52592
1239.984, 79.58331
1240.467, 79.72608
1240.949, 79.36141
1241.431, 78.72964
1241.913, 78.86938
1242.395, 79.78910
1242.877, 80.21115
1243.359, 79.44197
1243.841, 78.72507
1244.323, 79.06987
1244.806, 79.70169
1245.288, 80.07739
1245.770, 80.44317
1246.252, 81.32575
1246.734, 82.21125
1247.216, 82.15013
1247.698, 81.18401
1248.180, 80.30537
1248.662, 79.52564
1249.145, 79.14818
1249.627, 79.24959
1250.109, 79.70967
1250.591, 81.07838
1251.073, 81.66708
1251.555, 80.01151
1252.037, 77.99517
1252.519, 78.34280
1253.002, 80.42764
1253.484, 81.28068
1253.966, 80.93587
1254.448, 80.75983
1254.930, 80.80628
1255.412, 81.10377
1255.894, 81.57987
1256.376, 81.32332
1256.859, 79.84839
1257.341, 78.61736
1257.823, 79.41476
1258.305, 80.89456
1258.787, 81.45368
1259.269, 81.45167
1259.751, 81.00907
1260.233, 80.56915
1260.715, 81.03414
1261.198, 82.20544
1261.680, 82.84174
1262.162, 82.50656
1262.644, 82.22118
1263.126, 82.53336
1263.608, 82.60488
1264.090, 82.14370
1264.572, 81.41711
1265.054, 79.94527
1265.537, 78.93532
1266.019, 80.06398
1266.501, 82.48857
1266.983, 83.29008
1267.465, 82.29874
1267.947, 81.46355
1268.429, 80.77850
1268.911, 80.25095
1269.394, 79.87794
1269.876, 80.17944
1270.358, 81.37305
1270.840, 82.40569
1271.322, 82.30456
1271.804, 81.66328
1272.286, 81.06348
1272.768, 80.77187
1273.250, 81.68290
1273.733, 82.98875
1274.215, 82.94598
1274.697, 82.01298
1275.179, 82.15855
1275.661, 83.73550
1276.143, 84.70213
1276.625, 84.14918
1277.107, 83.09024
1277.589, 81.01175
1278.072, 79.58796
1278.554, 80.01684
1279.036, 80.93568
1279.518, 81.40416
1280.000, 81.56270
1280.482, 81.66846
1280.964, 81.70447
1281.446, 81.29253
1281.929, 80.28555
1282.411, 80.01472
1282.893, 80.57124
1283.375, 81.63521
1283.857, 83.10033
1284.339, 83.32674
1284.821, 81.33694
1285.303, 78.87381
1285.786, 77.60033
1286.268, 77.50472
##END=



