##NAMES=Chamosite
##RRUFFID=R060188
##IDEAL CHEMISTRY=Fe^2+^_5_Al(AlSi_3_)O_10_(OH)_8_
##LOCALITY=Slesse Creek, Chilliwack, British Columbia, Canada
##OWNER=RRUFF
##SOURCE=Lloyd Twaites
##DESCRIPTION=Brown hexagonal tablets with curved prism faces
##STATUS=The identification of this mineral has been confirmed by X-ray diffraction and chemical analysis
##URL=rruff.info/R060188
##MEASURED CHEMISTRY=(Fe^2+^_2.53_Mg_2.15_Al_0.30_Mn_0.02_)_Î£=5_Al_1.00_(Si_2.70_Al_1.30_)O_10_(OH)_8_
90.26367, 23.73576
90.74579, 24.33161
91.22791, 24.40345
91.71002, 23.94728
92.19214, 22.88472
92.67426, 20.59626
93.15637, 17.57338
93.63850, 15.18991
94.12061, 14.05439
94.60273, 13.79786
95.08485, 13.68673
95.56696, 13.75140
96.04908, 13.76332
96.53120, 13.29019
97.01331, 12.37412
97.49543, 11.70136
97.97755, 11.73123
98.45966, 12.41327
98.94178, 12.72969
99.42390, 12.52610
99.90602, 12.17103
100.3881, 12.52129
100.8703, 13.83522
101.3524, 14.94082
101.8345, 15.17854
102.3166, 14.34586
102.7987, 13.46187
103.2808, 12.45866
103.7630, 11.45579
104.2451, 11.11142
104.7272, 11.89810
105.2093, 12.71433
105.6914, 12.76659
106.1735, 11.33985
106.6557, 10.37910
107.1378, 10.23755
107.6199, 10.94077
108.1020, 11.58780
108.5841, 12.36270
109.0662, 12.98788
109.5484, 13.22458
110.0305, 12.30616
110.5126, 11.76250
110.9947, 12.04928
111.4768, 13.45160
111.9590, 14.38691
112.4411, 14.36909
112.9232, 13.89439
113.4053, 13.60189
113.8874, 13.47126
114.3695, 13.64540
114.8517, 14.31718
115.3338, 15.86008
115.8159, 16.99099
116.2980, 16.84281
116.7801, 16.00142
117.2622, 15.74310
117.7444, 16.92233
118.2265, 18.61671
118.7086, 20.23783
119.1907, 21.72690
119.6728, 23.04930
120.1549, 24.09350
120.6371, 24.92141
121.1192, 25.78789
121.6013, 26.54783
122.0834, 27.51161
122.5655, 29.05445
123.0477, 31.71665
123.5298, 34.62947
124.0119, 37.08907
124.4940, 39.10419
124.9761, 40.80577
125.4582, 42.08585
125.9404, 43.11656
126.4225, 44.22532
126.9046, 45.84962
127.3867, 47.53514
127.8688, 48.39470
128.3509, 48.35793
128.8331, 48.18093
129.3152, 48.78906
129.7973, 50.03606
130.2794, 51.17142
130.7615, 51.62174
131.2436, 51.65329
131.7258, 52.24349
132.2079, 53.52712
132.6900, 55.08117
133.1721, 56.17299
133.6542, 56.79012
134.1364, 57.56531
134.6185, 58.97926
135.1006, 61.00692
135.5827, 62.75272
136.0648, 64.07042
136.5469, 65.18136
137.0291, 66.74928
137.5112, 68.92320
137.9933, 70.89110
138.4754, 72.09748
138.9575, 72.42847
139.4396, 72.63526
139.9218, 72.78470
140.4039, 72.87199
140.8860, 72.84213
141.3681, 72.62742
141.8502, 72.41621
142.3323, 72.36243
142.8145, 72.50569
143.2966, 72.68731
143.7787, 72.79859
144.2608, 72.84949
144.7429, 73.38239
145.2251, 74.69554
145.7072, 76.23055
146.1893, 77.49816
146.6714, 78.63132
147.1535, 79.27360
147.6356, 78.97683
148.1178, 77.39544
148.5999, 77.23136
149.0820, 79.37344
149.5641, 82.56513
150.0462, 85.32454
150.5283, 87.72804
151.0105, 89.58956
151.4926, 89.87641
151.9747, 88.90199
152.4568, 88.42994
152.9389, 88.85126
153.4210, 89.70351
153.9032, 90.34931
154.3853, 90.93884
154.8674, 91.13732
155.3495, 90.70236
155.8316, 89.10847
156.3138, 88.08430
156.7959, 88.37011
157.2780, 89.35635
157.7601, 89.89643
158.2422, 89.09563
158.7243, 88.27209
159.2065, 88.11220
159.6886, 89.18238
160.1707, 90.08994
160.6528, 90.30404
161.1349, 90.03795
161.6170, 89.85413
162.0992, 89.94344
162.5813, 90.18336
163.0634, 90.50314
163.5455, 90.95862
164.0276, 91.39149
164.5097, 91.74480
164.9919, 92.02183
165.4740, 92.23273
165.9561, 92.35247
166.4382, 92.42339
166.9203, 92.45212
167.4025, 91.92515
167.8846, 91.88082
168.3667, 93.37416
168.8488, 96.16451
169.3309, 98.69976
169.8130, 99.89035
170.2952, 100.3373
170.7773, 100.7691
171.2594, 101.4706
171.7415, 102.2265
172.2236, 102.7909
172.7057, 103.1829
173.1879, 103.7043
173.6700, 104.5942
174.1521, 105.7613
174.6342, 107.0508
175.1163, 108.4364
175.5984, 109.9102
176.0806, 111.4431
176.5627, 113.0396
177.0448, 114.7064
177.5269, 116.3605
178.0090, 118.0723
178.4911, 120.0614
178.9733, 122.7307
179.4554, 125.6131
179.9375, 127.8718
180.4196, 129.4183
180.9017, 130.9390
181.3839, 133.0916
181.8660, 135.7874
182.3481, 138.8025
182.8302, 142.3448
183.3123, 146.0894
183.7944, 149.1603
184.2766, 151.4761
184.7587, 153.6043
185.2408, 156.3848
185.7229, 159.6854
186.2050, 162.8582
186.6871, 165.3269
187.1693, 167.3729
187.6514, 169.9040
188.1335, 173.0530
188.6156, 176.4776
189.0977, 179.8359
189.5798, 183.1085
190.0620, 186.2240
190.5441, 189.0195
191.0262, 191.5813
191.5083, 194.5546
191.9904, 198.1485
192.4725, 201.8717
192.9547, 204.9366
193.4368, 207.3631
193.9189, 209.4013
194.4010, 210.9627
194.8831, 212.1028
195.3652, 213.7993
195.8474, 216.3240
196.3295, 219.1026
196.8116, 220.9698
197.2937, 221.8657
197.7758, 222.4015
198.2579, 222.8941
198.7401, 223.3460
199.2222, 223.6959
199.7043, 224.1057
200.1864, 224.2251
200.6685, 223.2439
201.1507, 221.1205
201.6328, 218.0918
202.1149, 213.9697
202.5970, 208.5964
203.0791, 203.7722
203.5612, 199.8245
204.0434, 196.4279
204.5255, 192.8205
205.0076, 189.0307
205.4897, 184.9434
205.9718, 180.2649
206.4539, 174.7751
206.9361, 170.1028
207.4182, 166.6657
207.9003, 164.0237
208.3824, 160.5413
208.8645, 155.8848
209.3466, 151.2361
209.8288, 147.2693
210.3109, 144.0759
210.7930, 141.2011
211.2751, 138.7459
211.7572, 136.5544
212.2393, 133.8565
212.7215, 130.4113
213.2036, 127.0476
213.6857, 124.3534
214.1678, 122.5277
214.6499, 120.6519
215.1321, 118.5544
215.6142, 116.3338
216.0963, 114.5036
216.5784, 113.2130
217.0605, 112.0381
217.5426, 110.6843
218.0248, 109.0535
218.5069, 107.5959
218.9890, 106.4620
219.4711, 105.5380
219.9532, 104.1832
220.4353, 102.0453
220.9175, 100.0365
221.3996, 98.76843
221.8817, 98.57088
222.3638, 98.28425
222.8459, 97.80030
223.3280, 97.14287
223.8102, 96.48275
224.2923, 95.85108
224.7744, 95.15166
225.2565, 94.30566
225.7386, 93.21907
226.2208, 92.21361
226.7029, 91.32060
227.1850, 90.52953
227.6671, 89.83556
228.1492, 89.26075
228.6313, 88.75114
229.1135, 88.26028
229.5956, 87.70914
230.0777, 87.35424
230.5598, 87.28268
231.0419, 87.43164
231.5240, 87.49614
232.0062, 87.48930
232.4883, 87.38328
232.9704, 87.15588
233.4525, 86.77851
233.9346, 86.34171
234.4167, 85.81698
234.8989, 85.23490
235.3810, 84.75275
235.8631, 84.44322
236.3452, 84.12810
236.8273, 83.67033
237.3095, 82.89405
237.7916, 82.35122
238.2737, 82.07323
238.7558, 82.04826
239.2379, 82.26839
239.7200, 82.99006
240.2022, 83.60893
240.6843, 83.78804
241.1664, 83.34514
241.6485, 82.84307
242.1306, 82.20304
242.6127, 81.52201
243.0949, 81.22742
243.5770, 81.58115
244.0591, 81.96153
244.5412, 82.04061
245.0233, 81.67845
245.5054, 81.32739
245.9876, 80.95900
246.4697, 80.61971
246.9518, 80.45073
247.4339, 80.49712
247.9160, 80.64680
248.3981, 80.87825
248.8803, 81.31868
249.3624, 81.51405
249.8445, 81.28899
250.3266, 80.85551
250.8087, 80.82181
251.2909, 81.37939
251.7730, 82.02492
252.2551, 82.56113
252.7372, 83.05503
253.2193, 83.24245
253.7014, 82.94349
254.1836, 82.41537
254.6657, 82.26433
255.1478, 82.63573
255.6299, 83.13164
256.1120, 83.64570
256.5941, 84.27551
257.0763, 84.55154
257.5584, 84.23696
258.0405, 83.72189
258.5226, 83.84714
259.0047, 84.92417
259.4868, 86.00317
259.9690, 86.73190
260.4511, 87.06696
260.9332, 87.23321
261.4153, 87.16724
261.8974, 86.98994
262.3795, 86.90126
262.8617, 86.91487
263.3438, 86.98006
263.8259, 87.06794
264.3080, 87.16431
264.7901, 87.38396
265.2722, 87.73693
265.7544, 88.19909
266.2365, 88.79220
266.7186, 89.62819
267.2007, 90.23426
267.6829, 90.32757
268.1650, 89.85374
268.6471, 89.95275
269.1292, 90.84859
269.6113, 91.96745
270.0934, 92.57803
270.5756, 92.57402
271.0577, 92.48685
271.5398, 92.42678
272.0219, 92.39540
272.5040, 92.49106
272.9861, 92.76195
273.4683, 93.05276
273.9504, 93.16878
274.4325, 93.06364
274.9146, 93.04751
275.3967, 93.24399
275.8788, 93.60926
276.3610, 93.39156
276.8431, 93.88802
277.3252, 94.17828
277.8073, 94.27343
278.2894, 93.58908
278.7715, 93.91129
279.2537, 93.83013
279.7358, 93.73241
280.2179, 94.19630
280.7000, 93.62532
281.1821, 94.08030
281.6642, 94.12573
282.1464, 94.35860
282.6285, 94.18560
283.1106, 94.13796
283.5927, 94.49632
284.0748, 94.22922
284.5569, 94.64608
285.0391, 94.84444
285.5212, 94.83542
286.0033, 94.03462
286.4854, 94.22808
286.9675, 94.00587
287.4496, 93.75484
287.9318, 94.05309
288.4139, 93.30421
288.8960, 93.56901
289.3781, 93.41196
289.8602, 93.43008
290.3424, 93.02998
290.8245, 92.74301
291.3066, 92.84975
291.7887, 92.71939
292.2708, 92.09755
292.7530, 91.80153
293.2351, 91.39257
293.7172, 90.92260
294.1993, 90.60001
294.6814, 90.46232
295.1635, 90.32853
295.6457, 89.89791
296.1278, 89.24583
296.6099, 88.70058
297.0920, 88.50602
297.5741, 88.50829
298.0562, 88.38931
298.5384, 88.13455
299.0205, 87.90260
299.5026, 87.82893
299.9847, 87.90117
300.4668, 88.09157
300.9489, 88.56419
301.4311, 89.05750
301.9132, 89.14282
302.3953, 88.83428
302.8774, 88.44614
303.3595, 88.16988
303.8416, 87.99563
304.3238, 87.90677
304.8059, 87.96341
305.2880, 88.04282
305.7701, 88.04549
306.2522, 87.96909
306.7343, 87.80032
307.2165, 87.39222
307.6986, 86.93071
308.1807, 86.66190
308.6628, 86.72202
309.1449, 86.85798
309.6270, 86.90746
310.1092, 86.87737
310.5913, 86.78939
311.0734, 86.53959
311.5555, 86.29786
312.0376, 85.84713
312.5197, 86.29197
313.0019, 86.53178
313.4840, 86.57764
313.9661, 85.84516
314.4482, 86.12041
314.9304, 85.99342
315.4125, 85.85107
315.8946, 86.27147
316.3767, 85.65818
316.8588, 86.07200
317.3409, 86.07744
317.8231, 86.27148
318.3052, 86.06081
318.7873, 85.97665
319.2694, 86.29967
319.7515, 86.39905
320.2336, 86.14630
320.7158, 86.35922
321.1979, 85.74338
321.6800, 85.85697
322.1621, 86.28595
322.6442, 86.05942
323.1263, 86.28558
323.6085, 86.34093
324.0906, 85.61593
324.5727, 86.25122
325.0548, 86.29990
325.5369, 85.74622
326.0190, 86.33843
326.5012, 85.87028
326.9833, 85.78218
327.4654, 85.98040
327.9475, 85.88252
328.4296, 86.25446
328.9117, 86.17608
329.3939, 86.05852
329.8760, 86.11816
330.3581, 85.68011
330.8402, 86.16869
331.3223, 86.02625
331.8044, 86.19923
332.2866, 86.44458
332.7687, 86.14573
333.2508, 86.42542
333.7329, 85.81089
334.2150, 85.94671
334.6971, 86.00302
335.1793, 86.53937
335.6614, 85.93385
336.1435, 86.05351
336.6256, 86.48260
337.1077, 86.48151
337.5899, 86.02730
338.0720, 86.11236
338.5541, 86.28432
339.0362, 86.57478
339.5183, 86.89127
340.0005, 87.10577
340.4826, 87.18337
340.9647, 87.46867
341.4468, 88.14656
341.9289, 89.00453
342.4110, 89.22915
342.8932, 88.71431
343.3753, 88.24367
343.8574, 88.47027
344.3395, 89.34002
344.8216, 89.98772
345.3037, 90.29852
345.7859, 90.40687
346.2680, 90.49458
346.7501, 90.56564
347.2322, 90.68803
347.7143, 90.97776
348.1964, 91.35310
348.6786, 91.48335
349.1607, 91.31080
349.6428, 91.17887
350.1249, 91.55988
350.6070, 92.31670
351.0891, 93.02896
351.5713, 93.56355
352.0534, 93.92881
352.5355, 94.08584
353.0176, 94.04003
353.4997, 93.97372
353.9818, 94.01811
354.4640, 94.13764
354.9461, 94.27735
355.4282, 94.40914
355.9103, 94.57168
356.3924, 94.88264
356.8745, 95.28352
357.3567, 95.53568
357.8388, 95.45958
358.3209, 95.20657
358.8030, 94.86404
359.2851, 94.37557
359.7672, 94.00792
360.2494, 93.97282
360.7315, 94.15282
361.2136, 94.33052
361.6957, 94.66056
362.1779, 94.77720
362.6600, 94.37391
363.1421, 93.34242
363.6242, 92.48348
364.1063, 92.13038
364.5884, 92.02658
365.0706, 91.91261
365.5527, 91.94556
366.0348, 91.74434
366.5169, 91.10870
366.9990, 90.06811
367.4811, 89.14214
367.9633, 88.34260
368.4454, 87.69283
368.9275, 87.21609
369.4096, 87.10681
369.8917, 86.90304
370.3738, 86.58012
370.8560, 86.15697
371.3381, 85.68257
371.8202, 85.06310
372.3023, 84.51510
372.7844, 84.16066
373.2665, 84.09155
373.7487, 83.81456
374.2308, 83.15897
374.7129, 82.46825
375.1950, 82.30235
375.6771, 82.92620
376.1592, 83.20705
376.6414, 82.69353
377.1235, 81.50536
377.6056, 80.88280
378.0877, 80.93275
378.5698, 81.18059
379.0519, 81.27892
379.5341, 81.22813
380.0162, 80.92687
380.4983, 80.24567
380.9804, 79.43956
381.4625, 79.17458
381.9446, 79.43632
382.4268, 79.75729
382.9089, 79.79063
383.3910, 79.64890
383.8731, 79.80319
384.3553, 80.37005
384.8374, 80.83372
385.3195, 80.42307
385.8016, 79.38721
386.2837, 78.45168
386.7658, 77.97390
387.2480, 77.76526
387.7301, 77.54378
388.2122, 77.32028
388.6943, 76.31110
389.1764, 77.47047
389.6585, 78.10149
390.1407, 78.23251
390.6228, 76.36608
391.1049, 77.07896
391.5870, 76.75817
392.0691, 76.39500
392.5512, 77.47090
393.0334, 75.89500
393.5155, 76.94807
393.9976, 76.95172
394.4797, 77.43566
394.9618, 76.87955
395.4439, 76.64469
395.9261, 77.45020
396.4082, 77.67965
396.8903, 77.00381
397.3724, 77.51829
397.8545, 75.90606
398.3366, 76.16004
398.8188, 77.21921
399.3009, 76.59566
399.7830, 77.12916
400.2651, 75.98324
400.7472, 76.44636
401.2293, 76.80831
401.7115, 77.02943
402.1936, 77.12469
402.6757, 77.14175
403.1578, 77.09387
403.6399, 76.93901
404.1220, 76.57646
404.6042, 75.89485
405.0863, 75.71857
405.5684, 76.26272
406.0505, 76.96875
406.5326, 77.03421
407.0147, 76.36449
407.4969, 75.75789
407.9790, 75.37348
408.4611, 75.22486
408.9432, 75.50835
409.4254, 76.27427
409.9075, 76.93307
410.3896, 76.86817
410.8717, 76.25945
411.3538, 75.92327
411.8359, 76.02013
412.3181, 76.33199
412.8002, 76.61367
413.2823, 76.86045
413.7644, 77.07462
414.2465, 77.26164
414.7286, 77.41256
415.2108, 77.52382
415.6929, 77.59435
416.1750, 77.60856
416.6571, 77.57859
417.1392, 77.47741
417.6213, 77.25378
418.1035, 76.61681
418.5856, 76.14952
419.0677, 76.28455
419.5498, 76.90190
420.0319, 77.54733
420.5140, 78.26413
420.9962, 78.79733
421.4783, 78.91994
421.9604, 77.98640
422.4425, 78.72884
422.9246, 79.26507
423.4067, 79.60620
423.8889, 79.16787
424.3710, 79.73606
424.8531, 79.90085
425.3352, 80.04911
425.8173, 80.75895
426.2994, 80.43395
426.7816, 80.52872
427.2637, 80.94257
427.7458, 81.15025
428.2279, 81.16281
428.7100, 80.39587
429.1921, 80.63549
429.6743, 80.47173
430.1564, 80.29142
430.6385, 80.67271
431.1206, 80.01916
431.6028, 80.39153
432.0849, 80.35439
432.5670, 80.50468
433.0491, 80.24909
433.5312, 80.11887
434.0133, 79.46339
434.4955, 78.27021
434.9776, 77.29004
435.4597, 76.77034
435.9418, 76.51723
436.4239, 76.18888
436.9060, 75.81563
437.3882, 75.57223
437.8703, 75.69786
438.3524, 75.97618
438.8345, 76.08507
439.3166, 75.97350
439.7987, 75.80544
440.2809, 75.72469
440.7630, 75.66895
441.2451, 75.54269
441.7272, 75.16391
442.2093, 74.83311
442.6914, 74.80423
443.1736, 75.01779
443.6557, 74.60449
444.1378, 75.12577
444.6199, 75.44086
445.1020, 75.56083
445.5841, 74.90131
446.0663, 75.24835
446.5484, 75.19201
447.0305, 75.11912
447.5126, 75.60783
447.9947, 75.06168
448.4768, 75.54149
448.9590, 75.61176
449.4411, 75.86946
449.9232, 75.72129
450.4053, 75.17404
450.8874, 75.68374
451.3695, 75.98724
451.8517, 76.09564
452.3338, 75.42454
452.8159, 75.75999
453.2980, 75.69207
453.7801, 75.60760
454.2622, 76.08472
454.7444, 75.52701
455.2265, 76.35194
455.7086, 76.81425
456.1907, 76.96983
456.6729, 76.79890
457.1550, 76.60477
457.6371, 76.72045
458.1192, 77.02769
458.6013, 77.22225
459.0834, 77.16362
459.5656, 77.08757
460.0477, 77.25829
460.5298, 77.62442
461.0119, 78.02321
461.4940, 78.54231
461.9761, 78.54639
462.4583, 79.26823
462.9404, 79.78381
463.4225, 80.10427
463.9046, 79.33024
464.3867, 79.94556
464.8688, 80.35469
465.3510, 80.56874
465.8331, 80.00326
466.3152, 80.44433
466.7973, 80.48203
467.2794, 80.50318
467.7615, 81.08593
468.2437, 80.63386
468.7258, 81.20770
469.2079, 81.37199
469.6900, 81.72373
470.1721, 81.66959
470.6542, 81.74082
471.1364, 81.61571
471.6185, 81.45632
472.1006, 81.27048
472.5827, 81.06609
473.0648, 80.84887
473.5469, 80.65511
474.0291, 80.49216
474.5112, 80.26953
474.9933, 79.87523
475.4754, 79.36544
475.9575, 79.03340
476.4396, 78.91740
476.9218, 78.76131
477.4039, 78.18114
477.8860, 77.35429
478.3681, 76.70090
478.8503, 76.39045
479.3324, 76.26196
479.8145, 76.22294
480.2966, 76.24770
480.7787, 76.24514
481.2608, 76.15287
481.7430, 76.02559
482.2251, 75.86543
482.7072, 75.64468
483.1893, 75.55874
483.6714, 75.91452
484.1535, 76.33315
484.6357, 76.43423
485.1178, 76.00290
485.5999, 75.43275
486.0820, 74.48977
486.5641, 73.39765
487.0462, 73.03132
487.5284, 74.03535
488.0105, 74.90105
488.4926, 74.94997
488.9747, 73.99266
489.4568, 73.45158
489.9389, 73.41443
490.4211, 73.64424
490.9032, 74.01543
491.3853, 74.56275
491.8674, 74.63604
492.3495, 73.91003
492.8316, 72.86393
493.3138, 72.60132
493.7959, 73.06444
494.2780, 73.63806
494.7601, 74.02572
495.2422, 74.26028
495.7243, 74.33614
496.2065, 74.24608
496.6886, 74.20943
497.1707, 74.45097
497.6528, 74.83997
498.1349, 75.19536
498.6170, 75.43720
499.0992, 75.68034
499.5813, 76.02560
500.0634, 76.42322
500.5455, 76.75499
501.0276, 76.87712
501.5097, 77.01875
501.9919, 77.30363
502.4740, 77.76991
502.9561, 78.15170
503.4382, 78.38332
503.9203, 78.56126
504.4025, 78.76050
504.8846, 79.05136
505.3667, 79.18883
505.8488, 79.01797
506.3309, 78.77307
506.8130, 79.02745
507.2952, 79.89648
507.7773, 80.74949
508.2594, 81.38982
508.7415, 81.81667
509.2236, 82.00396
509.7057, 81.93727
510.1879, 81.81794
510.6700, 81.78490
511.1521, 81.83090
511.6342, 81.88873
512.1163, 81.89555
512.5984, 82.10201
513.0806, 83.00260
513.5627, 84.29173
514.0448, 85.33057
514.5269, 85.72994
515.0090, 85.87350
515.4911, 85.89342
515.9733, 85.83123
516.4554, 85.92745
516.9375, 86.42422
517.4196, 86.99693
517.9017, 87.45047
518.3839, 87.70959
518.8660, 87.97762
519.3481, 88.25638
519.8302, 88.56201
520.3123, 88.91230
520.7944, 89.35213
521.2766, 89.74517
521.7587, 89.98143
522.2408, 90.16746
522.7229, 90.77700
523.2050, 91.90409
523.6871, 93.11204
524.1693, 94.11411
524.6514, 94.93372
525.1335, 96.17736
525.6156, 97.91236
526.0977, 99.66716
526.5798, 100.7142
527.0620, 101.3935
527.5441, 102.7409
528.0262, 105.1459
528.5083, 107.9900
528.9904, 110.6183
529.4725, 113.1430
529.9547, 115.8252
530.4368, 118.7030
530.9189, 121.8252
531.4010, 125.3574
531.8831, 129.3241
532.3652, 132.9385
532.8474, 135.4294
533.3295, 137.9029
533.8116, 141.1272
534.2937, 145.7052
534.7758, 150.1044
535.2579, 154.0488
535.7401, 157.9123
536.2222, 162.1461
536.7043, 167.0993
537.1865, 171.7499
537.6686, 175.7534
538.1507, 179.3258
538.6328, 183.2370
539.1149, 187.5301
539.5970, 192.1514
540.0792, 197.1275
540.5613, 202.4339
541.0434, 207.6828
541.5255, 212.8687
542.0076, 217.8966
542.4897, 222.9911
542.9719, 227.8604
543.4540, 231.9885
543.9361, 235.1661
544.4182, 237.5825
544.9003, 239.5364
545.3824, 240.7936
545.8646, 240.8375
546.3467, 239.8604
546.8288, 237.2643
547.3109, 232.5527
547.7930, 225.7300
548.2751, 217.9444
548.7573, 208.8693
549.2394, 199.2503
549.7215, 189.4039
550.2036, 178.8518
550.6857, 169.1736
551.1678, 160.5000
551.6500, 152.5387
552.1321, 144.9588
552.6142, 137.6711
553.0963, 131.1039
553.5784, 125.3982
554.0605, 120.4401
554.5427, 115.9256
555.0248, 111.8615
555.5069, 108.3660
555.9890, 105.8870
556.4711, 103.9324
556.9532, 101.6091
557.4354, 98.88352
557.9175, 96.20287
558.3996, 93.90116
558.8817, 91.85184
559.3638, 89.90528
559.8459, 87.96440
560.3281, 86.28887
560.8102, 85.18497
561.2923, 84.38313
561.7744, 83.46780
562.2565, 82.28265
562.7386, 81.06161
563.2208, 79.70797
563.7029, 78.30269
564.1850, 77.36827
564.6671, 77.12075
565.1492, 76.97877
565.6313, 76.69689
566.1135, 76.27896
566.5956, 75.64825
567.0777, 74.74129
567.5598, 73.85932
568.0419, 73.45376
568.5240, 73.39784
569.0062, 72.94280
569.4883, 71.79722
569.9704, 70.56355
570.4525, 70.19522
570.9346, 70.36998
571.4167, 70.27522
571.8989, 69.09382
572.3810, 67.87619
572.8631, 67.44941
573.3452, 67.70863
573.8273, 67.85415
574.3094, 67.41221
574.7916, 66.91447
575.2737, 66.68995
575.7558, 66.93190
576.2379, 66.90562
576.7200, 66.31649
577.2021, 65.68471
577.6843, 65.51081
578.1664, 66.00841
578.6485, 66.33168
579.1306, 66.38870
579.6127, 66.23445
580.0948, 65.89527
580.5770, 65.37137
581.0591, 64.99631
581.5412, 64.93847
582.0233, 65.09946
582.5054, 65.37489
582.9875, 65.72711
583.4697, 65.89176
583.9518, 65.43020
584.4340, 64.82195
584.9161, 64.66764
585.3982, 65.08901
585.8803, 65.40880
586.3624, 65.06857
586.8445, 64.57763
587.3267, 64.40824
587.8088, 65.10300
588.2909, 65.55212
588.7730, 65.40162
589.2551, 64.99210
589.7372, 64.92215
590.2194, 65.44160
590.7015, 65.79610
591.1836, 65.72703
591.6657, 65.34576
592.1478, 65.23503
592.6299, 65.41444
593.1121, 65.71824
593.5942, 66.16776
594.0763, 66.67082
594.5584, 66.81257
595.0405, 66.56522
595.5226, 66.31509
596.0048, 66.39697
596.4869, 66.69347
596.9690, 67.04331
597.4511, 67.42168
597.9332, 67.82175
598.4153, 68.34241
598.8975, 68.85486
599.3796, 69.18333
599.8617, 69.08533
600.3438, 69.01634
600.8259, 69.07335
601.3080, 69.24435
601.7902, 69.49818
602.2723, 69.91330
602.7544, 70.27421
603.2365, 70.48902
603.7186, 70.55817
604.2007, 70.67488
604.6829, 70.86127
605.1650, 70.97692
605.6471, 70.75199
606.1292, 70.32481
606.6113, 70.33434
607.0934, 70.89651
607.5756, 71.61010
608.0577, 72.09544
608.5398, 72.44039
609.0219, 72.79287
609.5040, 73.31059
609.9861, 73.70252
610.4683, 73.61704
610.9504, 73.30138
611.4325, 73.28770
611.9146, 74.13669
612.3967, 74.87109
612.8788, 75.07211
613.3610, 74.80760
613.8431, 74.94646
614.3252, 75.72917
614.8073, 76.50996
615.2894, 76.92423
615.7715, 76.93867
616.2537, 77.19855
616.7358, 77.73854
617.2179, 78.34726
617.7000, 78.77832
618.1821, 79.09257
618.6642, 79.51938
619.1464, 80.13719
619.6285, 80.74875
620.1106, 81.11671
620.5927, 81.34691
621.0748, 81.62125
621.5569, 81.98809
622.0391, 82.43981
622.5212, 82.96268
623.0033, 83.56930
623.4854, 84.29733
623.9675, 85.46433
624.4496, 86.42717
624.9318, 86.96583
625.4139, 87.08932
625.8960, 87.15870
626.3781, 87.05444
626.8602, 87.17232
627.3423, 87.90441
627.8245, 89.22417
628.3066, 90.12051
628.7887, 90.51504
629.2708, 90.82881
629.7529, 91.46336
630.2350, 92.34932
630.7172, 93.33896
631.1993, 94.38504
631.6815, 95.56449
632.1636, 97.20676
632.6457, 98.95994
633.1278, 100.2924
633.6099, 100.5401
634.0920, 100.8568
634.5742, 101.6449
635.0563, 102.8016
635.5384, 103.9150
636.0205, 104.7387
636.5026, 105.8698
636.9847, 107.6596
637.4669, 110.0299
637.9490, 111.7596
638.4311, 112.7541
638.9132, 113.6070
639.3953, 114.6637
639.8774, 115.9212
640.3596, 117.3322
640.8417, 118.8996
641.3238, 120.6382
641.8059, 122.6479
642.2880, 124.7780
642.7701, 126.7278
643.2523, 128.3405
643.7344, 130.0708
644.2165, 132.2080
644.6986, 134.6054
645.1807, 137.0472
645.6628, 139.5757
646.1450, 142.0435
646.6271, 144.4693
647.1092, 146.8230
647.5913, 148.8645
648.0734, 150.3457
648.5555, 152.2889
649.0377, 155.2182
649.5198, 158.8647
650.0019, 161.9904
650.4840, 164.6384
650.9661, 167.0911
651.4482, 169.3618
651.9304, 171.6502
652.4125, 174.4071
652.8946, 177.6413
653.3767, 180.8801
653.8588, 183.8424
654.3409, 186.6446
654.8231, 189.3961
655.3052, 192.0556
655.7873, 194.7857
656.2694, 197.6534
656.7515, 200.5913
657.2336, 203.5279
657.7158, 206.4440
658.1979, 209.4226
658.6800, 212.5647
659.1621, 215.6588
659.6442, 218.3522
660.1263, 220.6318
660.6085, 222.5727
661.0906, 224.0695
661.5727, 225.3602
662.0548, 226.9590
662.5369, 228.7659
663.0190, 230.4035
663.5012, 231.6690
663.9833, 232.6909
664.4654, 233.6298
664.9475, 234.4511
665.4296, 234.9096
665.9117, 234.8663
666.3939, 234.5004
666.8760, 233.8043
667.3581, 232.7116
667.8402, 231.8627
668.3223, 231.4887
668.8044, 230.9873
669.2866, 229.9885
669.7687, 228.4927
670.2508, 226.3318
670.7329, 223.4037
671.2150, 220.1692
671.6971, 216.9716
672.1793, 213.8328
672.6614, 210.8968
673.1435, 208.2252
673.6256, 205.5969
674.1077, 202.9019
674.5898, 200.0756
675.0720, 197.0600
675.5541, 193.8268
676.0362, 190.3703
676.5183, 186.4637
677.0004, 182.3672
677.4825, 178.7384
677.9647, 175.8160
678.4468, 172.9902
678.9290, 170.1505
679.4111, 167.2887
679.8932, 164.1484
680.3753, 160.7215
680.8574, 157.3892
681.3395, 154.2472
681.8217, 151.3764
682.3038, 149.2573
682.7859, 147.8034
683.2680, 146.1330
683.7501, 143.3741
684.2322, 140.3094
684.7144, 137.4608
685.1965, 134.9056
685.6786, 132.6659
686.1607, 130.9490
686.6428, 129.4474
687.1249, 127.9327
687.6071, 126.4597
688.0892, 124.8551
688.5713, 123.0704
689.0534, 121.2357
689.5355, 119.5360
690.0176, 117.9510
690.4998, 116.2967
690.9819, 114.5279
691.4640, 112.7188
691.9461, 110.8883
692.4282, 109.1365
692.9103, 107.7165
693.3925, 107.0142
693.8746, 106.3258
694.3567, 105.2083
694.8388, 103.8065
695.3209, 102.4625
695.8030, 101.0584
696.2852, 99.95942
696.7673, 99.42794
697.2494, 99.28535
697.7315, 98.58009
698.2136, 97.14063
698.6957, 95.69567
699.1779, 94.51672
699.6600, 93.58834
700.1421, 93.01296
700.6242, 92.76173
701.1063, 92.30681
701.5884, 91.04740
702.0706, 89.49852
702.5527, 88.32276
703.0348, 87.56697
703.5169, 86.80306
703.9990, 85.70446
704.4811, 84.61002
704.9633, 83.76060
705.4454, 83.21286
705.9275, 82.83667
706.4096, 82.73937
706.8917, 82.69031
707.3738, 82.52177
707.8560, 82.24545
708.3381, 81.75664
708.8202, 81.02418
709.3023, 80.16133
709.7844, 79.16595
710.2665, 78.15599
710.7487, 77.45982
711.2308, 77.23576
711.7129, 77.16800
712.1950, 77.17121
712.6771, 77.12306
713.1592, 76.83721
713.6414, 75.91178
714.1235, 75.14429
714.6056, 74.89657
715.0877, 74.88993
715.5698, 74.55673
716.0519, 73.73537
716.5341, 73.00718
717.0162, 72.50497
717.4983, 72.19896
717.9804, 72.07291
718.4625, 72.11285
718.9446, 72.13921
719.4268, 72.04247
719.9089, 71.89753
720.3910, 71.86423
720.8731, 71.88948
721.3552, 71.74584
721.8373, 71.08620
722.3195, 70.43491
722.8016, 70.16264
723.2837, 70.29235
723.7658, 70.11805
724.2479, 69.19073
724.7300, 68.54659
725.2122, 68.85175
725.6943, 70.12896
726.1765, 70.51321
726.6586, 69.88094
727.1407, 69.16206
727.6228, 69.16592
728.1049, 69.61443
728.5870, 69.89111
729.0692, 69.94801
729.5513, 69.84917
730.0334, 69.54011
730.5155, 69.15382
730.9976, 68.78447
731.4797, 68.36971
731.9619, 68.20818
732.4440, 68.61917
732.9261, 69.11337
733.4082, 69.30510
733.8903, 69.07242
734.3724, 68.95227
734.8546, 68.99779
735.3367, 69.09566
735.8188, 69.04662
736.3009, 68.90832
736.7830, 68.99146
737.2651, 69.43267
737.7473, 69.86866
738.2294, 69.84016
738.7115, 69.59626
739.1936, 69.51186
739.6757, 69.95356
740.1578, 70.25061
740.6400, 70.05103
741.1221, 69.63738
741.6042, 69.51943
742.0863, 69.90157
742.5684, 70.10263
743.0505, 69.93089
743.5327, 69.60369
744.0148, 69.65749
744.4969, 70.06084
744.9790, 70.41104
745.4611, 70.54659
745.9432, 70.57287
746.4254, 70.56257
746.9075, 70.55287
747.3896, 70.64067
747.8717, 71.11887
748.3538, 71.45420
748.8359, 71.23155
749.3181, 70.61282
749.8002, 70.44850
750.2823, 71.06346
750.7644, 71.60298
751.2465, 71.76562
751.7286, 71.65147
752.2108, 71.73892
752.6929, 72.03104
753.1750, 72.36462
753.6571, 72.71397
754.1392, 73.01373
754.6213, 73.16789
755.1035, 73.17712
755.5856, 73.04275
756.0677, 72.54838
756.5498, 72.09496
757.0319, 71.90781
757.5140, 72.00789
757.9962, 72.23647
758.4783, 72.64053
758.9604, 73.08164
759.4425, 73.56389
759.9246, 74.07476
760.4067, 74.21371
760.8889, 73.94717
761.3710, 73.60262
761.8531, 73.23811
762.3352, 73.02349
762.8173, 73.47663
763.2994, 74.58942
763.7816, 75.46973
764.2637, 75.34724
764.7458, 74.93186
765.2279, 74.74580
765.7100, 74.90038
766.1921, 74.97990
766.6743, 74.82027
767.1564, 74.74998
767.6385, 74.41564
768.1206, 74.98875
768.6027, 75.35567
769.0848, 75.52746
769.5670, 74.91979
770.0491, 75.31864
770.5312, 75.31413
771.0133, 75.29306
771.4954, 75.83360
771.9775, 75.33926
772.4597, 75.87090
772.9418, 75.99298
773.4240, 76.30252
773.9061, 76.20617
774.3882, 76.23516
774.8703, 76.81702
775.3524, 77.20303
775.8345, 77.39938
776.3167, 77.40232
776.7988, 77.21892
777.2809, 76.80990
777.7630, 76.43003
778.2451, 76.39562
778.7272, 76.58385
779.2094, 76.76538
779.6915, 76.90209
780.1736, 76.99760
780.6557, 76.97293
781.1378, 76.94937
781.6199, 77.04955
782.1021, 77.40886
782.5842, 77.69997
783.0663, 77.93424
783.5484, 78.08572
784.0305, 78.05746
784.5126, 77.83620
784.9948, 77.87613
785.4769, 78.27294
785.9590, 78.73734
786.4411, 78.98555
786.9232, 79.04839
787.4053, 78.95130
787.8875, 78.61254
788.3696, 78.35961
788.8517, 78.47082
789.3338, 78.16203
789.8159, 78.53839
790.2980, 78.70858
790.7802, 78.68362
791.2623, 77.87919
791.7444, 78.08133
792.2265, 77.88007
792.7086, 77.66227
793.1907, 78.00607
793.6729, 77.31499
794.1550, 77.64988
794.6371, 77.57524
795.1192, 77.68803
795.6013, 77.39494
796.0834, 77.22721
796.5656, 77.46546
797.0477, 77.47893
797.5298, 77.24300
798.0119, 77.07137
798.4940, 76.47616
798.9761, 76.10027
799.4583, 76.03905
799.9404, 76.11735
800.4225, 76.07394
800.9046, 75.94319
801.3867, 75.95858
801.8688, 76.20785
802.3510, 76.45741
802.8331, 76.52808
803.3152, 76.43446
803.7973, 76.19033
804.2794, 75.71970
804.7615, 75.23292
805.2437, 74.68515
805.7258, 74.18874
806.2079, 73.90072
806.6900, 73.91669
807.1721, 73.73776
807.6542, 73.26539
808.1364, 72.72656
808.6185, 72.43077
809.1006, 72.31810
809.5827, 72.20702
810.0648, 72.04454
810.5469, 71.91832
811.0291, 71.95618
811.5112, 72.03851
811.9933, 72.02682
812.4754, 71.86950
812.9575, 71.64072
813.4396, 71.27404
813.9218, 70.90823
814.4039, 70.77798
814.8860, 70.91537
815.3681, 70.69286
815.8502, 69.97672
816.3323, 69.17872
816.8145, 68.85823
817.2966, 68.77921
817.7787, 68.46822
818.2608, 67.70594
818.7429, 67.09306
819.2251, 66.91129
819.7072, 67.01936
820.1893, 67.33504
820.6714, 68.23308
821.1536, 68.42608
821.6357, 67.63602
822.1178, 66.63649
822.5999, 66.30733
823.0820, 66.55030
823.5641, 66.71876
824.0463, 66.73498
824.5284, 66.69986
825.0105, 66.79694
825.4926, 66.84882
825.9747, 66.62083
826.4568, 65.98612
826.9390, 65.35918
827.4211, 64.70143
827.9032, 64.18696
828.3853, 63.91315
828.8674, 63.86787
829.3495, 64.24831
829.8317, 65.17281
830.3138, 65.99731
830.7959, 65.94968
831.2780, 65.36492
831.7601, 64.91854
832.2422, 64.68631
832.7244, 64.58569
833.2065, 64.80986
833.6886, 64.97588
834.1707, 64.70521
834.6528, 63.75707
835.1349, 63.25307
835.6171, 63.30522
836.0992, 63.61176
836.5813, 64.15815
837.0634, 64.89162
837.5455, 64.82977
838.0276, 63.95420
838.5098, 63.18188
838.9919, 63.41926
839.4740, 63.99481
839.9561, 64.15573
840.4382, 63.85599
840.9203, 63.59886
841.4025, 63.57603
841.8846, 63.61161
842.3667, 63.65540
842.8488, 63.70500
843.3309, 63.56394
843.8130, 63.16845
844.2952, 62.94253
844.7773, 63.30930
845.2594, 63.97135
845.7415, 64.18329
846.2236, 64.02444
846.7057, 63.91169
847.1879, 64.10666
847.6700, 64.38668
848.1521, 64.65465
848.6342, 64.90250
849.1163, 65.11752
849.5984, 65.29035
850.0806, 65.44021
850.5627, 65.54593
851.0448, 65.64501
851.5269, 65.90074
852.0090, 66.28989
852.4911, 66.62735
852.9733, 66.86590
853.4554, 66.96600
853.9375, 66.76983
854.4196, 66.40929
854.9017, 66.21001
855.3839, 66.49989
855.8660, 66.66830
856.3481, 66.50933
856.8302, 66.20313
857.3123, 66.13209
857.7944, 66.30192
858.2766, 66.67947
858.7587, 67.37054
859.2408, 68.02235
859.7229, 67.99056
860.2050, 67.55010
860.6871, 67.26414
861.1693, 67.43515
861.6514, 67.61044
862.1335, 67.64687
862.6156, 67.58091
863.0977, 67.44740
863.5798, 67.16000
864.0620, 67.06648
864.5441, 67.23256
865.0262, 67.50541
865.5083, 67.76756
865.9904, 67.97894
866.4726, 67.95383
866.9547, 67.59644
867.4368, 67.36602
867.9189, 67.82403
868.4011, 68.41882
868.8832, 68.60144
869.3653, 68.02325
869.8474, 67.75385
870.3295, 67.92696
870.8116, 68.20136
871.2938, 68.26553
871.7759, 68.15642
872.2580, 68.32287
872.7401, 68.78200
873.2222, 69.28712
873.7043, 69.70478
874.1865, 70.03121
874.6686, 70.26170
875.1507, 70.39797
875.6328, 70.44125
876.1149, 70.33671
876.5970, 70.19152
877.0792, 70.01760
877.5613, 69.82679
878.0434, 69.78921
878.5255, 69.91457
879.0076, 69.94714
879.4897, 69.57915
879.9719, 69.13374
880.4540, 69.15503
880.9361, 69.51115
881.4182, 69.74577
881.9003, 69.34752
882.3824, 69.15678
882.8646, 69.68855
883.3467, 70.60182
883.8288, 70.99136
884.3109, 70.75239
884.7930, 70.58698
885.2751, 70.69656
885.7573, 70.93587
886.2394, 71.01573
886.7215, 71.03449
887.2036, 71.25294
887.6857, 71.95988
888.1678, 72.54704
888.6500, 72.69999
889.1321, 72.59647
889.6142, 72.46745
890.0963, 72.29116
890.5784, 72.18541
891.0605, 72.18566
891.5427, 72.18929
892.0248, 72.05379
892.5069, 71.82475
892.9890, 71.62551
893.4711, 71.47315
893.9532, 71.37711
894.4354, 71.34290
894.9175, 71.37073
895.3996, 71.46507
895.8817, 71.63325
896.3638, 71.87302
896.8459, 72.29883
897.3281, 72.55042
897.8102, 72.18881
898.2923, 71.40970
898.7744, 71.46578
899.2565, 72.27703
899.7386, 72.98714
900.2208, 72.83599
900.7029, 72.55721
901.1850, 72.76868
901.6671, 73.40125
902.1492, 73.80811
902.6313, 73.89835
903.1135, 73.79145
903.5956, 73.45890
904.0777, 72.99240
904.5598, 72.58384
905.0419, 72.25011
905.5240, 72.12393
906.0062, 72.37977
906.4883, 72.65902
906.9704, 72.51833
907.4525, 72.21693
907.9346, 72.17236
908.4167, 73.01511
908.8989, 73.33875
909.3810, 72.78297
909.8631, 71.99695
910.3452, 71.85825
910.8273, 72.31583
911.3094, 72.60193
911.7916, 72.61504
912.2737, 72.52527
912.7558, 72.45769
913.2380, 72.39012
913.7201, 72.25611
914.2022, 71.99512
914.6843, 71.97497
915.1664, 72.48233
915.6486, 72.94722
916.1307, 73.05009
916.6128, 72.81303
917.0949, 72.52465
917.5770, 72.18633
918.0591, 72.09332
918.5413, 72.81093
919.0234, 73.59071
919.5055, 73.40303
919.9876, 72.51274
920.4697, 72.09544
920.9518, 73.24807
921.4340, 73.92747
921.9161, 73.43552
922.3982, 72.33967
922.8803, 72.15760
923.3624, 72.85975
923.8445, 73.44386
924.3267, 73.60530
924.8088, 73.58659
925.2909, 73.61169
925.7730, 73.65012
926.2551, 73.64803
926.7372, 73.47447
927.2194, 73.48336
927.7015, 73.79862
928.1836, 74.20753
928.6657, 74.55809
929.1478, 74.85069
929.6299, 74.90916
930.1121, 74.71065
930.5942, 74.52977
931.0763, 74.65535
931.5584, 74.89014
932.0405, 75.02494
932.5226, 75.03921
933.0048, 75.04885
933.4869, 75.06268
933.9690, 75.09605
934.4511, 75.16840
934.9332, 75.26247
935.4153, 75.26016
935.8975, 75.16792
936.3796, 75.14600
936.8617, 75.29346
937.3438, 75.51366
937.8259, 75.67554
938.3080, 75.84223
938.7902, 76.13621
939.2723, 76.91912
939.7544, 77.35490
940.2365, 77.20014
940.7186, 76.85022
941.2007, 76.90849
941.6829, 77.32764
942.1650, 77.49268
942.6471, 77.28829
943.1292, 77.10531
943.6113, 77.38719
944.0934, 77.81322
944.5756, 78.09663
945.0577, 78.19881
945.5398, 78.09940
946.0219, 77.63976
946.5040, 77.26234
946.9861, 77.26163
947.4683, 77.54472
947.9504, 77.45995
948.4325, 77.06632
948.9146, 76.87336
949.3967, 77.43764
949.8788, 78.07448
950.3610, 78.23184
950.8431, 78.05484
951.3252, 77.99413
951.8073, 78.21095
952.2894, 78.31142
952.7715, 78.19302
953.2537, 78.00573
953.7358, 78.06815
954.2179, 78.28921
954.7000, 78.22958
955.1821, 77.71156
955.6642, 77.34656
956.1464, 77.70015
956.6285, 78.31482
957.1106, 78.81791
957.5927, 79.20413
958.0748, 79.28911
958.5569, 78.91649
959.0391, 78.66252
959.5212, 79.06016
960.0033, 79.84148
960.4855, 80.17764
960.9676, 80.13557
961.4497, 80.09849
961.9318, 79.48801
962.4139, 80.08653
962.8961, 80.47891
963.3782, 80.67612
963.8603, 80.09386
964.3424, 80.51815
964.8245, 80.53905
965.3066, 80.54340
965.7888, 81.10940
966.2709, 80.64049
966.7530, 81.19753
967.2351, 81.34504
967.7172, 81.67999
968.1993, 82.72053
968.6815, 82.22881
969.1636, 82.83441
969.6457, 83.23384
970.1278, 83.43816
970.6099, 82.86298
971.0920, 83.29434
971.5742, 83.32236
972.0563, 83.33381
972.5384, 83.90685
973.0205, 83.44505
973.5026, 84.00919
973.9847, 84.16378
974.4669, 84.50585
974.9490, 84.44200
975.4311, 84.50353
975.9132, 84.97106
976.3953, 85.21379
976.8774, 85.10322
977.3596, 85.45721
977.8417, 84.90968
978.3238, 85.02309
978.8059, 85.93792
979.2880, 86.96055
979.7701, 87.27566
980.2523, 86.46656
980.7344, 85.89175
981.2165, 85.56832
981.6986, 85.52938
982.1807, 85.91753
982.6628, 86.60368
983.1450, 87.02419
983.6271, 87.19991
984.1092, 87.26488
984.5913, 87.35425
985.0734, 87.29252
985.5555, 86.72012
986.0377, 85.95719
986.5198, 85.87913
987.0019, 86.78738
987.4840, 87.36382
987.9661, 87.36201
988.4482, 87.10009
988.9304, 86.90501
989.4125, 86.79500
989.8946, 86.84542
990.3767, 87.10372
990.8588, 87.29168
991.3409, 87.30254
991.8231, 87.19844
992.3052, 87.02178
992.7873, 86.77483
993.2694, 86.32389
993.7515, 85.65235
994.2336, 85.25801
994.7158, 85.69474
995.1979, 86.29829
995.6800, 86.16477
996.1621, 85.60697
996.6442, 85.35692
997.1263, 86.13181
997.6085, 86.46607
998.0906, 86.02338
998.5727, 85.35155
999.0548, 85.23512
999.5369, 85.55521
1000.019, 85.44075
1000.501, 84.75523
1000.983, 84.33254
1001.465, 85.27203
1001.948, 86.32430
1002.430, 86.34910
1002.912, 85.27837
1003.394, 84.91834
1003.876, 85.56206
1004.358, 85.93040
1004.840, 85.37944
1005.322, 84.44572
1005.804, 84.13090
1006.287, 84.28585
1006.769, 84.53817
1007.251, 84.74535
1007.733, 85.03974
1008.215, 85.53743
1008.697, 86.09234
1009.179, 86.62508
1009.661, 87.15238
1010.144, 87.36394
1010.626, 87.23141
1011.108, 87.08088
1011.590, 87.26571
1012.072, 87.49853
1012.554, 87.33484
1013.036, 86.86088
1013.518, 86.88863
1014.000, 87.90066
1014.483, 88.79179
1014.965, 89.29998
1015.447, 89.55012
1015.929, 89.65575
1016.411, 89.71708
1016.893, 90.14538
1017.375, 91.14624
1017.857, 92.17750
1018.340, 92.89622
1018.822, 93.50426
1019.304, 94.19730
1019.786, 95.00005
1020.268, 95.73061
1020.750, 96.39647
1021.232, 96.93530
1021.714, 97.30556
1022.196, 97.52532
1022.679, 97.51692
1023.161, 97.37464
1023.643, 97.37041
1024.125, 97.52699
1024.607, 97.95992
1025.089, 98.82623
1025.571, 99.80415
1026.053, 100.4416
1026.536, 100.7632
1027.018, 101.0510
1027.500, 101.3435
1027.982, 101.5083
1028.464, 101.3214
1028.946, 101.0632
1029.428, 100.9345
1029.910, 100.9521
1030.392, 101.0924
1030.875, 101.4289
1031.357, 101.6300
1031.839, 101.5973
1032.321, 101.3364
1032.803, 100.7372
1033.285, 99.93777
1033.767, 99.23764
1034.249, 98.73275
1034.732, 98.33623
1035.214, 98.23788
1035.696, 98.03486
1036.178, 97.35072
1036.660, 96.19803
1037.142, 95.21784
1037.624, 94.42649
1038.106, 93.75533
1038.589, 93.33122
1039.071, 92.86058
1039.553, 91.99731
1040.035, 90.89390
1040.517, 90.07194
1040.999, 89.61421
1041.481, 89.26125
1041.963, 89.00312
1042.445, 88.73978
1042.927, 88.38313
1043.410, 87.90473
1043.892, 87.21005
1044.374, 86.25700
1044.856, 85.32648
1045.338, 84.44157
1045.820, 83.68659
1046.302, 83.12087
1046.784, 82.71706
1047.267, 82.37868
1047.749, 82.09145
1048.231, 81.72239
1048.713, 81.19901
1049.195, 80.61959
1049.677, 80.07623
1050.159, 79.51426
1050.641, 78.82612
1051.124, 77.84270
1051.606, 77.23249
1052.088, 77.08330
1052.570, 76.98844
1053.052, 76.67050
1053.534, 76.16575
1054.016, 75.39769
1054.498, 74.46404
1054.980, 73.80020
1055.463, 73.89806
1055.945, 73.87464
1056.427, 73.50429
1056.909, 72.93437
1057.391, 72.32707
1057.873, 71.71091
1058.355, 71.36642
1058.837, 71.35741
1059.319, 71.37770
1059.802, 71.13948
1060.284, 70.88216
1060.766, 70.85955
1061.248, 71.05025
1061.730, 70.92884
1062.212, 70.42516
1062.694, 69.98089
1063.176, 69.79259
1063.659, 69.69113
1064.141, 69.41676
1064.623, 69.05723
1065.105, 68.74764
1065.587, 68.46009
1066.069, 68.41293
1066.551, 68.85653
1067.033, 69.16306
1067.516, 68.72005
1067.998, 67.72942
1068.480, 67.41257
1068.962, 67.63320
1069.444, 67.63824
1069.926, 66.56551
1070.408, 65.67747
1070.890, 65.84428
1071.372, 66.45373
1071.854, 66.63731
1072.337, 66.38390
1072.819, 65.66834
1073.301, 64.42079
1073.783, 63.40000
1074.265, 63.57138
1074.747, 64.15351
1075.229, 64.44477
1075.711, 64.39246
1076.194, 64.12642
1076.676, 63.58139
1077.158, 63.03319
1077.640, 62.52543
1078.122, 62.11034
1078.604, 61.95171
1079.086, 61.93866
1079.568, 61.83910
1080.051, 61.58828
1080.533, 61.30129
1081.015, 60.95068
1081.497, 60.64447
1081.979, 60.45552
1082.461, 60.36390
1082.943, 60.25463
1083.425, 60.11987
1083.907, 59.89806
1084.390, 59.45267
1084.872, 59.06301
1085.354, 59.02571
1085.836, 59.08508
1086.318, 58.88717
1086.800, 58.33853
1087.282, 57.87971
1087.764, 57.50819
1088.247, 57.29834
1088.729, 57.47610
1089.211, 57.72599
1089.693, 57.62450
1090.175, 57.26028
1090.657, 57.01766
1091.139, 56.96862
1091.621, 57.07753
1092.104, 57.45399
1092.586, 57.74678
1093.068, 57.39437
1093.550, 56.61595
1094.032, 55.76351
1094.514, 54.88153
1094.996, 54.50124
1095.478, 55.33818
1095.960, 56.19764
1096.443, 56.68550
1096.925, 56.83777
1097.407, 56.72018
1097.889, 56.35389
1098.371, 55.86271
1098.853, 55.20838
1099.335, 54.69025
1099.817, 54.48455
1100.299, 54.54552
1100.782, 54.97663
1101.264, 55.79795
1101.746, 55.81988
1102.228, 54.97326
1102.710, 54.26759
1103.192, 54.32203
1103.674, 54.61464
1104.156, 54.58580
1104.639, 54.37506
1105.121, 54.21227
1105.603, 54.22023
1106.085, 54.10435
1106.567, 53.82945
1107.049, 53.53134
1107.531, 53.30921
1108.013, 53.14295
1108.495, 52.95689
1108.978, 52.77657
1109.460, 52.70147
1109.942, 52.89626
1110.424, 53.01912
1110.906, 52.97784
1111.388, 52.88611
1111.870, 52.89459
1112.352, 52.98269
1112.834, 53.10917
1113.317, 53.26390
1113.799, 53.27313
1114.281, 52.82905
1114.763, 52.43611
1115.245, 52.36987
1115.727, 52.52339
1116.209, 52.70615
1116.691, 52.91204
1117.174, 52.82818
1117.656, 52.33814
1118.138, 51.83620
1118.620, 51.48575
1119.102, 51.40308
1119.584, 51.95747
1120.066, 53.09662
1120.548, 53.14598
1121.031, 51.90710
1121.513, 50.97707
1121.995, 51.03658
1122.477, 51.47904
1122.959, 51.69201
1123.441, 51.74651
1123.923, 51.71026
1124.405, 51.48074
1124.887, 51.59627
1125.370, 52.25257
1125.852, 52.71571
1126.334, 52.36814
1126.816, 51.67071
1127.298, 51.68855
1127.780, 52.13454
1128.262, 52.32209
1128.744, 51.51652
1129.227, 51.20992
1129.709, 51.79646
1130.191, 52.48897
1130.673, 52.54266
1131.155, 52.13469
1131.637, 51.94898
1132.119, 51.97102
1132.601, 52.02265
1133.083, 51.93729
1133.566, 51.97596
1134.048, 52.43125
1134.530, 52.87519
1135.012, 52.60474
1135.494, 51.70827
1135.976, 51.10207
1136.458, 50.86324
1136.940, 50.84564
1137.422, 51.09158
1137.905, 51.38427
1138.387, 51.65705
1138.869, 51.86672
1139.351, 51.89504
1139.833, 51.73922
1140.315, 51.37048
1140.797, 50.70695
1141.279, 50.37514
1141.762, 51.47245
1142.244, 52.72945
1142.726, 52.86296
1143.208, 51.91098
1143.690, 51.66722
1144.172, 52.32656
1144.654, 52.49204
1145.136, 50.32433
1145.619, 50.81551
1146.101, 51.10044
1146.583, 51.19028
1147.065, 50.50061
1147.547, 50.81750
1148.029, 50.73101
1148.511, 50.62798
1148.993, 51.08654
1149.475, 50.51025
1149.958, 50.95995
1150.440, 51.00006
1150.922, 51.48520
1151.404, 51.32695
1151.886, 51.53265
1152.368, 51.65485
1152.850, 51.69129
1153.332, 51.58072
1153.814, 51.15102
1154.297, 50.62002
1154.779, 50.61769
1155.261, 50.98130
1155.743, 51.25413
1156.225, 51.05073
1156.707, 51.10112
1157.189, 51.72647
1157.671, 52.25377
1158.154, 51.92769
1158.636, 51.02229
1159.118, 50.72902
1159.600, 50.95067
1160.082, 51.10424
1160.564, 50.76164
1161.046, 50.51324
1161.528, 50.59890
1162.010, 50.76636
1162.493, 50.63193
1162.975, 50.28657
1163.457, 50.49922
1163.939, 51.24398
1164.421, 51.70192
1164.903, 51.01625
1165.385, 50.36155
1165.867, 50.26225
1166.349, 50.51363
1166.832, 50.91207
1167.314, 51.42704
1167.796, 51.51189
1168.278, 51.10093
1168.760, 50.82796
1169.242, 51.48256
1169.724, 52.07011
1170.206, 51.80048
1170.689, 51.04742
1171.171, 50.72807
1171.653, 50.83523
1172.135, 51.01086
1172.617, 51.19789
1173.099, 51.36706
1173.581, 51.59050
1174.063, 51.70203
1174.546, 51.47962
1175.028, 51.01614
1175.510, 50.72671
1175.992, 50.61257
1176.474, 50.58926
1176.956, 50.63235
1177.438, 50.76896
1177.920, 51.18865
1178.402, 51.59229
1178.885, 51.65393
1179.367, 51.38014
1179.849, 51.19529
1180.331, 51.11205
1180.813, 50.93768
1181.295, 50.52324
1181.777, 50.20613
1182.259, 50.43771
1182.742, 50.89990
1183.224, 51.27653
1183.706, 51.54433
1184.188, 51.58339
1184.670, 51.34642
1185.152, 51.25182
1185.634, 51.63567
1186.116, 51.98354
1186.599, 51.47405
1187.081, 50.67058
1187.563, 50.39796
1188.045, 50.92651
1188.527, 51.18005
1189.009, 51.12733
1189.491, 50.96278
1189.973, 50.70353
1190.455, 50.49314
1190.938, 50.53111
1191.420, 50.73290
1191.902, 50.97669
1192.384, 51.28351
1192.866, 51.53041
1193.348, 51.74297
1193.830, 51.77372
1194.312, 51.42567
1194.794, 50.92753
1195.277, 50.38969
1195.759, 49.96643
1196.241, 50.02210
1196.723, 50.96059
1197.205, 51.51247
1197.687, 51.60452
1198.169, 51.57132
1198.651, 51.65409
1199.134, 51.77523
1199.616, 51.85560
1200.098, 51.88714
1200.580, 51.84904
1201.062, 51.74368
1201.544, 51.49722
1202.026, 51.01748
1202.508, 50.77058
1202.990, 51.45561
1203.473, 52.40645
1203.955, 52.69958
1204.437, 52.49767
1204.919, 52.44141
1205.401, 52.81730
1205.883, 52.82076
1206.365, 52.30687
1206.847, 51.75803
1207.329, 51.58458
1207.812, 51.68385
1208.294, 52.16636
1208.776, 52.84356
1209.258, 52.89417
1209.740, 51.94517
1210.222, 51.17818
1210.704, 50.71313
1211.186, 50.45880
1211.669, 50.29117
1212.151, 50.28833
1212.633, 50.75329
1213.115, 51.54248
1213.597, 51.75666
1214.079, 51.10062
1214.561, 50.56770
1215.043, 50.26890
1215.526, 50.23697
1216.008, 50.75531
1216.490, 51.39103
1216.972, 51.57940
1217.454, 51.35217
1217.936, 51.21321
1218.418, 51.24829
1218.900, 51.16387
1219.382, 50.86710
1219.865, 50.63184
1220.347, 50.81298
1220.829, 51.18631
1221.311, 51.64196
1221.793, 52.09041
1222.275, 51.98460
1222.757, 51.08184
1223.239, 50.64591
1223.722, 51.01016
1224.204, 51.46869
1224.686, 51.04619
1225.168, 50.46605
1225.650, 50.62085
1226.132, 51.46975
1226.614, 51.75769
1227.096, 51.36209
1227.578, 51.02225
1228.061, 50.89835
1228.543, 50.85386
1229.025, 50.57725
1229.507, 50.43739
1229.989, 51.04456
1230.471, 52.26338
1230.953, 52.58675
1231.435, 51.90459
1231.917, 51.28447
1232.400, 50.94737
1232.882, 50.84236
1233.364, 51.10690
1233.846, 51.42678
1234.328, 51.45955
1234.810, 51.26625
1235.292, 51.35126
1235.774, 51.73667
1236.257, 51.87771
1236.739, 51.61798
1237.221, 51.22258
1237.703, 50.72262
1238.185, 50.34414
1238.667, 50.34596
1239.149, 50.63519
1239.631, 50.85719
1240.114, 51.01140
1240.596, 51.18422
1241.078, 51.40935
1241.560, 51.57001
1242.042, 51.50374
1242.524, 51.41070
1243.006, 51.44165
1243.488, 51.55363
1243.970, 51.52446
1244.453, 51.39152
1244.935, 51.54481
1245.417, 52.16639
1245.899, 52.54590
1246.381, 51.96840
1246.863, 51.31187
1247.345, 51.05823
1247.827, 51.10755
1248.309, 51.18528
1248.792, 51.28868
1249.274, 51.41273
1249.756, 51.56114
1250.238, 51.69572
1250.720, 51.98117
1251.202, 51.99135
1251.684, 51.39315
1252.166, 50.55434
1252.649, 50.48966
1253.131, 50.97646
1253.613, 51.35115
1254.095, 51.45203
1254.577, 51.59224
1255.059, 52.01561
1255.541, 52.26992
1256.023, 52.14733
1256.505, 51.82298
1256.988, 51.55652
1257.470, 51.39618
1257.952, 51.50450
1258.434, 51.96153
1258.916, 52.24132
1259.398, 52.21109
1259.880, 52.13200
1260.362, 52.06637
1260.844, 52.04521
1261.327, 52.19118
1261.809, 52.38180
1262.291, 52.41945
1262.773, 52.25872
1263.255, 52.10495
1263.737, 51.97807
1264.219, 51.82274
1264.701, 51.60349
1265.184, 51.39933
1265.666, 51.32005
1266.148, 51.30385
1266.630, 51.21640
1267.112, 51.05327
1267.594, 51.35598
1268.076, 52.22904
1268.558, 52.73940
1269.041, 52.56406
1269.523, 52.14385
1270.005, 51.86438
1270.487, 51.57353
1270.969, 50.92818
1271.451, 50.09214
1271.933, 50.25961
1272.415, 51.41133
1272.897, 52.19444
1273.380, 52.24900
1273.862, 52.06494
1274.344, 51.75006
1274.826, 51.57564
1275.308, 51.81767
1275.790, 52.27843
1276.272, 52.24398
1276.754, 51.81670
1277.237, 51.56925
1277.719, 51.64355
1278.201, 51.68778
1278.683, 51.58040
1279.165, 51.29026
1279.647, 50.65108
1280.129, 50.00448
1280.611, 50.18755
1281.094, 50.93029
1281.576, 51.53487
1282.058, 51.89292
1282.540, 52.10484
1283.022, 52.15581
1283.504, 52.13480
1283.986, 52.05077
1284.468, 51.92940
1284.950, 51.74433
1285.432, 51.58119
1285.915, 51.59731
1286.397, 51.80719
1286.879, 52.07335
1287.361, 52.46075
1287.843, 52.59682
1288.325, 52.34658
1288.807, 52.02479
1289.289, 51.86153
1289.772, 51.91746
1290.254, 52.46401
1290.736, 53.35222
1291.218, 53.58364
1291.700, 53.07434
1292.182, 52.72414
1292.664, 52.69776
1293.146, 52.69403
1293.629, 52.37555
1294.111, 52.06817
1294.593, 52.03328
1295.075, 52.16549
1295.557, 52.27566
1296.039, 52.36384
1296.521, 52.41551
1297.003, 52.43339
1297.485, 52.49562
1297.968, 52.70945
1298.450, 52.88367
1298.932, 52.95323
1299.414, 52.95359
1299.896, 52.84434
1300.378, 52.72435
1300.860, 53.08319
1301.342, 53.84321
1301.824, 54.10697
1302.307, 53.55512
##END=



