##NAMES=Chambersite
##RRUFFID=R060425
##IDEAL CHEMISTRY=Mn^2+^_3_B_7_O_13_Cl
##LOCALITY=Venice Dome, Plaquemines Parish, Louisiana, USA
##OWNER=RRUFF
##SOURCE=Michael Scott
##DESCRIPTION=Brown pseudotetrahedra
##STATUS=The identification of this mineral is confirmed by single-crystal X-ray diffraction and chemical analysis.
##URL=rruff.info/R060425
##MEASURED CHEMISTRY=(Mn_2.93_Fe^2+^_0.05_Mg_0.02_)_Î£=3_B_7.00_O_13_Cl_1.00_ ; B not measured but estimated by difference and stoichiometry.
178.2984, 237.7440
178.7805, 235.2241
179.2626, 232.6822
179.7447, 230.2759
180.2268, 226.9046
180.7090, 220.6031
181.1911, 212.2630
181.6732, 204.6974
182.1553, 199.0030
182.6374, 194.9888
183.1195, 192.7072
183.6017, 192.2782
184.0838, 192.6414
184.5659, 192.1190
185.0480, 191.0674
185.5301, 191.3239
186.0123, 195.0107
186.4944, 200.8116
186.9765, 204.5234
187.4586, 205.9717
187.9407, 205.6369
188.4228, 203.7110
188.9050, 200.3246
189.3871, 196.6816
189.8692, 193.7373
190.3513, 191.2107
190.8334, 187.3122
191.3155, 181.6689
191.7977, 175.4681
192.2798, 170.4325
192.7619, 166.5540
193.2440, 163.4762
193.7261, 161.0829
194.2082, 159.3615
194.6904, 158.2424
195.1725, 158.0054
195.6546, 157.8286
196.1367, 156.1519
196.6188, 152.9122
197.1009, 149.0647
197.5831, 144.7224
198.0652, 139.8505
198.5473, 136.0201
199.0294, 133.3377
199.5115, 131.6816
199.9937, 130.8808
200.4758, 130.9662
200.9579, 131.6926
201.4400, 133.1129
201.9221, 135.2866
202.4042, 137.2908
202.8864, 139.0555
203.3685, 140.6403
203.8506, 142.5736
204.3327, 145.2641
204.8148, 146.6096
205.2969, 144.9382
205.7791, 139.7320
206.2612, 135.3040
206.7433, 131.9694
207.2254, 129.4931
207.7075, 127.2165
208.1896, 124.9771
208.6718, 123.3887
209.1539, 122.9099
209.6360, 123.7613
210.1181, 124.5953
210.6002, 125.2787
211.0823, 125.9368
211.5645, 127.0174
212.0466, 128.7667
212.5287, 130.3746
213.0108, 131.5777
213.4929, 132.6136
213.9750, 132.2832
214.4572, 130.0723
214.9393, 126.6434
215.4214, 123.8118
215.9035, 121.5655
216.3856, 119.9181
216.8678, 118.9050
217.3499, 118.5101
217.8320, 118.7508
218.3141, 119.7302
218.7962, 121.3061
219.2783, 123.1052
219.7605, 125.2627
220.2426, 127.3612
220.7247, 129.1553
221.2068, 130.5658
221.6889, 131.8658
222.1710, 132.9842
222.6532, 134.0155
223.1353, 135.2095
223.6174, 136.5914
224.0995, 138.1197
224.5816, 139.6934
225.0637, 141.0531
225.5459, 143.2270
226.0280, 146.5967
226.5101, 150.7321
226.9922, 154.1917
227.4743, 156.7560
227.9564, 159.0421
228.4386, 161.5031
228.9207, 164.6458
229.4028, 166.5815
229.8849, 166.9109
230.3670, 166.1157
230.8492, 165.4463
231.3313, 164.5688
231.8134, 164.3251
232.2955, 165.1961
232.7776, 167.6884
233.2597, 170.1022
233.7419, 172.4317
234.2240, 174.6849
234.7061, 176.8919
235.1882, 179.4324
235.6703, 181.3579
236.1524, 182.1633
236.6346, 181.1665
237.1167, 180.5660
237.5988, 180.2207
238.0809, 180.3078
238.5630, 181.3178
239.0451, 183.6419
239.5273, 186.2927
240.0094, 188.9537
240.4915, 191.8304
240.9736, 194.2256
241.4557, 196.3481
241.9378, 197.9123
242.4200, 198.4960
242.9021, 198.8852
243.3842, 197.0585
243.8663, 192.0407
244.3484, 182.9634
244.8306, 173.1130
245.3127, 161.8603
245.7948, 150.2547
246.2769, 140.2533
246.7590, 132.1596
247.2411, 125.3238
247.7233, 119.5187
248.2054, 114.6575
248.6875, 111.2400
249.1696, 109.8955
249.6517, 109.6006
250.1338, 108.6332
250.6160, 106.3471
251.0981, 104.5555
251.5802, 103.9706
252.0623, 104.8833
252.5444, 105.4174
253.0265, 105.1980
253.5087, 104.9050
253.9908, 105.6505
254.4729, 108.1832
254.9550, 110.2417
255.4371, 111.0925
255.9192, 110.5700
256.4014, 110.1092
256.8835, 109.6087
257.3656, 109.2710
257.8477, 109.3810
258.3298, 110.1467
258.8120, 110.8986
259.2941, 111.4959
259.7762, 111.9379
260.2583, 112.2966
260.7404, 112.7270
261.2225, 112.8830
261.7047, 112.2804
262.1868, 110.5309
262.6689, 109.0475
263.1510, 108.2619
263.6331, 108.1485
264.1152, 107.3772
264.5974, 105.4962
265.0795, 103.6634
265.5616, 103.2107
266.0437, 104.6808
266.5258, 105.6568
267.0079, 105.4021
267.4901, 104.1582
267.9722, 104.2861
268.4543, 106.3827
268.9364, 108.6657
269.4185, 109.6479
269.9006, 109.0871
270.3828, 108.2636
270.8649, 107.2573
271.3470, 106.1394
271.8291, 105.3543
272.3112, 105.1228
272.7933, 104.6107
273.2755, 103.1143
273.7576, 100.4926
274.2397, 97.82720
274.7218, 95.15344
275.2039, 92.58467
275.6860, 90.51696
276.1682, 89.00230
276.6503, 87.72034
277.1324, 86.31137
277.6145, 84.71783
278.0966, 84.00278
278.5787, 84.43349
279.0609, 85.56651
279.5430, 86.57925
280.0251, 87.50925
280.5072, 88.06763
280.9893, 87.99406
281.4715, 87.29416
281.9536, 86.51293
282.4357, 85.56121
282.9178, 84.75005
283.3999, 84.88010
283.8820, 86.02269
284.3642, 86.79330
284.8463, 86.26713
285.3284, 84.58378
285.8105, 83.41605
286.2926, 82.78988
286.7747, 82.59492
287.2569, 82.81822
287.7390, 83.44267
288.2211, 84.04395
288.7032, 84.48906
289.1853, 84.77579
289.6674, 84.87713
290.1496, 84.77930
290.6317, 84.59885
291.1138, 84.32922
291.5959, 84.02428
292.0780, 84.07355
292.5602, 84.79049
293.0423, 85.87975
293.5244, 86.50429
294.0065, 86.64057
294.4886, 86.80862
294.9707, 87.48889
295.4529, 88.60251
295.9350, 89.83770
296.4171, 91.08977
296.8992, 92.45850
297.3813, 94.17817
297.8634, 96.21524
298.3456, 98.29374
298.8277, 100.2745
299.3098, 102.1208
299.7919, 103.7420
300.2740, 105.1123
300.7561, 106.2395
301.2383, 107.2424
301.7204, 108.0521
302.2025, 108.2739
302.6846, 107.3561
303.1667, 105.7878
303.6488, 104.3414
304.1310, 103.2508
304.6131, 101.9654
305.0952, 99.70039
305.5773, 96.77534
306.0594, 94.06474
306.5415, 92.06057
307.0237, 90.47152
307.5058, 88.92714
307.9879, 87.37473
308.4700, 86.07063
308.9521, 85.26231
309.4343, 84.82658
309.9164, 84.52242
310.3985, 84.52164
310.8806, 84.42143
311.3627, 83.85213
311.8448, 82.78883
312.3270, 81.64601
312.8091, 80.16463
313.2912, 78.90150
313.7733, 78.51444
314.2554, 80.11742
314.7375, 81.89418
315.2197, 83.06306
315.7018, 83.63241
316.1839, 83.65874
316.6660, 82.36072
317.1481, 80.94893
317.6302, 80.46886
318.1124, 82.19843
318.5945, 83.60264
319.0766, 83.28177
319.5587, 81.82371
320.0408, 81.26053
320.5229, 83.41772
321.0051, 85.81109
321.4872, 86.97574
321.9693, 85.88277
322.4514, 85.04687
322.9335, 85.13144
323.4156, 85.79822
323.8978, 86.39545
324.3799, 87.01381
324.8620, 87.36898
325.3441, 87.22671
325.8262, 86.25560
326.3083, 85.78994
326.7905, 85.99283
327.2726, 86.73642
327.7547, 87.85622
328.2368, 90.05673
328.7189, 91.89448
329.2010, 92.75954
329.6832, 92.45427
330.1653, 93.30727
330.6474, 96.25082
331.1295, 99.67956
331.6116, 102.3277
332.0938, 103.8519
332.5759, 105.1392
333.0580, 106.2370
333.5401, 107.1668
334.0222, 107.9755
334.5043, 108.4564
334.9865, 109.1084
335.4686, 110.2185
335.9507, 111.8109
336.4328, 113.7744
336.9149, 115.9723
337.3970, 118.6374
337.8792, 122.3455
338.3613, 127.3621
338.8434, 132.8068
339.3255, 138.3383
339.8076, 143.9545
340.2898, 150.0274
340.7719, 156.9725
341.2540, 163.7581
341.7361, 168.9412
342.2182, 172.3419
342.7003, 175.0123
343.1825, 176.9021
343.6646, 178.2498
344.1467, 180.4653
344.6288, 183.5724
345.1109, 187.5144
345.5930, 192.5052
346.0752, 198.4178
346.5573, 204.5804
347.0394, 210.8713
347.5215, 217.3183
348.0036, 224.0812
348.4857, 231.1372
348.9679, 238.6487
349.4500, 246.7790
349.9321, 255.5451
350.4142, 264.9540
350.8963, 275.0878
351.3784, 285.7452
351.8606, 297.1466
352.3427, 308.8631
352.8248, 319.5585
353.3069, 327.6762
353.7890, 334.4936
354.2711, 342.4994
354.7533, 352.1612
355.2354, 360.2368
355.7175, 365.7364
356.1996, 367.4705
356.6817, 363.3597
357.1638, 350.7156
357.6460, 333.2176
358.1281, 311.8193
358.6102, 287.0258
359.0923, 262.9750
359.5744, 240.9557
360.0565, 221.5327
360.5387, 205.2990
361.0208, 193.1146
361.5029, 183.2285
361.9850, 175.7206
362.4671, 170.0963
362.9492, 164.9559
363.4314, 159.5628
363.9135, 154.7035
364.3956, 150.8457
364.8777, 148.2398
365.3598, 146.1618
365.8419, 145.2799
366.3241, 144.6550
366.8062, 142.8786
367.2883, 138.6655
367.7704, 134.3331
368.2526, 130.4073
368.7347, 126.8946
369.2168, 123.8056
369.6989, 121.4148
370.1810, 119.2548
370.6631, 116.9054
371.1453, 114.0788
371.6274, 111.4869
372.1095, 109.2380
372.5916, 107.2843
373.0737, 105.3652
373.5558, 103.3560
374.0380, 101.5410
374.5201, 100.0141
375.0022, 98.71804
375.4843, 97.97509
375.9664, 97.91683
376.4485, 98.31125
376.9307, 98.76479
377.4128, 99.31660
377.8949, 99.74177
378.3770, 99.89784
378.8591, 99.80122
379.3412, 99.77406
379.8234, 99.80360
380.3055, 99.94764
380.7876, 100.3500
381.2697, 100.9942
381.7518, 101.5210
382.2339, 101.8302
382.7161, 101.9683
383.1982, 101.9543
383.6803, 101.7975
384.1624, 101.7660
384.6445, 102.0952
385.1266, 102.7013
385.6088, 103.4274
386.0909, 104.3054
386.5730, 105.1183
387.0551, 105.5741
387.5372, 105.7424
388.0193, 105.8281
388.5015, 105.7728
388.9836, 105.7743
389.4657, 106.2167
389.9478, 107.1413
390.4299, 107.7678
390.9120, 107.2666
391.3942, 106.2510
391.8763, 105.4820
392.3584, 105.2550
392.8405, 105.3060
393.3226, 105.4356
393.8047, 105.7029
394.2869, 106.3778
394.7690, 107.8879
395.2511, 109.6186
395.7332, 111.1696
396.2154, 112.3072
396.6975, 113.6174
397.1796, 115.1344
397.6617, 116.9314
398.1438, 119.1130
398.6259, 122.5478
399.1081, 125.5543
399.5902, 127.6632
400.0723, 128.8150
400.5544, 129.4987
401.0365, 129.9032
401.5186, 129.6918
402.0008, 128.5556
402.4829, 126.1350
402.9650, 123.4189
403.4471, 120.2778
403.9292, 116.9115
404.4113, 114.3035
404.8935, 112.7020
405.3756, 111.2486
405.8577, 109.5186
406.3398, 107.5072
406.8219, 105.2885
407.3040, 102.6826
407.7862, 100.2113
408.2683, 98.80871
408.7504, 98.51534
409.2325, 97.96326
409.7146, 96.49612
410.1967, 94.47271
410.6789, 92.99174
411.1610, 92.06339
411.6431, 91.41538
412.1252, 90.94416
412.6073, 90.58066
413.0894, 90.13533
413.5716, 89.58691
414.0537, 88.93230
414.5358, 88.11841
415.0179, 87.18865
415.5000, 86.25761
415.9821, 85.12183
416.4643, 84.16924
416.9464, 83.93761
417.4285, 84.50866
417.9106, 85.13628
418.3927, 85.37211
418.8748, 85.37838
419.3570, 85.34431
419.8391, 85.45897
420.3212, 85.42565
420.8033, 84.93472
421.2854, 84.12243
421.7675, 83.61495
422.2497, 83.71844
422.7318, 84.09190
423.2139, 84.53603
423.6960, 84.89510
424.1781, 85.61669
424.6602, 87.47820
425.1424, 89.53381
425.6245, 90.34310
426.1066, 88.60477
426.5887, 87.27160
427.0709, 87.19840
427.5530, 88.38338
428.0351, 88.72436
428.5172, 87.61760
428.9993, 86.49621
429.4814, 86.56052
429.9636, 88.29310
430.4457, 89.30628
430.9278, 89.24938
431.4099, 88.52361
431.8920, 87.95689
432.3741, 87.55570
432.8563, 87.21999
433.3384, 86.75990
433.8205, 86.27083
434.3026, 86.61095
434.7847, 87.88802
435.2668, 89.14365
435.7490, 89.21445
436.2311, 88.40812
436.7132, 87.81265
437.1953, 87.73672
437.6774, 87.96884
438.1595, 88.46978
438.6417, 89.11204
439.1238, 89.36658
439.6059, 88.57584
440.0880, 87.40929
440.5701, 86.60008
441.0522, 86.26865
441.5344, 85.98843
442.0165, 85.58149
442.4986, 85.04205
442.9807, 84.36375
443.4628, 83.27209
443.9449, 82.30767
444.4271, 81.84234
444.9092, 81.76017
445.3913, 81.39059
445.8734, 80.05370
446.3555, 78.79147
446.8376, 78.16366
447.3198, 78.61138
447.8019, 78.89780
448.2840, 78.86483
448.7661, 78.70858
449.2482, 78.72329
449.7303, 79.13580
450.2125, 79.32224
450.6946, 79.05174
451.1767, 78.37132
451.6588, 77.98825
452.1409, 77.93303
452.6230, 78.09663
453.1052, 78.45618
453.5873, 79.03438
454.0694, 79.64045
454.5515, 80.39944
455.0337, 80.89247
455.5158, 79.93578
455.9979, 77.66299
456.4800, 76.20167
456.9621, 77.08963
457.4442, 79.22273
457.9264, 79.83292
458.4085, 78.97239
458.8906, 78.04288
459.3727, 78.26050
459.8548, 79.14426
460.3369, 79.96001
460.8191, 80.60838
461.3012, 81.03854
461.7833, 81.07095
462.2654, 80.86182
462.7475, 80.73546
463.2296, 81.12563
463.7118, 81.39541
464.1939, 80.97948
464.6760, 79.82922
465.1581, 79.13050
465.6402, 79.76685
466.1223, 80.68130
466.6045, 81.12314
467.0866, 80.32044
467.5687, 79.86842
468.0508, 79.84225
468.5329, 80.22080
469.0150, 81.03837
469.4972, 82.85920
469.9793, 84.24516
470.4614, 84.65188
470.9435, 84.02821
471.4256, 83.41304
471.9077, 82.71977
472.3899, 82.21017
472.8720, 82.24015
473.3541, 82.87809
473.8362, 83.23774
474.3183, 83.16236
474.8004, 82.81079
475.2826, 82.30949
475.7647, 81.69399
476.2468, 81.47481
476.7289, 82.15947
477.2110, 83.37838
477.6931, 84.52248
478.1753, 85.58711
478.6574, 86.01372
479.1395, 84.75048
479.6216, 82.72008
480.1037, 81.29638
480.5858, 80.97680
481.0680, 81.06363
481.5501, 81.23926
482.0322, 81.46252
482.5143, 81.64548
482.9964, 81.84492
483.4786, 81.91953
483.9607, 81.67113
484.4428, 81.05079
484.9249, 80.77505
485.4070, 81.59312
485.8892, 82.42498
486.3713, 82.46683
486.8534, 80.55668
487.3355, 79.59801
487.8176, 80.24886
488.2997, 81.69304
488.7819, 82.10619
489.2640, 80.93565
489.7461, 79.97950
490.2282, 79.83059
490.7103, 80.45052
491.1924, 81.28352
491.6746, 82.40472
492.1567, 83.44785
492.6388, 84.11288
493.1209, 84.41670
493.6030, 84.38755
494.0851, 83.94514
494.5673, 83.41258
495.0494, 83.18765
495.5315, 83.25572
496.0136, 83.57124
496.4957, 84.46593
496.9778, 85.38734
497.4600, 85.61340
497.9421, 85.20924
498.4242, 84.85616
498.9063, 84.98402
499.3884, 85.32849
499.8705, 85.60519
500.3527, 85.56434
500.8348, 85.94067
501.3169, 87.72623
501.7990, 89.88181
502.2811, 90.94704
502.7632, 88.90098
503.2454, 87.62012
503.7275, 88.33761
504.2096, 90.83231
504.6917, 92.71849
505.1738, 93.69834
505.6559, 94.45068
506.1381, 95.34722
506.6202, 96.51012
507.1023, 97.29478
507.5844, 97.61107
508.0665, 97.71385
508.5486, 97.99726
509.0308, 98.47173
509.5129, 98.69370
509.9950, 98.60472
510.4771, 98.14101
510.9592, 96.82494
511.4413, 94.77727
511.9235, 93.11124
512.4056, 92.75520
512.8877, 93.14104
513.3698, 93.44176
513.8519, 93.58848
514.3340, 93.75286
514.8162, 94.35008
515.2983, 94.93147
515.7804, 94.90520
516.2625, 93.11053
516.7446, 91.93793
517.2267, 92.56717
517.7089, 94.53883
518.1910, 96.73008
518.6731, 99.51085
519.1552, 101.9122
519.6373, 103.4528
520.1194, 104.0663
520.6016, 104.7477
521.0837, 105.5711
521.5658, 106.3693
522.0479, 106.9565
522.5300, 107.1647
523.0121, 107.8879
523.4943, 109.5530
523.9764, 111.2630
524.4585, 111.3304
524.9406, 109.7327
525.4227, 107.5520
525.9048, 104.8991
526.3870, 102.0712
526.8691, 99.74619
527.3513, 97.90135
527.8334, 96.32680
528.3155, 94.85367
528.7976, 93.54008
529.2797, 92.51805
529.7618, 91.83874
530.2440, 91.18395
530.7261, 89.87362
531.2082, 88.60066
531.6903, 88.27429
532.1724, 90.47890
532.6545, 92.30173
533.1367, 92.38883
533.6188, 91.26669
534.1009, 90.83512
534.5830, 91.93811
535.0651, 93.23832
535.5472, 94.27962
536.0294, 95.01054
536.5115, 95.93539
536.9936, 97.13589
537.4757, 98.41711
537.9578, 99.60110
538.4399, 100.6718
538.9221, 101.7825
539.4042, 102.9068
539.8863, 104.1736
540.3684, 106.0878
540.8505, 108.5576
541.3326, 110.4724
541.8148, 111.1968
542.2969, 111.1969
542.7790, 111.0217
543.2611, 110.7459
543.7432, 110.9429
544.2253, 112.7846
544.7075, 114.8802
545.1896, 115.6292
545.6717, 114.5951
546.1538, 113.4723
546.6359, 112.7643
547.1180, 112.5352
547.6002, 112.8652
548.0823, 114.3189
548.5644, 115.7046
549.0465, 116.9445
549.5286, 117.9743
550.0107, 118.5940
550.4929, 118.5851
550.9750, 118.4863
551.4571, 118.4270
551.9392, 118.4068
552.4213, 118.5245
552.9034, 118.7875
553.3856, 119.1628
553.8677, 119.6491
554.3498, 120.2387
554.8319, 120.7610
555.3140, 121.1180
555.7961, 121.7096
556.2783, 123.3782
556.7604, 125.7310
557.2425, 127.6379
557.7246, 128.5912
558.2067, 129.0193
558.6888, 129.4411
559.1710, 129.7138
559.6531, 129.3298
560.1352, 127.9475
560.6173, 125.9109
561.0994, 123.2663
561.5815, 119.9262
562.0637, 116.7563
562.5458, 113.8773
563.0279, 111.2686
563.5100, 108.8719
563.9921, 106.6875
564.4742, 104.6891
564.9564, 102.8261
565.4385, 101.1878
565.9206, 100.0342
566.4027, 99.49824
566.8848, 98.80781
567.3669, 97.68848
567.8491, 96.29189
568.3312, 94.97495
568.8133, 93.75610
569.2954, 93.04716
569.7775, 93.76644
570.2596, 95.00060
570.7418, 94.74381
571.2239, 92.82576
571.7060, 91.16824
572.1881, 91.46525
572.6702, 92.70991
573.1523, 93.82359
573.6345, 94.56466
574.1166, 95.07803
574.5987, 95.31532
575.0808, 95.37293
575.5629, 95.41368
576.0450, 95.05423
576.5272, 95.15147
577.0093, 95.95193
577.4914, 97.36687
577.9735, 98.91257
578.4556, 100.7256
578.9377, 102.3603
579.4199, 103.4795
579.9020, 104.0532
580.3841, 105.2319
580.8662, 107.1186
581.3483, 109.0438
581.8304, 110.0375
582.3126, 110.4558
582.7947, 111.5508
583.2768, 113.6032
583.7589, 116.2382
584.2410, 119.2249
584.7231, 122.4869
585.2053, 125.8734
585.6874, 129.2460
586.1696, 132.7919
586.6517, 136.5342
587.1338, 140.5082
587.6159, 144.8716
588.0980, 150.2310
588.5801, 155.4754
589.0623, 160.0320
589.5444, 163.7511
590.0265, 167.7742
590.5086, 172.2891
590.9907, 176.8667
591.4728, 181.6462
591.9550, 187.0262
592.4371, 189.6766
592.9192, 189.0457
593.4013, 186.3353
593.8834, 182.9905
594.3655, 179.0279
594.8477, 174.4273
595.3298, 168.8251
595.8119, 163.1169
596.2940, 158.4121
596.7761, 154.6528
597.2582, 151.4961
597.7404, 148.9206
598.2225, 146.7664
598.7046, 145.3198
599.1867, 144.5636
599.6688, 142.8394
600.1509, 139.1815
600.6331, 134.7137
601.1152, 130.1077
601.5973, 125.2707
602.0794, 120.4944
602.5615, 115.6807
603.0436, 111.0614
603.5258, 106.7776
604.0079, 102.6495
604.4900, 100.0570
604.9721, 99.69056
605.4542, 100.3282
605.9363, 99.29781
606.4185, 96.82158
606.9006, 94.78165
607.3827, 94.27633
607.8648, 94.58526
608.3469, 94.86278
608.8290, 95.09103
609.3112, 95.15315
609.7933, 94.82836
610.2754, 94.41841
610.7575, 94.01596
611.2396, 93.57270
611.7217, 93.70109
612.2039, 95.37093
612.6860, 97.17234
613.1681, 98.01785
613.6502, 97.25810
614.1323, 96.61247
614.6144, 96.08488
615.0966, 95.69089
615.5787, 95.40054
616.0608, 95.18095
616.5429, 95.37377
617.0250, 96.28477
617.5071, 97.39690
617.9893, 97.26225
618.4714, 96.05299
618.9535, 95.11532
619.4356, 95.21147
619.9177, 95.93310
620.3998, 96.83971
620.8820, 97.91573
621.3641, 99.09521
621.8462, 100.7142
622.3283, 102.1842
622.8104, 102.9797
623.2925, 102.8512
623.7747, 102.8287
624.2568, 103.0647
624.7389, 103.5019
625.2210, 104.0781
625.7031, 104.7060
626.1852, 105.6758
626.6674, 107.0360
627.1495, 108.6894
627.6316, 110.5334
628.1137, 112.5772
628.5958, 114.5560
629.0779, 116.3057
629.5601, 118.0485
630.0422, 120.1208
630.5243, 122.5340
631.0064, 125.4262
631.4885, 129.1366
631.9706, 133.1804
632.4528, 137.2111
632.9349, 141.1711
633.4170, 144.9835
633.8991, 148.0998
634.3812, 151.4392
634.8633, 155.6712
635.3455, 161.1167
635.8276, 166.5545
636.3097, 172.2050
636.7918, 177.5965
637.2739, 182.2861
637.7560, 186.0546
638.2382, 189.8380
638.7203, 193.6956
639.2024, 197.5408
639.6845, 201.0672
640.1666, 204.3916
640.6487, 208.3700
641.1309, 213.5003
641.6130, 219.1526
642.0951, 224.1663
642.5772, 228.8913
643.0594, 234.1091
643.5415, 240.9687
644.0236, 247.8220
644.5057, 253.7237
644.9879, 258.7404
645.4700, 263.5493
645.9521, 268.7664
646.4342, 273.4460
646.9163, 277.1607
647.3984, 279.8143
647.8806, 282.3684
648.3627, 284.7856
648.8448, 287.2325
649.3269, 289.5311
649.8090, 291.6974
650.2911, 295.7403
650.7733, 302.1543
651.2554, 309.1627
651.7375, 314.4338
652.2196, 318.7241
652.7017, 323.9316
653.1838, 330.6547
653.6660, 338.3018
654.1481, 346.4793
654.6302, 355.2124
655.1123, 364.6824
655.5944, 375.9890
656.0765, 386.8260
656.5587, 396.9138
657.0408, 405.9842
657.5229, 413.3086
658.0050, 419.0233
658.4871, 422.5710
658.9692, 424.1687
659.4514, 423.6042
659.9335, 418.2077
660.4156, 407.7883
660.8977, 394.4351
661.3798, 378.9108
661.8619, 361.8168
662.3441, 344.0342
662.8262, 325.5966
663.3083, 307.5001
663.7904, 289.9879
664.2725, 273.5158
664.7546, 258.5508
665.2368, 245.0914
665.7189, 233.3283
666.2010, 223.8206
666.6831, 215.7043
667.1652, 208.0362
667.6473, 200.6263
668.1295, 193.7966
668.6116, 187.5439
669.0937, 181.8217
669.5758, 176.7837
670.0579, 172.4921
670.5400, 168.0269
671.0222, 163.0068
671.5043, 157.7620
671.9864, 152.7712
672.4685, 148.0462
672.9506, 143.6380
673.4327, 139.6951
673.9149, 136.0512
674.3970, 132.4176
674.8791, 128.8415
675.3612, 125.8029
675.8433, 123.7393
676.3254, 122.0074
676.8076, 120.3535
677.2897, 118.7918
677.7718, 117.0975
678.2539, 115.0449
678.7360, 113.2050
679.2181, 112.0115
679.7003, 111.5320
680.1824, 111.1078
680.6645, 110.7180
681.1466, 110.4154
681.6287, 110.4401
682.1108, 110.5977
682.5930, 110.2171
683.0751, 108.9502
683.5572, 107.8619
684.0393, 108.1204
684.5214, 109.0403
685.0035, 109.6406
685.4857, 108.9559
685.9678, 108.6673
686.4499, 109.6404
686.9320, 111.2353
687.4141, 111.9912
687.8962, 111.2143
688.3784, 110.9396
688.8605, 111.8408
689.3426, 113.4670
689.8247, 114.1803
690.3068, 113.9546
690.7889, 113.6955
691.2711, 113.7916
691.7532, 114.1765
692.2353, 114.8424
692.7174, 115.7298
693.1995, 116.4986
693.6816, 116.6191
694.1638, 116.7793
694.6459, 117.6986
695.1280, 119.4728
695.6101, 120.7467
696.0922, 120.8175
696.5743, 120.5996
697.0565, 120.5874
697.5386, 120.8463
698.0207, 121.0082
698.5028, 120.9766
698.9849, 121.0559
699.4670, 121.6728
699.9492, 122.7516
700.4313, 123.5293
700.9135, 123.9248
701.3956, 123.9499
701.8777, 123.5091
702.3598, 122.7248
702.8419, 121.7227
703.3240, 120.1973
703.8062, 119.1498
704.2883, 119.8356
704.7704, 121.1126
705.2525, 121.3032
705.7346, 118.8767
706.2167, 116.9523
706.6989, 115.9561
707.1810, 115.5827
707.6631, 115.2014
708.1452, 114.8333
708.6273, 114.3605
709.1094, 113.6557
709.5916, 112.9198
710.0737, 112.7222
710.5558, 112.9631
711.0379, 113.1150
711.5200, 112.4654
712.0021, 111.9250
712.4843, 112.6709
712.9664, 114.3996
713.4485, 115.4889
713.9306, 114.6559
714.4127, 113.6501
714.8948, 113.2435
715.3770, 113.4454
715.8591, 113.7893
716.3412, 114.2058
716.8233, 114.8995
717.3054, 116.1800
717.7875, 118.0112
718.2697, 119.1960
718.7518, 119.7368
719.2339, 119.7463
719.7160, 119.1713
720.1981, 118.1927
720.6802, 117.1044
721.1624, 115.9643
721.6445, 114.5625
722.1266, 112.5957
722.6087, 110.4293
723.0908, 108.3688
723.5729, 106.4217
724.0551, 104.7416
724.5372, 103.5113
725.0193, 102.3948
725.5014, 101.0620
725.9835, 99.47466
726.4656, 97.86438
726.9478, 96.17559
727.4299, 94.63515
727.9120, 93.63858
728.3941, 93.06292
728.8762, 92.59698
729.3583, 92.23040
729.8405, 91.77647
730.3226, 90.84464
730.8047, 89.76485
731.2868, 89.11021
731.7689, 89.67288
732.2510, 89.94482
732.7332, 89.35642
733.2153, 88.30840
733.6974, 87.55042
734.1795, 87.09797
734.6616, 86.96529
735.1437, 87.34719
735.6259, 87.88375
736.1080, 87.43381
736.5901, 86.12070
737.0722, 85.04060
737.5543, 84.89528
738.0364, 85.12014
738.5186, 85.10205
739.0007, 84.89458
739.4828, 84.69022
739.9649, 84.49784
740.4470, 84.39795
740.9291, 84.44642
741.4113, 84.63946
741.8934, 84.85851
742.3755, 85.08873
742.8576, 85.38717
743.3397, 85.88950
743.8218, 86.51828
744.3040, 86.49473
744.7861, 85.80238
745.2682, 85.14617
745.7503, 85.17276
746.2324, 85.47314
746.7145, 85.28274
747.1967, 84.61746
747.6788, 84.15398
748.1609, 84.26299
748.6430, 84.70289
749.1251, 85.45647
749.6072, 86.67445
750.0894, 87.32578
750.5715, 87.10960
751.0536, 86.68862
751.5357, 86.51575
752.0178, 86.63493
752.4999, 86.41331
752.9821, 85.81921
753.4642, 85.08601
753.9463, 84.14650
754.4284, 83.29885
754.9105, 83.21772
755.3926, 84.03307
755.8748, 85.13305
756.3569, 86.59074
756.8390, 87.88182
757.3211, 88.48576
757.8032, 87.84616
758.2853, 87.57634
758.7675, 88.05289
759.2496, 88.63833
759.7318, 88.67027
760.2139, 88.02676
760.6960, 87.84261
761.1781, 88.31374
761.6602, 88.88059
762.1423, 88.54100
762.6245, 87.79211
763.1066, 87.98134
763.5887, 89.67966
764.0708, 91.39323
764.5529, 92.03762
765.0350, 92.11254
765.5172, 92.20963
765.9993, 92.26151
766.4814, 92.61056
766.9635, 93.23331
767.4456, 94.17309
767.9277, 95.62190
768.4099, 97.73235
768.8920, 99.37394
769.3741, 100.2968
769.8562, 100.8744
770.3383, 101.3978
770.8204, 102.0333
771.3026, 103.3419
771.7847, 106.0190
772.2668, 108.4286
772.7489, 108.9995
773.2310, 108.7024
773.7131, 109.0524
774.1953, 111.7545
774.6774, 113.3117
775.1595, 113.0672
775.6416, 111.6774
776.1237, 110.3118
776.6058, 109.0087
777.0880, 107.4111
777.5701, 105.4133
778.0522, 103.1510
778.5343, 100.6287
779.0164, 98.02028
779.4985, 95.82600
779.9807, 94.32223
780.4628, 93.23453
780.9449, 92.63901
781.4270, 92.31966
781.9091, 91.81156
782.3912, 90.91206
782.8734, 89.94814
783.3555, 88.87014
783.8376, 87.79768
784.3197, 87.01291
784.8018, 86.50742
785.2839, 86.39075
785.7661, 86.91578
786.2482, 87.52659
786.7303, 87.09904
787.2124, 85.96364
787.6945, 85.05031
788.1766, 84.68700
788.6588, 84.76195
789.1409, 85.58566
789.6230, 86.80648
790.1051, 87.42419
790.5872, 86.89404
791.0693, 86.46800
791.5515, 86.43557
792.0336, 86.64484
792.5157, 86.63272
792.9978, 86.39822
793.4799, 86.22111
793.9620, 86.16059
794.4442, 86.26394
794.9263, 86.73052
795.4084, 87.42788
795.8905, 87.99181
796.3726, 88.68425
796.8547, 88.76427
797.3369, 87.37232
797.8190, 85.06145
798.3011, 83.76952
798.7832, 84.05002
799.2653, 84.24711
799.7474, 83.82002
800.2296, 83.14922
800.7117, 83.55161
801.1938, 84.90207
801.6759, 85.81942
802.1580, 85.44835
802.6401, 84.65539
803.1223, 84.41004
803.6044, 84.54273
804.0865, 84.61285
804.5686, 84.32601
805.0507, 84.09740
805.5328, 84.32667
806.0150, 84.69390
806.4971, 84.25608
806.9792, 82.71097
807.4613, 81.29361
807.9434, 80.22232
808.4255, 79.61670
808.9077, 80.01473
809.3898, 81.19399
809.8719, 82.15077
810.3540, 82.22702
810.8361, 82.13580
811.3182, 82.69788
811.8004, 83.50978
812.2825, 83.63113
812.7646, 81.48528
813.2467, 80.31982
813.7288, 81.27197
814.2109, 83.36270
814.6931, 83.94713
815.1752, 82.84268
815.6573, 81.99429
816.1394, 82.09024
816.6215, 82.51558
817.1037, 81.99365
817.5858, 80.95596
818.0679, 80.53075
818.5500, 81.82490
819.0322, 83.16270
819.5143, 83.61967
819.9964, 83.54765
820.4785, 83.67588
820.9606, 84.27511
821.4427, 84.63579
821.9249, 84.58522
822.4070, 84.30788
822.8891, 84.05639
823.3712, 83.86237
823.8533, 84.13026
824.3354, 85.14027
824.8176, 86.30929
825.2997, 86.83530
825.7818, 87.08342
826.2639, 87.66650
826.7460, 89.48022
827.2281, 90.82237
827.7103, 90.92955
828.1924, 90.54449
828.6745, 90.63395
829.1566, 91.29362
829.6387, 91.99780
830.1208, 92.58374
830.6030, 93.38229
831.0851, 95.18155
831.5672, 97.57979
832.0493, 99.44524
832.5314, 100.3209
833.0135, 100.9669
833.4957, 101.7900
833.9778, 102.7117
834.4599, 103.6556
834.9420, 105.1681
835.4241, 105.7883
835.9063, 105.1396
836.3884, 104.0523
836.8705, 103.7235
837.3526, 104.1087
837.8347, 103.3586
838.3168, 101.0689
838.7990, 98.54639
839.2811, 97.19139
839.7632, 96.41950
840.2453, 95.39751
840.7274, 93.82568
841.2095, 92.42706
841.6917, 91.54411
842.1738, 90.86420
842.6559, 90.06848
843.1380, 88.94197
843.6201, 88.52534
844.1022, 88.93164
844.5844, 89.65861
845.0665, 90.28828
845.5486, 90.86570
846.0307, 91.60748
846.5128, 92.54666
846.9949, 93.16855
847.4771, 92.64195
847.9592, 92.01141
848.4413, 92.08369
848.9234, 93.05209
849.4055, 94.29935
849.8876, 96.12822
850.3698, 97.67920
850.8519, 98.32689
851.3340, 98.15331
851.8161, 98.13278
852.2982, 98.26408
852.7803, 98.49464
853.2625, 99.13750
853.7446, 99.62551
854.2267, 99.33472
854.7088, 98.27165
855.1909, 96.87938
855.6730, 94.71687
856.1552, 92.89896
856.6373, 91.99348
857.1194, 91.85740
857.6015, 91.24677
858.0836, 90.09840
858.5657, 88.91076
859.0479, 87.78394
859.5300, 86.84928
860.0121, 86.47781
860.4942, 86.55004
860.9763, 86.65505
861.4584, 86.46217
861.9406, 86.38419
862.4227, 86.88636
862.9048, 87.67102
863.3869, 87.69736
863.8690, 86.63441
864.3511, 85.56866
864.8333, 84.56009
865.3154, 83.91808
865.7975, 84.67283
866.2796, 86.45500
866.7617, 87.63956
867.2438, 87.42471
867.7260, 86.84547
868.2081, 86.51306
868.6902, 86.38375
869.1723, 86.37910
869.6544, 86.84013
870.1365, 86.87332
870.6187, 86.16089
871.1008, 85.31352
871.5829, 85.34341
872.0650, 86.18788
872.5471, 86.48409
873.0292, 85.94930
873.5114, 85.24718
873.9935, 84.96882
874.4756, 84.97216
874.9577, 85.15524
875.4399, 85.67099
875.9220, 85.80004
876.4041, 84.95492
876.8862, 84.00455
877.3683, 83.55540
877.8505, 83.72900
878.3326, 83.49619
878.8147, 82.79666
879.2968, 82.13233
879.7789, 81.91431
880.2610, 82.03588
880.7432, 82.53566
881.2253, 83.37342
881.7074, 83.71896
882.1895, 82.48445
882.6716, 81.28498
883.1537, 81.14421
883.6359, 81.99468
884.1180, 82.47972
884.6001, 82.57350
885.0822, 82.42263
885.5643, 82.01450
886.0464, 81.45889
886.5286, 80.82368
887.0107, 80.22488
887.4928, 80.14159
887.9749, 81.39707
888.4570, 82.65478
888.9391, 83.23264
889.4213, 83.25981
889.9034, 83.20580
890.3855, 82.97702
890.8676, 82.98981
891.3497, 83.52747
891.8318, 84.05945
892.3140, 83.21072
892.7961, 81.41084
893.2782, 80.41227
893.7603, 80.99538
894.2424, 81.92796
894.7245, 82.63757
895.2067, 83.01785
895.6888, 82.91904
896.1709, 81.40098
896.6530, 80.97023
897.1351, 82.00719
897.6172, 83.54189
898.0994, 84.66933
898.5815, 85.41128
899.0636, 85.78641
899.5457, 85.76803
900.0278, 85.78865
900.5099, 86.17768
900.9921, 86.78770
901.4742, 87.54079
901.9563, 88.44889
902.4384, 89.28091
902.9205, 90.28781
903.4026, 90.78435
903.8848, 90.13521
904.3669, 88.58763
904.8490, 88.47503
905.3311, 89.73801
905.8132, 90.75037
906.2953, 89.98186
906.7775, 88.91048
907.2596, 89.20292
907.7417, 90.48619
908.2238, 91.39619
908.7059, 91.17253
909.1880, 91.01048
909.6702, 91.27281
910.1523, 91.67558
910.6344, 91.30919
911.1165, 90.20344
911.5986, 89.85502
912.0807, 90.87466
912.5629, 92.29939
913.0450, 93.24517
913.5271, 93.79900
914.0092, 94.04959
914.4913, 93.52217
914.9734, 93.62674
915.4556, 95.20763
915.9377, 96.88647
916.4198, 97.20110
916.9019, 96.02447
917.3840, 95.87898
917.8661, 96.98360
918.3483, 98.27551
918.8304, 99.09602
919.3125, 99.38892
919.7946, 98.91324
920.2767, 97.64438
920.7589, 96.45763
921.2410, 95.71267
921.7231, 95.00143
922.2052, 94.11905
922.6873, 93.10715
923.1694, 92.36827
923.6516, 91.91512
924.1337, 91.47652
924.6158, 90.96890
925.0979, 90.35349
925.5800, 89.29781
926.0621, 88.10542
926.5443, 87.52375
927.0264, 88.56056
927.5085, 89.29305
927.9906, 89.25416
928.4727, 88.77394
928.9548, 88.29774
929.4370, 87.81611
929.9191, 87.70837
930.4012, 88.11303
930.8833, 88.59499
931.3654, 88.48029
931.8475, 88.21891
932.3297, 88.50506
932.8118, 89.67891
933.2939, 90.62967
933.7761, 91.12707
934.2582, 91.28682
934.7403, 91.00539
935.2224, 90.25652
935.7045, 90.17103
936.1866, 90.76147
936.6688, 91.63792
937.1509, 93.02657
937.6330, 94.21058
938.1151, 94.06928
938.5972, 92.86730
939.0793, 92.04237
939.5615, 92.31499
940.0436, 92.67677
940.5257, 92.88911
941.0078, 93.01331
941.4899, 93.22666
941.9720, 93.52308
942.4542, 93.74490
942.9363, 93.88554
943.4184, 93.84293
943.9005, 93.29008
944.3826, 92.56898
944.8647, 92.14130
945.3469, 92.17822
945.8290, 92.45101
946.3111, 93.17729
946.7932, 93.80647
947.2753, 93.79412
947.7574, 93.17255
948.2396, 92.63316
948.7217, 92.19872
949.2038, 91.84274
949.6859, 91.69064
950.1680, 91.50045
950.6501, 90.90009
951.1323, 89.92281
951.6144, 89.45188
952.0965, 89.97713
952.5786, 90.33784
953.0607, 90.13289
953.5428, 89.55547
954.0250, 88.95148
954.5071, 88.42181
954.9892, 88.64327
955.4713, 90.37144
955.9534, 92.08300
956.4355, 92.57094
956.9177, 92.34318
957.3998, 92.12876
957.8819, 91.98024
958.3640, 91.93810
958.8461, 92.03293
959.3282, 92.17688
959.8104, 92.14597
960.2925, 92.08379
960.7746, 92.68216
961.2567, 93.99183
961.7388, 94.99927
962.2209, 94.91875
962.7031, 94.43418
963.1852, 93.78526
963.6673, 93.04285
964.1494, 93.04088
964.6315, 94.04533
965.1136, 94.89727
965.5958, 95.26668
966.0779, 95.08897
966.5600, 93.80051
967.0421, 91.85117
967.5242, 90.52824
968.0063, 91.09490
968.4885, 91.30607
968.9706, 89.77280
969.4527, 87.72551
969.9348, 86.65874
970.4169, 86.77470
970.8990, 87.01322
971.3812, 87.37724
971.8633, 87.50204
972.3454, 86.76264
972.8275, 85.67771
973.3096, 85.05029
973.7917, 84.95120
974.2739, 84.79058
974.7560, 84.24234
975.2381, 83.71849
975.7202, 83.35368
976.2023, 83.14074
976.6844, 83.06738
977.1666, 83.13163
977.6487, 83.19759
978.1308, 83.25650
978.6129, 83.22198
979.0950, 83.02219
979.5771, 82.66035
980.0593, 82.14134
980.5414, 81.07850
981.0235, 80.45593
981.5056, 80.44559
981.9877, 80.67384
982.4698, 80.82607
982.9520, 80.89359
983.4341, 80.74805
983.9162, 80.38546
984.3983, 80.14529
984.8804, 80.60588
985.3625, 81.00066
985.8447, 80.56335
986.3268, 79.34050
986.8089, 78.81165
987.2910, 79.21436
987.7731, 79.66994
988.2552, 79.92247
988.7374, 80.02974
989.2195, 80.02903
989.7016, 79.98145
990.1837, 80.04299
990.6658, 80.26719
991.1479, 80.60633
991.6301, 81.38174
992.1122, 82.02605
992.5944, 81.92345
993.0765, 80.87540
993.5586, 80.08810
994.0407, 79.53957
994.5228, 79.51900
995.0049, 80.84956
995.4871, 82.49599
995.9692, 83.03236
996.4513, 82.52956
996.9334, 81.93091
997.4155, 81.04970
997.8976, 80.77393
998.3798, 81.62701
998.8619, 82.98938
999.3440, 83.22815
999.8261, 82.47864
1000.308, 82.08023
1000.790, 82.49704
1001.272, 82.95767
1001.755, 82.74624
1002.237, 82.27455
1002.719, 81.95761
1003.201, 81.81823
1003.683, 81.95927
1004.165, 82.41088
1004.647, 83.07482
1005.129, 84.05820
1005.612, 85.17818
1006.094, 85.90389
1006.576, 86.28408
1007.058, 86.57866
1007.540, 87.14244
1008.022, 87.39492
1008.504, 86.84370
1008.986, 85.92326
1009.468, 85.29562
1009.951, 84.95480
1010.433, 85.05338
1010.915, 85.68060
1011.397, 86.44135
1011.879, 87.01818
1012.361, 87.38993
1012.843, 87.43209
1013.325, 87.05759
1013.807, 86.95806
1014.290, 87.16582
1014.772, 87.80083
1015.254, 89.14866
1015.736, 90.89973
1016.218, 91.66377
1016.700, 91.60946
1017.182, 91.72742
1017.664, 92.87195
1018.147, 93.79744
1018.629, 93.20316
1019.111, 92.09211
1019.593, 92.05831
1020.075, 93.62378
1020.557, 94.72607
1021.039, 95.15104
1021.521, 95.62574
1022.003, 97.03687
1022.486, 98.89806
1022.968, 100.3732
1023.450, 101.4275
1023.932, 102.2550
1024.414, 102.6504
1024.896, 103.1584
1025.378, 103.9611
1025.860, 104.9890
1026.343, 105.9914
1026.825, 106.9774
1027.307, 108.4017
1027.789, 110.5635
1028.271, 112.6183
1028.753, 113.5680
1029.235, 114.1345
1029.717, 115.1426
1030.199, 116.9078
1030.682, 118.4450
1031.164, 119.8108
1031.646, 120.8188
1032.128, 121.1161
1032.610, 121.0710
1033.092, 121.6817
1033.574, 122.8044
1034.056, 123.8910
1034.539, 124.9046
1035.021, 125.5768
1035.503, 125.6460
1035.985, 125.4434
1036.467, 125.3899
1036.949, 125.4900
1037.431, 125.6279
1037.913, 125.8172
1038.396, 125.7590
1038.878, 124.8118
1039.360, 123.7593
1039.842, 123.3185
1040.324, 123.5679
1040.806, 124.1016
1041.288, 125.0463
1041.770, 125.9238
1042.252, 126.6812
1042.734, 127.1727
1043.217, 126.7291
1043.699, 125.8042
1044.181, 125.6479
1044.663, 126.9828
1045.145, 128.3074
1045.627, 129.2039
1046.109, 129.7152
1046.591, 129.6342
1047.074, 128.8951
1047.556, 129.5853
1048.038, 131.7156
1048.520, 133.6147
1049.002, 133.8009
1049.484, 133.5844
1049.966, 134.3119
1050.448, 135.5548
1050.931, 136.0052
1051.413, 135.0732
1051.895, 134.4464
1052.377, 134.3870
1052.859, 134.4832
1053.341, 134.4508
1053.823, 134.1310
1054.305, 133.0278
1054.787, 131.0827
1055.270, 129.1626
1055.752, 127.7132
1056.234, 126.2975
1056.716, 124.6953
1057.198, 122.9966
1057.680, 121.6536
1058.162, 120.6355
1058.644, 119.4374
1059.126, 117.8039
1059.609, 116.1657
1060.091, 115.0816
1060.573, 114.1411
1061.055, 112.7800
1061.537, 110.6224
1062.019, 109.4135
1062.501, 109.3125
1062.983, 109.5832
1063.466, 110.0591
1063.948, 110.4171
1064.430, 109.9383
1064.912, 108.8190
1065.394, 107.6410
1065.876, 105.8387
1066.358, 105.1928
1066.840, 106.5822
1067.323, 108.4711
1067.805, 108.8012
1068.287, 107.8313
1068.769, 107.3705
1069.251, 107.5636
1069.733, 108.0062
1070.215, 108.6370
1070.697, 109.2180
1071.179, 109.5720
1071.661, 109.7273
1072.144, 109.7699
1072.626, 109.6773
1073.108, 109.5585
1073.590, 109.3355
1074.072, 109.4234
1074.554, 110.8830
1075.036, 112.7136
1075.518, 113.4768
1076.001, 112.6103
1076.483, 112.1237
1076.965, 112.2300
1077.447, 112.6218
1077.929, 113.3026
1078.411, 114.0604
1078.893, 114.1684
1079.375, 113.8056
1079.858, 113.5565
1080.340, 113.7671
1080.822, 113.9705
1081.304, 113.7751
1081.786, 113.6768
1082.268, 114.2582
1082.750, 115.5334
1083.232, 116.3646
1083.714, 116.7319
1084.197, 116.7977
1084.679, 116.6928
1085.161, 116.3236
1085.643, 115.2909
1086.125, 113.9517
1086.607, 113.4255
1087.089, 114.0155
1087.571, 114.4578
1088.054, 114.5948
1088.536, 114.4436
1089.018, 113.9447
1089.500, 113.2062
1089.982, 112.2510
1090.464, 111.0742
1090.946, 110.3909
1091.428, 110.7941
1091.911, 110.9426
1092.393, 110.3507
1092.875, 109.3181
1093.357, 108.4161
1093.839, 107.6847
1094.321, 107.2559
1094.803, 107.2468
1095.285, 107.2856
1095.767, 107.6290
1096.250, 107.5353
1096.732, 106.2463
1097.214, 103.8855
1097.696, 103.0108
1098.178, 103.5438
1098.660, 103.9050
1099.142, 103.2066
1099.624, 102.1151
1100.106, 100.8321
1100.589, 99.60658
1101.071, 98.83465
1101.553, 98.60522
1102.035, 98.44860
1102.517, 98.29344
1102.999, 98.55370
1103.481, 100.4929
1103.963, 102.4510
1104.446, 101.4826
1104.928, 98.37696
1105.410, 96.67486
1105.892, 98.27951
1106.374, 99.45820
1106.856, 99.67609
1107.338, 99.40750
1107.820, 99.08470
1108.302, 98.82995
1108.785, 99.14722
1109.267, 100.0848
1109.749, 100.4481
1110.231, 98.69372
1110.713, 97.53046
1111.195, 98.29882
1111.677, 97.55531
1112.159, 97.59319
1112.641, 98.60648
1113.124, 98.31254
1113.606, 100.0970
1114.088, 102.0170
1114.570, 102.7590
1115.052, 103.1099
1115.534, 103.7413
1116.016, 104.6335
1116.498, 104.8505
1116.981, 104.3567
1117.463, 104.3592
1117.945, 105.5411
1118.427, 107.1969
1118.909, 108.8219
1119.391, 110.3878
1119.873, 111.8345
1120.355, 113.0839
1120.838, 114.4398
1121.320, 115.9035
1121.802, 117.4617
1122.284, 119.3011
1122.766, 121.0958
1123.248, 122.0945
1123.730, 122.6790
1124.212, 123.8920
1124.694, 126.8683
1125.177, 129.2057
1125.659, 130.4729
1126.141, 131.5950
1126.623, 133.8677
1127.105, 136.6930
1127.587, 138.4245
1128.069, 139.0938
1128.551, 139.5746
1129.033, 140.0041
1129.516, 140.6300
1129.998, 141.6633
1130.480, 142.7602
1130.962, 143.3454
1131.444, 143.4772
1131.926, 143.5307
1132.408, 143.5686
1132.890, 143.2707
1133.373, 142.2646
1133.855, 141.0272
1134.337, 139.8820
1134.819, 138.7303
1135.301, 137.1963
1135.783, 135.2984
1136.265, 133.1341
1136.747, 130.6817
1137.229, 128.1334
1137.712, 125.3554
1138.194, 122.7714
1138.676, 120.8157
1139.158, 119.4660
1139.640, 118.2862
1140.122, 117.2828
1140.604, 116.2948
1141.086, 115.2483
1141.569, 114.1771
1142.051, 112.9497
1142.533, 111.7710
1143.015, 110.9689
1143.497, 110.8408
1143.979, 110.1544
1144.461, 108.7734
1144.943, 107.3823
1145.426, 106.3637
1145.908, 105.6463
1146.390, 105.1319
1146.872, 104.8533
1147.354, 104.8761
1147.836, 105.8962
1148.318, 106.0922
1148.800, 105.2068
1149.282, 104.0105
1149.765, 102.9262
1150.247, 102.0967
1150.729, 102.0212
1151.211, 102.5320
1151.693, 102.9024
1152.175, 102.8276
1152.657, 102.6204
1153.139, 102.3680
1153.621, 101.9704
1154.104, 101.1439
1154.586, 100.0848
1155.068, 99.52101
1155.550, 99.45149
1156.032, 99.39052
1156.514, 98.97534
1156.996, 98.68701
1157.478, 98.70486
1157.961, 98.89039
1158.443, 99.03985
1158.925, 99.14324
1159.407, 99.12753
1159.889, 98.97963
1160.371, 98.81288
1160.853, 98.83755
1161.335, 98.69501
1161.818, 98.06066
1162.300, 97.18382
1162.782, 96.94257
1163.264, 97.25113
1163.746, 96.91293
1164.228, 95.51096
1164.710, 94.39162
1165.192, 95.07547
1165.674, 95.93861
1166.156, 95.58874
1166.639, 94.28932
1167.121, 93.74875
1167.603, 93.96925
1168.085, 94.60888
1168.567, 95.74718
1169.049, 96.71751
1169.531, 96.96901
1170.013, 96.75040
1170.496, 96.18946
1170.978, 95.30704
1171.460, 94.68913
1171.942, 94.34350
1172.424, 94.05187
1172.906, 93.72453
1173.388, 93.40285
1173.870, 93.29857
1174.353, 93.14339
1174.835, 92.42754
1175.317, 90.87463
1175.799, 90.36058
1176.281, 91.00249
1176.763, 91.72231
1177.245, 91.89314
1177.727, 91.85608
1178.209, 92.11052
1178.692, 92.39440
1179.174, 92.19371
1179.656, 91.07045
1180.138, 90.57724
1180.620, 90.79011
1181.102, 91.21981
1181.584, 91.71120
1182.066, 92.06631
1182.548, 91.88368
1183.031, 91.38708
1183.513, 91.10378
1183.995, 91.17759
1184.477, 91.33872
1184.959, 91.60407
1185.441, 91.85605
1185.923, 92.06706
1186.405, 92.15178
1186.888, 91.86189
1187.370, 91.32732
1187.852, 91.01450
1188.334, 91.00676
1188.816, 91.28178
1189.298, 91.94399
1189.780, 92.52724
1190.262, 92.26743
1190.745, 91.77837
1191.227, 92.16953
1191.709, 93.28410
1192.191, 93.99053
1192.673, 93.98332
1193.155, 93.65890
1193.637, 92.97049
1194.119, 92.24986
1194.601, 91.78629
1195.084, 91.60056
1195.566, 91.81218
1196.048, 92.39119
1196.530, 92.96058
1197.012, 93.58349
1197.494, 93.86919
1197.976, 93.59854
1198.458, 93.31163
1198.941, 93.95110
1199.423, 95.01852
1199.905, 95.74575
1200.387, 96.04627
1200.869, 95.83774
1201.351, 94.71087
1201.833, 93.94044
1202.315, 93.95319
1202.797, 94.22236
1203.280, 93.80022
1203.762, 93.07924
1204.244, 92.73820
1204.726, 92.89181
1205.208, 93.22719
1205.690, 94.03664
1206.172, 94.25883
1206.654, 93.36086
1207.136, 92.10686
1207.619, 91.92540
1208.101, 92.31143
1208.583, 92.38128
1209.065, 91.94517
1209.547, 91.44675
1210.029, 90.89001
1210.511, 90.43577
1210.993, 90.22798
1211.476, 90.00135
1211.958, 88.95865
1212.440, 87.64030
1212.922, 87.10656
1213.404, 87.72066
1213.886, 88.30599
1214.368, 88.86186
1214.850, 89.03492
1215.333, 88.56428
1215.815, 87.80217
1216.297, 87.21085
1216.779, 86.85435
1217.261, 86.96236
1217.743, 87.86407
1218.225, 87.99738
1218.707, 86.97500
1219.189, 85.93269
1219.672, 85.31184
1220.154, 85.08792
1220.636, 85.41834
1221.118, 86.03948
1221.600, 86.52869
1222.082, 86.88279
1222.564, 86.63811
1223.046, 85.53529
1223.528, 84.57198
1224.011, 84.25552
1224.493, 84.39550
1224.975, 84.83891
1225.457, 85.44738
1225.939, 86.02125
1226.421, 86.65388
1226.903, 86.75806
1227.385, 86.19787
1227.868, 85.57915
1228.350, 85.20895
1228.832, 85.00663
1229.314, 84.92711
1229.796, 84.90403
1230.278, 84.80751
1230.760, 84.50606
1231.242, 84.46169
1231.724, 84.70377
1232.207, 85.06794
1232.689, 85.62137
1233.171, 86.06714
1233.653, 85.86552
1234.135, 85.34940
1234.617, 85.08719
1235.099, 85.21696
1235.581, 85.39352
1236.063, 85.63552
1236.546, 85.79015
1237.028, 85.60519
1237.510, 85.44937
1237.992, 85.97343
1238.474, 86.69338
1238.956, 86.70168
1239.438, 85.66225
1239.920, 85.35474
1240.403, 85.84971
1240.885, 86.15169
1241.367, 85.06770
1241.849, 84.09535
1242.331, 85.01182
1242.813, 86.65842
1243.295, 87.24429
1243.777, 86.49721
1244.260, 86.00010
1244.742, 85.74623
1245.224, 85.65779
1245.706, 85.94250
1246.188, 86.09621
1246.670, 85.57629
1247.152, 84.83298
1247.634, 84.50581
1248.116, 84.62900
1248.599, 84.53516
1249.081, 84.25552
1249.563, 84.29993
1250.045, 85.34392
1250.527, 86.36330
1251.009, 86.91460
1251.491, 87.07668
1251.973, 86.76662
1252.455, 86.02503
1252.938, 86.00851
1253.420, 86.62359
1253.902, 87.05196
1254.384, 86.69758
1254.866, 86.26080
1255.348, 85.92635
1255.830, 85.68906
1256.313, 85.54876
1256.795, 85.50912
1257.277, 85.66043
1257.759, 85.95298
1258.241, 86.13456
1258.723, 86.13212
1259.205, 85.89804
1259.687, 85.14427
1260.169, 84.61033
1260.651, 85.34141
1261.134, 86.73418
1261.616, 86.64831
1262.098, 85.46226
1262.580, 84.56406
1263.062, 84.47482
1263.544, 84.78549
1264.026, 85.60698
1264.508, 86.43261
1264.991, 86.82795
1265.473, 86.93632
1265.955, 87.16340
1266.437, 87.33050
1266.919, 86.93702
1267.401, 84.90768
1267.883, 84.20564
1268.365, 85.14492
1268.848, 86.35020
1269.330, 86.78108
1269.812, 86.85213
1270.294, 87.13433
1270.776, 87.09975
1271.258, 87.43780
1271.740, 86.86123
1272.222, 86.43630
1272.704, 86.16203
1273.187, 86.14645
1273.669, 87.00906
1274.151, 87.62422
1274.633, 86.38115
1275.115, 86.79114
1275.597, 86.50645
1276.079, 85.74072
1276.561, 85.97004
1277.043, 84.90091
1277.526, 84.14095
1278.008, 85.14637
1278.490, 86.21011
1278.972, 86.27567
1279.454, 85.91834
1279.936, 85.69054
1280.418, 85.59361
1280.900, 85.51534
1281.383, 85.48780
1281.865, 85.71574
1282.347, 86.60271
1282.829, 87.32863
1283.311, 87.43332
1283.793, 87.50973
1284.275, 88.22259
1284.757, 89.25113
1285.240, 89.11678
1285.722, 88.10773
1286.204, 87.14806
1286.686, 86.36214
1287.168, 86.12572
1287.650, 86.64561
1288.132, 87.24154
1288.614, 87.36152
1289.096, 87.30080
1289.578, 87.99106
1290.061, 88.89371
1290.543, 88.80714
1291.025, 86.48306
1291.507, 85.64603
1291.989, 86.60723
1292.471, 87.59224
1292.953, 87.49130
1293.435, 87.00610
1293.918, 86.99294
1294.400, 87.13146
1294.882, 86.79867
1295.364, 85.81860
1295.846, 86.11914
1296.328, 87.73611
1296.810, 88.61938
1297.292, 87.27705
1297.775, 85.82080
1298.257, 86.19760
1298.739, 86.96857
1299.221, 86.58785
1299.703, 87.08841
1300.185, 85.51245
1300.667, 87.01091
1301.149, 87.81499
1301.631, 86.92896
1302.114, 85.91106
1302.596, 85.31763
##END=



