##NAMES=Chamosite
##RRUFFID=R060188
##IDEAL CHEMISTRY=Fe^2+^_5_Al(AlSi_3_)O_10_(OH)_8_
##LOCALITY=Slesse Creek, Chilliwack, British Columbia, Canada
##OWNER=RRUFF
##SOURCE=Lloyd Twaites
##DESCRIPTION=Brown hexagonal tablets with curved prism faces
##STATUS=The identification of this mineral has been confirmed by X-ray diffraction and chemical analysis
##URL=rruff.info/R060188
##MEASURED CHEMISTRY=(Fe^2+^_2.53_Mg_2.15_Al_0.30_Mn_0.02_)_Î£=5_Al_1.00_(Si_2.70_Al_1.30_)O_10_(OH)_8_
92.02539, 101.4921
92.50751, 102.5954
92.98962, 103.8524
93.47174, 103.9317
93.95386, 103.4788
94.43597, 102.2221
94.91809, 100.0811
95.40021, 97.40009
95.88232, 94.90860
96.36444, 92.57623
96.84656, 90.48690
97.32867, 88.79349
97.81078, 87.37621
98.29290, 86.04026
98.77502, 84.57738
99.25713, 82.83955
99.73925, 81.17692
100.2214, 79.61217
100.7035, 78.09702
101.1856, 76.50517
101.6677, 74.86512
102.1498, 73.39043
102.6320, 72.34412
103.1141, 71.84386
103.5962, 71.57014
104.0783, 71.71518
104.5604, 71.99690
105.0425, 72.12618
105.5247, 72.02422
106.0068, 71.71459
106.4889, 71.21297
106.9710, 70.54616
107.4531, 69.70570
107.9352, 68.58459
108.4173, 67.23555
108.8995, 65.92688
109.3816, 64.61960
109.8637, 63.51503
110.3458, 62.85084
110.8279, 62.71562
111.3100, 62.76791
111.7922, 62.51894
112.2743, 61.76982
112.7564, 61.38046
113.2385, 61.87835
113.7206, 62.68256
114.2027, 63.33521
114.6849, 63.63610
115.1670, 63.63042
115.6491, 63.45946
116.1312, 62.87482
116.6133, 62.40488
117.0954, 62.26553
117.5776, 62.27970
118.0597, 62.12447
118.5418, 61.52946
119.0239, 60.47863
119.5060, 60.11159
119.9881, 60.77779
120.4703, 61.63964
120.9524, 62.47099
121.4345, 63.21781
121.9166, 63.85978
122.3987, 64.40997
122.8808, 64.85322
123.3630, 64.89857
123.8451, 64.22538
124.3272, 63.31720
124.8093, 62.65289
125.2914, 62.32283
125.7735, 62.11978
126.2557, 61.90420
126.7378, 61.66862
127.2199, 61.24374
127.7020, 60.39528
128.1841, 59.27937
128.6662, 58.44918
129.1483, 58.22556
129.6305, 58.01392
130.1126, 57.31390
130.5947, 56.16161
131.0768, 54.94667
131.5589, 54.01143
132.0410, 53.39212
132.5232, 52.76051
133.0053, 51.99449
133.4874, 51.25785
133.9695, 50.62778
134.4516, 50.12202
134.9337, 49.72781
135.4159, 49.43658
135.8980, 49.32288
136.3801, 49.17367
136.8622, 48.92511
137.3443, 48.66884
137.8264, 48.55450
138.3086, 48.62846
138.7907, 48.72874
139.2728, 48.40526
139.7549, 47.05950
140.2370, 45.95899
140.7191, 45.26551
141.2013, 44.86039
141.6834, 44.57021
142.1655, 44.30863
142.6476, 44.09576
143.1297, 44.02546
143.6118, 44.34882
144.0939, 44.52995
144.5761, 44.25689
145.0582, 43.61245
145.5403, 42.96950
146.0224, 42.52542
146.5045, 42.26480
146.9866, 42.06980
147.4688, 41.96974
147.9509, 41.90808
148.4330, 41.85774
148.9151, 41.83081
149.3972, 41.73716
149.8793, 41.33192
150.3615, 40.86037
150.8436, 40.68268
151.3257, 41.15224
151.8078, 41.88522
152.2899, 41.92963
152.7720, 40.85280
153.2542, 39.82620
153.7363, 39.31968
154.2184, 39.16467
154.7005, 39.10908
155.1826, 39.00942
155.6647, 38.87354
156.1469, 38.78646
156.6290, 38.80756
157.1111, 38.82351
157.5932, 38.75772
158.0753, 38.65910
158.5574, 38.64842
159.0396, 38.86208
159.5217, 39.35821
160.0038, 39.52602
160.4859, 38.98213
160.9680, 38.49974
161.4501, 38.50971
161.9323, 38.94706
162.4144, 39.40057
162.8965, 39.43565
163.3786, 38.92072
163.8607, 38.50590
164.3428, 38.09760
164.8250, 37.83941
165.3071, 37.91161
165.7892, 38.32560
166.2713, 38.83525
166.7534, 39.16862
167.2355, 39.31195
167.7177, 39.33748
168.1998, 39.23120
168.6819, 39.01780
169.1640, 38.64158
169.6461, 38.02027
170.1282, 37.50352
170.6104, 37.63192
171.0925, 38.32040
171.5746, 39.03630
172.0567, 39.64146
172.5388, 40.12185
173.0209, 40.40678
173.5031, 40.37589
173.9852, 40.28917
174.4673, 40.37415
174.9494, 40.61864
175.4315, 40.91651
175.9136, 41.19794
176.3958, 41.46453
176.8779, 41.75050
177.3600, 42.08970
177.8421, 42.42547
178.3242, 42.70937
178.8063, 42.94687
179.2885, 43.19030
179.7706, 43.48296
180.2527, 43.81749
180.7348, 44.24236
181.2169, 44.91640
181.6990, 45.56601
182.1812, 45.95998
182.6633, 46.10316
183.1454, 46.24538
183.6275, 46.77550
184.1096, 47.97627
184.5917, 48.97265
185.0738, 49.57171
185.5560, 50.12740
186.0381, 50.92648
186.5202, 52.02473
187.0023, 53.22432
187.4844, 54.18251
187.9665, 54.75374
188.4487, 55.28493
188.9308, 55.53688
189.4129, 55.86078
189.8950, 56.69373
190.3771, 58.16695
190.8592, 59.89852
191.3414, 61.12692
191.8235, 61.52940
192.3056, 62.03088
192.7877, 62.77496
193.2698, 63.65372
193.7519, 64.49126
194.2341, 65.20277
194.7162, 65.94038
195.1983, 67.16158
195.6804, 69.11728
196.1625, 70.64598
196.6446, 71.09447
197.1268, 70.86137
197.6089, 70.89079
198.0910, 71.59681
198.5731, 72.53567
199.0552, 73.01903
199.5373, 73.03004
200.0195, 72.84275
200.5016, 72.62605
200.9837, 72.34711
201.4658, 71.80201
201.9479, 70.71138
202.4300, 69.54385
202.9122, 68.94389
203.3943, 68.99197
203.8764, 68.89738
204.3585, 67.94850
204.8406, 66.14960
205.3227, 64.31861
205.8048, 62.51098
206.2870, 60.85893
206.7691, 59.53037
207.2512, 58.54040
207.7333, 57.62211
208.2154, 56.45368
208.6975, 54.96313
209.1797, 53.65235
209.6618, 52.68732
210.1439, 51.87523
210.6260, 51.16996
211.1081, 50.54871
211.5902, 49.94967
212.0724, 49.28378
212.5545, 48.52075
213.0366, 47.79538
213.5187, 47.19963
214.0008, 46.58593
214.4829, 45.80657
214.9651, 44.85939
215.4472, 43.90358
215.9293, 43.19761
216.4114, 42.93032
216.8935, 42.52439
217.3756, 41.88972
217.8578, 41.20226
218.3399, 40.49794
218.8220, 39.82261
219.3041, 39.30346
219.7862, 39.18583
220.2683, 39.94805
220.7505, 40.15473
221.2326, 39.36415
221.7147, 38.35795
222.1968, 37.73690
222.6789, 37.64151
223.1610, 37.82030
223.6432, 37.91883
224.1253, 37.96332
224.6074, 37.82850
225.0895, 37.25341
225.5716, 36.64419
226.0537, 36.44635
226.5358, 36.75031
227.0180, 37.19091
227.5001, 37.25405
227.9822, 36.81354
228.4643, 36.35706
228.9464, 35.79916
229.4285, 35.29064
229.9107, 35.04189
230.3928, 35.10575
230.8749, 35.27594
231.3570, 35.28823
231.8391, 35.12788
232.3212, 34.98853
232.8034, 34.80095
233.2855, 34.68867
233.7676, 34.89539
234.2497, 35.51553
234.7318, 36.15363
235.2139, 36.32175
235.6961, 36.08039
236.1782, 35.77796
236.6603, 35.38505
237.1424, 35.01743
237.6245, 34.90467
238.1066, 35.14375
238.5888, 35.40282
239.0709, 35.32652
239.5530, 35.00676
240.0351, 34.70199
240.5172, 34.32594
240.9993, 34.05520
241.4815, 34.32008
241.9636, 35.10312
242.4457, 35.32026
242.9278, 35.43782
243.4099, 35.46116
243.8920, 35.10805
244.3742, 35.24104
244.8563, 35.17922
245.3384, 35.10941
245.8205, 35.31082
246.3026, 35.01245
246.7847, 35.20956
247.2668, 35.15261
247.7490, 35.01277
248.2311, 34.77940
248.7132, 34.47033
249.1953, 34.12067
249.6774, 33.72599
250.1595, 33.29725
250.6417, 32.83504
251.1238, 32.34932
251.6059, 31.82113
252.0880, 31.18207
252.5701, 30.57001
253.0522, 30.39293
253.5344, 30.97290
254.0165, 31.35425
254.4986, 31.16636
254.9807, 30.69376
255.4628, 30.20162
255.9449, 29.78628
256.4271, 29.48423
256.9092, 29.40935
257.3913, 29.72003
257.8734, 29.96229
258.3555, 30.16009
258.8376, 29.96349
259.3198, 29.95401
259.8019, 29.84499
260.2840, 29.64175
260.7661, 29.06204
261.2482, 28.96845
261.7303, 29.85386
262.2125, 30.50547
262.6946, 30.86541
263.1767, 30.69471
263.6588, 29.95370
264.1409, 29.02961
264.6230, 28.64341
265.1052, 29.20697
265.5873, 29.51526
266.0694, 29.40320
266.5515, 29.13407
267.0336, 28.79742
267.5157, 28.45785
267.9979, 28.26562
268.4800, 28.51346
268.9621, 29.64087
269.4442, 30.22727
269.9263, 29.87475
270.4084, 29.38536
270.8906, 29.31093
271.3727, 29.70248
271.8548, 30.21074
272.3369, 30.40646
272.8190, 30.17843
273.3011, 29.99146
273.7833, 29.83018
274.2654, 29.71314
274.7475, 29.68749
275.2296, 29.73145
275.7117, 29.75454
276.1938, 29.65554
276.6760, 29.39687
277.1581, 29.25208
277.6402, 29.27767
278.1223, 29.33566
278.6044, 29.41545
279.0865, 29.48147
279.5686, 29.43600
280.0508, 29.17026
280.5329, 28.67418
281.0150, 28.46754
281.4971, 28.85815
281.9792, 29.16437
282.4613, 28.94836
282.9435, 28.43155
283.4256, 28.01620
283.9077, 28.28405
284.3898, 28.45232
284.8719, 28.52637
285.3540, 28.22396
285.8362, 28.40767
286.3183, 28.39656
286.8004, 28.37747
287.2825, 28.62959
287.7646, 28.38193
288.2467, 28.62975
288.7289, 27.95841
289.2110, 28.29048
289.6931, 28.59558
290.1752, 28.74148
290.6573, 28.76752
291.1394, 28.69384
291.6216, 28.52090
292.1037, 28.32840
292.5858, 28.29349
293.0679, 28.55450
293.5500, 28.70571
294.0321, 28.74738
294.5143, 28.64304
294.9964, 28.24747
295.4785, 27.52355
295.9606, 26.80057
296.4427, 26.58199
296.9248, 27.12183
297.4070, 27.41003
297.8891, 27.21708
298.3712, 26.87570
298.8533, 26.66704
299.3354, 26.63609
299.8175, 26.68057
300.2997, 26.69716
300.7818, 26.67653
301.2639, 26.72156
301.7460, 26.95905
302.2281, 27.16189
302.7102, 27.11748
303.1924, 26.85184
303.6745, 26.62093
304.1566, 26.64284
304.6387, 26.89948
305.1208, 26.99339
305.6029, 26.70911
306.0851, 26.48568
306.5672, 26.64279
307.0493, 27.06672
307.5314, 27.36877
308.0135, 27.30693
308.4956, 26.97288
308.9778, 26.77338
309.4599, 26.76925
309.9420, 26.79481
310.4241, 26.85425
310.9062, 26.90272
311.3883, 26.84081
311.8705, 26.61906
312.3526, 26.29452
312.8347, 25.97154
313.3168, 25.56775
313.7989, 25.34226
314.2810, 25.46100
314.7632, 25.74759
315.2453, 25.98849
315.7274, 26.12735
316.2095, 26.18439
316.6916, 26.18043
317.1737, 26.11012
317.6559, 25.99277
318.1380, 25.68803
318.6201, 25.42083
319.1022, 25.47756
319.5843, 25.87432
320.0664, 26.27358
320.5485, 26.34565
321.0306, 26.05507
321.5128, 25.85988
321.9949, 25.69278
322.4770, 25.67101
322.9591, 26.05673
323.4412, 26.73077
323.9233, 27.12296
324.4055, 26.77053
324.8876, 25.81699
325.3697, 25.33701
325.8518, 25.78051
326.3339, 26.13068
326.8160, 25.84937
327.2982, 25.19734
327.7803, 24.75711
328.2624, 24.81304
328.7445, 25.20550
329.2266, 25.53280
329.7087, 25.87967
330.1909, 26.03037
330.6730, 25.78073
331.1551, 25.36863
331.6372, 25.11221
332.1193, 25.10518
332.6014, 25.21257
333.0836, 25.25990
333.5657, 25.26368
334.0478, 25.12254
334.5299, 24.54634
335.0120, 24.01125
335.4941, 23.99137
335.9763, 24.50382
336.4584, 25.14482
336.9405, 25.57433
337.4226, 25.78113
337.9047, 25.70680
338.3868, 24.97305
338.8690, 24.34332
339.3511, 24.30151
339.8332, 24.71633
340.3153, 25.15014
340.7974, 25.33835
341.2795, 25.30587
341.7617, 25.19294
342.2438, 24.76254
342.7259, 24.54029
343.2080, 24.89365
343.6901, 25.46901
344.1722, 25.68881
344.6544, 25.30746
345.1365, 24.61227
345.6186, 24.19405
346.1007, 24.17673
346.5828, 24.29121
347.0649, 24.64895
347.5471, 25.07267
348.0292, 25.45179
348.5113, 25.74513
348.9934, 25.90655
349.4755, 25.86140
349.9576, 25.54434
350.4398, 25.27918
350.9219, 24.92626
351.4040, 24.73728
351.8861, 24.95507
352.3682, 25.47733
352.8503, 25.99845
353.3325, 26.29329
353.8146, 26.36933
354.2967, 26.33889
354.7788, 26.19327
355.2609, 25.95264
355.7430, 25.47668
356.2252, 24.94534
356.7073, 24.61084
357.1894, 24.59550
357.6715, 24.80720
358.1536, 25.02769
358.6357, 25.38502
359.1179, 25.53842
359.5999, 25.39324
360.0821, 25.11131
360.5642, 24.77815
361.0463, 24.43206
361.5284, 24.12457
362.0105, 23.90184
362.4926, 23.73239
362.9748, 23.78319
363.4569, 24.43386
363.9390, 24.93783
364.4211, 24.79740
364.9032, 24.20841
365.3853, 23.75540
365.8675, 23.92129
366.3496, 24.61953
366.8317, 25.02075
367.3138, 24.99924
367.7959, 24.80506
368.2780, 24.36021
368.7602, 23.83074
369.2423, 23.38497
369.7244, 23.09317
370.2065, 22.97271
370.6886, 23.14590
371.1707, 23.88698
371.6529, 24.21036
372.1350, 23.55474
372.6171, 22.76932
373.0992, 22.43506
373.5813, 22.61505
374.0634, 22.93289
374.5456, 23.03411
375.0277, 22.91305
375.5098, 22.68981
375.9919, 22.16578
376.4740, 21.77159
376.9561, 21.79799
377.4383, 22.10038
377.9204, 22.33894
378.4025, 22.29061
378.8846, 22.06244
379.3667, 21.94852
379.8488, 21.96749
380.3310, 22.05569
380.8131, 22.40462
381.2952, 22.71343
381.7773, 22.58750
382.2594, 21.85441
382.7415, 21.01191
383.2237, 20.61769
383.7058, 20.66801
384.1879, 20.75694
384.6700, 20.75924
385.1521, 20.80946
385.6342, 21.12035
386.1164, 21.65897
386.5985, 22.00013
387.0806, 21.76481
387.5627, 21.17441
388.0448, 20.74878
388.5269, 20.54519
389.0091, 20.45556
389.4912, 20.43069
389.9733, 20.46150
390.4554, 20.54116
390.9375, 20.73174
391.4196, 20.91266
391.9018, 20.88778
392.3839, 20.69568
392.8660, 20.74129
393.3481, 21.37122
393.8302, 22.17594
394.3123, 22.32649
394.7945, 21.65645
395.2766, 20.66669
395.7587, 20.88230
396.2408, 20.99833
396.7229, 21.02013
397.2050, 20.66549
397.6872, 20.79694
398.1693, 20.73359
398.6514, 20.66225
399.1335, 20.86213
399.6156, 20.56223
400.0977, 21.31110
400.5798, 21.32293
401.0620, 20.96857
401.5441, 20.58307
402.0262, 20.35751
402.5083, 20.27774
402.9904, 20.28747
403.4725, 20.51149
403.9547, 20.65710
404.4368, 20.64620
404.9189, 20.53573
405.4010, 20.33334
405.8831, 20.05445
406.3652, 19.86582
406.8474, 20.06466
407.3295, 20.96172
407.8116, 21.30947
408.2937, 20.72391
408.7758, 19.99970
409.2579, 19.47296
409.7401, 19.19851
410.2222, 19.17939
410.7043, 19.45811
411.1864, 19.97509
411.6685, 20.21060
412.1506, 19.84829
412.6328, 19.58072
413.1149, 19.51166
413.5970, 19.58603
414.0791, 19.77057
414.5612, 20.04699
415.0433, 20.34223
415.5255, 20.55552
416.0076, 20.69779
416.4897, 20.72075
416.9718, 20.53627
417.4539, 20.30146
417.9360, 20.08802
418.4182, 19.88840
418.9003, 19.64628
419.3824, 19.24449
419.8645, 18.77418
420.3466, 18.68231
420.8287, 19.16104
421.3109, 19.62185
421.7930, 19.79528
422.2751, 19.83662
422.7572, 19.93735
423.2393, 20.17549
423.7214, 20.35891
424.2036, 20.24476
424.6857, 19.84388
425.1678, 19.39740
425.6499, 18.75848
426.1320, 18.36014
426.6141, 18.74144
427.0963, 19.79312
427.5784, 20.66264
428.0605, 20.95275
428.5426, 20.86193
429.0247, 20.64860
429.5068, 20.31953
429.9890, 19.94607
430.4711, 19.52190
430.9532, 19.10419
431.4353, 18.84695
431.9174, 18.80058
432.3995, 18.84028
432.8817, 18.90299
433.3638, 19.00668
433.8459, 19.21946
434.3280, 19.57569
434.8101, 19.95667
435.2922, 20.21044
435.7744, 20.33043
436.2565, 20.30140
436.7386, 20.06281
437.2207, 19.72248
437.7028, 19.20322
438.1849, 18.61364
438.6671, 18.33969
439.1492, 18.68970
439.6313, 19.51869
440.1134, 19.96557
440.5955, 19.63810
441.0776, 19.40771
441.5598, 19.52153
442.0418, 19.69891
442.5240, 19.58616
443.0061, 19.12127
443.4882, 18.59998
443.9703, 18.42870
444.4524, 18.70172
444.9345, 18.88077
445.4167, 18.82737
445.8988, 18.81583
446.3809, 18.99532
446.8630, 19.28385
447.3451, 19.53293
447.8272, 19.66944
448.3094, 19.68178
448.7915, 19.47231
449.2736, 18.87064
449.7557, 18.53734
450.2378, 18.84545
450.7199, 19.34066
451.2021, 19.80030
451.6842, 20.17264
452.1663, 20.32878
452.6484, 20.03263
453.1305, 19.40331
453.6126, 18.95306
454.0948, 18.69468
454.5769, 18.66656
455.0590, 19.11722
455.5411, 19.79088
456.0232, 20.23178
456.5053, 20.27464
456.9875, 20.14551
457.4696, 19.94084
457.9517, 19.69979
458.4338, 19.64420
458.9159, 19.92939
459.3980, 20.26888
459.8802, 20.13182
460.3623, 19.45607
460.8444, 19.03507
461.3265, 19.08424
461.8086, 19.39747
462.2907, 19.97776
462.7729, 20.72218
463.2550, 21.14644
463.7371, 20.85117
464.2192, 20.00488
464.7013, 19.57866
465.1834, 19.77046
465.6656, 20.09613
466.1477, 20.73075
466.6298, 21.34698
467.1119, 21.55112
467.5940, 21.27476
468.0761, 20.77977
468.5583, 20.33320
469.0404, 19.88610
469.5225, 19.79217
470.0046, 20.52150
470.4867, 21.12027
470.9688, 21.28835
471.4510, 21.13144
471.9331, 20.78592
472.4152, 20.28793
472.8973, 19.81842
473.3794, 19.79896
473.8615, 20.38121
474.3437, 20.76783
474.8258, 20.76545
475.3079, 20.54718
475.7900, 20.06806
476.2721, 19.41290
476.7542, 18.94259
477.2364, 19.05868
477.7185, 19.48081
478.2006, 19.52130
478.6827, 19.11105
479.1648, 18.71217
479.6469, 18.49871
480.1291, 18.48497
480.6112, 18.72191
481.0933, 19.34971
481.5754, 19.84054
482.0575, 19.82620
482.5396, 19.51647
483.0217, 19.26727
483.5038, 19.14529
483.9860, 19.15911
484.4681, 19.38065
484.9502, 19.81626
485.4323, 19.95646
485.9144, 19.55841
486.3965, 19.14283
486.8787, 18.88600
487.3608, 18.77365
487.8429, 18.81375
488.3250, 19.00848
488.8071, 19.20510
489.2892, 19.10704
489.7714, 18.49713
490.2535, 18.12625
490.7356, 17.98903
491.2177, 18.05186
491.6998, 18.47332
492.1819, 19.08272
492.6641, 19.49773
493.1462, 19.45458
493.6283, 19.10111
494.1104, 18.85552
494.5925, 18.72834
495.0746, 18.68247
495.5568, 18.76172
496.0389, 18.88461
496.5210, 19.03823
497.0031, 19.20481
497.4852, 19.28103
497.9673, 19.12421
498.4495, 18.82594
498.9316, 18.64840
499.4137, 18.61959
499.8958, 18.61456
500.3779, 18.49373
500.8600, 18.37810
501.3422, 18.53767
501.8243, 19.15071
502.3064, 19.67912
502.7885, 19.86109
503.2706, 19.77875
503.7527, 19.49112
504.2349, 19.00606
504.7170, 18.62977
505.1991, 18.72286
505.6812, 19.32414
506.1633, 19.57401
506.6454, 19.12002
507.1276, 18.74689
507.6097, 18.80967
508.0918, 19.12051
508.5739, 19.40484
509.0560, 19.55554
509.5381, 19.58543
510.0203, 19.49802
510.5024, 19.24693
510.9845, 19.03732
511.4666, 18.85276
511.9487, 18.72701
512.4308, 18.69725
512.9130, 18.73375
513.3951, 18.77618
513.8772, 18.78959
514.3593, 18.80800
514.8414, 18.91490
515.3235, 19.12999
515.8057, 19.28479
516.2878, 19.31993
516.7699, 19.30083
517.2520, 19.26053
517.7341, 19.20837
518.2162, 19.20288
518.6984, 19.34955
519.1805, 19.51005
519.6626, 19.46217
520.1447, 19.22124
520.6268, 19.03954
521.1089, 19.05385
521.5911, 19.17923
522.0732, 19.19645
522.5553, 19.00262
523.0374, 19.00863
523.5195, 19.50610
524.0016, 20.07545
524.4838, 20.25628
524.9659, 20.10115
525.4480, 20.07451
525.9301, 20.54048
526.4122, 21.36781
526.8943, 21.88023
527.3765, 21.76400
527.8586, 21.76618
528.3407, 22.02122
528.8228, 22.36390
529.3049, 22.64314
529.7870, 22.85415
530.2692, 23.10962
530.7513, 23.48879
531.2334, 23.99395
531.7155, 24.72513
532.1976, 25.91041
532.6797, 26.78161
533.1619, 26.56738
533.6440, 26.09060
534.1261, 26.21247
534.6082, 27.10507
535.0903, 28.22221
535.5724, 29.25181
536.0546, 30.24578
536.5367, 31.36527
537.0188, 32.64308
537.5009, 33.86929
537.9830, 34.91261
538.4651, 35.76538
538.9473, 36.41827
539.4294, 36.67998
539.9115, 37.00386
540.3936, 37.40948
540.8757, 37.99779
541.3578, 39.03872
541.8400, 40.51320
542.3221, 41.93566
542.8042, 42.77516
543.2863, 43.02031
543.7684, 43.39537
544.2505, 44.08052
544.7326, 44.67794
545.2147, 45.32441
545.6968, 45.73948
546.1790, 45.59758
546.6611, 44.82866
547.1432, 43.65985
547.6253, 42.22789
548.1074, 40.55767
548.5895, 39.01738
549.0717, 37.68580
549.5538, 36.35163
550.0359, 34.76110
550.5180, 33.12289
551.0001, 31.78043
551.4822, 30.90657
551.9644, 30.05724
552.4465, 28.90654
552.9286, 27.58774
553.4107, 26.32313
553.8928, 25.15231
554.3749, 24.17573
554.8571, 23.50705
555.3392, 23.13873
555.8213, 22.80820
556.3034, 22.71376
556.7855, 22.41264
557.2676, 21.45662
557.7498, 20.38978
558.2319, 19.99293
558.7140, 20.37536
559.1961, 20.86017
559.6782, 20.66806
560.1603, 19.79099
560.6425, 19.10011
561.1246, 18.67732
561.6067, 18.34035
562.0888, 17.97337
562.5709, 17.67669
563.0530, 17.56682
563.5352, 17.67398
564.0173, 17.92053
564.4994, 18.37515
564.9815, 18.92206
565.4636, 19.14998
565.9457, 18.98355
566.4279, 18.68642
566.9100, 18.37259
567.3921, 18.07515
567.8742, 17.90143
568.3563, 17.98583
568.8384, 17.97006
569.3206, 17.60998
569.8027, 17.14546
570.2848, 16.92028
570.7669, 16.95440
571.2490, 16.92850
571.7311, 16.52335
572.2133, 15.80476
572.6954, 15.52547
573.1775, 16.22577
573.6596, 16.62548
574.1417, 16.27736
574.6238, 15.76674
575.1060, 15.61356
575.5881, 15.86652
576.0702, 16.22135
576.5523, 16.49505
577.0344, 16.66308
577.5165, 16.57171
577.9987, 16.13775
578.4808, 15.81362
578.9629, 15.85379
579.4450, 16.07189
579.9271, 16.22788
580.4092, 16.32633
580.8914, 16.30288
581.3735, 15.91938
581.8556, 15.53522
582.3377, 15.65324
582.8198, 16.21251
583.3019, 16.70579
583.7841, 16.84289
584.2662, 16.71233
584.7483, 16.55517
585.2304, 16.33253
585.7125, 16.14694
586.1946, 15.87348
586.6768, 15.74263
587.1589, 16.08682
587.6410, 16.69848
588.1231, 17.00423
588.6052, 16.61764
589.0873, 15.90639
589.5695, 15.66213
590.0516, 15.94799
590.5337, 16.25253
591.0158, 16.52415
591.4979, 16.73232
591.9800, 16.85502
592.4622, 16.89901
592.9443, 16.88610
593.4264, 16.74658
593.9085, 16.62120
594.3906, 16.61827
594.8727, 16.72249
595.3549, 16.93677
595.8370, 17.27384
596.3191, 17.56018
596.8012, 17.54536
597.2833, 17.14777
597.7654, 17.03631
598.2476, 17.54984
598.7297, 17.91397
599.2118, 17.74937
599.6939, 17.35869
600.1760, 17.11329
600.6581, 17.12839
601.1403, 17.31824
601.6224, 17.67272
602.1045, 18.17689
602.5866, 18.43778
603.0687, 18.39428
603.5508, 18.23863
604.0330, 17.99701
604.5151, 17.72304
604.9972, 17.46375
605.4793, 17.20081
605.9614, 17.06210
606.4435, 17.14106
606.9257, 17.36693
607.4078, 17.70023
607.8899, 18.11103
608.3720, 18.44992
608.8541, 18.62848
609.3362, 18.65426
609.8184, 18.54214
610.3005, 17.99176
610.7826, 17.76560
611.2647, 18.09298
611.7468, 18.53094
612.2289, 18.85580
612.7111, 19.04593
613.1932, 19.14241
613.6753, 19.16890
614.1574, 19.11270
614.6395, 18.87484
615.1216, 18.42266
615.6038, 18.23706
616.0859, 18.52715
616.5680, 18.93153
617.0501, 19.14070
617.5322, 19.21124
618.0143, 19.33115
618.4965, 19.62515
618.9786, 19.88069
619.4607, 19.91015
619.9428, 19.82662
620.4249, 19.87351
620.9070, 20.10072
621.3892, 20.29958
621.8713, 20.22917
622.3534, 19.89617
622.8355, 19.81777
623.3176, 20.34193
623.7997, 20.67425
624.2819, 20.66757
624.7640, 20.44353
625.2461, 19.94996
625.7282, 19.27740
626.2103, 18.87230
626.6924, 19.27341
627.1745, 20.11662
627.6566, 20.43289
628.1387, 20.17884
628.6208, 20.01302
629.1030, 20.20035
629.5851, 20.57036
630.0672, 20.67509
630.5493, 21.12104
631.0314, 21.46739
631.5135, 21.71954
631.9957, 21.59529
632.4778, 21.95707
632.9599, 22.12407
633.4420, 22.28307
633.9241, 22.71327
634.4063, 22.64377
634.8884, 23.06969
635.3705, 23.29780
635.8526, 23.61645
636.3347, 23.73910
636.8168, 23.92225
637.2990, 24.30157
637.7811, 24.57225
638.2632, 24.67230
638.7453, 24.99671
639.2274, 24.92031
639.7095, 25.19559
640.1917, 25.62270
640.6738, 25.73263
641.1559, 26.19214
641.6380, 26.62200
642.1201, 26.89361
642.6022, 27.13107
643.0844, 27.64881
643.5665, 28.78835
644.0486, 29.47486
644.5307, 29.32504
645.0128, 29.09501
645.4949, 29.18563
645.9771, 29.51854
646.4592, 29.87252
646.9413, 30.14901
647.4234, 30.40990
647.9055, 30.76917
648.3876, 31.22300
648.8698, 31.55471
649.3519, 31.66656
649.8340, 31.83755
650.3161, 32.26462
650.7982, 32.86470
651.2803, 33.48082
651.7625, 34.14053
652.2446, 34.71604
652.7267, 35.14640
653.2088, 35.47189
653.6909, 35.64132
654.1730, 35.72074
654.6552, 35.97709
655.1373, 36.58665
655.6194, 37.41198
656.1015, 38.09896
656.5836, 38.57874
657.0657, 39.09374
657.5479, 39.69048
658.0300, 40.29279
658.5121, 40.88831
658.9942, 41.46353
659.4763, 42.01980
659.9584, 42.60447
660.4406, 43.02119
660.9227, 42.95646
661.4048, 42.60140
661.8869, 42.40232
662.3690, 42.42271
662.8511, 42.75703
663.3333, 43.58489
663.8154, 44.71501
664.2975, 45.33740
664.7796, 45.19633
665.2617, 44.89074
665.7438, 44.04617
666.2260, 43.37337
666.7081, 43.53676
667.1902, 44.28005
667.6723, 44.87608
668.1544, 44.95139
668.6365, 44.70342
669.1187, 44.39634
669.6008, 44.03276
670.0829, 43.67897
670.5650, 43.36557
671.0471, 43.00948
671.5292, 42.53054
672.0114, 41.96087
672.4935, 41.44051
672.9756, 41.07394
673.4577, 40.57831
673.9398, 39.80087
674.4219, 38.90933
674.9041, 37.98159
675.3862, 37.08386
675.8683, 36.35962
676.3504, 35.90278
676.8325, 35.62860
677.3146, 35.38266
677.7968, 35.22038
678.2789, 34.79945
678.7610, 33.87610
679.2431, 32.94945
679.7252, 32.29855
680.2073, 31.85956
680.6895, 31.56717
681.1716, 31.58423
681.6537, 31.31208
682.1358, 29.99099
682.6179, 28.37016
683.1000, 27.59531
683.5822, 27.70912
684.0643, 28.00438
684.5464, 28.04427
685.0285, 27.89160
685.5106, 27.73541
685.9927, 27.65107
686.4749, 27.38702
686.9570, 26.56056
687.4391, 25.92974
687.9212, 26.14359
688.4033, 26.71756
688.8854, 26.67547
689.3676, 25.58221
689.8497, 24.39305
690.3318, 23.98828
690.8139, 24.05386
691.2960, 23.88621
691.7781, 23.42086
692.2603, 23.08211
692.7424, 23.17352
693.2245, 23.47555
693.7066, 23.38723
694.1887, 22.50512
694.6708, 22.05161
695.1530, 22.51473
695.6351, 22.87343
696.1172, 22.48069
696.5993, 21.68595
697.0814, 21.11076
697.5635, 20.97217
698.0457, 21.08109
698.5278, 21.43774
699.0099, 21.88402
699.4920, 21.81733
699.9741, 21.16479
700.4562, 20.56694
700.9384, 20.40348
701.4205, 20.44102
701.9026, 20.15506
702.3847, 19.28427
702.8668, 18.81138
703.3489, 18.17007
703.8311, 19.01603
704.3132, 19.47862
704.7953, 19.57843
705.2774, 18.22890
705.7595, 18.75089
706.2416, 18.52287
706.7238, 18.26407
707.2059, 19.04947
707.6880, 17.91075
708.1701, 18.67959
708.6522, 18.68696
709.1343, 19.04284
709.6164, 18.64407
710.0985, 18.47838
710.5806, 19.06758
711.0627, 19.23880
711.5449, 18.22090
712.0270, 18.11938
712.5091, 18.54697
712.9912, 19.08367
713.4733, 19.01838
713.9554, 18.26035
714.4376, 17.53558
714.9197, 17.60245
715.4018, 18.23829
715.8839, 18.56624
716.3660, 18.54918
716.8481, 18.47227
717.3303, 18.35290
717.8124, 18.30319
718.2945, 18.57575
718.7766, 19.12959
719.2587, 19.31604
719.7408, 18.84354
720.2230, 18.27317
720.7051, 17.66460
721.1872, 17.16842
721.6693, 16.95895
722.1514, 17.04973
722.6335, 17.37184
723.1157, 17.95340
723.5978, 18.58684
724.0799, 18.62689
724.5620, 18.00232
725.0441, 17.49743
725.5262, 17.18958
726.0084, 17.16698
726.4905, 17.74254
726.9726, 18.69342
727.4547, 19.12209
727.9368, 18.60621
728.4189, 18.15901
728.9011, 18.05728
729.3832, 18.17303
729.8653, 18.57899
730.3474, 19.10455
730.8295, 19.24496
731.3116, 18.68893
731.7938, 17.88403
732.2759, 17.64872
732.7580, 17.99342
733.2401, 18.22025
733.7222, 18.21868
734.2043, 18.25043
734.6865, 18.55017
735.1686, 18.94643
735.6507, 19.05442
736.1328, 18.78726
736.6149, 18.53526
737.0970, 18.31722
737.5792, 18.19465
738.0613, 18.27825
738.5434, 18.47218
739.0255, 18.60809
739.5076, 18.62483
739.9897, 18.54595
740.4719, 18.37087
740.9540, 18.11699
741.4361, 17.88782
741.9182, 17.66658
742.4003, 17.55625
742.8824, 17.57958
743.3646, 17.75087
743.8467, 18.20735
744.3288, 18.96035
744.8109, 19.35852
745.2930, 19.17407
745.7751, 18.83025
746.2573, 18.23116
746.7394, 17.71679
747.2215, 17.80022
747.7036, 18.45039
748.1857, 19.09017
748.6678, 19.27236
749.1500, 19.18372
749.6321, 19.25028
750.1142, 19.47202
750.5963, 19.60206
751.0784, 19.56925
751.5605, 19.50925
752.0427, 19.57820
752.5248, 19.71708
753.0069, 19.59815
753.4890, 18.97347
753.9711, 18.49996
754.4532, 18.26270
754.9354, 18.19869
755.4175, 18.32047
755.8996, 18.56924
756.3817, 18.85900
756.8638, 19.16021
757.3459, 19.40986
757.8281, 19.48905
758.3102, 19.45152
758.7923, 19.47728
759.2744, 19.58334
759.7565, 19.90316
760.2386, 20.08358
760.7208, 20.13208
761.2029, 19.65355
761.6850, 19.85556
762.1671, 19.78485
762.6492, 19.70294
763.1313, 19.39499
763.6135, 19.27457
764.0956, 19.26896
764.5777, 19.16168
765.0598, 19.55113
765.5419, 19.80117
766.0240, 19.91930
766.5062, 19.51042
766.9883, 19.78206
767.4704, 19.78097
767.9525, 19.76870
768.4346, 19.51011
768.9167, 19.32730
769.3989, 19.47810
769.8810, 19.88371
770.3631, 20.04120
770.8452, 19.69874
771.3273, 19.56819
771.8094, 19.98957
772.2916, 20.34136
772.7737, 20.19909
773.2558, 19.75644
773.7379, 19.43967
774.2200, 19.38085
774.7021, 19.39602
775.1843, 19.35233
775.6664, 19.31957
776.1485, 19.43447
776.6306, 19.66107
777.1127, 19.83489
777.5948, 19.88401
778.0770, 19.82269
778.5591, 19.65045
779.0412, 19.35794
779.5233, 19.13390
780.0054, 18.92392
780.4875, 18.90094
780.9697, 19.25037
781.4518, 19.71717
781.9339, 20.06708
782.4160, 20.30396
782.8981, 20.49744
783.3802, 20.71939
783.8624, 20.83892
784.3445, 20.66448
784.8266, 20.41773
785.3087, 20.43251
785.7908, 20.69649
786.2729, 20.92286
786.7551, 20.92419
787.2372, 20.76745
787.7193, 20.55558
788.2014, 20.29049
788.6835, 20.08431
789.1656, 19.96622
789.6478, 19.83550
790.1299, 19.56158
790.6120, 19.27854
791.0941, 19.36327
791.5762, 20.03285
792.0583, 20.40064
792.5404, 20.20206
793.0225, 19.92990
793.5046, 19.70182
793.9868, 19.59427
794.4689, 19.77627
794.9510, 20.23466
795.4331, 20.58881
795.9152, 20.51269
796.3973, 20.18418
796.8795, 19.76796
797.3616, 19.33171
797.8437, 19.27220
798.3258, 19.69771
798.8079, 20.26189
799.2900, 20.68736
799.7722, 20.97335
800.2543, 21.10584
800.7364, 21.08670
801.2185, 20.91107
801.7006, 20.37222
802.1827, 19.88235
802.6649, 19.66815
803.1470, 19.63021
803.6291, 19.55905
804.1112, 19.38165
804.5933, 19.34167
805.0754, 19.71045
805.5576, 20.15685
806.0397, 20.34466
806.5218, 20.33288
807.0039, 20.30537
807.4860, 20.32712
807.9681, 20.36486
808.4503, 20.39417
808.9324, 20.40467
809.4145, 20.32874
809.8966, 20.15291
810.3787, 19.96460
810.8608, 19.76167
811.3430, 19.59493
811.8251, 19.50001
812.3072, 19.48141
812.7893, 19.55304
813.2714, 19.87818
813.7535, 20.04852
814.2357, 19.82565
814.7178, 19.59617
815.1999, 19.60931
815.6820, 19.82869
816.1641, 20.23611
816.6462, 20.83494
817.1284, 21.16309
817.6105, 20.43433
818.0926, 19.29339
818.5747, 19.13457
819.0568, 19.83563
819.5389, 20.36005
820.0211, 20.34442
820.5032, 20.07233
820.9853, 19.85778
821.4674, 19.69207
821.9495, 19.42948
822.4316, 18.93469
822.9138, 18.63572
823.3959, 18.72235
823.8780, 18.91459
824.3601, 19.03366
824.8422, 19.11256
825.3243, 19.26466
825.8065, 19.60196
826.2886, 19.78199
826.7707, 19.41855
827.2528, 19.05774
827.7349, 19.31214
828.2170, 19.94188
828.6992, 20.35704
829.1813, 20.35198
829.6634, 20.14198
830.1455, 19.85181
830.6276, 19.56529
831.1097, 19.63690
831.5919, 20.05864
832.0740, 20.39891
832.5561, 20.54416
833.0382, 20.52835
833.5203, 20.34587
834.0024, 20.03053
834.4846, 19.83313
834.9667, 19.77875
835.4488, 19.80772
835.9309, 20.08622
836.4130, 20.26789
836.8951, 20.07827
837.3773, 19.69788
837.8594, 19.45734
838.3415, 19.43827
838.8236, 19.46911
839.3057, 19.46661
839.7878, 19.46894
840.2700, 19.57475
840.7521, 19.70098
841.2342, 19.58293
841.7163, 19.19883
842.1984, 18.95612
842.6805, 19.28553
843.1627, 19.96020
843.6448, 20.31009
844.1269, 20.32882
844.6090, 20.18493
845.0911, 19.84943
845.5732, 19.55293
846.0554, 19.44201
846.5375, 19.49565
847.0196, 19.67052
847.5017, 20.08133
847.9838, 20.34692
848.4659, 20.43622
848.9481, 20.42295
849.4302, 20.31625
849.9123, 20.13318
850.3944, 19.82781
850.8765, 19.42438
851.3586, 19.16482
851.8408, 19.25880
852.3229, 19.45695
852.8050, 19.50195
853.2871, 19.52283
853.7692, 19.86975
854.2513, 20.48294
854.7335, 20.78499
855.2156, 20.37591
855.6977, 19.69787
856.1798, 19.64174
856.6619, 20.18087
857.1440, 20.50373
857.6262, 20.57500
858.1083, 20.37656
858.5904, 19.77197
859.0725, 19.09950
859.5546, 18.82922
860.0367, 18.98920
860.5189, 19.23700
861.0010, 19.82180
861.4831, 20.15232
861.9652, 19.93965
862.4473, 19.61142
862.9294, 19.50922
863.4116, 19.56443
863.8937, 19.51578
864.3758, 19.26591
864.8579, 18.95961
865.3400, 18.56754
865.8221, 18.25532
866.3043, 18.27748
866.7864, 18.53842
867.2685, 18.78105
867.7506, 18.91256
868.2327, 18.96317
868.7148, 18.91782
869.1970, 18.84573
869.6791, 19.03632
870.1612, 19.48938
870.6433, 19.81547
871.1254, 19.93133
871.6075, 19.91903
872.0897, 19.82063
872.5718, 19.65730
873.0539, 19.49810
873.5360, 19.35477
874.0181, 19.18884
874.5002, 18.93273
874.9823, 18.73471
875.4644, 18.74320
875.9465, 18.77508
876.4286, 18.51092
876.9108, 17.96434
877.3929, 17.73930
877.8750, 18.33693
878.3571, 18.96502
878.8392, 19.22732
879.3214, 19.24942
879.8035, 19.10556
880.2856, 18.87173
880.7677, 18.69004
881.2498, 18.63018
881.7319, 18.66462
882.2141, 18.80924
882.6962, 19.01299
883.1783, 19.11784
883.6604, 19.12317
884.1425, 19.10229
884.6246, 19.08503
885.1068, 19.00048
885.5889, 18.75098
886.0710, 18.36862
886.5531, 18.10802
887.0352, 17.98187
887.5173, 17.94920
887.9995, 18.08302
888.4816, 18.19786
888.9637, 18.11878
889.4458, 17.96050
889.9279, 17.97791
890.4100, 18.24366
890.8922, 18.40299
891.3743, 18.39487
891.8564, 18.28367
892.3385, 17.99342
892.8206, 17.68218
893.3027, 17.51356
893.7849, 17.50270
894.2670, 17.59333
894.7491, 17.77438
895.2312, 18.00987
895.7133, 18.33909
896.1954, 18.66376
896.6776, 18.86708
897.1597, 18.91026
897.6418, 18.65277
898.1239, 18.04311
898.6060, 17.40396
899.0881, 17.15859
899.5703, 17.23268
900.0524, 17.22921
900.5345, 17.14286
901.0166, 17.08415
901.4987, 17.08046
901.9808, 17.10456
902.4630, 17.14202
902.9451, 17.18499
903.4272, 17.20825
903.9093, 17.22771
904.3914, 17.18980
904.8735, 17.05681
905.3557, 16.91253
905.8378, 16.73307
906.3199, 16.59158
906.8020, 16.66936
907.2841, 16.93854
907.7662, 16.79924
908.2484, 17.07826
908.7305, 17.21788
909.2126, 17.22558
909.6947, 16.70625
910.1768, 16.86747
910.6589, 16.75596
911.1411, 16.63325
911.6232, 16.89025
912.1053, 16.44758
912.5874, 16.90000
913.0695, 17.40767
913.5516, 17.25766
914.0338, 16.66469
914.5159, 16.38859
914.9980, 16.57534
915.4801, 16.68062
915.9622, 16.23076
916.4443, 15.56935
916.9265, 15.63559
917.4086, 16.42610
917.8907, 16.73985
918.3728, 16.41106
918.8549, 16.08511
919.3370, 16.05651
919.8192, 16.15235
920.3013, 16.11564
920.7834, 15.93824
921.2655, 15.97483
921.7476, 16.42879
922.2297, 16.74521
922.7119, 16.81059
923.1940, 16.75350
923.6761, 16.53813
924.1582, 16.27881
924.6403, 16.25026
925.1224, 16.56911
925.6046, 16.70234
926.0867, 16.27873
926.5688, 15.90869
927.0509, 15.96194
927.5330, 16.21891
928.0151, 16.46991
928.4973, 16.65374
928.9794, 16.72446
929.4615, 16.65550
929.9436, 16.47755
930.4257, 16.10105
930.9078, 15.70013
931.3900, 15.50891
931.8721, 15.53086
932.3542, 15.78025
932.8363, 16.23274
933.3184, 16.60446
933.8005, 16.56492
934.2827, 16.28865
934.7648, 16.28325
935.2469, 16.50893
935.7290, 16.54442
936.2111, 16.31299
936.6932, 16.13581
937.1754, 16.22060
937.6575, 16.40239
938.1396, 16.36050
938.6217, 16.06725
939.1038, 15.88748
939.5859, 15.80048
940.0681, 15.89920
940.5502, 16.35829
941.0323, 16.80388
941.5144, 16.91001
941.9965, 16.74132
942.4786, 16.56295
942.9608, 16.34155
943.4429, 16.17857
943.9250, 16.00575
944.4071, 15.97659
944.8892, 16.35220
945.3713, 16.77554
945.8535, 16.75422
946.3356, 16.32482
946.8177, 16.08670
947.2998, 16.45562
947.7819, 16.71173
948.2640, 16.31839
948.7462, 15.81634
949.2283, 15.71403
949.7104, 15.91158
950.1925, 16.16094
950.6746, 16.36923
951.1567, 16.41593
951.6389, 16.06580
952.1210, 15.62924
952.6031, 15.49694
953.0852, 15.58693
953.5673, 15.73615
954.0494, 15.91585
954.5316, 16.20769
955.0137, 16.66912
955.4958, 16.98878
955.9779, 16.23274
956.4600, 16.52979
956.9421, 16.68744
957.4242, 16.71317
957.9063, 16.21187
958.3884, 16.39112
958.8705, 16.29763
959.3527, 16.19296
959.8348, 16.46799
960.3169, 16.04335
960.7990, 16.31236
961.2811, 16.54719
961.7632, 16.03475
962.2454, 15.86689
962.7275, 16.70969
963.2096, 17.63020
963.6917, 17.48300
964.1738, 16.39809
964.6559, 15.82597
965.1381, 16.13280
965.6202, 16.36594
966.1023, 16.56049
966.5844, 16.60654
967.0665, 16.32034
967.5486, 15.93245
968.0308, 15.76947
968.5129, 15.84960
968.9950, 15.88716
969.4771, 15.71290
969.9592, 15.63341
970.4413, 15.72202
970.9235, 15.97237
971.4056, 16.61996
971.8877, 17.35261
972.3698, 17.47428
972.8519, 16.79586
973.3340, 16.20728
973.8162, 16.28436
974.2983, 16.57727
974.7804, 16.81258
975.2625, 16.97805
975.7446, 17.04778
976.2267, 17.04108
976.7089, 17.02523
977.1910, 17.03255
977.6731, 17.01966
978.1552, 16.94358
978.6373, 16.81652
979.1194, 16.57178
979.6016, 16.29915
980.0837, 16.36865
980.5658, 16.79855
981.0479, 17.08357
981.5300, 16.86498
982.0121, 16.41935
982.4943, 16.18805
982.9764, 16.16176
983.4585, 16.36708
983.9406, 16.78902
984.4227, 17.05626
984.9048, 17.05322
985.3870, 16.80013
985.8691, 16.23073
986.3512, 15.58230
986.8333, 15.78650
987.3154, 17.02408
987.7975, 17.53587
988.2797, 17.04015
988.7618, 16.61313
989.2439, 16.73887
989.7260, 16.97961
990.2081, 16.80501
990.6902, 16.27191
991.1724, 15.91631
991.6545, 15.78952
992.1366, 15.72198
992.6187, 15.70244
993.1008, 15.74600
993.5829, 15.95460
994.0651, 16.16461
994.5472, 16.06100
995.0293, 15.63333
995.5114, 15.54291
995.9935, 16.26345
996.4756, 16.64200
996.9578, 16.22935
997.4399, 15.75594
997.9220, 15.60760
998.4041, 15.67536
998.8862, 15.77537
999.3683, 15.88620
999.8505, 16.05003
1000.333, 16.30896
1000.815, 16.58012
1001.297, 16.98819
1001.779, 17.25537
1002.261, 16.97770
1002.743, 16.43307
1003.225, 16.26031
1003.707, 16.62201
1004.190, 16.83306
1004.672, 16.30082
1005.154, 15.79034
1005.636, 15.95287
1006.118, 16.32390
1006.600, 16.30699
1007.082, 15.97999
1007.564, 15.73971
1008.046, 15.72990
1008.529, 15.84477
1009.011, 16.06456
1009.493, 16.30962
1009.975, 16.51829
1010.457, 16.67609
1010.939, 16.74770
1011.421, 16.74282
1011.903, 16.67896
1012.385, 16.55928
1012.868, 16.55066
1013.350, 17.14030
1013.832, 17.79350
1014.314, 16.42492
1014.796, 16.80138
1015.278, 17.03843
1015.760, 17.14357
1016.242, 16.72167
1016.725, 16.98044
1017.207, 16.96636
1017.689, 16.94110
1018.171, 17.19611
1018.653, 17.15709
1019.135, 17.45715
1019.617, 17.70315
1020.099, 17.80760
1020.581, 17.88662
1021.064, 18.02224
1021.546, 18.16428
1022.028, 18.19918
1022.510, 18.14099
1022.992, 18.13894
1023.474, 18.19266
1023.956, 18.44483
1024.438, 18.71056
1024.921, 19.02053
1025.403, 19.19112
1025.885, 19.22979
1026.367, 18.74142
1026.849, 18.93361
1027.331, 18.85306
1027.813, 18.76133
1028.295, 19.04930
1028.777, 18.63759
1029.260, 18.91952
1029.742, 18.97083
1030.224, 18.78688
1030.706, 18.59174
1031.188, 18.77633
1031.670, 18.26122
1032.152, 18.43979
1032.634, 18.04150
1033.116, 18.23628
1033.599, 18.35815
1034.081, 18.04129
1034.563, 17.48627
1035.045, 17.37133
1035.527, 17.97870
1036.009, 17.73046
1036.491, 17.91459
1036.973, 17.95928
1037.456, 17.87177
1037.938, 17.25755
1038.420, 17.32383
1038.902, 17.11741
1039.384, 16.89977
1039.866, 17.06187
1040.348, 16.52425
1040.830, 16.68033
1041.313, 16.31106
1041.795, 16.52107
1042.277, 16.59169
1042.759, 16.53036
1043.241, 15.94203
1043.723, 16.03422
1044.205, 15.85370
1044.687, 15.66197
1045.169, 15.48912
1045.651, 15.29381
1046.134, 15.09192
1046.616, 15.01127
1047.098, 15.35483
1047.580, 15.88907
1048.062, 15.87818
1048.544, 15.01332
1049.026, 14.46925
1049.508, 14.60707
1049.991, 14.81813
1050.473, 14.94376
1050.955, 15.02227
1051.437, 15.18152
1051.919, 15.31287
1052.401, 15.04869
1052.883, 14.16360
1053.365, 13.67842
1053.848, 14.16984
1054.330, 14.63407
1054.812, 14.71068
1055.294, 14.57959
1055.776, 14.25276
1056.258, 13.88464
1056.740, 13.87422
1057.222, 14.38332
1057.704, 14.63013
1058.187, 14.12752
1058.669, 13.66027
1059.151, 13.65362
1059.633, 13.74324
1060.115, 13.51407
1060.597, 13.14069
1061.079, 13.09870
1061.561, 13.51395
1062.043, 13.88127
1062.526, 14.14986
1063.008, 14.17980
1063.490, 13.66221
1063.972, 13.09828
1064.454, 12.92107
1064.936, 13.04604
1065.418, 13.26771
1065.900, 13.54575
1066.383, 13.73227
1066.865, 13.76130
1067.347, 13.69782
1067.829, 13.47601
1068.311, 13.26179
1068.793, 13.21168
1069.275, 13.27267
1069.757, 13.33694
1070.240, 13.38108
1070.722, 13.40500
1071.204, 13.36572
1071.686, 13.36249
1072.168, 13.56889
1072.650, 13.71013
1073.132, 13.47753
1073.614, 13.05158
1074.096, 12.72901
1074.578, 12.56997
1075.061, 12.54281
1075.543, 12.80823
1076.025, 12.92830
1076.507, 12.55049
1076.989, 12.08535
1077.471, 11.78018
1077.953, 11.64634
1078.435, 11.69616
1078.918, 11.90363
1079.400, 12.14953
1079.882, 12.48930
1080.364, 12.64732
1080.846, 12.32925
1081.328, 11.95372
1081.810, 11.80602
1082.292, 11.80305
1082.774, 11.86976
1083.257, 11.95105
1083.739, 11.86314
1084.221, 11.39480
1084.703, 11.20811
1085.185, 11.61869
1085.667, 11.88299
1086.149, 12.00786
1086.631, 12.00083
1087.114, 11.46665
1087.596, 11.61314
1088.078, 11.48689
1088.560, 11.34945
1089.042, 11.59173
1089.524, 11.13431
1090.006, 11.28070
1090.488, 11.62157
1090.970, 12.00637
1091.453, 11.96384
1091.935, 11.63898
1092.417, 11.50327
1092.899, 11.68755
1093.381, 11.81203
1093.863, 11.63956
1094.345, 11.50052
1094.827, 11.60611
1095.309, 11.75560
1095.792, 11.82309
1096.274, 11.78503
1096.756, 11.57137
1097.238, 11.17378
1097.720, 10.92734
1098.202, 11.02091
1098.684, 11.16396
1099.166, 11.34928
1099.649, 11.45773
1100.131, 11.34669
1100.613, 11.13865
1101.095, 10.95286
1101.577, 10.82811
1102.059, 10.96616
1102.541, 11.77276
1103.023, 12.25973
1103.505, 12.01843
1103.988, 11.60489
1104.470, 11.12118
1104.952, 10.76412
1105.434, 10.86728
1105.916, 11.31856
1106.398, 11.50124
1106.880, 11.25009
1107.362, 10.90267
1107.844, 10.15967
1108.327, 9.776689
1108.809, 10.52643
1109.291, 11.33434
1109.773, 11.03271
1110.255, 10.02371
1110.737, 9.584385
1111.219, 9.932192
1111.701, 10.32971
1112.184, 11.00445
1112.666, 11.33318
1113.148, 10.77633
1113.630, 10.24392
1114.112, 10.49017
1114.594, 11.10308
1115.076, 11.27048
1115.558, 10.92314
1116.041, 10.82905
1116.523, 11.39349
1117.005, 11.49765
1117.487, 10.52574
1117.969, 9.797987
1118.451, 10.10898
1118.933, 10.84068
1119.415, 11.22616
1119.897, 11.29382
1120.380, 11.37879
1120.862, 11.50587
1121.344, 11.58540
1121.826, 11.59252
1122.308, 11.61369
1122.790, 11.75859
1123.272, 11.77665
1123.754, 11.35367
1124.236, 10.66769
1124.719, 10.33656
1125.201, 10.42597
1125.683, 10.52106
1126.165, 10.61014
1126.647, 10.76009
1127.129, 11.00912
1127.611, 11.26533
1128.093, 11.50865
1128.576, 11.60606
1129.058, 11.20131
1129.540, 10.34801
1130.022, 10.35860
1130.504, 11.34966
1130.986, 11.74395
1131.468, 11.24044
1131.950, 10.89381
1132.432, 11.26132
1132.915, 11.64357
1133.397, 11.11182
1133.879, 10.02074
1134.361, 9.658930
1134.843, 9.970757
1135.325, 10.40655
1135.807, 10.90518
1136.289, 11.17478
1136.771, 11.12546
1137.254, 11.02059
1137.736, 11.07395
1138.218, 11.19334
1138.700, 11.19299
1139.182, 11.12270
1139.664, 11.18860
1140.146, 11.34372
1140.628, 11.38483
1141.111, 11.26924
1141.593, 10.97085
1142.075, 10.46810
1142.557, 10.06093
1143.039, 10.16952
1143.521, 10.52592
1144.003, 10.65233
1144.485, 10.69593
1144.968, 11.11946
1145.450, 11.74406
1145.932, 11.78527
1146.414, 11.06760
1146.896, 10.43771
1147.378, 10.54972
1147.860, 10.86538
1148.342, 10.92837
1148.824, 10.85540
1149.307, 10.74937
1149.789, 10.62676
1150.271, 10.37629
1150.753, 10.09738
1151.235, 10.29181
1151.717, 11.30503
1152.199, 12.12590
1152.681, 12.24784
1153.163, 11.90724
1153.646, 10.60830
1154.128, 9.459567
1154.610, 9.978458
1155.092, 11.48352
1155.574, 12.18874
1156.056, 11.73635
1156.538, 11.35038
1157.020, 11.47206
1157.503, 11.57943
1157.985, 11.53146
1158.467, 11.41690
1158.949, 11.22130
1159.431, 11.03459
1159.913, 10.98380
1160.395, 11.05707
1160.877, 11.13027
1161.359, 11.35710
1161.842, 11.24916
1162.324, 10.40616
1162.806, 9.835224
1163.288, 9.877592
1163.770, 10.19112
1164.252, 10.60921
1164.734, 11.05851
1165.216, 11.39423
1165.698, 11.62526
1166.181, 11.56646
1166.663, 11.07439
1167.145, 10.87620
1167.627, 11.19661
1168.109, 11.30006
1168.591, 10.73335
1169.073, 10.17296
1169.555, 10.45507
1170.037, 11.31312
1170.520, 11.77587
1171.002, 11.84804
1171.484, 11.69352
1171.966, 11.33135
1172.448, 11.19720
1172.930, 11.40189
1173.412, 11.54657
1173.894, 11.35185
1174.377, 11.07026
1174.859, 11.13721
1175.341, 11.38604
1175.823, 11.35934
1176.305, 11.11909
1176.787, 10.76843
1177.269, 10.38674
1177.751, 10.19582
1178.234, 10.27190
1178.716, 10.54496
1179.198, 11.06400
1179.680, 11.52754
1180.162, 11.62463
1180.644, 11.45719
1181.126, 10.94991
1181.608, 10.37868
1182.090, 10.26846
1182.573, 10.57907
1183.055, 10.83049
1183.537, 10.84027
1184.019, 10.81099
1184.501, 10.71585
1184.983, 10.77719
1185.465, 11.41274
1185.947, 11.98055
1186.429, 11.74710
1186.912, 11.12681
1187.394, 10.96555
1187.876, 11.32614
1188.358, 11.47726
1188.840, 10.93904
1189.322, 10.76727
1189.804, 11.42006
1190.286, 11.99536
1190.769, 12.22515
1191.251, 12.20349
1191.733, 11.88335
1192.215, 11.43150
1192.697, 11.30772
1193.179, 11.56786
1193.661, 11.64705
1194.143, 11.42965
1194.625, 11.53174
1195.108, 12.17884
1195.590, 12.54934
1196.072, 12.19315
1196.554, 11.62905
1197.036, 11.45626
1197.518, 11.53768
1198.000, 11.39962
1198.482, 11.09301
1198.964, 11.18503
1199.447, 11.61627
1199.929, 11.65727
1200.411, 11.17446
1200.893, 10.56556
1201.375, 10.04801
1201.857, 9.851759
1202.339, 10.47215
1202.821, 11.37449
1203.304, 11.67350
1203.786, 11.62947
1204.268, 11.69086
1204.750, 11.82992
1205.232, 11.80305
1205.714, 11.59107
1206.196, 11.46750
1206.678, 11.57773
1207.161, 11.78377
1207.643, 12.27711
1208.125, 12.51837
1208.607, 11.77950
1209.089, 10.88879
1209.571, 10.87466
1210.053, 11.39124
1210.535, 11.35276
1211.017, 10.55329
1211.500, 10.30713
1211.982, 11.45431
1212.464, 12.16096
1212.946, 11.89114
1213.428, 11.52626
1213.910, 11.34799
1214.392, 11.25255
1214.874, 11.08563
1215.356, 10.96499
1215.839, 11.34298
1216.321, 12.34735
1216.803, 12.52286
1217.285, 11.71244
1217.767, 11.10163
1218.249, 10.88790
1218.731, 10.92915
1219.213, 11.17641
1219.696, 11.46107
1220.178, 11.58110
1220.660, 11.64498
1221.142, 12.00917
1221.624, 12.50973
1222.106, 12.56920
1222.588, 12.25456
1223.070, 11.80374
1223.552, 11.33250
1224.035, 11.09414
1224.517, 11.20749
1224.999, 11.40692
1225.481, 11.51748
1225.963, 11.55768
1226.445, 11.41027
1226.927, 11.31910
1227.409, 11.69590
1227.891, 12.23552
1228.374, 12.38909
1228.856, 12.15519
1229.338, 11.96221
1229.820, 11.90463
1230.302, 11.93771
1230.784, 12.31209
1231.266, 12.41472
1231.748, 11.84589
1232.231, 11.17199
1232.713, 10.61778
1233.195, 10.27589
1233.677, 10.34871
1234.159, 10.77555
1234.641, 10.99421
1235.123, 10.93149
1235.605, 11.05620
1236.088, 11.45173
1236.570, 11.54110
1237.052, 11.12981
1237.534, 10.87717
1238.016, 11.23277
1238.498, 11.74611
1238.980, 11.73881
1239.462, 11.44890
1239.944, 11.58854
1240.427, 11.96970
1240.909, 11.99313
1241.391, 11.73099
1241.873, 11.57072
1242.355, 11.60638
1242.837, 11.75335
1243.319, 11.98944
1243.801, 12.16726
1244.283, 12.14370
1244.766, 12.05870
1245.248, 12.06454
1245.730, 12.02042
1246.212, 11.62083
1246.694, 11.15023
1247.176, 11.16768
1247.658, 11.67837
1248.140, 12.09761
1248.622, 12.53831
1249.105, 12.44922
1249.587, 11.13345
1250.069, 10.41735
1250.551, 11.13737
1251.033, 11.76863
1251.515, 11.17143
1251.997, 10.31182
1252.479, 10.76104
1252.962, 12.17125
1253.444, 12.48957
1253.926, 11.74021
1254.408, 11.11678
1254.890, 10.69067
1255.372, 10.41439
1255.854, 10.28622
1256.336, 10.46746
1256.818, 11.05939
1257.301, 11.66621
1257.783, 11.86078
1258.265, 11.81081
1258.747, 11.71146
1259.229, 11.53191
1259.711, 11.09838
1260.193, 10.61324
1260.675, 10.47166
1261.157, 10.67242
1261.640, 10.92631
1262.122, 11.19243
1262.604, 11.27156
1263.086, 11.00195
1263.568, 10.67655
1264.050, 10.12967
1264.532, 9.857691
1265.014, 10.33974
1265.497, 11.06658
1265.979, 11.47077
1266.461, 11.61773
1266.943, 11.79920
1267.425, 12.05626
1267.907, 11.98307
1268.389, 11.53766
1268.871, 11.21678
1269.354, 11.10853
1269.836, 11.10193
1270.318, 11.14674
1270.800, 11.24180
1271.282, 11.40583
1271.764, 11.55876
1272.246, 11.51938
1272.728, 11.41610
1273.210, 11.37240
1273.693, 11.49183
1274.175, 12.19056
1274.657, 13.18301
1275.139, 13.48833
1275.621, 12.87249
1276.103, 12.33875
1276.585, 12.38962
1277.067, 12.44834
1277.549, 12.24887
1278.032, 12.10909
1278.514, 12.32463
1278.996, 12.52296
1279.478, 12.30008
1279.960, 11.90062
1280.442, 11.83724
1280.924, 12.09213
1281.406, 12.03142
1281.889, 11.58500
1282.371, 11.37477
1282.853, 11.45115
1283.335, 11.62476
1283.817, 11.84327
1284.299, 12.27643
1284.781, 13.06280
1285.263, 13.61884
1285.745, 13.34561
1286.228, 12.23952
##END=



