##NAMES=Chapmanite
##RRUFFID=R060910
##IDEAL CHEMISTRY=Fe^3+^_2_Sb^3+^(SiO_4_)_2_(OH)
##LOCALITY=Cobalt, Ontario, Canada
##OWNER=RRUFF
##SOURCE=Royal Ontario Museum
##DESCRIPTION=Greenish yellow massive
##STATUS=The identification of this mineral has been confirmed by X-ray diffraction.
##URL=rruff.info/R060910
168.7749, 13852.18
169.2570, 14021.78
169.7391, 14268.61
170.2212, 14530.09
170.7033, 14750.08
171.1854, 14930.70
171.6676, 15101.82
172.1497, 15270.91
172.6318, 15431.09
173.1139, 15578.76
173.5960, 15716.14
174.0781, 15827.99
174.5603, 15903.17
175.0424, 15942.90
175.5245, 15927.61
176.0066, 15819.13
176.4887, 15665.83
176.9708, 15526.36
177.4530, 15405.22
177.9351, 15304.71
178.4172, 15235.17
178.8993, 15190.69
179.3814, 15151.70
179.8635, 15110.86
180.3457, 15073.32
180.8278, 15040.64
181.3099, 15008.57
181.7920, 14999.26
182.2741, 15042.16
182.7562, 15127.25
183.2384, 15232.24
183.7205, 15369.28
184.2026, 15516.52
184.6847, 15642.69
185.1668, 15743.61
185.6489, 15823.65
186.1311, 15889.36
186.6132, 15939.63
187.0953, 15956.04
187.5774, 15939.94
188.0595, 15884.44
188.5416, 15770.84
189.0238, 15587.58
189.5059, 15378.62
189.9880, 15171.27
190.4701, 14965.46
190.9522, 14763.79
191.4343, 14549.92
191.9165, 14344.86
192.3986, 14183.27
192.8807, 14069.47
193.3628, 13990.54
193.8449, 13952.14
194.3270, 13942.25
194.8092, 13934.45
195.2913, 13921.09
195.7734, 13904.58
196.2555, 13886.80
196.7376, 13865.89
197.2197, 13850.93
197.7019, 13852.96
198.1840, 13866.68
198.6661, 13881.47
199.1482, 13888.02
199.6303, 13895.85
200.1124, 13923.70
200.5946, 13977.24
201.0767, 14030.67
201.5588, 14059.41
202.0409, 14073.48
202.5230, 14092.78
203.0051, 14124.62
203.4873, 14163.96
203.9694, 14207.93
204.4515, 14259.53
204.9336, 14300.44
205.4157, 14294.18
205.8978, 14268.58
206.3800, 14281.26
206.8621, 14385.05
207.3442, 14515.52
207.8263, 14582.68
208.3084, 14578.45
208.7905, 14564.58
209.2727, 14583.16
209.7548, 14618.60
210.2369, 14641.25
210.7190, 14634.52
211.2011, 14619.55
211.6832, 14618.97
212.1654, 14633.33
212.6475, 14655.96
213.1296, 14677.80
213.6117, 14707.54
214.0938, 14762.28
214.5759, 14858.72
215.0581, 14967.80
215.5402, 15057.00
216.0223, 15125.49
216.5044, 15208.13
216.9865, 15336.68
217.4686, 15486.95
217.9508, 15615.58
218.4329, 15717.86
218.9150, 15798.12
219.3971, 15851.51
219.8792, 15879.84
220.3613, 15914.80
220.8435, 15997.22
221.3256, 16077.86
221.8077, 16070.37
222.2898, 15938.82
222.7719, 15775.63
223.2540, 15637.60
223.7362, 15522.35
224.2183, 15416.91
224.7004, 15317.16
225.1825, 15224.80
225.6646, 15142.89
226.1467, 15073.40
226.6289, 15007.81
227.1110, 14938.58
227.5931, 14868.28
228.0752, 14808.88
228.5573, 14769.18
229.0394, 14736.84
229.5216, 14688.42
230.0037, 14617.38
230.4858, 14555.70
230.9679, 14523.32
231.4500, 14511.08
231.9321, 14497.04
232.4143, 14474.99
232.8964, 14448.93
233.3785, 14423.33
233.8606, 14397.17
234.3427, 14376.13
234.8248, 14356.02
235.3070, 14343.39
235.7891, 14354.50
236.2712, 14397.17
236.7533, 14447.48
237.2354, 14471.72
237.7175, 14468.65
238.1997, 14466.01
238.6818, 14466.52
239.1639, 14471.45
239.6460, 14488.76
240.1281, 14521.05
240.6102, 14544.41
241.0924, 14524.05
241.5745, 14452.99
242.0566, 14416.80
242.5387, 14451.49
243.0208, 14505.52
243.5029, 14534.67
243.9851, 14534.90
244.4672, 14523.99
244.9493, 14514.96
245.4314, 14508.26
245.9135, 14509.42
246.3956, 14518.25
246.8778, 14534.94
247.3599, 14561.42
247.8420, 14596.74
248.3241, 14636.75
248.8062, 14680.38
249.2883, 14726.80
249.7705, 14762.32
250.2526, 14769.03
250.7347, 14783.84
251.2168, 14830.49
251.6989, 14898.69
252.1810, 14959.39
252.6632, 14992.90
253.1453, 15006.07
253.6274, 15042.31
254.1095, 15124.66
254.5916, 15199.94
255.0737, 15254.75
255.5559, 15294.30
256.0380, 15329.99
256.5201, 15367.89
257.0022, 15400.43
257.4843, 15405.28
257.9665, 15353.21
258.4486, 15307.18
258.9307, 15277.28
259.4128, 15252.06
259.8949, 15216.51
260.3770, 15165.92
260.8592, 15111.70
261.3413, 15075.68
261.8234, 15083.95
262.3055, 15066.89
262.7876, 15006.18
263.2697, 14935.05
263.7519, 14874.78
264.2340, 14831.14
264.7161, 14801.42
265.1982, 14781.68
265.6803, 14768.32
266.1624, 14777.94
266.6446, 14846.46
267.1267, 14904.57
267.6088, 14906.84
268.0909, 14860.69
268.5730, 14808.66
269.0551, 14789.72
269.5373, 14805.88
270.0194, 14826.67
270.5015, 14854.53
270.9836, 14885.33
271.4657, 14927.31
271.9478, 14971.52
272.4300, 14998.77
272.9121, 14992.11
273.3942, 14958.99
273.8763, 14942.09
274.3584, 14945.07
274.8405, 14961.24
275.3227, 15003.42
275.8048, 15051.42
276.2869, 15075.87
276.7690, 15057.98
277.2511, 15020.27
277.7332, 15012.43
278.2154, 15044.26
278.6975, 15079.28
279.1796, 15121.82
279.6617, 15154.93
280.1438, 15158.09
280.6259, 15123.08
281.1081, 15076.02
281.5902, 15045.32
282.0723, 15031.50
282.5544, 15025.96
283.0365, 15033.87
283.5186, 15043.98
284.0008, 15045.85
284.4829, 15038.67
284.9650, 15032.24
285.4471, 15041.29
285.9292, 15059.84
286.4113, 15054.10
286.8935, 15005.78
287.3756, 14953.37
287.8577, 14936.37
288.3398, 14949.37
288.8219, 14957.37
289.3040, 14946.91
289.7862, 14922.89
290.2683, 14884.39
290.7504, 14825.92
291.2325, 14785.47
291.7146, 14808.83
292.1967, 14879.96
292.6789, 14928.98
293.1610, 14933.16
293.6431, 14921.04
294.1252, 14910.83
294.6073, 14903.75
295.0894, 14906.10
295.5716, 14926.56
296.0537, 14957.64
296.5358, 14968.23
297.0179, 14933.88
297.5000, 14907.84
297.9821, 14909.91
298.4643, 14935.46
298.9464, 14980.33
299.4285, 15045.86
299.9106, 15117.80
300.3927, 15163.47
300.8748, 15160.87
301.3570, 15169.66
301.8391, 15208.27
302.3212, 15254.75
302.8033, 15283.83
303.2854, 15290.33
303.7675, 15291.13
304.2497, 15308.40
304.7318, 15347.83
305.2139, 15388.05
305.6960, 15434.72
306.1781, 15477.81
306.6602, 15508.34
307.1424, 15528.81
307.6245, 15549.38
308.1066, 15577.48
308.5887, 15613.09
309.0708, 15661.83
309.5529, 15746.24
310.0351, 15820.63
310.5172, 15882.79
310.9993, 15925.96
311.4814, 15936.63
311.9635, 15903.90
312.4456, 15844.65
312.9278, 15808.11
313.4099, 15800.67
313.8920, 15806.02
314.3741, 15840.38
314.8562, 15873.93
315.3383, 15880.69
315.8205, 15853.37
316.3026, 15801.76
316.7847, 15729.29
317.2668, 15631.68
317.7489, 15550.87
318.2310, 15503.35
318.7132, 15466.76
319.1953, 15423.73
319.6774, 15375.27
320.1595, 15335.73
320.6416, 15318.79
321.1237, 15318.97
321.6059, 15314.76
322.0880, 15297.89
322.5701, 15291.21
323.0522, 15322.26
323.5343, 15376.96
324.0164, 15421.40
324.4986, 15438.15
324.9807, 15444.58
325.4628, 15457.46
325.9449, 15476.81
326.4270, 15503.83
326.9091, 15542.54
327.3913, 15588.17
327.8734, 15626.32
328.3555, 15657.12
328.8376, 15680.77
329.3197, 15693.19
329.8018, 15698.90
330.2840, 15709.89
330.7661, 15732.00
331.2482, 15753.40
331.7303, 15749.92
332.2124, 15697.09
332.6945, 15680.98
333.1767, 15740.58
333.6588, 15818.27
334.1409, 15863.12
334.6230, 15870.09
335.1051, 15868.25
335.5872, 15887.48
336.0694, 15932.50
336.5515, 15956.85
337.0336, 15934.07
337.5157, 15920.98
337.9978, 15944.89
338.4799, 15993.35
338.9621, 16038.76
339.4442, 16064.10
339.9263, 16076.59
340.4084, 16102.37
340.8905, 16142.18
341.3727, 16196.05
341.8548, 16278.27
342.3369, 16364.47
342.8190, 16429.63
343.3011, 16467.27
343.7832, 16496.08
344.2654, 16540.52
344.7475, 16602.67
345.2296, 16664.38
345.7117, 16745.77
346.1938, 16803.15
346.6759, 16799.24
347.1581, 16743.50
347.6402, 16685.51
348.1223, 16661.06
348.6044, 16656.15
349.0865, 16628.96
349.5686, 16570.86
350.0508, 16516.10
350.5329, 16496.94
351.0150, 16495.08
351.4971, 16474.38
351.9792, 16419.07
352.4613, 16354.17
352.9435, 16298.99
353.4256, 16251.61
353.9077, 16201.04
354.3898, 16141.63
354.8719, 16079.36
355.3540, 16027.37
355.8362, 15987.51
356.3183, 15950.14
356.8004, 15914.88
357.2825, 15880.54
357.7646, 15844.58
358.2467, 15806.82
358.7289, 15772.95
359.2110, 15750.72
359.6931, 15744.44
360.1752, 15721.35
360.6573, 15673.28
361.1394, 15619.80
361.6216, 15557.58
362.1037, 15496.93
362.5858, 15461.07
363.0679, 15466.77
363.5500, 15498.01
364.0321, 15492.23
364.5143, 15408.98
364.9964, 15352.31
365.4785, 15353.30
365.9606, 15372.71
366.4427, 15376.67
366.9248, 15356.99
367.4070, 15328.50
367.8891, 15307.58
368.3712, 15294.42
368.8533, 15283.13
369.3354, 15270.71
369.8175, 15263.20
370.2997, 15263.92
370.7818, 15271.94
371.2639, 15284.23
371.7460, 15297.57
372.2281, 15314.79
372.7102, 15349.22
373.1924, 15405.42
373.6745, 15440.43
374.1566, 15416.07
374.6387, 15361.14
375.1208, 15337.13
375.6029, 15355.64
376.0851, 15388.43
376.5672, 15434.09
377.0493, 15482.09
377.5314, 15506.82
378.0135, 15499.22
378.4956, 15477.14
378.9778, 15463.99
379.4599, 15463.33
379.9420, 15460.42
380.4241, 15449.71
380.9062, 15441.04
381.3883, 15443.86
381.8705, 15455.75
382.3526, 15464.14
382.8347, 15457.56
383.3168, 15441.17
383.7989, 15454.61
384.2810, 15531.06
384.7632, 15599.44
385.2453, 15646.45
385.7274, 15683.25
386.2095, 15720.96
386.6916, 15763.33
387.1737, 15808.31
387.6559, 15852.96
388.1380, 15897.54
388.6201, 15941.89
389.1022, 15985.74
389.5843, 16029.53
390.0664, 16079.64
390.5486, 16131.52
391.0307, 16168.94
391.5128, 16175.35
391.9949, 16164.19
392.4770, 16163.41
392.9591, 16174.59
393.4413, 16184.90
393.9234, 16186.89
394.4055, 16183.97
394.8876, 16181.98
395.3697, 16176.34
395.8518, 16181.20
396.3340, 16219.60
396.8161, 16271.20
397.2982, 16287.97
397.7803, 16254.72
398.2624, 16213.47
398.7445, 16215.92
399.2267, 16274.98
399.7088, 16328.58
400.1909, 16370.85
400.6730, 16413.08
401.1551, 16463.88
401.6372, 16520.17
402.1194, 16572.02
402.6015, 16611.98
403.0836, 16646.15
403.5657, 16698.53
404.0478, 16792.86
404.5299, 16868.54
405.0121, 16917.98
405.4942, 16949.66
405.9763, 16962.25
406.4584, 16959.37
406.9405, 16962.86
407.4226, 17007.73
407.9048, 17091.32
408.3869, 17133.07
408.8690, 17105.33
409.3511, 17074.85
409.8332, 17081.42
410.3153, 17113.30
410.7975, 17148.61
411.2796, 17192.53
411.7617, 17223.40
412.2438, 17203.85
412.7259, 17141.87
413.2080, 17101.54
413.6902, 17110.63
414.1723, 17147.51
414.6544, 17175.54
415.1365, 17193.82
415.6186, 17209.24
416.1007, 17218.20
416.5829, 17227.75
417.0650, 17247.24
417.5471, 17275.86
418.0292, 17304.12
418.5113, 17326.10
418.9934, 17341.11
419.4756, 17337.03
419.9577, 17279.19
420.4398, 17242.80
420.9219, 17263.76
421.4040, 17302.47
421.8861, 17310.44
422.3683, 17272.96
422.8504, 17218.80
423.3325, 17185.85
423.8146, 17176.09
424.2967, 17174.45
424.7788, 17192.40
425.2610, 17204.31
425.7431, 17192.42
426.2252, 17163.12
426.7073, 17135.54
427.1894, 17122.05
427.6715, 17111.90
428.1537, 17080.72
428.6358, 17029.08
429.1179, 17009.85
429.6000, 17069.27
430.0821, 17150.70
430.5642, 17131.46
431.0464, 16967.90
431.5285, 16857.39
432.0106, 16895.44
432.4927, 16989.48
432.9748, 17043.16
433.4569, 17043.48
433.9391, 17021.98
434.4212, 17005.28
434.9033, 16992.87
435.3854, 16961.31
435.8675, 16892.57
436.3496, 16826.09
436.8318, 16772.50
437.3139, 16724.11
437.7960, 16667.18
438.2781, 16598.29
438.7602, 16532.21
439.2423, 16493.33
439.7245, 16485.30
440.2066, 16470.64
440.6887, 16450.03
441.1708, 16417.32
441.6529, 16363.86
442.1350, 16296.25
442.6172, 16233.13
443.0993, 16186.91
443.5814, 16143.50
444.0635, 16076.99
444.5456, 15991.00
445.0277, 15928.86
445.5099, 15915.11
445.9920, 15923.32
446.4741, 15905.73
446.9562, 15859.84
447.4383, 15805.06
447.9204, 15733.12
448.4026, 15661.24
448.8847, 15609.27
449.3668, 15574.68
449.8489, 15536.95
450.3310, 15478.49
450.8131, 15405.72
451.2953, 15360.31
451.7774, 15370.21
452.2595, 15370.44
452.7416, 15353.98
453.2237, 15324.52
453.7059, 15276.98
454.1880, 15213.78
454.6701, 15159.13
455.1522, 15145.64
455.6343, 15167.86
456.1165, 15170.13
456.5986, 15143.00
457.0807, 15110.56
457.5628, 15086.34
458.0449, 15066.83
458.5270, 15045.28
459.0092, 15013.52
459.4913, 14989.45
459.9734, 14987.83
460.4555, 15003.16
460.9376, 15025.29
461.4197, 15052.45
461.9019, 15075.36
462.3840, 15082.82
462.8661, 15073.68
463.3482, 15050.70
463.8303, 14997.50
464.3124, 14948.29
464.7946, 14916.18
465.2767, 14900.74
465.7588, 14901.12
466.2409, 14917.62
466.7230, 14942.15
467.2051, 14960.17
467.6873, 14974.48
468.1694, 14972.61
468.6515, 14930.90
469.1336, 14891.48
469.6157, 14883.73
470.0978, 14901.40
470.5800, 14912.96
471.0621, 14892.82
471.5442, 14861.85
472.0263, 14854.84
472.5084, 14871.15
472.9905, 14887.90
473.4727, 14901.06
473.9548, 14902.60
474.4369, 14867.74
474.9190, 14779.20
475.4011, 14714.71
475.8832, 14697.74
476.3654, 14703.57
476.8475, 14718.88
477.3296, 14737.70
477.8117, 14748.93
478.2938, 14743.91
478.7759, 14725.27
479.2581, 14706.66
479.7402, 14686.64
480.2223, 14669.32
480.7044, 14656.64
481.1865, 14645.94
481.6686, 14634.84
482.1508, 14623.21
482.6329, 14613.04
483.1150, 14605.26
483.5971, 14600.26
484.0792, 14599.13
484.5613, 14601.78
485.0435, 14609.09
485.5256, 14625.12
486.0077, 14645.04
486.4898, 14657.62
486.9719, 14663.45
487.4540, 14660.34
487.9362, 14636.37
488.4183, 14607.65
488.9004, 14600.96
489.3825, 14618.21
489.8646, 14632.38
490.3467, 14616.77
490.8289, 14571.91
491.3110, 14538.67
491.7931, 14524.85
492.2752, 14514.12
492.7573, 14500.15
493.2394, 14489.67
493.7216, 14496.23
494.2037, 14521.75
494.6858, 14541.04
495.1679, 14518.83
495.6500, 14463.15
496.1321, 14434.69
496.6143, 14447.18
497.0964, 14460.33
497.5785, 14443.42
498.0606, 14408.78
498.5427, 14386.03
499.0248, 14381.86
499.5070, 14383.70
499.9891, 14398.15
500.4712, 14410.76
500.9533, 14387.48
501.4354, 14323.46
501.9175, 14265.02
502.3997, 14265.47
502.8818, 14329.05
503.3639, 14357.26
503.8460, 14307.28
504.3281, 14269.94
504.8102, 14273.53
505.2924, 14295.97
505.7745, 14310.91
506.2566, 14310.69
506.7387, 14306.00
507.2208, 14311.69
507.7029, 14325.18
508.1851, 14321.32
508.6672, 14289.03
509.1493, 14263.26
509.6314, 14276.23
510.1135, 14312.94
510.5956, 14333.17
511.0778, 14327.42
511.5599, 14313.57
512.0420, 14290.26
512.5241, 14267.38
513.0062, 14266.26
513.4883, 14289.37
513.9705, 14309.70
514.4526, 14296.53
514.9347, 14248.48
515.4168, 14220.51
515.8989, 14235.72
516.3810, 14243.95
516.8632, 14224.09
517.3453, 14197.71
517.8274, 14190.04
518.3095, 14207.24
518.7916, 14233.04
519.2737, 14259.92
519.7559, 14283.57
520.2380, 14279.39
520.7201, 14237.76
521.2022, 14201.39
521.6843, 14201.79
522.1664, 14228.36
522.6486, 14242.28
523.1307, 14241.13
523.6128, 14231.27
524.0949, 14210.57
524.5770, 14184.40
525.0591, 14155.61
525.5413, 14126.53
526.0234, 14104.58
526.5055, 14096.69
526.9876, 14102.00
527.4697, 14111.00
527.9518, 14128.98
528.4340, 14141.93
528.9161, 14150.25
529.3982, 14151.01
529.8803, 14136.63
530.3624, 14107.41
530.8445, 14083.87
531.3267, 14088.75
531.8088, 14106.47
532.2909, 14099.65
532.7730, 14066.31
533.2551, 14041.80
533.7372, 14047.25
534.2194, 14072.29
534.7015, 14089.25
535.1836, 14099.27
535.6657, 14099.61
536.1478, 14071.94
536.6299, 14048.09
537.1121, 14057.22
537.5942, 14094.29
538.0763, 14134.84
538.5584, 14164.35
539.0405, 14182.85
539.5226, 14188.62
540.0048, 14177.87
540.4869, 14168.18
540.9690, 14162.95
541.4511, 14160.26
541.9332, 14156.67
542.4153, 14153.15
542.8975, 14156.88
543.3796, 14189.90
543.8617, 14216.22
544.3438, 14190.89
544.8259, 14128.32
545.3080, 14080.41
545.7902, 14067.99
546.2723, 14074.35
546.7544, 14073.29
547.2365, 14061.19
547.7186, 14054.24
548.2007, 14058.87
548.6829, 14061.30
549.1650, 14051.97
549.6471, 14037.98
550.1292, 14034.19
550.6113, 14047.87
551.0934, 14059.03
551.5756, 14031.25
552.0577, 13973.45
552.5398, 13956.80
553.0219, 14004.09
553.5040, 14050.28
553.9861, 14039.39
554.4683, 13983.10
554.9504, 13954.15
555.4325, 13970.73
555.9146, 13993.03
556.3967, 14021.68
556.8788, 14042.79
557.3610, 14033.92
557.8431, 13995.45
558.3252, 13952.89
558.8073, 13927.43
559.2894, 13918.71
559.7715, 13928.06
560.2537, 13973.10
560.7358, 13997.79
561.2179, 13969.26
561.7000, 13923.41
562.1821, 13886.71
562.6642, 13861.47
563.1464, 13842.12
563.6285, 13825.62
564.1106, 13813.77
564.5927, 13814.33
565.0748, 13823.64
565.5569, 13821.92
566.0391, 13798.63
566.5212, 13764.18
567.0033, 13740.37
567.4854, 13738.79
567.9675, 13718.96
568.4496, 13657.15
568.9318, 13603.44
569.4139, 13580.22
569.8960, 13581.85
570.3781, 13599.75
570.8602, 13634.36
571.3423, 13664.44
571.8245, 13660.60
572.3066, 13627.91
572.7887, 13591.83
573.2708, 13552.98
573.7529, 13525.18
574.2350, 13522.44
574.7172, 13541.88
575.1993, 13556.81
575.6814, 13570.46
576.1635, 13575.95
576.6456, 13566.64
577.1277, 13551.39
577.6099, 13535.57
578.0920, 13522.16
578.5741, 13517.03
579.0562, 13527.20
579.5383, 13548.12
580.0204, 13561.61
580.5026, 13566.71
580.9847, 13568.03
581.4668, 13568.62
581.9489, 13564.02
582.4310, 13545.66
582.9131, 13513.63
583.3953, 13492.27
583.8774, 13499.43
584.3595, 13509.82
584.8416, 13502.88
585.3237, 13483.50
585.8058, 13464.40
586.2880, 13450.55
586.7701, 13440.41
587.2522, 13431.31
587.7343, 13422.30
588.2164, 13421.15
588.6985, 13438.07
589.1807, 13449.55
589.6628, 13441.81
590.1449, 13426.41
590.6270, 13420.81
591.1091, 13430.85
591.5912, 13436.64
592.0734, 13416.54
592.5555, 13387.08
593.0376, 13378.75
593.5197, 13392.31
594.0018, 13405.47
594.4839, 13404.94
594.9661, 13393.66
595.4482, 13380.04
595.9303, 13358.82
596.4124, 13344.21
596.8945, 13336.38
597.3766, 13334.23
597.8588, 13344.67
598.3409, 13359.81
598.8230, 13361.16
599.3051, 13337.74
599.7872, 13304.41
600.2693, 13274.13
600.7515, 13248.33
601.2336, 13235.17
601.7157, 13238.18
602.1978, 13241.39
602.6799, 13226.81
603.1620, 13198.05
603.6442, 13198.00
604.1263, 13261.38
604.6084, 13305.40
605.0905, 13304.49
605.5726, 13287.60
606.0547, 13282.73
606.5369, 13289.40
607.0190, 13283.92
607.5011, 13240.12
607.9832, 13182.42
608.4653, 13169.58
608.9474, 13202.34
609.4296, 13233.61
609.9117, 13252.08
610.3938, 13260.02
610.8759, 13257.32
611.3580, 13242.98
611.8401, 13232.52
612.3223, 13229.84
612.8044, 13227.01
613.2865, 13217.93
613.7686, 13208.29
614.2507, 13206.59
614.7328, 13214.22
615.2150, 13224.66
615.6971, 13233.24
616.1792, 13239.31
616.6613, 13241.39
617.1434, 13242.03
617.6255, 13224.54
618.1077, 13169.34
618.5898, 13105.28
619.0719, 13078.33
619.5540, 13091.42
620.0361, 13100.10
620.5182, 13094.11
621.0004, 13084.51
621.4825, 13070.75
621.9646, 13060.00
622.4467, 13069.29
622.9288, 13103.17
623.4109, 13138.55
623.8931, 13143.37
624.3752, 13118.45
624.8573, 13100.67
625.3394, 13090.56
625.8215, 13086.72
626.3036, 13095.49
626.7858, 13106.47
627.2679, 13102.13
627.7500, 13078.89
628.2321, 13056.90
628.7142, 13041.96
629.1964, 13029.82
629.6785, 13012.22
630.1606, 12994.96
630.6427, 12997.28
631.1248, 13027.56
631.6069, 13060.63
632.0891, 13050.67
632.5712, 12993.89
633.0533, 12961.05
633.5354, 12963.49
634.0175, 12969.69
634.4996, 12957.06
634.9818, 12940.36
635.4639, 12947.67
635.9460, 12991.49
636.4281, 13021.31
636.9102, 13004.54
637.3923, 12979.03
637.8745, 12983.86
638.3566, 13010.58
638.8387, 13026.31
639.3208, 13014.56
639.8029, 12988.41
640.2850, 12969.67
640.7672, 12958.62
641.2493, 12951.11
641.7314, 12949.97
642.2135, 12946.51
642.6956, 12931.39
643.1777, 12912.06
643.6599, 12903.39
644.1420, 12912.56
644.6241, 12915.27
645.1062, 12895.21
645.5883, 12871.47
646.0704, 12864.20
646.5526, 12869.76
647.0347, 12870.08
647.5168, 12855.24
647.9989, 12838.55
648.4810, 12853.44
648.9631, 12905.89
649.4453, 12908.02
649.9274, 12822.36
650.4095, 12749.80
650.8916, 12766.11
651.3737, 12832.43
651.8558, 12866.19
652.3380, 12848.82
652.8201, 12835.73
653.3022, 12852.25
653.7843, 12872.48
654.2664, 12872.72
654.7485, 12856.16
655.2307, 12836.92
655.7128, 12821.77
656.1949, 12810.60
656.6770, 12800.83
657.1591, 12792.23
657.6412, 12803.43
658.1234, 12848.98
658.6055, 12879.44
659.0876, 12852.45
659.5697, 12794.11
660.0518, 12773.88
660.5339, 12814.19
661.0161, 12835.79
661.4982, 12809.56
661.9803, 12770.26
662.4624, 12739.35
662.9445, 12717.67
663.4266, 12701.92
663.9088, 12690.72
664.3909, 12681.26
664.8730, 12668.60
665.3551, 12653.53
665.8372, 12641.64
666.3193, 12631.55
666.8015, 12633.83
667.2836, 12659.13
667.7657, 12697.79
668.2478, 12729.07
668.7299, 12762.04
669.2120, 12765.67
669.6942, 12701.49
670.1763, 12642.11
670.6584, 12633.74
671.1405, 12659.89
671.6226, 12689.90
672.1047, 12712.67
672.5869, 12725.81
673.0690, 12720.37
673.5511, 12703.10
674.0332, 12697.82
674.5153, 12706.01
674.9974, 12719.69
675.4796, 12737.39
675.9617, 12754.10
676.4438, 12760.34
676.9259, 12754.20
677.4080, 12742.72
677.8901, 12716.39
678.3723, 12695.82
678.8544, 12692.86
679.3365, 12698.54
679.8186, 12703.57
680.3007, 12705.32
680.7828, 12696.93
681.2650, 12657.70
681.7471, 12612.33
682.2292, 12612.64
682.7113, 12651.81
683.1934, 12676.36
683.6755, 12664.31
684.1577, 12634.19
684.6398, 12611.33
685.1219, 12596.52
685.6040, 12581.78
686.0861, 12557.57
686.5682, 12547.30
687.0504, 12572.30
687.5325, 12603.33
688.0146, 12608.59
688.4967, 12586.22
688.9788, 12565.50
689.4609, 12559.48
689.9431, 12560.76
690.4252, 12565.36
690.9073, 12571.59
691.3894, 12573.60
691.8715, 12570.61
692.3536, 12573.77
692.8358, 12598.85
693.3179, 12639.84
693.8000, 12647.40
694.2821, 12608.01
694.7642, 12576.24
695.2463, 12568.45
695.7285, 12569.83
696.2106, 12561.72
696.6927, 12547.70
697.1748, 12553.96
697.6569, 12615.98
698.1390, 12661.67
698.6212, 12649.22
699.1033, 12611.56
699.5854, 12582.95
700.0675, 12568.76
700.5496, 12561.35
701.0317, 12557.16
701.5139, 12552.82
701.9960, 12538.25
702.4781, 12514.27
702.9602, 12504.28
703.4423, 12519.07
703.9244, 12521.50
704.4066, 12474.45
704.8887, 12393.16
705.3708, 12348.55
705.8529, 12380.04
706.3350, 12390.66
706.8171, 12342.57
707.2993, 12304.51
707.7814, 12336.17
708.2635, 12409.01
708.7456, 12456.91
709.2277, 12453.85
709.7098, 12429.70
710.1920, 12404.64
710.6741, 12380.21
711.1562, 12362.19
711.6383, 12349.61
712.1204, 12329.17
712.6025, 12292.31
713.0847, 12252.32
713.5668, 12234.64
714.0489, 12243.16
714.5310, 12256.62
715.0131, 12284.33
715.4952, 12303.06
715.9774, 12298.60
716.4595, 12283.96
716.9416, 12275.75
717.4237, 12276.30
717.9058, 12268.17
718.3879, 12227.88
718.8701, 12193.40
719.3522, 12206.74
719.8343, 12242.17
720.3164, 12247.30
720.7985, 12210.75
721.2806, 12168.51
721.7628, 12157.05
722.2449, 12167.23
722.7270, 12163.34
723.2091, 12143.95
723.6912, 12130.03
724.1733, 12132.43
724.6555, 12129.45
725.1376, 12093.16
725.6197, 12026.02
726.1018, 11987.22
726.5839, 12001.64
727.0660, 12008.04
727.5482, 11983.68
728.0303, 11959.55
728.5124, 11962.80
728.9945, 11988.03
729.4766, 12014.47
729.9587, 12037.26
730.4409, 12046.21
730.9230, 12018.41
731.4051, 11973.45
731.8872, 11954.08
732.3693, 11962.66
732.8514, 11976.19
733.3336, 11982.25
733.8157, 11979.52
734.2978, 11963.25
734.7799, 11929.57
735.2620, 11898.30
735.7441, 11859.97
736.2263, 11840.16
736.7084, 11862.14
737.1905, 11904.23
737.6726, 11939.71
738.1547, 11968.58
738.6368, 11983.62
739.1190, 11972.06
739.6011, 11957.87
740.0832, 11963.70
740.5653, 11972.93
741.0474, 11951.49
741.5295, 11896.56
742.0117, 11850.79
742.4938, 11860.19
742.9759, 11896.59
743.4580, 11898.55
743.9401, 11868.88
744.4222, 11826.53
744.9044, 11772.74
745.3865, 11733.85
745.8686, 11737.67
746.3507, 11777.78
746.8328, 11807.30
747.3149, 11821.82
747.7971, 11832.94
748.2792, 11842.81
748.7613, 11848.44
749.2434, 11848.04
749.7255, 11842.05
750.2076, 11831.38
750.6898, 11815.46
751.1719, 11797.15
751.6540, 11771.25
752.1361, 11748.49
752.6182, 11744.50
753.1003, 11753.54
753.5825, 11759.30
754.0646, 11754.82
754.5467, 11740.95
755.0288, 11715.42
755.5109, 11680.67
755.9930, 11646.78
756.4752, 11612.21
756.9573, 11602.86
757.4394, 11635.78
757.9215, 11680.94
758.4036, 11698.32
758.8857, 11685.25
759.3679, 11683.51
759.8500, 11724.34
760.3321, 11735.71
760.8142, 11679.52
761.2963, 11611.53
761.7784, 11572.79
762.2606, 11563.10
762.7427, 11564.01
763.2248, 11572.73
763.7069, 11583.54
764.1890, 11595.21
764.6711, 11605.11
765.1533, 11610.32
765.6354, 11610.17
766.1175, 11602.00
766.5996, 11583.46
767.0817, 11565.59
767.5638, 11575.34
768.0460, 11608.69
768.5281, 11601.31
769.0102, 11539.08
769.4923, 11510.45
769.9744, 11574.23
770.4565, 11663.88
770.9387, 11664.76
771.4208, 11550.30
771.9029, 11487.97
772.3850, 11520.53
772.8671, 11550.27
773.3492, 11553.69
773.8314, 11545.42
774.3135, 11535.19
774.7956, 11525.92
775.2777, 11525.07
775.7598, 11552.52
776.2419, 11568.43
776.7241, 11529.09
777.2062, 11469.20
777.6883, 11439.63
778.1704, 11442.32
778.6525, 11449.94
779.1346, 11446.72
779.6168, 11436.94
780.0989, 11430.35
780.5810, 11425.36
781.0631, 11397.58
781.5452, 11338.72
782.0273, 11314.59
782.5095, 11369.03
782.9916, 11454.14
783.4737, 11486.48
783.9558, 11453.24
784.4379, 11430.79
784.9200, 11429.28
785.4022, 11425.23
785.8843, 11410.26
786.3664, 11392.37
786.8485, 11375.40
787.3306, 11361.25
787.8127, 11358.67
788.2949, 11389.83
788.7770, 11410.53
789.2591, 11386.44
789.7412, 11345.13
790.2233, 11316.39
790.7054, 11303.10
791.1876, 11298.84
791.6697, 11301.46
792.1518, 11303.44
792.6339, 11293.86
793.1160, 11274.95
793.5981, 11249.99
794.0803, 11219.88
794.5624, 11210.12
795.0445, 11236.38
795.5266, 11270.12
796.0087, 11265.13
796.4908, 11217.18
796.9730, 11192.05
797.4551, 11205.60
797.9372, 11210.29
798.4193, 11185.34
798.9014, 11153.87
799.3835, 11139.33
799.8657, 11138.18
800.3478, 11128.14
800.8299, 11090.36
801.3120, 11064.66
801.7941, 11068.47
802.2762, 11083.30
802.7584, 11097.62
803.2405, 11109.37
803.7226, 11117.96
804.2047, 11122.84
804.6868, 11127.17
805.1689, 11141.03
805.6511, 11152.29
806.1332, 11127.37
806.6153, 11079.39
807.0974, 11071.26
807.5795, 11123.56
808.0616, 11179.89
808.5438, 11174.77
809.0259, 11119.88
809.5080, 11078.26
809.9901, 11049.35
810.4722, 11040.44
810.9543, 11060.38
811.4365, 11082.20
811.9186, 11083.59
812.4007, 11068.90
812.8828, 11057.41
813.3649, 11055.11
813.8470, 11046.01
814.3292, 11030.68
814.8113, 11008.14
815.2934, 10968.94
815.7755, 10926.33
816.2576, 10901.07
816.7397, 10897.39
817.2219, 10893.66
817.7040, 10875.06
818.1861, 10859.69
818.6682, 10862.02
819.1503, 10875.34
819.6324, 10894.99
820.1146, 10915.99
820.5967, 10923.15
821.0788, 10902.90
821.5609, 10870.76
822.0430, 10851.31
822.5251, 10840.01
823.0073, 10817.10
823.4894, 10781.59
823.9716, 10759.90
824.4537, 10767.56
824.9358, 10789.93
825.4179, 10802.44
825.9000, 10804.74
826.3821, 10799.41
826.8643, 10782.40
827.3464, 10770.45
827.8285, 10774.85
828.3106, 10778.95
828.7927, 10760.58
829.2748, 10720.56
829.7570, 10695.04
830.2391, 10692.34
830.7212, 10691.70
831.2033, 10696.81
831.6854, 10697.38
832.1675, 10677.91
832.6497, 10650.53
833.1318, 10644.17
833.6139, 10670.78
834.0960, 10693.56
834.5781, 10694.68
835.0602, 10683.31
835.5424, 10657.14
836.0245, 10627.90
836.5066, 10617.84
836.9887, 10630.60
837.4708, 10648.53
837.9529, 10660.85
838.4351, 10665.87
838.9172, 10660.02
839.3993, 10644.35
839.8814, 10620.62
840.3635, 10589.85
840.8456, 10557.55
841.3278, 10525.97
841.8099, 10501.26
842.2920, 10497.85
842.7741, 10517.57
843.2562, 10539.74
843.7383, 10567.58
844.2205, 10586.18
844.7026, 10591.17
845.1847, 10581.60
845.6668, 10548.23
846.1489, 10490.18
846.6310, 10466.63
847.1132, 10508.61
847.5953, 10541.37
848.0774, 10554.17
848.5595, 10558.90
849.0416, 10560.88
849.5237, 10560.90
850.0059, 10562.26
850.4880, 10570.52
850.9701, 10561.02
851.4522, 10494.47
851.9343, 10437.67
852.4164, 10458.01
852.8986, 10510.00
853.3807, 10514.81
853.8628, 10463.24
854.3449, 10418.97
854.8270, 10432.57
855.3091, 10462.09
855.7913, 10459.55
856.2734, 10435.94
856.7555, 10404.98
857.2376, 10373.91
857.7197, 10368.55
858.2018, 10404.50
858.6840, 10449.90
859.1661, 10451.90
859.6482, 10417.32
860.1303, 10391.46
860.6124, 10375.22
861.0945, 10362.23
861.5767, 10349.37
862.0588, 10345.50
862.5409, 10364.03
863.0230, 10398.63
863.5051, 10403.14
863.9872, 10367.17
864.4694, 10331.10
864.9515, 10291.13
865.4336, 10265.05
865.9157, 10272.63
866.3978, 10297.06
866.8799, 10302.23
867.3621, 10282.03
867.8442, 10268.99
868.3263, 10271.54
868.8084, 10272.50
869.2905, 10260.07
869.7726, 10248.53
870.2548, 10261.24
870.7369, 10289.95
871.2190, 10291.77
871.7011, 10233.71
872.1832, 10185.08
872.6653, 10182.14
873.1475, 10199.93
873.6296, 10229.55
874.1117, 10257.92
874.5938, 10260.33
875.0759, 10230.60
875.5580, 10197.62
876.0402, 10184.31
876.5223, 10180.48
877.0044, 10171.56
877.4865, 10161.82
877.9686, 10161.50
878.4507, 10171.85
878.9329, 10190.70
879.4150, 10218.55
879.8971, 10241.90
880.3792, 10230.98
880.8613, 10193.55
881.3434, 10172.54
881.8256, 10169.97
882.3077, 10174.12
882.7898, 10181.26
883.2719, 10190.44
883.7540, 10201.65
884.2361, 10213.74
884.7183, 10220.24
885.2004, 10223.99
885.6825, 10205.63
886.1646, 10150.01
886.6467, 10102.45
887.1288, 10094.14
887.6110, 10109.32
888.0931, 10114.70
888.5752, 10109.87
889.0573, 10096.37
889.5394, 10063.37
890.0215, 10036.15
890.5037, 10016.74
890.9858, 10008.38
891.4679, 10022.93
891.9500, 10053.06
892.4321, 10063.63
892.9142, 10030.56
893.3964, 10012.14
893.8785, 10037.81
894.3606, 10063.90
894.8427, 10059.20
895.3248, 10039.31
895.8069, 10030.41
896.2891, 10037.00
896.7712, 10044.03
897.2533, 10048.56
897.7354, 10046.68
898.2175, 10024.88
898.6996, 10002.45
899.1818, 10010.33
899.6639, 10040.02
900.1460, 10056.14
900.6281, 10042.85
901.1102, 10018.61
901.5923, 9991.034
902.0745, 9969.595
902.5566, 9975.112
903.0387, 9997.896
903.5208, 10011.85
904.0029, 10010.74
904.4850, 10002.31
904.9672, 9990.621
905.4493, 9980.590
905.9314, 9984.771
906.4135, 9999.019
906.8956, 10005.47
907.3777, 10002.71
907.8599, 9993.432
908.3420, 9978.315
908.8241, 9964.607
909.3062, 9964.110
909.7883, 9972.350
910.2704, 9954.914
910.7526, 9907.771
911.2347, 9884.995
911.7168, 9899.535
912.1989, 9924.580
912.6810, 9947.186
913.1631, 9961.792
913.6453, 9955.323
914.1274, 9924.437
914.6095, 9889.362
915.0916, 9836.163
915.5737, 9814.478
916.0558, 9861.241
916.5380, 9912.618
917.0201, 9904.579
917.5022, 9849.949
917.9843, 9818.913
918.4664, 9828.059
918.9485, 9832.373
919.4307, 9829.349
919.9128, 9824.557
920.3949, 9824.381
920.8770, 9820.911
921.3591, 9798.716
921.8412, 9758.305
922.3234, 9736.114
922.8055, 9753.028
923.2876, 9766.611
923.7697, 9767.681
924.2518, 9761.308
924.7339, 9746.189
925.2161, 9727.988
925.6982, 9715.351
926.1803, 9709.873
926.6624, 9712.211
927.1445, 9730.613
927.6266, 9747.541
928.1088, 9751.130
928.5909, 9749.424
929.0730, 9753.483
929.5551, 9761.022
930.0372, 9761.123
930.5193, 9749.002
931.0015, 9731.389
931.4836, 9703.150
931.9657, 9680.101
932.4478, 9685.704
932.9299, 9705.190
933.4120, 9708.891
933.8942, 9694.311
934.3763, 9686.479
934.8584, 9706.778
935.3405, 9723.482
935.8226, 9689.456
936.3047, 9634.827
936.7869, 9613.307
937.2690, 9618.347
937.7511, 9613.269
938.2332, 9587.306
938.7153, 9563.863
939.1974, 9565.923
939.6796, 9581.164
940.1617, 9586.703
940.6438, 9586.219
941.1259, 9594.111
941.6080, 9609.837
942.0901, 9617.601
942.5723, 9609.860
943.0544, 9592.991
943.5365, 9572.601
944.0186, 9550.619
944.5007, 9533.293
944.9828, 9520.904
945.4650, 9522.155
945.9471, 9538.595
946.4292, 9543.486
946.9113, 9517.830
947.3934, 9481.259
947.8755, 9473.435
948.3577, 9492.981
948.8398, 9499.185
949.3219, 9490.814
949.8040, 9487.926
950.2861, 9496.756
950.7682, 9506.899
951.2504, 9509.756
951.7325, 9507.696
952.2146, 9508.312
952.6967, 9512.653
953.1788, 9509.839
953.6609, 9495.745
954.1431, 9491.967
954.6252, 9510.626
955.1073, 9530.809
955.5894, 9529.836
956.0715, 9511.744
956.5536, 9501.646
957.0358, 9508.123
957.5179, 9492.096
958.0000, 9438.624
958.4821, 9391.100
958.9642, 9365.126
959.4464, 9359.336
959.9285, 9378.749
960.4106, 9421.932
960.8927, 9438.537
961.3748, 9415.060
961.8569, 9392.974
962.3391, 9372.719
962.8212, 9359.118
963.3033, 9352.574
963.7854, 9355.582
964.2675, 9376.654
964.7496, 9419.150
965.2318, 9444.317
965.7139, 9442.269
966.1960, 9437.534
966.6781, 9436.979
967.1602, 9430.602
967.6423, 9406.557
968.1245, 9374.645
968.6066, 9353.516
969.0887, 9344.740
969.5708, 9340.764
970.0529, 9345.888
970.5350, 9349.576
971.0172, 9354.850
971.4993, 9353.025
971.9814, 9329.573
972.4635, 9295.617
972.9456, 9279.610
973.4277, 9289.104
973.9099, 9297.550
974.3920, 9300.677
974.8741, 9303.061
975.3562, 9314.790
975.8383, 9319.271
976.3204, 9289.862
976.8026, 9240.890
977.2847, 9223.602
977.7668, 9265.733
978.2489, 9280.004
978.7310, 9207.688
979.2131, 9151.613
979.6953, 9174.658
980.1774, 9224.980
980.6595, 9254.810
981.1416, 9261.422
981.6237, 9253.104
982.1058, 9220.851
982.5880, 9201.450
983.0701, 9218.059
983.5522, 9236.376
984.0343, 9244.659
984.5164, 9239.370
984.9985, 9208.299
985.4807, 9158.433
985.9628, 9126.928
986.4449, 9133.085
986.9270, 9139.533
987.4091, 9130.043
987.8912, 9119.608
988.3734, 9117.802
988.8555, 9120.981
989.3376, 9126.792
989.8197, 9132.933
990.3018, 9130.342
990.7839, 9114.343
991.2661, 9092.135
991.7482, 9054.386
992.2303, 9024.054
992.7124, 9026.126
993.1945, 9041.976
993.6766, 9042.217
994.1588, 9024.664
994.6409, 9010.731
995.1230, 9004.211
995.6051, 9009.738
996.0872, 9042.354
996.5693, 9075.117
997.0515, 9087.144
997.5336, 9085.084
998.0157, 9079.710
998.4978, 9073.412
998.9799, 9067.120
999.4620, 9061.526
999.9442, 9055.257
1000.426, 9045.246
1000.908, 9036.439
1001.391, 9032.257
1001.873, 9032.361
1002.355, 9037.776
1002.837, 9047.656
1003.319, 9053.201
1003.801, 9046.322
1004.283, 9040.679
1004.765, 9044.196
1005.247, 9050.414
1005.730, 9058.977
1006.212, 9064.264
1006.694, 9053.952
1007.176, 9027.921
1007.658, 9009.596
1008.140, 9019.011
1008.622, 9024.673
1009.104, 9003.754
1009.586, 8980.933
1010.069, 8981.607
1010.551, 8992.680
1011.033, 8987.705
1011.515, 8963.265
1011.997, 8941.928
1012.479, 8936.397
1012.961, 8931.321
1013.443, 8911.159
1013.926, 8897.212
1014.408, 8919.082
1014.890, 8953.494
1015.372, 8954.132
1015.854, 8916.521
1016.336, 8894.231
1016.818, 8926.115
1017.300, 8951.022
1017.782, 8943.154
1018.265, 8921.094
1018.747, 8892.262
1019.229, 8862.057
1019.711, 8836.240
1020.193, 8815.789
1020.675, 8801.174
1021.157, 8782.441
1021.639, 8783.687
1022.122, 8852.591
1022.604, 8903.863
1023.086, 8853.043
1023.568, 8759.780
1024.050, 8721.725
1024.532, 8746.818
1025.014, 8758.037
1025.496, 8722.758
1025.978, 8689.146
1026.461, 8662.389
1026.943, 8649.324
1027.425, 8661.744
1027.907, 8686.098
1028.389, 8704.756
1028.871, 8716.319
1029.353, 8728.730
1029.835, 8756.340
1030.318, 8765.576
1030.800, 8730.796
1031.282, 8698.151
1031.764, 8698.470
1032.246, 8710.528
1032.728, 8701.668
1033.210, 8673.897
1033.692, 8667.859
1034.174, 8715.244
1034.656, 8742.010
1035.139, 8725.507
1035.621, 8705.487
1036.103, 8690.928
1036.585, 8687.380
1037.067, 8711.916
1037.549, 8758.104
1038.031, 8772.491
1038.513, 8721.260
1038.996, 8693.162
1039.478, 8708.799
1039.960, 8720.870
1040.442, 8708.749
1040.924, 8690.586
1041.406, 8683.086
1041.888, 8684.804
1042.370, 8689.289
1042.853, 8702.984
1043.335, 8703.872
1043.817, 8688.157
1044.299, 8665.475
1044.781, 8630.339
1045.263, 8601.001
1045.745, 8594.389
1046.227, 8606.264
1046.709, 8623.991
1047.192, 8653.700
1047.674, 8664.830
1048.156, 8654.567
1048.638, 8632.169
1049.120, 8594.363
1049.602, 8557.441
1050.084, 8529.914
1050.566, 8517.420
1051.048, 8539.783
1051.531, 8603.620
1052.013, 8628.234
1052.495, 8606.661
1052.977, 8579.308
1053.459, 8551.023
1053.941, 8537.349
1054.423, 8551.410
1054.905, 8577.853
1055.388, 8590.354
1055.870, 8588.885
1056.352, 8567.146
1056.834, 8523.963
1057.316, 8516.213
1057.798, 8555.848
1058.280, 8583.974
1058.762, 8567.450
1059.245, 8532.729
1059.727, 8513.871
1060.209, 8509.060
1060.691, 8512.050
1061.173, 8522.344
1061.655, 8541.169
1062.137, 8566.440
1062.619, 8574.834
1063.101, 8556.349
1063.583, 8525.594
1064.066, 8493.673
1064.548, 8465.928
1065.030, 8456.583
1065.512, 8459.554
1065.994, 8457.259
1066.476, 8449.687
1066.958, 8441.676
1067.440, 8436.075
1067.923, 8443.854
1068.405, 8480.699
1068.887, 8517.632
1069.369, 8509.767
1069.851, 8481.082
1070.333, 8469.012
1070.815, 8469.761
1071.297, 8469.945
1071.780, 8465.506
1072.262, 8453.975
1072.744, 8430.376
1073.226, 8412.950
1073.708, 8426.777
1074.190, 8444.937
1074.672, 8442.552
1075.154, 8425.298
1075.636, 8395.135
1076.119, 8360.307
1076.601, 8343.130
1077.083, 8353.429
1077.565, 8371.342
1078.047, 8394.936
1078.529, 8413.774
1079.011, 8426.299
1079.493, 8427.021
1079.976, 8400.926
1080.458, 8361.027
1080.940, 8341.048
1081.422, 8349.993
1081.904, 8349.630
1082.386, 8317.733
1082.868, 8293.934
1083.350, 8289.392
1083.833, 8296.688
1084.315, 8323.268
1084.797, 8352.460
1085.279, 8355.051
1085.761, 8328.912
1086.243, 8310.624
1086.725, 8301.235
1087.207, 8298.848
1087.689, 8307.362
1088.172, 8316.946
1088.654, 8327.157
1089.136, 8331.757
1089.618, 8322.316
1090.100, 8301.381
1090.582, 8282.863
1091.064, 8266.563
1091.546, 8251.515
1092.028, 8234.489
1092.511, 8234.958
1092.993, 8264.750
1093.475, 8287.984
1093.957, 8273.916
1094.439, 8238.806
1094.921, 8215.774
1095.403, 8204.985
1095.885, 8217.455
1096.368, 8251.530
1096.850, 8254.619
1097.332, 8217.954
1097.814, 8192.882
1098.296, 8208.618
1098.778, 8234.730
1099.260, 8232.640
1099.742, 8210.629
1100.224, 8181.092
1100.707, 8150.682
1101.189, 8142.018
1101.671, 8152.816
1102.153, 8165.909
1102.635, 8174.597
1103.117, 8177.126
1103.599, 8169.863
1104.081, 8160.641
1104.563, 8162.857
1105.046, 8164.757
1105.528, 8145.494
1106.010, 8116.389
1106.492, 8099.574
1106.974, 8098.256
1107.456, 8103.782
1107.938, 8115.182
1108.420, 8123.267
1108.903, 8124.988
1109.385, 8119.473
1109.867, 8090.476
1110.349, 8066.361
1110.831, 8091.797
1111.313, 8144.800
1111.795, 8154.004
1112.277, 8096.788
1112.760, 8066.483
1113.242, 8104.355
1113.724, 8132.565
1114.206, 8123.194
1114.688, 8111.130
1115.170, 8112.885
1115.652, 8126.236
1116.134, 8155.380
1116.616, 8197.876
1117.099, 8203.522
1117.581, 8159.684
1118.063, 8116.855
1118.545, 8073.314
1119.027, 8045.756
1119.509, 8040.912
1119.991, 8053.839
1120.473, 8085.540
1120.955, 8120.915
1121.438, 8112.707
1121.920, 8063.875
1122.402, 8044.245
1122.884, 8053.054
1123.366, 8070.328
1123.848, 8090.246
1124.330, 8089.246
1124.812, 8053.117
1125.295, 8013.038
1125.777, 8012.750
1126.259, 8030.625
1126.741, 8020.292
1127.223, 7996.212
1127.705, 7995.627
1128.187, 8010.950
1128.669, 8005.664
1129.151, 7970.979
1129.634, 7930.219
1130.116, 7889.913
1130.598, 7867.286
1131.080, 7886.366
1131.562, 7918.322
1132.044, 7949.375
1132.526, 7969.142
1133.008, 7957.299
1133.490, 7922.813
1133.973, 7905.026
1134.455, 7919.219
1134.937, 7924.786
1135.419, 7897.263
1135.901, 7879.808
1136.383, 7902.945
1136.865, 7923.171
1137.347, 7900.091
1137.830, 7859.863
1138.312, 7843.885
1138.794, 7851.879
1139.276, 7865.306
1139.758, 7892.028
1140.240, 7896.748
1140.722, 7868.475
1141.204, 7848.953
1141.687, 7855.589
1142.169, 7868.623
1142.651, 7871.034
1143.133, 7864.519
1143.615, 7850.037
1144.097, 7829.474
1144.579, 7820.182
1145.061, 7820.563
1145.543, 7816.558
1146.026, 7806.000
1146.508, 7795.259
1146.990, 7787.477
1147.472, 7778.831
1147.954, 7760.645
1148.436, 7744.948
1148.918, 7756.154
1149.400, 7775.568
1149.882, 7772.555
1150.365, 7754.716
1150.847, 7742.847
1151.329, 7741.194
1151.811, 7743.343
1152.293, 7747.749
1152.775, 7752.363
1153.257, 7761.186
1153.739, 7763.999
1154.222, 7750.894
1154.704, 7732.886
1155.186, 7717.968
1155.668, 7707.171
1156.150, 7701.913
1156.632, 7702.951
1157.114, 7704.738
1157.596, 7708.998
1158.078, 7709.375
1158.561, 7701.011
1159.043, 7698.679
1159.525, 7711.594
1160.007, 7725.815
1160.489, 7725.411
1160.971, 7716.091
1161.453, 7720.393
1161.935, 7736.664
1162.417, 7723.360
1162.900, 7683.241
1163.382, 7663.280
1163.864, 7672.101
1164.346, 7688.515
1164.828, 7701.611
1165.310, 7705.259
1165.792, 7686.910
1166.274, 7661.543
1166.757, 7648.169
1167.239, 7643.849
1167.721, 7649.863
1168.203, 7658.876
1168.685, 7655.254
1169.167, 7637.838
1169.649, 7621.054
1170.131, 7611.303
1170.614, 7601.491
1171.096, 7585.381
1171.578, 7572.677
1172.060, 7577.098
1172.542, 7578.875
1173.024, 7548.127
1173.506, 7506.230
1173.988, 7508.279
1174.470, 7558.433
1174.953, 7569.203
1175.435, 7520.200
1175.917, 7492.817
1176.399, 7498.822
1176.881, 7508.570
1177.363, 7510.926
1177.845, 7515.086
1178.327, 7530.882
1178.809, 7548.868
1179.292, 7545.202
1179.774, 7525.359
1180.256, 7514.961
1180.738, 7511.821
1181.220, 7505.448
1181.702, 7495.288
1182.184, 7486.327
1182.666, 7480.827
1183.149, 7481.431
1183.631, 7494.952
1184.113, 7507.220
1184.595, 7505.838
1185.077, 7497.620
1185.559, 7485.601
1186.041, 7473.312
1186.523, 7462.329
1187.005, 7454.915
1187.488, 7460.153
1187.970, 7486.720
1188.452, 7495.627
1188.934, 7458.841
1189.416, 7439.963
1189.898, 7466.051
1190.380, 7483.227
1190.862, 7461.111
1191.344, 7422.323
1191.827, 7388.965
1192.309, 7365.876
1192.791, 7380.811
1193.273, 7433.286
1193.755, 7454.943
1194.237, 7445.898
1194.719, 7437.447
1195.201, 7436.506
1195.684, 7438.221
1196.166, 7440.076
1196.648, 7441.062
1197.130, 7441.080
1197.612, 7438.394
1198.094, 7425.834
1198.576, 7413.105
1199.058, 7419.305
1199.541, 7431.939
1200.023, 7423.983
1200.505, 7396.494
1200.987, 7376.604
1201.469, 7376.122
1201.951, 7367.901
1202.433, 7327.598
1202.915, 7303.422
1203.397, 7330.073
1203.880, 7351.770
1204.362, 7331.068
1204.844, 7298.874
1205.326, 7299.727
1205.808, 7324.919
1206.290, 7322.164
1206.772, 7289.446
1207.254, 7267.901
1207.736, 7259.094
1208.219, 7267.775
1208.701, 7293.335
1209.183, 7305.753
1209.665, 7287.777
1210.147, 7272.880
1210.629, 7309.288
1211.111, 7354.613
1211.593, 7347.323
1212.076, 7316.183
1212.558, 7290.337
1213.040, 7275.667
1213.522, 7286.177
1214.004, 7313.510
1214.486, 7313.037
1214.968, 7260.961
1215.450, 7226.518
1215.932, 7240.705
1216.415, 7253.556
1216.897, 7249.533
1217.379, 7245.682
1217.861, 7251.668
1218.343, 7261.212
1218.825, 7268.993
1219.307, 7272.184
1219.789, 7253.063
1220.271, 7212.162
1220.754, 7205.603
1221.236, 7231.150
1221.718, 7241.038
1222.200, 7228.519
1222.682, 7225.135
1223.164, 7245.109
1223.646, 7255.649
1224.128, 7215.460
1224.611, 7172.440
1225.093, 7173.313
1225.575, 7200.669
1226.057, 7262.418
1226.539, 7321.111
1227.021, 7313.402
1227.503, 7255.863
1227.985, 7226.454
1228.468, 7246.828
1228.950, 7242.854
1229.432, 7180.564
1229.914, 7144.752
1230.396, 7152.540
1230.878, 7170.910
1231.360, 7193.350
1231.842, 7200.518
1232.324, 7168.896
1232.807, 7125.230
1233.289, 7136.980
1233.771, 7188.479
1234.253, 7208.015
1234.735, 7199.656
1235.217, 7168.695
1235.699, 7125.385
1236.181, 7104.867
1236.663, 7113.895
1237.146, 7111.336
1237.628, 7064.123
1238.110, 7028.317
1238.592, 7048.195
1239.074, 7076.686
1239.556, 7092.630
1240.038, 7097.841
1240.520, 7082.621
1241.003, 7064.891
1241.485, 7083.142
1241.967, 7133.186
1242.449, 7151.889
1242.931, 7131.701
1243.413, 7117.544
1243.895, 7111.223
1244.377, 7112.209
1244.859, 7120.479
1245.342, 7122.698
1245.824, 7111.187
1246.306, 7093.366
1246.788, 7077.743
1247.270, 7060.736
1247.752, 7029.696
1248.234, 7000.197
1248.716, 6995.049
1249.198, 7006.396
1249.681, 7022.908
1250.163, 7040.459
1250.645, 7055.422
1251.127, 7068.548
1251.609, 7068.356
1252.091, 7033.206
1252.573, 7017.455
1253.055, 7034.636
1253.538, 7057.844
1254.020, 7081.939
1254.502, 7093.826
1254.984, 7078.638
1255.466, 7053.257
1255.948, 7056.643
1256.430, 7078.180
1256.912, 7068.780
1257.395, 7040.256
1257.877, 7036.029
1258.359, 7048.613
1258.841, 7029.920
1259.323, 6977.018
1259.805, 6952.833
1260.287, 6994.553
1260.769, 7035.471
1261.251, 7044.882
1261.734, 7042.805
1262.216, 7029.809
1262.698, 7017.533
1263.180, 7009.943
1263.662, 7011.300
1264.144, 7031.885
1264.626, 7063.100
1265.108, 7067.010
1265.590, 7042.060
1266.073, 7042.833
1266.555, 7066.294
1267.037, 7052.927
1267.519, 7000.063
1268.001, 6962.306
1268.483, 6959.762
1268.965, 6965.691
1269.447, 6961.645
1269.930, 6957.427
1270.412, 6964.489
##END=



