##NAMES=Chenevixite
##RRUFFID=R100177
##IDEAL CHEMISTRY=Cu^2+^Fe^3+^(As^5+^O_4_)(OH)_2_
##LOCALITY=Patagonia Mountains, Harshaw District, Santa Cruz County, Arizona
##OWNER=RRUFF
##SOURCE=Joe Ruiz
##DESCRIPTION=Transparent green thin tabular crystals
##STATUS=The identification of this mineral has been confirmed only by single crystal X-ray diffraction.
##URL=rruff.info/R100177
90.60547, 86.57498
91.08759, 88.69732
91.56970, 90.54086
92.05182, 90.08945
92.53394, 88.64949
93.01605, 87.28457
93.49817, 86.96691
93.98029, 87.51237
94.46240, 87.27351
94.94452, 85.63027
95.42664, 83.58928
95.90874, 81.53835
96.39086, 79.57718
96.87298, 78.01479
97.35509, 77.34875
97.83721, 77.99245
98.31933, 77.83865
98.80145, 76.25229
99.28356, 74.31552
99.76568, 72.67683
100.2478, 71.55788
100.7299, 70.84122
101.2120, 70.26814
101.6941, 69.31803
102.1763, 69.13811
102.6584, 70.32364
103.1405, 72.19678
103.6226, 73.84812
104.1047, 74.78703
104.5868, 75.06570
105.0690, 75.07350
105.5511, 75.26426
106.0332, 74.85444
106.5153, 73.27738
106.9974, 70.62403
107.4795, 67.59808
107.9617, 64.27380
108.4438, 60.99227
108.9259, 58.84692
109.4080, 58.82684
109.8901, 59.70879
110.3722, 59.66739
110.8544, 58.28455
111.3365, 56.92797
111.8186, 56.75098
112.3007, 57.27215
112.7828, 57.54393
113.2649, 56.74690
113.7471, 54.99458
114.2292, 53.86283
114.7113, 53.96880
115.1934, 54.16214
115.6755, 54.06025
116.1576, 53.64397
116.6397, 53.02627
117.1219, 52.32668
117.6040, 51.58147
118.0861, 50.60876
118.5682, 48.93911
119.0503, 47.41331
119.5324, 46.64719
120.0146, 46.72163
120.4967, 47.16648
120.9788, 47.19807
121.4609, 46.33691
121.9430, 45.75391
122.4251, 45.78035
122.9073, 45.97625
123.3894, 45.69239
123.8715, 44.59709
124.3536, 43.19883
124.8357, 42.94915
125.3178, 44.29271
125.8000, 45.50203
126.2821, 45.84877
126.7642, 45.50182
127.2463, 45.07234
127.7284, 44.79282
128.2105, 44.61847
128.6927, 44.45015
129.1748, 44.29693
129.6569, 44.12890
130.1390, 43.85201
130.6211, 43.41799
131.1032, 43.16848
131.5854, 43.41949
132.0675, 43.87508
132.5496, 44.32627
133.0317, 44.76804
133.5138, 45.06535
133.9959, 44.80310
134.4781, 43.37135
134.9602, 42.37056
135.4423, 42.55690
135.9244, 43.31242
136.4065, 43.79093
136.8886, 43.42105
137.3708, 42.28714
137.8529, 41.60275
138.3350, 42.04840
138.8171, 42.29089
139.2992, 41.84399
139.7813, 40.91575
140.2635, 40.01054
140.7456, 39.55682
141.2277, 39.60450
141.7098, 39.72775
142.1919, 40.03919
142.6740, 40.31812
143.1561, 40.36261
143.6383, 40.19356
144.1204, 40.09067
144.6025, 40.39338
145.0846, 41.19482
145.5667, 41.73496
146.0488, 41.93359
146.5310, 41.88029
147.0131, 41.61295
147.4952, 41.10693
147.9773, 40.54321
148.4594, 40.22322
148.9415, 40.09555
149.4237, 39.73093
149.9058, 38.71819
150.3879, 37.32794
150.8700, 36.37669
151.3521, 36.22733
151.8342, 36.22802
152.3164, 35.72712
152.7985, 34.79694
153.2806, 33.97417
153.7627, 33.75706
154.2448, 34.15916
154.7269, 34.42329
155.2091, 34.28289
155.6912, 34.10040
156.1733, 34.04583
156.6554, 34.13654
157.1375, 34.30313
157.6196, 34.45883
158.1018, 34.57760
158.5839, 34.76647
159.0660, 35.02053
159.5481, 35.34152
160.0302, 35.79770
160.5123, 36.38081
160.9945, 36.95338
161.4766, 37.26249
161.9587, 37.09753
162.4408, 36.96081
162.9229, 36.74695
163.4050, 36.61103
163.8871, 36.76609
164.3693, 37.28611
164.8514, 37.97340
165.3335, 38.34004
165.8156, 38.05831
166.2977, 37.91334
166.7798, 38.06310
167.2620, 38.38546
167.7441, 38.70969
168.2262, 38.97018
168.7083, 39.16987
169.1904, 39.28197
169.6725, 39.13884
170.1547, 39.20251
170.6368, 39.80251
171.1189, 40.79633
171.6010, 41.70013
172.0831, 42.30059
172.5652, 42.66053
173.0474, 42.95854
173.5295, 43.12932
174.0116, 43.35981
174.4937, 43.81693
174.9758, 44.50084
175.4579, 45.22063
175.9401, 45.95557
176.4222, 46.65368
176.9043, 47.26319
177.3864, 47.78649
177.8685, 48.19711
178.3506, 48.40468
178.8328, 48.31919
179.3149, 48.35943
179.7970, 48.74862
180.2791, 49.28539
180.7612, 49.82133
181.2433, 50.31263
181.7255, 50.75189
182.2076, 51.08343
182.6897, 51.10294
183.1718, 51.41546
183.6539, 52.52448
184.1360, 53.78859
184.6181, 54.48949
185.1003, 54.25818
185.5824, 53.37489
186.0645, 52.83730
186.5466, 52.96320
187.0287, 53.07796
187.5108, 53.01696
187.9930, 52.91282
188.4751, 52.91682
188.9572, 53.10832
189.4393, 53.49375
189.9214, 54.12652
190.4035, 55.56843
190.8857, 56.63329
191.3678, 56.82482
191.8499, 56.50446
192.3320, 56.32671
192.8141, 56.71009
193.2962, 57.54945
193.7784, 58.02183
194.2605, 57.89541
194.7426, 57.74701
195.2247, 57.70594
195.7068, 57.78931
196.1889, 58.05453
196.6711, 58.60249
197.1532, 59.33484
197.6353, 59.76712
198.1174, 59.70968
198.5995, 59.56264
199.0816, 59.55110
199.5638, 59.65358
200.0459, 59.70228
200.5280, 59.50164
201.0101, 59.21729
201.4922, 59.31549
201.9743, 60.27047
202.4565, 61.15162
202.9386, 60.98609
203.4207, 59.74233
203.9028, 58.60045
204.3849, 58.35491
204.8670, 58.55906
205.3492, 58.56202
205.8313, 58.12755
206.3134, 57.60930
206.7955, 57.58974
207.2776, 58.25245
207.7597, 58.55412
208.2419, 57.48879
208.7240, 56.01183
209.2061, 55.06188
209.6882, 55.01045
210.1703, 55.46039
210.6524, 55.73308
211.1346, 55.72903
211.6167, 55.80126
212.0988, 56.15517
212.5809, 56.58984
213.0630, 56.88885
213.5451, 56.94532
214.0273, 56.90123
214.5094, 57.13323
214.9915, 58.00083
215.4736, 58.46729
215.9557, 57.93457
216.4378, 57.14589
216.9200, 56.91142
217.4021, 57.60806
217.8842, 58.84632
218.3663, 59.51561
218.8484, 59.11613
219.3305, 58.82988
219.8127, 58.89338
220.2948, 59.09271
220.7769, 59.19209
221.2590, 59.08414
221.7411, 58.84226
222.2232, 58.68409
222.7054, 58.74027
223.1875, 58.72626
223.6696, 58.82686
224.1517, 58.78150
224.6338, 58.21397
225.1159, 56.95174
225.5980, 55.25142
226.0802, 53.85386
226.5623, 53.22742
227.0444, 52.35531
227.5265, 50.90211
228.0086, 49.23674
228.4907, 47.86425
228.9729, 47.00288
229.4550, 46.48029
229.9371, 45.86853
230.4192, 45.00076
230.9013, 44.30452
231.3834, 43.98811
231.8656, 43.85363
232.3477, 43.58052
232.8298, 43.02675
233.3119, 42.36174
233.7940, 41.97584
234.2761, 41.95254
234.7583, 41.92632
235.2404, 41.73018
235.7225, 41.48363
236.2046, 41.44075
236.6867, 41.73904
237.1688, 42.13288
237.6510, 42.15149
238.1331, 41.75531
238.6152, 41.37627
239.0973, 41.10797
239.5794, 40.96064
240.0615, 40.99152
240.5437, 41.27211
241.0258, 41.61978
241.5079, 41.75077
241.9900, 41.66468
242.4721, 41.66637
242.9542, 41.89003
243.4364, 42.29694
243.9185, 42.82794
244.4006, 43.55636
244.8827, 44.24580
245.3648, 44.69348
245.8469, 44.91819
246.3290, 44.94613
246.8112, 44.76982
247.2933, 44.40587
247.7754, 43.81228
248.2575, 42.72383
248.7396, 41.86755
249.2217, 42.03661
249.7039, 42.94084
250.1860, 43.59182
250.6681, 43.22139
251.1502, 42.13226
251.6323, 41.49651
252.1144, 41.65580
252.5966, 41.79802
253.0787, 41.39027
253.5608, 40.60722
254.0429, 39.82604
254.5250, 39.20934
255.0071, 38.76038
255.4893, 38.50400
255.9714, 38.51667
256.4535, 38.61757
256.9356, 38.74728
257.4177, 38.89045
257.8998, 39.03456
258.3820, 39.20776
258.8641, 39.36006
259.3462, 39.27084
259.8283, 38.67741
260.3104, 38.28509
260.7925, 38.59322
261.2747, 39.13102
261.7568, 39.22952
262.2389, 38.48412
262.7210, 37.23030
263.2031, 36.44748
263.6852, 36.37213
264.1674, 36.40050
264.6495, 36.39528
265.1316, 36.39616
265.6137, 36.45706
266.0958, 36.60398
266.5779, 36.79548
267.0601, 36.94344
267.5422, 37.08550
268.0243, 37.09987
268.5064, 36.93684
268.9885, 36.68083
269.4706, 36.32821
269.9528, 35.88979
270.4349, 35.53608
270.9170, 35.68324
271.3991, 36.90100
271.8812, 37.46619
272.3633, 36.84682
272.8455, 35.91264
273.3276, 35.21136
273.8097, 34.91801
274.2918, 35.01051
274.7739, 35.55165
275.2560, 37.02782
275.7382, 37.89040
276.2202, 37.86298
276.7024, 37.56980
277.1845, 37.27920
277.6666, 37.09426
278.1487, 37.09754
278.6308, 37.39739
279.1129, 38.04524
279.5951, 38.83170
280.0772, 40.11238
280.5593, 41.21047
281.0414, 41.62424
281.5235, 41.45141
282.0056, 41.23135
282.4878, 41.51943
282.9699, 42.44536
283.4520, 42.93547
283.9341, 42.48217
284.4162, 42.15088
284.8983, 42.42921
285.3805, 43.20930
285.8626, 44.11995
286.3447, 44.89130
286.8268, 45.52208
287.3089, 46.08777
287.7910, 46.57752
288.2732, 47.02001
288.7553, 47.34109
289.2374, 47.62273
289.7195, 48.04463
290.2016, 48.73771
290.6837, 49.61071
291.1659, 50.15880
291.6480, 50.15695
292.1301, 50.09197
292.6122, 50.15247
293.0943, 50.16750
293.5764, 49.83940
294.0586, 49.01981
294.5407, 47.90802
295.0228, 47.04016
295.5049, 46.60953
295.9870, 46.20286
296.4691, 45.76737
296.9513, 45.36607
297.4334, 45.10711
297.9155, 45.01986
298.3976, 44.97009
298.8797, 44.72094
299.3618, 44.04366
299.8440, 43.60473
300.3261, 43.70077
300.8082, 43.84807
301.2903, 43.50069
301.7724, 42.62152
302.2545, 41.81423
302.7367, 41.87182
303.2188, 43.21437
303.7009, 43.73420
304.1830, 42.66341
304.6651, 41.47615
305.1472, 41.19558
305.6294, 41.76659
306.1115, 42.40291
306.5936, 42.40540
307.0757, 41.72348
307.5578, 41.38668
308.0399, 41.72234
308.5221, 42.01368
309.0042, 41.87461
309.4863, 41.42537
309.9684, 41.02936
310.4505, 40.93084
310.9326, 41.07438
311.4148, 41.07446
311.8969, 40.77740
312.3790, 40.53783
312.8611, 40.57903
313.3432, 40.70843
313.8253, 40.51407
314.3075, 39.77494
314.7896, 38.83813
315.2717, 38.62497
315.7538, 40.18460
316.2359, 40.94700
316.7180, 40.08786
317.2001, 38.60628
317.6823, 37.55525
318.1644, 37.24062
318.6465, 37.36747
319.1286, 37.52861
319.6107, 37.82568
320.0928, 37.87083
320.5750, 37.54020
321.0571, 37.05198
321.5392, 36.43050
322.0213, 35.74875
322.5034, 35.28943
322.9855, 35.36895
323.4677, 36.08181
323.9498, 36.70699
324.4319, 37.26685
324.9140, 37.73612
325.3961, 38.14695
325.8782, 38.46522
326.3604, 38.58032
326.8425, 38.38414
327.3246, 37.91667
327.8067, 37.63123
328.2888, 37.53680
328.7709, 37.58304
329.2531, 37.73949
329.7352, 38.03341
330.2173, 38.62428
330.6994, 39.61668
331.1815, 40.71211
331.6636, 41.09864
332.1458, 39.65182
332.6279, 38.87648
333.1100, 39.38447
333.5921, 40.33340
334.0742, 40.92764
334.5563, 40.93464
335.0385, 40.59609
335.5206, 40.23384
336.0027, 39.75774
336.4848, 39.51585
336.9669, 39.56411
337.4490, 39.77047
337.9312, 40.12475
338.4133, 40.57986
338.8954, 40.98611
339.3775, 41.17324
339.8596, 41.09821
340.3417, 41.36050
340.8239, 42.42013
341.3060, 43.29440
341.7881, 43.49710
342.2702, 43.25288
342.7523, 43.03016
343.2344, 43.11097
343.7166, 43.46056
344.1987, 43.91200
344.6808, 44.60630
345.1629, 45.24788
345.6450, 45.76804
346.1271, 46.23561
346.6093, 46.74649
347.0914, 47.32890
347.5735, 47.91527
348.0556, 48.36520
348.5377, 48.62354
349.0198, 48.83579
349.5020, 49.06978
349.9841, 49.21857
350.4662, 49.25617
350.9483, 49.15155
351.4304, 48.82136
351.9125, 48.14256
352.3947, 47.05511
352.8768, 46.02736
353.3589, 44.69004
353.8410, 43.77643
354.3231, 43.76921
354.8052, 44.39182
355.2874, 45.09752
355.7695, 45.55317
356.2516, 45.74871
356.7337, 45.60177
357.2158, 44.61024
357.6979, 43.96699
358.1800, 44.23140
358.6621, 44.78366
359.1443, 44.88409
359.6264, 44.25148
360.1085, 43.30328
360.5906, 42.85997
361.0727, 43.28041
361.5548, 43.25688
362.0370, 42.30527
362.5191, 41.17013
363.0012, 40.29515
363.4833, 39.71562
363.9654, 39.21296
364.4475, 38.52245
364.9297, 37.61950
365.4118, 36.96075
365.8939, 36.94131
366.3760, 36.72785
366.8581, 35.64455
367.3402, 34.14038
367.8224, 33.17359
368.3045, 33.46516
368.7866, 34.55019
369.2687, 35.05640
369.7508, 34.81647
370.2329, 34.33885
370.7151, 33.58847
371.1972, 32.80427
371.6793, 32.21872
372.1614, 31.91025
372.6435, 31.75870
373.1256, 31.67090
373.6078, 31.65817
374.0899, 31.55474
374.5720, 31.34435
375.0541, 31.00099
375.5362, 30.35482
376.0183, 29.46677
376.5005, 28.84838
376.9826, 29.07635
377.4647, 29.87694
377.9468, 30.21890
378.4289, 29.93315
378.9110, 29.42081
379.3932, 28.83327
379.8753, 28.22648
380.3574, 27.70873
380.8395, 27.26208
381.3216, 26.96643
381.8037, 26.96358
382.2859, 27.25784
382.7680, 27.64234
383.2501, 28.19488
383.7322, 28.66108
384.2143, 28.59415
384.6964, 27.79440
385.1786, 27.14301
385.6607, 27.29873
386.1428, 27.99423
386.6249, 28.52320
387.1070, 28.70862
387.5891, 28.73083
388.0713, 28.72485
388.5534, 28.69573
389.0355, 28.81506
389.5176, 29.31663
389.9997, 29.85876
390.4818, 30.07916
390.9640, 29.97021
391.4461, 29.73639
391.9282, 29.41542
392.4103, 29.10387
392.8924, 29.23790
393.3745, 30.43203
393.8567, 31.36172
394.3388, 31.34392
394.8209, 30.71329
395.3030, 30.03630
395.7851, 29.48778
396.2672, 29.16879
396.7494, 29.29023
397.2315, 30.08236
397.7136, 30.78167
398.1957, 31.32935
398.6778, 31.79596
399.1599, 32.26930
399.6420, 32.74133
400.1241, 33.08969
400.6063, 33.17002
401.0884, 32.96709
401.5705, 33.04583
402.0526, 33.71863
402.5347, 34.28677
403.0168, 34.41440
403.4990, 34.32154
403.9811, 34.40261
404.4632, 34.84945
404.9453, 35.48570
405.4274, 35.88085
405.9095, 35.90042
406.3917, 35.88491
406.8738, 35.60114
407.3559, 35.46341
407.8380, 35.97266
408.3201, 37.05289
408.8022, 38.02088
409.2844, 38.10291
409.7665, 37.21559
410.2486, 36.77525
410.7307, 37.26366
411.2128, 37.69695
411.6949, 37.62157
412.1771, 37.33265
412.6592, 37.36930
413.1413, 38.04836
413.6234, 39.02045
414.1055, 39.47111
414.5876, 39.16822
415.0698, 39.05840
415.5519, 39.46864
416.0340, 40.08220
416.5161, 40.73922
416.9982, 41.41176
417.4803, 42.06306
417.9625, 42.65170
418.4446, 43.18732
418.9267, 43.74900
419.4088, 44.32716
419.8909, 44.95570
420.3730, 45.71394
420.8552, 46.52889
421.3373, 47.23029
421.8194, 47.66656
422.3015, 48.06216
422.7836, 48.67056
423.2657, 49.48992
423.7479, 50.44670
424.2300, 51.52753
424.7121, 52.72531
425.1942, 54.10899
425.6763, 55.77509
426.1584, 57.12854
426.6406, 57.73308
427.1227, 57.91252
427.6048, 58.15614
428.0869, 58.53950
428.5690, 59.09389
429.0511, 59.91099
429.5333, 60.98910
430.0154, 61.87569
430.4975, 62.73815
430.9796, 63.25054
431.4617, 62.88276
431.9438, 61.99981
432.4260, 61.65668
432.9081, 62.43886
433.3902, 63.69524
433.8723, 63.84949
434.3544, 61.84830
434.8365, 60.46599
435.3187, 60.20891
435.8008, 60.32540
436.2829, 60.37062
436.7650, 60.19793
437.2471, 59.64820
437.7292, 58.51192
438.2114, 56.76186
438.6935, 55.34087
439.1756, 54.61842
439.6577, 53.81551
440.1398, 52.68532
440.6219, 51.39599
441.1040, 50.22471
441.5862, 49.29169
442.0683, 48.41357
442.5504, 47.15760
443.0325, 45.19104
443.5146, 43.86570
443.9967, 43.98450
444.4789, 44.20057
444.9610, 43.72723
445.4431, 42.68419
445.9252, 41.73742
446.4073, 41.47751
446.8894, 41.68077
447.3716, 41.43461
447.8537, 40.54053
448.3358, 39.69234
448.8179, 39.21418
449.3000, 38.93097
449.7821, 38.66296
450.2643, 38.36216
450.7464, 38.12788
451.2285, 38.19657
451.7106, 38.45755
452.1927, 38.28424
452.6748, 37.39589
453.1570, 36.37459
453.6391, 35.83201
454.1212, 35.67441
454.6033, 35.53946
455.0854, 35.34479
455.5675, 35.13894
456.0497, 35.06560
456.5318, 35.06778
457.0139, 34.77658
457.4960, 33.93340
457.9781, 32.76136
458.4602, 31.83628
458.9424, 31.04976
459.4245, 30.66180
459.9066, 31.06800
460.3887, 31.70231
460.8708, 32.03530
461.3529, 31.97037
461.8351, 31.60549
462.3172, 30.97148
462.7993, 30.05268
463.2814, 29.48312
463.7635, 29.51058
464.2456, 29.57586
464.7278, 29.51621
465.2099, 29.41782
465.6920, 29.45789
466.1741, 29.69771
466.6562, 29.95073
467.1383, 29.86201
467.6205, 29.26578
468.1026, 28.84152
468.5847, 28.73671
469.0668, 28.69702
469.5489, 28.56899
470.0310, 28.40896
470.5132, 28.40451
470.9953, 28.73580
471.4774, 29.23713
471.9595, 29.46229
472.4416, 29.34334
472.9237, 29.20077
473.4059, 29.13363
473.8880, 29.10153
474.3701, 29.02443
474.8522, 28.88682
475.3343, 28.90244
475.8164, 29.31076
476.2986, 29.96564
476.7807, 30.52454
477.2628, 30.94822
477.7449, 31.27850
478.2270, 31.59882
478.7091, 31.84299
479.1913, 31.77904
479.6734, 31.02483
480.1555, 30.37219
480.6376, 30.34162
481.1197, 30.69662
481.6018, 30.93297
482.0839, 30.88281
482.5660, 30.72941
483.0482, 30.74496
483.5303, 31.02961
484.0124, 31.09866
484.4945, 30.58195
484.9766, 30.20918
485.4587, 30.57632
485.9409, 31.40705
486.4230, 31.98207
486.9051, 31.88734
487.3872, 31.34959
487.8693, 31.03087
488.3514, 31.08905
488.8336, 31.06879
489.3157, 30.81585
489.7978, 30.58137
490.2799, 30.58127
490.7620, 30.78470
491.2441, 30.97304
491.7263, 30.97040
492.2084, 30.80761
492.6905, 30.65483
493.1726, 30.58581
493.6547, 30.34966
494.1368, 29.49026
494.6190, 28.58529
495.1011, 28.31236
495.5832, 28.85203
496.0653, 29.51466
496.5474, 29.85741
497.0295, 29.91184
497.5117, 29.72409
497.9938, 29.25625
498.4759, 28.72604
498.9580, 28.25707
499.4401, 27.86724
499.9222, 27.62430
500.4044, 27.66488
500.8865, 27.71569
501.3686, 27.66737
501.8507, 27.52311
502.3328, 27.28118
502.8149, 26.93994
503.2971, 26.51793
503.7792, 25.99246
504.2613, 25.18924
504.7434, 24.96202
505.2255, 25.84463
505.7076, 26.71106
506.1898, 27.03210
506.6719, 26.92335
507.1540, 26.66857
507.6361, 26.40877
508.1182, 26.17203
508.6003, 26.00637
509.0825, 25.86062
509.5646, 25.92514
510.0467, 26.69091
510.5288, 27.26699
511.0109, 26.95351
511.4930, 25.95913
511.9752, 25.14710
512.4573, 25.24719
512.9394, 25.76648
513.4215, 25.45208
513.9036, 24.14722
514.3857, 22.96919
514.8679, 22.15187
515.3500, 21.84468
515.8321, 22.37575
516.3142, 23.87834
516.7963, 25.04032
517.2784, 25.19713
517.7606, 24.73222
518.2427, 23.99080
518.7248, 23.04567
519.2069, 22.37243
519.6890, 22.33775
520.1711, 22.81306
520.6533, 23.16479
521.1354, 23.63205
521.6175, 23.69027
522.0996, 22.86300
522.5817, 21.81015
523.0638, 21.20459
523.5460, 21.14450
524.0281, 21.32135
524.5102, 21.48320
524.9923, 21.62442
525.4744, 21.50768
525.9565, 20.87508
526.4387, 20.31512
526.9208, 19.88591
527.4029, 19.61323
527.8850, 19.56372
528.3671, 19.74309
528.8492, 19.99170
529.3314, 20.22842
529.8135, 20.42847
530.2956, 20.31037
530.7777, 19.74900
531.2598, 19.09608
531.7419, 18.35900
532.2241, 17.72120
532.7062, 17.57049
533.1883, 18.23656
533.6704, 18.87305
534.1525, 18.81281
534.6346, 18.30110
535.1168, 17.89166
535.5989, 17.70627
536.0810, 17.66646
536.5631, 17.71602
537.0452, 17.86040
537.5273, 17.98202
538.0095, 18.11431
538.4916, 18.18957
538.9737, 18.25731
539.4558, 18.22799
539.9379, 17.89099
540.4200, 17.20417
540.9022, 16.46683
541.3843, 16.09640
541.8664, 16.13596
542.3485, 16.30392
542.8306, 16.84334
543.3127, 17.24395
543.7948, 17.26261
544.2769, 17.06353
544.7590, 16.89320
545.2411, 16.84107
545.7233, 16.84175
546.2054, 16.78092
546.6875, 16.67180
547.1696, 16.75850
547.6517, 17.21106
548.1339, 17.61150
548.6160, 17.54852
549.0981, 17.14696
549.5802, 16.71636
550.0623, 16.18935
550.5444, 15.78195
551.0266, 15.72613
551.5087, 15.88649
551.9908, 15.91570
552.4729, 15.70192
552.9550, 15.48436
553.4371, 15.58324
553.9193, 16.08020
554.4014, 16.40104
554.8835, 16.32506
555.3656, 16.34301
555.8477, 16.77862
556.3298, 17.37469
556.8120, 17.73330
557.2941, 17.71381
557.7762, 17.49585
558.2583, 17.27771
558.7404, 17.03566
559.2225, 17.02421
559.7047, 17.53347
560.1868, 17.89680
560.6689, 17.60442
561.1510, 17.02279
561.6331, 16.82199
562.1152, 17.32693
562.5974, 17.90594
563.0795, 17.90007
563.5616, 17.47116
564.0437, 17.23851
564.5258, 17.36085
565.0079, 17.52121
565.4901, 17.44505
565.9722, 17.12879
566.4543, 16.75220
566.9364, 15.92775
567.4185, 15.48313
567.9006, 16.12610
568.3828, 17.19102
568.8649, 17.69889
569.3470, 17.41568
569.8291, 16.84626
570.3112, 16.56066
570.7933, 16.57368
571.2755, 16.58315
571.7576, 16.48989
572.2397, 16.52571
572.7218, 17.00708
573.2039, 17.51253
573.6860, 17.45125
574.1682, 16.69493
574.6503, 15.93219
575.1324, 15.89327
575.6145, 16.41689
576.0966, 16.81751
576.5787, 17.07125
577.0609, 17.11274
577.5430, 16.68569
578.0251, 16.08651
578.5072, 16.06699
578.9893, 17.01593
579.4714, 17.70014
579.9536, 17.31525
580.4357, 16.58266
580.9178, 16.51604
581.3999, 17.14944
581.8820, 17.66034
582.3641, 17.38167
582.8463, 16.48240
583.3284, 15.94559
583.8105, 15.95564
584.2926, 16.08436
584.7747, 16.50617
585.2568, 16.87251
585.7390, 16.82165
586.2211, 16.41960
586.7032, 16.08214
587.1853, 16.10748
587.6674, 16.40753
588.1495, 16.83978
588.6317, 17.47798
589.1138, 17.75811
589.5959, 17.23189
590.0780, 16.51920
590.5601, 16.40678
591.0422, 16.88201
591.5244, 17.26297
592.0065, 17.34260
592.4886, 17.23957
592.9707, 16.93426
593.4528, 16.52143
593.9349, 16.29019
594.4171, 16.37271
594.8992, 16.66925
595.3813, 17.01978
595.8634, 17.46094
596.3455, 17.84810
596.8276, 18.21786
597.3098, 18.50402
597.7919, 18.78448
598.2740, 18.93566
598.7561, 18.67780
599.2382, 17.87812
599.7203, 16.98167
600.2025, 16.62654
600.6846, 16.79572
601.1667, 16.86943
601.6488, 16.67398
602.1309, 16.60602
602.6130, 17.17823
603.0952, 18.04180
603.5773, 18.44946
604.0594, 18.12292
604.5415, 17.68360
605.0236, 17.38794
605.5057, 17.20395
605.9879, 17.03920
606.4700, 16.89662
606.9521, 16.98865
607.4342, 17.56411
607.9163, 18.50417
608.3984, 18.90158
608.8806, 18.26400
609.3627, 17.73632
609.8448, 17.54046
610.3269, 17.39223
610.8090, 16.98361
611.2911, 16.37179
611.7733, 15.92693
612.2554, 15.96009
612.7375, 16.28399
613.2196, 16.47841
613.7017, 16.53746
614.1838, 16.53441
614.6660, 16.47814
615.1481, 16.38361
615.6302, 16.19113
616.1123, 15.91327
616.5944, 15.88398
617.0765, 16.51977
617.5587, 17.09557
618.0408, 17.07400
618.5229, 16.62268
619.0050, 16.09660
619.4871, 15.62473
619.9692, 15.22205
620.4514, 14.89758
620.9335, 14.63506
621.4156, 14.57014
621.8977, 14.95720
622.3798, 15.24327
622.8619, 15.17016
623.3441, 14.98068
623.8262, 15.00278
624.3083, 15.30601
624.7904, 15.56674
625.2725, 15.41358
625.7546, 15.01709
626.2367, 14.89888
626.7188, 15.11326
627.2009, 15.24328
627.6830, 14.98904
628.1652, 14.57997
628.6473, 14.62184
629.1294, 15.35064
629.6115, 15.69864
630.0936, 15.20931
630.5757, 14.54652
631.0579, 14.10785
631.5400, 13.91119
632.0221, 13.86263
632.5042, 13.91436
632.9863, 14.10014
633.4684, 14.58239
633.9506, 15.51587
634.4327, 15.96611
634.9148, 15.56846
635.3969, 15.07159
635.8790, 14.74115
636.3611, 14.59664
636.8433, 14.75229
637.3254, 15.39132
637.8075, 15.82825
638.2896, 15.27990
638.7717, 14.26223
639.2538, 13.78241
639.7360, 13.97532
640.2181, 14.46190
640.7002, 15.07341
641.1823, 15.68366
641.6644, 15.77474
642.1465, 14.52669
642.6287, 13.89418
643.1108, 14.39234
643.5929, 15.08631
644.0750, 15.43705
644.5571, 15.43155
645.0392, 15.19947
645.5214, 14.74796
646.0035, 14.32493
646.4856, 14.50920
646.9677, 15.29666
647.4498, 15.59590
647.9319, 15.00583
648.4141, 14.32840
648.8962, 14.23724
649.3783, 14.60919
649.8604, 14.99317
650.3425, 15.53037
650.8246, 15.83562
651.3068, 15.56164
651.7889, 15.07296
652.2710, 14.79157
652.7531, 14.78233
653.2352, 14.93703
653.7173, 15.19906
654.1995, 15.51074
654.6816, 15.60369
655.1637, 15.33505
655.6458, 15.18937
656.1279, 15.50481
656.6100, 15.74100
657.0922, 15.43640
657.5743, 14.76178
658.0564, 14.33298
658.5385, 14.46317
659.0206, 14.82030
659.5027, 15.26721
659.9849, 15.68411
660.4670, 15.60602
660.9491, 14.90818
661.4312, 14.27606
661.9133, 14.41713
662.3954, 15.24181
662.8776, 15.46941
663.3597, 14.43476
663.8418, 13.66893
664.3239, 13.47409
664.8060, 13.48223
665.2881, 13.29376
665.7703, 12.98720
666.2524, 13.05589
666.7345, 13.98815
667.2166, 15.20745
667.6987, 15.51959
668.1808, 14.95563
668.6630, 14.73401
669.1451, 15.27474
669.6272, 15.90559
670.1093, 15.94377
670.5914, 15.43349
671.0735, 15.06303
671.5557, 14.85584
672.0378, 14.77357
672.5199, 14.87562
673.0020, 15.05659
673.4841, 15.19573
673.9662, 15.28497
674.4484, 15.42045
674.9305, 15.71102
675.4126, 16.05022
675.8947, 16.03674
676.3768, 15.56863
676.8589, 15.19909
677.3411, 15.05944
677.8232, 15.02842
678.3053, 15.05253
678.7874, 15.10546
679.2695, 15.08387
679.7516, 14.85498
680.2338, 14.68442
680.7159, 14.78378
681.1980, 15.02144
681.6801, 15.22128
682.1622, 15.33902
682.6443, 15.33494
683.1265, 15.13847
683.6086, 14.84037
684.0907, 14.93859
684.5728, 15.80498
685.0549, 16.25189
685.5370, 15.58949
686.0192, 14.93395
686.5013, 15.03112
686.9834, 15.67156
687.4655, 16.17052
687.9476, 16.24857
688.4297, 16.14920
688.9119, 15.97959
689.3940, 15.81396
689.8761, 15.91816
690.3582, 16.32674
690.8403, 16.59501
691.3224, 16.35570
691.8046, 15.71559
692.2867, 15.16320
692.7688, 14.53442
693.2509, 14.27697
693.7330, 14.82008
694.2151, 15.33393
694.6973, 15.24442
695.1794, 14.72704
695.6615, 14.25242
696.1436, 13.97873
696.6257, 13.96619
697.1078, 14.50761
697.5900, 15.37894
698.0721, 15.71441
698.5542, 15.35760
699.0363, 14.96517
699.5184, 14.96687
700.0005, 15.27881
700.4827, 15.61737
700.9648, 16.18104
701.4469, 16.43274
701.9290, 16.05326
702.4111, 15.65386
702.8932, 15.72069
703.3754, 16.02776
703.8575, 16.00181
704.3396, 15.38280
704.8217, 14.70950
705.3038, 14.72500
705.7859, 15.27484
706.2681, 15.63006
706.7502, 15.72679
707.2323, 15.64610
707.7144, 15.34519
708.1965, 14.96761
708.6786, 14.87015
709.1607, 15.18359
709.6428, 15.37696
710.1249, 15.29417
710.6071, 15.20433
711.0892, 15.32405
711.5713, 15.52318
712.0534, 15.50194
712.5355, 15.17633
713.0176, 14.90563
713.4998, 15.23355
713.9819, 16.00247
714.4640, 16.31159
714.9461, 16.08098
715.4282, 15.82961
715.9103, 15.75860
716.3925, 15.79781
716.8746, 15.88054
717.3567, 16.03003
717.8388, 16.02661
718.3209, 15.58607
718.8030, 15.27915
719.2852, 15.38043
719.7673, 15.77629
720.2494, 16.44862
720.7315, 17.30618
721.2136, 17.92718
721.6957, 17.85095
722.1779, 17.26568
722.6600, 16.80115
723.1421, 16.44694
723.6242, 16.31259
724.1063, 16.56052
724.5884, 16.83342
725.0706, 16.68901
725.5527, 16.16578
726.0348, 15.80796
726.5169, 15.67752
726.9990, 15.67362
727.4811, 15.85447
727.9633, 16.08678
728.4454, 16.20872
728.9275, 16.22674
729.4096, 16.29792
729.8917, 16.56628
730.3738, 16.85681
730.8560, 16.68521
731.3381, 16.02988
731.8202, 15.73705
732.3023, 16.05032
732.7844, 16.47853
733.2665, 16.63440
733.7487, 16.61984
734.2308, 16.83528
734.7129, 17.48033
735.1950, 17.97356
735.6771, 18.25149
736.1592, 18.29138
736.6414, 17.91303
737.1235, 17.29868
737.6056, 16.86974
738.0877, 16.81605
738.5698, 16.92837
739.0519, 16.89669
739.5341, 16.75028
740.0162, 16.79205
740.4983, 17.08678
740.9804, 17.32538
741.4625, 17.31964
741.9446, 17.20106
742.4268, 17.23507
742.9089, 17.47461
743.3910, 17.58146
743.8731, 17.33005
744.3552, 17.15467
744.8373, 17.36133
745.3195, 17.73129
745.8016, 17.97686
746.2837, 18.01917
746.7658, 17.90581
747.2479, 17.54437
747.7300, 17.12766
748.2122, 17.28248
748.6943, 18.01954
749.1764, 18.67520
749.6585, 19.10706
750.1406, 19.27249
750.6227, 19.01922
751.1049, 18.36996
751.5870, 18.08272
752.0691, 18.46844
752.5512, 18.76524
753.0333, 18.82817
753.5154, 18.75858
753.9976, 18.52114
754.4797, 18.22715
754.9618, 18.19819
755.4439, 18.67734
755.9260, 19.20531
756.4081, 18.94772
756.8903, 18.18641
757.3724, 18.22493
757.8545, 19.26594
758.3366, 20.31563
758.8187, 20.78180
759.3008, 20.82158
759.7830, 20.82578
760.2651, 20.82596
760.7472, 20.71030
761.2293, 20.21969
761.7114, 19.91006
762.1935, 20.12578
762.6757, 20.60217
763.1578, 21.02020
763.6399, 21.29879
764.1220, 21.43782
764.6041, 21.37252
765.0862, 21.20481
765.5684, 21.05560
766.0505, 20.93776
766.5326, 20.86202
767.0147, 20.82310
767.4968, 20.99137
767.9789, 21.61782
768.4611, 22.67149
768.9432, 23.30051
769.4253, 23.21093
769.9074, 23.20024
770.3895, 23.48726
770.8716, 23.80254
771.3538, 23.94371
771.8359, 23.95774
772.3180, 24.01033
772.8001, 24.10343
773.2822, 24.35046
773.7643, 24.99473
774.2465, 25.75681
774.7286, 26.14616
775.2107, 26.20098
775.6928, 26.40498
776.1749, 27.04485
776.6570, 27.83849
777.1392, 28.18834
777.6213, 28.00341
778.1034, 28.04151
778.5855, 28.35166
779.0676, 28.80557
779.5497, 29.42389
780.0319, 30.11267
780.5140, 30.73004
780.9961, 31.26903
781.4782, 31.87429
781.9603, 32.68175
782.4424, 33.45639
782.9246, 34.13985
783.4067, 34.67226
783.8888, 34.85651
784.3709, 34.73783
784.8530, 34.74014
785.3351, 35.22855
785.8173, 36.02691
786.2994, 36.67843
786.7815, 37.18014
787.2636, 37.82276
787.7457, 38.67282
788.2278, 39.63969
788.7100, 40.75051
789.1921, 41.89779
789.6742, 42.61156
790.1563, 42.51258
790.6384, 42.70331
791.1205, 43.52057
791.6026, 44.36140
792.0847, 44.81486
792.5668, 45.08624
793.0490, 45.59974
793.5311, 46.47253
794.0132, 47.31776
794.4953, 47.76204
794.9774, 47.99740
795.4595, 48.30351
795.9417, 48.70216
796.4238, 49.23852
796.9059, 49.92590
797.3880, 50.82265
797.8701, 52.06554
798.3522, 53.60946
798.8344, 54.58544
799.3165, 54.57853
799.7986, 54.80693
800.2807, 55.65844
800.7628, 56.62242
801.2449, 57.59322
801.7271, 58.42493
802.2092, 58.69032
802.6913, 58.01407
803.1734, 57.46032
803.6555, 57.70008
804.1376, 58.24968
804.6198, 58.68684
805.1019, 58.95436
805.5840, 59.06915
806.0661, 59.03633
806.5482, 58.82577
807.0303, 58.20031
807.5125, 57.27518
807.9946, 57.39072
808.4767, 58.83400
808.9588, 59.68523
809.4409, 59.17841
809.9230, 58.03054
810.4052, 56.96287
810.8873, 55.97670
811.3694, 55.00246
811.8515, 53.93148
812.3336, 53.02309
812.8157, 52.30631
813.2979, 51.79180
813.7800, 51.51117
814.2621, 51.44509
814.7442, 51.66318
815.2263, 52.31404
815.7084, 52.62877
816.1906, 51.48299
816.6727, 49.58561
817.1548, 48.35579
817.6369, 47.85384
818.1190, 47.71328
818.6011, 47.79987
819.0833, 47.89576
819.5654, 47.68742
820.0475, 47.16674
820.5296, 46.52888
821.0117, 45.70718
821.4938, 44.89065
821.9760, 44.03654
822.4581, 43.29126
822.9402, 42.83049
823.4223, 42.59814
823.9044, 42.32136
824.3865, 41.67976
824.8687, 41.39691
825.3508, 42.14014
825.8329, 43.07556
826.3150, 43.48330
826.7971, 43.34285
827.2792, 42.70459
827.7614, 41.57721
828.2435, 40.66137
828.7256, 41.16032
829.2077, 42.59141
829.6898, 42.93048
830.1719, 42.12816
830.6541, 41.63563
831.1362, 42.03657
831.6183, 42.76399
832.1004, 43.12422
832.5825, 43.12449
833.0646, 43.49171
833.5468, 44.62297
834.0289, 45.49786
834.5110, 45.69673
834.9931, 45.89278
835.4752, 46.60982
835.9573, 47.65486
836.4395, 48.49268
836.9216, 48.93637
837.4037, 49.33748
837.8858, 49.78064
838.3679, 50.35415
838.8500, 51.09364
839.3322, 52.05044
839.8143, 53.45698
840.2964, 55.34381
840.7785, 57.16925
841.2606, 58.25232
841.7427, 58.80261
842.2249, 59.62471
842.7070, 60.71982
843.1891, 61.90255
843.6712, 63.06243
844.1533, 64.53904
844.6354, 66.86112
845.1176, 69.69543
845.5997, 71.36347
846.0818, 70.42630
846.5639, 70.60027
847.0460, 72.83572
847.5281, 75.11780
848.0103, 76.51231
848.4924, 77.35210
848.9745, 78.17358
849.4566, 79.08259
849.9387, 79.95994
850.4208, 80.77795
850.9030, 81.51205
851.3851, 82.13752
851.8672, 82.67016
852.3493, 83.16079
852.8314, 83.60336
853.3135, 83.89822
853.7957, 83.93886
854.2778, 83.86740
854.7599, 83.92536
855.2420, 84.11762
855.7241, 84.91687
856.2062, 86.61303
856.6884, 87.67506
857.1705, 87.08424
857.6526, 85.60950
858.1347, 84.66039
858.6168, 84.39412
859.0989, 83.95205
859.5811, 83.26054
860.0632, 82.49344
860.5453, 82.11192
861.0274, 81.34624
861.5095, 79.19724
861.9916, 75.95046
862.4738, 73.06096
862.9559, 71.10738
863.4380, 69.43813
863.9201, 67.81250
864.4022, 66.12539
864.8843, 64.20067
865.3665, 62.09675
865.8486, 60.03543
866.3307, 58.11530
866.8128, 56.36562
867.2949, 54.95327
867.7770, 53.75316
868.2592, 52.00839
868.7413, 49.70643
869.2234, 48.15313
869.7055, 47.87994
870.1876, 47.68318
870.6697, 46.35820
871.1519, 44.17548
871.6340, 42.69273
872.1161, 42.39060
872.5981, 41.86507
873.0803, 40.74708
873.5624, 39.73912
874.0445, 39.29329
874.5266, 39.06426
875.0087, 38.51134
875.4908, 37.55196
875.9730, 36.64120
876.4551, 36.04394
876.9372, 35.42767
877.4193, 34.62752
877.9014, 33.66154
878.3835, 32.35671
878.8657, 30.87563
879.3478, 29.88819
879.8299, 29.87864
880.3120, 30.19828
880.7941, 29.93094
881.2762, 29.25323
881.7584, 28.76116
882.2405, 28.48175
882.7226, 28.12304
883.2047, 27.56085
883.6868, 26.81831
884.1689, 25.85659
884.6511, 24.69638
885.1332, 24.16573
885.6153, 24.61279
886.0974, 24.70383
886.5795, 23.90846
887.0616, 23.03324
887.5438, 22.66094
888.0259, 22.69029
888.5080, 22.81832
888.9901, 23.07465
889.4722, 23.34066
889.9543, 23.85864
890.4365, 24.10222
890.9186, 23.65493
891.4007, 22.83563
891.8828, 22.00825
892.3649, 21.26388
892.8470, 20.66330
893.3292, 20.23567
893.8113, 19.97108
894.2934, 19.84436
894.7755, 19.88157
895.2576, 20.21852
895.7397, 20.79342
896.2219, 21.34858
896.7040, 21.75316
897.1861, 21.90742
897.6682, 21.54640
898.1503, 20.75295
898.6324, 20.16570
899.1146, 19.79127
899.5967, 19.59344
900.0788, 19.58155
900.5609, 19.67760
901.0430, 19.84041
901.5251, 20.03795
902.0073, 20.05983
902.4894, 19.77917
902.9715, 19.58380
903.4536, 19.57400
903.9357, 19.55680
904.4178, 19.52670
904.9000, 19.40025
905.3821, 18.93073
905.8642, 18.06567
906.3463, 17.64933
906.8284, 18.20598
907.3105, 18.86820
907.7927, 19.59114
908.2748, 19.96480
908.7569, 19.30481
909.2390, 17.90554
909.7211, 16.75818
910.2032, 16.30343
910.6854, 16.21824
911.1675, 16.29782
911.6496, 16.50147
912.1317, 16.88891
912.6138, 17.34316
913.0959, 17.41434
913.5781, 16.99714
914.0602, 16.56642
914.5423, 16.55910
915.0244, 16.88286
915.5065, 17.37395
915.9886, 18.03715
916.4708, 18.26073
916.9529, 17.93596
917.4350, 17.31640
917.9171, 16.42649
918.3992, 15.52415
918.8813, 15.07868
919.3635, 15.14636
919.8456, 15.21736
920.3277, 15.24246
920.8098, 15.35218
921.2919, 15.65141
921.7740, 15.97555
922.2562, 16.34387
922.7383, 16.64020
923.2204, 16.46261
923.7025, 15.43633
924.1846, 14.78897
924.6667, 15.13782
925.1489, 15.61999
925.6310, 15.74911
926.1131, 15.66927
926.5952, 15.60241
927.0773, 15.58814
927.5594, 15.56070
928.0416, 15.47891
928.5237, 15.37836
929.0058, 15.27224
929.4879, 15.17787
929.9700, 15.11450
930.4521, 15.08841
930.9343, 15.14103
931.4164, 15.28434
931.8985, 15.37946
932.3806, 15.22870
932.8627, 14.91400
933.3448, 14.69148
933.8270, 14.55750
934.3091, 14.50208
934.7912, 14.53333
935.2733, 14.45284
935.7554, 14.08401
936.2375, 13.60047
936.7197, 13.45562
937.2018, 13.73995
937.6839, 13.82096
938.1660, 13.57517
938.6481, 13.44556
939.1302, 13.64804
939.6124, 13.93693
940.0945, 14.05909
940.5766, 14.03347
941.0587, 14.04049
941.5408, 13.96314
942.0229, 14.09486
942.5051, 14.82612
942.9872, 15.35515
943.4693, 15.07094
943.9514, 14.46345
944.4335, 14.26926
944.9156, 14.55841
945.3978, 14.68006
945.8799, 14.11691
946.3620, 13.69249
946.8441, 14.09834
947.3262, 14.64553
947.8083, 14.51977
948.2905, 13.91819
948.7726, 13.56104
949.2547, 13.71542
949.7368, 13.91912
950.2189, 13.63441
950.7010, 13.28814
951.1832, 13.62898
951.6653, 14.34072
952.1474, 14.62646
952.6295, 14.37042
953.1116, 13.93900
953.5938, 13.55005
954.0759, 13.22335
954.5580, 12.97563
955.0400, 12.81583
955.5222, 12.79610
956.0043, 12.91774
956.4864, 13.19769
956.9685, 13.66917
957.4506, 14.04302
957.9327, 14.02697
958.4149, 13.69235
958.8970, 13.28569
959.3791, 12.72433
959.8612, 12.56157
960.3433, 13.04717
960.8254, 13.33500
961.3076, 12.82961
961.7897, 12.19452
962.2718, 12.45658
962.7539, 13.64455
963.2360, 14.17228
963.7181, 13.46842
964.2003, 12.98225
964.6824, 13.14271
965.1645, 13.23311
965.6466, 12.62360
966.1287, 11.78946
966.6108, 11.59213
967.0930, 12.16368
967.5751, 12.75160
968.0572, 13.33730
968.5393, 13.73632
969.0214, 13.95179
969.5035, 13.88465
969.9857, 13.13756
970.4678, 12.07459
970.9499, 11.61048
971.4320, 12.07285
971.9141, 12.82075
972.3962, 13.89226
972.8784, 14.69007
973.3605, 14.40502
973.8426, 13.62148
974.3247, 13.33540
974.8068, 13.57555
975.2889, 13.61295
975.7711, 12.99410
976.2532, 12.33537
976.7353, 12.48814
977.2174, 12.99094
977.6995, 12.91409
978.1816, 12.40420
978.6638, 12.15903
979.1459, 12.34503
979.6280, 12.56503
980.1101, 12.50070
980.5922, 12.26154
981.0743, 12.02261
981.5565, 11.80311
982.0386, 11.73324
982.5207, 11.81981
983.0028, 11.98935
983.4849, 12.22813
983.9670, 12.36747
984.4492, 12.16166
984.9313, 11.75764
985.4134, 11.97019
985.8955, 12.94636
986.3776, 13.39529
986.8597, 13.10177
987.3419, 12.56349
987.8240, 11.87520
988.3061, 11.33812
988.7882, 11.42934
989.2703, 12.14456
989.7524, 12.76591
990.2346, 13.37587
990.7167, 13.69797
991.1988, 13.55280
991.6809, 13.31988
992.1630, 13.19466
992.6451, 13.12650
993.1273, 13.02321
993.6094, 12.87675
994.0915, 12.75627
994.5736, 12.51349
995.0557, 12.50439
995.5378, 13.18801
996.0200, 13.74458
996.5021, 13.40307
996.9842, 12.60396
997.4663, 12.30256
997.9484, 12.70675
998.4305, 12.98569
998.9127, 12.72675
999.3948, 12.55969
999.8769, 13.06257
1000.359, 13.52731
1000.841, 13.03339
1001.323, 11.96444
1001.805, 11.47336
1002.287, 11.95368
1002.770, 12.53110
1003.252, 12.92916
1003.734, 13.08021
1004.216, 12.57682
1004.698, 12.01922
1005.180, 12.45481
1005.662, 13.62756
1006.144, 14.22914
1006.627, 13.64183
1007.109, 12.80602
1007.591, 12.37710
1008.073, 12.22015
1008.555, 12.21007
1009.037, 12.33934
1009.519, 12.65997
1010.001, 13.13494
1010.483, 13.64444
1010.966, 14.15535
1011.448, 14.40542
1011.930, 13.83324
1012.412, 12.90198
1012.894, 12.57728
1013.376, 12.71332
1013.858, 12.66191
1014.340, 12.31135
1014.823, 12.13517
1015.305, 12.49685
1015.787, 13.03109
1016.269, 13.00661
1016.751, 12.64693
1017.233, 12.97499
1017.715, 13.89171
1018.197, 14.30027
1018.679, 13.89817
1019.162, 13.25791
1019.644, 12.79864
1020.126, 12.58245
1020.608, 12.92174
1021.090, 12.69281
1021.572, 13.82637
1022.054, 13.10426
1022.536, 12.90846
1023.018, 13.73393
1023.501, 14.58626
1023.983, 14.55644
1024.465, 13.90860
1024.947, 13.47030
1025.429, 13.26999
1025.911, 12.89395
1026.393, 12.23375
1026.875, 11.93243
1027.358, 12.28402
1027.840, 12.83224
1028.322, 13.13824
1028.804, 13.27121
1029.286, 13.56641
1029.768, 13.44171
1030.250, 14.18592
1030.732, 13.18496
1031.214, 12.41257
1031.697, 12.34594
1032.179, 12.59565
1032.661, 12.85085
1033.143, 13.07040
1033.625, 13.02538
1034.107, 12.55643
1034.589, 12.23009
1035.071, 12.14294
1035.553, 12.01821
1036.036, 11.60567
1036.518, 11.29766
1037.000, 11.61598
1037.482, 12.41181
1037.964, 12.80963
1038.446, 12.55200
1038.928, 12.39518
1039.410, 12.31788
1039.893, 12.37233
1040.375, 12.79585
1040.857, 13.18500
1041.339, 13.06353
1041.821, 12.53655
1042.303, 12.16206
1042.785, 11.78967
1043.267, 11.88018
1043.750, 13.12218
1044.232, 13.99546
1044.714, 13.79753
1045.196, 13.11728
1045.678, 12.24956
1046.160, 11.37184
1046.642, 11.21403
1047.124, 12.45454
1047.606, 13.02937
1048.089, 11.86864
1048.571, 10.97790
1049.053, 11.51150
1049.535, 12.41678
1050.017, 12.70331
1050.499, 12.41377
1050.981, 11.95184
1051.463, 11.13252
1051.945, 10.82020
1052.428, 11.76203
1052.910, 12.56443
1053.392, 12.48314
1053.874, 12.05194
1054.356, 11.74852
1054.838, 11.59408
1055.320, 11.48845
1055.802, 11.41219
1056.285, 11.38089
1056.767, 11.59134
1057.249, 11.61578
1057.731, 10.84641
1058.213, 10.10464
1058.695, 10.39036
1059.177, 11.41392
1059.659, 12.10057
1060.141, 12.12240
1060.624, 12.19146
1061.106, 12.80211
1061.588, 13.22353
1062.070, 12.95082
1062.552, 12.41578
1063.034, 11.95079
1063.516, 11.62400
1063.998, 11.52360
1064.480, 11.71428
1064.963, 11.77119
1065.445, 11.29971
1065.927, 10.92876
1066.409, 11.18248
1066.891, 11.53157
1067.373, 11.38309
1067.855, 10.91205
1068.337, 10.61776
1068.820, 10.62159
1069.302, 10.76029
1069.784, 11.02737
1070.266, 11.33396
1070.748, 11.78432
1071.230, 12.12286
1071.712, 12.05755
1072.194, 11.71495
1072.677, 11.29343
1073.159, 10.85061
1073.641, 10.76243
1074.123, 11.57895
1074.605, 12.29743
1075.087, 12.26923
1075.569, 12.04926
1076.051, 12.15738
1076.533, 12.42856
1077.016, 12.47506
1077.498, 12.23793
1077.980, 11.98765
1078.462, 11.87389
1078.944, 11.71805
1079.426, 11.29744
1079.908, 10.93140
1080.390, 10.94041
1080.872, 11.15004
1081.354, 11.20968
1081.837, 11.11479
1082.319, 11.26875
1082.801, 11.98702
1083.283, 12.66118
1083.765, 13.20974
1084.247, 13.39938
1084.729, 12.85322
1085.211, 11.96825
1085.694, 11.04972
1086.176, 10.29452
1086.658, 10.28679
1087.140, 11.59018
1087.622, 12.59921
1088.104, 12.44783
1088.586, 12.00877
1089.068, 11.71463
1089.551, 11.52857
1090.033, 11.42403
1090.515, 11.35307
1090.997, 11.16068
1091.479, 10.72603
1091.961, 10.53078
1092.443, 10.98906
1092.925, 11.44859
1093.407, 11.55261
1093.890, 11.50830
1094.372, 11.50680
1094.854, 11.54133
1095.336, 11.53566
1095.818, 11.46859
1096.300, 11.41991
1096.782, 11.42362
1097.264, 11.43889
1097.746, 11.49219
1098.229, 11.51040
1098.711, 11.41523
1099.193, 11.25148
1099.675, 11.07345
1100.157, 10.88994
1100.639, 10.83757
1101.121, 11.21340
1101.603, 11.34840
1102.086, 10.70563
1102.568, 10.15034
1103.050, 10.47141
1103.532, 11.06682
1104.014, 10.90061
1104.496, 10.02236
1104.978, 9.754807
1105.460, 10.94482
1105.943, 11.69957
1106.425, 11.46326
1106.907, 11.05204
1107.389, 10.72857
1107.871, 10.48637
1108.353, 10.31221
1108.835, 10.20134
1109.317, 10.12493
1109.799, 9.985455
1110.281, 10.11821
1110.764, 10.85306
1111.246, 11.45583
1111.728, 11.72614
1112.210, 11.78171
1112.692, 11.71179
1113.174, 11.49779
1113.656, 10.97989
1114.138, 9.923798
1114.621, 9.656007
1115.103, 11.07686
1115.585, 11.79994
1116.067, 11.02108
1116.549, 10.01593
1117.031, 9.363917
1117.513, 9.056081
1117.995, 9.160614
1118.478, 9.684020
1118.960, 9.953612
1119.442, 9.785563
1119.924, 9.800390
1120.406, 10.08700
1120.888, 10.52692
1121.370, 11.29344
1121.852, 11.81003
1122.334, 11.22870
1122.817, 11.54130
1123.299, 11.34922
1123.781, 10.70773
1124.263, 10.90027
1124.745, 9.600444
1125.227, 9.082206
1125.709, 10.28080
1126.191, 11.66675
1126.673, 11.94091
1127.156, 11.56699
1127.638, 11.73345
1128.120, 12.47448
1128.602, 12.60668
1129.084, 12.05519
1129.566, 11.67726
1130.048, 11.66684
1130.530, 11.59017
1131.013, 11.15237
1131.495, 10.78880
1131.977, 11.32003
1132.459, 12.38800
1132.941, 11.88838
1133.423, 9.998620
1133.905, 9.412467
1134.387, 10.36623
1134.870, 11.21104
1135.352, 11.29674
1135.834, 11.06950
1136.316, 10.90897
1136.798, 10.85163
1137.280, 11.08938
1137.762, 11.48155
1138.244, 11.49738
1138.726, 11.17349
1139.208, 10.70348
1139.691, 10.20279
1140.173, 10.17507
1140.655, 11.00237
1141.137, 11.80920
1141.619, 11.13945
1142.101, 9.928761
1142.583, 9.995108
1143.065, 10.79824
1143.548, 11.10144
1144.030, 10.83115
1144.512, 10.41989
1144.994, 10.05561
1145.476, 9.980429
1145.958, 10.66138
1146.440, 11.36674
1146.922, 11.25886
1147.405, 10.81607
1147.887, 10.59703
1148.369, 10.55383
1148.851, 10.46399
1149.333, 10.29552
1149.815, 10.18184
1150.297, 10.18284
1150.779, 10.25790
1151.261, 10.49625
1151.744, 10.67581
1152.226, 10.56198
1152.708, 10.34785
1153.190, 10.22749
1153.672, 10.22840
1154.154, 10.39527
1154.636, 10.79624
1155.118, 10.95127
1155.600, 10.37292
1156.083, 10.00084
1156.565, 10.38038
1157.047, 10.85076
1157.529, 11.02799
1158.011, 10.94544
1158.493, 10.61610
1158.975, 10.05013
1159.457, 9.642465
1159.940, 9.224130
1160.422, 9.292680
1160.904, 10.41233
1161.386, 11.21361
1161.868, 11.06050
1162.350, 10.59911
1162.832, 10.34331
1163.314, 10.26942
1163.796, 10.29872
1164.279, 10.40977
1164.761, 10.81388
1165.243, 11.72236
1165.725, 12.13017
1166.207, 11.71966
1166.689, 11.21189
1167.171, 11.01091
1167.653, 10.95175
1168.135, 10.76501
1168.618, 10.52749
1169.100, 10.82925
1169.582, 11.65382
1170.064, 11.73174
1170.546, 10.97149
1171.028, 10.16298
1171.510, 9.568679
1171.992, 9.271604
1172.474, 9.358099
1172.957, 9.673605
1173.439, 10.01033
1173.921, 10.34054
1174.403, 10.65524
1174.885, 10.88415
1175.367, 10.70367
1175.849, 10.16448
1176.331, 9.716584
1176.814, 9.559885
1177.296, 9.663615
1177.778, 10.14118
1178.260, 10.67529
1178.742, 10.97372
1179.224, 11.04419
1179.706, 10.70404
1180.188, 10.22292
1180.671, 10.19577
1181.153, 10.63474
1181.635, 10.94425
1182.117, 10.80824
1182.599, 10.72188
1183.081, 11.08030
1183.563, 11.41709
1184.045, 11.51115
1184.527, 11.38202
1185.010, 10.88421
1185.492, 10.24067
1185.974, 10.00556
1186.456, 10.28842
1186.938, 10.28432
1187.420, 9.384955
1187.902, 8.918538
1188.384, 9.453777
1188.866, 10.02416
1189.349, 10.29678
1189.831, 10.32032
1190.313, 10.03898
1190.795, 9.565363
1191.277, 9.329294
1191.759, 9.307600
1192.241, 9.709822
1192.723, 10.78308
1193.206, 11.33829
1193.688, 10.99351
1194.170, 10.67900
1194.652, 10.99299
1195.134, 11.39256
1195.616, 11.05708
1196.098, 10.20959
1196.580, 9.715369
1197.063, 9.585861
1197.545, 10.13862
1198.027, 11.26690
1198.509, 11.72979
1198.991, 11.22167
1199.473, 10.64484
1199.955, 10.61358
1200.437, 10.86636
1200.919, 11.17279
1201.401, 11.45478
1201.884, 11.59014
1202.366, 11.59270
1202.848, 11.56415
1203.330, 11.42430
1203.812, 10.67623
1204.294, 9.308622
1204.776, 8.724171
1205.258, 10.29682
1205.741, 11.76931
1206.223, 11.52524
1206.705, 10.80771
1207.187, 10.46465
1207.669, 10.29250
1208.151, 9.896333
1208.633, 9.387891
1209.115, 9.247419
1209.598, 9.630502
1210.080, 9.937845
1210.562, 10.13908
1211.044, 10.17091
1211.526, 9.777831
1212.008, 9.517393
1212.490, 9.725513
1212.972, 10.11969
1213.454, 10.43786
1213.937, 10.63952
1214.419, 10.44777
1214.901, 9.669271
1215.383, 9.611298
1215.865, 10.49163
1216.347, 10.62578
1216.829, 9.507806
1217.311, 8.797961
1217.793, 9.511766
1218.276, 10.74130
1218.758, 11.30076
1219.240, 11.40161
1219.722, 11.64189
1220.204, 11.94690
1220.686, 12.05967
1221.168, 11.97403
1221.650, 11.71974
1222.133, 11.33269
1222.615, 10.91092
1223.097, 10.48566
1223.579, 10.26071
1224.061, 10.64292
1224.543, 11.07762
1225.025, 10.86084
1225.507, 10.51569
1225.990, 10.80799
1226.472, 11.41853
1226.954, 11.57039
1227.436, 11.18486
1227.918, 10.90882
1228.400, 10.97493
1228.882, 11.06575
1229.364, 11.00789
1229.846, 11.09357
1230.328, 11.80929
1230.811, 12.32417
1231.293, 11.81203
1231.775, 10.81204
1232.257, 10.29468
1232.739, 10.25858
1233.221, 10.55630
1233.703, 11.37823
1234.185, 11.58016
1234.668, 10.90263
1235.150, 10.70298
1235.632, 11.49767
1236.114, 12.24425
1236.596, 12.10345
1237.078, 12.41442
1237.560, 11.61657
1238.042, 11.95565
1238.525, 11.53480
1239.007, 10.67426
1239.489, 10.53253
1239.971, 10.98224
1240.453, 10.86554
1240.935, 9.977345
1241.417, 9.674664
1241.899, 11.03887
1242.381, 12.37792
1242.864, 12.24614
1243.346, 11.64396
1243.828, 11.13670
1244.310, 10.84266
1244.792, 10.91957
1245.274, 11.25585
1245.756, 11.66466
1246.238, 12.11346
1246.720, 12.37615
1247.203, 12.58824
1247.685, 12.31253
1248.167, 10.76670
1248.649, 9.950404
1249.131, 11.00703
1249.613, 12.08147
1250.095, 11.64338
1250.577, 10.47197
1251.059, 10.07817
1251.542, 10.40792
1252.024, 10.89412
1252.506, 11.53559
1252.988, 11.92560
1253.470, 12.02797
1253.952, 11.86284
1254.434, 11.45883
1254.916, 11.10272
1255.399, 11.00745
1255.881, 10.95895
1256.363, 10.56601
1256.845, 10.16361
1257.327, 10.36977
1257.809, 10.21133
1258.291, 10.84040
1258.773, 10.63675
1259.255, 10.91318
1259.738, 11.64756
1260.220, 11.63466
1260.702, 9.883999
1261.184, 8.930292
1261.666, 10.14411
1262.148, 11.55377
1262.630, 13.16236
1263.112, 13.84595
1263.594, 11.87768
1264.077, 9.266186
1264.559, 9.208221
1265.041, 11.29612
1265.523, 11.95483
1266.005, 10.83838
1266.487, 10.39816
1266.969, 10.80044
1267.451, 10.80898
1267.934, 10.10977
1268.416, 9.872011
1268.898, 10.78432
1269.380, 11.84413
1269.862, 11.82010
1270.344, 11.25919
1270.826, 11.11553
1271.308, 11.18976
1271.791, 11.07317
1272.273, 10.87788
1272.755, 10.88931
1273.237, 11.12945
1273.719, 11.48173
1274.201, 11.91643
1274.683, 12.31045
1275.165, 12.91693
1275.647, 13.03449
1276.130, 11.91750
1276.612, 10.80299
1277.094, 10.41403
1277.576, 10.39315
1278.058, 10.35318
1278.540, 10.35105
1279.022, 10.58217
1279.504, 11.07842
1279.986, 11.35277
1280.469, 11.38979
1280.951, 11.27200
1281.433, 10.99689
1281.915, 10.73895
1282.397, 10.55818
1282.879, 10.59840
1283.361, 10.99301
1283.843, 11.52897
1284.326, 11.95381
1284.808, 12.26703
##END=



