##NAMES=Chenevixite
##RRUFFID=R040166
##IDEAL CHEMISTRY=Cu^2+^Fe^3+^(As^5+^O_4_)(OH)_2_
##LOCALITY=Volcanic Sunnyside mine, Santa Cruz County, Arizona, USA
##OWNER=RRUFF
##SOURCE=Andy Anderson
##DESCRIPTION=Green earthy massive
##STATUS=The identification of this mineral has been confirmed by X-ray diffraction and chemical analysis
##URL=rruff.info/R040166
##MEASURED CHEMISTRY=Cu_2.00_(Fe^3+^_1.98_[box]_0.02_)_Σ=2_((As_0.94_S_0.06_)O_4_)_2_(OH)_4_·1.49H_2_O
178.8734, 2295.990
179.3555, 2323.206
179.8376, 2360.242
180.3197, 2379.953
180.8019, 2368.775
181.2840, 2364.193
181.7661, 2385.059
182.2482, 2416.236
182.7303, 2438.131
183.2124, 2439.727
183.6946, 2428.540
184.1767, 2426.861
184.6588, 2442.538
185.1409, 2454.071
185.6230, 2453.531
186.1051, 2447.190
186.5873, 2441.221
187.0694, 2437.851
187.5515, 2438.295
188.0336, 2446.706
188.5157, 2468.687
188.9978, 2489.164
189.4800, 2507.553
189.9621, 2521.893
190.4442, 2528.996
190.9263, 2526.839
191.4084, 2519.832
191.8905, 2518.925
192.3727, 2528.053
192.8548, 2536.585
193.3369, 2540.899
193.8190, 2544.671
194.3011, 2552.375
194.7832, 2565.865
195.2654, 2581.494
195.7475, 2590.560
196.2296, 2587.163
196.7117, 2588.459
197.1938, 2599.357
197.6759, 2613.589
198.1581, 2626.979
198.6402, 2637.981
199.1223, 2645.352
199.6044, 2645.941
200.0865, 2634.914
200.5686, 2626.604
201.0508, 2621.839
201.5329, 2619.928
202.0150, 2622.100
202.4971, 2628.179
202.9792, 2634.222
203.4613, 2633.200
203.9435, 2620.630
204.4256, 2611.002
204.9077, 2606.452
205.3898, 2603.537
205.8719, 2600.121
206.3540, 2595.708
206.8362, 2590.972
207.3183, 2585.989
207.8004, 2578.215
208.2825, 2577.265
208.7646, 2589.350
209.2467, 2602.624
209.7289, 2610.885
210.2110, 2613.096
210.6931, 2611.437
211.1752, 2607.610
211.6573, 2600.190
212.1395, 2596.035
212.6216, 2593.736
213.1037, 2595.559
213.5858, 2606.152
214.0679, 2623.279
214.5500, 2638.770
215.0322, 2643.370
215.5143, 2634.520
215.9964, 2631.781
216.4785, 2644.840
216.9606, 2654.951
217.4427, 2651.859
217.9249, 2638.928
218.4070, 2627.017
218.8891, 2625.510
219.3712, 2634.724
219.8533, 2642.865
220.3354, 2650.083
220.8176, 2655.980
221.2997, 2661.971
221.7818, 2666.501
222.2639, 2666.378
222.7460, 2658.862
223.2281, 2644.648
223.7103, 2631.794
224.1924, 2615.700
224.6745, 2606.623
225.1566, 2616.490
225.6387, 2632.783
226.1208, 2636.072
226.6030, 2614.025
227.0851, 2573.216
227.5672, 2541.512
228.0493, 2527.644
228.5314, 2511.399
229.0135, 2484.999
229.4957, 2456.162
229.9778, 2433.527
230.4599, 2420.984
230.9420, 2416.539
231.4241, 2415.978
231.9062, 2423.373
232.3884, 2427.589
232.8705, 2425.395
233.3526, 2420.907
233.8347, 2418.493
234.3168, 2419.449
234.7989, 2420.300
235.2811, 2413.435
235.7632, 2391.459
236.2453, 2379.695
236.7274, 2388.518
237.2095, 2401.090
237.6916, 2404.137
238.1738, 2396.104
238.6559, 2387.749
239.1380, 2393.093
239.6201, 2415.653
240.1022, 2439.214
240.5843, 2473.110
241.0665, 2499.801
241.5486, 2507.929
242.0307, 2498.893
242.5128, 2483.699
242.9949, 2470.112
243.4770, 2457.402
243.9592, 2455.385
244.4413, 2477.479
244.9234, 2498.080
245.4055, 2507.664
245.8876, 2507.853
246.3697, 2504.456
246.8519, 2500.892
247.3340, 2497.226
247.8161, 2493.857
248.2982, 2487.492
248.7803, 2486.352
249.2624, 2497.189
249.7446, 2513.938
250.2267, 2526.562
250.7088, 2528.946
251.1909, 2524.643
251.6730, 2524.396
252.1551, 2531.314
252.6373, 2535.904
253.1194, 2530.974
253.6015, 2524.056
254.0836, 2524.941
254.5657, 2538.703
255.0478, 2555.530
255.5300, 2558.201
256.0121, 2542.440
256.4942, 2528.708
256.9763, 2524.236
257.4584, 2523.259
257.9406, 2523.619
258.4227, 2525.075
258.9048, 2522.716
259.3869, 2506.582
259.8690, 2475.542
260.3511, 2457.378
260.8333, 2467.186
261.3154, 2483.213
261.7975, 2491.269
262.2796, 2490.671
262.7617, 2484.988
263.2438, 2474.412
263.7260, 2459.997
264.2081, 2448.033
264.6902, 2439.482
265.1723, 2433.143
265.6544, 2426.646
266.1365, 2420.949
266.6187, 2419.790
267.1008, 2431.459
267.5829, 2447.684
268.0650, 2447.529
268.5471, 2424.719
269.0292, 2404.493
269.5114, 2412.891
269.9935, 2435.192
270.4756, 2445.873
270.9577, 2431.283
271.4398, 2408.207
271.9219, 2394.849
272.4041, 2391.402
272.8862, 2391.134
273.3683, 2392.912
273.8504, 2394.788
274.3325, 2393.042
274.8146, 2385.711
275.2968, 2377.991
275.7789, 2371.942
276.2610, 2368.011
276.7431, 2368.790
277.2252, 2377.018
277.7073, 2387.953
278.1895, 2392.607
278.6716, 2389.090
279.1537, 2389.110
279.6358, 2398.490
280.1179, 2413.798
280.6000, 2431.781
281.0822, 2453.075
281.5643, 2468.743
282.0464, 2463.350
282.5285, 2434.284
283.0106, 2418.107
283.4927, 2427.170
283.9749, 2445.631
284.4570, 2460.134
284.9391, 2469.458
285.4212, 2478.173
285.9033, 2490.632
286.3854, 2506.507
286.8676, 2516.433
287.3497, 2514.799
287.8318, 2513.245
288.3139, 2517.163
288.7960, 2525.737
289.2781, 2536.488
289.7603, 2548.383
290.2424, 2560.860
290.7245, 2571.259
291.2066, 2582.477
291.6887, 2588.311
292.1708, 2583.297
292.6530, 2573.972
293.1351, 2568.434
293.6172, 2569.517
294.0993, 2574.555
294.5814, 2579.055
295.0635, 2584.095
295.5457, 2586.229
296.0278, 2581.895
296.5099, 2577.423
296.9920, 2578.902
297.4741, 2585.963
297.9562, 2592.187
298.4384, 2590.147
298.9205, 2577.846
299.4026, 2571.250
299.8847, 2576.935
300.3668, 2581.585
300.8489, 2578.330
301.3311, 2570.457
301.8131, 2565.605
302.2953, 2569.126
302.7774, 2579.359
303.2595, 2588.160
303.7416, 2597.626
304.2237, 2602.017
304.7058, 2596.414
305.1880, 2587.371
305.6701, 2581.803
306.1522, 2582.293
306.6343, 2586.483
307.1164, 2591.261
307.5985, 2597.344
308.0807, 2601.252
308.5628, 2605.247
309.0449, 2604.641
309.5270, 2591.933
310.0091, 2568.117
310.4912, 2547.801
310.9734, 2546.289
311.4555, 2561.691
311.9376, 2573.995
312.4197, 2584.217
312.9018, 2587.126
313.3839, 2576.882
313.8661, 2557.482
314.3482, 2539.303
314.8303, 2526.300
315.3124, 2517.667
315.7945, 2512.095
316.2766, 2509.583
316.7588, 2510.217
317.2409, 2515.653
317.7230, 2523.897
318.2051, 2531.951
318.6872, 2540.471
319.1693, 2546.913
319.6515, 2550.677
320.1336, 2551.122
320.6157, 2543.221
321.0978, 2520.667
321.5799, 2496.381
322.0620, 2493.371
322.5442, 2514.110
323.0263, 2533.642
323.5084, 2546.182
323.9905, 2553.143
324.4726, 2555.424
324.9547, 2553.211
325.4369, 2549.058
325.9190, 2545.344
326.4011, 2542.147
326.8832, 2537.660
327.3653, 2528.574
327.8474, 2521.232
328.3296, 2519.729
328.8117, 2523.064
329.2938, 2527.855
329.7759, 2532.168
330.2580, 2536.347
330.7401, 2541.830
331.2223, 2548.911
331.7044, 2556.993
332.1865, 2568.245
332.6686, 2579.481
333.1507, 2587.583
333.6328, 2591.512
334.1150, 2591.861
334.5971, 2589.138
335.0792, 2581.968
335.5613, 2575.407
336.0434, 2566.872
336.5255, 2561.098
337.0077, 2560.960
337.4898, 2565.949
337.9719, 2574.177
338.4540, 2585.398
338.9361, 2598.696
339.4182, 2604.631
339.9004, 2592.305
340.3825, 2589.146
340.8646, 2609.206
341.3467, 2639.708
341.8288, 2664.594
342.3109, 2677.674
342.7931, 2684.419
343.2752, 2692.578
343.7573, 2702.475
344.2394, 2711.066
344.7215, 2709.567
345.2036, 2713.591
345.6858, 2742.398
346.1679, 2795.751
346.6500, 2839.912
347.1321, 2844.973
347.6142, 2824.740
348.0963, 2819.807
348.5785, 2838.970
349.0606, 2858.228
349.5427, 2854.413
350.0248, 2834.978
350.5069, 2821.770
350.9890, 2823.383
351.4712, 2828.753
351.9533, 2829.285
352.4354, 2825.615
352.9175, 2821.640
353.3996, 2819.747
353.8817, 2818.042
354.3639, 2810.446
354.8460, 2792.428
355.3281, 2779.246
355.8102, 2778.175
356.2923, 2781.978
356.7744, 2784.376
357.2566, 2783.478
357.7387, 2775.491
358.2208, 2754.239
358.7029, 2714.830
359.1850, 2690.007
359.6671, 2693.392
360.1493, 2695.657
360.6314, 2679.407
361.1135, 2651.871
361.5956, 2631.351
362.0777, 2629.336
362.5598, 2639.520
363.0420, 2638.486
363.5241, 2618.401
364.0062, 2599.136
364.4883, 2584.017
364.9704, 2570.039
365.4525, 2551.451
365.9347, 2528.397
366.4168, 2511.160
366.8989, 2517.490
367.3810, 2549.906
367.8631, 2563.462
368.3452, 2543.134
368.8274, 2518.986
369.3095, 2502.356
369.7916, 2493.867
370.2737, 2495.387
370.7558, 2515.864
371.2379, 2540.215
371.7201, 2540.087
372.2022, 2513.125
372.6843, 2483.737
373.1664, 2455.264
373.6485, 2435.108
374.1306, 2435.967
374.6128, 2465.163
375.0949, 2490.379
375.5770, 2491.208
376.0591, 2476.745
376.5412, 2464.243
377.0233, 2457.096
377.5055, 2452.722
377.9876, 2448.389
378.4697, 2444.062
378.9518, 2442.742
379.4339, 2446.599
379.9160, 2451.565
380.3982, 2458.171
380.8803, 2464.126
381.3624, 2462.203
381.8445, 2447.445
382.3266, 2425.876
382.8087, 2415.777
383.2909, 2434.455
383.7730, 2442.105
384.2551, 2425.956
384.7372, 2406.356
385.2193, 2402.245
385.7014, 2415.077
386.1836, 2430.479
386.6657, 2432.665
387.1478, 2420.726
387.6299, 2413.115
388.1120, 2415.268
388.5941, 2415.457
389.0763, 2407.658
389.5584, 2395.990
390.0405, 2386.200
390.5226, 2379.770
391.0047, 2378.886
391.4868, 2389.549
391.9690, 2413.273
392.4511, 2434.135
392.9332, 2451.085
393.4153, 2460.063
393.8974, 2453.487
394.3795, 2431.693
394.8617, 2416.239
395.3438, 2424.464
395.8259, 2443.425
396.3080, 2450.193
396.7901, 2442.193
397.2722, 2433.273
397.7544, 2433.643
398.2365, 2441.239
398.7186, 2444.214
399.2007, 2431.892
399.6828, 2426.873
400.1649, 2448.088
400.6471, 2480.004
401.1292, 2495.087
401.6113, 2484.246
402.0934, 2461.328
402.5755, 2445.174
403.0576, 2433.206
403.5398, 2438.150
404.0219, 2475.856
404.5040, 2513.380
404.9861, 2536.023
405.4682, 2544.273
405.9503, 2541.612
406.4325, 2528.424
406.9146, 2510.163
407.3967, 2508.104
407.8788, 2533.477
408.3609, 2551.973
408.8430, 2551.095
409.3252, 2545.287
409.8073, 2546.190
410.2894, 2555.405
410.7715, 2565.675
411.2536, 2569.225
411.7357, 2567.981
412.2179, 2571.113
412.7000, 2578.202
413.1821, 2592.112
413.6642, 2625.822
414.1463, 2667.128
414.6284, 2688.461
415.1106, 2666.892
415.5927, 2646.003
416.0748, 2663.044
416.5569, 2707.443
417.0390, 2745.899
417.5211, 2766.254
418.0033, 2779.433
418.4854, 2801.615
418.9675, 2835.716
419.4496, 2869.434
419.9317, 2904.432
420.4138, 2937.014
420.8960, 2964.487
421.3781, 2987.374
421.8602, 3007.297
422.3423, 3024.961
422.8244, 3041.552
423.3065, 3062.059
423.7887, 3087.638
424.2708, 3115.809
424.7529, 3148.119
425.2350, 3181.459
425.7171, 3214.943
426.1992, 3247.671
426.6814, 3275.872
427.1635, 3294.427
427.6456, 3304.276
428.1277, 3315.390
428.6098, 3329.654
429.0919, 3341.469
429.5741, 3345.852
430.0562, 3346.641
430.5383, 3349.366
431.0204, 3355.535
431.5025, 3363.431
431.9846, 3377.562
432.4668, 3393.260
432.9489, 3390.574
433.4310, 3360.653
433.9131, 3324.149
434.3952, 3308.695
434.8773, 3317.864
435.3595, 3308.273
435.8416, 3259.326
436.3237, 3207.515
436.8058, 3178.803
437.2879, 3165.741
437.7701, 3144.376
438.2522, 3101.701
438.7343, 3048.445
439.2164, 3012.793
439.6985, 3008.842
440.1806, 2997.855
440.6628, 2970.656
441.1449, 2943.751
441.6270, 2932.125
442.1091, 2932.117
442.5912, 2925.558
443.0733, 2894.680
443.5555, 2848.265
444.0376, 2822.841
444.5197, 2826.864
445.0018, 2828.152
445.4839, 2810.574
445.9660, 2786.053
446.4482, 2764.815
446.9303, 2747.998
447.4124, 2735.957
447.8945, 2732.802
448.3766, 2733.835
448.8587, 2729.268
449.3409, 2717.645
449.8230, 2702.325
450.3051, 2684.982
450.7872, 2665.874
451.2693, 2648.016
451.7514, 2630.470
452.2336, 2615.146
452.7157, 2602.487
453.1978, 2592.542
453.6799, 2587.452
454.1620, 2587.215
454.6441, 2585.632
455.1263, 2573.594
455.6084, 2548.214
456.0905, 2528.856
456.5726, 2524.903
457.0547, 2517.630
457.5368, 2495.558
458.0190, 2467.804
458.5011, 2449.269
458.9832, 2446.647
459.4653, 2453.317
459.9474, 2461.977
460.4295, 2472.672
460.9117, 2480.408
461.3938, 2485.296
461.8759, 2485.285
462.3580, 2477.553
462.8401, 2463.215
463.3222, 2447.367
463.8044, 2425.925
464.2865, 2407.751
464.7686, 2402.289
465.2507, 2407.463
465.7328, 2416.134
466.2149, 2426.344
466.6971, 2434.307
467.1792, 2431.833
467.6613, 2409.723
468.1434, 2396.601
468.6255, 2399.931
469.1076, 2405.570
469.5898, 2405.598
470.0719, 2400.186
470.5540, 2391.441
471.0361, 2379.521
471.5182, 2368.258
472.0003, 2370.880
472.4825, 2394.740
472.9646, 2412.362
473.4467, 2414.753
473.9288, 2411.034
474.4109, 2402.629
474.8930, 2391.398
475.3752, 2387.405
475.8573, 2403.701
476.3394, 2428.006
476.8215, 2439.161
477.3036, 2436.573
477.7857, 2428.507
478.2679, 2416.309
478.7500, 2403.499
479.2321, 2399.477
479.7142, 2407.795
480.1963, 2414.476
480.6784, 2415.777
481.1606, 2415.048
481.6427, 2415.063
482.1248, 2416.115
482.6069, 2417.314
483.0890, 2417.941
483.5711, 2418.224
484.0533, 2419.695
484.5354, 2425.006
485.0175, 2407.769
485.4996, 2432.170
485.9817, 2446.583
486.4638, 2451.528
486.9460, 2419.617
487.4281, 2434.553
487.9102, 2430.259
488.3923, 2424.866
488.8744, 2445.466
489.3565, 2417.244
489.8387, 2436.777
490.3208, 2436.792
490.8029, 2445.267
491.2850, 2434.395
491.7671, 2429.074
492.2492, 2442.455
492.7314, 2444.975
493.2135, 2430.614
493.6956, 2437.698
494.1777, 2405.562
494.6598, 2407.231
495.1419, 2423.302
495.6241, 2408.272
496.1062, 2414.079
496.5883, 2411.501
497.0704, 2378.255
497.5525, 2377.937
498.0346, 2383.127
498.5168, 2388.543
498.9989, 2392.246
499.4810, 2391.393
499.9631, 2379.599
500.4452, 2361.506
500.9273, 2357.086
501.4095, 2370.150
501.8916, 2381.006
502.3737, 2382.835
502.8558, 2376.097
503.3379, 2360.448
503.8200, 2332.615
504.3022, 2310.005
504.7843, 2298.879
505.2664, 2296.605
505.7485, 2305.593
506.2306, 2323.099
506.7127, 2333.309
507.1949, 2324.240
507.6770, 2301.521
508.1591, 2290.182
508.6412, 2305.307
509.1233, 2309.615
509.6054, 2289.249
510.0876, 2267.030
510.5697, 2260.414
511.0518, 2269.028
511.5339, 2281.578
512.0161, 2292.553
512.4982, 2299.989
512.9803, 2295.973
513.4624, 2278.003
513.9445, 2264.260
514.4266, 2264.396
514.9088, 2268.965
515.3909, 2263.299
515.8730, 2245.977
516.3551, 2236.606
516.8372, 2250.384
517.3193, 2267.833
517.8015, 2269.959
518.2836, 2258.642
518.7657, 2246.916
519.2478, 2242.128
519.7299, 2239.159
520.2120, 2224.361
520.6942, 2181.267
521.1763, 2158.234
521.6584, 2169.514
522.1405, 2185.021
522.6226, 2189.623
523.1047, 2184.993
523.5869, 2178.833
524.0690, 2174.761
524.5511, 2172.118
525.0332, 2169.770
525.5153, 2167.722
525.9974, 2166.459
526.4796, 2164.996
526.9617, 2166.189
527.4438, 2177.737
527.9259, 2197.712
528.4080, 2205.588
528.8901, 2188.376
529.3723, 2168.291
529.8544, 2158.279
530.3365, 2154.905
530.8186, 2150.643
531.3007, 2142.934
531.7828, 2135.233
532.2650, 2132.888
532.7471, 2137.339
533.2292, 2137.976
533.7113, 2127.753
534.1934, 2121.910
534.6755, 2132.263
535.1577, 2146.896
535.6398, 2146.411
536.1219, 2123.485
536.6040, 2102.146
537.0861, 2110.944
537.5682, 2139.538
538.0504, 2154.086
538.5325, 2149.833
539.0146, 2136.837
539.4967, 2117.613
539.9788, 2095.766
540.4609, 2089.180
540.9431, 2112.771
541.4252, 2129.338
541.9073, 2127.971
542.3894, 2118.476
542.8715, 2106.981
543.3536, 2096.200
543.8358, 2090.682
544.3179, 2095.132
544.8000, 2106.678
545.2821, 2112.696
545.7642, 2112.001
546.2463, 2108.956
546.7285, 2100.791
547.2106, 2093.582
547.6927, 2093.526
548.1748, 2100.045
548.6569, 2104.681
549.1390, 2099.556
549.6211, 2093.664
550.1032, 2100.938
550.5853, 2117.435
551.0674, 2124.428
551.5496, 2113.608
552.0317, 2094.393
552.5138, 2081.812
552.9959, 2077.698
553.4780, 2074.110
553.9601, 2070.519
554.4423, 2067.915
554.9244, 2067.040
555.4065, 2067.303
555.8886, 2067.048
556.3707, 2065.572
556.8528, 2066.269
557.3350, 2075.599
557.8171, 2092.025
558.2992, 2103.135
558.7813, 2107.721
559.2634, 2106.953
559.7455, 2098.241
560.2277, 2085.083
560.7098, 2078.558
561.1919, 2080.650
561.6740, 2085.985
562.1561, 2099.709
562.6382, 2111.699
563.1204, 2107.308
563.6025, 2088.315
564.0846, 2071.354
564.5667, 2068.836
565.0488, 2077.085
565.5309, 2081.354
566.0131, 2079.534
566.4952, 2079.068
566.9773, 2083.136
567.4594, 2087.412
567.9415, 2089.621
568.4236, 2089.686
568.9058, 2087.986
569.3879, 2083.561
569.8700, 2078.437
570.3521, 2073.758
570.8342, 2069.982
571.3163, 2068.854
571.7985, 2070.982
572.2806, 2075.402
572.7627, 2081.973
573.2448, 2091.797
573.7269, 2093.301
574.2090, 2080.311
574.6912, 2066.821
575.1733, 2051.116
575.6554, 2039.442
576.1375, 2042.347
576.6196, 2060.542
577.1017, 2077.047
577.5839, 2073.674
578.0660, 2056.332
578.5481, 2043.651
579.0302, 2035.696
579.5123, 2035.050
579.9944, 2046.575
580.4766, 2062.925
580.9587, 2069.182
581.4408, 2063.492
581.9229, 2058.064
582.4050, 2052.120
582.8871, 2049.139
583.3693, 2054.844
583.8514, 2064.940
584.3335, 2070.726
584.8156, 2068.183
585.2977, 2059.263
585.7798, 2042.808
586.2620, 2016.820
586.7441, 2009.195
587.2262, 2031.838
587.7083, 2055.473
588.1904, 2064.826
588.6725, 2063.877
589.1547, 2057.337
589.6368, 2043.299
590.1189, 2030.397
590.6010, 2021.993
591.0831, 2017.468
591.5652, 2015.825
592.0474, 2017.144
592.5295, 2023.575
593.0116, 2037.446
593.4937, 2054.802
593.9758, 2063.896
594.4579, 2064.432
594.9401, 2057.292
595.4222, 2027.615
595.9043, 2003.975
596.3864, 2006.455
596.8685, 2026.412
597.3506, 2040.970
597.8328, 2040.616
598.3149, 2034.308
598.7970, 2027.376
599.2791, 2021.031
599.7612, 2019.632
600.2433, 2024.032
600.7255, 2027.491
601.2076, 2023.188
601.6897, 2012.911
602.1718, 2011.438
602.6539, 2033.275
603.1360, 2043.940
603.6182, 2030.611
604.1003, 2013.467
604.5824, 2007.980
605.0645, 2013.339
605.5466, 2019.451
606.0287, 2021.341
606.5109, 2019.754
606.9930, 2013.039
607.4751, 2002.491
607.9572, 1999.385
608.4393, 2007.651
608.9214, 2019.841
609.4036, 2030.192
609.8857, 2038.659
610.3678, 2038.370
610.8499, 2019.167
611.3320, 2004.940
611.8141, 2006.174
612.2963, 2011.878
612.7784, 2009.835
613.2605, 1999.673
613.7426, 1990.761
614.2247, 1990.776
614.7068, 1996.548
615.1890, 2001.151
615.6711, 2004.660
616.1532, 2004.889
616.6353, 1999.951
617.1174, 1993.727
617.5995, 1990.129
618.0817, 1989.220
618.5638, 1990.493
619.0459, 1998.211
619.5280, 2003.166
620.0101, 2000.063
620.4922, 1993.052
620.9744, 1987.577
621.4565, 1984.517
621.9386, 1980.376
622.4207, 1969.773
622.9028, 1956.513
623.3849, 1957.877
623.8671, 1976.818
624.3492, 1993.283
624.8313, 2001.416
625.3134, 2004.345
625.7955, 2005.022
626.2776, 2003.584
626.7598, 2000.586
627.2419, 1996.092
627.7240, 1990.071
628.2061, 1981.160
628.6882, 1971.287
629.1703, 1963.828
629.6525, 1959.238
630.1346, 1953.892
630.6167, 1941.719
631.0988, 1926.171
631.5809, 1929.691
632.0630, 1959.038
632.5452, 1980.918
633.0273, 1982.578
633.5094, 1975.077
633.9915, 1970.063
634.4736, 1967.400
634.9557, 1964.380
635.4379, 1957.887
635.9200, 1953.662
636.4021, 1955.945
636.8842, 1962.240
637.3663, 1970.215
637.8484, 1978.506
638.3306, 1983.227
638.8127, 1979.358
639.2948, 1968.733
639.7769, 1962.851
640.2590, 1962.701
640.7411, 1964.050
641.2233, 1968.952
641.7054, 1971.673
642.1875, 1963.626
642.6696, 1946.025
643.1517, 1934.666
643.6339, 1938.471
644.1160, 1943.251
644.5981, 1938.090
645.0802, 1930.098
645.5623, 1932.725
646.0444, 1947.350
646.5266, 1960.781
647.0087, 1959.629
647.4908, 1947.678
647.9729, 1943.968
648.4550, 1951.659
648.9371, 1954.694
649.4193, 1945.836
649.9014, 1934.339
650.3835, 1928.479
650.8656, 1927.779
651.3477, 1929.265
651.8298, 1934.810
652.3120, 1939.743
652.7941, 1943.833
653.2762, 1945.071
653.7583, 1937.750
654.2404, 1923.084
654.7225, 1912.202
655.2047, 1915.166
655.6868, 1927.313
656.1689, 1932.799
656.6510, 1930.391
657.1331, 1928.869
657.6152, 1929.961
658.0974, 1932.555
658.5795, 1936.517
659.0616, 1941.369
659.5437, 1944.802
660.0258, 1945.058
660.5079, 1945.816
660.9901, 1949.177
661.4722, 1953.115
661.9543, 1955.651
662.4364, 1956.581
662.9185, 1956.841
663.4006, 1957.315
663.8828, 1956.713
664.3649, 1951.584
664.8470, 1941.775
665.3291, 1931.390
665.8112, 1918.163
666.2933, 1911.566
666.7755, 1922.708
667.2576, 1946.537
667.7397, 1960.724
668.2218, 1963.056
668.7039, 1959.491
669.1860, 1945.114
669.6682, 1930.229
670.1503, 1922.117
670.6324, 1920.674
671.1145, 1924.235
671.5966, 1932.692
672.0787, 1940.468
672.5609, 1935.951
673.0430, 1922.023
673.5251, 1922.148
674.0072, 1941.401
674.4893, 1957.232
674.9714, 1953.903
675.4536, 1939.955
675.9357, 1938.207
676.4178, 1957.997
676.8999, 1969.511
677.3820, 1967.579
677.8641, 1961.717
678.3463, 1955.249
678.8284, 1948.832
679.3105, 1941.980
679.7926, 1934.560
680.2747, 1929.955
680.7568, 1933.969
681.2390, 1942.562
681.7211, 1945.105
682.2032, 1941.550
682.6853, 1939.860
683.1674, 1943.966
683.6495, 1949.955
684.1317, 1951.933
684.6138, 1949.587
685.0959, 1944.804
685.5780, 1930.720
686.0601, 1922.434
686.5422, 1928.276
687.0244, 1938.836
687.5065, 1945.804
687.9886, 1947.626
688.4707, 1943.997
688.9528, 1928.594
689.4349, 1912.355
689.9171, 1910.166
690.3992, 1917.534
690.8813, 1920.558
691.3634, 1915.526
691.8455, 1909.281
692.3276, 1909.089
692.8098, 1913.912
693.2919, 1913.964
693.7740, 1905.281
694.2561, 1900.678
694.7382, 1906.891
695.2203, 1913.972
695.7025, 1913.222
696.1846, 1907.248
696.6667, 1906.548
697.1488, 1919.139
697.6309, 1929.367
698.1130, 1924.483
698.5952, 1915.021
699.0773, 1914.398
699.5594, 1923.007
700.0415, 1934.228
700.5236, 1944.373
701.0057, 1952.841
701.4879, 1959.584
701.9700, 1964.938
702.4521, 1960.316
702.9342, 1940.312
703.4163, 1922.384
703.8984, 1919.033
704.3806, 1923.944
704.8627, 1920.915
705.3448, 1905.054
705.8269, 1895.805
706.3090, 1900.969
706.7911, 1908.269
707.2733, 1910.787
707.7554, 1910.203
708.2375, 1909.998
708.7196, 1911.274
709.2017, 1913.091
709.6838, 1914.069
710.1660, 1915.030
710.6481, 1919.299
711.1302, 1926.556
711.6123, 1930.688
712.0944, 1929.453
712.5765, 1924.300
713.0587, 1915.591
713.5408, 1902.721
714.0229, 1899.460
714.5050, 1917.987
714.9871, 1929.469
715.4692, 1922.949
715.9514, 1912.911
716.4335, 1912.697
716.9156, 1920.520
717.3977, 1923.545
717.8798, 1912.096
718.3619, 1900.654
718.8441, 1903.672
719.3262, 1913.393
719.8083, 1917.046
720.2904, 1912.994
720.7725, 1903.950
721.2546, 1890.617
721.7368, 1878.280
722.2189, 1882.456
722.7010, 1906.807
723.1831, 1922.183
723.6652, 1924.462
724.1473, 1921.319
724.6295, 1912.659
725.1116, 1903.125
725.5937, 1904.050
726.0758, 1921.687
726.5579, 1927.799
727.0400, 1902.713
727.5222, 1879.515
728.0043, 1880.520
728.4864, 1895.798
728.9685, 1908.527
729.4506, 1913.968
729.9327, 1917.500
730.4149, 1926.919
730.8970, 1936.632
731.3791, 1930.368
731.8612, 1910.178
732.3433, 1895.587
732.8254, 1892.342
733.3076, 1895.926
733.7897, 1903.424
734.2718, 1913.932
734.7539, 1915.176
735.2360, 1896.880
735.7181, 1886.582
736.2003, 1891.456
736.6824, 1901.066
737.1645, 1912.122
737.6466, 1922.587
738.1287, 1927.881
738.6108, 1925.542
739.0930, 1921.000
739.5751, 1914.290
740.0572, 1909.014
740.5393, 1911.209
741.0214, 1918.938
741.5035, 1925.227
741.9857, 1926.773
742.4678, 1925.213
742.9499, 1921.687
743.4320, 1916.530
743.9141, 1914.573
744.3962, 1916.261
744.8784, 1918.909
745.3605, 1921.152
745.8426, 1924.569
746.3247, 1933.142
746.8068, 1948.541
747.2889, 1952.619
747.7711, 1932.322
748.2532, 1918.296
748.7353, 1924.084
749.2174, 1934.394
749.6995, 1933.437
750.1816, 1923.143
750.6638, 1917.931
751.1459, 1926.374
751.6280, 1938.884
752.1101, 1949.771
752.5922, 1957.340
753.0743, 1955.450
753.5565, 1945.334
754.0386, 1938.838
754.5207, 1943.288
755.0028, 1952.600
755.4849, 1953.602
755.9670, 1944.664
756.4492, 1944.186
756.9313, 1957.567
757.4134, 1966.263
757.8955, 1958.207
758.3776, 1944.098
758.8597, 1940.293
759.3419, 1947.305
759.8240, 1956.376
760.3061, 1972.792
760.7882, 1984.023
761.2703, 1981.736
761.7524, 1974.291
762.2346, 1968.288
762.7167, 1965.904
763.1988, 1970.101
763.6809, 1985.906
764.1630, 2003.006
764.6451, 2009.649
765.1273, 2008.304
765.6094, 2002.778
766.0915, 1994.595
766.5736, 1990.905
767.0557, 1996.466
767.5378, 2007.643
768.0200, 2017.036
768.5021, 2024.647
768.9842, 2029.885
769.4663, 2031.050
769.9484, 2033.330
770.4305, 2038.281
770.9127, 2046.075
771.3948, 2060.216
771.8769, 2082.242
772.3590, 2090.669
772.8411, 2063.793
773.3232, 2045.898
773.8054, 2064.296
774.2875, 2093.463
774.7696, 2103.341
775.2517, 2094.921
775.7338, 2092.180
776.2159, 2110.634
776.6981, 2135.041
777.1802, 2149.610
777.6623, 2156.771
778.1444, 2161.956
778.6265, 2165.726
779.1086, 2164.689
779.5908, 2156.014
780.0729, 2148.086
780.5550, 2159.443
781.0371, 2193.133
781.5192, 2214.263
782.0013, 2218.170
782.4835, 2221.901
782.9656, 2230.760
783.4477, 2243.597
783.9298, 2261.909
784.4119, 2286.064
784.8940, 2299.629
785.3762, 2289.910
785.8583, 2285.002
786.3404, 2296.866
786.8225, 2313.104
787.3046, 2319.958
787.7867, 2321.143
788.2689, 2333.510
788.7510, 2368.419
789.2331, 2402.250
789.7152, 2410.996
790.1973, 2408.062
790.6794, 2414.412
791.1616, 2430.153
791.6437, 2447.271
792.1258, 2462.440
792.6079, 2476.609
793.0900, 2491.123
793.5721, 2505.896
794.0543, 2520.118
794.5364, 2533.866
795.0185, 2547.112
795.5006, 2560.424
795.9827, 2571.706
796.4648, 2576.567
796.9470, 2576.510
797.4291, 2587.452
797.9112, 2629.998
798.3933, 2653.704
798.8754, 2641.220
799.3575, 2624.372
799.8397, 2616.520
800.3218, 2618.870
800.8039, 2635.043
801.2860, 2669.031
801.7681, 2693.778
802.2502, 2686.318
802.7324, 2671.954
803.2145, 2677.281
803.6966, 2691.953
804.1787, 2691.795
804.6608, 2672.625
805.1429, 2653.478
805.6251, 2651.380
806.1072, 2658.527
806.5893, 2658.105
807.0714, 2651.126
807.5535, 2645.168
808.0356, 2641.527
808.5178, 2639.218
808.9999, 2638.595
809.4820, 2636.721
809.9641, 2625.719
810.4462, 2602.919
810.9283, 2580.055
811.4105, 2552.752
811.8926, 2532.474
812.3747, 2530.190
812.8568, 2532.951
813.3389, 2525.016
813.8210, 2506.319
814.3032, 2490.489
814.7853, 2482.311
815.2674, 2473.770
815.7495, 2463.876
816.2316, 2451.108
816.7137, 2428.786
817.1959, 2402.459
817.6780, 2388.968
818.1601, 2397.686
818.6422, 2409.523
819.1243, 2409.910
819.6064, 2402.066
820.0886, 2388.658
820.5707, 2371.528
821.0528, 2354.840
821.5349, 2340.115
822.0170, 2328.840
822.4991, 2322.154
822.9813, 2320.404
823.4634, 2327.916
823.9455, 2345.600
824.4276, 2353.821
824.9097, 2347.180
825.3918, 2335.358
825.8740, 2323.891
826.3561, 2314.123
826.8382, 2310.980
827.3203, 2317.344
827.8024, 2323.779
828.2845, 2333.682
828.7667, 2339.393
829.2488, 2334.258
829.7309, 2325.860
830.2130, 2322.965
830.6951, 2326.123
831.1772, 2331.393
831.6594, 2335.908
832.1415, 2344.723
832.6236, 2365.606
833.1057, 2387.794
833.5878, 2398.730
834.0699, 2400.746
834.5521, 2405.240
835.0342, 2417.653
835.5163, 2431.694
835.9984, 2438.410
836.4805, 2444.711
836.9626, 2463.992
837.4448, 2493.662
837.9269, 2521.988
838.4090, 2544.983
838.8911, 2567.054
839.3732, 2593.418
839.8553, 2621.839
840.3375, 2641.337
840.8196, 2651.516
841.3017, 2675.157
841.7838, 2718.485
842.2659, 2765.731
842.7480, 2808.565
843.2302, 2845.213
843.7123, 2869.990
844.1944, 2875.577
844.6765, 2894.405
845.1586, 2935.991
845.6407, 2976.572
846.1229, 3005.447
846.6050, 3031.761
847.0871, 3066.126
847.5692, 3107.649
848.0513, 3143.505
848.5334, 3172.739
849.0156, 3195.275
849.4977, 3206.149
849.9798, 3214.740
850.4619, 3231.487
850.9440, 3251.139
851.4261, 3259.928
851.9083, 3253.049
852.3904, 3245.387
852.8725, 3248.609
853.3546, 3254.314
853.8367, 3254.025
854.3188, 3249.161
854.8010, 3242.305
855.2831, 3234.591
855.7652, 3229.466
856.2473, 3232.104
856.7294, 3231.038
857.2115, 3199.402
857.6937, 3145.493
858.1758, 3108.310
858.6579, 3090.973
859.1400, 3071.062
859.6221, 3037.853
860.1042, 2999.128
860.5864, 2966.823
861.0685, 2940.475
861.5506, 2900.222
862.0327, 2840.221
862.5148, 2789.900
862.9969, 2759.566
863.4791, 2731.818
863.9612, 2691.699
864.4433, 2643.519
864.9254, 2603.994
865.4075, 2581.618
865.8896, 2549.831
866.3718, 2501.134
866.8539, 2452.156
867.3360, 2399.611
867.8181, 2355.458
868.3002, 2339.683
868.7823, 2350.587
869.2645, 2351.354
869.7466, 2325.239
870.2287, 2297.021
870.7108, 2275.140
871.1929, 2256.046
871.6750, 2236.965
872.1572, 2217.965
872.6393, 2200.200
873.1214, 2184.053
873.6035, 2168.510
874.0856, 2151.419
874.5677, 2135.615
875.0499, 2123.451
875.5320, 2115.192
876.0141, 2113.330
876.4962, 2116.761
876.9783, 2117.955
877.4604, 2111.835
877.9426, 2100.805
878.4247, 2087.124
878.9068, 2071.883
879.3889, 2058.747
879.8710, 2048.087
880.3531, 2041.380
880.8353, 2039.571
881.3174, 2037.260
881.7995, 2027.077
882.2816, 2011.063
882.7637, 2002.838
883.2458, 2003.533
883.7280, 2004.463
884.2101, 2005.470
884.6922, 2002.118
885.1743, 1989.908
885.6564, 1973.370
886.1385, 1962.311
886.6207, 1957.640
887.1028, 1954.232
887.5849, 1947.783
888.0670, 1949.775
888.5491, 1972.648
889.0313, 1996.841
889.5134, 2004.856
889.9955, 1999.547
890.4776, 1994.208
890.9597, 1991.693
891.4418, 1985.613
891.9240, 1970.096
892.4061, 1956.217
892.8882, 1951.899
893.3703, 1951.589
893.8524, 1946.845
894.3345, 1936.961
894.8167, 1929.264
895.2988, 1927.990
895.7809, 1928.075
896.2630, 1925.889
896.7451, 1924.401
897.2272, 1928.992
897.7094, 1936.692
898.1915, 1939.166
898.6736, 1933.413
899.1557, 1925.802
899.6378, 1923.878
900.1199, 1920.963
900.6021, 1903.328
901.0842, 1879.921
901.5663, 1872.269
902.0484, 1881.456
902.5305, 1890.076
903.0126, 1887.175
903.4948, 1879.166
903.9769, 1872.304
904.4590, 1868.435
904.9411, 1878.198
905.4232, 1898.983
905.9053, 1908.990
906.3875, 1901.159
906.8696, 1883.368
907.3517, 1860.443
907.8338, 1837.989
908.3159, 1839.229
908.7980, 1864.440
909.2802, 1870.693
909.7623, 1850.634
910.2444, 1834.334
910.7265, 1837.242
911.2086, 1848.510
911.6907, 1852.812
912.1729, 1850.223
912.6550, 1847.413
913.1371, 1843.653
913.6192, 1842.548
914.1013, 1847.799
914.5834, 1849.469
915.0656, 1836.527
915.5477, 1818.402
916.0298, 1818.878
916.5119, 1847.458
916.9940, 1858.716
917.4761, 1837.093
917.9583, 1820.168
918.4404, 1820.800
918.9225, 1825.685
919.4046, 1823.644
919.8867, 1816.996
920.3688, 1815.036
920.8510, 1820.844
921.3331, 1826.008
921.8152, 1833.688
922.2973, 1835.443
922.7794, 1822.106
923.2615, 1804.161
923.7437, 1793.834
924.2258, 1791.457
924.7079, 1790.008
925.1900, 1789.076
925.6721, 1785.899
926.1542, 1772.333
926.6364, 1762.679
927.1185, 1771.994
927.6006, 1792.062
928.0827, 1810.320
928.5648, 1823.114
929.0469, 1827.236
929.5291, 1814.501
930.0112, 1799.858
930.4933, 1794.490
930.9754, 1793.602
931.4575, 1791.575
931.9396, 1788.420
932.4218, 1785.659
932.9039, 1783.903
933.3860, 1785.480
933.8681, 1796.526
934.3502, 1808.696
934.8323, 1809.785
935.3145, 1804.175
935.7966, 1800.773
936.2787, 1800.489
936.7608, 1799.686
937.2429, 1796.444
937.7250, 1791.992
938.2072, 1788.504
938.6893, 1784.624
939.1714, 1773.713
939.6535, 1759.270
940.1356, 1757.645
940.6177, 1771.103
941.0999, 1783.149
941.5820, 1781.699
942.0641, 1774.653
942.5462, 1777.245
943.0283, 1787.131
943.5104, 1790.908
943.9926, 1788.692
944.4747, 1791.455
944.9568, 1802.795
945.4389, 1809.995
945.9210, 1799.858
946.4031, 1781.258
946.8853, 1781.360
947.3674, 1800.042
947.8495, 1811.141
948.3316, 1812.558
948.8137, 1811.398
949.2958, 1810.325
949.7780, 1807.752
950.2601, 1801.119
950.7422, 1792.013
951.2243, 1790.087
951.7064, 1797.186
952.1885, 1798.610
952.6707, 1790.967
953.1528, 1785.451
953.6349, 1787.935
954.1170, 1793.822
954.5991, 1797.536
955.0812, 1798.982
955.5634, 1795.698
956.0455, 1784.528
956.5276, 1778.962
957.0097, 1783.887
957.4918, 1787.415
957.9739, 1780.951
958.4561, 1771.715
958.9382, 1771.921
959.4203, 1782.326
959.9024, 1791.588
960.3845, 1800.554
960.8666, 1807.013
961.3488, 1815.061
961.8309, 1813.996
962.3130, 1787.018
962.7951, 1751.793
963.2772, 1745.898
963.7593, 1777.397
964.2415, 1795.108
964.7236, 1794.804
965.2057, 1786.839
965.6878, 1757.523
966.1699, 1736.030
966.6520, 1750.341
967.1342, 1784.034
967.6163, 1798.208
968.0984, 1785.535
968.5805, 1779.275
969.0626, 1786.101
969.5447, 1792.698
970.0269, 1799.449
970.5090, 1801.419
970.9911, 1790.552
971.4732, 1772.559
971.9553, 1762.884
972.4374, 1765.093
972.9196, 1767.869
973.4017, 1770.237
973.8838, 1772.197
974.3659, 1773.741
974.8480, 1774.874
975.3301, 1775.284
975.8123, 1775.298
976.2944, 1776.076
976.7765, 1778.504
977.2586, 1779.330
977.7407, 1778.195
978.2228, 1774.860
978.7050, 1767.393
979.1871, 1759.091
979.6692, 1750.835
980.1513, 1744.622
980.6334, 1746.834
981.1155, 1762.386
981.5977, 1775.233
982.0798, 1781.878
982.5619, 1783.184
983.0440, 1773.892
983.5261, 1763.672
984.0082, 1764.622
984.4904, 1774.568
984.9725, 1781.854
985.4546, 1784.087
985.9367, 1781.485
986.4188, 1766.674
986.9009, 1755.448
987.3831, 1760.439
987.8652, 1771.804
988.3473, 1778.983
988.8294, 1781.053
989.3115, 1780.517
989.7936, 1776.946
990.2758, 1774.342
990.7579, 1774.017
991.2400, 1775.562
991.7221, 1779.041
992.2042, 1784.017
992.6863, 1792.408
993.1685, 1802.185
993.6506, 1804.695
994.1327, 1793.529
994.6148, 1785.275
995.0969, 1792.358
995.5790, 1799.416
996.0612, 1793.658
996.5433, 1783.186
997.0254, 1779.437
997.5075, 1781.946
997.9896, 1781.747
998.4717, 1774.699
998.9539, 1767.921
999.4360, 1759.819
999.9181, 1758.319
1000.400, 1776.052
1000.882, 1799.119
1001.364, 1809.456
1001.847, 1807.375
1002.329, 1804.751
1002.811, 1806.123
1003.293, 1805.924
1003.775, 1797.865
1004.257, 1791.297
1004.739, 1796.126
1005.221, 1804.021
1005.703, 1803.395
1006.186, 1795.126
1006.668, 1788.497
1007.150, 1787.098
1007.632, 1785.975
1008.114, 1779.501
1008.596, 1776.277
1009.078, 1786.896
1009.560, 1800.596
1010.043, 1801.840
1010.525, 1793.304
1011.007, 1792.065
1011.489, 1806.875
1011.971, 1816.086
1012.453, 1805.624
1012.935, 1792.253
1013.417, 1782.461
1013.899, 1778.052
1014.382, 1783.544
1014.864, 1795.747
1015.346, 1804.981
1015.828, 1809.256
1016.310, 1807.477
1016.792, 1790.011
1017.274, 1777.254
1017.756, 1787.279
1018.239, 1802.084
1018.721, 1801.596
1019.203, 1789.301
1019.685, 1779.773
1020.167, 1775.386
1020.649, 1778.890
1021.131, 1805.081
1021.613, 1822.109
1022.095, 1805.540
1022.578, 1781.478
1023.060, 1773.897
1023.542, 1779.155
1024.024, 1782.738
1024.506, 1781.199
1024.988, 1783.321
1025.470, 1794.984
1025.952, 1805.936
1026.435, 1819.392
1026.917, 1824.128
1027.399, 1801.816
1027.881, 1766.726
1028.363, 1749.913
1028.845, 1757.229
1029.327, 1766.820
1029.809, 1780.315
1030.292, 1787.882
1030.774, 1783.226
1031.256, 1775.512
1031.738, 1769.025
1032.220, 1764.617
1032.702, 1763.433
1033.184, 1765.678
1033.666, 1769.335
1034.148, 1776.381
1034.630, 1781.618
1035.113, 1779.036
1035.595, 1780.067
1036.077, 1802.473
1036.559, 1826.388
1037.041, 1815.998
1037.523, 1769.433
1038.005, 1743.110
1038.487, 1750.463
1038.970, 1757.103
1039.452, 1761.492
1039.934, 1764.429
1040.416, 1767.807
1040.898, 1768.485
1041.380, 1760.468
1041.862, 1745.105
1042.344, 1737.368
1042.826, 1738.888
1043.309, 1745.006
1043.791, 1759.368
1044.273, 1771.638
1044.755, 1780.678
1045.237, 1782.148
1045.719, 1769.024
1046.201, 1745.236
1046.683, 1728.690
1047.166, 1719.638
1047.648, 1716.724
1048.130, 1720.250
1048.612, 1730.235
1049.094, 1750.362
1049.576, 1767.378
1050.058, 1769.128
1050.540, 1760.684
1051.022, 1756.555
1051.505, 1758.065
1051.987, 1748.908
1052.469, 1726.454
1052.951, 1710.076
1053.433, 1704.376
1053.915, 1705.576
1054.397, 1712.027
1054.879, 1721.021
1055.361, 1728.615
1055.844, 1734.393
1056.326, 1730.947
1056.808, 1718.333
1057.290, 1717.386
1057.772, 1731.844
1058.254, 1739.592
1058.736, 1728.404
1059.218, 1712.483
1059.701, 1710.051
1060.183, 1718.436
1060.665, 1733.859
1061.147, 1752.761
1061.629, 1749.973
1062.111, 1726.445
1062.593, 1714.865
1063.075, 1727.361
1063.557, 1740.904
1064.040, 1731.471
1064.522, 1713.071
1065.004, 1711.526
1065.486, 1721.125
1065.968, 1729.349
1066.450, 1735.401
1066.932, 1742.324
1067.414, 1750.000
1067.896, 1750.972
1068.379, 1738.208
1068.861, 1724.096
1069.343, 1724.439
1069.825, 1730.729
1070.307, 1732.262
1070.789, 1729.894
1071.271, 1725.558
1071.753, 1720.462
1072.236, 1716.967
1072.718, 1716.248
1073.200, 1716.342
1073.682, 1713.406
1074.164, 1713.261
1074.646, 1724.579
1075.128, 1738.765
1075.610, 1747.222
1076.093, 1748.701
1076.575, 1742.605
1077.057, 1728.554
1077.539, 1714.416
1078.021, 1696.919
1078.503, 1688.973
1078.985, 1706.911
1079.467, 1726.291
1079.949, 1724.444
1080.432, 1712.797
1080.914, 1714.656
1081.396, 1731.413
1081.878, 1736.838
1082.360, 1714.612
1082.842, 1698.620
1083.324, 1695.925
1083.806, 1698.137
1084.288, 1704.404
1084.771, 1711.579
1085.253, 1718.160
1085.735, 1722.987
1086.217, 1719.440
1086.699, 1700.095
1087.181, 1692.792
1087.663, 1705.070
1088.145, 1714.540
1088.628, 1717.172
1089.110, 1711.220
1089.592, 1689.818
1090.074, 1665.862
1090.556, 1670.867
1091.038, 1706.661
1091.520, 1715.469
1092.002, 1691.512
1092.484, 1677.976
1092.967, 1682.910
1093.449, 1691.440
1093.931, 1696.548
1094.413, 1698.492
1094.895, 1695.529
1095.377, 1692.179
1095.859, 1714.052
1096.341, 1754.435
1096.823, 1752.035
1097.306, 1707.680
1097.788, 1679.404
1098.270, 1685.327
1098.752, 1700.404
1099.234, 1705.932
1099.716, 1705.048
1100.198, 1698.736
1100.680, 1691.575
1101.163, 1695.529
1101.645, 1705.979
1102.127, 1711.254
1102.609, 1709.429
1103.091, 1701.468
1103.573, 1687.162
1104.055, 1679.616
1104.537, 1697.272
1105.020, 1718.477
1105.502, 1726.689
1105.984, 1724.255
1106.466, 1707.061
1106.948, 1684.398
1107.430, 1676.963
1107.912, 1688.083
1108.394, 1695.294
1108.876, 1682.206
1109.359, 1674.578
1109.841, 1689.293
1110.323, 1704.159
1110.805, 1704.593
1111.287, 1698.174
1111.769, 1692.218
1112.251, 1688.284
1112.733, 1691.662
1113.215, 1711.806
1113.698, 1716.545
1114.180, 1690.382
1114.662, 1672.256
1115.144, 1674.997
1115.626, 1681.773
1116.108, 1679.392
1116.590, 1675.975
1117.072, 1689.975
1117.555, 1721.581
1118.037, 1725.378
1118.519, 1694.215
1119.001, 1676.536
1119.483, 1679.757
1119.965, 1684.655
1120.447, 1683.075
1120.929, 1681.186
1121.411, 1685.944
1121.894, 1693.609
1122.376, 1694.810
1122.858, 1690.091
1123.340, 1680.049
1123.822, 1666.437
1124.304, 1656.020
1124.786, 1651.236
1125.268, 1657.997
1125.750, 1680.410
1126.233, 1702.392
1126.715, 1702.554
1127.197, 1694.122
1127.679, 1693.158
1128.161, 1697.709
1128.643, 1709.150
1129.125, 1721.956
1129.607, 1721.516
1130.090, 1705.514
1130.572, 1691.600
1131.054, 1687.521
1131.536, 1689.562
1132.018, 1702.800
1132.500, 1713.705
1132.982, 1711.722
1133.464, 1703.095
1133.947, 1689.833
1134.429, 1677.046
1134.911, 1683.496
1135.393, 1721.967
1135.875, 1743.289
1136.357, 1731.498
1136.839, 1719.797
1137.321, 1711.964
1137.803, 1708.316
1138.286, 1711.512
1138.768, 1716.038
1139.250, 1713.587
1139.732, 1704.828
1140.214, 1695.157
1140.696, 1683.734
1141.178, 1677.762
1141.660, 1677.865
1142.142, 1682.908
1142.625, 1693.030
1143.107, 1698.929
1143.589, 1692.733
1144.071, 1681.393
1144.553, 1676.364
1145.035, 1676.242
1145.517, 1678.427
1145.999, 1681.558
1146.482, 1679.845
1146.964, 1674.659
1147.446, 1675.224
1147.928, 1684.610
1148.410, 1694.622
1148.892, 1700.661
1149.374, 1702.376
1149.856, 1694.660
1150.339, 1686.922
1150.821, 1691.464
1151.303, 1700.612
1151.785, 1702.277
1152.267, 1696.382
1152.749, 1690.557
1153.231, 1687.579
1153.713, 1680.976
1154.195, 1660.532
1154.677, 1648.340
1155.160, 1657.306
1155.642, 1669.635
1156.124, 1674.586
1156.606, 1676.104
1157.088, 1680.242
1157.570, 1686.498
1158.052, 1688.870
1158.534, 1686.880
1159.017, 1681.401
1159.499, 1670.126
1159.981, 1673.212
1160.463, 1699.599
1160.945, 1714.730
1161.427, 1690.925
1161.909, 1655.235
1162.391, 1656.420
1162.874, 1681.928
1163.356, 1690.515
1163.838, 1686.578
1164.320, 1681.985
1164.802, 1678.997
1165.284, 1680.745
1165.766, 1687.001
1166.248, 1686.757
1166.730, 1669.831
1167.213, 1651.426
1167.695, 1641.800
1168.177, 1638.638
1168.659, 1642.199
1169.141, 1649.370
1169.623, 1657.376
1170.105, 1665.595
1170.587, 1675.026
1171.069, 1687.040
1171.552, 1690.033
1172.034, 1672.307
1172.516, 1660.414
1172.998, 1656.163
1173.480, 1662.357
1173.962, 1689.997
1174.444, 1714.424
1174.926, 1705.665
1175.409, 1676.241
1175.891, 1672.656
1176.373, 1698.030
1176.855, 1702.266
1177.337, 1684.802
1177.819, 1671.872
1178.301, 1668.338
1178.783, 1667.856
1179.266, 1667.320
1179.748, 1667.854
1180.230, 1671.044
1180.712, 1675.252
1181.194, 1675.789
1181.676, 1676.801
1182.158, 1691.004
1182.640, 1709.070
1183.122, 1708.689
1183.604, 1690.879
1184.087, 1674.784
1184.569, 1666.983
1185.051, 1664.529
1185.533, 1670.849
1186.015, 1675.716
1186.497, 1671.821
1186.979, 1668.196
1187.461, 1674.882
1187.944, 1683.195
1188.426, 1677.240
1188.908, 1660.877
1189.390, 1659.466
1189.872, 1680.766
1190.354, 1688.661
1190.836, 1680.130
1191.318, 1671.113
1191.801, 1664.690
1192.283, 1660.528
1192.765, 1658.240
1193.247, 1660.309
1193.729, 1671.799
1194.211, 1686.930
1194.693, 1692.229
1195.175, 1689.541
1195.657, 1678.182
1196.140, 1664.570
1196.622, 1670.502
1197.104, 1693.995
1197.586, 1704.603
1198.068, 1687.560
1198.550, 1670.750
1199.032, 1671.070
1199.514, 1677.360
1199.996, 1690.434
1200.479, 1699.543
1200.961, 1690.077
1201.443, 1675.159
1201.925, 1676.748
1202.407, 1692.836
1202.889, 1699.687
1203.371, 1694.437
1203.853, 1688.273
1204.336, 1679.524
1204.818, 1675.499
1205.300, 1678.128
1205.782, 1684.104
1206.264, 1692.282
1206.746, 1699.191
1207.228, 1700.979
1207.710, 1697.896
1208.193, 1687.443
1208.675, 1673.714
1209.157, 1670.134
1209.639, 1673.702
1210.121, 1674.253
1210.603, 1670.599
1211.085, 1666.257
1211.567, 1662.524
1212.049, 1662.819
1212.531, 1674.155
1213.014, 1683.399
1213.496, 1682.803
1213.978, 1678.588
1214.460, 1672.010
1214.942, 1666.550
1215.424, 1666.366
1215.906, 1670.755
1216.388, 1676.793
1216.871, 1684.833
1217.353, 1692.596
1217.835, 1700.651
1218.317, 1706.421
1218.799, 1709.845
1219.281, 1707.459
1219.763, 1697.178
1220.245, 1689.710
1220.728, 1695.867
1221.210, 1706.244
1221.692, 1701.848
1222.174, 1691.052
1222.656, 1694.143
1223.138, 1703.008
1223.620, 1698.474
1224.102, 1683.547
1224.584, 1673.735
1225.067, 1672.755
1225.549, 1671.330
1226.031, 1660.790
1226.513, 1658.660
1226.995, 1683.062
1227.477, 1701.207
1227.959, 1690.051
1228.441, 1676.592
1228.923, 1684.687
1229.406, 1699.909
1229.888, 1695.128
1230.370, 1673.455
1230.852, 1672.742
1231.334, 1694.404
1231.816, 1699.327
1232.298, 1685.902
1232.780, 1671.211
1233.263, 1660.523
1233.745, 1661.836
##END=



