##NAMES=Chenevixite
##RRUFFID=R040166
##IDEAL CHEMISTRY=Cu^2+^Fe^3+^(As^5+^O_4_)(OH)_2_
##LOCALITY=Volcanic Sunnyside mine, Santa Cruz County, Arizona, USA
##OWNER=RRUFF
##SOURCE=Andy Anderson
##DESCRIPTION=Green earthy massive
##STATUS=The identification of this mineral has been confirmed by X-ray diffraction and chemical analysis
##URL=rruff.info/R040166
##MEASURED CHEMISTRY=Cu_2.00_(Fe^3+^_1.98_[box]_0.02_)_Σ=2_((As_0.94_S_0.06_)O_4_)_2_(OH)_4_·1.49H_2_O
168.4644, 10404.10
168.9465, 10469.76
169.4286, 10538.04
169.9107, 10634.13
170.3929, 10748.44
170.8750, 10863.31
171.3571, 10967.08
171.8392, 11066.66
172.3213, 11167.65
172.8034, 11268.13
173.2856, 11375.21
173.7677, 11505.09
174.2498, 11650.41
174.7319, 11783.52
175.2140, 11869.79
175.6961, 11937.57
176.1783, 12033.97
176.6604, 12177.53
177.1425, 12332.00
177.6246, 12455.12
178.1067, 12548.31
178.5888, 12628.80
179.0710, 12711.73
179.5531, 12789.85
180.0352, 12843.75
180.5173, 12861.79
180.9994, 12860.05
181.4815, 12856.45
181.9637, 12851.41
182.4458, 12859.14
182.9279, 12899.96
183.4100, 12966.01
183.8921, 13028.98
184.3742, 13084.40
184.8564, 13130.11
185.3385, 13155.22
185.8206, 13158.62
186.3027, 13157.38
186.7848, 13165.49
187.2669, 13183.05
187.7491, 13210.50
188.2312, 13247.36
188.7133, 13293.98
189.1954, 13359.32
189.6775, 13447.57
190.1596, 13533.76
190.6418, 13581.41
191.1239, 13591.33
191.6060, 13606.19
192.0881, 13643.99
192.5702, 13702.73
193.0524, 13768.27
193.5345, 13843.86
194.0166, 13917.46
194.4987, 13963.07
194.9808, 13978.43
195.4629, 14000.08
195.9451, 14054.66
196.4272, 14141.71
196.9093, 14198.90
197.3914, 14221.30
197.8735, 14218.50
198.3556, 14202.27
198.8378, 14169.81
199.3199, 14142.04
199.8020, 14136.20
200.2841, 14154.90
200.7662, 14155.91
201.2483, 14132.48
201.7305, 14093.99
202.2126, 14063.30
202.6947, 14041.96
203.1768, 14022.56
203.6589, 13994.89
204.1410, 13954.41
204.6232, 13943.25
205.1053, 13976.77
205.5874, 14036.93
206.0695, 14060.62
206.5516, 14037.98
207.0337, 14004.76
207.5159, 13983.77
207.9980, 13976.78
208.4801, 13975.47
208.9622, 13979.70
209.4443, 13988.83
209.9264, 14001.29
210.4086, 14020.38
210.8907, 14036.22
211.3728, 14038.99
211.8549, 14023.56
212.3370, 14012.50
212.8191, 14008.48
213.3013, 14011.41
213.7834, 14019.73
214.2655, 14031.60
214.7476, 14051.91
215.2297, 14084.34
215.7118, 14129.35
216.1940, 14187.26
216.6761, 14263.78
217.1582, 14357.69
217.6403, 14435.10
218.1224, 14496.11
218.6045, 14539.41
219.0867, 14556.04
219.5688, 14522.72
220.0509, 14520.05
220.5330, 14581.41
221.0151, 14710.23
221.4972, 14774.16
221.9794, 14752.39
222.4615, 14689.73
222.9436, 14633.66
223.4257, 14592.95
223.9078, 14539.03
224.3899, 14459.80
224.8721, 14350.45
225.3542, 14268.53
225.8363, 14232.96
226.3184, 14206.22
226.8005, 14140.98
227.2827, 14020.45
227.7648, 13893.63
228.2469, 13769.82
228.7290, 13648.57
229.2111, 13535.93
229.6932, 13426.86
230.1754, 13331.80
230.6575, 13267.39
231.1396, 13255.90
231.6217, 13236.02
232.1038, 13185.22
232.5859, 13092.74
233.0681, 13028.57
233.5502, 13003.77
234.0323, 12999.44
234.5144, 12987.34
234.9965, 12958.75
235.4786, 12937.31
235.9608, 12930.54
236.4429, 12940.60
236.9250, 12955.24
237.4071, 12972.95
237.8892, 12996.12
238.3713, 13029.38
238.8535, 13077.75
239.3356, 13127.87
239.8177, 13176.09
240.2998, 13222.82
240.7819, 13266.30
241.2640, 13306.43
241.7462, 13344.06
242.2283, 13380.06
242.7104, 13410.30
243.1925, 13445.58
243.6746, 13488.22
244.1567, 13536.36
244.6389, 13601.83
245.1210, 13698.90
245.6031, 13804.66
246.0852, 13875.18
246.5673, 13890.69
247.0494, 13904.69
247.5316, 13937.90
248.0137, 13999.75
248.4958, 14048.66
248.9779, 14080.05
249.4600, 14100.81
249.9421, 14122.88
250.4243, 14147.60
250.9064, 14171.45
251.3885, 14192.72
251.8706, 14210.14
252.3527, 14229.57
252.8348, 14251.48
253.3170, 14275.04
253.7991, 14301.73
254.2812, 14342.11
254.7633, 14364.72
255.2454, 14352.15
255.7275, 14290.31
256.2097, 14246.08
256.6918, 14223.03
257.1739, 14215.62
257.6560, 14214.62
258.1381, 14222.08
258.6202, 14231.81
259.1024, 14243.40
259.5845, 14259.63
260.0666, 14264.95
260.5487, 14255.42
261.0308, 14237.95
261.5129, 14226.44
261.9951, 14226.51
262.4772, 14219.25
262.9593, 14194.74
263.4414, 14147.51
263.9235, 14109.20
264.4056, 14083.60
264.8878, 14062.93
265.3699, 14034.53
265.8520, 13999.59
266.3341, 13952.64
266.8162, 13885.21
267.2983, 13791.68
267.7805, 13717.13
268.2626, 13663.28
268.7447, 13627.33
269.2268, 13606.67
269.7089, 13604.00
270.1910, 13607.22
270.6732, 13618.24
271.1553, 13640.52
271.6374, 13629.27
272.1195, 13571.52
272.6016, 13499.15
273.0837, 13467.78
273.5659, 13483.81
274.0480, 13507.02
274.5301, 13524.70
275.0122, 13536.78
275.4943, 13539.31
275.9764, 13527.42
276.4586, 13515.14
276.9407, 13526.71
277.4228, 13564.70
277.9049, 13602.48
278.3870, 13624.72
278.8691, 13632.88
279.3513, 13664.43
279.8334, 13725.13
280.3155, 13794.44
280.7976, 13842.94
281.2798, 13869.27
281.7619, 13897.01
282.2440, 13934.39
282.7261, 13980.69
283.2082, 14032.67
283.6903, 14092.20
284.1725, 14150.43
284.6546, 14187.68
285.1367, 14205.13
285.6188, 14243.20
286.1009, 14326.01
286.5830, 14441.92
287.0652, 14543.91
287.5473, 14631.21
288.0294, 14703.57
288.5115, 14749.32
288.9936, 14773.08
289.4757, 14811.89
289.9579, 14890.38
290.4400, 14989.94
290.9221, 15062.22
291.4042, 15106.51
291.8863, 15132.06
292.3684, 15137.40
292.8506, 15128.34
293.3327, 15130.67
293.8148, 15158.56
294.2969, 15199.33
294.7790, 15231.17
295.2611, 15254.16
295.7433, 15267.99
296.2254, 15266.95
296.7075, 15256.10
297.1896, 15250.36
297.6717, 15258.54
298.1538, 15270.00
298.6360, 15264.60
299.1181, 15243.91
299.6002, 15227.23
300.0823, 15225.81
300.5644, 15239.16
301.0465, 15269.97
301.5287, 15336.43
302.0108, 15398.59
302.4929, 15400.68
302.9750, 15351.48
303.4571, 15301.18
303.9392, 15281.87
304.4214, 15282.17
304.9035, 15286.69
305.3856, 15291.77
305.8677, 15300.14
306.3498, 15318.04
306.8319, 15342.28
307.3141, 15362.05
307.7962, 15369.83
308.2783, 15370.29
308.7604, 15370.13
309.2425, 15376.62
309.7246, 15369.48
310.2068, 15320.09
310.6889, 15244.89
311.1710, 15185.91
311.6531, 15178.94
312.1352, 15186.44
312.6173, 15179.52
313.0995, 15147.95
313.5816, 15118.55
314.0637, 15106.19
314.5458, 15104.47
315.0279, 15101.19
315.5100, 15092.73
315.9922, 15080.69
316.4743, 15062.05
316.9564, 15031.55
317.4385, 15014.91
317.9206, 15025.62
318.4027, 15054.13
318.8849, 15087.12
319.3670, 15134.76
319.8491, 15174.19
320.3312, 15192.42
320.8133, 15183.88
321.2954, 15183.04
321.7776, 15204.61
322.2597, 15234.05
322.7418, 15255.88
323.2239, 15253.54
323.7060, 15257.69
324.1881, 15279.55
324.6703, 15321.45
325.1524, 15354.97
325.6345, 15382.41
326.1166, 15398.08
326.5987, 15397.40
327.0808, 15358.58
327.5630, 15329.10
328.0451, 15317.11
328.5272, 15321.78
329.0093, 15325.64
329.4914, 15332.36
329.9735, 15334.93
330.4557, 15327.46
330.9378, 15297.90
331.4199, 15279.94
331.9020, 15282.22
332.3841, 15299.04
332.8662, 15300.21
333.3484, 15272.48
333.8305, 15249.18
334.3126, 15251.21
334.7947, 15289.56
335.2768, 15318.24
335.7589, 15329.84
336.2411, 15333.30
336.7232, 15353.63
337.2053, 15396.42
337.6874, 15439.31
338.1695, 15466.84
338.6516, 15474.37
339.1338, 15505.95
339.6159, 15564.59
340.0980, 15643.50
340.5801, 15736.53
341.0622, 15847.44
341.5443, 15947.52
342.0265, 16017.89
342.5086, 16063.11
342.9907, 16134.52
343.4728, 16234.59
343.9549, 16348.84
344.4370, 16465.20
344.9192, 16581.80
345.4013, 16685.12
345.8834, 16758.90
346.3655, 16817.77
346.8476, 16900.89
347.3297, 17008.62
347.8119, 17119.57
348.2940, 17216.04
348.7761, 17299.40
349.2582, 17372.68
349.7403, 17442.88
350.2225, 17499.19
350.7046, 17515.04
351.1867, 17495.80
351.6688, 17481.99
352.1509, 17524.77
352.6331, 17586.00
353.1152, 17602.57
353.5973, 17539.94
354.0794, 17468.23
354.5615, 17457.74
355.0436, 17491.34
355.5258, 17516.90
356.0079, 17499.41
356.4900, 17464.89
356.9721, 17430.74
357.4542, 17393.37
357.9363, 17377.56
358.4185, 17432.17
358.9006, 17514.10
359.3827, 17548.81
359.8648, 17459.61
360.3469, 17353.46
360.8290, 17292.09
361.3112, 17288.74
361.7933, 17270.04
362.2754, 17198.90
362.7575, 17105.40
363.2396, 17021.87
363.7217, 16968.09
364.2039, 16913.63
364.6860, 16852.47
365.1681, 16784.09
365.6502, 16708.24
366.1323, 16627.21
366.6144, 16536.84
367.0966, 16433.56
367.5787, 16287.21
368.0608, 16166.31
368.5429, 16080.67
369.0250, 16025.38
369.5071, 15977.51
369.9893, 15940.28
370.4714, 15906.87
370.9535, 15874.20
371.4356, 15842.79
371.9177, 15813.04
372.3998, 15791.91
372.8820, 15768.70
373.3641, 15711.68
373.8462, 15598.58
374.3283, 15510.22
374.8104, 15491.01
375.2925, 15549.47
375.7747, 15573.42
376.2568, 15557.55
376.7389, 15518.21
377.2210, 15465.91
377.7031, 15397.76
378.1852, 15360.39
378.6674, 15380.47
379.1495, 15441.96
379.6316, 15479.30
380.1137, 15491.59
380.5958, 15484.99
381.0779, 15450.44
381.5601, 15396.27
382.0422, 15369.15
382.5243, 15390.08
383.0064, 15428.45
383.4885, 15428.23
383.9706, 15394.47
384.4528, 15364.52
384.9349, 15371.61
385.4170, 15397.01
385.8991, 15407.96
386.3812, 15395.93
386.8633, 15381.36
387.3455, 15392.44
387.8276, 15416.06
388.3097, 15422.28
388.7918, 15376.48
389.2739, 15319.54
389.7560, 15280.08
390.2382, 15259.97
390.7203, 15261.50
391.2024, 15302.81
391.6845, 15360.61
392.1666, 15408.62
392.6487, 15427.15
393.1309, 15444.28
393.6130, 15475.64
394.0951, 15519.30
394.5772, 15549.79
395.0593, 15547.81
395.5414, 15538.76
396.0236, 15538.44
396.5057, 15543.53
396.9878, 15564.09
397.4699, 15606.18
397.9520, 15665.20
398.4341, 15726.47
398.9163, 15799.58
399.3984, 15864.83
399.8805, 15912.64
400.3626, 15933.18
400.8447, 15965.40
401.3268, 16011.25
401.8090, 16067.34
402.2911, 16132.76
402.7732, 16214.00
403.2553, 16285.01
403.7374, 16332.45
404.2195, 16358.77
404.7017, 16414.36
405.1838, 16509.53
405.6659, 16606.81
406.1480, 16672.40
406.6301, 16706.36
407.1122, 16727.40
407.5944, 16734.93
408.0765, 16735.57
408.5586, 16736.10
409.0407, 16736.89
409.5228, 16763.51
410.0049, 16854.10
410.4871, 16983.62
410.9692, 17075.10
411.4513, 17112.04
411.9334, 17147.28
412.4155, 17248.14
412.8976, 17399.14
413.3798, 17550.77
413.8619, 17681.12
414.3440, 17802.91
414.8261, 17925.87
415.3082, 18051.04
415.7903, 18190.48
416.2725, 18345.04
416.7546, 18521.79
417.2367, 18732.80
417.7188, 18986.63
418.2009, 19264.82
418.6830, 19571.98
419.1652, 19900.24
419.6473, 20208.75
420.1294, 20502.24
420.6115, 20761.73
421.0937, 20969.56
421.5758, 21067.34
422.0579, 21226.06
422.5400, 21510.23
423.0221, 21859.82
423.5042, 22182.64
423.9864, 22451.00
424.4685, 22716.54
424.9506, 22998.28
425.4327, 23295.44
425.9148, 23571.54
426.3969, 23822.25
426.8791, 24056.77
427.3612, 24281.18
427.8433, 24498.12
428.3254, 24696.52
428.8075, 24879.20
429.2896, 25039.61
429.7718, 25150.66
430.2539, 25209.89
430.7360, 25236.05
431.2181, 25237.93
431.7002, 25215.45
432.1823, 25171.77
432.6645, 25111.09
433.1466, 25015.06
433.6287, 24840.53
434.1108, 24601.97
434.5929, 24370.03
435.0750, 24195.18
435.5572, 24037.86
436.0393, 23824.88
436.5214, 23558.00
437.0035, 23273.58
437.4856, 22993.94
437.9677, 22718.83
438.4499, 22450.27
438.9320, 22191.90
439.4141, 21934.90
439.8962, 21658.00
440.3783, 21377.37
440.8604, 21126.55
441.3426, 20943.80
441.8247, 20780.94
442.3068, 20608.09
442.7889, 20415.50
443.2710, 20244.25
443.7531, 20118.67
444.2353, 20015.17
444.7174, 19905.45
445.1995, 19767.81
445.6816, 19644.96
446.1637, 19549.13
446.6458, 19478.36
447.1280, 19403.99
447.6101, 19328.85
448.0922, 19246.57
448.5743, 19153.23
449.0564, 19042.10
449.5385, 18935.20
450.0207, 18833.91
450.5028, 18736.69
450.9849, 18638.82
451.4670, 18538.72
451.9491, 18451.18
452.4312, 18391.13
452.9134, 18352.27
453.3955, 18279.86
453.8776, 18171.34
454.3597, 18049.93
454.8418, 17936.35
455.3239, 17828.92
455.8061, 17724.51
456.2882, 17618.35
456.7703, 17519.04
457.2524, 17442.33
457.7345, 17384.38
458.2166, 17327.87
458.6988, 17257.24
459.1809, 17185.89
459.6630, 17133.79
460.1451, 17105.70
460.6272, 17072.44
461.1093, 16998.78
461.5915, 16914.47
462.0736, 16858.08
462.5557, 16872.32
463.0378, 16887.14
463.5199, 16869.98
464.0020, 16826.24
464.4842, 16798.47
464.9663, 16821.28
465.4484, 16843.45
465.9305, 16835.63
466.4126, 16761.21
466.8947, 16719.85
467.3769, 16728.98
467.8590, 16763.50
468.3411, 16782.29
468.8232, 16776.83
469.3053, 16772.48
469.7874, 16777.31
470.2696, 16790.52
470.7517, 16797.37
471.2338, 16798.06
471.7159, 16791.88
472.1980, 16768.53
472.6801, 16729.01
473.1623, 16722.37
473.6444, 16763.28
474.1265, 16824.41
474.6086, 16860.02
475.0907, 16873.06
475.5728, 16882.58
476.0550, 16893.57
476.5371, 16909.29
477.0192, 16938.76
477.5013, 16982.60
477.9834, 17023.67
478.4655, 17047.92
478.9477, 17061.79
479.4298, 17072.60
479.9119, 17073.51
480.3940, 17083.48
480.8761, 17117.52
481.3582, 17169.09
481.8404, 17219.04
482.3225, 17270.43
482.8046, 17311.10
483.2867, 17330.03
483.7688, 17313.62
484.2509, 17319.63
484.7331, 17375.68
485.2152, 17444.53
485.6973, 17492.51
486.1794, 17509.23
486.6615, 17522.68
487.1436, 17536.13
487.6258, 17549.34
488.1079, 17559.57
488.5900, 17563.49
489.0721, 17573.54
489.5542, 17603.88
490.0363, 17655.05
490.5185, 17678.54
491.0006, 17668.63
491.4827, 17645.33
491.9648, 17633.47
492.4470, 17631.05
492.9291, 17627.69
493.4112, 17621.80
493.8933, 17611.48
494.3754, 17592.31
494.8575, 17565.12
495.3397, 17536.20
495.8218, 17503.89
496.3039, 17474.40
496.7860, 17456.89
497.2681, 17455.80
497.7502, 17453.06
498.2324, 17447.30
498.7145, 17431.79
499.1966, 17397.20
499.6787, 17314.90
500.1608, 17239.38
500.6429, 17188.35
501.1251, 17161.01
501.6072, 17138.72
502.0893, 17137.30
502.5714, 17125.16
503.0535, 17083.75
503.5356, 16989.75
504.0178, 16924.54
504.4999, 16901.63
504.9820, 16895.78
505.4641, 16864.15
505.9462, 16799.50
506.4283, 16748.82
506.9105, 16734.43
507.3926, 16742.61
507.8747, 16710.83
508.3568, 16636.53
508.8389, 16567.50
509.3210, 16549.78
509.8032, 16563.93
510.2853, 16552.20
510.7674, 16502.38
511.2495, 16448.10
511.7316, 16428.55
512.2137, 16429.73
512.6959, 16423.45
513.1780, 16388.06
513.6601, 16349.35
514.1422, 16323.83
514.6243, 16310.33
515.1064, 16299.46
515.5886, 16286.93
516.0707, 16276.30
516.5528, 16269.41
517.0349, 16264.59
517.5170, 16267.37
517.9991, 16298.73
518.4813, 16329.98
518.9634, 16321.45
519.4455, 16241.94
519.9276, 16176.07
520.4097, 16141.07
520.8918, 16134.30
521.3740, 16139.07
521.8561, 16161.06
522.3382, 16175.81
522.8203, 16164.22
523.3024, 16127.91
523.7845, 16090.76
524.2667, 16051.82
524.7488, 16020.15
525.2309, 16016.34
525.7130, 16030.43
526.1951, 16026.26
526.6772, 15971.21
527.1594, 15910.86
527.6415, 15914.71
528.1236, 15966.67
528.6057, 15995.92
529.0878, 15923.42
529.5699, 15837.90
530.0521, 15817.57
530.5342, 15891.96
531.0163, 15941.04
531.4984, 15895.51
531.9805, 15818.81
532.4626, 15778.28
532.9448, 15825.81
533.4269, 15858.29
533.9090, 15857.77
534.3911, 15833.16
534.8732, 15819.76
535.3553, 15823.74
535.8375, 15827.18
536.3196, 15822.13
536.8017, 15808.14
537.2838, 15791.27
537.7659, 15768.42
538.2480, 15752.41
538.7302, 15764.99
539.2123, 15800.87
539.6944, 15821.40
540.1765, 15814.28
540.6586, 15795.50
541.1407, 15782.50
541.6229, 15775.86
542.1050, 15777.30
542.5871, 15801.71
543.0692, 15825.46
543.5513, 15819.65
544.0334, 15783.27
544.5156, 15757.92
544.9977, 15765.18
545.4798, 15790.29
545.9619, 15822.70
546.4440, 15873.52
546.9261, 15912.07
547.4083, 15931.73
547.8904, 15936.83
548.3725, 15933.96
548.8546, 15914.00
549.3367, 15901.13
549.8188, 15902.79
550.3010, 15917.68
550.7831, 15932.20
551.2652, 15947.50
551.7473, 15958.51
552.2294, 15961.44
552.7115, 15956.62
553.1937, 15943.15
553.6758, 15917.46
554.1579, 15897.70
554.6400, 15909.86
555.1221, 15946.68
555.6042, 15988.04
556.0864, 16040.19
556.5685, 16080.76
557.0506, 16078.39
557.5327, 16043.21
558.0148, 16012.84
558.4969, 16006.97
558.9791, 16010.49
559.4612, 16015.82
559.9433, 16022.92
560.4254, 16027.59
560.9075, 16027.41
561.3896, 16025.38
561.8718, 16024.32
562.3539, 16026.71
562.8360, 16025.95
563.3181, 16021.88
563.8002, 16014.26
564.2823, 15999.33
564.7645, 15973.66
565.2466, 15957.21
565.7287, 15963.15
566.2108, 15985.25
566.6929, 15989.10
567.1750, 15973.79
567.6572, 15960.30
568.1393, 15964.09
568.6214, 15982.83
569.1035, 16017.55
569.5856, 16075.10
570.0677, 16122.22
570.5499, 16128.82
571.0320, 16107.75
571.5141, 16079.57
571.9962, 16035.53
572.4783, 16001.97
572.9604, 15995.04
573.4426, 16010.06
573.9247, 16022.25
574.4068, 16036.88
574.8889, 16038.92
575.3710, 16016.38
575.8531, 15959.50
576.3353, 15932.61
576.8174, 15947.21
577.2995, 15975.14
577.7816, 15992.99
578.2637, 16000.87
578.7458, 15993.92
579.2280, 15967.41
579.7101, 15933.13
580.1922, 15908.98
580.6743, 15894.85
581.1564, 15890.07
581.6385, 15896.96
582.1207, 15911.59
582.6028, 15937.04
583.0849, 15970.02
583.5670, 15986.63
584.0491, 15952.02
584.5313, 15908.59
585.0134, 15889.81
585.4955, 15905.84
585.9776, 15929.73
586.4597, 15972.88
586.9418, 16012.67
587.4240, 16021.80
587.9061, 15972.23
588.3882, 15935.80
588.8703, 15925.30
589.3524, 15931.46
589.8345, 15926.90
590.3167, 15909.58
590.7988, 15888.99
591.2809, 15866.44
591.7630, 15843.75
592.2451, 15830.51
592.7272, 15826.62
593.2094, 15833.98
593.6915, 15864.94
594.1736, 15906.08
594.6557, 15931.69
595.1378, 15936.09
595.6199, 15929.46
596.1021, 15905.99
596.5842, 15879.70
597.0663, 15870.59
597.5485, 15914.69
598.0306, 15946.11
598.5127, 15929.69
598.9948, 15879.32
599.4769, 15856.25
599.9590, 15882.67
600.4412, 15913.91
600.9233, 15936.91
601.4054, 15951.58
601.8875, 15962.41
602.3696, 15971.48
602.8517, 15971.24
603.3339, 15947.93
603.8160, 15904.13
604.2981, 15877.59
604.7802, 15874.07
605.2623, 15883.82
605.7444, 15905.92
606.2266, 15932.17
606.7087, 15938.96
607.1908, 15898.80
607.6729, 15855.78
608.1550, 15845.07
608.6371, 15860.44
609.1193, 15881.18
609.6014, 15915.56
610.0835, 15939.09
610.5656, 15932.31
611.0477, 15887.74
611.5298, 15864.49
612.0120, 15875.74
612.4941, 15897.52
612.9762, 15916.12
613.4583, 15933.70
613.9404, 15938.06
614.4225, 15923.38
614.9047, 15904.70
615.3868, 15907.55
615.8689, 15929.88
616.3510, 15942.79
616.8331, 15932.09
617.3152, 15915.22
617.7974, 15926.35
618.2795, 15956.90
618.7616, 15974.12
619.2437, 15950.86
619.7258, 15914.22
620.2079, 15872.18
620.6901, 15826.35
621.1722, 15815.44
621.6543, 15892.77
622.1364, 15981.61
622.6185, 16030.75
623.1006, 16021.90
623.5828, 16007.80
624.0649, 15982.58
624.5470, 15957.51
625.0291, 15948.19
625.5112, 15958.28
625.9933, 15964.68
626.4755, 15963.50
626.9576, 15956.02
627.4397, 15942.20
627.9218, 15923.04
628.4039, 15905.95
628.8860, 15891.73
629.3682, 15883.18
629.8503, 15885.45
630.3324, 15897.75
630.8145, 15914.29
631.2966, 15940.33
631.7787, 15963.20
632.2609, 15970.34
632.7430, 15953.38
633.2251, 15947.71
633.7072, 15974.17
634.1893, 16006.08
634.6714, 16019.96
635.1536, 16000.86
635.6357, 15998.96
636.1178, 16026.97
636.5999, 16064.17
637.0820, 16064.53
637.5641, 16025.83
638.0463, 16007.15
638.5284, 16041.55
639.0105, 16095.43
639.4926, 16095.51
639.9747, 16049.99
640.4568, 16006.72
640.9390, 15988.99
641.4211, 15990.24
641.9032, 16012.95
642.3853, 16057.04
642.8674, 16087.66
643.3495, 16086.22
643.8317, 16069.46
644.3138, 16046.36
644.7959, 15998.55
645.2780, 15984.99
645.7601, 16029.57
646.2422, 16087.45
646.7244, 16102.87
647.2065, 16066.71
647.6886, 16033.32
648.1707, 16009.65
648.6528, 15997.29
649.1349, 16003.21
649.6171, 16025.41
650.0992, 16049.71
650.5813, 16075.52
651.0634, 16096.07
651.5455, 16099.26
652.0276, 16087.98
652.5098, 16077.60
652.9919, 16070.10
653.4740, 16070.87
653.9561, 16087.50
654.4382, 16125.03
654.9203, 16151.52
655.4025, 16162.99
655.8846, 16162.39
656.3667, 16147.75
656.8488, 16107.60
657.3309, 16090.25
657.8130, 16103.55
658.2952, 16128.46
658.7773, 16138.31
659.2594, 16134.37
659.7415, 16131.17
660.2236, 16134.39
660.7057, 16136.96
661.1879, 16124.73
661.6700, 16103.12
662.1521, 16087.51
662.6342, 16083.67
663.1163, 16089.65
663.5984, 16108.22
664.0806, 16137.63
664.5627, 16164.86
665.0448, 16194.73
665.5269, 16213.64
666.0090, 16213.55
666.4911, 16191.27
666.9733, 16173.43
667.4554, 16159.89
667.9375, 16151.05
668.4196, 16153.10
668.9017, 16165.05
669.3839, 16151.08
669.8660, 16102.04
670.3481, 16055.30
670.8302, 16065.27
671.3123, 16109.58
671.7944, 16139.24
672.2766, 16131.21
672.7587, 16117.02
673.2408, 16113.31
673.7229, 16118.66
674.2050, 16130.09
674.6871, 16158.95
675.1693, 16180.57
675.6514, 16181.60
676.1335, 16168.05
676.6156, 16175.38
677.0977, 16220.72
677.5798, 16247.26
678.0620, 16218.33
678.5441, 16142.49
679.0262, 16108.84
679.5083, 16118.95
679.9904, 16140.93
680.4725, 16152.90
680.9547, 16158.16
681.4368, 16162.12
681.9189, 16165.23
682.4010, 16168.11
682.8831, 16168.66
683.3652, 16170.36
683.8474, 16176.49
684.3295, 16185.94
684.8116, 16203.00
685.2937, 16250.45
685.7758, 16295.92
686.2579, 16288.53
686.7401, 16196.01
687.2222, 16141.81
687.7043, 16158.06
688.1864, 16216.05
688.6685, 16249.87
689.1506, 16260.52
689.6328, 16264.16
690.1149, 16267.47
690.5970, 16268.44
691.0791, 16257.62
691.5612, 16239.12
692.0433, 16233.84
692.5255, 16271.66
693.0076, 16311.22
693.4897, 16325.21
693.9718, 16309.71
694.4539, 16291.22
694.9360, 16259.22
695.4182, 16238.44
695.9003, 16246.34
696.3824, 16293.68
696.8645, 16322.88
697.3466, 16331.04
697.8287, 16328.71
698.3109, 16320.93
698.7930, 16310.71
699.2751, 16318.23
699.7572, 16352.53
700.2393, 16384.50
700.7214, 16379.56
701.2036, 16352.20
701.6857, 16326.45
702.1678, 16308.62
702.6499, 16296.45
703.1320, 16281.07
703.6141, 16270.97
704.0963, 16289.84
704.5784, 16374.22
705.0605, 16432.53
705.5426, 16441.46
706.0247, 16409.64
706.5068, 16365.05
706.9890, 16302.43
707.4711, 16268.87
707.9532, 16308.43
708.4353, 16390.80
708.9174, 16441.12
709.3995, 16460.75
709.8817, 16459.67
710.3638, 16425.90
710.8459, 16386.59
711.3280, 16364.53
711.8101, 16362.41
712.2922, 16373.86
712.7744, 16412.19
713.2565, 16452.44
713.7386, 16478.71
714.2207, 16488.91
714.7028, 16489.42
715.1849, 16477.35
715.6671, 16460.61
716.1492, 16445.55
716.6313, 16432.65
717.1134, 16427.63
717.5955, 16433.34
718.0776, 16441.24
718.5598, 16437.05
719.0419, 16427.93
719.5240, 16427.66
720.0061, 16440.23
720.4882, 16463.83
720.9703, 16518.71
721.4525, 16582.79
721.9346, 16605.78
722.4167, 16538.34
722.8988, 16485.34
723.3809, 16469.20
723.8630, 16481.61
724.3452, 16490.35
724.8273, 16494.91
725.3094, 16499.09
725.7915, 16500.73
726.2736, 16504.63
726.7557, 16529.63
727.2379, 16572.51
727.7200, 16607.94
728.2021, 16615.64
728.6842, 16611.65
729.1663, 16605.85
729.6484, 16598.94
730.1306, 16598.92
730.6127, 16625.40
731.0948, 16644.60
731.5769, 16634.46
732.0590, 16582.28
732.5411, 16554.73
733.0233, 16556.96
733.5054, 16572.30
733.9875, 16588.68
734.4696, 16605.59
734.9517, 16615.04
735.4338, 16613.51
735.9160, 16620.60
736.3981, 16672.63
736.8802, 16740.99
737.3623, 16781.18
737.8444, 16765.03
738.3266, 16751.11
738.8087, 16769.74
739.2908, 16801.27
739.7729, 16816.41
740.2551, 16804.83
740.7372, 16794.15
741.2193, 16788.34
741.7014, 16784.37
742.1835, 16772.06
742.6656, 16751.27
743.1478, 16742.97
743.6299, 16756.10
744.1120, 16782.38
744.5941, 16815.23
745.0762, 16851.04
745.5583, 16879.69
746.0405, 16882.06
746.5226, 16888.67
747.0047, 16927.39
747.4868, 16989.78
747.9689, 17024.42
748.4510, 17006.89
748.9332, 16984.27
749.4153, 16969.17
749.8974, 16961.35
750.3795, 16953.47
750.8616, 16943.35
751.3438, 16949.50
751.8259, 16999.78
752.3080, 17071.58
752.7901, 17107.36
753.2722, 17107.43
753.7543, 17107.04
754.2365, 17135.31
754.7186, 17168.99
755.2007, 17188.66
755.6828, 17190.17
756.1649, 17190.41
756.6470, 17188.07
757.1292, 17188.91
757.6113, 17194.08
758.0934, 17199.71
758.5755, 17231.20
759.0576, 17295.07
759.5397, 17364.09
760.0219, 17410.47
760.5040, 17439.08
760.9861, 17461.93
761.4682, 17479.27
761.9503, 17498.91
762.4324, 17525.70
762.9146, 17559.05
763.3967, 17598.70
763.8788, 17648.60
764.3609, 17698.19
764.8430, 17747.66
765.3251, 17794.47
765.8073, 17836.53
766.2894, 17873.95
766.7715, 17904.00
767.2536, 17922.38
767.7357, 17940.18
768.2178, 17976.68
768.7000, 18029.28
769.1821, 18086.77
769.6642, 18149.86
770.1463, 18210.25
770.6284, 18251.60
771.1105, 18286.32
771.5927, 18338.44
772.0748, 18431.49
772.5569, 18524.51
773.0390, 18607.31
773.5211, 18683.09
774.0032, 18759.13
774.4854, 18836.28
774.9675, 18909.67
775.4496, 18974.58
775.9317, 19037.65
776.4138, 19112.14
776.8959, 19198.34
777.3781, 19301.30
777.8602, 19449.50
778.3423, 19594.46
778.8244, 19684.78
779.3065, 19734.18
779.7886, 19802.21
780.2708, 19914.35
780.7529, 20041.40
781.2350, 20179.73
781.7171, 20327.17
782.1992, 20461.74
782.6813, 20578.56
783.1635, 20697.26
783.6456, 20831.11
784.1277, 20973.38
784.6098, 21102.52
785.0919, 21220.00
785.5740, 21344.74
786.0562, 21494.75
786.5383, 21654.87
787.0204, 21817.05
787.5025, 21981.61
787.9846, 22127.25
788.4667, 22217.79
788.9489, 22318.05
789.4310, 22456.95
789.9131, 22634.95
790.3952, 22830.62
790.8773, 23050.80
791.3594, 23249.40
791.8416, 23367.30
792.3237, 23438.32
792.8058, 23551.06
793.2879, 23710.54
793.7700, 23890.92
794.2521, 24093.46
794.7343, 24296.94
795.2164, 24482.06
795.6985, 24648.06
796.1806, 24797.15
796.6627, 24914.67
797.1448, 25034.64
797.6270, 25178.43
798.1091, 25348.69
798.5912, 25528.04
799.0733, 25723.24
799.5554, 25899.11
800.0375, 26000.12
800.5197, 26061.83
801.0018, 26164.84
801.4839, 26327.57
801.9660, 26460.47
802.4481, 26483.20
802.9302, 26468.45
803.4124, 26478.04
803.8945, 26537.35
804.3766, 26586.09
804.8587, 26636.93
805.3408, 26660.41
805.8229, 26618.60
806.3051, 26511.98
806.7872, 26422.19
807.2693, 26359.70
807.7514, 26290.27
808.2335, 26174.79
808.7156, 26029.54
809.1978, 25874.38
809.6799, 25705.60
810.1620, 25553.80
810.6441, 25447.12
811.1262, 25354.47
811.6083, 25246.82
812.0905, 25119.21
812.5726, 24984.70
813.0547, 24844.62
813.5368, 24698.27
814.0189, 24542.38
814.5010, 24378.97
814.9832, 24216.76
815.4653, 24055.77
815.9474, 23908.07
816.4295, 23796.69
816.9116, 23698.75
817.3937, 23584.37
817.8759, 23437.38
818.3580, 23293.26
818.8401, 23153.79
819.3222, 23025.51
819.8043, 22914.54
820.2864, 22822.37
820.7686, 22743.56
821.2507, 22682.64
821.7328, 22621.88
822.2149, 22532.08
822.6970, 22425.91
823.1791, 22335.12
823.6613, 22271.21
824.1434, 22211.90
824.6255, 22130.03
825.1076, 22051.01
825.5897, 22004.48
826.0718, 22039.75
826.5540, 22041.98
827.0361, 21994.88
827.5182, 21933.03
828.0003, 21900.98
828.4824, 21898.50
828.9645, 21873.42
829.4467, 21809.12
829.9288, 21759.54
830.4109, 21797.16
830.8930, 21886.48
831.3751, 21974.41
831.8572, 22045.84
832.3394, 22116.54
832.8215, 22193.15
833.3036, 22271.83
833.7857, 22344.92
834.2678, 22395.08
834.7499, 22493.08
835.2321, 22655.88
835.7142, 22836.38
836.1963, 22971.57
836.6784, 23074.42
837.1605, 23182.33
837.6426, 23295.83
838.1248, 23440.99
838.6069, 23664.20
839.0890, 23917.71
839.5711, 24144.86
840.0532, 24310.32
840.5353, 24492.51
841.0175, 24694.55
841.4996, 24916.89
841.9817, 25159.81
842.4638, 25424.80
842.9459, 25694.72
843.4280, 25966.37
843.9102, 26251.18
844.3923, 26577.53
844.8744, 26921.58
845.3565, 27241.68
845.8386, 27531.11
846.3207, 27798.77
846.8029, 28041.62
847.2850, 28267.75
847.7671, 28482.85
848.2492, 28676.12
848.7313, 28896.16
849.2134, 29157.67
849.6956, 29404.36
850.1777, 29566.72
850.6598, 29668.00
851.1419, 29798.25
851.6240, 29973.48
852.1061, 30126.01
852.5883, 30199.45
853.0704, 30230.95
853.5525, 30261.01
854.0346, 30314.72
854.5167, 30299.33
854.9988, 30183.91
855.4810, 30035.33
855.9631, 29904.55
856.4452, 29791.85
856.9273, 29633.49
857.4094, 29427.56
857.8915, 29192.11
858.3737, 28944.21
858.8558, 28678.93
859.3379, 28387.36
859.8200, 28069.96
860.3021, 27739.62
860.7842, 27399.79
861.2664, 27056.99
861.7485, 26729.10
862.2306, 26420.48
862.7127, 26038.76
863.1948, 25559.98
863.6769, 25100.28
864.1591, 24743.60
864.6412, 24463.68
865.1233, 24196.71
865.6054, 23937.02
866.0875, 23674.16
866.5696, 23395.69
867.0518, 23112.89
867.5339, 22827.66
868.0160, 22536.79
868.4981, 22268.17
868.9802, 22015.60
869.4623, 21796.66
869.9445, 21630.06
870.4266, 21505.06
870.9087, 21382.17
871.3908, 21257.91
871.8729, 21113.79
872.3550, 20899.85
872.8372, 20690.45
873.3193, 20555.96
873.8014, 20485.55
874.2835, 20416.09
874.7656, 20335.13
875.2477, 20250.66
875.7299, 20160.58
876.2120, 20069.56
876.6941, 19994.63
877.1762, 19936.00
877.6583, 19880.01
878.1404, 19820.71
878.6226, 19761.83
879.1047, 19710.52
879.5869, 19663.88
880.0690, 19613.15
880.5511, 19553.66
881.0332, 19491.05
881.5153, 19413.56
881.9974, 19338.32
882.4796, 19306.82
882.9617, 19329.89
883.4438, 19333.00
883.9259, 19292.39
884.4080, 19236.85
884.8901, 19216.14
885.3723, 19216.06
885.8544, 19203.05
886.3365, 19160.67
886.8186, 19111.35
887.3007, 19053.65
887.7828, 19000.08
888.2650, 18968.64
888.7471, 18967.84
889.2292, 18967.73
889.7113, 18966.91
890.1934, 18963.85
890.6755, 18958.28
891.1577, 18948.88
891.6398, 18929.71
892.1219, 18898.28
892.6040, 18865.23
893.0861, 18835.81
893.5682, 18809.93
894.0504, 18787.08
894.5325, 18765.11
895.0146, 18754.55
895.4967, 18763.37
895.9788, 18768.96
896.4609, 18752.42
896.9431, 18715.74
897.4252, 18664.39
897.9073, 18598.35
898.3894, 18544.38
898.8715, 18533.17
899.3536, 18534.12
899.8358, 18518.61
900.3179, 18482.02
900.8000, 18456.73
901.2821, 18450.10
901.7642, 18449.95
902.2463, 18461.72
902.7285, 18477.92
903.2106, 18426.40
903.6927, 18310.26
904.1748, 18206.40
904.6569, 18162.35
905.1390, 18152.18
905.6212, 18167.44
906.1033, 18197.57
906.5854, 18201.38
907.0675, 18135.81
907.5496, 18080.30
908.0317, 18057.55
908.5139, 18056.21
908.9960, 18039.30
909.4781, 18006.77
909.9602, 17981.63
910.4423, 17974.59
910.9244, 17974.83
911.4066, 17974.24
911.8887, 17970.64
912.3708, 17959.97
912.8529, 17933.25
913.3350, 17908.68
913.8171, 17884.75
914.2993, 17868.01
914.7814, 17874.13
915.2635, 17906.45
915.7456, 17914.29
916.2277, 17886.93
916.7098, 17849.13
917.1920, 17824.64
917.6741, 17810.46
918.1562, 17806.30
918.6383, 17819.34
919.1204, 17815.75
919.6025, 17757.67
920.0847, 17702.25
920.5668, 17693.52
921.0489, 17742.18
921.5310, 17758.82
922.0131, 17741.01
922.4952, 17711.82
922.9774, 17676.92
923.4595, 17648.82
923.9416, 17652.32
924.4237, 17686.59
924.9058, 17718.04
925.3879, 17748.35
925.8701, 17756.21
926.3522, 17724.02
926.8343, 17659.35
927.3164, 17626.39
927.7985, 17627.72
928.2806, 17635.58
928.7628, 17640.13
929.2449, 17641.15
929.7270, 17633.64
930.2091, 17622.20
930.6912, 17619.09
931.1733, 17644.93
931.6555, 17661.50
932.1376, 17647.17
932.6197, 17620.87
933.1018, 17616.93
933.5839, 17639.84
934.0660, 17649.65
934.5482, 17636.28
935.0303, 17616.91
935.5124, 17617.50
935.9945, 17626.59
936.4766, 17621.34
936.9587, 17586.16
937.4409, 17565.05
937.9230, 17581.00
938.4051, 17610.04
938.8872, 17636.34
939.3693, 17661.72
939.8514, 17672.21
940.3336, 17666.01
940.8157, 17657.52
941.2978, 17661.54
941.7799, 17669.34
942.2620, 17664.12
942.7441, 17646.28
943.2263, 17638.54
943.7084, 17662.65
944.1905, 17685.10
944.6726, 17690.11
945.1547, 17681.51
945.6368, 17682.20
946.1190, 17692.20
946.6011, 17712.83
947.0832, 17758.24
947.5653, 17799.72
948.0474, 17790.23
948.5295, 17747.53
949.0117, 17712.88
949.4938, 17688.95
949.9759, 17691.89
950.4580, 17745.60
950.9401, 17810.48
951.4222, 17821.72
951.9044, 17778.47
952.3865, 17737.66
952.8686, 17707.25
953.3507, 17686.20
953.8328, 17678.50
954.3149, 17677.09
954.7971, 17670.17
955.2792, 17649.09
955.7613, 17649.62
956.2434, 17700.91
956.7255, 17745.72
957.2076, 17738.48
957.6898, 17681.89
958.1719, 17684.18
958.6540, 17744.44
959.1361, 17799.91
959.6182, 17805.67
960.1003, 17788.71
960.5825, 17765.46
961.0646, 17739.54
961.5467, 17726.25
962.0288, 17741.52
962.5109, 17748.99
962.9930, 17736.92
963.4752, 17714.60
963.9573, 17704.32
964.4394, 17705.07
964.9215, 17709.94
965.4036, 17715.93
965.8857, 17726.89
966.3679, 17747.84
966.8500, 17774.70
967.3321, 17802.96
967.8142, 17841.55
968.2963, 17863.05
968.7784, 17865.08
969.2606, 17854.24
969.7427, 17828.57
970.2248, 17795.31
970.7069, 17785.13
971.1890, 17800.05
971.6711, 17812.17
972.1533, 17787.16
972.6354, 17766.51
973.1175, 17785.08
973.5996, 17842.60
974.0817, 17883.67
974.5638, 17905.31
975.0460, 17921.03
975.5281, 17937.33
976.0102, 17950.68
976.4923, 17946.07
976.9744, 17931.78
977.4565, 17932.18
977.9387, 17983.69
978.4208, 18021.48
978.9029, 18015.77
979.3850, 17986.43
979.8671, 17952.43
980.3492, 17906.71
980.8314, 17904.08
981.3135, 17956.22
981.7956, 18026.55
982.2777, 18099.23
982.7598, 18153.99
983.2419, 18149.41
983.7241, 18070.29
984.2062, 18011.44
984.6883, 18017.18
985.1704, 18034.15
985.6525, 18042.84
986.1346, 18042.95
986.6168, 18022.84
987.0989, 17983.66
987.5810, 17961.41
988.0631, 17986.89
988.5452, 18030.37
989.0273, 18071.40
989.5095, 18107.72
989.9916, 18133.06
990.4737, 18140.45
990.9558, 18145.43
991.4379, 18148.76
991.9200, 18151.78
992.4022, 18160.01
992.8843, 18170.38
993.3664, 18166.91
993.8485, 18144.06
994.3306, 18124.08
994.8127, 18125.23
995.2949, 18134.08
995.7770, 18136.52
996.2591, 18128.30
996.7412, 18140.91
997.2233, 18178.47
997.7054, 18221.44
998.1876, 18265.47
998.6697, 18303.41
999.1518, 18313.32
999.6339, 18301.91
1000.116, 18296.30
1000.598, 18326.22
1001.080, 18343.36
1001.562, 18321.02
1002.044, 18280.28
1002.527, 18256.31
1003.009, 18249.70
1003.491, 18257.13
1003.973, 18281.75
1004.455, 18304.21
1004.937, 18284.20
1005.419, 18258.29
1005.901, 18282.32
1006.384, 18387.15
1006.866, 18447.77
1007.348, 18425.29
1007.830, 18395.11
1008.312, 18400.21
1008.794, 18434.20
1009.276, 18465.41
1009.758, 18492.40
1010.240, 18504.81
1010.723, 18463.90
1011.205, 18438.73
1011.687, 18496.76
1012.169, 18602.13
1012.651, 18654.07
1013.133, 18628.30
1013.615, 18617.93
1014.097, 18641.74
1014.580, 18671.98
1015.062, 18663.11
1015.544, 18634.58
1016.026, 18628.39
1016.508, 18658.42
1016.990, 18673.75
1017.472, 18619.76
1017.954, 18578.53
1018.436, 18609.02
1018.919, 18705.49
1019.401, 18739.76
1019.883, 18711.69
1020.365, 18671.94
1020.847, 18635.36
1021.329, 18612.96
1021.811, 18627.92
1022.293, 18664.92
1022.776, 18686.31
1023.258, 18677.36
1023.740, 18663.74
1024.222, 18644.87
1024.704, 18627.16
1025.186, 18624.35
1025.668, 18630.37
1026.150, 18622.86
1026.632, 18597.82
1027.115, 18571.79
1027.597, 18551.01
1028.079, 18536.07
1028.561, 18531.93
1029.043, 18537.37
1029.525, 18521.51
1030.007, 18481.86
1030.489, 18442.75
1030.972, 18406.92
1031.454, 18387.48
1031.936, 18425.88
1032.418, 18491.46
1032.900, 18518.12
1033.382, 18429.48
1033.864, 18381.25
1034.346, 18403.19
1034.828, 18450.32
1035.311, 18479.19
1035.793, 18489.72
1036.275, 18472.24
1036.757, 18425.67
1037.239, 18386.02
1037.721, 18385.23
1038.203, 18394.81
1038.685, 18399.51
1039.167, 18397.53
1039.650, 18379.65
1040.132, 18340.00
1040.614, 18309.41
1041.096, 18295.35
1041.578, 18301.64
1042.060, 18358.01
1042.542, 18434.09
1043.024, 18471.27
1043.507, 18427.75
1043.989, 18392.18
1044.471, 18385.25
1044.953, 18385.56
1045.435, 18378.00
1045.917, 18362.88
1046.399, 18336.51
1046.881, 18300.32
1047.364, 18281.52
1047.846, 18318.97
1048.328, 18361.18
1048.810, 18376.42
1049.292, 18365.33
1049.774, 18337.90
1050.256, 18282.71
1050.738, 18254.85
1051.220, 18270.70
1051.703, 18303.33
1052.185, 18328.50
1052.667, 18338.23
1053.149, 18310.56
1053.631, 18228.74
1054.113, 18169.77
1054.595, 18166.36
1055.077, 18176.61
1055.559, 18177.57
1056.042, 18173.67
1056.524, 18213.30
1057.006, 18287.51
1057.488, 18322.92
1057.970, 18231.43
1058.452, 18138.30
1058.934, 18128.52
1059.416, 18169.20
1059.899, 18197.43
1060.381, 18211.79
1060.863, 18212.08
1061.345, 18073.04
1061.827, 18152.45
1062.309, 18199.99
1062.791, 18217.25
1063.273, 18121.71
1063.755, 18165.50
1064.238, 18149.58
1064.720, 18128.58
1065.202, 18184.08
1065.684, 18090.76
1066.166, 18139.49
1066.648, 18127.67
1067.130, 18139.53
1067.612, 18091.35
1068.094, 18058.12
1068.577, 18141.19
1069.059, 18150.67
1069.541, 18155.09
1070.023, 18089.36
1070.505, 18154.64
1070.987, 18190.82
1071.469, 18199.46
1071.951, 18098.07
1072.434, 18138.76
1072.916, 18122.51
1073.398, 18103.93
1073.880, 18164.62
1074.362, 18079.24
1074.844, 18138.67
1075.326, 18140.29
1075.808, 18168.37
1076.291, 18139.16
1076.773, 18116.91
1077.255, 18143.59
1077.737, 18135.12
1078.219, 18079.16
1078.701, 18057.82
1079.183, 18174.05
1079.665, 18272.40
1080.147, 18264.83
1080.630, 18172.94
1081.112, 18114.56
1081.594, 18090.07
1082.076, 18119.40
1082.558, 18247.20
1083.040, 18360.03
1083.522, 18337.19
1084.004, 18246.27
1084.486, 18175.38
1084.969, 18130.87
1085.451, 18115.81
1085.933, 18136.19
1086.415, 18163.96
1086.897, 18179.61
1087.379, 18187.38
1087.861, 18194.30
1088.343, 18200.03
1088.826, 18202.36
1089.308, 18201.44
1089.790, 18193.53
1090.272, 18168.45
1090.754, 18147.89
1091.236, 18183.20
1091.718, 18256.29
1092.200, 18274.12
1092.682, 18218.63
1093.165, 18169.11
1093.647, 18191.05
1094.129, 18220.12
1094.611, 18205.33
1095.093, 18157.46
1095.575, 18169.97
1096.057, 18246.42
1096.539, 18291.61
1097.022, 18255.74
1097.504, 18202.17
1097.986, 18193.13
1098.468, 18208.24
1098.950, 18220.13
1099.432, 18223.27
1099.914, 18226.99
1100.396, 18231.93
1100.879, 18235.22
1101.361, 18228.28
1101.843, 18221.21
1102.325, 18242.59
1102.807, 18283.02
1103.289, 18306.57
1103.771, 18286.84
1104.253, 18266.22
1104.735, 18252.87
1105.218, 18241.11
1105.700, 18217.14
1106.182, 18186.72
1106.664, 18178.27
1107.146, 18194.96
1107.628, 18227.46
1108.110, 18301.98
1108.592, 18358.25
1109.074, 18345.54
1109.557, 18287.50
1110.039, 18282.88
1110.521, 18332.39
1111.003, 18379.54
1111.485, 18412.18
1111.967, 18422.98
1112.449, 18385.32
1112.931, 18332.89
1113.414, 18303.91
1113.896, 18307.91
1114.378, 18305.03
1114.860, 18293.02
1115.342, 18284.22
1115.824, 18291.78
1116.306, 18301.49
1116.788, 18272.41
1117.271, 18229.93
1117.753, 18230.54
1118.235, 18356.24
1118.717, 18426.63
1119.199, 18412.70
1119.681, 18376.74
1120.163, 18387.33
1120.645, 18424.44
1121.127, 18422.20
1121.609, 18382.46
1122.092, 18352.08
1122.574, 18364.23
1123.056, 18378.05
1123.538, 18377.33
1124.020, 18371.69
1124.502, 18388.20
1124.984, 18421.66
1125.466, 18420.52
1125.949, 18370.68
1126.431, 18329.04
1126.913, 18340.61
1127.395, 18371.09
1127.877, 18402.10
1128.359, 18431.12
1128.841, 18440.54
1129.323, 18429.41
1129.806, 18413.58
1130.288, 18392.73
1130.770, 18382.59
1131.252, 18414.60
1131.734, 18459.75
1132.216, 18476.07
1132.698, 18444.82
1133.180, 18442.72
1133.662, 18478.62
1134.145, 18506.34
1134.627, 18483.68
1135.109, 18443.38
1135.591, 18439.80
1136.073, 18460.59
1136.555, 18474.54
1137.037, 18459.63
1137.519, 18458.60
1138.001, 18477.83
1138.484, 18503.03
1138.966, 18522.04
1139.448, 18534.71
1139.930, 18534.36
1140.412, 18523.47
1140.894, 18524.94
1141.376, 18567.35
1141.858, 18599.40
1142.341, 18610.63
1142.823, 18602.08
1143.305, 18558.07
1143.787, 18493.16
1144.269, 18482.32
1144.751, 18543.82
1145.233, 18593.63
1145.715, 18578.68
1146.198, 18541.87
1146.680, 18494.50
1147.162, 18447.56
1147.644, 18470.13
1148.126, 18555.59
1148.608, 18609.59
1149.090, 18590.22
1149.572, 18565.73
1150.054, 18606.77
1150.536, 18653.28
1151.019, 18637.65
1151.501, 18551.28
1151.983, 18525.94
1152.465, 18564.16
1152.947, 18597.21
1153.429, 18583.77
1153.911, 18553.37
1154.393, 18527.67
1154.876, 18506.55
1155.358, 18489.66
1155.840, 18473.88
1156.322, 18472.10
1156.804, 18486.75
1157.286, 18503.24
1157.768, 18506.28
1158.250, 18506.83
1158.733, 18517.34
1159.215, 18537.36
1159.697, 18566.59
1160.179, 18628.77
1160.661, 18642.67
1161.143, 18586.38
1161.625, 18515.46
1162.107, 18493.65
1162.589, 18500.66
1163.072, 18503.06
1163.554, 18498.71
1164.036, 18503.28
1164.518, 18529.65
1165.000, 18549.54
1165.482, 18554.70
1165.964, 18552.63
1166.446, 18552.76
1166.928, 18557.05
1167.411, 18572.21
1167.893, 18601.53
1168.375, 18626.84
1168.857, 18644.14
1169.339, 18653.46
1169.821, 18651.09
1170.303, 18643.03
1170.785, 18654.03
1171.268, 18674.76
1171.750, 18670.74
1172.232, 18614.53
1172.714, 18576.03
1173.196, 18586.59
1173.678, 18623.05
1174.160, 18684.71
1174.642, 18762.62
1175.125, 18788.33
1175.607, 18768.29
1176.089, 18736.29
1176.571, 18692.12
1177.053, 18660.76
1177.535, 18671.54
1178.017, 18686.39
1178.499, 18657.00
1178.981, 18584.44
1179.464, 18597.18
1179.946, 18690.73
1180.428, 18771.16
1180.910, 18766.75
1181.392, 18747.19
1181.874, 18744.63
1182.356, 18753.22
1182.838, 18764.79
1183.320, 18779.63
1183.803, 18795.57
1184.285, 18812.98
1184.767, 18810.25
1185.249, 18735.37
1185.731, 18668.89
1186.213, 18677.75
1186.695, 18738.90
1187.177, 18790.55
1187.660, 18833.56
1188.142, 18847.85
1188.624, 18826.30
1189.106, 18806.18
1189.588, 18829.71
1190.070, 18860.54
1190.552, 18866.00
1191.034, 18849.20
1191.516, 18841.21
1191.999, 18842.00
1192.481, 18854.63
1192.963, 18883.34
1193.445, 18911.07
1193.927, 18932.67
1194.409, 18936.61
1194.891, 18895.64
1195.373, 18807.49
1195.855, 18782.52
1196.338, 18827.58
1196.820, 18877.81
1197.302, 18917.47
1197.784, 18931.45
1198.266, 18859.46
1198.748, 18774.72
1199.230, 18788.19
1199.712, 18937.38
1200.195, 18990.69
1200.677, 18934.80
1201.159, 18876.13
1201.641, 18873.92
1202.123, 18894.72
1202.605, 18902.36
1203.087, 18906.08
1203.569, 18924.92
1204.052, 18979.81
1204.534, 18985.25
1205.016, 18932.73
1205.498, 18881.98
1205.980, 18877.02
1206.462, 18893.42
1206.944, 18909.68
1207.426, 18924.14
1207.908, 18933.19
1208.391, 18938.88
1208.873, 18930.48
1209.355, 18903.65
1209.837, 18883.31
1210.319, 18895.31
1210.801, 18921.76
1211.283, 18947.19
1211.765, 18969.67
1212.247, 18983.87
1212.730, 18988.25
1213.212, 18989.66
1213.694, 18988.49
1214.176, 18985.66
1214.658, 18983.62
1215.140, 18979.24
1215.622, 18959.57
1216.104, 18931.47
1216.587, 18939.21
1217.069, 19001.82
1217.551, 19037.57
1218.033, 19029.11
1218.515, 19008.91
1218.997, 19016.22
1219.479, 19029.74
1219.961, 19016.09
1220.443, 18977.70
1220.926, 18981.64
1221.408, 19046.64
1221.890, 19083.23
1222.372, 19063.63
1222.854, 19033.54
1223.336, 19054.30
1223.818, 19090.98
1224.300, 19098.10
1224.782, 19069.48
1225.265, 19069.97
1225.747, 19106.28
1226.229, 19141.38
1226.711, 19165.36
1227.193, 19179.74
1227.675, 19187.11
1228.157, 19185.46
1228.639, 19170.72
1229.122, 19141.28
1229.604, 19106.47
1230.086, 19062.33
1230.568, 19038.03
1231.050, 19046.38
1231.532, 19075.97
1232.014, 19136.75
1232.496, 19198.02
1232.979, 19216.79
1233.461, 19184.73
1233.943, 19166.70
1234.425, 19163.07
1234.907, 19172.37
1235.389, 19203.44
1235.871, 19231.75
1236.353, 19224.90
1236.835, 19205.56
1237.318, 19207.83
1237.800, 19239.13
1238.282, 19233.86
1238.764, 19189.27
1239.246, 19166.33
1239.728, 19221.87
1240.210, 19283.98
1240.692, 19286.76
1241.175, 19261.53
1241.657, 19252.11
1242.139, 19263.43
1242.621, 19261.19
1243.103, 19245.17
1243.585, 19239.81
1244.067, 19273.04
1244.549, 19307.92
1245.031, 19308.44
1245.514, 19302.23
1245.996, 19336.83
1246.478, 19420.83
1246.960, 19427.77
1247.442, 19359.71
1247.924, 19299.82
1248.406, 19322.91
1248.888, 19346.27
1249.370, 19304.79
1249.853, 19248.09
1250.335, 19247.63
1250.817, 19300.87
1251.299, 19325.47
1251.781, 19320.11
1252.263, 19320.96
1252.745, 19368.40
1253.227, 19405.22
1253.710, 19393.44
1254.192, 19367.43
1254.674, 19379.40
1255.156, 19419.64
1255.638, 19408.33
1256.120, 19345.79
1256.602, 19293.84
1257.084, 19288.81
1257.567, 19297.67
1258.049, 19305.18
1258.531, 19323.80
1259.013, 19389.34
1259.495, 19480.47
1259.977, 19514.76
1260.459, 19489.60
1260.941, 19451.67
1261.423, 19398.71
1261.906, 19369.07
1262.388, 19374.58
1262.870, 19399.92
1263.352, 19436.94
1263.834, 19472.42
1264.316, 19462.61
1264.798, 19409.36
1265.280, 19383.24
1265.762, 19422.10
1266.245, 19467.59
1266.727, 19519.04
1267.209, 19551.74
1267.691, 19502.46
1268.173, 19425.54
1268.655, 19426.90
1269.137, 19508.69
1269.619, 19536.01
1270.102, 19461.73
1270.584, 19427.89
1271.066, 19472.57
1271.548, 19537.41
1272.030, 19547.90
1272.512, 19536.54
1272.994, 19537.47
1273.476, 19554.54
1273.958, 19586.94
1274.441, 19643.17
1274.923, 19668.80
1275.405, 19648.37
1275.887, 19609.49
1276.369, 19574.80
1276.851, 19540.25
1277.333, 19487.03
1277.815, 19427.20
1278.297, 19447.83
1278.780, 19554.67
1279.262, 19608.47
1279.744, 19569.13
1280.226, 19521.69
1280.708, 19540.84
1281.190, 19572.16
1281.672, 19571.36
1282.154, 19550.70
1282.637, 19561.78
1283.119, 19600.13
1283.601, 19619.10
1284.083, 19605.50
1284.565, 19598.58
1285.047, 19645.58
1285.529, 19677.04
1286.011, 19651.17
1286.494, 19593.33
1286.976, 19575.54
1287.458, 19587.96
1287.940, 19596.52
1288.422, 19592.55
1288.904, 19599.89
1289.386, 19651.88
1289.868, 19681.04
1290.350, 19656.57
1290.833, 19608.89
1291.315, 19602.12
1291.797, 19616.75
1292.279, 19607.20
1292.761, 19558.49
1293.243, 19552.39
1293.725, 19613.81
1294.207, 19672.98
1294.689, 19713.10
1295.172, 19727.12
1295.654, 19668.90
1296.136, 19598.21
1296.618, 19607.69
1297.100, 19720.13
1297.582, 19775.54
1298.064, 19767.11
1298.546, 19744.71
1299.029, 19719.15
1299.511, 19700.29
1299.993, 19699.04
1300.475, 19709.34
1300.957, 19732.01
1301.439, 19762.53
1301.921, 19776.09
1302.403, 19772.84
1302.885, 19753.08
1303.368, 19709.90
1303.850, 19680.82
1304.332, 19703.30
1304.814, 19738.79
1305.296, 19767.14
1305.778, 19786.25
1306.260, 19780.29
1306.742, 19758.08
1307.224, 19758.14
1307.707, 19794.59
##END=



