##NAMES=Chernovite-(Y)
##RRUFFID=R070368
##IDEAL CHEMISTRY=YAs^5+^O_4_
##LOCALITY=Squaw Creek mine, Taylor Creek Tin District (Black Range Tin District), Sierra County, New Mexico, USA
##OWNER=RRUFF
##SOURCE=Michael Scott
##DESCRIPTION=Pale yellow pseudo-octahedral crystals associated with quartz and cassiterite
##STATUS=The identification of this mineral has been confirmed only by single crystal X-ray diffraction.
##URL=rruff.info/R070368
126.0381, 4686.860
126.5202, 5000.778
127.0023, 5343.428
127.4844, 5702.497
127.9666, 6059.167
128.4487, 6413.500
128.9308, 6772.094
129.4129, 7131.370
129.8950, 7496.740
130.3772, 7877.842
130.8593, 8289.497
131.3414, 8720.925
131.8235, 9129.756
132.3056, 9506.821
132.7877, 9884.143
133.2699, 10302.57
133.7520, 10765.50
134.2341, 11235.48
134.7162, 11698.20
135.1983, 12155.67
135.6804, 12613.21
136.1626, 13066.85
136.6447, 13518.67
137.1268, 13974.88
137.6089, 14436.58
138.0910, 14886.73
138.5731, 15302.43
139.0553, 15680.88
139.5374, 16061.94
140.0195, 16448.79
140.5016, 16839.10
140.9837, 17209.41
141.4658, 17564.10
141.9480, 17897.58
142.4301, 18203.83
142.9122, 18482.43
143.3943, 18732.57
143.8764, 18947.83
144.3585, 19127.29
144.8407, 19317.51
145.3228, 19516.66
145.8049, 19726.81
146.2870, 19950.34
146.7691, 20209.66
147.2512, 20448.99
147.7334, 20644.71
148.2155, 20780.56
148.6976, 20954.73
149.1797, 21188.99
149.6618, 21456.04
150.1439, 21717.39
150.6261, 21957.31
151.1082, 22202.68
151.5903, 22459.05
152.0724, 22729.89
152.5545, 23002.95
153.0366, 23280.84
153.5188, 23558.95
154.0009, 23827.02
154.4830, 24079.99
154.9651, 24328.04
155.4472, 24579.93
155.9293, 24854.95
156.4115, 25105.68
156.8936, 25320.27
157.3757, 25503.22
157.8578, 25673.87
158.3399, 25830.67
158.8221, 25980.72
159.3042, 26130.29
159.7863, 26298.07
160.2684, 26448.60
160.7505, 26560.05
161.2326, 26638.32
161.7148, 26720.70
162.1969, 26832.18
162.6790, 26952.40
163.1611, 27060.36
163.6432, 27133.29
164.1253, 27205.94
164.6075, 27289.95
165.0896, 27385.51
165.5717, 27506.48
166.0538, 27687.12
166.5359, 27893.62
167.0180, 28078.00
167.5002, 28207.47
167.9823, 28317.12
168.4644, 28431.53
168.9465, 28552.67
169.4286, 28677.30
169.9107, 28804.20
170.3929, 28932.33
170.8750, 29062.86
171.3571, 29195.38
171.8392, 29329.49
172.3213, 29468.93
172.8034, 29617.87
173.2856, 29755.11
173.7677, 29846.12
174.2498, 29904.31
174.7319, 29974.03
175.2140, 30093.15
175.6961, 30238.22
176.1783, 30376.62
176.6604, 30506.83
177.1425, 30617.89
177.6246, 30687.10
178.1067, 30718.55
178.5888, 30743.45
179.0710, 30777.78
179.5531, 30821.57
180.0352, 30875.89
180.5173, 30944.50
180.9994, 31019.64
181.4815, 31087.30
181.9637, 31148.21
182.4458, 31206.92
182.9279, 31257.39
183.4100, 31306.57
183.8921, 31383.47
184.3742, 31512.96
184.8564, 31668.40
185.3385, 31777.61
185.8206, 31838.34
186.3027, 31891.54
186.7848, 31979.37
187.2669, 32098.47
187.7491, 32226.51
188.2312, 32366.90
188.7133, 32510.14
189.1954, 32619.98
189.6775, 32691.97
190.1596, 32747.07
190.6418, 32804.88
191.1239, 32865.43
191.6060, 32938.65
192.0881, 33036.21
192.5702, 33154.25
193.0524, 33257.74
193.5345, 33343.91
194.0166, 33422.12
194.4987, 33494.91
194.9808, 33560.08
195.4629, 33653.70
195.9451, 33814.80
196.4272, 34043.11
196.9093, 34205.13
197.3914, 34281.36
197.8735, 34315.38
198.3556, 34390.77
198.8378, 34513.02
199.3199, 34639.62
199.8020, 34738.26
200.2841, 34803.87
200.7662, 34910.72
201.2483, 35078.66
201.7305, 35275.87
202.2126, 35418.70
202.6947, 35495.13
203.1768, 35562.14
203.6589, 35653.55
204.1410, 35771.19
204.6232, 35895.43
205.1053, 36027.57
205.5874, 36163.86
206.0695, 36288.55
206.5516, 36395.19
207.0337, 36507.14
207.5159, 36649.10
207.9980, 36829.97
208.4801, 36982.50
208.9622, 37084.35
209.4443, 37151.73
209.9264, 37272.03
210.4086, 37468.33
210.8907, 37671.85
211.3728, 37819.50
211.8549, 37888.64
212.3370, 37985.01
212.8191, 38133.07
213.3013, 38324.46
213.7834, 38499.98
214.2655, 38655.80
214.7476, 38802.47
215.2297, 38943.57
215.7118, 39072.70
216.1940, 39218.86
216.6761, 39391.29
217.1582, 39589.19
217.6403, 39779.70
218.1224, 39959.16
218.6045, 40133.15
219.0867, 40305.05
219.5688, 40468.37
220.0509, 40642.96
220.5330, 40834.25
221.0151, 41045.39
221.4972, 41237.30
221.9794, 41399.59
222.4615, 41556.07
222.9436, 41734.37
223.4257, 41940.72
223.9078, 42159.01
224.3899, 42382.62
224.8721, 42614.09
225.3542, 42856.94
225.8363, 43117.98
226.3184, 43385.87
226.8005, 43652.98
227.2827, 43920.03
227.7648, 44180.79
228.2469, 44426.54
228.7290, 44649.69
229.2111, 44910.08
229.6932, 45215.79
230.1754, 45549.00
230.6575, 45894.05
231.1396, 46259.00
231.6217, 46617.36
232.1038, 46960.54
232.5859, 47285.49
233.0681, 47612.31
233.5502, 47944.58
234.0323, 48274.81
234.5144, 48607.04
234.9965, 48988.79
235.4786, 49287.48
235.9608, 49459.00
236.4429, 49486.50
236.9250, 49451.00
237.4071, 49309.22
237.8892, 49131.49
238.3713, 49029.10
238.8535, 49023.29
239.3356, 49057.39
239.8177, 49113.94
240.2998, 49190.34
240.7819, 49304.02
241.2640, 49480.22
241.7462, 49680.80
242.2283, 49836.63
242.7104, 49912.05
243.1925, 50001.54
243.6746, 50140.50
244.1567, 50347.77
244.6389, 50544.97
245.1210, 50739.86
245.6031, 50919.83
246.0852, 51056.54
246.5673, 51125.71
247.0494, 51192.91
247.5316, 51280.88
248.0137, 51394.66
248.4958, 51513.45
248.9779, 51639.14
249.4600, 51768.22
249.9421, 51889.30
250.4243, 51993.92
250.9064, 52107.46
251.3885, 52246.90
251.8706, 52434.30
252.3527, 52570.94
252.8348, 52631.11
253.3170, 52656.34
253.7991, 52729.90
254.2812, 52879.93
254.7633, 53022.31
255.2454, 53111.73
255.7275, 53110.59
256.2097, 53202.31
256.6918, 53432.95
257.1739, 53723.75
257.6560, 53921.79
258.1381, 53977.22
258.6202, 54043.47
259.1024, 54187.07
259.5845, 54431.01
260.0666, 54648.46
260.5487, 54826.11
261.0308, 54986.97
261.5129, 55181.57
261.9951, 55414.79
262.4772, 55666.40
262.9593, 55931.56
263.4414, 56219.88
263.9235, 56483.43
264.4056, 56713.53
264.8878, 56930.07
265.3699, 57179.15
265.8520, 57479.28
266.3341, 57764.70
266.8162, 57996.88
267.2983, 58154.20
267.7805, 58391.70
268.2626, 58733.29
268.7447, 59126.66
269.2268, 59480.93
269.7089, 59785.55
270.1910, 60087.55
270.6732, 60412.71
271.1553, 60763.98
271.6374, 61093.46
272.1195, 61397.12
272.6016, 61685.55
273.0837, 61962.01
273.5659, 62224.74
274.0480, 62490.29
274.5301, 62769.27
275.0122, 63061.02
275.4943, 63354.39
275.9764, 63655.14
276.4586, 63946.69
276.9407, 64197.36
277.4228, 64398.73
277.9049, 64605.86
278.3870, 64848.41
278.8691, 65123.31
279.3513, 65354.02
279.8334, 65531.64
280.3155, 65687.97
280.7976, 65867.34
281.2798, 66069.34
281.7619, 66269.46
282.2440, 66477.77
282.7261, 66684.14
283.2082, 66797.66
283.6903, 66803.80
284.1725, 66770.47
284.6546, 66771.23
285.1367, 66805.72
285.6188, 66866.43
286.1009, 66969.88
286.5830, 67099.27
287.0652, 67186.28
287.5473, 67230.22
288.0294, 67231.60
288.5115, 67172.38
288.9936, 67059.49
289.4757, 66953.34
289.9579, 66874.42
290.4400, 66816.13
290.9221, 66771.58
291.4042, 66743.97
291.8863, 66690.07
292.3684, 66524.54
292.8506, 66281.41
293.3327, 66109.80
293.8148, 66098.38
294.2969, 66162.11
294.7790, 66121.85
295.2611, 65977.10
295.7433, 65824.91
296.2254, 65748.09
296.7075, 65729.34
297.1896, 65723.83
297.6717, 65727.80
298.1538, 65729.84
298.6360, 65701.05
299.1181, 65644.83
299.6002, 65604.63
300.0823, 65623.30
300.5644, 65680.25
301.0465, 65737.54
301.5287, 65787.68
302.0108, 65830.95
302.4929, 65862.26
302.9750, 65884.07
303.4571, 65908.85
303.9392, 65935.30
304.4214, 65972.81
304.9035, 66044.49
305.3856, 66190.77
305.8677, 66313.44
306.3498, 66289.04
306.8319, 66156.20
307.3141, 66050.49
307.7962, 66085.45
308.2783, 66171.80
308.7604, 66227.44
309.2425, 66240.53
309.7246, 66207.88
310.2068, 66092.88
310.6889, 65925.88
311.1710, 65784.48
311.6531, 65760.00
312.1352, 65742.41
312.6173, 65644.98
313.0995, 65435.20
313.5816, 65203.83
314.0637, 64978.36
314.5458, 64760.62
315.0279, 64552.16
315.5100, 64352.74
315.9922, 64163.38
316.4743, 63994.59
316.9564, 63860.57
317.4385, 63692.95
317.9206, 63437.01
318.4027, 63141.21
318.8849, 62873.29
319.3670, 62671.26
319.8491, 62482.72
320.3312, 62285.95
320.8133, 62074.47
321.2954, 61880.59
321.7776, 61735.45
322.2597, 61600.00
322.7418, 61432.58
323.2239, 61188.52
323.7060, 60950.61
324.1881, 60731.13
324.6703, 60529.44
325.1524, 60361.38
325.6345, 60252.23
326.1166, 60166.41
326.5987, 60074.46
327.0808, 59973.14
327.5630, 59868.98
328.0451, 59750.69
328.5272, 59620.65
329.0093, 59534.88
329.4914, 59556.93
329.9735, 59567.75
330.4557, 59482.47
330.9378, 59210.47
331.4199, 59000.51
331.9020, 58884.22
332.3841, 58846.01
332.8662, 58810.43
333.3484, 58773.74
333.8305, 58745.84
334.3126, 58738.15
334.7947, 58768.03
335.2768, 58761.59
335.7589, 58700.32
336.2411, 58608.96
336.7232, 58547.18
337.2053, 58518.97
337.6874, 58510.05
338.1695, 58526.29
338.6516, 58575.41
339.1338, 58574.17
339.6159, 58506.46
340.0980, 58411.41
340.5801, 58359.17
341.0622, 58353.67
341.5443, 58349.16
342.0265, 58320.39
342.5086, 58272.11
342.9907, 58251.44
343.4728, 58263.68
343.9549, 58283.52
344.4370, 58274.80
344.9192, 58241.18
345.4013, 58217.63
345.8834, 58223.07
346.3655, 58245.83
346.8476, 58253.30
347.3297, 58244.97
347.8119, 58235.67
348.2940, 58241.04
348.7761, 58256.88
349.2582, 58269.18
349.7403, 58266.41
350.2225, 58266.26
350.7046, 58296.29
351.1867, 58354.38
351.6688, 58422.01
352.1509, 58492.45
352.6331, 58562.36
353.1152, 58624.32
353.5973, 58669.32
354.0794, 58719.95
354.5615, 58793.79
355.0436, 58889.32
355.5258, 59001.88
356.0079, 59151.24
356.4900, 59304.14
356.9721, 59426.77
357.4542, 59504.09
357.9363, 59584.66
358.4185, 59688.54
358.9006, 59814.86
359.3827, 59962.11
359.8648, 60143.88
360.3469, 60335.21
360.8290, 60516.06
361.3112, 60680.10
361.7933, 60873.94
362.2754, 61140.23
362.7575, 61434.93
363.2396, 61711.37
363.7217, 61925.52
364.2039, 62150.15
364.6860, 62400.02
365.1681, 62676.89
365.6502, 62978.49
366.1323, 63322.55
366.6144, 63682.40
367.0966, 64041.09
367.5787, 64388.51
368.0608, 64741.59
368.5429, 65095.92
369.0250, 65456.54
369.5071, 65839.21
369.9893, 66240.90
370.4714, 66665.85
370.9535, 67121.38
371.4356, 67623.73
371.9177, 68106.25
372.3998, 68551.90
372.8820, 68987.54
373.3641, 69467.98
373.8462, 70000.84
374.3283, 70555.50
374.8104, 71116.13
375.2925, 71687.83
375.7747, 72257.89
376.2568, 72823.18
376.7389, 73402.57
377.2210, 74026.34
377.7031, 74698.66
378.1852, 75351.38
378.6674, 75955.84
379.1495, 76525.39
379.6316, 77149.11
380.1137, 77825.33
380.5958, 78523.51
381.0779, 79223.70
381.5601, 79926.44
382.0422, 80570.51
382.5243, 81121.45
383.0064, 81654.72
383.4885, 82315.32
383.9706, 83093.75
384.4528, 83873.39
384.9349, 84566.29
385.4170, 85216.84
385.8991, 85923.21
386.3812, 86723.35
386.8633, 87526.24
387.3455, 88230.45
387.8276, 88870.64
388.3097, 89538.83
388.7918, 90268.79
389.2739, 91046.06
389.7560, 91871.05
390.2382, 92747.51
390.7203, 93625.98
391.2024, 94479.16
391.6845, 95316.34
392.1666, 96159.40
392.6487, 96991.07
393.1309, 97847.12
393.6130, 98736.71
394.0951, 99661.66
394.5772, 100599.5
395.0593, 101527.0
395.5414, 102478.1
396.0236, 103465.8
396.5057, 104560.6
396.9878, 105615.1
397.4699, 106581.0
397.9520, 107488.2
398.4341, 108420.1
398.9163, 109391.5
399.3984, 110372.1
399.8805, 111363.5
400.3626, 112400.8
400.8447, 113340.5
401.3268, 114154.9
401.8090, 114891.1
402.2911, 115635.8
402.7732, 116406.2
403.2553, 117121.8
403.7374, 117759.3
404.2195, 118320.5
404.7017, 118849.1
405.1838, 119370.7
405.6659, 119794.4
406.1480, 120012.5
406.6301, 120023.7
407.1122, 120006.0
407.5944, 119992.6
408.0765, 119966.9
408.5586, 119904.8
409.0407, 119805.6
409.5228, 119631.3
410.0049, 119289.8
410.4871, 118854.2
410.9692, 118539.9
411.4513, 118386.5
411.9334, 118280.2
412.4155, 118059.5
412.8976, 117771.5
413.3798, 117559.0
413.8619, 117467.4
414.3440, 117490.1
414.8261, 117636.3
415.3082, 117906.4
415.7903, 118237.3
416.2725, 118576.1
416.7546, 118958.7
417.2367, 119437.4
417.7188, 120105.6
418.2009, 120775.9
418.6830, 121358.6
419.1652, 121871.4
419.6473, 122356.3
420.1294, 122807.8
420.6115, 123254.5
421.0937, 123735.3
421.5758, 124318.5
422.0579, 124777.2
422.5400, 125059.0
423.0221, 125205.1
423.5042, 125286.6
423.9864, 125252.8
424.4685, 125214.8
424.9506, 125208.8
425.4327, 125242.3
425.9148, 125213.0
426.3969, 125112.5
426.8791, 124959.1
427.3612, 124762.6
427.8433, 124509.1
428.3254, 124261.5
428.8075, 124044.2
429.2896, 123832.9
429.7718, 123530.1
430.2539, 123113.5
430.7360, 122719.4
431.2181, 122449.1
431.7002, 122293.0
432.1823, 122105.8
432.6645, 121871.8
433.1466, 121634.0
433.6287, 121461.0
434.1108, 121342.3
434.5929, 121223.0
435.0750, 121052.5
435.5572, 120881.2
436.0393, 120809.0
436.5214, 120832.7
437.0035, 120881.3
437.4856, 120915.2
437.9677, 120934.8
438.4499, 120940.8
438.9320, 120935.0
439.4141, 120912.8
439.8962, 120805.3
440.3783, 120673.0
440.8604, 120668.7
441.3426, 120984.8
441.8247, 121353.8
442.3068, 121614.2
442.7889, 121720.8
443.2710, 121851.8
443.7531, 122048.4
444.2353, 122295.5
444.7174, 122579.7
445.1995, 122938.9
445.6816, 123287.3
446.1637, 123585.7
446.6458, 123842.1
447.1280, 124181.5
447.6101, 124650.2
448.0922, 125152.7
448.5743, 125634.6
449.0564, 126096.7
449.5385, 126549.1
450.0207, 126992.4
450.5028, 127424.4
450.9849, 127828.7
451.4670, 128190.9
451.9491, 128583.0
452.4312, 129079.1
452.9134, 129645.3
453.3955, 130008.0
453.8776, 130145.8
454.3597, 130225.1
454.8418, 130426.7
455.3239, 130713.3
455.8061, 130918.4
456.2882, 130992.1
456.7703, 130991.2
457.2524, 130962.5
457.7345, 130919.5
458.2166, 130918.2
458.6988, 131036.1
459.1809, 131191.1
459.6630, 131287.2
460.1451, 131308.8
460.6272, 131323.0
461.1093, 131410.7
461.5915, 131504.2
462.0736, 131517.2
462.5557, 131390.8
463.0378, 131209.1
463.5199, 131040.9
464.0020, 130867.5
464.4842, 130537.6
464.9663, 129952.5
465.4484, 129254.2
465.9305, 128510.7
466.4126, 127693.2
466.8947, 126874.3
467.3769, 126091.9
467.8590, 125295.5
468.3411, 124383.6
468.8232, 123316.7
469.3053, 122216.7
469.7874, 121093.5
470.2696, 119950.5
470.7517, 118856.5
471.2338, 117824.5
471.7159, 116810.4
472.1980, 115785.0
472.6801, 114744.9
473.1623, 113724.2
473.6444, 112709.6
474.1265, 111735.8
474.6086, 110909.6
475.0907, 110204.1
475.5728, 109446.0
476.0550, 108471.2
476.5371, 107406.9
477.0192, 106481.1
477.5013, 105698.2
477.9834, 104953.4
478.4655, 104156.1
478.9477, 103348.2
479.4298, 102595.1
479.9119, 101920.5
480.3940, 101286.5
480.8761, 100666.4
481.3582, 100073.0
481.8404, 99552.73
482.3225, 99203.58
482.8046, 98862.91
483.2867, 98440.12
483.7688, 97887.85
484.2509, 97392.10
484.7331, 97017.72
485.2152, 96683.20
485.6973, 96303.93
486.1794, 95853.05
486.6615, 95399.68
487.1436, 94938.09
487.6258, 94478.43
488.1079, 94077.17
488.5900, 93758.55
489.0721, 93437.66
489.5542, 93051.97
490.0363, 92598.78
490.5185, 92224.80
491.0006, 91958.86
491.4827, 91698.85
491.9648, 91272.26
492.4470, 90717.18
492.9291, 90256.18
493.4112, 90030.88
493.8933, 89893.50
494.3754, 89610.02
494.8575, 89200.09
495.3397, 88804.43
495.8218, 88539.20
496.3039, 88319.20
496.7860, 88040.79
497.2681, 87658.96
497.7502, 87319.02
498.2324, 87126.63
498.7145, 87012.44
499.1966, 86878.55
499.6787, 86655.96
500.1608, 86451.83
500.6429, 86310.27
501.1251, 86227.25
501.6072, 86128.84
502.0893, 86004.52
502.5714, 85867.11
503.0535, 85717.29
503.5356, 85531.99
504.0178, 85393.97
504.4999, 85325.52
504.9820, 85285.27
505.4641, 85195.38
505.9462, 85036.35
506.4283, 84933.77
506.9105, 84945.20
507.3926, 85036.47
507.8747, 85052.76
508.3568, 84988.37
508.8389, 84956.58
509.3210, 85070.52
509.8032, 85281.96
510.2853, 85455.70
510.7674, 85568.80
511.2495, 85669.95
511.7316, 85788.63
512.2137, 85933.89
512.6959, 86121.58
513.1780, 86385.73
513.6601, 86673.24
514.1422, 86936.78
514.6243, 87185.21
515.1064, 87480.73
515.5886, 87872.07
516.0707, 88302.56
516.5528, 88736.53
517.0349, 89179.48
517.5170, 89612.70
517.9991, 90013.23
518.4813, 90408.40
518.9634, 90823.09
519.4455, 91203.59
519.9276, 91702.52
520.4097, 92403.46
520.8918, 93254.40
521.3740, 93979.86
521.8561, 94547.35
522.3382, 95096.99
522.8203, 95725.99
523.3024, 96424.19
523.7845, 97098.17
524.2667, 97737.08
524.7488, 98389.91
525.2309, 99164.77
525.7130, 100030.1
526.1951, 100856.7
526.6772, 101577.8
527.1594, 102272.4
527.6415, 103052.0
528.1236, 103887.2
528.6057, 104667.5
529.0878, 105284.2
529.5699, 105843.9
530.0521, 106414.7
530.5342, 107014.3
531.0163, 107609.6
531.4984, 108226.5
531.9805, 108824.2
532.4626, 109362.3
532.9448, 109834.0
533.4269, 110244.6
533.9090, 110573.0
534.3911, 110838.4
534.8732, 111108.9
535.3553, 111419.5
535.8375, 111675.8
536.3196, 111840.8
536.8017, 111916.9
537.2838, 111887.6
537.7659, 111737.2
538.2480, 111531.8
538.7302, 111335.4
539.2123, 111144.4
539.6944, 110953.6
540.1765, 110776.4
540.6586, 110571.7
541.1407, 110242.6
541.6229, 109822.7
542.1050, 109428.3
542.5871, 109181.6
543.0692, 108948.6
543.5513, 108577.1
544.0334, 108064.1
544.5156, 107610.8
544.9977, 107392.0
545.4798, 107225.2
545.9619, 106962.8
546.4440, 106444.2
546.9261, 106027.0
547.4083, 105834.6
547.8904, 105758.7
548.3725, 105607.8
548.8546, 105342.0
549.3367, 105064.6
549.8188, 104797.4
550.3010, 104539.7
550.7831, 104291.4
551.2652, 104060.7
551.7473, 103811.0
552.2294, 103499.2
552.7115, 103134.1
553.1937, 102824.9
553.6758, 102588.1
554.1579, 102374.4
554.6400, 102133.1
555.1221, 101865.1
555.6042, 101577.6
556.0864, 101253.5
556.5685, 100926.0
557.0506, 100644.1
557.5327, 100392.0
558.0148, 100114.9
558.4969, 99766.89
558.9791, 99398.63
559.4612, 99029.52
559.9433, 98651.36
560.4254, 98333.84
560.9075, 98121.94
561.3896, 97959.98
561.8718, 97796.49
562.3539, 97641.91
562.8360, 97466.50
563.3181, 97262.24
563.8002, 97040.54
564.2823, 96817.52
564.7645, 96587.87
565.2466, 96390.04
565.7287, 96250.83
566.2108, 96157.88
566.6929, 96057.89
567.1750, 95951.87
567.6572, 95833.48
568.1393, 95668.32
568.6214, 95493.60
569.1035, 95407.19
569.5856, 95446.55
570.0677, 95479.48
570.5499, 95362.73
571.0320, 95173.77
571.5141, 95034.55
571.9962, 95051.05
572.4783, 95064.60
572.9604, 95008.48
573.4426, 94893.38
573.9247, 94777.09
574.4068, 94660.85
574.8889, 94553.25
575.3710, 94455.93
575.8531, 94367.60
576.3353, 94302.69
576.8174, 94265.50
577.2995, 94246.23
577.7816, 94238.45
578.2637, 94243.34
578.7458, 94247.21
579.2280, 94246.65
579.7101, 94246.84
580.1922, 94258.92
580.6743, 94281.03
581.1564, 94302.73
581.6385, 94313.73
582.1207, 94324.57
582.6028, 94351.13
583.0849, 94391.59
583.5670, 94433.06
584.0491, 94423.05
584.5313, 94439.66
585.0134, 94568.97
585.4955, 94883.05
585.9776, 95113.30
586.4597, 95095.69
586.9418, 94998.24
587.4240, 95013.10
587.9061, 95220.83
588.3882, 95424.82
588.8703, 95612.98
589.3524, 95781.65
589.8345, 95910.30
590.3167, 95984.15
590.7988, 96074.67
591.2809, 96196.39
591.7630, 96356.98
592.2451, 96621.40
592.7272, 96994.16
593.2094, 97360.09
593.6915, 97580.91
594.1736, 97735.30
594.6557, 97988.04
595.1378, 98380.22
595.6199, 98787.74
596.1021, 99091.63
596.5842, 99357.56
597.0663, 99680.60
597.5485, 100088.5
598.0306, 100558.2
598.5127, 101113.9
598.9948, 101733.5
599.4769, 102327.6
599.9590, 102865.9
600.4412, 103416.2
600.9233, 103990.2
601.4054, 104589.4
601.8875, 105237.8
602.3696, 105947.3
602.8517, 106666.3
603.3339, 107329.6
603.8160, 107946.4
604.2981, 108562.1
604.7802, 109172.2
605.2623, 109797.7
605.7444, 110446.7
606.2266, 111130.1
606.7087, 111846.7
607.1908, 112649.0
607.6729, 113446.5
608.1550, 114184.4
608.6371, 114863.2
609.1193, 115509.6
609.6014, 116090.1
610.0835, 116674.2
610.5656, 117284.5
611.0477, 117925.4
611.5298, 118576.8
612.0120, 119256.2
612.4941, 119921.4
612.9762, 120536.2
613.4583, 121086.4
613.9404, 121630.9
614.4225, 122173.5
614.9047, 122702.7
615.3868, 123193.2
615.8689, 123653.9
616.3510, 124149.3
616.8331, 124704.0
617.3152, 125294.0
617.7974, 125939.0
618.2795, 126603.2
618.7616, 127181.9
619.2437, 127540.9
619.7258, 127846.4
620.2079, 128236.8
620.6901, 128716.9
621.1722, 129169.5
621.6543, 129505.9
622.1364, 129836.9
622.6185, 130243.2
623.1006, 130822.8
623.5828, 131272.1
624.0649, 131548.6
624.5470, 131733.8
625.0291, 131916.8
625.5112, 132096.7
625.9933, 132287.7
626.4755, 132508.0
626.9576, 132716.9
627.4397, 132814.3
627.9218, 132811.0
628.4039, 132788.7
628.8860, 132756.5
629.3682, 132744.7
629.8503, 132823.1
630.3324, 132977.1
630.8145, 133094.6
631.2966, 133080.8
631.7787, 133026.6
632.2609, 133003.5
632.7430, 133040.9
633.2251, 133029.7
633.7072, 132872.4
634.1893, 132705.7
634.6714, 132646.9
635.1536, 132758.3
635.6357, 132839.9
636.1178, 132868.8
636.5999, 132869.7
637.0820, 132887.5
637.5641, 132923.0
638.0463, 132953.5
638.5284, 132957.5
639.0105, 132964.8
639.4926, 133059.1
639.9747, 133223.8
640.4568, 133359.9
640.9390, 133359.6
641.4211, 133335.7
641.9032, 133404.1
642.3853, 133572.6
642.8674, 133734.4
643.3495, 133826.8
643.8317, 133910.7
644.3138, 134029.6
644.7959, 134201.8
645.2780, 134382.5
645.7601, 134563.1
646.2422, 134759.2
646.7244, 134999.8
647.2065, 135294.3
647.6886, 135575.0
648.1707, 135829.6
648.6528, 136061.2
649.1349, 136259.8
649.6171, 136433.3
650.0992, 136643.8
650.5813, 136962.8
651.0634, 137307.7
651.5455, 137547.3
652.0276, 137708.4
652.5098, 137924.9
652.9919, 138352.9
653.4740, 138793.0
653.9561, 139108.6
654.4382, 139262.3
654.9203, 139439.0
655.4025, 139690.7
655.8846, 139948.7
656.3667, 140170.5
656.8488, 140362.0
657.3309, 140492.2
657.8130, 140543.3
658.2952, 140564.9
658.7773, 140628.8
659.2594, 140731.6
659.7415, 140833.7
660.2236, 140948.5
660.7057, 141018.2
661.1879, 140921.0
661.6700, 140706.5
662.1521, 140513.9
662.6342, 140482.0
663.1163, 140432.0
663.5984, 140218.6
664.0806, 139863.9
664.5627, 139563.6
665.0448, 139455.1
665.5269, 139332.5
666.0090, 139097.3
666.4911, 138731.1
666.9733, 138413.6
667.4554, 138177.9
667.9375, 137925.7
668.4196, 137566.5
668.9017, 137101.7
669.3839, 136635.1
669.8660, 136178.6
670.3481, 135717.3
670.8302, 135253.8
671.3123, 134772.5
671.7944, 134234.2
672.2766, 133606.3
672.7587, 132960.3
673.2408, 132340.9
673.7229, 131735.1
674.2050, 131105.4
674.6871, 130407.1
675.1693, 129722.2
675.6514, 129100.9
676.1335, 128514.2
676.6156, 127805.7
677.0977, 126903.6
677.5798, 126048.7
678.0620, 125392.7
678.5441, 124899.5
679.0262, 124267.5
679.5083, 123486.0
679.9904, 122654.1
680.4725, 121819.6
680.9547, 120999.5
681.4368, 120202.7
681.9189, 119433.5
682.4010, 118724.8
682.8831, 118206.6
683.3652, 117714.4
683.8474, 117081.9
684.3295, 116140.4
684.8116, 115265.9
685.2937, 114560.7
685.7758, 113927.7
686.2579, 113251.5
686.7401, 112511.1
687.2222, 111792.1
687.7043, 111119.7
688.1864, 110475.4
688.6685, 109796.2
689.1506, 109087.7
689.6328, 108445.1
690.1149, 107962.8
690.5970, 107530.3
691.0791, 106958.9
691.5612, 106272.5
692.0433, 105613.2
692.5255, 105051.3
693.0076, 104529.8
693.4897, 104019.6
693.9718, 103519.3
694.4539, 103011.9
694.9360, 102506.7
695.4182, 101983.9
695.9003, 101415.5
696.3824, 100787.4
696.8645, 100207.5
697.3466, 99680.01
697.8287, 99189.38
698.3109, 98736.16
698.7930, 98310.66
699.2751, 97849.09
699.7572, 97330.80
700.2393, 96827.13
700.7214, 96425.55
701.2036, 96088.88
701.6857, 95755.66
702.1678, 95418.95
702.6499, 95064.51
703.1320, 94693.41
703.6141, 94300.31
704.0963, 93866.10
704.5784, 93334.94
705.0605, 92842.97
705.5426, 92421.84
706.0247, 92060.31
706.5068, 91736.96
706.9890, 91460.07
707.4711, 91138.17
707.9532, 90679.55
708.4353, 90152.17
708.9174, 89754.83
709.3995, 89476.09
709.8817, 89221.05
710.3638, 88954.23
710.8459, 88665.37
711.3280, 88340.80
711.8101, 87971.10
712.2922, 87615.40
712.7744, 87278.27
713.2565, 86967.63
713.7386, 86681.82
714.2207, 86413.98
714.7028, 86198.69
715.1849, 86065.09
715.6671, 85929.55
716.1492, 85668.27
716.6313, 85296.72
717.1134, 84983.12
717.5955, 84773.91
718.0776, 84581.71
718.5598, 84278.37
719.0419, 83920.16
719.5240, 83618.74
720.0061, 83462.92
720.4882, 83309.28
720.9703, 83078.74
721.4525, 82801.80
721.9346, 82546.38
722.4167, 82305.67
722.8988, 82105.48
723.3809, 81965.17
723.8630, 81867.51
724.3452, 81744.02
724.8273, 81593.25
725.3094, 81431.14
725.7915, 81271.40
726.2736, 81104.79
726.7557, 80899.00
727.2379, 80658.66
727.7200, 80420.39
728.2021, 80192.61
728.6842, 79988.58
729.1663, 79827.98
729.6484, 79714.63
730.1306, 79588.44
730.6127, 79402.69
731.0948, 79224.63
731.5769, 79096.21
732.0590, 79036.90
732.5411, 78938.96
733.0233, 78794.38
733.5054, 78629.17
733.9875, 78457.27
734.4696, 78281.59
734.9517, 78139.25
735.4338, 78040.36
735.9160, 77933.35
736.3981, 77727.06
736.8802, 77491.04
737.3623, 77332.62
737.8444, 77314.45
738.3266, 77310.75
738.8087, 77299.46
739.2908, 77264.70
739.7729, 77180.85
740.2551, 77014.68
740.7372, 76860.82
741.2193, 76733.64
741.7014, 76621.37
742.1835, 76497.11
742.6656, 76361.21
743.1478, 76235.77
743.6299, 76142.73
744.1120, 76043.98
744.5941, 75844.91
745.0762, 75584.88
745.5583, 75379.54
746.0405, 75350.74
746.5226, 75334.76
747.0047, 75239.83
747.4868, 75076.45
747.9689, 74916.97
748.4510, 74744.07
748.9332, 74612.92
749.4153, 74558.16
749.8974, 74570.03
750.3795, 74528.38
750.8616, 74429.26
751.3438, 74309.64
751.8259, 74185.34
752.3080, 74059.66
752.7901, 73933.05
753.2722, 73806.84
753.7543, 73694.48
754.2365, 73621.89
754.7186, 73554.97
755.2007, 73464.78
755.6828, 73342.16
756.1649, 73227.54
756.6470, 73156.16
757.1292, 73067.73
757.6113, 72905.50
758.0934, 72625.25
758.5755, 72488.78
759.0576, 72525.23
759.5397, 72604.45
760.0219, 72592.54
760.5040, 72511.70
760.9861, 72424.84
761.4682, 72337.84
761.9503, 72271.85
762.4324, 72281.64
762.9146, 72305.27
763.3967, 72268.52
763.8788, 72123.75
764.3609, 71966.14
764.8430, 71785.86
765.3251, 71615.77
765.8073, 71496.03
766.2894, 71440.31
766.7715, 71381.38
767.2536, 71307.72
767.7357, 71232.58
768.2178, 71179.09
768.7000, 71143.70
769.1821, 71116.82
769.6642, 71115.96
770.1463, 71088.45
770.6284, 70949.80
771.1105, 70756.90
771.5927, 70619.69
772.0748, 70644.80
772.5569, 70644.24
773.0390, 70559.44
773.5211, 70421.95
774.0032, 70308.51
774.4854, 70221.14
774.9675, 70151.20
775.4496, 70099.52
775.9317, 70060.64
776.4138, 70030.11
776.8959, 70003.76
777.3781, 69957.33
777.8602, 69853.79
778.3423, 69744.49
778.8244, 69675.39
779.3065, 69638.46
779.7886, 69597.62
780.2708, 69547.07
780.7529, 69484.28
781.2350, 69396.30
781.7171, 69289.66
782.1992, 69239.04
782.6813, 69266.66
783.1635, 69262.52
783.6456, 69133.52
784.1277, 68935.37
784.6098, 68870.04
785.0919, 68924.38
785.5740, 68964.25
786.0562, 68870.86
786.5383, 68749.34
787.0204, 68698.94
787.5025, 68724.55
787.9846, 68721.87
788.4667, 68640.66
788.9489, 68549.51
789.4310, 68470.05
789.9131, 68401.91
790.3952, 68371.46
790.8773, 68387.12
791.3594, 68402.41
791.8416, 68382.69
792.3237, 68335.95
792.8058, 68278.05
793.2879, 68209.66
793.7700, 68146.91
794.2521, 68075.34
794.7343, 68031.11
795.2164, 68072.23
795.6985, 68248.77
796.1806, 68300.05
796.6627, 68108.18
797.1448, 67889.66
797.6270, 67791.55
798.1091, 67833.89
798.5912, 67832.38
799.0733, 67780.41
799.5554, 67713.07
800.0375, 67665.34
800.5197, 67627.02
801.0018, 67577.82
801.4839, 67514.57
801.9660, 67446.28
802.4481, 67365.44
802.9302, 67289.94
803.4124, 67238.42
803.8945, 67238.93
804.3766, 67202.26
804.8587, 67103.64
805.3408, 67000.54
805.8229, 66947.88
806.3051, 66945.38
806.7872, 66955.33
807.2693, 66980.29
807.7514, 66981.69
808.2335, 66900.30
808.7156, 66776.14
809.1978, 66666.58
809.6799, 66581.09
810.1620, 66519.03
810.6441, 66489.00
811.1262, 66477.63
811.6083, 66473.73
812.0905, 66488.16
812.5726, 66484.13
813.0547, 66461.12
813.5368, 66419.41
814.0189, 66338.88
814.5010, 66232.62
814.9832, 66193.11
815.4653, 66251.59
815.9474, 66298.67
816.4295, 66195.72
816.9116, 66037.75
817.3937, 65946.50
817.8759, 65992.19
818.3580, 66027.09
818.8401, 66011.21
819.3222, 65978.22
819.8043, 65963.91
820.2864, 65980.27
820.7686, 65954.53
821.2507, 65872.09
821.7328, 65771.94
822.2149, 65714.23
822.6970, 65679.29
823.1791, 65602.09
823.6613, 65442.38
824.1434, 65327.92
824.6255, 65385.51
825.1076, 65516.71
825.5897, 65611.23
826.0718, 65615.48
826.5540, 65633.97
827.0361, 65684.40
827.5182, 65729.74
828.0003, 65716.06
828.4824, 65644.37
828.9645, 65598.20
829.4467, 65597.63
829.9288, 65592.71
830.4109, 65505.06
830.8930, 65382.58
831.3751, 65293.77
831.8572, 65246.18
832.3394, 65259.45
832.8215, 65412.12
833.3036, 65590.68
833.7857, 65671.22
834.2678, 65627.55
834.7499, 65552.11
835.2321, 65435.59
835.7142, 65323.18
836.1963, 65283.84
836.6784, 65298.06
837.1605, 65300.98
837.6426, 65284.59
838.1248, 65235.97
838.6069, 65114.06
839.0890, 64969.11
839.5711, 64858.64
840.0532, 64811.99
840.5353, 64769.57
841.0175, 64732.93
841.4996, 64692.83
841.9817, 64634.41
842.4638, 64555.73
842.9459, 64499.82
843.4280, 64471.00
843.9102, 64463.93
844.3923, 64519.54
844.8744, 64577.66
845.3565, 64520.50
845.8386, 64282.50
846.3207, 64089.02
846.8029, 64072.80
847.2850, 64114.92
847.7671, 64104.97
848.2492, 63995.79
848.7313, 63965.64
849.2134, 64035.97
849.6956, 64131.25
850.1777, 64189.18
850.6598, 64210.31
851.1419, 64178.53
851.6240, 64084.05
852.1061, 64018.43
852.5883, 64080.00
853.0704, 64184.61
853.5525, 64260.64
854.0346, 64299.54
854.5167, 64291.56
854.9988, 64192.29
855.4810, 64105.13
855.9631, 64115.89
856.4452, 64226.68
856.9273, 64305.62
857.4094, 64348.72
857.8915, 64369.79
858.3737, 64345.43
858.8558, 64323.47
859.3379, 64375.30
859.8200, 64513.48
860.3021, 64652.83
860.7842, 64774.56
861.2664, 64873.43
861.7485, 64942.47
862.2306, 64978.80
862.7127, 65016.50
863.1948, 65052.84
863.6769, 65103.89
864.1591, 65172.19
864.6412, 65266.21
865.1233, 65412.13
865.6054, 65609.91
866.0875, 65832.14
866.5696, 66086.56
867.0518, 66343.22
867.5339, 66584.38
868.0160, 66810.67
868.4981, 67025.18
868.9802, 67222.54
869.4623, 67421.04
869.9445, 67628.33
870.4266, 67842.30
870.9087, 68038.72
871.3908, 68225.06
871.8729, 68451.20
872.3550, 68802.88
872.8372, 69165.63
873.3193, 69436.30
873.8014, 69628.65
874.2835, 69821.24
874.7656, 70029.39
875.2477, 70242.95
875.7299, 70457.36
876.2120, 70675.15
876.6941, 70923.83
877.1762, 71202.31
877.6583, 71459.81
878.1404, 71660.57
878.6226, 71839.51
879.1047, 72040.37
879.5869, 72255.92
880.0690, 72472.32
880.5511, 72693.59
881.0332, 72903.61
881.5153, 73090.05
881.9974, 73264.33
882.4796, 73455.23
882.9617, 73666.86
883.4438, 73873.45
883.9259, 74068.70
884.4080, 74252.30
884.8901, 74436.59
885.3723, 74606.83
885.8544, 74725.59
886.3365, 74747.84
886.8186, 74766.97
887.3007, 74839.29
887.7828, 74925.39
888.2650, 74981.32
888.7471, 75045.67
889.2292, 74965.82
889.7113, 74705.58
890.1934, 74350.45
890.6755, 73999.96
891.1577, 73644.73
891.6398, 73249.76
892.1219, 72817.52
892.6040, 72316.51
893.0861, 71674.09
893.5682, 70989.08
894.0504, 70357.18
894.5325, 69823.45
895.0146, 69264.66
895.4967, 68660.13
895.9788, 68070.55
896.4609, 67557.02
896.9431, 67110.18
897.4252, 66684.23
897.9073, 66277.18
898.3894, 65905.17
898.8715, 65574.90
899.3536, 65279.71
899.8358, 65006.20
900.3179, 64754.10
900.8000, 64549.78
901.2821, 64425.35
901.7642, 64304.90
902.2463, 64154.87
902.7285, 63979.72
903.2106, 63775.66
903.6927, 63546.08
904.1748, 63355.50
904.6569, 63282.92
905.1390, 63236.86
905.6212, 63102.24
906.1033, 62906.56
906.5854, 62768.02
907.0675, 62781.25
907.5496, 62784.58
908.0317, 62739.98
908.5139, 62659.56
908.9960, 62559.66
909.4781, 62440.53
909.9602, 62386.48
910.4423, 62453.76
910.9244, 62557.56
911.4066, 62625.83
911.8887, 62650.50
912.3708, 62617.00
912.8529, 62415.56
913.3350, 62292.16
913.8171, 62342.56
914.2993, 62452.86
914.7814, 62465.24
915.2635, 62370.45
915.7456, 62300.13
916.2277, 62273.62
916.7098, 62271.69
917.1920, 62297.82
917.6741, 62324.40
918.1562, 62307.59
918.6383, 62230.00
919.1204, 62140.34
919.6025, 62015.43
920.0847, 61915.09
920.5668, 61886.07
921.0489, 61940.38
921.5310, 61990.42
922.0131, 62040.01
922.4952, 62053.63
922.9774, 61960.66
923.4595, 61833.63
923.9416, 61790.01
924.4237, 61831.45
924.9058, 61869.11
925.3879, 61872.96
925.8701, 61858.75
926.3522, 61825.81
926.8343, 61778.93
927.3164, 61755.04
927.7985, 61753.62
928.2806, 61780.88
928.7628, 61865.41
929.2449, 61955.52
929.7270, 61957.78
930.2091, 61898.45
930.6912, 61848.72
931.1733, 61845.23
931.6555, 61847.15
932.1376, 61840.48
932.6197, 61832.70
933.1018, 61840.93
933.5839, 61869.70
934.0660, 61880.43
934.5482, 61865.30
935.0303, 61832.95
935.5124, 61765.67
935.9945, 61696.73
936.4766, 61694.92
936.9587, 61813.04
937.4409, 61894.80
937.9230, 61867.41
938.4051, 61800.87
938.8872, 61743.04
939.3693, 61690.84
939.8514, 61667.29
940.3336, 61675.64
940.8157, 61690.12
941.2978, 61692.36
941.7799, 61685.78
942.2620, 61679.68
942.7441, 61673.43
943.2263, 61646.87
943.7084, 61541.23
944.1905, 61469.86
944.6726, 61485.95
945.1547, 61575.28
945.6368, 61654.12
946.1190, 61723.42
946.6011, 61777.58
947.0832, 61823.06
947.5653, 61842.36
948.0474, 61786.87
948.5295, 61688.73
949.0117, 61622.71
949.4938, 61645.73
949.9759, 61664.05
950.4580, 61654.66
950.9401, 61635.16
951.4222, 61636.46
951.9044, 61659.23
952.3865, 61660.86
952.8686, 61630.13
953.3507, 61598.56
953.8328, 61611.81
954.3149, 61638.45
954.7971, 61634.20
955.2792, 61578.27
955.7613, 61540.43
956.2434, 61540.96
956.7255, 61550.18
957.2076, 61546.15
957.6898, 61530.07
958.1719, 61551.50
958.6540, 61609.95
959.1361, 61661.77
959.6182, 61684.30
960.1003, 61681.18
960.5825, 61635.17
961.0646, 61558.96
961.5467, 61526.17
962.0288, 61591.64
962.5109, 61637.22
962.9930, 61628.62
963.4752, 61588.49
963.9573, 61570.36
964.4394, 61571.90
964.9215, 61579.77
965.4036, 61596.55
965.8857, 61604.06
966.3679, 61567.48
966.8500, 61521.42
967.3321, 61512.82
967.8142, 61583.43
968.2963, 61628.53
968.7784, 61647.77
969.2606, 61640.61
969.7427, 61583.97
970.2248, 61499.54
970.7069, 61471.14
971.1890, 61504.63
971.6711, 61552.42
972.1533, 61615.09
972.6354, 61654.84
973.1175, 61620.95
973.5996, 61516.89
974.0817, 61498.57
974.5638, 61593.94
975.0460, 61675.09
975.5281, 61681.40
976.0102, 61647.57
976.4923, 61642.62
976.9744, 61660.10
977.4565, 61681.05
977.9387, 61699.46
978.4208, 61717.23
978.9029, 61732.23
979.3850, 61748.30
979.8671, 61780.24
980.3492, 61840.27
980.8314, 61826.61
981.3135, 61710.50
981.7956, 61599.48
982.2777, 61637.00
982.7598, 61742.55
983.2419, 61802.44
983.7241, 61796.48
984.2062, 61773.49
984.6883, 61723.00
985.1704, 61684.39
985.6525, 61679.57
986.1346, 61704.51
986.6168, 61703.52
987.0989, 61678.66
987.5810, 61693.77
988.0631, 61861.07
988.5452, 62021.97
989.0273, 61985.43
989.5095, 61824.21
989.9916, 61725.53
990.4737, 61758.25
990.9558, 61809.13
991.4379, 61877.09
991.9200, 61940.37
992.4022, 61964.62
992.8843, 61953.89
993.3664, 61915.86
993.8485, 61844.05
994.3306, 61797.87
994.8127, 61838.95
995.2949, 61910.00
995.7770, 61961.59
996.2591, 61987.69
996.7412, 62018.64
997.2233, 62057.14
997.7054, 62089.64
998.1876, 62102.61
998.6697, 62105.80
999.1518, 62131.45
999.6339, 62169.44
1000.116, 62180.08
1000.598, 62119.34
1001.080, 62058.23
1001.562, 62012.33
1002.044, 61985.15
1002.527, 61979.71
1003.009, 61994.69
1003.491, 62066.20
1003.973, 62217.22
1004.455, 62351.43
1004.937, 62335.45
1005.419, 62250.32
1005.901, 62197.20
1006.384, 62201.52
1006.866, 62205.72
1007.348, 62200.51
1007.830, 62196.81
1008.312, 62200.83
1008.794, 62211.60
1009.276, 62226.47
1009.758, 62244.34
1010.240, 62256.67
1010.723, 62235.55
1011.205, 62229.93
1011.687, 62291.06
1012.169, 62389.83
1012.651, 62448.46
1013.133, 62461.59
1013.615, 62437.78
1014.097, 62361.14
1014.580, 62293.61
1015.062, 62338.57
1015.544, 62450.06
1016.026, 62552.29
1016.508, 62638.17
1016.990, 62668.17
1017.472, 62551.99
1017.954, 62444.98
1018.436, 62442.30
1018.919, 62538.48
1019.401, 62615.62
1019.883, 62673.69
1020.365, 62722.51
1020.847, 62784.27
1021.329, 62825.69
1021.811, 62784.75
1022.293, 62699.28
1022.776, 62663.23
1023.258, 62746.05
1023.740, 62787.86
1024.222, 62750.64
1024.704, 62705.34
1025.186, 62784.43
1025.668, 62938.66
1026.150, 62974.74
1026.632, 62855.95
1027.115, 62761.65
1027.597, 62828.10
1028.079, 62933.38
1028.561, 63005.36
1029.043, 63042.86
1029.525, 63029.65
1030.007, 62957.86
1030.489, 62903.52
1030.972, 62912.83
1031.454, 62946.34
1031.936, 62945.75
1032.418, 62927.20
1032.900, 62925.28
1033.382, 62964.49
1033.864, 63003.23
1034.346, 63040.92
1034.828, 63071.46
1035.311, 63092.83
1035.793, 63102.32
1036.275, 63055.68
1036.757, 62948.51
1037.239, 62900.80
1037.721, 63080.63
1038.203, 63278.71
1038.685, 63331.91
1039.167, 63251.41
1039.650, 63212.64
1040.132, 63224.52
1040.614, 63240.43
1041.096, 63243.54
1041.578, 63244.42
1042.060, 63266.12
1042.542, 63296.32
1043.024, 63310.78
1043.507, 63289.04
1043.989, 63277.32
1044.471, 63283.38
1044.953, 63302.16
1045.435, 63334.78
1045.917, 63379.39
1046.399, 63415.17
1046.881, 63441.39
1047.364, 63455.30
1047.846, 63452.13
1048.328, 63438.77
1048.810, 63400.12
1049.292, 63353.66
1049.774, 63372.28
1050.256, 63483.97
1050.738, 63563.04
1051.220, 63583.00
1051.703, 63564.72
1052.185, 63508.37
1052.667, 63444.55
1053.149, 63428.99
1053.631, 63480.81
1054.113, 63542.16
1054.595, 63600.66
1055.077, 63663.37
1055.559, 63749.95
1056.042, 63846.39
1056.524, 63824.36
1057.006, 63703.20
1057.488, 63641.30
1057.970, 63801.89
1058.452, 63969.38
1058.934, 63996.13
1059.416, 63940.77
1059.899, 63917.37
1060.381, 63936.91
1060.863, 63963.64
1061.345, 63999.43
1061.827, 64022.02
1062.309, 63987.17
1062.791, 63935.20
1063.273, 63938.89
1063.755, 64002.19
1064.238, 64034.25
1064.720, 63952.73
1065.202, 63915.70
1065.684, 63991.52
1066.166, 64127.26
1066.648, 64159.77
1067.130, 64112.46
1067.612, 64102.27
1068.094, 64191.00
1068.577, 64265.43
1069.059, 64246.47
1069.541, 64187.09
1070.023, 64130.84
1070.505, 64067.80
1070.987, 64086.86
1071.469, 64197.20
1071.951, 64301.54
1072.434, 64326.71
1072.916, 64314.08
1073.398, 64303.39
1073.880, 64296.60
1074.362, 64297.26
1074.844, 64309.78
1075.326, 64321.50
1075.808, 64324.35
1076.291, 64337.88
1076.773, 64407.67
1077.255, 64509.07
1077.737, 64571.10
1078.219, 64582.68
1078.701, 64566.12
1079.183, 64471.95
1079.665, 64417.35
1080.147, 64486.79
1080.630, 64645.62
1081.112, 64671.56
1081.594, 64569.43
1082.076, 64486.23
1082.558, 64475.48
1083.040, 64507.86
1083.522, 64597.59
1084.004, 64696.47
1084.486, 64736.70
1084.969, 64698.51
1085.451, 64628.39
1085.933, 64504.86
1086.415, 64432.38
1086.897, 64549.65
1087.379, 64742.20
1087.861, 64806.14
1088.343, 64760.80
1088.826, 64707.21
1089.308, 64627.05
1089.790, 64625.75
1090.272, 64762.93
1090.754, 64934.17
1091.236, 64958.50
1091.718, 64868.84
1092.200, 64812.13
1092.682, 64810.41
1093.165, 64841.36
1093.647, 64935.83
1094.129, 65017.03
1094.611, 65021.48
1095.093, 64965.31
1095.575, 64963.27
1096.057, 65016.75
1096.539, 65096.77
1097.022, 65212.14
1097.504, 65307.59
1097.986, 65305.59
1098.468, 65256.06
1098.950, 65227.34
1099.432, 65236.93
1099.914, 65249.99
1100.396, 65268.66
1100.879, 65283.18
1101.361, 65290.60
1101.843, 65287.06
1102.325, 65242.62
1102.807, 65176.65
1103.289, 65161.41
1103.771, 65277.79
1104.253, 65374.96
1104.735, 65423.79
1105.218, 65448.39
1105.700, 65485.44
1106.182, 65528.42
1106.664, 65533.60
1107.146, 65495.50
1107.628, 65477.87
1108.110, 65554.57
1108.592, 65627.41
1109.074, 65626.69
1109.557, 65576.92
1110.039, 65587.23
1110.521, 65658.83
1111.003, 65690.66
1111.485, 65632.45
1111.967, 65588.20
1112.449, 65701.81
1112.931, 65857.16
1113.414, 65922.32
1113.896, 65865.29
1114.378, 65810.91
1114.860, 65755.96
1115.342, 65718.09
1115.824, 65716.18
1116.306, 65729.70
1116.788, 65714.34
1117.271, 65690.07
1117.753, 65701.53
1118.235, 65818.04
1118.717, 65884.19
1119.199, 65871.04
1119.681, 65843.73
1120.163, 65883.31
1120.645, 65958.15
1121.127, 65961.91
1121.609, 65898.55
1122.092, 65850.58
1122.574, 65871.46
1123.056, 65900.33
1123.538, 65910.86
1124.020, 65920.32
1124.502, 65978.66
1124.984, 66075.91
1125.466, 66116.72
1125.949, 66076.09
1126.431, 66042.50
1126.913, 66096.90
1127.395, 66164.77
1127.877, 66187.81
1128.359, 66172.17
1128.841, 66174.65
1129.323, 66196.67
1129.806, 66207.64
1130.288, 66181.06
1130.770, 66171.94
1131.252, 66275.17
1131.734, 66411.21
1132.216, 66469.98
1132.698, 66417.56
1133.180, 66368.27
1133.662, 66321.16
1134.145, 66282.36
1134.627, 66239.94
1135.109, 66218.30
1135.591, 66293.05
1136.073, 66418.45
1136.555, 66476.80
1137.037, 66352.28
1137.519, 66285.49
1138.001, 66306.28
1138.484, 66353.87
1138.966, 66358.30
1139.448, 66342.52
1139.930, 66363.43
1140.412, 66421.81
1140.894, 66489.84
1141.376, 66587.23
1141.858, 66653.11
1142.341, 66672.20
1142.823, 66653.96
1143.305, 66595.75
1143.787, 66512.56
1144.269, 66468.34
1144.751, 66473.56
1145.233, 66520.11
1145.715, 66662.33
1146.198, 66784.13
1146.680, 66812.64
1147.162, 66771.40
1147.644, 66762.41
1148.126, 66785.52
1148.608, 66846.55
1149.090, 66975.15
1149.572, 67069.07
1150.054, 67028.63
1150.536, 66931.79
1151.019, 66837.98
1151.501, 66743.87
1151.983, 66753.63
1152.465, 66871.78
1152.947, 66981.41
1153.429, 67038.77
1153.911, 67037.68
1154.393, 66901.05
1154.876, 66723.30
1155.358, 66680.81
1155.840, 66825.94
1156.322, 66977.49
1156.804, 67142.91
1157.286, 67255.78
1157.768, 67221.79
1158.250, 67132.99
1158.733, 67080.93
1159.215, 67073.59
1159.697, 67136.59
1160.179, 67367.87
1160.661, 67442.30
1161.143, 67280.98
1161.625, 67072.73
1162.107, 67050.52
1162.589, 67122.18
1163.072, 67118.42
1163.554, 67033.90
1164.036, 67016.74
1164.518, 67162.35
1165.000, 67276.84
1165.482, 67306.48
1165.964, 67295.68
1166.446, 67340.02
1166.928, 67402.65
1167.411, 67379.56
1167.893, 67231.06
1168.375, 67151.93
1168.857, 67255.88
1169.339, 67382.29
1169.821, 67486.56
1170.303, 67559.30
1170.785, 67556.75
1171.268, 67498.64
1171.750, 67448.52
1172.232, 67425.81
1172.714, 67415.73
1173.196, 67423.48
1173.678, 67431.55
1174.160, 67421.55
1174.642, 67401.54
1175.125, 67432.03
1175.607, 67506.15
1176.089, 67585.49
1176.571, 67686.77
1177.053, 67744.05
1177.535, 67689.38
1178.017, 67605.52
1178.499, 67562.20
1178.981, 67558.99
1179.464, 67603.16
1179.946, 67689.98
1180.428, 67748.42
1180.910, 67685.97
1181.392, 67635.48
1181.874, 67700.70
1182.356, 67806.59
1182.838, 67829.91
1183.320, 67766.98
1183.803, 67732.82
1184.285, 67736.30
1184.767, 67776.05
1185.249, 67902.54
1185.731, 68015.91
1186.213, 68029.39
1186.695, 67975.52
1187.177, 67942.20
1187.660, 67928.91
1188.142, 67955.02
1188.624, 68030.52
1189.106, 68088.93
1189.588, 68036.94
1190.070, 67971.94
1190.552, 67984.15
1191.034, 68063.56
1191.516, 68107.22
1191.999, 68109.16
1192.481, 68142.09
1192.963, 68235.65
1193.445, 68324.39
1193.927, 68339.80
1194.409, 68319.40
1194.891, 68298.15
1195.373, 68279.02
1195.855, 68237.49
1196.338, 68162.42
1196.820, 68170.49
1197.302, 68353.32
1197.784, 68540.91
1198.266, 68511.88
1198.748, 68395.30
1199.230, 68357.84
1199.712, 68431.41
1200.195, 68488.11
1200.677, 68528.32
1201.159, 68548.17
1201.641, 68532.91
1202.123, 68511.80
1202.605, 68526.21
1203.087, 68555.01
1203.569, 68561.13
1204.052, 68526.28
1204.534, 68513.37
1205.016, 68523.60
1205.498, 68547.97
1205.980, 68587.67
1206.462, 68632.41
1206.944, 68665.79
1207.426, 68695.95
1207.908, 68745.66
1208.391, 68843.91
1208.873, 68875.07
1209.355, 68822.00
1209.837, 68769.53
1210.319, 68800.30
1210.801, 68862.85
1211.283, 68909.48
1211.765, 68937.47
1212.247, 68936.84
1212.730, 68882.56
1213.212, 68889.88
1213.694, 68982.98
1214.176, 69079.12
1214.658, 69094.17
1215.140, 69072.43
1215.622, 69059.88
1216.104, 69057.61
1216.587, 69048.91
1217.069, 69015.60
1217.551, 69043.18
1218.033, 69159.13
1218.515, 69279.88
1218.997, 69315.88
1219.479, 69303.01
1219.961, 69265.02
1220.443, 69209.73
1220.926, 69195.54
1221.408, 69233.65
1221.890, 69278.27
1222.372, 69323.88
1222.854, 69354.65
1223.336, 69329.67
1223.818, 69293.23
1224.300, 69307.55
1224.782, 69381.35
1225.265, 69400.27
1225.747, 69349.94
1226.229, 69309.30
1226.711, 69297.07
1227.193, 69319.38
1227.675, 69419.77
1228.157, 69537.95
1228.639, 69596.76
1229.122, 69582.45
1229.604, 69572.15
1230.086, 69564.79
1230.568, 69568.61
1231.050, 69589.35
1231.532, 69617.14
1232.014, 69635.36
1232.496, 69656.94
1232.979, 69704.10
1233.461, 69782.79
1233.943, 69840.71
1234.425, 69876.90
1234.907, 69896.06
1235.389, 69890.29
1235.871, 69884.72
1236.353, 69903.12
1236.835, 69937.68
1237.318, 69987.52
1237.800, 70062.78
1238.282, 70053.33
1238.764, 69953.59
1239.246, 69886.33
1239.728, 69945.35
1240.210, 70033.12
1240.692, 70074.05
1241.175, 70090.23
1241.657, 70109.64
1242.139, 70131.92
1242.621, 70180.15
1243.103, 70255.27
1243.585, 70289.80
1244.067, 70185.49
1244.549, 70088.97
1245.031, 70129.74
1245.514, 70222.20
1245.996, 70230.76
1246.478, 70140.80
1246.960, 70172.45
1247.442, 70322.80
1247.924, 70459.73
1248.406, 70495.87
1248.888, 70495.55
1249.370, 70483.88
1249.853, 70462.31
1250.335, 70416.73
1250.817, 70350.38
1251.299, 70369.07
1251.781, 70472.37
1252.263, 70583.52
1252.745, 70691.15
1253.227, 70752.51
1253.710, 70723.24
1254.192, 70657.95
1254.674, 70611.91
1255.156, 70587.10
1255.638, 70607.84
1256.120, 70671.41
1256.602, 70731.29
1257.084, 70742.30
1257.567, 70773.52
1258.049, 70864.69
1258.531, 70962.89
1259.013, 70987.88
1259.495, 70957.21
1259.977, 70926.11
1260.459, 70900.94
1260.941, 70895.74
1261.423, 70929.73
1261.906, 70971.62
1262.388, 71026.75
1262.870, 71065.95
1263.352, 71008.28
1263.834, 70913.54
1264.316, 70944.67
1264.798, 71103.21
1265.280, 71219.09
1265.762, 71194.95
1266.245, 71208.67
1266.727, 71316.12
1267.209, 71415.98
1267.691, 71315.71
1268.173, 71138.97
1268.655, 71107.22
1269.137, 71229.81
1269.619, 71307.67
1270.102, 71287.98
1270.584, 71311.94
1271.066, 71423.59
1271.548, 71536.13
1272.030, 71499.42
1272.512, 71426.27
1272.994, 71475.24
1273.476, 71644.83
1273.958, 71712.80
1274.441, 71650.21
1274.923, 71600.47
1275.405, 71596.51
1275.887, 71606.54
1276.369, 71584.40
1276.851, 71570.35
1277.333, 71625.52
1277.815, 71731.29
1278.297, 71754.03
1278.780, 71688.20
1279.262, 71654.58
1279.744, 71681.76
1280.226, 71738.52
1280.708, 71845.17
1281.190, 71928.80
1281.672, 71908.24
1282.154, 71827.66
1282.637, 71875.15
1283.119, 72029.23
1283.601, 72054.74
1284.083, 71874.99
1284.565, 71768.61
1285.047, 72032.30
1285.529, 72266.00
1286.011, 72252.50
1286.494, 72088.77
1286.976, 72045.77
1287.458, 72088.09
1287.940, 72090.52
1288.422, 72019.66
1288.904, 71975.85
1289.386, 72010.61
1289.868, 72064.55
1290.350, 72131.29
1290.833, 72188.62
1291.315, 72177.10
1291.797, 72127.05
1292.279, 72087.02
1292.761, 72059.77
1293.243, 72110.49
1293.725, 72282.30
1294.207, 72426.17
1294.689, 72500.35
1295.172, 72510.08
1295.654, 72393.47
1296.136, 72255.71
1296.618, 72263.32
1297.100, 72457.44
1297.582, 72525.78
1298.064, 72448.30
1298.546, 72375.40
1299.029, 72355.59
1299.511, 72350.67
1299.993, 72305.48
1300.475, 72267.02
1300.957, 72298.94
1301.439, 72386.46
1301.921, 72431.29
1302.403, 72434.76
1302.885, 72436.37
1303.368, 72452.24
1303.850, 72446.01
1304.332, 72362.05
1304.814, 72278.29
1305.296, 72240.01
1305.778, 72239.73
1306.260, 72240.48
1306.742, 72253.48
1307.224, 72348.42
1307.707, 72571.51
1308.189, 72704.38
1308.671, 72544.70
1309.153, 72431.52
1309.635, 72509.19
1310.117, 72675.19
1310.599, 72731.31
1311.081, 72704.55
1311.564, 72623.73
1312.046, 72477.91
1312.528, 72441.68
1313.010, 72567.23
1313.492, 72683.05
1313.974, 72735.41
1314.456, 72741.26
1314.938, 72693.38
##END=



