##NAMES=Chevkinite-(Ce)
##RRUFFID=R060419
##IDEAL CHEMISTRY=Ce^3+^_4_(Ti^4+^,Fe^2+^,Fe^3+^)_5_O_8_(Si_2_O_7_)_2_
##LOCALITY=Arondu, Basha Valley, Baltistan, Pakistan
##OWNER=RRUFF
##SOURCE=Herb Obodda
##DESCRIPTION=Black resinous fragment
##STATUS=The identification of this mineral has been confirmed by X-ray diffraction and chemical analysis
##URL=rruff.info/R060419
##MEASURED CHEMISTRY=(Ce_1.89_La_0.88_Nd_0.63_Ca_0.47_Th_0.13_)_Σ=4_(Ti_2.80_Fe^2+^_1.46_Fe^3+^_0.74_)_Σ=5_O_8_(Si_2.00_O_7_)_2_
168.6560, 23.35753
169.1381, 24.19545
169.6203, 25.49636
170.1024, 26.40112
170.5845, 26.78149
171.0666, 26.85012
171.5487, 26.54956
172.0309, 25.91526
172.5130, 25.40127
172.9951, 25.26624
173.4772, 25.45805
173.9593, 25.90260
174.4414, 27.10943
174.9236, 28.26826
175.4057, 28.26818
175.8878, 27.10220
176.3699, 25.86867
176.8520, 25.44705
177.3341, 25.62836
177.8163, 25.96786
178.2984, 26.41026
178.7805, 26.84804
179.2626, 27.15794
179.7447, 27.34276
180.2268, 27.31584
180.7090, 26.85078
181.1911, 26.07034
181.6732, 25.35535
182.1553, 24.81251
182.6374, 24.46277
183.1195, 24.42935
183.6017, 24.75095
184.0838, 25.16748
184.5659, 25.37693
185.0480, 25.41360
185.5301, 25.46038
186.0123, 25.65726
186.4944, 25.93743
186.9765, 26.01818
187.4586, 25.82903
187.9407, 24.97697
188.4228, 25.69208
188.9050, 26.03360
189.3871, 26.02166
189.8692, 24.59751
190.3513, 24.99694
190.8334, 24.66557
191.3155, 24.30422
191.7977, 24.96028
192.2798, 23.74154
192.7619, 24.38149
193.2440, 24.27949
193.7261, 24.51706
194.2082, 23.79400
194.6904, 23.66490
195.1725, 23.61412
195.6546, 23.64282
196.1367, 23.75873
196.6188, 23.96312
197.1009, 24.23230
197.5831, 24.70529
198.0652, 25.38436
198.5473, 25.46085
199.0294, 24.71003
199.5115, 23.59436
199.9937, 23.10012
200.4758, 23.30932
200.9579, 23.63301
201.4400, 23.72529
201.9221, 23.55961
202.4042, 23.56734
202.8864, 23.85649
203.3685, 24.24741
203.8506, 24.22712
204.3327, 23.66789
204.8148, 23.21484
205.2969, 23.32792
205.7791, 24.12629
206.2612, 24.61122
206.7433, 24.68015
207.2254, 24.44044
207.7075, 24.09268
208.1896, 23.54226
208.6718, 23.15575
209.1539, 23.23746
209.6360, 23.94524
210.1181, 24.26761
210.6002, 23.97616
211.0823, 23.36373
211.5645, 23.33214
212.0466, 24.12744
212.5287, 24.92278
213.0108, 25.28857
213.4929, 25.17943
213.9750, 24.78377
214.4572, 23.89215
214.9393, 22.80909
215.4214, 22.49218
215.9035, 23.24066
216.3856, 24.14648
216.8678, 24.75145
217.3499, 25.06639
217.8320, 25.04567
218.3141, 24.53959
218.7962, 23.73897
219.2783, 23.23015
219.7605, 23.03191
220.2426, 23.09661
220.7247, 23.47291
221.2068, 24.36064
221.6889, 24.98102
222.1710, 25.25164
222.6532, 25.24413
223.1353, 25.17533
223.6174, 25.07290
224.0995, 24.86288
224.5816, 24.43323
225.0637, 23.49614
225.5459, 23.03034
226.0280, 22.94166
226.5101, 23.36655
226.9922, 24.71426
227.4743, 24.93865
227.9564, 25.06620
228.4386, 25.10211
228.9207, 24.77188
229.4028, 24.91444
229.8849, 24.86753
230.3670, 24.81285
230.8492, 25.02194
231.3313, 24.74497
231.8134, 24.94988
232.2955, 24.96244
232.7776, 25.06303
233.2597, 24.99571
233.7419, 24.83199
234.2240, 24.52406
234.7061, 24.29568
235.1882, 24.23830
235.6703, 24.12333
236.1524, 23.79508
236.6346, 22.96032
237.1167, 22.61454
237.5988, 22.94771
238.0809, 23.69551
238.5630, 24.26956
239.0451, 24.67509
239.5273, 24.89067
240.0094, 24.87992
240.4915, 24.53568
240.9736, 24.23349
241.4557, 23.94110
241.9378, 23.70157
242.4200, 23.62858
242.9021, 23.86335
243.3842, 24.04083
243.8663, 23.97284
244.3484, 23.46761
244.8306, 23.32215
245.3127, 23.76351
245.7948, 24.44541
246.2769, 24.68213
246.7590, 24.14509
247.2411, 23.72061
247.7233, 23.77695
248.2054, 24.52249
248.6875, 24.95091
249.1696, 24.89051
249.6517, 24.62546
250.1338, 24.64968
250.6160, 25.19784
251.0981, 25.61184
251.5802, 25.64205
252.0623, 25.19207
252.5444, 24.85690
253.0265, 24.65228
253.5087, 24.55203
253.9908, 24.54217
254.4729, 24.69326
254.9550, 24.78609
255.4371, 24.69914
255.9192, 24.37512
256.4014, 24.37377
256.8835, 24.87527
257.3656, 25.52104
257.8477, 25.87752
258.3298, 25.83842
258.8120, 25.74359
259.2941, 25.64382
259.7762, 25.53138
260.2583, 25.57573
260.7404, 25.89738
261.2225, 26.22616
261.7047, 26.22936
262.1868, 25.72552
262.6689, 25.37227
263.1510, 25.33650
263.6331, 25.60918
264.1152, 25.86734
264.5974, 26.09352
265.0795, 26.32965
265.5616, 26.65330
266.0437, 27.16351
266.5258, 27.44038
267.0079, 27.34373
267.4901, 26.92357
267.9722, 26.59957
268.4543, 26.32508
268.9364, 26.23438
269.4185, 26.54641
269.9006, 27.43018
270.3828, 27.96085
270.8649, 27.90558
271.3470, 27.40146
271.8291, 27.08093
272.3112, 26.95228
272.7933, 26.97587
273.2755, 27.21284
273.7576, 27.73519
274.2397, 27.94620
274.7218, 27.66941
275.2039, 27.09532
275.6860, 26.83680
276.1682, 26.96539
276.6503, 27.13122
277.1324, 27.03972
277.6145, 26.65104
278.0966, 26.60605
278.5787, 27.08414
279.0609, 27.77885
279.5430, 27.94364
280.0251, 27.48906
280.5072, 27.05644
280.9893, 27.02624
281.4715, 27.39636
281.9536, 27.73456
282.4357, 28.02312
282.9178, 28.27385
283.3999, 28.57239
283.8820, 28.93341
284.3642, 29.07080
284.8463, 28.63236
285.3284, 27.70446
285.8105, 27.39370
286.2926, 27.80773
286.7747, 28.50006
287.2569, 28.87677
287.7390, 28.94745
288.2211, 28.98014
288.7032, 29.10399
289.1853, 29.28105
289.6674, 29.32338
290.1496, 29.21602
290.6317, 29.07681
291.1138, 29.03378
291.5959, 29.07798
292.0780, 29.15506
292.5602, 29.32632
293.0423, 29.49071
293.5244, 29.24895
294.0065, 28.57920
294.4886, 28.04979
294.9707, 28.40048
295.4529, 29.37334
295.9350, 30.01152
296.4171, 29.95881
296.8992, 29.54564
297.3813, 29.29010
297.8634, 29.18958
298.3456, 29.21262
298.8277, 29.55295
299.3098, 29.99074
299.7919, 29.95585
300.2740, 29.12365
300.7561, 28.14432
301.2383, 27.98968
301.7204, 28.50130
302.2025, 28.97141
302.6846, 28.83609
303.1667, 28.41214
303.6488, 28.19715
304.1310, 28.31806
304.6131, 28.49837
305.0952, 28.46139
305.5773, 28.26298
306.0594, 28.05500
306.5415, 27.80630
307.0237, 27.64219
307.5058, 27.74835
307.9879, 28.17854
308.4700, 28.62174
308.9521, 28.91387
309.4343, 29.04997
309.9164, 29.03198
310.3985, 28.71744
310.8806, 28.34579
311.3627, 28.10864
311.8448, 28.01376
312.3270, 27.93499
312.8091, 27.78784
313.2912, 27.61676
313.7733, 27.47427
314.2554, 27.46505
314.7375, 27.41496
315.2197, 27.09593
315.7018, 26.56525
316.1839, 26.32574
316.6660, 27.10965
317.1481, 28.01914
317.6302, 28.28884
318.1124, 27.11884
318.5945, 26.05987
319.0766, 25.63864
319.5587, 25.74580
320.0408, 25.98875
320.5229, 26.45530
321.0051, 26.87606
321.4872, 27.09604
321.9693, 27.02216
322.4514, 26.87260
322.9335, 26.54034
323.4156, 26.17257
323.8978, 26.05313
324.3799, 26.49358
324.8620, 26.96159
325.3441, 27.29801
325.8262, 27.51075
326.3083, 27.52038
326.7905, 27.13257
327.2726, 26.59800
327.7547, 26.23022
328.2368, 25.98976
328.7189, 25.96686
329.2010, 26.29582
329.6832, 27.03091
330.1653, 26.91972
330.6474, 27.65564
331.1295, 28.08985
331.6116, 28.23855
332.0938, 27.24663
332.5759, 27.72758
333.0580, 27.61827
333.5401, 27.48476
334.0222, 28.17301
334.5043, 27.34698
334.9865, 28.02222
335.4686, 28.09818
335.9507, 28.44840
336.4328, 28.20471
336.9149, 28.14447
337.3970, 28.67832
337.8792, 28.88323
338.3613, 28.57117
338.8434, 28.93884
339.3255, 28.09206
339.8076, 28.31096
340.2898, 28.98968
340.7719, 28.70749
341.2540, 29.08600
341.7361, 29.21289
342.2182, 28.19619
342.7003, 29.16829
343.1825, 29.28032
343.6646, 28.50920
344.1467, 29.41316
344.6288, 28.76380
345.1109, 28.66887
345.5930, 28.99120
346.0752, 28.87857
346.5573, 29.45171
347.0394, 29.36419
347.5215, 29.21764
348.0036, 29.32868
348.4857, 29.20216
348.9679, 29.44509
349.4500, 29.25536
349.9321, 29.52544
350.4142, 29.89974
350.8963, 29.47601
351.3784, 29.89714
351.8606, 29.46006
352.3427, 29.09160
352.8248, 28.72861
353.3069, 28.48125
353.7890, 28.36582
354.2711, 28.46461
354.7533, 28.81083
355.2354, 29.12115
355.7175, 29.05387
356.1996, 28.79247
356.6817, 28.65689
357.1638, 28.89528
357.6460, 29.22755
358.1281, 29.48982
358.6102, 29.67399
359.0923, 29.73514
359.5744, 29.51188
360.0565, 29.21149
360.5387, 29.04080
361.0208, 29.16598
361.5029, 29.29469
361.9850, 29.25010
362.4671, 29.09704
362.9492, 29.03589
363.4314, 29.24738
363.9135, 29.48878
364.3956, 29.62502
364.8777, 29.60685
365.3598, 29.55738
365.8419, 29.50096
366.3241, 29.42979
366.8062, 29.33222
367.2883, 29.07332
367.7704, 28.91622
368.2526, 28.98486
368.7347, 29.34402
369.2168, 29.56175
369.6989, 29.57585
370.1810, 29.48237
370.6631, 29.34628
371.1453, 29.00156
371.6274, 28.86703
372.1095, 29.06446
372.5916, 29.53881
373.0737, 29.91479
373.5558, 30.16207
374.0380, 30.36083
374.5201, 30.58529
375.0022, 30.90784
375.4843, 30.98009
375.9664, 30.68204
376.4485, 30.22358
376.9307, 30.02818
377.4128, 30.14480
377.8949, 30.32416
378.3770, 30.47682
378.8591, 30.60365
379.3412, 30.71337
379.8234, 30.78210
380.3055, 30.91431
380.7876, 31.35776
381.2697, 32.08279
381.7518, 32.46079
382.2339, 32.18784
382.7161, 31.57262
383.1982, 31.31340
383.6803, 31.40550
384.1624, 31.65398
384.6445, 32.05585
385.1266, 32.50049
385.6088, 32.66067
386.0909, 32.41478
386.5730, 32.10567
387.0551, 32.16455
387.5372, 32.49287
388.0193, 32.81070
388.5015, 33.08420
388.9836, 33.21019
389.4657, 32.98880
389.9478, 32.39827
390.4299, 31.84369
390.9120, 31.36383
391.3942, 31.15233
391.8763, 31.46576
392.3584, 33.12829
392.8405, 34.63103
393.3226, 35.09963
393.8047, 34.70594
394.2869, 34.23545
394.7690, 33.63905
395.2511, 33.30262
395.7332, 33.54544
396.2154, 34.82320
396.6975, 35.82542
397.1796, 36.21819
397.6617, 36.17939
398.1438, 36.01764
398.6259, 35.40956
399.1081, 35.03698
399.5902, 35.22625
400.0723, 36.11348
400.5544, 36.60678
401.0365, 36.43440
401.5186, 36.06868
402.0008, 35.90538
402.4829, 36.09945
402.9650, 36.18078
403.4471, 35.97152
403.9292, 35.61147
404.4113, 35.78528
404.8935, 36.79354
405.3756, 37.64769
405.8577, 37.70705
406.3398, 36.81479
406.8219, 36.30969
407.3040, 36.25042
407.7862, 36.49409
408.2683, 36.89140
408.7504, 37.44733
409.2325, 38.01014
409.7146, 38.57098
410.1967, 39.08805
410.6789, 39.50712
411.1610, 39.83514
411.6431, 39.90960
412.1252, 39.35472
412.6073, 38.41758
413.0894, 37.82257
413.5716, 37.77219
414.0537, 37.99733
414.5358, 38.27062
415.0179, 38.56829
415.5000, 38.82285
415.9821, 38.90915
416.4643, 38.97695
416.9464, 39.19136
417.4285, 39.56930
417.9106, 40.00030
418.3927, 40.60485
418.8748, 41.15838
419.3570, 41.38447
419.8391, 40.82273
420.3212, 40.27492
420.8033, 40.13315
421.2854, 40.31450
421.7675, 40.41962
422.2497, 40.04673
422.7318, 39.77493
423.2139, 39.96057
423.6960, 40.92024
424.1781, 41.72773
424.6602, 42.32244
425.1424, 42.69644
425.6245, 42.80950
426.1066, 42.16035
426.5887, 41.90789
427.0709, 42.60463
427.5530, 44.24912
428.0351, 44.70777
428.5172, 43.21941
428.9993, 41.59204
429.4814, 41.22646
429.9636, 42.51934
430.4457, 43.55111
430.9278, 44.15388
431.4099, 44.42369
431.8920, 44.54364
432.3741, 44.50874
432.8563, 44.36648
433.3384, 44.06929
433.8205, 43.65686
434.3026, 43.39817
434.7847, 43.29232
435.2668, 43.32971
435.7490, 43.66293
436.2311, 44.16607
436.7132, 44.35129
437.1953, 43.97519
437.6774, 43.38682
438.1595, 42.95530
438.6417, 42.69048
439.1238, 42.63333
439.6059, 43.05484
440.0880, 43.57096
440.5701, 43.72778
441.0522, 43.43113
441.5344, 43.09882
442.0165, 43.03860
442.4986, 43.08054
442.9807, 43.01668
443.4628, 42.60234
443.9449, 42.24164
444.4271, 42.11909
444.9092, 42.20045
445.3913, 42.28071
445.8734, 42.53361
446.3555, 42.59997
446.8376, 42.23548
447.3198, 40.96940
447.8019, 40.18093
448.2840, 40.15316
448.7661, 40.51146
449.2482, 40.76924
449.7303, 41.02231
450.2125, 40.99229
450.6946, 40.49611
451.1767, 39.58399
451.6588, 39.08049
452.1409, 39.14255
452.6230, 39.24013
453.1052, 38.88295
453.5873, 38.00132
454.0694, 37.65712
454.5515, 38.10638
455.0337, 38.76229
455.5158, 38.48215
455.9979, 37.33612
456.4800, 36.40657
456.9621, 36.33137
457.4442, 36.73432
457.9264, 36.71658
458.4085, 36.29114
458.8906, 35.77030
459.3727, 35.28731
459.8548, 34.90806
460.3369, 34.78757
460.8191, 35.05806
461.3012, 35.35289
461.7833, 35.33130
462.2654, 35.11786
462.7475, 34.97163
463.2296, 35.17797
463.7118, 35.33889
464.1939, 35.20603
464.6760, 34.76038
465.1581, 34.27403
465.6402, 33.61547
466.1223, 33.07967
466.6045, 32.88512
467.0866, 33.60171
467.5687, 33.98875
468.0508, 33.79849
468.5329, 33.25372
469.0150, 32.84688
469.4972, 32.69404
469.9793, 32.50237
470.4614, 32.09784
470.9435, 31.44790
471.4256, 31.29646
471.9077, 31.80014
472.3899, 32.49038
472.8720, 33.06513
473.3541, 33.55985
473.8362, 33.46806
474.3183, 32.51284
474.8004, 31.26833
475.2826, 30.94824
475.7647, 31.49525
476.2468, 32.09888
476.7289, 32.36928
477.2110, 32.40038
477.6931, 32.36532
478.1753, 32.26646
478.6574, 32.16242
479.1395, 32.12074
479.6216, 32.09929
480.1037, 32.02120
480.5858, 31.80552
481.0680, 31.64440
481.5501, 31.80512
482.0322, 32.11341
482.5143, 32.20302
482.9964, 31.61285
483.4786, 31.04646
483.9607, 30.89916
484.4428, 31.23083
484.9249, 31.46210
485.4070, 31.47417
485.8892, 31.35196
486.3713, 31.14296
486.8534, 30.62658
487.3355, 30.36231
487.8176, 30.46155
488.2997, 30.78757
488.7819, 31.04984
489.2640, 31.20612
489.7461, 31.40177
490.2282, 31.72626
490.7103, 32.16392
491.1924, 32.37678
491.6746, 32.32993
492.1567, 32.20731
492.6388, 32.10453
493.1209, 32.03804
493.6030, 32.20891
494.0851, 32.71766
494.5673, 33.26849
495.0494, 33.38751
495.5315, 33.16862
496.0136, 32.94704
496.4957, 32.91115
496.9778, 32.93520
497.4600, 32.82270
497.9421, 32.59842
498.4242, 32.50025
498.9063, 32.76958
499.3884, 33.17033
499.8705, 33.52415
500.3527, 33.83581
500.8348, 33.99198
501.3169, 33.84969
501.7990, 33.55251
502.2811, 33.30068
502.7632, 33.04882
503.2454, 32.93595
503.7275, 33.06920
504.2096, 33.41627
504.6917, 33.61590
505.1738, 33.51173
505.6559, 33.46960
506.1381, 33.73215
506.6202, 34.43662
507.1023, 34.85084
507.5844, 34.86770
508.0665, 34.78734
508.5486, 35.09524
509.0308, 35.80628
509.5129, 36.27770
509.9950, 36.26193
510.4771, 35.98975
510.9592, 35.98976
511.4413, 36.23090
511.9235, 36.41972
512.4056, 36.14164
512.8877, 35.77932
513.3698, 36.03711
513.8519, 37.01086
514.3340, 37.90705
514.8162, 38.05594
515.2983, 37.82715
515.7804, 37.67254
516.2625, 37.94122
516.7446, 38.03372
517.2267, 37.38891
517.7089, 36.37948
518.1910, 35.92985
518.6731, 37.00303
519.1552, 37.94960
519.6373, 38.07007
520.1194, 37.26102
520.6016, 36.75137
521.0837, 36.63236
521.5658, 36.71507
522.0479, 36.87060
522.5300, 37.08488
523.0121, 37.44463
523.4943, 38.03082
523.9764, 38.66319
524.4585, 39.02275
524.9406, 39.10095
525.4227, 39.03228
525.9048, 38.74617
526.3870, 38.40398
526.8691, 38.47848
527.3513, 38.94483
527.8334, 39.41505
528.3155, 39.59098
528.7976, 39.60736
529.2797, 39.68847
529.7618, 39.88852
530.2440, 39.99123
530.7261, 39.57383
531.2082, 39.05196
531.6903, 38.96446
532.1724, 40.15384
532.6545, 41.09515
533.1367, 41.15413
533.6188, 40.54774
534.1009, 40.06301
534.5830, 39.82529
535.0651, 39.72339
535.5472, 39.77313
536.0294, 40.01952
536.5115, 40.07099
536.9936, 39.79107
537.4757, 39.50723
537.9578, 39.51081
538.4399, 39.84695
538.9221, 40.22321
539.4042, 40.68317
539.8863, 41.05092
540.3684, 40.85760
540.8505, 40.16478
541.3326, 39.72552
541.8148, 40.06929
542.2969, 40.72077
542.7790, 40.72889
543.2611, 40.17669
543.7432, 39.72864
544.2253, 39.98048
544.7075, 40.48741
545.1896, 40.84548
545.6717, 41.02386
546.1538, 40.91224
546.6359, 40.16327
547.1180, 39.21864
547.6002, 38.55746
548.0823, 38.40995
548.5644, 38.41634
549.0465, 38.64632
549.5286, 38.99018
550.0107, 39.13576
550.4929, 39.04796
550.9750, 38.80321
551.4571, 38.33070
551.9392, 37.62630
552.4213, 37.35134
552.9034, 37.60795
553.3856, 37.96649
553.8677, 38.05490
554.3498, 37.90139
554.8319, 37.87732
555.3140, 38.05364
555.7961, 38.23816
556.2783, 38.14661
556.7604, 37.85644
557.2425, 37.58793
557.7246, 37.45958
558.2067, 37.34883
558.6888, 37.09968
559.1710, 36.75991
559.6531, 36.49426
560.1352, 36.50386
560.6173, 36.51873
561.0994, 36.35100
561.5815, 35.95705
562.0637, 35.63104
562.5458, 35.45781
563.0279, 35.35630
563.5100, 35.26297
563.9921, 35.15938
564.4742, 35.11552
564.9564, 35.24806
565.4385, 35.35120
565.9206, 34.95518
566.4027, 33.89954
566.8848, 33.18950
567.3669, 33.23730
567.8491, 33.77304
568.3312, 33.89470
568.8133, 33.61840
569.2954, 33.37534
569.7775, 33.55373
570.2596, 33.92387
570.7418, 34.02200
571.2239, 33.81377
571.7060, 33.61250
572.1881, 33.79486
572.6702, 34.05326
573.1523, 34.01088
573.6345, 33.32575
574.1166, 32.78283
574.5987, 32.76860
575.0808, 33.06937
575.5629, 33.33199
576.0450, 33.47593
576.5272, 33.60085
577.0093, 33.76908
577.4914, 33.94981
577.9735, 33.91299
578.4556, 33.55779
578.9377, 33.19478
579.4199, 32.99411
579.9020, 32.96292
580.3841, 32.78930
580.8662, 32.42882
581.3483, 32.16549
581.8304, 32.43340
582.3126, 33.05861
582.7947, 33.38114
583.2768, 33.18422
583.7589, 32.94600
584.2410, 33.32439
584.7231, 34.02333
585.2053, 34.45690
585.6874, 34.16510
586.1696, 33.73802
586.6517, 33.38758
587.1338, 33.14008
587.6159, 33.09466
588.0980, 33.45354
588.5801, 33.86202
589.0623, 34.21429
589.5444, 34.53673
590.0265, 34.58806
590.5086, 34.13350
590.9907, 33.70829
591.4728, 33.80748
591.9550, 34.55147
592.4371, 35.01313
592.9192, 35.06182
593.4013, 34.95525
593.8834, 35.06690
594.3655, 35.36631
594.8477, 35.67468
595.3298, 35.99689
595.8119, 36.21737
596.2940, 36.01136
596.7761, 35.53207
597.2582, 35.28721
597.7404, 35.81042
598.2225, 36.45930
598.7046, 36.73258
599.1867, 36.60561
599.6688, 36.59935
600.1509, 36.90095
600.6331, 37.34919
601.1152, 37.90187
601.5973, 38.84056
602.0794, 39.17064
602.5615, 38.49709
603.0436, 37.59051
603.5258, 37.41590
604.0079, 38.16136
604.4900, 38.58319
604.9721, 38.36434
605.4542, 37.89420
605.9363, 38.02441
606.4185, 38.68719
606.9006, 39.29120
607.3827, 39.56636
607.8648, 39.61974
608.3469, 39.50838
608.8290, 39.26880
609.3112, 39.11213
609.7933, 39.20827
610.2754, 39.40177
610.7575, 39.55225
611.2396, 39.61980
611.7217, 39.82446
612.2039, 40.44418
612.6860, 41.08381
613.1681, 41.42487
613.6502, 41.03789
614.1323, 41.11683
614.6144, 41.95937
615.0966, 43.01707
615.5787, 43.44240
616.0608, 43.11373
616.5429, 42.90192
617.0250, 42.98866
617.5071, 43.33434
617.9893, 43.98779
618.4714, 44.89669
618.9535, 45.62508
619.4356, 45.89960
619.9177, 45.90549
620.3998, 45.78368
620.8820, 45.56496
621.3641, 45.47808
621.8462, 45.58728
622.3283, 45.92151
622.8104, 46.61364
623.2925, 47.86946
623.7747, 48.71508
624.2568, 48.55164
624.7389, 48.17144
625.2210, 48.23605
625.7031, 49.07125
626.1852, 49.60220
626.6674, 49.62250
627.1495, 49.48014
627.6316, 49.82904
628.1137, 50.69604
628.5958, 51.39553
629.0779, 51.72345
629.5601, 51.77924
630.0422, 51.61012
630.5243, 51.29114
631.0064, 51.16812
631.4885, 51.51582
631.9706, 52.09369
632.4528, 52.78743
632.9349, 53.55825
633.4170, 54.13685
633.8991, 54.30372
634.3812, 54.31744
634.8633, 54.31116
635.3455, 54.26363
635.8276, 54.32514
636.3097, 54.69743
636.7918, 54.99617
637.2739, 54.79206
637.7560, 53.83658
638.2382, 53.42656
638.7203, 53.77776
639.2024, 54.49178
639.6845, 54.99061
640.1666, 55.30259
640.6487, 55.66786
641.1309, 56.25326
641.6130, 56.79869
642.0951, 56.79674
642.5772, 56.43380
643.0594, 56.23634
643.5415, 56.69641
644.0236, 57.19288
644.5057, 57.32763
644.9879, 57.12733
645.4700, 56.95307
645.9521, 56.79662
646.4342, 56.77477
646.9163, 56.95495
647.3984, 57.37380
647.8806, 57.79202
648.3627, 58.28407
648.8448, 58.64771
649.3269, 58.63677
649.8090, 58.25251
650.2911, 58.11967
650.7733, 58.33719
651.2554, 58.57223
651.7375, 58.40252
652.2196, 57.94152
652.7017, 57.42151
653.1838, 56.75465
653.6660, 56.34784
654.1481, 56.77158
654.6302, 57.63074
655.1123, 58.23403
655.5944, 58.19067
656.0765, 58.02008
656.5587, 57.75130
657.0408, 57.45393
657.5229, 57.46009
658.0050, 58.06897
658.4871, 58.45404
658.9692, 58.19737
659.4514, 57.39251
659.9335, 57.15408
660.4156, 57.54047
660.8977, 58.01246
661.3798, 58.19228
661.8619, 58.15795
662.3441, 58.11012
662.8262, 58.06047
663.3083, 58.00515
663.7904, 58.01365
664.2725, 57.98090
664.7546, 57.73930
665.2368, 57.10176
665.7189, 56.68085
666.2010, 56.88255
666.6831, 57.31525
667.1652, 57.52410
667.6473, 57.29606
668.1295, 57.18218
668.6116, 57.30676
669.0937, 57.50225
669.5758, 57.42221
670.0579, 57.04230
670.5400, 56.59554
671.0222, 56.04916
671.5043, 55.58573
671.9864, 55.73705
672.4685, 56.37353
672.9506, 56.85713
673.4327, 56.70711
673.9149, 56.33079
674.3970, 55.98592
674.8791, 55.70505
675.3612, 55.65369
675.8433, 56.28456
676.3254, 56.83426
676.8076, 56.76843
677.2897, 55.88885
677.7718, 55.57745
678.2539, 56.17517
678.7360, 56.87136
679.2181, 57.11908
679.7003, 56.87632
680.1824, 56.63135
680.6645, 56.41770
681.1466, 56.12097
681.6287, 55.43526
682.1108, 54.56264
682.5930, 54.13257
683.0751, 54.35572
683.5572, 54.72219
684.0393, 54.85687
684.5214, 54.84327
685.0035, 54.80308
685.4857, 54.84486
685.9678, 54.78201
686.4499, 54.50450
686.9320, 54.09699
687.4141, 53.74511
687.8962, 53.46936
688.3784, 53.21935
688.8605, 53.00038
689.3426, 52.79359
689.8247, 52.53148
690.3068, 52.21112
690.7889, 51.86860
691.2711, 51.51609
691.7532, 51.15491
692.2353, 50.76450
692.7174, 50.36194
693.1995, 50.03236
693.6816, 49.99408
694.1638, 49.92636
694.6459, 49.47701
695.1280, 48.59811
695.6101, 48.00607
696.0922, 48.26921
696.5743, 48.53733
697.0565, 48.30184
697.5386, 47.36274
698.0207, 46.77352
698.5028, 46.62567
698.9849, 46.63454
699.4670, 46.61429
699.9492, 46.54754
700.4313, 46.15267
700.9135, 45.32648
701.3956, 44.58338
701.8777, 44.74346
702.3598, 45.31007
702.8419, 45.15652
703.3240, 45.21903
703.8062, 45.15284
704.2883, 44.96502
704.7704, 44.29106
705.2525, 44.24485
705.7346, 43.94706
706.2167, 43.63897
706.6989, 43.68106
707.1810, 43.07777
707.6631, 43.11439
708.1452, 42.89555
708.6273, 42.79361
709.1094, 42.43856
709.5916, 42.16161
710.0737, 41.72898
710.5558, 41.58569
711.0379, 41.34429
711.5200, 40.85823
712.0021, 40.24094
712.4843, 39.34774
712.9664, 38.31455
713.4485, 37.82814
713.9306, 38.83070
714.4127, 39.81887
714.8948, 40.03036
715.3770, 39.45304
715.8591, 38.95325
716.3412, 38.51551
716.8233, 38.18696
717.3054, 38.01771
717.7875, 38.00166
718.2697, 38.03393
718.7518, 38.12058
719.2339, 38.18109
719.7160, 38.24185
720.1981, 38.19831
720.6802, 37.76201
721.1624, 36.85312
721.6445, 36.13774
722.1266, 36.20010
722.6087, 36.52344
723.0908, 36.66508
723.5729, 36.45152
724.0551, 36.26363
724.5372, 36.16370
725.0193, 36.05690
725.5014, 35.82265
725.9835, 35.42250
726.4656, 35.13873
726.9478, 35.01467
727.4299, 34.96787
727.9120, 34.95062
728.3941, 34.91956
728.8762, 34.69697
729.3583, 34.10880
729.8405, 33.58739
730.3226, 33.57246
730.8047, 33.85132
731.2868, 34.07286
731.7689, 34.22875
732.2510, 34.20200
732.7332, 33.76195
733.2153, 33.16521
733.6974, 32.95243
734.1795, 33.28315
734.6616, 33.58685
735.1437, 33.78242
735.6259, 33.80743
736.1080, 33.37001
736.5901, 32.52774
737.0722, 31.78904
737.5543, 31.36094
738.0364, 31.19094
738.5186, 31.41713
739.0007, 31.89082
739.4828, 32.08905
739.9649, 31.42569
740.4470, 30.78207
740.9291, 30.59475
741.4113, 30.84847
741.8934, 31.00687
742.3755, 31.03638
742.8576, 31.03639
743.3397, 31.09006
743.8218, 31.16424
744.3040, 30.93192
744.7861, 30.38861
745.2682, 29.80478
745.7503, 29.26968
746.2324, 28.85048
746.7145, 28.70832
747.1967, 28.83074
747.6788, 29.00891
748.1609, 29.37024
748.6430, 29.56116
749.1251, 29.21738
749.6072, 28.11033
750.0894, 27.56415
750.5715, 27.95612
751.0536, 28.46831
751.5357, 28.58260
752.0178, 28.26590
752.4999, 27.93992
752.9821, 27.59192
753.4642, 27.31137
753.9463, 27.28196
754.4284, 27.36032
754.9105, 27.20021
755.3926, 26.72456
755.8748, 26.34266
756.3569, 26.50484
756.8390, 26.76661
757.3211, 26.69172
757.8032, 25.92471
758.2853, 25.47781
758.7675, 25.60735
759.2496, 25.86781
759.7318, 25.80085
760.2139, 25.32707
760.6960, 25.22500
761.1781, 25.66617
761.6602, 26.09394
762.1423, 25.66809
762.6245, 24.71355
763.1066, 24.04466
763.5887, 23.91377
764.0708, 23.84173
764.5529, 23.40379
765.0350, 22.87688
765.5172, 22.58944
765.9993, 22.91358
766.4814, 23.07200
766.9635, 22.93467
767.4456, 22.67982
767.9277, 22.55437
768.4099, 22.58743
768.8920, 22.51404
769.3741, 22.23326
769.8562, 21.97865
770.3383, 22.23545
770.8204, 22.79789
771.3026, 23.09226
771.7847, 22.83511
772.2668, 22.46325
772.7489, 22.37830
773.2310, 22.34462
773.7131, 21.99541
774.1953, 20.47205
774.6774, 19.67719
775.1595, 20.14866
775.6416, 21.24099
776.1237, 21.75129
776.6058, 21.60194
777.0880, 21.48076
777.5701, 21.58848
778.0522, 21.73325
778.5343, 21.51414
779.0164, 21.05682
779.4985, 20.73452
779.9807, 20.89090
780.4628, 20.99496
780.9449, 20.55528
781.4270, 19.84794
781.9091, 19.43856
782.3912, 19.69088
782.8734, 19.94302
783.3555, 20.08673
783.8376, 20.18549
784.3197, 20.45471
784.8018, 20.92877
785.2839, 21.17391
785.7661, 21.00114
786.2482, 20.60981
786.7303, 20.25483
787.2124, 19.95332
787.6945, 19.74422
788.1766, 19.62920
788.6588, 19.62932
789.1409, 19.84484
789.6230, 20.18440
790.1051, 20.39222
790.5872, 20.39595
791.0693, 20.34483
791.5515, 20.28029
792.0336, 20.17300
792.5157, 19.87677
792.9978, 19.39010
793.4799, 19.05280
793.9620, 19.04491
794.4442, 19.18656
794.9263, 19.29164
795.4084, 19.33123
795.8905, 19.22785
796.3726, 18.71911
796.8547, 18.29865
797.3369, 18.24862
797.8190, 18.46156
798.3011, 18.53318
798.7832, 18.34820
799.2653, 18.25456
799.7474, 18.40694
800.2296, 18.65359
800.7117, 18.43043
801.1938, 17.80115
801.6759, 17.47891
802.1580, 17.99158
802.6401, 18.71296
803.1223, 18.95274
803.6044, 18.82142
804.0865, 18.60578
804.5686, 18.27937
805.0507, 18.03346
805.5328, 17.92741
806.0150, 17.94682
806.4971, 18.10539
806.9792, 18.50488
807.4613, 18.69690
807.9434, 18.47891
808.4255, 18.06559
808.9077, 17.95931
809.3898, 18.10349
809.8719, 18.24395
810.3540, 18.23901
810.8361, 18.21784
811.3182, 18.33045
811.8004, 18.50233
812.2825, 18.56002
812.7646, 18.28192
813.2467, 18.10665
813.7288, 18.16488
814.2109, 18.35711
814.6931, 18.43408
815.1752, 18.38932
815.6573, 18.28417
816.1394, 18.10310
816.6215, 17.92449
817.1037, 17.92471
817.5858, 18.03585
818.0679, 18.07711
818.5500, 17.80495
819.0322, 17.62772
819.5143, 17.83756
819.9964, 18.27016
820.4785, 18.59805
820.9606, 18.89991
821.4427, 18.88402
821.9249, 18.36663
822.4070, 17.65067
822.8891, 17.36360
823.3712, 17.47900
823.8533, 17.74141
824.3354, 18.17376
824.8176, 18.52318
825.2997, 18.45189
825.7818, 18.10585
826.2639, 17.73685
826.7460, 17.20851
827.2281, 16.93139
827.7103, 17.30592
828.1924, 17.83694
828.6745, 17.76320
829.1566, 16.79811
829.6387, 16.45292
830.1208, 17.10145
830.6030, 18.08249
831.0851, 18.32009
831.5672, 18.05438
832.0493, 17.98845
832.5314, 18.44138
833.0135, 18.77622
833.4957, 18.38264
833.9778, 17.69763
834.4599, 17.22728
834.9420, 17.18672
835.4241, 17.23298
835.9063, 17.42952
836.3884, 17.63506
836.8705, 17.60822
837.3526, 17.36196
837.8347, 17.45843
838.3168, 18.04498
838.7990, 18.55112
839.2811, 18.17579
839.7632, 17.43435
840.2453, 17.07139
840.7274, 17.35038
841.2095, 17.59464
841.6917, 17.39857
842.1738, 17.20841
842.6559, 17.41249
843.1380, 18.21699
843.6201, 18.65955
844.1022, 18.68449
844.5844, 19.02413
845.0665, 18.48502
845.5486, 18.66196
846.0307, 18.58407
846.5128, 17.39624
846.9949, 17.71202
847.4771, 17.46819
847.9592, 17.23089
848.4413, 17.84607
848.9234, 16.97766
849.4055, 17.64120
849.8876, 17.73616
850.3698, 18.13613
850.8519, 17.97286
851.3340, 18.02372
851.8161, 18.69940
852.2982, 19.07682
852.7803, 18.96796
853.2625, 18.12291
853.7446, 17.39076
854.2267, 17.19250
854.7088, 17.51151
855.1909, 17.71548
855.6730, 17.42809
856.1552, 17.16637
856.6373, 17.14916
857.1194, 17.34039
857.6015, 17.42112
858.0836, 17.36975
858.5657, 17.38659
859.0479, 17.69169
859.5300, 18.03979
860.0121, 17.78138
860.4942, 17.11409
860.9763, 16.73452
861.4584, 17.43583
861.9406, 18.05563
862.4227, 17.91883
862.9048, 17.24849
863.3869, 16.87146
863.8690, 16.82452
864.3511, 17.01152
864.8333, 17.53311
865.3154, 18.12255
865.7975, 18.10140
866.2796, 17.62424
866.7617, 17.39800
867.2438, 17.88920
867.7260, 18.33270
868.2081, 17.95152
868.6902, 17.19969
869.1723, 16.78172
869.6544, 16.90092
870.1365, 17.34736
870.6187, 18.41501
871.1008, 19.45905
871.5829, 19.40011
872.0650, 18.30661
872.5471, 17.60664
873.0292, 17.55872
873.5114, 17.70852
873.9935, 17.61826
874.4756, 17.43382
874.9577, 17.34616
875.4399, 17.42164
875.9220, 17.49879
876.4041, 17.51724
876.8862, 17.54179
877.3683, 17.64087
877.8505, 17.84987
878.3326, 17.86164
878.8147, 17.65395
879.2968, 17.41251
879.7789, 17.22104
880.2610, 17.13672
880.7432, 17.33576
881.2253, 17.81140
881.7074, 18.16593
882.1895, 18.02057
882.6716, 17.87786
883.1537, 18.08867
883.6359, 18.62386
884.1180, 18.88720
884.6001, 18.85768
885.0822, 18.64398
885.5643, 18.17484
886.0464, 17.62833
886.5286, 17.46827
887.0107, 17.62753
887.4928, 17.83085
887.9749, 18.09091
888.4570, 18.19346
888.9391, 17.81252
889.4213, 17.17897
889.9034, 17.06766
890.3855, 17.82935
890.8676, 18.30453
891.3497, 18.21210
891.8318, 17.78785
892.3140, 17.31589
892.7961, 16.87237
893.2782, 16.80532
893.7603, 17.37658
894.2424, 17.97883
894.7245, 18.09179
895.2067, 18.00099
895.6888, 18.06124
896.1709, 18.59134
896.6530, 18.83274
897.1351, 18.69639
897.6172, 18.40757
898.0994, 18.10006
898.5815, 17.81246
899.0636, 17.95860
899.5457, 18.60514
900.0278, 19.14303
900.5099, 18.96695
900.9921, 18.52285
901.4742, 18.16542
901.9563, 17.92683
902.4384, 17.93567
902.9205, 18.48371
903.4026, 18.85516
903.8848, 18.58242
904.3669, 17.78968
904.8490, 17.55889
905.3311, 17.87547
905.8132, 18.29186
906.2953, 18.68970
906.7775, 18.94078
907.2596, 18.79784
907.7417, 18.38539
908.2238, 18.13590
908.7059, 18.31248
909.1880, 18.50183
909.6702, 18.66721
910.1523, 18.76433
910.6344, 18.63234
911.1165, 18.27783
911.5986, 18.03354
912.0807, 18.04055
912.5629, 18.06611
913.0450, 17.70993
913.5271, 17.24352
914.0092, 17.09462
914.4913, 17.70312
914.9734, 18.04398
915.4556, 17.75334
915.9377, 17.34098
916.4198, 17.27358
916.9019, 17.57191
917.3840, 17.89968
917.8661, 18.26114
918.3483, 18.45393
918.8304, 18.12588
919.3125, 17.62166
919.7946, 17.38829
920.2767, 17.47532
920.7589, 17.53663
921.2410, 17.37842
921.7231, 17.27351
922.2052, 17.36610
922.6873, 17.62032
923.1694, 17.68413
923.6516, 17.55000
924.1337, 17.47369
924.6158, 17.66405
925.0979, 17.91184
925.5800, 17.92102
926.0621, 17.76504
926.5443, 17.62722
927.0264, 17.49327
927.5085, 17.49986
927.9906, 17.86550
928.4727, 18.24941
928.9548, 17.89013
929.4370, 16.73979
929.9191, 16.36905
930.4012, 17.20653
930.8833, 18.20887
931.3654, 18.14361
931.8475, 17.54083
932.3297, 17.12000
932.8118, 17.07400
933.2939, 17.02940
933.7761, 16.78677
934.2582, 16.63567
934.7403, 16.79427
935.2224, 17.27410
935.7045, 17.59711
936.1866, 17.76331
936.6688, 17.83990
937.1509, 17.95864
937.6330, 17.95680
938.1151, 17.43655
938.5972, 16.55125
939.0793, 16.10694
939.5615, 16.88752
940.0436, 17.47138
940.5257, 17.42212
941.0078, 16.99081
941.4899, 16.84922
941.9720, 16.98675
942.4542, 17.13943
942.9363, 17.27105
943.4184, 17.29586
943.9005, 16.99228
944.3826, 16.57424
944.8647, 16.33561
945.3469, 16.42478
945.8290, 16.57152
946.3111, 16.85117
946.7932, 16.86634
947.2753, 17.11498
947.7574, 17.23502
948.2396, 17.23335
948.7217, 16.74553
949.2038, 16.88549
949.6859, 16.77386
950.1680, 16.65192
950.6501, 16.88024
951.1323, 16.46312
951.6144, 16.68589
952.0965, 16.65322
952.5786, 16.73746
953.0607, 16.56856
953.5428, 16.47785
954.0250, 16.64034
954.5071, 16.66264
954.9892, 16.33114
955.4713, 16.06911
955.9534, 15.81686
956.4355, 15.81519
956.9177, 15.94084
957.3998, 16.01713
957.8819, 16.02917
958.3640, 15.95661
958.8461, 15.73587
959.3282, 15.55815
959.8104, 15.66195
960.2925, 15.97792
960.7746, 16.31693
961.2567, 16.66259
961.7388, 16.87665
962.2209, 16.75918
962.7031, 16.57680
963.1852, 16.48580
963.6673, 16.49585
964.1494, 16.62064
964.6315, 16.91809
965.1136, 17.12933
965.5958, 17.16475
966.0779, 17.04301
966.5600, 16.64821
967.0421, 16.12645
967.5242, 15.89690
968.0063, 16.42720
968.4885, 16.85373
968.9706, 16.69114
969.4527, 16.33905
969.9348, 16.33404
970.4169, 16.81787
970.8990, 16.87160
971.3812, 16.36771
971.8633, 15.85901
972.3454, 15.95688
972.8275, 16.37460
973.3096, 16.74733
973.7917, 17.03427
974.2739, 17.18476
974.7560, 16.90644
975.2381, 16.80273
975.7202, 17.21964
976.2023, 17.99338
976.6844, 18.29175
977.1666, 18.12106
977.6487, 17.77885
978.1308, 17.23087
978.6129, 16.81600
979.0950, 17.12513
979.5771, 17.74769
980.0593, 18.01127
980.5414, 17.47154
981.0235, 16.91722
981.5056, 16.21391
981.9877, 15.73981
982.4698, 16.10552
982.9520, 17.11203
983.4341, 17.38967
983.9162, 16.85960
984.3983, 16.33997
984.8804, 16.52182
985.3625, 16.84772
985.8447, 16.90930
986.3268, 16.69548
986.8089, 16.52697
987.2910, 16.38210
987.7731, 16.35539
988.2552, 16.50442
988.7374, 16.75357
989.2195, 17.00217
989.7016, 17.22038
990.1837, 17.32566
990.6658, 17.27659
991.1479, 17.13825
991.6301, 16.81429
992.1122, 16.49620
992.5944, 16.41020
993.0765, 16.65196
993.5586, 16.52134
994.0407, 15.95133
994.5228, 15.49348
995.0049, 15.85245
995.4871, 16.44055
995.9692, 16.32676
996.4513, 15.61359
996.9334, 15.25592
997.4155, 15.93711
997.8976, 16.54059
998.3798, 16.78186
998.8619, 16.79252
999.3440, 16.91640
999.8261, 17.12992
1000.308, 17.21379
1000.790, 17.11911
1001.272, 16.85484
1001.755, 16.10821
1002.237, 15.37217
1002.719, 15.24396
1003.201, 16.07091
1003.683, 16.62249
1004.165, 16.86657
1004.647, 16.92868
1005.129, 16.78974
1005.612, 16.55727
1006.094, 16.65480
1006.576, 16.98257
1007.058, 17.07396
1007.540, 16.28113
1008.022, 15.65623
1008.504, 15.83754
1008.986, 16.38580
1009.468, 16.52074
1009.951, 16.17053
1010.433, 15.99846
1010.915, 16.12697
1011.397, 16.34558
1011.879, 16.45960
1012.361, 16.49914
1012.843, 16.45561
1013.325, 16.29919
1013.807, 16.33887
1014.290, 16.84187
1014.772, 17.22397
1015.254, 17.20355
1015.736, 16.86772
1016.218, 16.46589
1016.700, 16.04313
1017.182, 15.87041
1017.664, 16.27625
1018.147, 16.69625
1018.629, 16.61470
1019.111, 16.38358
1019.593, 16.60485
1020.075, 17.64500
1020.557, 17.97709
1021.039, 17.38469
1021.521, 16.69340
1022.003, 16.79468
1022.486, 17.29402
1022.968, 17.49417
1023.450, 17.37458
1023.932, 17.22350
1024.414, 17.06915
1024.896, 17.00124
1025.378, 17.02822
1025.860, 17.16416
1026.343, 17.56200
1026.825, 18.17919
1027.307, 18.48993
1027.789, 18.30466
1028.271, 17.92141
1028.753, 17.36940
1029.235, 16.89488
1029.717, 16.83700
1030.199, 17.43737
1030.682, 17.71171
1031.164, 17.56466
1031.646, 17.36442
1032.128, 17.39471
1032.610, 17.51919
1033.092, 17.22855
1033.574, 16.68819
1034.056, 16.51610
1034.539, 17.62844
1035.021, 18.36872
1035.503, 17.88725
1035.985, 16.97430
1036.467, 16.68824
1036.949, 17.04798
1037.431, 17.40016
1037.913, 17.68749
1038.396, 17.79923
1038.878, 17.50688
1039.360, 17.08673
1039.842, 16.74404
1040.324, 16.50770
1040.806, 16.50721
1041.288, 16.90692
1041.770, 17.14296
1042.252, 16.98529
1042.734, 16.63241
1043.217, 16.46842
1043.699, 16.44523
1044.181, 16.43394
1044.663, 16.38783
1045.145, 16.36662
1045.627, 16.33314
1046.109, 16.38966
1046.591, 16.68072
1047.074, 17.22844
1047.556, 17.33864
1048.038, 17.01056
1048.520, 16.76724
1049.002, 17.22225
1049.484, 17.67938
1049.966, 17.35823
1050.448, 16.55255
1050.931, 16.12614
1051.413, 16.31872
1051.895, 16.56162
1052.377, 16.85370
1052.859, 17.03231
1053.341, 16.71608
1053.823, 16.18504
1054.305, 16.15822
1054.787, 16.71992
1055.270, 17.12480
1055.752, 16.77331
1056.234, 16.48996
1056.716, 16.68163
1057.198, 17.19752
1057.680, 17.48358
1058.162, 17.54322
1058.644, 17.39750
1059.126, 16.96287
1059.609, 16.55561
1060.091, 16.59918
1060.573, 16.75310
1061.055, 16.56205
1061.537, 15.77312
1062.019, 15.55381
1062.501, 16.03490
1062.983, 16.60692
1063.466, 16.92093
1063.948, 17.02649
1064.430, 16.91851
1064.912, 16.67695
1065.394, 16.54076
1065.876, 16.92509
1066.358, 16.94254
1066.840, 16.16154
1067.323, 15.30407
1067.805, 15.40628
1068.287, 16.30309
1068.769, 16.79664
1069.251, 16.79219
1069.733, 16.67897
1070.215, 16.73988
1070.697, 16.77091
1071.179, 16.43756
1071.661, 15.93244
1072.144, 16.27514
1072.626, 17.68113
1073.108, 18.38356
1073.590, 17.78771
1074.072, 16.74097
1074.554, 16.08518
1075.036, 15.74144
1075.518, 15.65549
1076.001, 15.89529
1076.483, 16.02417
1076.965, 15.92608
1077.447, 15.89016
1077.929, 16.11868
1078.411, 16.48458
1078.893, 16.61620
1079.375, 16.56401
1079.858, 16.48908
1080.340, 16.39559
1080.822, 16.37695
1081.304, 16.57372
1081.786, 16.77844
1082.268, 16.80311
1082.750, 16.64541
1083.232, 16.34126
1083.714, 15.89377
1084.197, 15.66042
1084.679, 16.17306
1085.161, 16.74283
1085.643, 16.84410
1086.125, 16.56317
1086.607, 16.24813
1087.089, 15.85410
1087.571, 15.63918
1088.054, 15.66349
1088.536, 15.78971
1089.018, 15.90304
1089.500, 15.99155
1089.982, 16.04569
1090.464, 16.06494
1090.946, 16.00395
1091.428, 15.77503
1091.911, 15.58490
1092.393, 15.45976
1092.875, 15.45368
1093.357, 15.90613
1093.839, 16.59142
1094.321, 16.73771
1094.803, 15.92185
1095.285, 15.22865
1095.767, 15.32386
1096.250, 15.58827
1096.732, 15.58267
1097.214, 15.33045
1097.696, 15.34448
1098.178, 15.61228
1098.660, 15.86649
1099.142, 15.95220
1099.624, 15.99495
1100.106, 16.14688
1100.589, 16.05610
1101.071, 16.23879
1101.553, 15.87881
1102.035, 15.63156
1102.517, 15.49869
1102.999, 15.51135
1103.481, 15.82140
1103.963, 16.21071
1104.446, 16.44365
1104.928, 16.50084
1105.410, 16.33411
1105.892, 15.63607
1106.374, 15.25369
1106.856, 15.40921
1107.338, 15.70182
1107.820, 15.52426
1108.302, 15.07268
1108.785, 14.78927
1109.267, 14.72794
1109.749, 14.82603
1110.231, 15.35734
1110.713, 15.56503
1111.195, 15.73824
1111.677, 15.79993
1112.159, 15.75704
1112.641, 15.24512
1113.124, 15.37798
1113.606, 15.27651
1114.088, 15.18182
1114.570, 15.45450
1115.052, 15.09886
1115.534, 15.40022
1116.016, 15.46325
1116.498, 15.66031
1116.981, 15.62151
1117.463, 15.67787
1117.945, 16.00454
1118.427, 16.20814
1118.909, 15.86987
1119.391, 15.68904
1119.873, 15.33200
1120.355, 14.62312
1120.838, 14.36811
1121.320, 14.65110
1121.802, 15.02512
1122.284, 15.22141
1122.766, 15.28867
1123.248, 15.33671
1123.730, 15.32084
1124.212, 15.12214
1124.694, 14.33997
1125.177, 13.94597
1125.659, 14.10310
1126.141, 14.46976
1126.623, 14.74733
1127.105, 14.93777
1127.587, 15.02655
1128.069, 15.02574
1128.551, 15.01847
1129.033, 15.22207
1129.516, 15.15819
1129.998, 14.51638
1130.480, 13.74352
1130.962, 13.70062
1131.444, 14.22892
1131.926, 14.44174
1132.408, 14.19819
1132.890, 14.05622
1133.373, 14.57262
1133.855, 15.08571
1134.337, 15.22783
1134.819, 15.07101
1135.301, 14.78579
1135.783, 14.38307
1136.265, 14.11107
1136.747, 14.03985
1137.229, 14.09100
1137.712, 14.37085
1138.194, 14.61550
1138.676, 14.47589
1139.158, 13.95419
1139.640, 13.88854
1140.122, 14.32913
1140.604, 14.74457
1141.086, 14.95390
1141.569, 14.98308
1142.051, 14.71562
1142.533, 14.36136
1143.015, 14.22031
1143.497, 14.42450
1143.979, 14.52951
1144.461, 14.51056
1144.943, 14.48988
1145.426, 14.61056
1145.908, 14.71662
1146.390, 14.37026
1146.872, 13.84577
1147.354, 13.71527
1147.836, 14.74135
1148.318, 15.21019
1148.800, 14.94639
1149.282, 14.44375
1149.765, 13.99752
1150.247, 13.66487
1150.729, 13.62050
1151.211, 13.81698
1151.693, 14.04361
1152.175, 14.38293
1152.657, 14.49823
1153.139, 14.28732
1153.621, 13.92955
1154.104, 13.46735
1154.586, 13.04637
1155.068, 13.40767
1155.550, 14.48923
1156.032, 15.10093
1156.514, 14.24052
1156.996, 13.30631
1157.478, 12.59938
1157.961, 12.21833
1158.443, 12.49745
1158.925, 13.30459
1159.407, 13.95940
1159.889, 14.36921
1160.371, 14.44455
1160.853, 13.75271
1161.335, 13.10630
1161.818, 12.92417
1162.300, 13.09403
1162.782, 13.41662
1163.264, 13.85442
1163.746, 13.89482
1164.228, 13.34684
1164.710, 12.88639
1165.192, 13.13138
1165.674, 13.54445
1166.156, 13.75144
1166.639, 13.76949
1167.121, 13.67534
1167.603, 13.47132
1168.085, 13.43880
1168.567, 13.73542
1169.049, 14.02498
1169.531, 13.88308
1170.013, 13.68414
1170.496, 13.96468
1170.978, 13.64582
1171.460, 14.58541
1171.942, 13.40153
1172.424, 12.49798
1172.906, 12.54340
1173.388, 12.95728
1173.870, 13.43059
1174.353, 13.78735
1174.835, 13.70489
1175.317, 13.04684
1175.799, 12.77703
1176.281, 12.94158
1176.763, 13.10433
1177.245, 12.90772
1177.727, 12.70431
1178.209, 13.02015
1178.692, 13.56673
1179.174, 13.84001
1179.656, 13.67339
1180.138, 13.51249
1180.620, 13.33377
1181.102, 13.27514
1181.584, 13.68586
1182.066, 14.08266
1182.548, 13.57683
1183.031, 12.61066
1183.513, 12.27143
1183.995, 13.22793
1184.477, 13.57339
1184.959, 13.09402
1185.441, 12.54109
1185.923, 12.58771
1186.405, 12.95491
1186.888, 13.47757
1187.370, 14.00034
1187.852, 13.96855
1188.334, 12.76712
1188.816, 12.15898
1189.298, 12.41294
1189.780, 12.91235
1190.262, 13.05516
1190.745, 13.01577
1191.227, 12.97662
1191.709, 12.98329
1192.191, 13.23819
1192.673, 14.27446
1193.155, 14.47272
1193.637, 13.36139
1194.119, 12.05763
1194.601, 11.99018
1195.084, 12.56296
1195.566, 12.85443
1196.048, 12.81424
1196.530, 12.76675
1197.012, 12.73591
1197.494, 12.80532
1197.976, 13.04208
1198.458, 13.26193
1198.941, 13.19628
1199.423, 12.93719
1199.905, 12.51696
1200.387, 11.95620
1200.869, 11.85966
1201.351, 12.62568
1201.833, 13.25810
1202.315, 13.48147
1202.797, 13.53323
1203.280, 13.89277
1203.762, 13.77659
1204.244, 14.25757
1204.726, 13.63704
1205.208, 13.20815
1205.690, 13.15597
1206.172, 13.19629
1206.654, 13.29071
1207.136, 13.35073
1207.619, 13.14661
1208.101, 12.82625
1208.583, 12.65346
1209.065, 12.68995
1209.547, 12.75228
1210.029, 12.82349
1210.511, 12.89324
1210.993, 12.97510
1211.476, 13.02664
1211.958, 12.82442
1212.440, 12.58722
1212.922, 12.82285
1213.404, 13.81365
1213.886, 14.22008
1214.368, 13.63925
1214.850, 13.14740
1215.333, 13.23962
1215.815, 13.60251
1216.297, 13.70330
1216.779, 13.64268
1217.261, 13.58524
1217.743, 13.53917
1218.225, 13.65074
1218.707, 14.05349
1219.189, 14.27284
1219.672, 14.05187
1220.154, 13.56254
1220.636, 12.86213
1221.118, 12.20817
1221.600, 12.14762
1222.082, 13.17209
1222.564, 13.54424
1223.046, 12.93642
1223.528, 12.44876
1224.011, 12.78480
1224.493, 13.41838
1224.975, 13.46288
1225.457, 13.15115
1225.939, 12.86369
1226.421, 12.59707
1226.903, 12.71331
1227.385, 13.38960
1227.868, 13.80988
1228.350, 13.35066
1228.832, 12.56243
1229.314, 12.23163
1229.796, 12.19552
1230.278, 12.19753
1230.760, 12.23172
1231.242, 12.13274
1231.724, 11.83444
1232.207, 11.71724
1232.689, 12.10582
1233.171, 12.69348
1233.653, 13.31156
1234.135, 13.77227
1234.617, 13.67344
1235.099, 12.61831
1235.581, 12.30360
1236.063, 12.83396
1236.546, 13.39591
1237.028, 13.47908
1237.510, 13.34549
1237.992, 13.24536
1238.474, 13.12803
1238.956, 12.87455
1239.438, 12.37669
1239.920, 12.26087
1240.403, 12.56430
1240.885, 12.75538
1241.367, 12.23280
1241.849, 11.72356
1242.331, 11.94572
1242.813, 12.55749
1243.295, 13.08360
1243.777, 13.56690
1244.260, 13.52165
1244.742, 12.94723
1245.224, 12.55260
1245.706, 13.07180
1246.188, 13.60098
1246.670, 13.48672
1247.152, 13.02662
1247.634, 12.62920
1248.116, 12.28515
1248.599, 12.06433
1249.081, 11.96747
1249.563, 11.99355
1250.045, 12.24313
1250.527, 12.49929
1251.009, 12.64233
1251.491, 12.73631
1251.973, 12.84695
1252.455, 12.97205
1252.938, 13.04912
1253.420, 13.08857
1253.902, 13.17842
1254.384, 13.54686
1254.866, 13.73749
1255.348, 13.43230
1255.830, 13.03593
1256.313, 12.91257
1256.795, 13.01839
1257.277, 13.15358
1257.759, 13.27858
1258.241, 13.21486
1258.723, 12.49170
1259.205, 12.14442
1259.687, 12.46784
1260.169, 13.03261
1260.651, 13.64699
1261.134, 14.16533
1261.616, 13.91427
1262.098, 13.12643
1262.580, 12.61644
1263.062, 12.86924
1263.544, 13.18723
1264.026, 13.58132
1264.508, 13.85137
1264.991, 13.72886
1265.473, 13.42028
1265.955, 13.33276
1266.437, 13.39244
1266.919, 13.39402
1267.401, 13.21296
1267.883, 13.11327
1268.365, 13.11754
1268.848, 13.12947
1269.330, 13.00698
1269.812, 12.90331
1270.294, 13.11696
1270.776, 13.48069
1271.258, 13.58809
1271.740, 13.23945
1272.222, 13.26344
1272.704, 13.72363
1273.187, 14.06179
1273.669, 13.68097
1274.151, 13.21752
1274.633, 13.30739
1275.115, 13.65120
1275.597, 13.75220
1276.079, 13.55499
1276.561, 13.41367
1277.043, 13.33175
1277.526, 13.34073
1278.008, 13.69106
1278.490, 13.87263
1278.972, 13.34785
1279.454, 12.67308
1279.936, 12.41775
1280.418, 12.57230
1280.900, 12.80527
1281.383, 13.09537
1281.865, 13.31259
1282.347, 13.40669
1282.829, 13.39542
1283.311, 13.22539
1283.793, 13.02136
1284.275, 12.83614
1284.757, 12.69851
1285.240, 12.80950
1285.722, 13.07942
1286.204, 13.20996
1286.686, 12.96530
1287.168, 12.78155
1287.650, 12.66745
1288.132, 12.71036
1288.614, 13.09806
1289.096, 13.59186
1289.578, 13.63823
1290.061, 13.82606
1290.543, 13.90545
1291.025, 13.71137
1291.507, 13.72722
1291.989, 13.34309
1292.471, 12.89761
1292.953, 12.49424
1293.435, 12.24612
1293.918, 12.32317
1294.400, 12.62768
1294.882, 13.09386
1295.364, 13.76344
1295.846, 14.00559
1296.328, 13.81337
1296.810, 13.62585
1297.292, 13.72704
1297.775, 13.75820
1298.257, 13.20694
1298.739, 12.66652
1299.221, 12.76712
1299.703, 13.40921
1300.185, 13.48631
1300.667, 13.10863
1301.149, 12.71937
1301.631, 11.68282
1302.114, 12.76047
1302.596, 17.03546
##END=



