##NAMES=Chevkinite-(Ce)
##RRUFFID=R060419
##IDEAL CHEMISTRY=Ce^3+^_4_(Ti^4+^,Fe^2+^,Fe^3+^)_5_O_8_(Si_2_O_7_)_2_
##LOCALITY=Arondu, Basha Valley, Baltistan, Pakistan
##OWNER=RRUFF
##SOURCE=Herb Obodda
##DESCRIPTION=Black resinous fragment
##STATUS=The identification of this mineral has been confirmed by X-ray diffraction and chemical analysis
##URL=rruff.info/R060419
##MEASURED CHEMISTRY=(Ce_1.89_La_0.88_Nd_0.63_Ca_0.47_Th_0.13_)_Σ=4_(Ti_2.80_Fe^2+^_1.46_Fe^3+^_0.74_)_Σ=5_O_8_(Si_2.00_O_7_)_2_
178.3506, 36.73379
178.8328, 37.04088
179.3149, 37.18558
179.7970, 37.11795
180.2791, 36.89022
180.7612, 36.48376
181.2433, 35.86036
181.7255, 35.16810
182.2076, 34.72150
182.6897, 34.59089
183.1718, 34.60861
183.6539, 34.80552
184.1360, 35.07412
184.6181, 35.33626
185.1003, 35.56214
185.5824, 35.71040
186.0645, 35.62127
186.5466, 34.93635
187.0287, 34.44691
187.5108, 34.40963
187.9930, 34.58381
188.4751, 34.65092
188.9572, 34.42646
189.4393, 33.97795
189.9214, 33.68453
190.4035, 33.59035
190.8857, 33.60199
191.3678, 33.80532
191.8499, 34.09734
192.3320, 34.31820
192.8141, 34.37533
193.2962, 34.27664
193.7784, 34.06591
194.2605, 33.75624
194.7426, 33.35557
195.2247, 32.63008
195.7068, 31.77002
196.1889, 31.33049
196.6711, 31.72997
197.1532, 32.81337
197.6353, 33.65614
198.1174, 34.33739
198.5995, 34.74546
199.0816, 34.69856
199.5638, 34.25526
200.0459, 33.80696
200.5280, 33.58455
201.0101, 33.52515
201.4922, 33.41313
201.9743, 33.17889
202.4565, 32.95255
202.9386, 32.86694
203.4207, 32.92602
203.9028, 32.97296
204.3849, 32.83415
204.8670, 32.66667
205.3492, 32.72459
205.8313, 33.17442
206.3134, 33.70875
206.7955, 33.95098
207.2776, 33.86733
207.7597, 33.64587
208.2419, 33.13981
208.7240, 32.62484
209.2061, 32.44369
209.6882, 32.80468
210.1703, 33.34116
210.6524, 33.32231
211.1346, 32.41491
211.6167, 31.82306
212.0988, 32.26742
212.5809, 33.03139
213.0630, 33.41556
213.5451, 33.11596
214.0273, 32.39851
214.5094, 31.81631
214.9915, 31.26707
215.4736, 31.08700
215.9557, 31.60135
216.4378, 32.33022
216.9200, 32.81591
217.4021, 32.85275
217.8842, 32.54396
218.3663, 32.14748
218.8484, 31.42227
219.3305, 30.98144
219.8127, 30.94708
220.2948, 31.18140
220.7769, 31.61777
221.2590, 32.22650
221.7411, 32.87673
222.2232, 33.17682
222.7054, 32.71991
223.1875, 32.37215
223.6696, 32.23886
224.1517, 32.22023
224.6338, 32.20493
225.1159, 32.14325
225.5980, 32.05125
226.0802, 31.97510
226.5623, 31.74360
227.0444, 31.74042
227.5265, 32.22458
228.0086, 32.88838
228.4907, 33.32987
228.9729, 33.37716
229.4550, 33.14950
229.9371, 32.94322
230.4192, 32.81764
230.9013, 32.62176
231.3834, 32.16326
231.8656, 31.65812
232.3477, 31.50829
232.8298, 31.91750
233.3119, 32.54550
233.7940, 32.58651
234.2761, 31.81453
234.7583, 31.16081
235.2404, 30.87867
235.7225, 30.86198
236.2046, 30.92013
236.6867, 30.98478
237.1688, 31.12159
237.6510, 31.52710
238.1331, 32.26677
238.6152, 32.84253
239.0973, 33.00959
239.5794, 32.89961
240.0615, 32.79309
240.5437, 32.77332
241.0258, 32.75603
241.5079, 32.55700
241.9900, 32.16604
242.4721, 31.96136
242.9542, 32.26680
243.4364, 32.88179
243.9185, 33.26387
244.4006, 33.22325
244.8827, 33.08467
245.3648, 33.28887
245.8469, 33.77404
246.3290, 34.00297
246.8112, 33.43974
247.2933, 32.39319
247.7754, 31.83337
248.2575, 32.05002
248.7396, 32.50473
249.2217, 32.85762
249.7039, 33.10434
250.1860, 33.20518
250.6681, 33.09779
251.1502, 32.82027
251.6323, 32.47456
252.1144, 31.93338
252.5966, 31.55696
253.0787, 31.69161
253.5608, 32.13369
254.0429, 32.41998
254.5250, 32.19104
255.0071, 31.59693
255.4893, 31.23509
255.9714, 31.25064
256.4535, 31.27700
256.9356, 31.07991
257.4177, 30.78912
257.8998, 30.62667
258.3820, 30.75754
258.8641, 31.08461
259.3462, 31.25460
259.8283, 31.15911
260.3104, 31.07920
260.7925, 31.12310
261.2747, 31.23080
261.7568, 31.32553
262.2389, 31.37060
262.7210, 31.37745
263.2031, 31.37052
263.6852, 31.30157
264.1674, 31.30847
264.6495, 31.53155
265.1316, 31.79120
265.6137, 31.85688
266.0958, 31.61804
266.5779, 31.24125
267.0601, 31.14742
267.5422, 31.57338
268.0243, 31.86029
268.5064, 31.88218
268.9885, 31.76415
269.4706, 31.57064
269.9528, 31.33142
270.4349, 31.12207
270.9170, 31.12843
271.3991, 31.61213
271.8812, 31.78045
272.3633, 31.30069
272.8455, 30.71765
273.3276, 30.46875
273.8097, 30.64826
274.2918, 31.02218
274.7739, 31.23799
275.2560, 31.20932
275.7382, 31.19833
276.2202, 31.23375
276.7024, 31.26213
277.1845, 31.23804
277.6666, 31.16205
278.1487, 31.08106
278.6308, 31.06430
279.1129, 31.16678
279.5951, 31.13543
280.0772, 30.80824
280.5593, 30.50963
281.0414, 30.41255
281.5235, 30.51454
282.0056, 30.72233
282.4878, 30.96994
282.9699, 31.29103
283.4520, 31.40015
283.9341, 31.24085
284.4162, 30.96263
284.8983, 30.43505
285.3805, 29.81398
285.8626, 29.48333
286.3447, 29.78716
286.8268, 30.70838
287.3089, 31.25353
287.7910, 31.13355
288.2732, 30.98217
288.7553, 30.98094
289.2374, 31.07784
289.7195, 31.15494
290.2016, 31.14335
290.6837, 31.05026
291.1659, 30.90886
291.6480, 30.66761
292.1301, 30.43929
292.6122, 30.25793
293.0943, 30.09624
293.5764, 29.87967
294.0586, 29.56729
294.5407, 29.25466
295.0228, 29.20124
295.5049, 29.78809
295.9870, 30.17538
296.4691, 30.19886
296.9513, 30.06688
297.4334, 29.96753
297.9155, 29.96697
298.3976, 30.08193
298.8797, 30.37648
299.3618, 31.26565
299.8440, 31.48118
300.3261, 30.25161
300.8082, 28.84385
301.2903, 28.40507
301.7724, 29.09525
302.2545, 30.11034
302.7367, 30.51383
303.2188, 30.11573
303.7009, 29.75093
304.1830, 29.37869
304.6651, 29.06592
305.1472, 28.86494
305.6294, 28.76948
306.1115, 28.72706
306.5936, 28.68837
307.0757, 28.65009
307.5578, 28.72086
308.0399, 28.95399
308.5221, 29.22125
309.0042, 29.49532
309.4863, 29.76075
309.9684, 30.01658
310.4505, 30.28705
310.9326, 30.52849
311.4148, 30.40361
311.8969, 29.58640
312.3790, 28.84002
312.8611, 28.21850
313.3432, 27.80936
313.8253, 27.81769
314.3075, 28.36569
314.7896, 29.19983
315.2717, 29.66635
315.7538, 29.41556
316.2359, 29.30205
316.7180, 29.65086
317.2001, 30.05590
317.6823, 29.98301
318.1644, 29.29127
318.6465, 28.39858
319.1286, 27.93473
319.6107, 28.14519
320.0928, 28.24017
320.5750, 28.19367
321.0571, 28.05429
321.5392, 27.73527
322.0213, 27.28864
322.5034, 27.03070
322.9855, 27.33213
323.4677, 28.32217
323.9498, 28.92388
324.4319, 28.85036
324.9140, 28.72004
325.3961, 28.95772
325.8782, 29.43161
326.3604, 29.66221
326.8425, 29.27347
327.3246, 28.33993
327.8067, 27.70332
328.2888, 27.39267
328.7709, 27.29476
329.2531, 27.50605
329.7352, 27.89234
330.2173, 28.27767
330.6994, 28.58571
331.1815, 28.78760
331.6636, 28.80211
332.1458, 28.42686
332.6279, 28.10522
333.1100, 27.94409
333.5921, 27.79769
334.0742, 27.43235
334.5563, 26.81174
335.0385, 26.22252
335.5206, 26.09517
336.0027, 26.61858
336.4848, 27.16795
336.9669, 27.94223
337.4490, 28.59200
337.9312, 28.86463
338.4133, 28.77045
338.8954, 28.48522
339.3775, 28.15108
339.8596, 27.75510
340.3417, 27.46708
340.8239, 27.24349
341.3060, 27.15357
341.7881, 27.30026
342.2702, 27.59744
342.7523, 27.90047
343.2344, 28.12940
343.7166, 28.26686
344.1987, 28.22394
344.6808, 27.63866
345.1629, 27.28648
345.6450, 27.49731
346.1271, 27.87247
346.6093, 27.89011
347.0914, 27.37571
347.5735, 26.67703
348.0556, 26.49562
348.5377, 27.33689
349.0198, 27.78126
349.5020, 27.57986
349.9841, 27.22523
350.4662, 27.01227
350.9483, 26.99313
351.4304, 27.08771
351.9125, 27.24109
352.3947, 27.49127
352.8768, 27.54178
353.3589, 27.10945
353.8410, 26.76015
354.3231, 26.75361
354.8052, 26.98577
355.2874, 27.20275
355.7695, 27.22147
356.2516, 27.09475
356.7337, 27.13335
357.2158, 27.50616
357.6979, 27.82068
358.1800, 28.09049
358.6621, 28.23556
359.1443, 28.10914
359.6264, 27.65683
360.1085, 27.09361
360.5906, 26.83884
361.0727, 27.07088
361.5548, 27.14455
362.0370, 26.77112
362.5191, 26.39877
363.0012, 26.31012
363.4833, 26.52384
363.9654, 26.87393
364.4475, 27.25239
364.9297, 27.67167
365.4118, 27.91124
365.8939, 27.95341
366.3760, 27.80892
366.8581, 27.23559
367.3402, 26.49635
367.8224, 26.14585
368.3045, 26.64787
368.7866, 27.64754
369.2687, 28.05144
369.7508, 27.59045
370.2329, 27.11490
370.7151, 26.90578
371.1972, 26.82748
371.6793, 26.73063
372.1614, 26.56269
372.6435, 26.45771
373.1256, 26.61955
373.6078, 27.06797
374.0899, 27.49864
374.5720, 27.92673
375.0541, 28.23727
375.5362, 28.34353
376.0183, 28.25260
376.5005, 28.05142
376.9826, 27.71976
377.4647, 27.31206
377.9468, 27.00880
378.4289, 26.78880
378.9110, 26.74986
379.3932, 27.11288
379.8753, 27.68592
380.3574, 28.10496
380.8395, 28.24470
381.3216, 28.19209
381.8037, 27.99995
382.2859, 27.66455
382.7680, 27.34819
383.2501, 27.06304
383.7322, 26.88860
384.2143, 26.93989
384.6964, 27.27269
385.1786, 27.64096
385.6607, 27.99597
386.1428, 28.27980
386.6249, 28.28669
387.1070, 27.89898
387.5891, 27.42418
388.0713, 27.29439
388.5534, 27.47182
389.0355, 27.44870
389.5176, 26.94887
389.9997, 26.31005
390.4818, 25.75891
390.9640, 25.33138
391.4461, 25.27271
391.9282, 25.89924
392.4103, 27.02351
392.8924, 27.62152
393.3745, 27.31654
393.8567, 26.94834
394.3388, 26.73123
394.8209, 26.69381
395.3030, 26.98996
395.7851, 27.72260
396.2672, 28.54332
396.7494, 28.81723
397.2315, 28.26736
397.7136, 27.80390
398.1957, 27.39487
398.6778, 27.12929
399.1599, 27.16474
399.6420, 27.46640
400.1241, 27.77487
400.6063, 27.86000
401.0884, 27.71599
401.5705, 27.54800
402.0526, 27.38447
402.5347, 27.17058
403.0168, 26.71890
403.4990, 26.24000
403.9811, 26.12617
404.4632, 26.57147
404.9453, 27.32016
405.4274, 27.75075
405.9095, 27.68769
406.3917, 27.57550
406.8738, 27.32611
407.3559, 27.11242
407.8380, 27.09213
408.3201, 27.25961
408.8022, 27.46228
409.2844, 27.55230
409.7665, 27.52344
410.2486, 27.46675
410.7307, 27.31091
411.2128, 27.20658
411.6949, 27.32237
412.1771, 27.49314
412.6592, 27.38729
413.1413, 26.77648
413.6234, 26.02285
414.1055, 26.01412
414.5876, 27.08921
415.0698, 27.87508
415.5519, 27.81925
416.0340, 27.51066
416.5161, 27.29484
416.9982, 27.22263
417.4803, 27.21846
417.9625, 27.28314
418.4446, 27.38728
418.9267, 27.27663
419.4088, 26.74783
419.8909, 26.34680
420.3730, 26.62948
420.8552, 27.27496
421.3373, 27.61701
421.8194, 27.31472
422.3015, 26.73716
422.7836, 26.24584
423.2657, 25.84317
423.7479, 25.64364
424.2300, 25.80369
424.7121, 26.09780
425.1942, 26.11953
425.6763, 25.78513
426.1584, 25.60975
426.6406, 26.13601
427.1227, 26.87374
427.6048, 26.80515
428.0869, 25.69989
428.5690, 24.62179
429.0511, 24.62488
429.5333, 25.72536
430.0154, 26.45314
430.4975, 26.60549
430.9796, 26.57109
431.4617, 26.48259
431.9438, 26.37738
432.4260, 26.35045
432.9081, 26.46329
433.3902, 26.61353
433.8723, 26.54876
434.3544, 26.03551
434.8365, 25.69272
435.3187, 25.67181
435.8008, 25.74107
436.2829, 25.70185
436.7650, 25.54004
437.2471, 25.36846
437.7292, 25.28541
438.2114, 25.29062
438.6935, 25.38690
439.1756, 25.83936
439.6577, 26.08661
440.1398, 25.88156
440.6219, 25.43247
441.1040, 24.97961
441.5862, 24.62688
442.0683, 24.40796
442.5504, 24.44544
443.0325, 24.89795
443.5146, 25.11829
443.9967, 24.70085
444.4789, 24.33208
444.9610, 24.49749
445.4431, 25.07681
445.9252, 25.52863
446.4073, 25.34078
446.8894, 24.73392
447.3716, 24.61295
447.8537, 25.18457
448.3358, 25.72639
448.8179, 25.95674
449.3000, 25.97551
449.7821, 25.81596
450.2643, 25.43610
450.7464, 25.11080
451.2285, 25.20013
451.7106, 25.59229
452.1927, 25.65217
452.6748, 25.08751
453.1570, 24.50973
453.6391, 24.77467
454.1212, 25.66382
454.6033, 26.11211
455.0854, 25.40852
455.5675, 24.50422
456.0497, 24.33417
456.5318, 24.80382
457.0139, 25.21174
457.4960, 25.19498
457.9781, 24.89686
458.4602, 24.69477
458.9424, 24.60065
459.4245, 24.55506
459.9066, 24.54452
460.3887, 24.58020
460.8708, 24.71465
461.3529, 24.93556
461.8351, 25.11972
462.3172, 25.14644
462.7993, 25.01040
463.2814, 24.87452
463.7635, 24.72813
464.2456, 24.59397
464.7278, 24.44952
465.2099, 24.32901
465.6920, 24.28183
466.1741, 24.32599
466.6562, 24.43212
467.1383, 24.58276
467.6205, 24.85654
468.1026, 24.92983
468.5847, 24.53369
469.0668, 24.16646
469.5489, 24.06159
470.0310, 24.17765
470.5132, 24.36245
470.9953, 24.54256
471.4774, 24.71015
471.9595, 24.89749
472.4416, 25.18460
472.9237, 25.18724
473.4059, 24.36003
473.8880, 23.43300
474.3701, 23.12784
474.8522, 23.54138
475.3343, 24.06497
475.8164, 24.37357
476.2986, 24.49413
476.7807, 24.43798
477.2628, 24.16253
477.7449, 23.94814
478.2270, 24.03678
478.7091, 24.37151
479.1913, 24.67944
479.6734, 25.04071
480.1555, 25.26826
480.6376, 25.23938
481.1197, 25.00869
481.6018, 24.61461
482.0839, 24.05031
482.5660, 23.56464
483.0482, 23.54038
483.5303, 24.17065
484.0124, 24.57461
484.4945, 24.75467
484.9766, 24.72253
485.4587, 24.28791
485.9409, 23.64770
486.4230, 23.24236
486.9051, 23.32510
487.3872, 23.75578
487.8693, 24.14395
488.3514, 24.54512
488.8336, 24.79420
489.3157, 24.73137
489.7978, 24.65385
490.2799, 24.82942
490.7620, 25.21289
491.2441, 25.50368
491.7263, 25.41020
492.2084, 25.02702
492.6905, 24.79216
493.1726, 24.68707
493.6547, 24.77746
494.1368, 25.37525
494.6190, 26.04395
495.1011, 26.27641
495.5832, 25.93782
496.0653, 25.54053
496.5474, 25.47651
497.0295, 25.66122
497.5117, 25.88427
497.9938, 26.15339
498.4759, 26.28977
498.9580, 26.01805
499.4401, 25.45300
499.9222, 25.21210
500.4044, 25.66640
500.8865, 26.10709
501.3686, 26.12402
501.8507, 25.86959
502.3328, 25.65520
502.8149, 25.58695
503.2971, 25.58234
503.7792, 25.51444
504.2613, 25.32522
504.7434, 25.29548
505.2255, 25.58472
505.7076, 25.85827
506.1898, 25.92547
506.6719, 25.85778
507.1540, 25.80665
507.6361, 25.84882
508.1182, 25.98062
508.6003, 26.23569
509.0825, 26.75709
509.5646, 27.01666
510.0467, 26.86654
510.5288, 26.52466
511.0109, 25.88214
511.4930, 25.10451
511.9752, 24.69951
512.4573, 25.16443
512.9394, 26.09928
513.4215, 26.54948
513.9036, 26.44117
514.3857, 26.33285
514.8679, 26.52332
515.3500, 26.74981
515.8321, 26.60887
516.3142, 26.03503
516.7963, 25.62925
517.2784, 25.86569
517.7606, 26.32077
518.2427, 26.32335
518.7248, 25.83962
519.2069, 25.41812
519.6890, 25.44748
520.1711, 25.82578
520.6533, 26.04406
521.1354, 25.91522
521.6175, 25.90256
522.0996, 26.20832
522.5817, 26.59254
523.0638, 26.81053
523.5460, 26.82659
524.0281, 26.76057
524.5102, 26.72774
524.9923, 26.72567
525.4744, 26.64920
525.9565, 26.39902
526.4387, 26.20539
526.9208, 26.08578
527.4029, 26.05642
527.8850, 26.20366
528.3671, 26.53161
528.8492, 26.78889
529.3314, 26.52654
529.8135, 25.84413
530.2956, 25.87145
530.7777, 27.13674
531.2598, 28.14272
531.7419, 27.57209
532.2241, 26.20771
532.7062, 25.27729
533.1883, 25.09941
533.6704, 25.19191
534.1525, 25.31730
534.6346, 25.45729
535.1168, 25.56729
535.5989, 25.63578
536.0810, 25.68656
536.5631, 25.73567
537.0452, 25.78299
537.5273, 25.86956
538.0095, 26.24612
538.4916, 26.38064
538.9737, 25.73422
539.4558, 24.83579
539.9379, 24.59992
540.4200, 25.28041
540.9022, 26.15292
541.3843, 26.12395
541.8664, 24.94046
542.3485, 24.29165
542.8306, 24.69466
543.3127, 25.09837
543.7948, 25.14057
544.2769, 24.98321
544.7590, 24.91520
545.2411, 25.05870
545.7233, 25.19925
546.2054, 24.99351
546.6875, 24.47464
547.1696, 24.15710
547.6517, 24.16091
548.1339, 24.29773
548.6160, 24.57043
549.0981, 24.87090
549.5802, 24.83716
550.0623, 24.00016
550.5444, 23.23893
551.0266, 23.29624
551.5087, 23.84081
551.9908, 24.05441
552.4729, 23.67806
552.9550, 23.17220
553.4371, 23.12502
553.9193, 23.63986
554.4014, 23.99618
554.8835, 24.15815
555.3656, 24.22717
555.8477, 24.23257
556.3298, 24.17197
556.8120, 24.00902
557.2941, 23.73571
557.7762, 23.44841
558.2583, 23.29042
558.7404, 23.27839
559.2225, 23.26150
559.7047, 23.22125
560.1868, 23.19660
560.6689, 23.31339
561.1510, 23.43132
561.6331, 23.26651
562.1152, 22.63285
562.5974, 21.98545
563.0795, 21.76973
563.5616, 21.89417
564.0437, 22.01841
564.5258, 22.06345
565.0079, 22.17299
565.4901, 22.58310
565.9722, 23.24671
566.4543, 23.43928
566.9364, 22.65726
567.4185, 21.98409
567.9006, 21.95528
568.3828, 22.23927
568.8649, 22.34574
569.3470, 22.15426
569.8291, 21.89837
570.3112, 21.86771
570.7933, 22.08436
571.2755, 22.11731
571.7576, 21.69201
572.2397, 21.43031
572.7218, 21.66306
573.2039, 22.03980
573.6860, 22.10354
574.1682, 21.75074
574.6503, 21.40467
575.1324, 21.59506
575.6145, 22.15804
576.0966, 22.32095
576.5787, 21.95678
577.0609, 21.50010
577.5430, 21.13303
578.0251, 20.88800
578.5072, 20.82414
578.9893, 20.99718
579.4714, 21.22845
579.9536, 21.57019
580.4357, 21.87024
580.9178, 21.84585
581.3999, 21.52037
581.8820, 21.30705
582.3641, 21.56320
582.8463, 22.16288
583.3284, 22.37205
583.8105, 21.96570
584.2926, 21.47047
584.7747, 20.53434
585.2568, 19.82097
585.7390, 20.06140
586.2211, 21.10013
586.7032, 22.03296
587.1853, 22.20618
587.6674, 21.82035
588.1495, 21.30120
588.6317, 20.57316
589.1138, 20.20364
589.5959, 20.57453
590.0780, 21.20172
590.5601, 21.52012
591.0422, 21.53624
591.5244, 21.49218
592.0065, 21.26527
592.4886, 21.16211
592.9707, 21.69207
593.4528, 22.62358
593.9349, 23.09536
594.4171, 22.69135
594.8992, 21.91847
595.3813, 21.68497
595.8634, 22.26675
596.3455, 22.57427
596.8276, 22.39257
597.3098, 22.20265
597.7919, 22.21355
598.2740, 22.35285
598.7561, 22.50965
599.2382, 22.64495
599.7203, 22.67222
600.2025, 22.32401
600.6846, 21.62128
601.1667, 21.47293
601.6488, 22.23948
602.1309, 23.02465
602.6130, 23.13455
603.0952, 22.83443
603.5773, 22.62877
604.0594, 22.59503
604.5415, 22.63669
605.0236, 22.71091
605.5057, 22.82662
605.9879, 23.09049
606.4700, 23.48230
606.9521, 23.64744
607.4342, 23.22647
607.9163, 22.34126
608.3984, 21.91970
608.8806, 22.34188
609.3627, 22.72926
609.8448, 23.01546
610.3269, 23.23516
610.8090, 23.40970
611.2911, 23.54502
611.7733, 23.64655
612.2554, 23.72573
612.7375, 23.76666
613.2196, 23.71300
613.7017, 23.55317
614.1838, 23.42131
614.6660, 23.37619
615.1481, 23.35227
615.6302, 23.25545
616.1123, 23.09228
616.5944, 22.98001
617.0765, 23.00874
617.5587, 23.03330
618.0408, 22.84331
618.5229, 22.58855
619.0050, 22.63443
619.4871, 23.10384
619.9692, 23.75293
620.4514, 24.29720
620.9335, 24.77538
621.4156, 24.85535
621.8977, 23.87842
622.3798, 23.28787
622.8619, 23.82448
623.3441, 24.75195
623.8262, 25.18904
624.3083, 24.93300
624.7904, 24.52172
625.2725, 24.37729
625.7546, 24.43042
626.2367, 24.54043
626.7188, 24.71634
627.2009, 24.74975
627.6830, 24.47225
628.1652, 24.03189
628.6473, 23.74219
629.1294, 23.56346
629.6115, 23.61134
630.0936, 24.07990
630.5757, 24.62890
631.0579, 25.08084
631.5400, 25.40054
632.0221, 25.55912
632.5042, 25.53862
632.9863, 25.40255
633.4684, 25.26309
633.9506, 25.12220
634.4327, 24.96159
634.9148, 24.74221
635.3969, 24.55379
635.8790, 24.34321
636.3611, 24.21338
636.8433, 24.40620
637.3254, 25.10873
637.8075, 25.72576
638.2896, 25.69116
638.7717, 25.30590
639.2538, 25.15621
639.7360, 25.32020
640.2181, 25.58632
640.7002, 25.85319
641.1823, 26.06409
641.6644, 25.98380
642.1465, 25.06011
642.6287, 24.61724
643.1108, 25.00127
643.5929, 25.58352
644.0750, 26.07957
644.5571, 26.40428
645.0392, 26.45966
645.5214, 26.14551
646.0035, 25.68839
646.4856, 25.46174
646.9677, 25.46497
647.4498, 25.56779
647.9319, 25.80741
648.4141, 26.01982
648.8962, 26.06041
649.3783, 25.95878
649.8604, 25.82184
650.3425, 25.59000
650.8246, 25.41573
651.3068, 25.41407
651.7889, 25.47451
652.2710, 25.43697
652.7531, 25.29904
653.2352, 25.19499
653.7173, 25.22779
654.1995, 25.38105
654.6816, 25.62105
655.1637, 26.07607
655.6458, 26.30787
656.1279, 26.05834
656.6100, 25.71898
657.0922, 25.45291
657.5743, 25.28028
658.0564, 25.22781
658.5385, 25.36073
659.0206, 25.53922
659.5027, 25.60432
659.9849, 25.60790
660.4670, 25.77498
660.9491, 26.16706
661.4312, 26.38712
661.9133, 26.00030
662.3954, 25.07324
662.8776, 24.56707
663.3597, 24.76770
663.8418, 25.02519
664.3239, 25.25704
664.8060, 25.54007
665.2881, 26.08027
665.7703, 26.76528
666.2524, 27.15002
666.7345, 26.86866
667.2166, 26.25669
667.6987, 25.92117
668.1808, 25.85555
668.6630, 25.81108
669.1451, 25.71915
669.6272, 25.66540
670.1093, 25.80805
670.5914, 26.10723
671.0735, 26.11835
671.5557, 25.46329
672.0378, 24.97397
672.5199, 25.05606
673.0020, 25.36182
673.4841, 25.48505
673.9662, 25.39911
674.4484, 25.37531
674.9305, 25.65332
675.4126, 26.10386
675.8947, 26.27027
676.3768, 26.07871
676.8589, 25.94124
677.3411, 26.06580
677.8232, 26.12129
678.3053, 25.69636
678.7874, 24.96227
679.2695, 24.56327
679.7516, 24.91005
680.2338, 25.29245
680.7159, 25.22378
681.1980, 24.94696
681.6801, 24.86775
682.1622, 25.03964
682.6443, 25.22266
683.1265, 25.21655
683.6086, 25.06379
684.0907, 24.97540
684.5728, 24.99418
685.0549, 24.98342
685.5370, 24.93358
686.0192, 24.84099
686.5013, 24.61915
686.9834, 24.34915
687.4655, 24.27487
687.9476, 24.60908
688.4297, 24.94570
688.9119, 24.80553
689.3940, 24.41280
689.8761, 24.37604
690.3582, 24.78977
690.8403, 25.09028
691.3224, 24.79703
691.8046, 24.07133
692.2867, 23.68190
692.7688, 23.93076
693.2509, 24.03626
693.7330, 23.78884
694.2151, 23.56286
694.6973, 23.65580
695.1794, 23.94740
695.6615, 24.11405
696.1436, 24.00492
696.6257, 23.76836
697.1078, 23.49500
697.5900, 23.22578
698.0721, 23.15715
698.5542, 23.33520
699.0363, 23.41836
699.5184, 23.11022
700.0005, 22.57813
700.4827, 22.41947
700.9648, 22.97671
701.4469, 23.35438
701.9290, 23.49829
702.4111, 23.50050
702.8932, 23.28525
703.3754, 22.99557
703.8575, 22.94324
704.3396, 23.27555
704.8217, 23.62118
705.3038, 23.44197
705.7859, 22.86587
706.2681, 22.50817
706.7502, 22.43198
707.2323, 22.51147
707.7144, 22.81047
708.1965, 23.10809
708.6786, 22.77858
709.1607, 21.34694
709.6428, 20.70991
710.1249, 21.82464
710.6071, 22.93274
711.0892, 22.89636
711.5713, 22.20202
712.0534, 21.75814
712.5355, 21.87015
713.0176, 22.18757
713.4998, 22.33528
713.9819, 22.34709
714.4640, 22.41635
714.9461, 22.55603
715.4282, 22.68419
715.9103, 22.77690
716.3925, 22.82754
716.8746, 22.81194
717.3567, 22.72171
717.8388, 22.64975
718.3209, 22.66285
718.8030, 22.63119
719.2852, 22.47767
719.7673, 22.24943
720.2494, 21.93967
720.7315, 21.58882
721.2136, 21.41712
721.6957, 21.72912
722.1779, 22.33289
722.6600, 22.47791
723.1421, 22.10079
723.6242, 21.85308
724.1063, 22.03247
724.5884, 22.22497
725.0706, 21.85705
725.5527, 20.99438
726.0348, 20.56995
726.5169, 20.98322
726.9990, 21.40804
727.4811, 21.62652
727.9633, 21.68164
728.4454, 21.54056
728.9275, 21.26580
729.4096, 21.07561
729.8917, 21.14067
730.3738, 21.32432
730.8560, 21.31351
731.3381, 21.10105
731.8202, 20.96354
732.3023, 20.98351
732.7844, 20.98462
733.2665, 20.75776
733.7487, 20.41465
734.2308, 20.38256
734.7129, 20.92266
735.1950, 21.27750
735.6771, 21.04407
736.1592, 20.78144
736.6414, 21.05303
737.1235, 21.65805
737.6056, 21.98869
738.0877, 21.76635
738.5698, 21.37067
739.0519, 21.38933
739.5341, 21.75519
740.0162, 21.84018
740.4983, 21.57615
740.9804, 21.18858
741.4625, 20.68622
741.9446, 20.21203
742.4268, 20.04791
742.9089, 20.22497
743.3910, 20.49995
743.8731, 21.14726
744.3552, 21.57056
744.8373, 21.16529
745.3195, 20.49844
745.8016, 20.50372
746.2837, 21.31133
746.7658, 22.05567
747.2479, 21.85113
747.7300, 21.07294
748.2122, 20.76512
748.6943, 20.93447
749.1764, 21.13964
749.6585, 21.29747
750.1406, 21.34146
750.6227, 21.15958
751.1049, 20.76176
751.5870, 20.49079
752.0691, 20.45965
752.5512, 20.39233
753.0333, 20.14608
753.5154, 19.91756
753.9976, 19.93590
754.4797, 20.12731
754.9618, 20.16757
755.4439, 19.81571
755.9260, 19.51759
756.4081, 20.14892
756.8903, 21.37919
757.3724, 21.71393
757.8545, 20.93072
758.3366, 19.97577
758.8187, 19.36049
759.3008, 19.05847
759.7830, 19.01764
760.2651, 19.37623
760.7472, 19.67461
761.2293, 19.97807
761.7114, 20.15302
762.1935, 20.03274
762.6757, 19.80381
763.1578, 19.75235
763.6399, 19.93347
764.1220, 20.05548
764.6041, 19.77005
765.0862, 19.37951
765.5684, 19.41303
766.0505, 19.78589
766.5326, 20.06112
767.0147, 20.10046
767.4968, 19.99343
767.9789, 19.83877
768.4611, 19.63243
768.9432, 19.28195
769.4253, 18.40262
769.9074, 18.04577
770.3895, 18.93643
770.8716, 19.88157
771.3538, 19.94684
771.8359, 19.37827
772.3180, 19.10826
772.8001, 19.61178
773.2822, 20.11106
773.7643, 19.98269
774.2465, 19.56846
774.7286, 19.41531
775.2107, 19.51269
775.6928, 19.43064
776.1749, 18.90864
776.6570, 18.26243
777.1392, 18.15130
777.6213, 18.66958
778.1034, 19.02705
778.5855, 19.12968
779.0676, 19.24445
779.5497, 19.56646
780.0319, 19.91497
780.5140, 20.04185
780.9961, 19.93039
781.4782, 19.79725
781.9603, 19.74185
782.4424, 19.62873
782.9246, 19.23551
783.4067, 18.79822
783.8888, 18.70810
784.3709, 18.99979
784.8530, 19.35334
785.3351, 19.50484
785.8173, 19.55604
786.2994, 19.85921
786.7815, 20.41451
787.2636, 20.49851
787.7457, 19.85409
788.2278, 19.12793
788.7100, 18.77278
789.1921, 18.73504
789.6742, 18.82618
790.1563, 19.23020
790.6384, 19.42026
791.1205, 19.05107
791.6026, 18.78118
792.0847, 19.27467
792.5668, 20.01931
793.0490, 19.99523
793.5311, 18.92257
794.0132, 17.93251
794.4953, 18.13621
794.9774, 18.94509
795.4595, 19.39907
795.9417, 19.49581
796.4238, 19.28991
796.9059, 18.77708
797.3880, 18.32316
797.8701, 18.37607
798.3522, 18.88817
798.8344, 19.05935
799.3165, 18.65152
799.7986, 18.36166
800.2807, 18.28764
800.7628, 18.37656
801.2449, 18.72887
801.7271, 19.21836
802.2092, 19.49380
802.6913, 19.37064
803.1734, 19.28529
803.6555, 19.59163
804.1376, 19.95446
804.6198, 19.94614
805.1019, 19.66525
805.5840, 19.51362
806.0661, 19.66172
806.5482, 19.83792
807.0303, 19.61701
807.5125, 19.06088
807.9946, 18.78356
808.4767, 18.82748
808.9588, 18.90848
809.4409, 18.93526
809.9230, 18.95867
810.4052, 19.06009
810.8873, 19.23786
811.3694, 19.29556
811.8515, 19.14436
812.3336, 18.99574
812.8157, 18.83754
813.2979, 18.74166
813.7800, 18.74114
814.2621, 18.85504
814.7442, 19.17636
815.2263, 19.80903
815.7084, 20.31299
816.1906, 20.09436
816.6727, 19.48918
817.1548, 19.16717
817.6369, 19.15844
818.1190, 19.32517
818.6011, 19.62932
819.0833, 19.83867
819.5654, 19.55406
820.0475, 18.74393
820.5296, 18.35311
821.0117, 18.55082
821.4938, 18.82345
821.9760, 19.27070
822.4581, 19.53616
822.9402, 19.08515
823.4223, 18.13719
823.9044, 17.74054
824.3865, 18.59240
824.8687, 19.26663
825.3508, 18.90287
825.8329, 18.34491
826.3150, 18.55055
826.7971, 19.29651
827.2792, 19.74096
827.7614, 19.51083
828.2435, 19.00478
828.7256, 18.58163
829.2077, 18.29030
829.6898, 18.41221
830.1719, 18.95098
830.6541, 19.38480
831.1362, 19.50968
831.6183, 19.49911
832.1004, 19.56878
832.5825, 19.51256
833.0646, 19.69892
833.5468, 19.35883
834.0289, 19.10499
834.5110, 19.01575
834.9931, 18.99504
835.4752, 18.94805
835.9573, 18.92472
836.4395, 19.08423
836.9216, 19.54393
837.4037, 19.92825
837.8858, 20.03172
838.3679, 19.96871
838.8500, 19.82356
839.3322, 19.61984
839.8143, 19.36804
840.2964, 19.07833
840.7785, 18.79988
841.2606, 18.55810
841.7427, 18.38551
842.2249, 18.44194
842.7070, 18.73484
843.1891, 19.09339
843.6712, 19.52770
844.1533, 19.83869
844.6354, 19.81837
845.1176, 19.53733
845.5997, 19.34421
846.0818, 19.42888
846.5639, 19.29687
847.0460, 18.67827
847.5281, 18.14100
848.0103, 17.99440
848.4924, 18.07899
848.9745, 18.14249
849.4566, 18.13544
849.9387, 18.17603
850.4208, 18.32902
850.9030, 18.55400
851.3851, 18.92090
851.8672, 19.29910
852.3493, 19.43919
852.8314, 19.30267
853.3135, 18.98471
853.7957, 18.51171
854.2778, 18.05319
854.7599, 18.07397
855.2420, 18.56137
855.7241, 18.88118
856.2062, 18.94770
856.6884, 18.92835
857.1705, 18.86810
857.6526, 18.84006
858.1347, 19.04453
858.6168, 19.65458
859.0989, 19.70109
859.5811, 18.36972
860.0632, 17.54135
860.5453, 18.13965
861.0274, 19.03971
861.5095, 19.16951
861.9916, 18.62967
862.4738, 18.25131
862.9559, 18.33894
863.4380, 18.62189
863.9201, 19.15602
864.4022, 19.63641
864.8843, 19.58552
865.3665, 19.12845
865.8486, 18.73932
866.3307, 18.62025
866.8128, 18.63708
867.2949, 18.68536
867.7770, 18.72964
868.2592, 18.56403
868.7413, 18.18462
869.2234, 17.88971
869.7055, 17.75616
870.1876, 17.76082
870.6697, 17.92262
871.1519, 18.19345
871.6340, 18.29100
872.1161, 18.05969
872.5981, 17.95370
873.0803, 18.11854
873.5624, 18.27588
874.0445, 18.30007
874.5266, 18.25098
875.0087, 18.19746
875.4908, 18.14419
875.9730, 18.16629
876.4551, 18.43032
876.9372, 18.62391
877.4193, 18.56106
877.9014, 18.30634
878.3835, 17.85626
878.8657, 17.29409
879.3478, 16.86824
879.8299, 16.72820
880.3120, 16.78512
880.7941, 17.02100
881.2762, 17.34384
881.7584, 17.36565
882.2405, 17.09567
882.7226, 17.08142
883.2047, 17.59990
883.6868, 18.20462
884.1689, 18.26606
884.6511, 17.80356
885.1332, 17.39901
885.6153, 16.96574
886.0974, 16.85569
886.5795, 17.39111
887.0616, 17.93904
887.5438, 17.93463
888.0259, 17.56973
888.5080, 17.45502
888.9901, 17.82525
889.4722, 17.91409
889.9543, 17.27149
890.4365, 16.69285
890.9186, 16.67108
891.4007, 16.93023
891.8828, 17.08694
892.3649, 17.08214
892.8470, 17.07467
893.3292, 17.15316
893.8113, 17.26859
894.2934, 17.39384
894.7755, 17.51455
895.2576, 17.65664
895.7397, 17.78033
896.2219, 17.66163
896.7040, 17.17366
897.1861, 16.66538
897.6682, 16.75966
898.1503, 17.35201
898.6324, 17.57554
899.1146, 17.40513
899.5967, 17.18133
900.0788, 16.98638
900.5609, 16.84312
901.0430, 16.77477
901.5251, 16.77706
902.0073, 16.83979
902.4894, 17.12083
902.9715, 17.13232
903.4536, 16.51774
903.9357, 16.01877
904.4178, 16.09506
904.9000, 16.41234
905.3821, 16.52550
905.8642, 16.39313
906.3463, 16.18414
906.8284, 15.86031
907.3105, 15.56344
907.7927, 15.28770
908.2748, 15.12549
908.7569, 15.21898
909.2390, 15.51437
909.7211, 15.85330
910.2032, 16.19299
910.6854, 16.38513
911.1675, 16.13214
911.6496, 15.73428
912.1317, 15.73394
912.6138, 16.04197
913.0959, 16.26502
913.5781, 16.28435
914.0602, 16.23866
914.5423, 16.26382
915.0244, 16.31124
915.5065, 16.18285
915.9886, 15.87581
916.4708, 15.79776
916.9529, 16.04675
917.4350, 16.26309
917.9171, 16.25286
918.3992, 16.08808
918.8813, 15.86962
919.3635, 15.56581
919.8456, 15.46052
920.3277, 15.86589
920.8098, 15.95554
921.2919, 15.01159
921.7740, 14.18537
922.2562, 14.55547
922.7383, 15.68703
923.2204, 16.23031
923.7025, 15.79078
924.1846, 15.37991
924.6667, 15.25633
925.1489, 15.22021
925.6310, 15.18246
926.1131, 15.14100
926.5952, 15.07314
927.0773, 14.99744
927.5594, 15.03647
928.0416, 15.34883
928.5237, 15.65080
929.0058, 15.75476
929.4879, 15.64218
929.9700, 15.07236
930.4521, 14.23939
930.9343, 13.87946
931.4164, 14.29102
931.8985, 14.95245
932.3806, 15.27684
932.8627, 15.35612
933.3448, 15.50087
933.8270, 15.69706
934.3091, 15.82013
934.7912, 15.85138
935.2733, 15.61523
935.7554, 14.91990
936.2375, 14.04284
936.7197, 13.67891
937.2018, 13.92252
937.6839, 14.15496
938.1660, 14.40848
938.6481, 14.56409
939.1302, 14.52213
939.6124, 14.44518
940.0945, 14.54133
940.5766, 14.46189
941.0587, 14.38699
941.5408, 14.46242
942.0229, 14.25300
942.5051, 14.35620
942.9872, 14.46437
943.4693, 14.32264
943.9514, 14.14985
944.4335, 14.34771
944.9156, 14.93877
945.3978, 15.27714
945.8799, 14.95752
946.3620, 14.55947
946.8441, 14.28232
947.3262, 14.14753
947.8083, 14.25427
948.2905, 14.50933
948.7726, 14.70288
949.2547, 14.75823
949.7368, 14.71301
950.2189, 14.53501
950.7010, 14.32216
951.1832, 14.15060
951.6653, 14.06320
952.1474, 14.25159
952.6295, 14.68045
953.1116, 14.92730
953.5938, 14.70234
954.0759, 14.28430
954.5580, 14.10598
955.0400, 14.14433
955.5222, 14.33246
956.0043, 14.66142
956.4864, 14.88715
956.9685, 14.93294
957.4506, 14.81466
957.9327, 14.50336
958.4149, 14.09480
958.8970, 14.06266
959.3791, 14.53524
959.8612, 14.69167
960.3433, 14.30358
960.8254, 14.08496
961.3076, 14.53510
961.7897, 15.10340
962.2718, 14.96157
962.7539, 14.08926
963.2360, 13.61199
963.7181, 13.69779
964.2003, 13.92663
964.6824, 14.61445
965.1645, 15.05828
965.6466, 14.53291
966.1287, 13.65561
966.6108, 13.58975
967.0930, 14.54026
967.5751, 15.18351
968.0572, 15.12431
968.5393, 14.85632
969.0214, 14.30228
969.5035, 13.84623
969.9857, 13.99645
970.4678, 14.51987
970.9499, 14.76076
971.4320, 14.49684
971.9141, 14.08037
972.3962, 13.47124
972.8784, 13.03556
973.3605, 13.29480
973.8426, 13.85240
974.3247, 14.08947
974.8068, 13.94428
975.2889, 13.66769
975.7711, 13.36462
976.2532, 13.15919
976.7353, 13.28244
977.2174, 13.55144
977.6995, 13.62611
978.1816, 13.53753
978.6638, 13.39686
979.1459, 13.26082
979.6280, 13.32876
980.1101, 13.79915
980.5922, 14.44687
981.0743, 14.86255
981.5565, 15.03950
982.0386, 14.81742
982.5207, 14.20428
983.0028, 13.86194
983.4849, 14.07495
983.9670, 14.35437
984.4492, 14.12806
984.9313, 14.21962
985.4134, 14.14148
985.8955, 13.79912
986.3776, 13.77560
986.8597, 13.08748
987.3419, 12.54480
987.8240, 12.55316
988.3061, 12.88660
988.7882, 13.26489
989.2703, 13.68585
989.7524, 13.98642
990.2346, 14.14969
990.7167, 14.23317
991.1988, 14.28965
991.6809, 14.19491
992.1630, 13.67417
992.6451, 13.06295
993.1273, 13.03979
993.6094, 13.71983
994.0915, 14.13790
994.5736, 14.18211
995.0557, 14.10334
995.5378, 13.69374
996.0200, 13.42255
996.5021, 13.90045
996.9842, 14.65413
997.4663, 14.60234
997.9484, 13.44492
998.4305, 12.68751
998.9127, 13.03289
999.3948, 13.44316
999.8769, 13.43377
1000.359, 13.32415
1000.841, 13.50685
1001.323, 13.84557
1001.805, 13.85760
1002.287, 13.34215
1002.770, 12.98768
1003.252, 13.25973
1003.734, 13.69845
1004.216, 14.14322
1004.698, 14.44382
1005.180, 14.35819
1005.662, 13.95546
1006.144, 13.50701
1006.627, 13.09824
1007.109, 12.89407
1007.591, 13.16506
1008.073, 13.60278
1008.555, 13.90340
1009.037, 14.06954
1009.519, 14.06327
1010.001, 13.94225
1010.483, 13.98842
1010.966, 14.39583
1011.448, 14.79249
1011.930, 14.66724
1012.412, 14.25272
1012.894, 13.95906
1013.376, 13.79152
1013.858, 13.68532
1014.340, 13.63360
1014.823, 13.73855
1015.305, 14.09711
1015.787, 14.50820
1016.269, 14.62257
1016.751, 14.50741
1017.233, 14.43894
1017.715, 14.40397
1018.197, 14.16205
1018.679, 13.65209
1019.162, 13.18170
1019.644, 13.00501
1020.126, 13.02221
1020.608, 12.97501
1021.090, 12.88421
1021.572, 13.14673
1022.054, 13.79599
1022.536, 14.01201
1023.018, 13.47173
1023.501, 12.99984
1023.983, 13.40212
1024.465, 14.30997
1024.947, 14.49918
1025.429, 13.88741
1025.911, 13.52510
1026.393, 13.46452
1026.875, 13.60812
1027.358, 14.01214
1027.840, 14.31360
1028.322, 14.12280
1028.804, 13.56941
1029.286, 13.16244
1029.768, 12.86172
1030.250, 12.92478
1030.732, 13.56009
1031.214, 13.98404
1031.697, 13.83794
1032.179, 13.51845
1032.661, 13.41055
1033.143, 13.47575
1033.625, 13.52545
1034.107, 13.59374
1034.589, 13.55076
1035.071, 13.29691
1035.553, 13.11925
1036.036, 13.22476
1036.518, 13.32101
1037.000, 12.97350
1037.482, 13.23393
1037.964, 13.45706
1038.446, 13.37277
1038.928, 13.60673
1039.410, 13.58892
1039.893, 13.75527
1040.375, 13.61369
1040.857, 13.51745
1041.339, 13.54895
1041.821, 13.65501
1042.303, 13.52476
1042.785, 12.81183
1043.267, 12.52771
1043.750, 13.23976
1044.232, 13.73074
1044.714, 13.31784
1045.196, 12.68738
1045.678, 12.51822
1046.160, 12.73762
1046.642, 12.88864
1047.124, 12.87345
1047.606, 12.91456
1048.089, 13.17533
1048.571, 13.33194
1049.053, 13.27935
1049.535, 13.04377
1050.017, 12.42209
1050.499, 11.62538
1050.981, 11.46998
1051.463, 12.37066
1051.945, 13.13944
1052.428, 13.63519
1052.910, 13.81762
1053.392, 13.40957
1053.874, 12.88296
1054.356, 12.83627
1054.838, 13.08860
1055.320, 12.81799
1055.802, 11.54110
1056.285, 10.85246
1056.767, 11.68497
1057.249, 12.62791
1057.731, 13.16752
1058.213, 13.34822
1058.695, 13.08139
1059.177, 12.54230
1059.659, 12.15803
1060.141, 12.00042
1060.624, 12.12880
1061.106, 12.98079
1061.588, 13.61869
1062.070, 13.43992
1062.552, 12.91747
1063.034, 12.34975
1063.516, 11.89035
1063.998, 11.83417
1064.480, 12.31132
1064.963, 12.70507
1065.445, 12.70546
1065.927, 12.64155
1066.409, 12.72663
1066.891, 12.79526
1067.373, 12.60488
1067.855, 12.27836
1068.337, 12.11604
1068.820, 12.19157
1069.302, 12.39402
1069.784, 12.81018
1070.266, 13.17497
1070.748, 13.47098
1071.230, 13.54854
1071.712, 13.04338
1072.194, 12.28725
1072.677, 11.98341
1073.159, 12.27949
1073.641, 12.64690
1074.123, 13.09242
1074.605, 13.25118
1075.087, 12.65460
1075.569, 11.95094
1076.051, 11.70068
1076.533, 11.77030
1077.016, 11.85613
1077.498, 11.89383
1077.980, 11.92791
1078.462, 12.04449
1078.944, 12.06375
1079.426, 11.70385
1079.908, 11.40159
1080.390, 11.51415
1080.872, 11.92640
1081.354, 12.68955
1081.837, 13.63453
1082.319, 13.71674
1082.801, 11.87788
1083.283, 10.41438
1083.765, 10.77348
1084.247, 11.50815
1084.729, 11.60102
1085.211, 11.38327
1085.694, 11.37178
1086.176, 11.60186
1086.658, 11.85118
1087.140, 12.09830
1087.622, 12.21055
1088.104, 12.00051
1088.586, 11.78679
1089.068, 11.86140
1089.551, 11.98105
1090.033, 11.73154
1090.515, 11.25488
1090.997, 11.17145
1091.479, 11.75543
1091.961, 12.23437
1092.443, 12.32124
1092.925, 12.22560
1093.407, 11.89068
1093.890, 11.55985
1094.372, 11.50602
1094.854, 11.63933
1095.336, 11.71446
1095.818, 11.68578
1096.300, 11.55348
1096.782, 11.08785
1097.264, 10.82224
1097.746, 11.24726
1098.229, 11.68555
1098.711, 11.43488
1099.193, 10.86820
1099.675, 10.77562
1100.157, 11.26737
1100.639, 11.61724
1101.121, 11.46109
1101.603, 11.40437
1102.086, 11.82222
1102.568, 12.16130
1103.050, 11.98601
1103.532, 11.57166
1104.014, 11.28509
1104.496, 11.15402
1104.978, 11.09909
1105.460, 11.06874
1105.943, 11.18036
1106.425, 11.80147
1106.907, 12.14788
1107.389, 11.48755
1107.871, 10.66602
1108.353, 10.69737
1108.835, 11.40033
1109.317, 11.76271
1109.799, 11.50254
1110.281, 11.41756
1110.764, 11.88484
1111.246, 12.10707
1111.728, 11.60384
1112.210, 11.00431
1112.692, 10.79925
1113.174, 10.87832
1113.656, 10.94321
1114.138, 10.96417
1114.621, 11.10667
1115.103, 11.45305
1115.585, 11.79702
1116.067, 12.34202
1116.549, 12.54735
1117.031, 11.79366
1117.513, 10.74907
1117.995, 10.57904
1118.478, 11.29840
1118.960, 11.56744
1119.442, 11.14339
1119.924, 10.83226
1120.406, 10.66830
1120.888, 10.71308
1121.370, 11.12246
1121.852, 11.54135
1122.334, 11.50888
1122.817, 11.70316
1123.299, 11.77585
1123.781, 11.57464
1124.263, 11.69975
1124.745, 11.36209
1125.227, 11.04765
1125.709, 10.87332
1126.191, 10.87904
1126.673, 11.14396
1127.156, 11.53101
1127.638, 11.70590
1128.120, 11.66259
1128.602, 11.54821
1129.084, 11.34899
1129.566, 11.22901
1130.048, 11.22414
1130.530, 11.27999
1131.013, 11.36997
1131.495, 11.48981
1131.977, 11.68593
1132.459, 11.87647
1132.941, 11.48117
1133.423, 10.57849
1133.905, 10.43555
1134.387, 11.14909
1134.870, 11.65544
1135.352, 11.53521
1135.834, 11.16318
1136.316, 10.84777
1136.798, 10.65890
1137.280, 10.82366
1137.762, 11.23155
1138.244, 11.50983
1138.726, 11.65038
1139.208, 11.76554
1139.691, 11.85871
1140.173, 11.66269
1140.655, 10.96136
1141.137, 10.34067
1141.619, 10.87378
1142.101, 11.76948
1142.583, 11.52420
1143.065, 10.54806
1143.548, 9.545808
1144.030, 8.800104
1144.512, 8.871453
1144.994, 9.934821
1145.476, 11.02158
1145.958, 11.45313
1146.440, 11.42579
1146.922, 10.85701
1147.405, 10.16125
1147.887, 9.807425
1148.369, 9.774943
1148.851, 10.03325
1149.333, 10.49030
1149.815, 10.72919
1150.297, 10.43126
1150.779, 10.21625
1151.261, 10.53435
1151.744, 10.97318
1152.226, 11.39629
1152.708, 11.64681
1153.190, 11.41125
1153.672, 10.87229
1154.154, 10.62401
1154.636, 10.84209
1155.118, 11.03202
1155.600, 10.88501
1156.083, 10.91018
1156.565, 11.71013
1157.047, 12.30639
1157.529, 11.66678
1158.011, 10.54815
1158.493, 10.24776
1158.975, 10.81400
1159.457, 11.22415
1159.940, 11.45711
1160.422, 11.46111
1160.904, 10.98880
1161.386, 10.65143
1161.868, 10.75949
1162.350, 10.95992
1162.832, 10.89793
1163.314, 10.69327
1163.796, 10.73363
1164.279, 11.07410
1164.761, 11.38749
1165.243, 11.76491
1165.725, 11.72101
1166.207, 10.98914
1166.689, 10.46451
1167.171, 10.75012
1167.653, 11.22923
1168.135, 10.93467
1168.618, 11.30684
1169.100, 11.43791
1169.582, 11.26702
1170.064, 11.51462
1170.546, 10.83277
1171.028, 10.21892
1171.510, 10.00498
1171.992, 10.19349
1172.474, 10.86534
1172.957, 11.53361
1173.439, 11.12408
1173.921, 10.09807
1174.403, 9.866457
1174.885, 10.23275
1175.367, 10.47289
1175.849, 10.48874
1176.331, 10.47635
1176.814, 10.52744
1177.296, 10.72244
1177.778, 11.35983
1178.260, 11.87076
1178.742, 11.27271
1179.224, 10.37892
1179.706, 10.39371
1180.188, 10.97056
1180.671, 11.26967
1181.153, 11.15088
1181.635, 10.92012
1182.117, 10.64649
1182.599, 10.50366
1183.081, 10.73334
1183.563, 10.94809
1184.045, 10.93454
1184.527, 10.76407
1185.010, 10.35327
1185.492, 9.898147
1185.974, 9.843588
1186.456, 10.27055
1186.938, 10.68306
1187.420, 11.04290
1187.902, 11.31966
1188.384, 11.55108
1188.866, 11.63949
1189.349, 11.42000
1189.831, 11.15967
1190.313, 11.16502
1190.795, 11.35662
1191.277, 11.42699
1191.759, 11.38137
1192.241, 11.14614
1192.723, 10.58927
1193.206, 10.36321
1193.688, 10.70881
1194.170, 10.94232
1194.652, 10.60474
1195.134, 10.18628
1195.616, 10.43115
1196.098, 11.13227
1196.580, 11.35182
1197.063, 11.15264
1197.545, 11.28863
1198.027, 11.74620
1198.509, 11.71990
1198.991, 11.03696
1199.473, 10.62787
1199.955, 11.17721
1200.437, 11.94000
1200.919, 11.81484
1201.401, 11.33917
1201.884, 11.49994
1202.366, 12.00370
1202.848, 12.32976
1203.330, 12.41187
1203.812, 12.29973
1204.294, 12.01742
1204.776, 11.60045
1205.258, 10.88320
1205.741, 10.40857
1206.223, 10.84199
1206.705, 11.31453
1207.187, 10.97732
1207.669, 10.41841
1208.151, 10.49378
1208.633, 11.02295
1209.115, 11.13511
1209.598, 10.55619
1210.080, 10.32549
1210.562, 10.94973
1211.044, 11.41412
1211.526, 11.45222
1212.008, 11.37072
1212.490, 11.28757
1212.972, 11.17414
1213.454, 10.96619
1213.937, 10.70583
1214.419, 10.62141
1214.901, 10.77953
1215.383, 10.72066
1215.865, 10.35742
1216.347, 10.35981
1216.829, 10.92377
1217.311, 11.49337
1217.793, 11.76523
1218.276, 11.70049
1218.758, 11.10816
1219.240, 10.32507
1219.722, 10.40407
1220.204, 11.10669
1220.686, 11.70233
1221.168, 12.08584
1221.650, 12.08562
1222.133, 11.71788
1222.615, 11.27200
1223.097, 10.88484
1223.579, 10.70122
1224.061, 11.17778
1224.543, 11.57448
1225.025, 10.82086
1225.507, 9.853155
1225.990, 9.853106
1226.472, 10.50991
1226.954, 11.10717
1227.436, 11.48507
1227.918, 11.60591
1228.400, 11.27670
1228.882, 11.07525
1229.364, 11.29804
1229.846, 11.45893
1230.328, 11.36667
1230.811, 11.14258
1231.293, 10.85098
1231.775, 10.51278
1232.257, 10.13433
1232.739, 9.717632
1233.221, 9.542630
1233.703, 9.602243
1234.185, 10.00400
1234.668, 10.85198
1235.150, 11.50379
1235.632, 11.75792
1236.114, 11.64682
1236.596, 11.13410
1237.078, 10.59116
1237.560, 10.79267
1238.042, 11.44156
1238.525, 11.52330
1239.007, 11.20840
1239.489, 10.97503
1239.971, 10.89780
1240.453, 11.06520
1240.935, 11.44174
1241.417, 11.56479
1241.899, 11.02389
1242.381, 10.58544
1242.864, 10.96391
1243.346, 11.58256
1243.828, 12.24210
1244.310, 12.64502
1244.792, 12.21345
1245.274, 11.37014
1245.756, 11.11345
1246.238, 11.58475
1246.720, 11.92018
1247.203, 12.01145
1247.685, 11.90495
1248.167, 11.33870
1248.649, 11.00152
1249.131, 11.22777
1249.613, 11.54793
1250.095, 11.62974
1250.577, 11.53459
1251.059, 11.35339
1251.542, 11.10490
1252.024, 11.03115
1252.506, 11.13081
1252.988, 11.25742
1253.470, 11.39036
1253.952, 11.38914
1254.434, 11.22628
1254.916, 11.19513
1255.399, 11.52505
1255.881, 11.86241
1256.363, 11.59454
1256.845, 11.99357
1257.327, 11.56766
1257.809, 12.17979
1258.291, 12.26664
1258.773, 11.95638
1259.255, 11.65617
1259.738, 11.47445
1260.220, 11.45552
1260.702, 11.76008
1261.184, 11.82333
1261.666, 11.17922
1262.148, 10.64232
1262.630, 10.54131
1263.112, 10.65796
1263.594, 11.01437
1264.077, 11.33910
1264.559, 11.14658
1265.041, 11.24626
1265.523, 11.21267
1266.005, 10.89781
1266.487, 11.01315
1266.969, 10.67362
1267.451, 10.45751
1267.934, 10.50275
1268.416, 10.62802
1268.898, 10.73439
1269.380, 10.83044
1269.862, 10.90172
1270.344, 11.01149
1270.826, 11.35178
1271.308, 11.76999
1271.791, 12.04076
1272.273, 12.12563
1272.755, 11.91790
1273.237, 11.48653
1273.719, 11.08490
1274.201, 10.78985
1274.683, 10.65960
1275.165, 10.88303
1275.647, 11.03909
1276.130, 10.77486
1276.612, 10.62683
1277.094, 11.16097
1277.576, 11.75058
1278.058, 11.61387
1278.540, 11.05494
1279.022, 10.95528
1279.504, 11.36991
1279.986, 11.41623
1280.469, 11.00807
1280.951, 10.89905
1281.433, 11.20924
1281.915, 11.17624
1282.397, 10.51882
1282.879, 10.16455
1283.361, 10.90594
1283.843, 11.90969
1284.326, 12.18790
1284.808, 11.73714
##END=



