##NAMES=Chiavennite
##RRUFFID=R070349
##IDEAL CHEMISTRY=CaMn^2+^(BeOH)_2_Si_5_O_13_&#183;2H_2_O
##LOCALITY=Tvedalen, Larvik, Vestfold, Norway
##OWNER=RRUFF
##SOURCE=Michael Scott
##DESCRIPTION=Aggregate of pale yellow to orange thin spearhead-shaped blades associated with orthoclase and intimately with analcime
##STATUS=The identification of this mineral is confirmed by single-crystal X-ray diffraction and chemical analysis.
##URL=rruff.info/R070349
##MEASURED CHEMISTRY=(Ca_0.91_Na_0.09_)_Σ=1_(Mn^2+^_0.80_Fe^2+^_0.20_)_Σ=1_((Be_0.94_Al_0.06_)_Σ=1_OH)_2_(Si_4.61_Al_0.39_)_Σ=5_(O_12.76_(OH)_0.24_)_Σ=13_·2H_2_O ; light phase: Be by charge balance; dark: (Na_0.99_Mn_0.01_)_Σ=1_(Si_1.99_Al_2.01_)_Σ=3_O_6_·H_2_O is an
164.8920, 1275.395
165.3741, 1276.985
165.8563, 1281.135
166.3384, 1293.914
166.8205, 1310.259
167.3026, 1320.995
167.7847, 1317.438
168.2668, 1307.532
168.7490, 1310.516
169.2311, 1332.966
169.7132, 1353.434
170.1953, 1358.945
170.6774, 1355.509
171.1595, 1351.991
171.6417, 1352.306
172.1238, 1355.179
172.6059, 1357.437
173.0880, 1358.755
173.5701, 1360.099
174.0522, 1362.525
174.5344, 1365.160
175.0165, 1366.689
175.4986, 1366.471
175.9807, 1364.755
176.4628, 1360.909
176.9449, 1349.889
177.4271, 1346.745
177.9092, 1363.982
178.3913, 1389.721
178.8734, 1407.001
179.3555, 1405.284
179.8376, 1392.060
180.3197, 1390.743
180.8019, 1410.645
181.2840, 1426.027
181.7661, 1427.060
182.2482, 1420.222
182.7303, 1412.355
183.2124, 1405.586
183.6946, 1401.777
184.1767, 1407.952
184.6588, 1433.590
185.1409, 1452.380
185.6230, 1454.651
186.1051, 1448.383
186.5873, 1442.258
187.0694, 1440.100
187.5515, 1440.946
188.0336, 1441.813
188.5157, 1439.955
188.9978, 1443.428
189.4800, 1460.901
189.9621, 1480.804
190.4442, 1489.335
190.9263, 1479.446
191.4084, 1460.409
191.8905, 1455.578
192.3727, 1475.008
192.8548, 1491.253
193.3369, 1497.513
193.8190, 1499.932
194.3011, 1504.934
194.7832, 1515.120
195.2654, 1527.223
195.7475, 1533.629
196.2296, 1529.904
196.7117, 1528.800
197.1938, 1533.848
197.6759, 1540.751
198.1581, 1545.649
198.6402, 1547.275
199.1223, 1547.349
199.6044, 1549.648
200.0865, 1557.876
200.5686, 1560.541
201.0508, 1550.494
201.5329, 1539.305
202.0150, 1537.891
202.4971, 1548.627
202.9792, 1562.843
203.4613, 1564.943
203.9435, 1544.575
204.4256, 1535.736
204.9077, 1548.237
205.3898, 1565.134
205.8719, 1576.664
206.3540, 1580.203
206.8362, 1577.329
207.3183, 1567.971
207.8004, 1545.243
208.2825, 1534.377
208.7646, 1547.364
209.2467, 1561.588
209.7289, 1560.812
210.2110, 1545.086
210.6931, 1528.685
211.1752, 1530.247
211.6573, 1557.566
212.1395, 1574.032
212.6216, 1573.914
213.1037, 1568.697
213.5858, 1560.386
214.0679, 1551.166
214.5500, 1545.271
215.0322, 1548.168
215.5143, 1562.067
215.9964, 1569.914
216.4785, 1567.961
216.9606, 1563.575
217.4427, 1556.517
217.9249, 1548.911
218.4070, 1545.415
218.8891, 1551.206
219.3712, 1566.734
219.8533, 1575.100
220.3354, 1567.295
220.8176, 1560.747
221.2997, 1560.381
221.7818, 1564.918
222.2639, 1570.945
222.7460, 1576.006
223.2281, 1580.400
223.7103, 1586.999
224.1924, 1603.807
224.6745, 1613.742
225.1566, 1606.542
225.6387, 1591.594
226.1208, 1583.484
226.6030, 1591.331
227.0851, 1610.693
227.5672, 1622.694
228.0493, 1620.434
228.5314, 1619.763
229.0135, 1625.925
229.4957, 1634.095
229.9778, 1637.810
230.4599, 1633.979
230.9420, 1626.580
231.4241, 1625.876
231.9062, 1637.172
232.3884, 1646.259
232.8705, 1649.940
233.3526, 1651.699
233.8347, 1654.644
234.3168, 1659.772
234.7989, 1665.881
235.2811, 1671.271
235.7632, 1676.997
236.2453, 1679.283
236.7274, 1673.255
237.2095, 1667.280
237.6916, 1667.211
238.1738, 1674.020
238.6559, 1684.274
239.1380, 1695.418
239.6201, 1709.798
240.1022, 1716.104
240.5843, 1706.445
241.0665, 1694.772
241.5486, 1687.034
242.0307, 1683.699
242.5128, 1682.406
242.9949, 1681.077
243.4770, 1679.662
243.9592, 1678.717
244.4413, 1675.604
244.9234, 1675.745
245.4055, 1683.353
245.8876, 1696.173
246.3697, 1708.615
246.8519, 1717.736
247.3340, 1723.292
247.8161, 1722.314
248.2982, 1709.928
248.7803, 1697.118
249.2624, 1684.176
249.7446, 1673.890
250.2267, 1671.913
250.7088, 1684.151
251.1909, 1703.469
251.6730, 1707.900
252.1551, 1689.233
252.6373, 1672.124
253.1194, 1661.942
253.6015, 1658.188
254.0836, 1661.630
254.5657, 1673.383
255.0478, 1689.179
255.5300, 1703.902
256.0121, 1719.021
256.4942, 1727.167
256.9763, 1721.643
257.4584, 1710.772
257.9406, 1697.656
258.4227, 1682.669
258.9048, 1672.479
259.3869, 1678.237
259.8690, 1701.004
260.3511, 1714.726
260.8333, 1707.378
261.3154, 1695.506
261.7975, 1691.024
262.2796, 1694.151
262.7617, 1698.579
263.2438, 1702.934
263.7260, 1705.923
264.2081, 1698.289
264.6902, 1671.721
265.1723, 1645.776
265.6544, 1634.772
266.1365, 1635.814
266.6187, 1640.181
267.1008, 1646.772
267.5829, 1653.366
268.0650, 1654.450
268.5471, 1648.500
269.0292, 1641.629
269.5114, 1637.255
269.9935, 1634.909
270.4756, 1634.267
270.9577, 1636.430
271.4398, 1639.299
271.9219, 1640.498
272.4041, 1639.992
272.8862, 1639.099
273.3683, 1638.739
273.8504, 1638.198
274.3325, 1635.787
274.8146, 1629.318
275.2968, 1624.821
275.7789, 1629.140
276.2610, 1639.677
276.7431, 1645.225
277.2252, 1640.392
277.7073, 1630.686
278.1895, 1625.002
278.6716, 1623.475
279.1537, 1623.867
279.6358, 1626.490
280.1179, 1630.285
280.6000, 1634.014
281.0822, 1637.694
281.5643, 1639.471
282.0464, 1635.127
282.5285, 1623.671
283.0106, 1619.098
283.4927, 1627.256
283.9749, 1640.266
284.4570, 1653.693
284.9391, 1666.374
285.4212, 1673.271
285.9033, 1668.278
286.3854, 1651.776
286.8676, 1644.132
287.3497, 1653.738
287.8318, 1663.194
288.3139, 1662.398
288.7960, 1654.420
289.2781, 1648.199
289.7603, 1648.759
290.2424, 1654.675
290.7245, 1660.070
291.2066, 1664.861
291.6887, 1669.289
292.1708, 1676.089
292.6530, 1681.582
293.1351, 1678.502
293.6172, 1664.583
294.0993, 1648.699
294.5814, 1647.177
295.0635, 1671.700
295.5457, 1689.011
296.0278, 1696.222
296.5099, 1698.834
296.9920, 1700.153
297.4741, 1700.812
297.9562, 1699.862
298.4384, 1695.791
298.9205, 1687.645
299.4026, 1683.082
299.8847, 1682.739
300.3668, 1685.200
300.8489, 1692.511
301.3311, 1702.272
301.8131, 1709.782
302.2953, 1711.733
302.7774, 1709.192
303.2595, 1707.466
303.7416, 1705.788
304.2237, 1706.302
304.7058, 1711.248
305.1880, 1717.566
305.6701, 1722.250
306.1522, 1724.210
306.6343, 1723.814
307.1164, 1720.666
307.5985, 1713.192
308.0807, 1708.898
308.5628, 1712.649
309.0449, 1717.585
309.5270, 1718.501
310.0091, 1715.418
310.4912, 1714.109
310.9734, 1722.159
311.4555, 1738.270
311.9376, 1747.160
312.4197, 1742.990
312.9018, 1738.283
313.3839, 1741.517
313.8661, 1750.402
314.3482, 1759.091
314.8303, 1766.563
315.3124, 1771.534
315.7945, 1770.349
316.2766, 1761.835
316.7588, 1753.989
317.2409, 1750.460
317.7230, 1750.740
318.2051, 1754.376
318.6872, 1763.082
319.1693, 1772.017
319.6515, 1778.170
320.1336, 1781.615
320.6157, 1781.998
321.0978, 1777.520
321.5799, 1772.555
322.0620, 1776.002
322.5442, 1789.815
323.0263, 1798.510
323.5084, 1793.564
323.9905, 1782.852
324.4726, 1776.400
324.9547, 1775.870
325.4369, 1777.679
325.9190, 1778.084
326.4011, 1776.847
326.8832, 1779.858
327.3653, 1789.856
327.8474, 1801.410
328.3296, 1814.550
328.8117, 1827.116
329.2938, 1832.934
329.7759, 1827.672
330.2580, 1814.204
330.7401, 1805.726
331.2223, 1808.469
331.7044, 1808.453
332.1865, 1798.946
332.6686, 1788.386
333.1507, 1788.371
333.6328, 1801.625
334.1150, 1817.761
334.5971, 1819.826
335.0792, 1798.180
335.5613, 1788.827
336.0434, 1802.414
336.5255, 1817.354
337.0077, 1821.183
337.4898, 1815.916
337.9719, 1812.079
338.4540, 1819.559
338.9361, 1836.162
339.4182, 1841.026
339.9004, 1822.635
340.3825, 1809.447
340.8646, 1812.794
341.3467, 1824.374
341.8288, 1834.826
342.3109, 1841.297
342.7931, 1842.532
343.2752, 1832.987
343.7573, 1809.841
344.2394, 1796.216
344.7215, 1803.226
345.2036, 1817.757
345.6858, 1830.721
346.1679, 1841.519
346.6500, 1850.120
347.1321, 1856.074
347.6142, 1859.824
348.0963, 1862.164
348.5785, 1862.578
349.0606, 1863.485
349.5427, 1869.172
350.0248, 1877.188
350.5069, 1879.701
350.9890, 1866.733
351.4712, 1854.590
351.9533, 1861.117
352.4354, 1882.317
352.9175, 1896.347
353.3996, 1891.250
353.8817, 1874.586
354.3639, 1866.180
354.8460, 1868.568
355.3281, 1871.725
355.8102, 1874.594
356.2923, 1876.564
356.7744, 1875.903
357.2566, 1872.504
357.7387, 1869.824
358.2208, 1872.440
358.7029, 1882.427
359.1850, 1885.728
359.6671, 1873.952
360.1493, 1864.799
360.6314, 1869.681
361.1135, 1883.286
361.5956, 1892.849
362.0777, 1890.460
362.5598, 1879.942
363.0420, 1875.638
363.5241, 1883.889
364.0062, 1888.190
364.4883, 1881.457
364.9704, 1873.595
365.4525, 1874.613
365.9347, 1885.896
366.4168, 1898.521
366.8989, 1902.923
367.3810, 1898.862
367.8631, 1890.466
368.3452, 1872.461
368.8274, 1856.634
369.3095, 1847.817
369.7916, 1845.464
370.2737, 1848.724
370.7558, 1862.014
371.2379, 1876.734
371.7201, 1873.946
372.2022, 1850.992
372.6843, 1836.810
373.1664, 1850.584
373.6485, 1876.068
374.1306, 1887.996
374.6128, 1882.807
375.0949, 1874.242
375.5770, 1868.708
376.0591, 1864.942
376.5412, 1859.753
377.0233, 1852.144
377.5055, 1846.002
377.9876, 1846.610
378.4697, 1854.926
378.9518, 1857.415
379.4339, 1845.799
379.9160, 1835.615
380.3982, 1839.511
380.8803, 1852.901
381.3624, 1860.926
381.8445, 1854.688
382.3266, 1840.624
382.8087, 1838.414
383.2909, 1864.807
383.7730, 1881.335
384.2551, 1880.644
384.7372, 1874.161
385.2193, 1870.096
385.7014, 1870.319
386.1836, 1873.490
386.6657, 1880.047
387.1478, 1890.679
387.6299, 1890.444
388.1120, 1865.415
388.5941, 1845.484
389.0763, 1841.958
389.5584, 1849.321
390.0405, 1859.959
390.5226, 1872.267
391.0047, 1881.791
391.4868, 1877.684
391.9690, 1857.524
392.4511, 1847.615
392.9332, 1862.280
393.4153, 1883.475
393.8974, 1892.652
394.3795, 1889.761
394.8617, 1888.861
395.3438, 1905.182
395.8259, 1925.055
396.3080, 1919.276
396.7901, 1883.620
397.2722, 1854.125
397.7544, 1859.220
398.2365, 1892.229
398.7186, 1913.068
399.2007, 1912.369
399.6828, 1910.135
400.1649, 1915.855
400.6471, 1924.692
401.1292, 1927.303
401.6113, 1920.581
402.0934, 1911.562
402.5755, 1911.519
403.0576, 1926.931
403.5398, 1931.071
404.0219, 1913.677
404.5040, 1896.197
404.9861, 1891.871
405.4682, 1896.829
405.9503, 1898.704
406.4325, 1888.822
406.9146, 1871.995
407.3967, 1865.781
407.8788, 1874.469
408.3609, 1885.277
408.8430, 1896.727
409.3252, 1908.524
409.8073, 1922.966
410.2894, 1939.610
410.7715, 1950.322
411.2536, 1943.237
411.7357, 1922.687
412.2179, 1911.858
412.7000, 1914.789
413.1821, 1921.391
413.6642, 1926.991
414.1463, 1931.170
414.6284, 1932.321
415.1106, 1927.526
415.5927, 1922.849
416.0748, 1921.703
416.5569, 1924.156
417.0390, 1932.185
417.5211, 1947.912
418.0033, 1963.913
418.4854, 1967.836
418.9675, 1953.938
419.4496, 1947.563
419.9317, 1955.086
420.4138, 1965.875
420.8960, 1973.617
421.3781, 1978.252
421.8602, 1982.554
422.3423, 1988.732
422.8244, 1995.106
423.3065, 1993.791
423.7887, 1974.043
424.2708, 1963.621
424.7529, 1971.961
425.2350, 1985.425
425.7171, 1994.832
426.1992, 1997.986
426.6814, 1995.317
427.1635, 1982.889
427.6456, 1962.252
428.1277, 1953.902
428.6098, 1961.864
429.0919, 1974.579
429.5741, 1992.242
430.0562, 2009.173
430.5383, 2014.879
431.0204, 2002.100
431.5025, 1988.050
431.9846, 1990.721
432.4668, 2004.606
432.9489, 2007.757
433.4310, 1991.864
433.9131, 1973.160
434.3952, 1971.959
434.8773, 1990.381
435.3595, 2005.151
435.8416, 2016.137
436.3237, 2022.149
436.8058, 2017.562
437.2879, 2007.345
437.7701, 2004.224
438.2522, 2015.118
438.7343, 2034.416
439.2164, 2048.314
439.6985, 2058.208
440.1806, 2059.394
440.6628, 2045.260
441.1449, 2028.981
441.6270, 2014.020
442.1091, 2003.921
442.5912, 2006.806
443.0733, 2033.589
443.5555, 2076.291
444.0376, 2103.084
444.5197, 2109.385
445.0018, 2112.618
445.4839, 2118.781
445.9660, 2125.420
446.4482, 2129.064
446.9303, 2128.562
447.4124, 2130.809
447.8945, 2143.976
448.3766, 2162.128
448.8587, 2172.462
449.3409, 2173.065
449.8230, 2169.044
450.3051, 2161.374
450.7872, 2151.806
451.2693, 2154.896
451.7514, 2183.274
452.2336, 2208.581
452.7157, 2217.806
453.1978, 2219.682
453.6799, 2227.349
454.1620, 2244.294
454.6441, 2263.031
455.1263, 2273.764
455.6084, 2275.152
456.0905, 2276.085
456.5726, 2275.645
457.0547, 2275.688
457.5368, 2273.855
458.0190, 2273.603
458.5011, 2282.500
458.9832, 2305.634
459.4653, 2329.808
459.9474, 2333.542
460.4295, 2316.466
460.9117, 2303.574
461.3938, 2301.523
461.8759, 2302.371
462.3580, 2299.659
462.8401, 2293.779
463.3222, 2286.265
463.8044, 2277.787
464.2865, 2267.609
464.7686, 2253.520
465.2507, 2236.798
465.7328, 2223.146
466.2149, 2215.739
466.6971, 2210.135
467.1792, 2197.106
467.6613, 2167.358
468.1434, 2150.397
468.6255, 2157.505
469.1076, 2167.327
469.5898, 2166.426
470.0719, 2156.429
470.5540, 2145.807
471.0361, 2139.935
471.5182, 2136.875
472.0003, 2130.792
472.4825, 2120.990
472.9646, 2110.148
473.4467, 2097.326
473.9288, 2084.753
474.4109, 2071.534
474.8930, 2058.737
475.3752, 2053.173
475.8573, 2066.167
476.3394, 2085.937
476.8215, 2091.545
477.3036, 2082.405
477.7857, 2069.183
478.2679, 2055.000
478.7500, 2041.895
479.2321, 2035.945
479.7142, 2041.721
480.1963, 2042.314
480.6784, 2030.784
481.1606, 2015.208
481.6427, 2001.886
482.1248, 1991.750
482.6069, 1984.418
483.0890, 1980.203
483.5711, 1977.810
484.0533, 1969.085
484.5354, 1944.454
485.0175, 1929.579
485.4996, 1935.776
485.9817, 1946.488
486.4638, 1948.788
486.9460, 1941.345
487.4281, 1930.793
487.9102, 1920.161
488.3923, 1910.492
488.8744, 1906.499
489.3565, 1909.638
489.8387, 1909.822
490.3208, 1898.745
490.8029, 1883.235
491.2850, 1878.143
491.7671, 1887.740
492.2492, 1895.174
492.7314, 1897.321
493.2135, 1892.899
493.6956, 1874.607
494.1777, 1845.079
494.6598, 1822.855
495.1419, 1823.255
495.6241, 1842.324
496.1062, 1854.519
496.5883, 1857.392
497.0704, 1856.122
497.5525, 1849.497
498.0346, 1840.369
498.5168, 1828.357
498.9989, 1815.044
499.4810, 1807.163
499.9631, 1814.213
500.4452, 1830.992
500.9273, 1836.384
501.4095, 1827.623
501.8916, 1819.122
502.3737, 1817.268
502.8558, 1819.269
503.3379, 1820.865
503.8200, 1822.212
504.3022, 1822.150
504.7843, 1819.311
505.2664, 1815.363
505.7485, 1810.649
506.2306, 1806.048
506.7127, 1806.092
507.1949, 1814.455
507.6770, 1828.962
508.1591, 1840.097
508.6412, 1847.816
509.1233, 1851.889
509.6054, 1850.855
510.0876, 1847.512
510.5697, 1841.989
511.0518, 1835.652
511.5339, 1832.654
512.0161, 1837.896
512.4982, 1847.392
512.9803, 1849.186
513.4624, 1841.764
513.9445, 1836.136
514.4266, 1839.461
514.9088, 1843.402
515.3909, 1834.857
515.8730, 1812.353
516.3551, 1796.507
516.8372, 1798.422
517.3193, 1806.065
517.8015, 1810.374
518.2836, 1810.425
518.7657, 1805.277
519.2478, 1793.798
519.7299, 1779.739
520.2120, 1772.423
520.6942, 1777.339
521.1763, 1778.515
521.6584, 1771.254
522.1405, 1765.070
522.6226, 1765.890
523.1047, 1772.041
523.5869, 1778.565
524.0690, 1783.177
524.5511, 1786.207
525.0332, 1787.289
525.5153, 1786.446
525.9974, 1788.720
526.4796, 1798.541
526.9617, 1806.541
527.4438, 1798.419
527.9259, 1776.618
528.4080, 1763.666
528.8901, 1769.411
529.3723, 1778.202
529.8544, 1781.456
530.3365, 1780.939
530.8186, 1781.484
531.3007, 1784.615
531.7828, 1785.797
532.2650, 1777.238
532.7471, 1755.727
533.2292, 1744.366
533.7113, 1749.989
534.1934, 1758.427
534.6755, 1767.811
535.1577, 1776.461
535.6398, 1782.022
536.1219, 1783.615
536.6040, 1784.252
537.0861, 1786.454
537.5682, 1789.939
538.0504, 1795.605
538.5325, 1804.575
539.0146, 1806.982
539.4967, 1791.497
539.9788, 1763.895
540.4609, 1753.156
540.9431, 1772.814
541.4252, 1788.646
541.9073, 1790.457
542.3894, 1787.509
542.8715, 1788.148
543.3536, 1793.367
543.8358, 1800.250
544.3179, 1806.931
544.8000, 1812.963
545.2821, 1815.797
545.7642, 1813.598
546.2463, 1813.232
546.7285, 1817.351
547.2106, 1823.331
547.6927, 1830.641
548.1748, 1838.746
548.6569, 1843.507
549.1390, 1840.460
549.6211, 1834.993
550.1032, 1832.476
550.5853, 1832.723
551.0674, 1834.952
551.5496, 1839.256
552.0317, 1843.311
552.5138, 1842.957
552.9959, 1835.774
553.4780, 1832.423
553.9601, 1834.498
554.4423, 1838.091
554.9244, 1843.135
555.4065, 1848.197
555.8886, 1851.333
556.3707, 1851.834
556.8528, 1850.562
557.3350, 1847.885
557.8171, 1844.068
558.2992, 1841.107
558.7813, 1838.928
559.2634, 1838.542
559.7455, 1842.100
560.2277, 1847.789
560.7098, 1849.813
561.1919, 1846.234
561.6740, 1842.331
562.1561, 1840.621
562.6382, 1838.872
563.1204, 1834.043
563.6025, 1826.395
564.0846, 1818.833
564.5667, 1813.301
565.0488, 1809.686
565.5309, 1808.020
566.0131, 1810.383
566.4952, 1809.419
566.9773, 1797.280
567.4594, 1786.797
567.9415, 1788.568
568.4236, 1800.142
568.9058, 1808.918
569.3879, 1810.043
569.8700, 1805.682
570.3521, 1793.297
570.8342, 1776.721
571.3163, 1770.943
571.7985, 1781.357
572.2806, 1795.448
572.7627, 1797.590
573.2448, 1785.979
573.7269, 1779.568
574.2090, 1783.599
574.6912, 1786.220
575.1733, 1785.118
575.6554, 1780.743
576.1375, 1772.009
576.6196, 1759.360
577.1017, 1748.564
577.5839, 1747.149
578.0660, 1751.735
578.5481, 1749.050
579.0302, 1737.570
579.5123, 1731.172
579.9944, 1738.288
580.4766, 1752.330
580.9587, 1761.015
581.4408, 1764.244
581.9229, 1764.357
582.4050, 1759.780
582.8871, 1753.850
583.3693, 1748.381
583.8514, 1743.393
584.3335, 1737.809
584.8156, 1731.149
585.2977, 1725.635
585.7798, 1726.449
586.2620, 1734.635
586.7441, 1736.461
587.2262, 1728.655
587.7083, 1718.730
588.1904, 1709.656
588.6725, 1701.617
589.1547, 1694.748
589.6368, 1688.228
590.1189, 1685.036
590.6010, 1690.647
591.0831, 1698.200
591.5652, 1697.291
592.0474, 1688.479
592.5295, 1681.074
593.0116, 1681.460
593.4937, 1687.031
593.9758, 1689.689
594.4579, 1688.077
594.9401, 1686.751
595.4222, 1687.316
595.9043, 1687.089
596.3864, 1683.780
596.8685, 1678.618
597.3506, 1674.840
597.8328, 1674.116
598.3149, 1674.241
598.7970, 1671.913
599.2791, 1668.986
599.7612, 1672.299
600.2433, 1683.214
600.7255, 1691.268
601.2076, 1686.783
601.6897, 1671.590
602.1718, 1660.570
602.6539, 1651.799
603.1360, 1650.385
603.6182, 1666.899
604.1003, 1682.766
604.5824, 1681.789
605.0645, 1666.302
605.5466, 1651.074
606.0287, 1643.998
606.5109, 1642.469
606.9930, 1643.317
607.4751, 1646.394
607.9572, 1650.914
608.4393, 1657.172
608.9214, 1662.947
609.4036, 1665.663
609.8857, 1665.308
610.3678, 1666.531
610.8499, 1673.009
611.3320, 1676.274
611.8141, 1673.851
612.2963, 1667.607
612.7784, 1655.987
613.2605, 1641.250
613.7426, 1633.084
614.2247, 1641.619
614.7068, 1659.574
615.1890, 1670.230
615.6711, 1673.570
616.1532, 1668.252
616.6353, 1649.172
617.1174, 1629.780
617.5995, 1626.888
618.0817, 1640.910
618.5638, 1651.069
619.0459, 1657.541
619.5280, 1658.920
620.0101, 1650.993
620.4922, 1639.460
620.9744, 1630.488
621.4565, 1625.680
621.9386, 1624.544
622.4207, 1628.209
622.9028, 1634.524
623.3849, 1633.317
623.8671, 1622.476
624.3492, 1616.676
624.8313, 1621.967
625.3134, 1632.313
625.7955, 1642.944
626.2776, 1653.811
626.7598, 1657.517
627.2419, 1644.666
627.7240, 1633.458
628.2061, 1636.202
628.6882, 1645.162
629.1703, 1649.320
629.6525, 1645.931
630.1346, 1638.014
630.6167, 1626.842
631.0988, 1613.939
631.5809, 1608.285
632.0630, 1611.323
632.5452, 1616.516
633.0273, 1627.039
633.5094, 1633.837
633.9915, 1622.139
634.4736, 1593.323
634.9557, 1576.059
635.4379, 1581.802
635.9200, 1594.525
636.4021, 1609.989
636.8842, 1624.799
637.3663, 1635.923
637.8484, 1641.867
638.3306, 1638.602
638.8127, 1618.795
639.2948, 1586.855
639.7769, 1570.745
640.2590, 1573.106
640.7411, 1582.545
641.2233, 1603.524
641.7054, 1622.837
642.1875, 1623.528
642.6696, 1607.477
643.1517, 1598.259
643.6339, 1608.056
644.1160, 1618.042
644.5981, 1618.180
645.0802, 1611.708
645.5623, 1601.907
646.0444, 1590.526
646.5266, 1581.378
647.0087, 1577.784
647.4908, 1579.530
647.9729, 1587.623
648.4550, 1605.179
648.9371, 1616.142
649.4193, 1613.970
649.9014, 1606.375
650.3835, 1597.704
650.8656, 1588.946
651.3477, 1587.884
651.8298, 1604.430
652.3120, 1619.144
652.7941, 1621.098
653.2762, 1616.714
653.7583, 1616.391
654.2404, 1620.481
654.7225, 1617.987
655.2047, 1596.720
655.6868, 1566.571
656.1689, 1564.998
656.6510, 1598.414
657.1331, 1620.115
657.6152, 1615.166
658.0974, 1603.385
658.5795, 1605.390
659.0616, 1616.656
659.5437, 1616.168
660.0258, 1586.537
660.5079, 1564.176
660.9901, 1568.008
661.4722, 1581.026
661.9543, 1585.474
662.4364, 1580.416
662.9185, 1574.036
663.4006, 1571.074
663.8828, 1572.153
664.3649, 1581.960
664.8470, 1601.080
665.3291, 1608.172
665.8112, 1595.917
666.2933, 1580.755
666.7755, 1574.172
667.2576, 1574.798
667.7397, 1575.749
668.2218, 1576.563
668.7039, 1578.430
669.1860, 1581.546
669.6682, 1585.822
670.1503, 1593.841
670.6324, 1602.918
671.1145, 1605.207
671.5966, 1596.033
672.0787, 1584.561
672.5609, 1585.564
673.0430, 1596.868
673.5251, 1602.775
674.0072, 1601.453
674.4893, 1596.669
674.9714, 1589.849
675.4536, 1581.690
675.9357, 1573.946
676.4178, 1565.740
676.8999, 1559.864
677.3820, 1557.653
677.8641, 1556.501
678.3463, 1554.932
678.8284, 1553.542
679.3105, 1553.562
679.7926, 1555.384
680.2747, 1558.030
680.7568, 1560.508
681.2390, 1563.134
681.7211, 1566.818
682.2032, 1571.535
682.6853, 1577.012
683.1674, 1583.882
683.6495, 1588.845
684.1317, 1585.735
684.6138, 1571.682
685.0959, 1564.846
685.5780, 1574.174
686.0601, 1579.942
686.5422, 1574.900
687.0244, 1565.524
687.5065, 1559.828
687.9886, 1558.184
688.4707, 1552.529
688.9528, 1529.650
689.4349, 1507.024
689.9171, 1507.445
690.3992, 1524.726
690.8813, 1542.133
691.3634, 1554.889
691.8455, 1562.130
692.3276, 1562.042
692.8098, 1555.753
693.2919, 1553.651
693.7740, 1558.924
694.2561, 1561.303
694.7382, 1557.501
695.2203, 1551.409
695.7025, 1542.878
696.1846, 1533.898
696.6667, 1531.829
697.1488, 1543.826
697.6309, 1555.064
698.1130, 1556.920
698.5952, 1553.954
699.0773, 1549.625
699.5594, 1545.831
700.0415, 1547.639
700.5236, 1559.049
701.0057, 1573.138
701.4879, 1573.161
701.9700, 1558.059
702.4521, 1553.204
702.9342, 1566.868
703.4163, 1574.845
703.8984, 1557.268
704.3806, 1526.447
704.8627, 1512.734
705.3448, 1522.588
705.8269, 1529.609
706.3090, 1524.927
706.7911, 1521.732
707.2733, 1532.879
707.7554, 1549.317
708.2375, 1553.998
708.7196, 1542.223
709.2017, 1527.317
709.6838, 1520.977
710.1660, 1521.318
710.6481, 1525.936
711.1302, 1534.260
711.6123, 1536.159
712.0944, 1526.560
712.5765, 1515.810
713.0587, 1518.238
713.5408, 1534.967
714.0229, 1540.603
714.5050, 1519.262
714.9871, 1508.624
715.4692, 1526.019
715.9514, 1547.131
716.4335, 1551.825
716.9156, 1541.384
717.3977, 1529.196
717.8798, 1516.761
718.3619, 1509.963
718.8441, 1520.032
719.3262, 1536.365
719.8083, 1539.439
720.2904, 1528.089
720.7725, 1514.517
721.2546, 1506.704
721.7368, 1502.968
722.2189, 1499.247
722.7010, 1495.284
723.1831, 1493.043
723.6652, 1492.438
724.1473, 1494.078
724.6295, 1499.444
725.1116, 1506.881
725.5937, 1513.458
726.0758, 1519.942
726.5579, 1522.659
727.0400, 1519.835
727.5222, 1514.214
728.0043, 1503.848
728.4864, 1493.118
728.9685, 1489.877
729.4506, 1495.606
729.9327, 1502.331
730.4149, 1504.157
730.8970, 1501.313
731.3791, 1489.359
731.8612, 1470.427
732.3433, 1467.812
732.8254, 1490.434
733.3076, 1517.218
733.7897, 1526.900
734.2718, 1520.520
734.7539, 1511.810
735.2360, 1496.400
735.7181, 1485.987
736.2003, 1482.451
736.6824, 1483.480
737.1645, 1491.620
737.6466, 1503.013
738.1287, 1507.205
738.6108, 1498.427
739.0930, 1489.484
739.5751, 1488.534
740.0572, 1490.622
740.5393, 1491.257
741.0214, 1489.572
741.5035, 1483.921
741.9857, 1473.518
742.4678, 1463.226
742.9499, 1459.490
743.4320, 1462.192
743.9141, 1471.793
744.3962, 1490.939
744.8784, 1501.357
745.3605, 1491.517
745.8426, 1476.448
746.3247, 1477.159
746.8068, 1495.750
747.2889, 1511.051
747.7711, 1529.751
748.2532, 1536.934
748.7353, 1515.335
749.2174, 1491.036
749.6995, 1492.775
750.1816, 1515.474
750.6638, 1527.908
751.1459, 1510.261
751.6280, 1486.932
752.1101, 1480.648
752.5922, 1484.585
753.0743, 1486.854
753.5565, 1485.906
754.0386, 1483.450
754.5207, 1480.187
755.0028, 1478.130
755.4849, 1483.236
755.9670, 1497.202
756.4492, 1501.400
756.9313, 1492.314
757.4134, 1481.253
757.8955, 1470.886
758.3776, 1462.797
758.8597, 1459.661
759.3419, 1461.612
759.8240, 1465.613
760.3061, 1474.779
760.7882, 1481.957
761.2703, 1482.108
761.7524, 1480.463
762.2346, 1483.374
762.7167, 1490.612
763.1988, 1496.898
763.6809, 1499.937
764.1630, 1499.484
764.6451, 1494.127
765.1273, 1485.251
765.6094, 1474.115
766.0915, 1461.856
766.5736, 1456.371
767.0557, 1463.339
767.5378, 1476.399
768.0200, 1480.576
768.5021, 1473.275
768.9842, 1474.227
769.4663, 1491.265
769.9484, 1499.905
770.4305, 1481.068
770.9127, 1453.765
771.3948, 1447.270
771.8769, 1463.349
772.3590, 1474.759
772.8411, 1478.670
773.3232, 1477.082
773.8054, 1462.396
774.2875, 1448.128
774.7696, 1452.878
775.2517, 1473.686
775.7338, 1488.417
776.2159, 1482.937
776.6981, 1470.725
777.1802, 1467.092
777.6623, 1468.214
778.1444, 1463.164
778.6265, 1452.058
779.1086, 1447.788
779.5908, 1458.445
780.0729, 1473.851
780.5550, 1473.566
781.0371, 1455.382
781.5192, 1443.808
782.0013, 1440.470
782.4835, 1439.447
782.9656, 1439.422
783.4477, 1439.778
783.9298, 1438.373
784.4119, 1434.997
784.8940, 1438.215
785.3762, 1459.790
785.8583, 1473.219
786.3404, 1465.944
786.8225, 1451.930
787.3046, 1440.088
787.7867, 1432.642
788.2689, 1431.823
788.7510, 1440.064
789.2331, 1450.112
789.7152, 1457.764
790.1973, 1462.323
790.6794, 1461.480
791.1616, 1456.289
791.6437, 1450.766
792.1258, 1446.603
792.6079, 1444.669
793.0900, 1446.454
793.5721, 1451.654
794.0543, 1459.377
794.5364, 1471.748
795.0185, 1471.146
795.5006, 1445.877
795.9827, 1420.381
796.4648, 1420.550
796.9470, 1443.539
797.4291, 1458.641
797.9112, 1462.242
798.3933, 1462.833
798.8754, 1461.803
799.3575, 1456.828
799.8397, 1439.970
800.3218, 1420.102
800.8039, 1415.513
801.2860, 1432.754
801.7681, 1448.247
802.2502, 1446.182
802.7324, 1440.732
803.2145, 1448.082
803.6966, 1460.751
804.1787, 1461.174
804.6608, 1446.606
805.1429, 1432.353
805.6251, 1431.527
806.1072, 1439.220
806.5893, 1448.410
807.0714, 1457.738
807.5535, 1452.442
808.0356, 1428.702
808.5178, 1412.951
808.9999, 1424.413
809.4820, 1452.086
809.9641, 1468.533
810.4462, 1472.285
810.9283, 1470.119
811.4105, 1460.090
811.8926, 1447.171
812.3747, 1426.957
812.8568, 1409.047
813.3389, 1406.530
813.8210, 1419.400
814.3032, 1430.370
814.7853, 1435.069
815.2674, 1439.864
815.7495, 1449.135
816.2316, 1457.705
816.7137, 1460.946
817.1959, 1459.139
817.6780, 1453.587
818.1601, 1443.294
818.6422, 1436.816
819.1243, 1446.312
819.6064, 1461.490
820.0886, 1465.370
820.5707, 1459.954
821.0528, 1456.668
821.5349, 1459.434
822.0170, 1461.945
822.4991, 1456.304
822.9813, 1445.102
823.4634, 1440.861
823.9455, 1444.125
824.4276, 1440.582
824.9097, 1424.620
825.3918, 1412.730
825.8740, 1419.941
826.3561, 1438.771
826.8382, 1443.129
827.3203, 1422.458
827.8024, 1411.713
828.2845, 1416.035
828.7667, 1424.159
829.2488, 1437.540
829.7309, 1449.244
830.2130, 1449.237
830.6951, 1437.091
831.1772, 1426.796
831.6594, 1423.937
832.1415, 1420.816
832.6236, 1411.926
833.1057, 1402.724
833.5878, 1396.495
834.0699, 1395.183
834.5521, 1403.670
835.0342, 1425.993
835.5163, 1447.985
835.9984, 1458.184
836.4805, 1458.682
836.9626, 1449.469
837.4448, 1433.543
837.9269, 1419.196
838.4090, 1409.514
838.8911, 1406.159
839.3732, 1413.187
839.8553, 1426.059
840.3375, 1425.771
840.8196, 1411.952
841.3017, 1405.103
841.7838, 1409.922
842.2659, 1416.731
842.7480, 1419.318
843.2302, 1418.959
843.7123, 1418.929
844.1944, 1419.700
844.6765, 1419.241
845.1586, 1417.746
845.6407, 1414.737
846.1229, 1408.093
846.6050, 1401.195
847.0871, 1396.399
847.5692, 1393.969
848.0513, 1396.130
848.5334, 1403.074
849.0156, 1414.807
849.4977, 1441.561
849.9798, 1463.974
850.4619, 1462.943
850.9440, 1446.647
851.4261, 1434.310
851.9083, 1431.891
852.3904, 1431.664
852.8725, 1427.768
853.3546, 1424.135
853.8367, 1427.541
854.3188, 1433.644
854.8010, 1432.540
855.2831, 1423.129
855.7652, 1412.458
856.2473, 1405.014
856.7294, 1401.274
857.2115, 1403.706
857.6937, 1410.773
858.1758, 1415.929
858.6579, 1418.521
859.1400, 1418.780
859.6221, 1416.471
860.1042, 1414.497
860.5864, 1417.892
861.0685, 1426.243
861.5506, 1428.636
862.0327, 1424.683
862.5148, 1414.468
862.9969, 1390.549
863.4791, 1375.300
863.9612, 1392.496
864.4433, 1430.676
864.9254, 1447.652
865.4075, 1430.749
865.8896, 1419.107
866.3718, 1414.802
866.8539, 1412.972
867.3360, 1414.998
867.8181, 1416.670
868.3002, 1410.449
868.7823, 1397.135
869.2645, 1392.252
869.7466, 1412.393
870.2287, 1425.266
870.7108, 1407.111
871.1929, 1385.927
871.6750, 1390.083
872.1572, 1411.479
872.6393, 1427.603
873.1214, 1431.031
873.6035, 1427.686
874.0856, 1418.182
874.5677, 1407.203
875.0499, 1399.340
875.5320, 1394.259
876.0141, 1390.367
876.4962, 1387.804
876.9783, 1389.803
877.4604, 1399.471
877.9426, 1411.021
878.4247, 1413.776
878.9068, 1410.407
879.3889, 1412.686
879.8710, 1420.520
880.3531, 1421.573
880.8353, 1410.438
881.3174, 1397.580
881.7995, 1395.736
882.2816, 1403.099
882.7637, 1408.361
883.2458, 1411.263
883.7280, 1413.966
884.2101, 1417.034
884.6922, 1419.250
885.1743, 1420.059
885.6564, 1419.164
886.1385, 1415.342
886.6207, 1406.974
887.1028, 1403.272
887.5849, 1408.171
888.0670, 1411.318
888.5491, 1405.459
889.0313, 1400.826
889.5134, 1408.266
889.9955, 1424.908
890.4776, 1437.692
890.9597, 1445.720
891.4418, 1449.843
891.9240, 1450.605
892.4061, 1447.035
892.8882, 1434.617
893.3703, 1419.703
893.8524, 1409.947
894.3345, 1406.495
894.8167, 1408.017
895.2988, 1418.130
895.7809, 1428.050
896.2630, 1433.123
896.7451, 1435.674
897.2272, 1437.363
897.7094, 1438.792
898.1915, 1440.446
898.6736, 1442.488
899.1557, 1445.297
899.6378, 1451.512
900.1199, 1456.789
900.6021, 1452.616
901.0842, 1444.272
901.5663, 1444.339
902.0484, 1453.544
902.5305, 1462.967
903.0126, 1467.630
903.4948, 1466.081
903.9769, 1450.798
904.4590, 1428.309
904.9411, 1419.945
905.4232, 1425.472
905.9053, 1438.248
906.3875, 1455.923
906.8696, 1467.478
907.3517, 1460.543
907.8338, 1442.251
908.3159, 1437.140
908.7980, 1445.342
909.2802, 1447.236
909.7623, 1439.587
910.2444, 1435.173
910.7265, 1440.626
911.2086, 1451.120
911.6907, 1460.408
912.1729, 1468.443
912.6550, 1471.897
913.1371, 1467.903
913.6192, 1469.514
914.1013, 1484.843
914.5834, 1494.627
915.0656, 1482.230
915.5477, 1458.027
916.0298, 1445.895
916.5119, 1448.666
916.9940, 1452.995
917.4761, 1461.492
917.9583, 1467.833
918.4404, 1467.739
918.9225, 1467.409
919.4046, 1475.320
919.8867, 1487.382
920.3688, 1487.454
920.8510, 1465.419
921.3331, 1451.287
921.8152, 1451.497
922.2973, 1457.993
922.7794, 1473.079
923.2615, 1488.538
923.7437, 1494.492
924.2258, 1491.097
924.7079, 1486.241
925.1900, 1480.933
925.6721, 1476.773
926.1542, 1475.348
926.6364, 1474.466
927.1185, 1471.621
927.6006, 1468.373
928.0827, 1468.165
928.5648, 1471.438
929.0469, 1473.965
929.5291, 1474.604
930.0112, 1472.249
930.4933, 1463.693
930.9754, 1453.263
931.4575, 1444.467
931.9396, 1438.970
932.4218, 1440.085
932.9039, 1448.882
933.3860, 1459.373
933.8681, 1465.049
934.3502, 1470.592
934.8323, 1487.363
935.3145, 1506.772
935.7966, 1508.130
936.2787, 1492.041
936.7608, 1475.509
937.2429, 1467.368
937.7250, 1465.240
938.2072, 1469.257
938.6893, 1475.893
939.1714, 1476.276
939.6535, 1471.781
940.1356, 1466.588
940.6177, 1462.431
941.0999, 1466.285
941.5820, 1484.478
942.0641, 1505.918
942.5462, 1507.629
943.0283, 1494.254
943.5104, 1491.207
943.9926, 1498.615
944.4747, 1504.396
944.9568, 1504.897
945.4389, 1499.756
945.9210, 1487.436
946.4031, 1472.112
946.8853, 1466.495
947.3674, 1470.520
947.8495, 1470.395
948.3316, 1464.201
948.8137, 1468.658
949.2958, 1492.898
949.7780, 1516.147
950.2601, 1513.360
950.7422, 1490.609
951.2243, 1480.845
951.7064, 1486.183
952.1885, 1490.856
952.6707, 1493.148
953.1528, 1495.903
953.6349, 1501.105
954.1170, 1506.025
954.5991, 1506.998
955.0812, 1504.125
955.5634, 1499.084
956.0455, 1489.153
956.5276, 1486.046
957.0097, 1494.322
957.4918, 1503.191
957.9739, 1507.754
958.4561, 1508.336
958.9382, 1503.622
959.4203, 1492.407
959.9024, 1494.010
960.3845, 1520.213
960.8666, 1535.408
961.3488, 1529.483
961.8309, 1518.037
962.3130, 1507.527
962.7951, 1499.368
963.2772, 1496.237
963.7593, 1498.312
964.2415, 1504.624
964.7236, 1526.119
965.2057, 1535.919
965.6878, 1517.972
966.1699, 1498.242
966.6520, 1494.277
967.1342, 1500.451
967.6163, 1503.492
968.0984, 1501.116
968.5805, 1503.574
969.0626, 1517.709
969.5447, 1528.236
970.0269, 1529.871
970.5090, 1527.860
970.9911, 1525.472
971.4732, 1522.758
971.9553, 1519.122
972.4374, 1513.657
972.9196, 1510.339
973.4017, 1507.684
973.8838, 1509.804
974.3659, 1527.857
974.8480, 1543.166
975.3301, 1533.121
975.8123, 1506.611
976.2944, 1493.834
976.7765, 1503.695
977.2586, 1513.382
977.7407, 1518.677
978.2228, 1521.750
978.7050, 1522.296
979.1871, 1522.011
979.6692, 1523.207
980.1513, 1525.044
980.6334, 1524.104
981.1155, 1518.904
981.5977, 1513.275
982.0798, 1507.013
982.5619, 1502.171
983.0440, 1499.732
983.5261, 1499.254
984.0082, 1500.719
984.4904, 1503.669
984.9725, 1506.352
985.4546, 1506.959
985.9367, 1511.354
986.4188, 1533.142
986.9009, 1546.386
987.3831, 1523.762
987.8652, 1492.510
988.3473, 1487.440
988.8294, 1505.706
989.3115, 1519.187
989.7936, 1518.172
990.2758, 1515.493
990.7579, 1513.614
991.2400, 1514.787
991.7221, 1525.820
992.2042, 1537.198
992.6863, 1531.375
993.1685, 1513.579
993.6506, 1514.839
994.1327, 1557.870
994.6148, 1584.093
995.0969, 1549.038
995.5790, 1508.130
996.0612, 1496.210
996.5433, 1502.736
997.0254, 1518.378
997.5075, 1537.377
997.9896, 1545.128
998.4717, 1531.291
998.9539, 1522.051
999.4360, 1537.510
999.9181, 1553.188
1000.400, 1550.117
1000.882, 1538.259
1001.364, 1529.594
1001.847, 1525.627
1002.329, 1524.417
1002.811, 1526.748
1003.293, 1527.157
1003.775, 1520.543
1004.257, 1513.863
1004.739, 1512.686
1005.221, 1513.796
1005.703, 1511.266
1006.186, 1506.600
1006.668, 1508.309
1007.150, 1521.085
1007.632, 1534.151
1008.114, 1543.460
1008.596, 1550.475
1009.078, 1559.337
1009.560, 1564.253
1010.043, 1551.769
1010.525, 1528.276
1011.007, 1520.818
1011.489, 1542.551
1011.971, 1562.451
1012.453, 1569.654
1012.935, 1568.289
1013.417, 1551.949
1013.899, 1534.895
1014.382, 1536.254
1014.864, 1551.476
1015.346, 1559.150
1015.828, 1550.746
1016.310, 1546.257
1016.792, 1557.420
1017.274, 1569.688
1017.756, 1574.640
1018.239, 1577.122
1018.721, 1583.084
1019.203, 1591.211
1019.685, 1595.781
1020.167, 1594.603
1020.649, 1594.341
1021.131, 1600.733
1021.613, 1604.085
1022.095, 1597.240
1022.578, 1587.620
1023.060, 1579.324
1023.542, 1574.564
1024.024, 1578.355
1024.506, 1593.304
1024.988, 1605.562
1025.470, 1612.508
1025.952, 1614.849
1026.435, 1608.606
1026.917, 1601.662
1027.399, 1598.745
1027.881, 1600.432
1028.363, 1609.026
1028.845, 1626.449
1029.327, 1636.249
1029.809, 1630.031
1030.292, 1623.362
1030.774, 1621.335
1031.256, 1619.238
1031.738, 1610.413
1032.220, 1600.645
1032.702, 1601.753
1033.184, 1615.552
1033.666, 1625.871
1034.148, 1626.835
1034.630, 1630.410
1035.113, 1643.953
1035.595, 1654.684
1036.077, 1652.316
1036.559, 1644.464
1037.041, 1642.415
1037.523, 1646.489
1038.005, 1650.826
1038.487, 1656.203
1038.970, 1660.464
1039.452, 1663.110
1039.934, 1665.020
1040.416, 1663.423
1040.898, 1664.050
1041.380, 1677.062
1041.862, 1700.393
1042.344, 1710.339
1042.826, 1695.806
1043.309, 1692.911
1043.791, 1711.587
1044.273, 1725.509
1044.755, 1723.434
1045.237, 1714.852
1045.719, 1708.059
1046.201, 1703.310
1046.683, 1702.025
1047.166, 1705.544
1047.648, 1707.757
1048.130, 1707.740
1048.612, 1709.746
1049.094, 1717.228
1049.576, 1720.469
1050.058, 1707.683
1050.540, 1689.354
1051.022, 1696.915
1051.505, 1734.448
1051.987, 1756.246
1052.469, 1760.039
1052.951, 1761.245
1053.433, 1763.276
1053.915, 1763.628
1054.397, 1759.801
1054.879, 1756.044
1055.361, 1761.112
1055.844, 1774.016
1056.326, 1784.524
1056.808, 1792.673
1057.290, 1788.815
1057.772, 1771.093
1058.254, 1763.472
1058.736, 1779.552
1059.218, 1799.172
1059.701, 1793.522
1060.183, 1771.799
1060.665, 1767.093
1061.147, 1775.465
1061.629, 1771.298
1062.111, 1754.797
1062.593, 1755.560
1063.075, 1784.149
1063.557, 1811.172
1064.040, 1806.311
1064.522, 1786.109
1065.004, 1778.347
1065.486, 1779.899
1065.968, 1783.568
1066.450, 1789.327
1066.932, 1802.281
1067.414, 1821.861
1067.896, 1834.204
1068.379, 1827.775
1068.861, 1818.097
1069.343, 1826.475
1069.825, 1839.609
1070.307, 1838.129
1070.789, 1827.112
1071.271, 1813.761
1071.753, 1803.022
1072.236, 1808.135
1072.718, 1838.257
1073.200, 1861.855
1073.682, 1848.849
1074.164, 1827.608
1074.646, 1816.181
1075.128, 1814.545
1075.610, 1826.511
1076.093, 1846.385
1076.575, 1861.332
1077.057, 1867.995
1077.539, 1870.006
1078.021, 1867.000
1078.503, 1862.205
1078.985, 1853.769
1079.467, 1847.371
1079.949, 1847.057
1080.432, 1851.936
1080.914, 1862.893
1081.396, 1879.151
1081.878, 1887.149
1082.360, 1875.039
1082.842, 1869.027
1083.324, 1876.976
1083.806, 1887.101
1084.288, 1896.033
1084.771, 1903.058
1085.253, 1907.695
1085.735, 1909.811
1086.217, 1908.039
1086.699, 1897.691
1087.181, 1896.567
1087.663, 1911.513
1088.145, 1921.501
1088.628, 1918.713
1089.110, 1913.888
1089.592, 1914.098
1090.074, 1918.601
1090.556, 1926.412
1091.038, 1937.731
1091.520, 1947.281
1092.002, 1956.094
1092.484, 1952.590
1092.967, 1931.354
1093.449, 1924.161
1093.931, 1949.823
1094.413, 1981.770
1094.895, 1984.781
1095.377, 1968.091
1095.859, 1965.015
1096.341, 1974.114
1096.823, 1987.530
1097.306, 2003.131
1097.788, 2006.930
1098.270, 1995.375
1098.752, 1986.637
1099.234, 1996.361
1099.716, 2011.517
1100.198, 2009.301
1100.680, 1999.483
1101.163, 2002.882
1101.645, 2015.602
1102.127, 2026.320
1102.609, 2033.240
1103.091, 2041.028
1103.573, 2052.121
1104.055, 2058.293
1104.537, 2045.511
1105.020, 2032.426
1105.502, 2041.534
1105.984, 2056.266
1106.466, 2055.882
1106.948, 2044.055
1107.430, 2030.276
1107.912, 2017.625
1108.394, 2015.775
1108.876, 2033.019
1109.359, 2055.167
1109.841, 2086.341
1110.323, 2110.209
1110.805, 2108.034
1111.287, 2098.790
1111.769, 2111.000
1112.251, 2139.223
1112.733, 2146.529
1113.215, 2113.501
1113.698, 2100.122
1114.180, 2124.104
1114.662, 2142.230
1115.144, 2141.785
1115.626, 2137.238
1116.108, 2136.435
1116.590, 2139.936
1117.072, 2150.713
1117.555, 2168.860
1118.037, 2171.357
1118.519, 2153.069
1119.001, 2150.731
1119.483, 2171.968
1119.965, 2185.732
1120.447, 2177.725
1120.929, 2166.368
1121.411, 2171.144
1121.894, 2185.323
1122.376, 2191.038
1122.858, 2190.233
1123.340, 2194.174
1123.822, 2201.895
1124.304, 2202.561
1124.786, 2195.818
1125.268, 2200.139
1125.750, 2226.773
1126.233, 2254.959
1126.715, 2260.243
1127.197, 2253.860
1127.679, 2245.127
1128.161, 2239.372
1128.643, 2248.352
1129.125, 2266.983
1129.607, 2279.784
1130.090, 2283.226
1130.572, 2287.013
1131.054, 2298.522
1131.536, 2307.109
1132.018, 2302.689
1132.500, 2298.546
1132.982, 2306.916
1133.464, 2318.495
1133.947, 2321.063
1134.429, 2316.109
1134.911, 2313.091
1135.393, 2312.781
1135.875, 2315.625
1136.357, 2318.228
1136.839, 2330.056
1137.321, 2365.974
1137.803, 2391.241
1138.286, 2378.611
1138.768, 2353.174
1139.250, 2352.656
1139.732, 2374.129
1140.214, 2390.804
1140.696, 2403.010
1141.178, 2405.988
1141.660, 2398.013
1142.142, 2398.142
1142.625, 2412.909
1143.107, 2428.764
1143.589, 2434.825
1144.071, 2437.758
1144.553, 2451.319
1145.035, 2470.512
1145.517, 2480.915
1145.999, 2483.481
1146.482, 2476.255
1146.964, 2464.323
1147.446, 2469.303
1147.928, 2497.934
1148.410, 2524.928
1148.892, 2531.484
1149.374, 2529.042
1149.856, 2518.638
1150.339, 2512.627
1150.821, 2528.055
1151.303, 2553.416
1151.785, 2571.840
1152.267, 2582.332
1152.749, 2592.996
1153.231, 2606.982
1153.713, 2616.151
1154.195, 2617.728
1154.677, 2615.631
1155.160, 2600.806
1155.642, 2594.255
1156.124, 2615.654
1156.606, 2647.160
1157.088, 2663.042
1157.570, 2664.428
1158.052, 2662.840
1158.534, 2654.330
1159.017, 2664.637
1159.499, 2700.423
1159.981, 2721.303
1160.463, 2714.069
1160.945, 2696.879
1161.427, 2680.464
1161.909, 2674.755
1162.391, 2706.443
1162.874, 2758.694
1163.356, 2771.208
1163.838, 2756.008
1164.320, 2750.937
1164.802, 2757.368
1165.284, 2757.858
1165.766, 2747.890
1166.248, 2741.999
1166.730, 2751.827
1167.213, 2763.785
1167.695, 2766.308
1168.177, 2766.349
1168.659, 2768.699
1169.141, 2773.294
1169.623, 2780.361
1170.105, 2789.065
1170.587, 2796.863
1171.069, 2802.826
1171.552, 2812.178
1172.034, 2835.867
1172.516, 2847.303
1172.998, 2833.758
1173.480, 2819.906
1173.962, 2815.605
1174.444, 2816.250
1174.926, 2817.123
1175.409, 2818.992
1175.891, 2826.061
1176.373, 2839.370
1176.855, 2841.332
1177.337, 2831.636
1177.819, 2824.011
1178.301, 2821.115
1178.783, 2824.982
1179.266, 2836.636
1179.748, 2845.245
1180.230, 2833.336
1180.712, 2822.740
1181.194, 2865.061
1181.676, 2922.803
1182.158, 2923.147
1182.640, 2889.680
1183.122, 2880.517
1183.604, 2899.016
1184.087, 2911.640
1184.569, 2905.711
1185.051, 2896.979
1185.533, 2889.043
1186.015, 2884.734
1186.497, 2888.399
1186.979, 2892.716
1187.461, 2891.086
1187.944, 2887.969
1188.426, 2887.430
1188.908, 2890.851
1189.390, 2908.717
1189.872, 2952.361
1190.354, 2968.335
1190.836, 2950.248
1191.318, 2931.633
1191.801, 2918.814
1192.283, 2913.394
1192.765, 2916.633
1193.247, 2925.608
1193.729, 2938.064
1194.211, 2951.414
1194.693, 2958.968
1195.175, 2962.532
1195.657, 2967.162
1196.140, 2972.194
1196.622, 2973.036
1197.104, 2970.574
1197.586, 2974.995
1198.068, 2992.356
1198.550, 3000.268
1199.032, 2970.006
1199.514, 2945.376
1199.996, 2952.820
1200.479, 2974.136
1200.961, 3006.593
1201.443, 3036.323
1201.925, 3042.037
1202.407, 3025.896
1202.889, 3012.516
1203.371, 2997.749
1203.853, 3001.652
1204.336, 3033.475
1204.818, 3052.975
1205.300, 3049.934
1205.782, 3043.668
1206.264, 3044.063
1206.746, 3048.932
1207.228, 3057.326
1207.710, 3065.045
1208.193, 3055.761
1208.675, 3039.112
1209.157, 3046.466
1209.639, 3070.907
1210.121, 3090.073
1210.603, 3099.930
1211.085, 3104.925
1211.567, 3106.836
1212.049, 3105.151
1212.531, 3093.770
1213.014, 3086.588
1213.496, 3094.488
1213.978, 3105.229
1214.460, 3109.498
1214.942, 3112.278
1215.424, 3123.282
1215.906, 3138.310
1216.388, 3140.337
1216.871, 3125.953
1217.353, 3120.015
1217.835, 3124.555
1218.317, 3127.928
1218.799, 3127.439
1219.281, 3135.228
1219.763, 3157.146
1220.245, 3179.123
1220.728, 3189.134
1221.210, 3188.587
1221.692, 3170.346
1222.174, 3149.234
1222.656, 3162.351
1223.138, 3193.569
1223.620, 3211.855
1224.102, 3215.049
1224.584, 3208.250
1225.067, 3194.402
##END=



