##NAMES=Childrenite
##RRUFFID=R060146
##IDEAL CHEMISTRY=Fe^2+^AlPO_4_(OH)_2_&#183;H_2_O
##LOCALITY=George and Charlotte mine, Tavistock, Devon, England
##OWNER=RRUFF
##SOURCE=Marcus Origlieri
##DESCRIPTION=Brown transparent pyramidal single crystals
##STATUS=The identification of this mineral is confirmed by single-crystal X-ray diffraction and chemical analysis.
##URL=rruff.info/R060146
##MEASURED CHEMISTRY=(Fe^2+^_0.83_Mn_0.15_Ca_0.02_)_Σ=1_Al_1.00_(P_1.00_O_4_)(OH)_2_·H_2_O
90.26367, 6.284522
90.74579, 6.394202
91.22791, 6.376309
91.71002, 6.239510
92.19214, 6.056021
92.67426, 5.800910
93.15637, 5.533409
93.63850, 5.425196
94.12061, 5.647705
94.60273, 6.036283
95.08485, 6.199583
95.56696, 6.120690
96.04908, 5.921160
96.53120, 5.699409
97.01331, 5.462235
97.49543, 5.269172
97.97755, 5.138267
98.45966, 5.071115
98.94178, 5.093054
99.42390, 5.230988
99.90602, 5.419178
100.3881, 5.556087
100.8703, 5.655560
101.3524, 5.653001
101.8345, 5.434484
102.3166, 4.881427
102.7987, 4.658702
103.2808, 4.940413
103.7630, 5.582735
104.2451, 5.928519
104.7272, 5.852036
105.2093, 5.649282
105.6914, 5.511363
106.1735, 5.481514
106.6557, 5.444256
107.1378, 5.380206
107.6199, 5.287408
108.1020, 5.215211
108.5841, 5.137748
109.0662, 5.094253
109.5484, 5.118818
110.0305, 5.213260
110.5126, 5.373907
110.9947, 5.613722
111.4768, 5.951524
111.9590, 6.290478
112.4411, 6.656457
112.9232, 7.013221
113.4053, 7.303392
113.8874, 7.398509
114.3695, 7.524587
114.8517, 7.768178
115.3338, 8.162182
115.8159, 8.614794
116.2980, 9.113412
116.7801, 9.656938
117.2622, 10.23729
117.7444, 10.78027
118.2265, 11.40605
118.7086, 12.20351
119.1907, 13.27909
119.6728, 14.41091
120.1549, 15.42181
120.6371, 16.36437
121.1192, 17.45661
121.6013, 18.87985
122.0834, 20.49103
122.5655, 22.14014
123.0477, 23.94501
123.5298, 25.62700
124.0119, 26.79015
124.4940, 27.47317
124.9761, 28.22680
125.4582, 29.65597
125.9404, 31.46129
126.4225, 33.04350
126.9046, 34.06906
127.3867, 34.75986
127.8688, 35.43864
128.3509, 36.10411
128.8331, 36.77010
129.3152, 37.40968
129.7973, 38.04722
130.2794, 38.78581
130.7615, 39.66233
131.2436, 40.67629
131.7258, 41.80468
132.2079, 43.03538
132.6900, 44.41371
133.1721, 46.06705
133.6542, 47.99158
134.1364, 49.96324
134.6185, 51.86958
135.1006, 53.72304
135.5827, 55.61602
136.0648, 57.56250
136.5469, 59.56251
137.0291, 61.71587
137.5112, 64.09889
137.9933, 66.25809
138.4754, 67.87736
138.9575, 68.87029
139.4396, 69.76634
139.9218, 70.59528
140.4039, 71.36752
140.8860, 72.07272
141.3681, 72.59316
141.8502, 73.25021
142.3323, 74.36879
142.8145, 76.28122
143.2966, 77.81788
143.7787, 78.63099
144.2608, 78.74577
144.7429, 79.29565
145.2251, 80.48746
145.7072, 81.93694
146.1893, 83.28329
146.6714, 84.41006
147.1535, 85.60706
147.6356, 86.96213
148.1178, 88.51321
148.5999, 89.92322
149.0820, 90.93896
149.5641, 91.91525
150.0462, 93.26456
150.5283, 95.59692
151.0105, 97.67701
151.4926, 98.21768
151.9747, 97.63251
152.4568, 97.52195
152.9389, 98.32632
153.4210, 99.51891
153.9032, 100.3763
154.3853, 100.6514
154.8674, 100.7406
155.3495, 100.7470
155.8316, 100.6314
156.3138, 100.5488
156.7959, 100.4051
157.2780, 100.3125
157.7601, 100.4851
158.2422, 101.3615
158.7243, 102.2198
159.2065, 102.6942
159.6886, 102.5084
160.1707, 102.3298
160.6528, 102.3736
161.1349, 102.5700
161.6170, 102.7373
162.0992, 102.7647
162.5813, 102.7682
163.0634, 102.8152
163.5455, 102.8631
164.0276, 103.0313
164.5097, 103.4654
164.9919, 104.0949
165.4740, 104.6464
165.9561, 104.8549
166.4382, 104.9849
166.9203, 105.2811
167.4025, 105.9106
167.8846, 106.6229
168.3667, 107.2797
168.8488, 107.8894
169.3309, 108.5031
169.8130, 109.1325
170.2952, 109.7911
170.7773, 110.4818
171.2594, 111.0678
171.7415, 111.7930
172.2236, 113.0239
172.7057, 114.7209
173.1879, 116.3056
173.6700, 117.3744
174.1521, 118.0382
174.6342, 118.4933
175.1163, 118.7934
175.5984, 118.9386
176.0806, 118.8277
176.5627, 118.4562
177.0448, 118.1589
177.5269, 118.3650
178.0090, 118.8826
178.4911, 119.2609
178.9733, 119.2190
179.4554, 118.9474
179.9375, 118.6987
180.4196, 118.4706
180.9017, 118.3498
181.3839, 118.5027
181.8660, 118.8626
182.3481, 119.1967
182.8302, 119.3386
183.3123, 119.3852
183.7944, 119.5183
184.2766, 119.7285
184.7587, 120.1107
185.2408, 120.9368
185.7229, 122.1199
186.2050, 123.1737
186.6871, 123.7555
187.1693, 123.9975
187.6514, 124.3300
188.1335, 124.7691
188.6156, 125.3125
189.0977, 125.9709
189.5798, 126.7394
190.0620, 127.5995
190.5441, 128.6046
191.0262, 129.7243
191.5083, 130.7098
191.9904, 131.5002
192.4725, 132.2959
192.9547, 133.5823
193.4368, 135.3922
193.9189, 137.0080
194.4010, 137.8744
194.8831, 138.0551
195.3652, 138.5905
195.8474, 139.6462
196.3295, 140.9311
196.8116, 141.8196
197.2937, 142.2655
197.7758, 142.7284
198.2579, 143.4267
198.7401, 144.3594
199.2222, 145.5861
199.7043, 147.2233
200.1864, 149.0049
200.6685, 150.3048
201.1507, 151.0530
201.6328, 151.6077
202.1149, 152.0990
202.5970, 152.4982
203.0791, 153.1606
203.5612, 154.2176
204.0434, 155.4701
204.5255, 156.3272
205.0076, 156.7022
205.4897, 156.9869
205.9718, 157.4722
206.4539, 158.2339
206.9361, 158.7437
207.4182, 158.9229
207.9003, 158.8372
208.3824, 158.6872
208.8645, 158.4687
209.3466, 158.1981
209.8288, 157.8943
210.3109, 157.5739
210.7930, 157.1529
211.2751, 156.6307
211.7572, 156.0032
212.2393, 155.2025
212.7215, 154.1679
213.2036, 153.1100
213.6857, 152.1636
214.1678, 151.3483
214.6499, 150.5540
215.1321, 149.7208
215.6142, 148.8957
216.0963, 148.3584
216.5784, 148.2827
217.0605, 148.1677
217.5426, 147.6608
218.0248, 146.6267
218.5069, 145.6091
218.9890, 144.6175
219.4711, 143.6790
219.9532, 142.9051
220.4353, 142.3145
220.9175, 141.8481
221.3996, 141.4720
221.8817, 141.2105
222.3638, 140.9882
222.8459, 140.8118
223.3280, 140.6708
223.8102, 140.5226
224.2923, 140.3548
224.7744, 140.1927
225.2565, 140.0113
225.7386, 139.6653
226.2208, 139.6515
226.7029, 140.0616
227.1850, 140.8452
227.6671, 141.7577
228.1492, 142.9182
228.6313, 144.0378
229.1135, 144.9273
229.5956, 145.5021
230.0777, 146.0459
230.5598, 146.5303
231.0419, 146.9966
231.5240, 147.6644
232.0062, 148.6103
232.4883, 149.6566
232.9704, 150.7223
233.4525, 151.8842
233.9346, 152.8890
234.4167, 153.6538
234.8989, 154.2356
235.3810, 154.8842
235.8631, 155.5638
236.3452, 156.3662
236.8273, 157.4090
237.3095, 158.9820
237.7916, 160.1268
238.2737, 160.5525
238.7558, 160.4970
239.2379, 161.0235
239.7200, 162.5398
240.2022, 164.0844
240.6843, 165.0797
241.1664, 165.0272
241.6485, 165.5526
242.1306, 167.0145
242.6127, 169.1111
243.0949, 170.6173
243.5770, 171.2466
244.0591, 171.6948
244.5412, 172.2896
245.0233, 173.0386
245.5054, 173.9498
245.9876, 175.1470
246.4697, 176.4897
246.9518, 177.5755
247.4339, 178.3964
247.9160, 178.9766
248.3981, 179.2848
248.8803, 179.1689
249.3624, 179.1741
249.8445, 179.4888
250.3266, 179.8806
250.8087, 179.6976
251.2909, 178.7813
251.7730, 177.5396
252.2551, 176.1575
252.7372, 174.6408
253.2193, 172.9368
253.7014, 171.0578
254.1836, 168.9998
254.6657, 166.7734
255.1478, 164.3792
255.6299, 161.8073
256.1120, 158.9684
256.5941, 155.7291
257.0763, 152.7304
257.5584, 150.0436
258.0405, 147.5218
258.5226, 144.8860
259.0047, 141.9901
259.4868, 139.2387
259.9690, 136.8395
260.4511, 134.8844
260.9332, 132.8757
261.4153, 130.7976
261.8974, 128.6551
262.3795, 126.4398
262.8617, 124.0028
263.3438, 121.8055
263.8259, 120.0127
264.3080, 118.6826
264.7901, 117.3787
265.2722, 116.0121
265.7544, 114.7748
266.2365, 114.1141
266.7186, 114.3547
267.2007, 114.1705
267.6829, 113.0154
268.1650, 110.7981
268.6471, 108.9543
269.1292, 107.4923
269.6113, 106.3358
270.0934, 105.3955
270.5756, 104.6689
271.0577, 104.1439
271.5398, 103.8709
272.0219, 103.8386
272.5040, 103.7073
272.9861, 103.4438
273.4683, 103.1566
273.9504, 102.9602
274.4325, 102.8679
274.9146, 102.7960
275.3967, 102.7239
275.8788, 102.6538
276.3610, 102.5540
276.8431, 102.3552
277.3252, 102.3383
277.8073, 102.9242
278.2894, 104.1943
278.7715, 105.1027
279.2537, 105.3141
279.7358, 105.0414
280.2179, 105.2474
280.7000, 106.0297
281.1821, 106.8601
281.6642, 107.2614
282.1464, 107.2311
282.6285, 107.3108
283.1106, 107.5757
283.5927, 108.0147
284.0748, 108.6595
284.5569, 109.5368
285.0391, 110.3922
285.5212, 110.9272
286.0033, 111.1926
286.4854, 111.8688
286.9675, 113.1624
287.4496, 114.7151
287.9318, 115.7725
288.4139, 116.3345
288.8960, 116.8344
289.3781, 117.5855
289.8602, 118.5254
290.3424, 119.3182
290.8245, 119.9094
291.3066, 120.4203
291.7887, 120.9936
292.2708, 121.6354
292.7530, 122.3809
293.2351, 123.4296
293.7172, 124.6106
294.1993, 125.2288
294.6814, 125.1480
295.1635, 125.0233
295.6457, 125.7586
296.1278, 127.1949
296.6099, 128.6592
297.0920, 129.9350
297.5741, 130.9881
298.0562, 131.6609
298.5384, 131.9265
299.0205, 132.0559
299.5026, 132.2756
299.9847, 132.5646
300.4668, 132.8773
300.9489, 133.2371
301.4311, 133.5856
301.9132, 133.8243
302.3953, 133.9586
302.8774, 134.0456
303.3595, 134.1373
303.8416, 134.2153
304.3238, 134.2492
304.8059, 134.2360
305.2880, 134.1685
305.7701, 134.0638
306.2522, 133.9101
306.7343, 133.6428
307.2165, 133.1197
307.6986, 132.4873
308.1807, 131.9522
308.6628, 131.6649
309.1449, 131.3072
309.6270, 130.4967
310.1092, 129.3696
310.5913, 128.3909
311.0734, 127.9878
311.5555, 127.7477
312.0376, 127.3325
312.5197, 126.6780
313.0019, 125.8488
313.4840, 124.7268
313.9661, 123.4495
314.4482, 122.2880
314.9304, 121.5360
315.4125, 120.8095
315.8946, 119.8618
316.3767, 118.6210
316.8588, 117.3679
317.3409, 116.0496
317.8231, 114.8220
318.3052, 113.8937
318.7873, 113.7923
319.2694, 113.5854
319.7515, 112.6419
320.2336, 110.8431
320.7158, 109.1962
321.1979, 109.1312
321.6800, 108.8179
322.1621, 108.2695
322.6442, 106.7820
323.1263, 106.5071
323.6085, 105.7462
324.0906, 104.9654
324.5727, 104.8612
325.0548, 103.5103
325.5369, 103.4524
326.0190, 103.1245
326.5012, 103.1918
326.9833, 103.1887
327.4654, 103.1335
327.9475, 102.9970
328.4296, 102.6577
328.9117, 101.8017
329.3939, 101.0208
329.8760, 100.5711
330.3581, 100.7488
330.8402, 100.6966
331.3223, 100.1913
331.8044, 99.51443
332.2866, 99.26680
332.7687, 99.76847
333.2508, 100.2292
333.7329, 100.3910
334.2150, 100.1912
334.6971, 99.97354
335.1793, 99.69668
335.6614, 99.43953
336.1435, 99.31272
336.6256, 99.34716
337.1077, 99.44223
337.5899, 99.62289
338.0720, 99.87995
338.5541, 99.90945
339.0362, 99.64676
339.5183, 99.31032
340.0005, 99.06382
340.4826, 98.89322
340.9647, 98.94146
341.4468, 99.34230
341.9289, 99.92030
342.4110, 100.0316
342.8932, 99.60693
343.3753, 99.15614
343.8574, 98.55495
344.3395, 99.17474
344.8216, 99.54612
345.3037, 99.68244
345.7859, 98.87971
346.2680, 99.28958
346.7501, 99.21349
347.2322, 99.11747
347.7143, 99.69801
348.1964, 99.03185
348.6786, 99.60166
349.1607, 99.67809
349.6428, 99.98032
350.1249, 99.79360
350.6070, 99.75790
351.0891, 99.02766
351.5713, 99.58299
352.0534, 99.88992
352.5355, 99.96181
353.0176, 99.09463
353.4997, 99.44006
353.9818, 99.29951
354.4640, 99.13905
354.9461, 99.65515
355.4282, 98.92455
355.9103, 99.42992
356.3924, 99.44190
356.8745, 99.67970
357.3567, 99.42853
357.8388, 99.32839
358.3209, 99.71736
358.8030, 99.83551
359.2851, 99.52806
359.7672, 99.78020
360.2494, 99.03252
360.7315, 99.16220
361.2136, 99.67043
361.6957, 99.38756
362.1779, 98.93543
362.6600, 98.95872
363.1421, 99.39913
363.6242, 99.80293
364.1063, 99.94032
364.5884, 100.0123
365.0706, 100.2230
365.5527, 100.8652
366.0348, 101.3845
366.5169, 101.6081
366.9990, 101.5506
367.4811, 101.5074
367.9633, 101.4237
368.4454, 101.4174
368.9275, 101.5641
369.4096, 102.2118
369.8917, 102.5250
370.3738, 102.2554
370.8560, 101.6496
371.3381, 101.4047
371.8202, 101.7007
372.3023, 102.1118
372.7844, 102.4835
373.2665, 102.8001
373.7487, 103.1552
374.2308, 103.6297
374.7129, 104.0624
375.1950, 104.2093
375.6771, 103.9797
376.1592, 103.7424
376.6414, 103.5269
377.1235, 103.3623
377.6056, 103.6013
378.0877, 104.3571
378.5698, 105.1545
379.0519, 105.5689
379.5341, 105.5955
380.0162, 105.5624
380.4983, 105.4752
380.9804, 105.4165
381.4625, 105.5679
381.9446, 105.9291
382.4268, 106.4420
382.9089, 107.2379
383.3910, 108.1715
383.8731, 108.7211
384.3553, 108.7783
384.8374, 108.7638
385.3195, 109.2806
385.8016, 110.1467
386.2837, 110.8342
386.7658, 110.9192
387.2480, 110.7821
387.7301, 110.8909
388.2122, 111.2421
388.6943, 111.7075
389.1764, 112.2461
389.6585, 112.8232
390.1407, 113.3991
390.6228, 114.0492
391.1049, 114.5704
391.5870, 114.6622
392.0691, 114.4811
392.5512, 114.4987
393.0334, 115.3055
393.5155, 116.1205
393.9976, 115.7269
394.4797, 116.4475
394.9618, 116.9193
395.4439, 117.1538
395.9261, 116.5510
396.4082, 116.9441
396.8903, 116.8859
397.3724, 116.7736
397.8545, 116.6978
398.3366, 117.1227
398.8188, 117.3360
399.3009, 117.3491
399.7830, 116.5623
400.2651, 116.8084
400.7472, 116.6405
401.2293, 116.4557
401.7115, 116.8472
402.1936, 116.1767
402.6757, 116.5590
403.1578, 115.7976
403.6399, 114.9763
404.1220, 114.3914
404.6042, 114.1015
405.0863, 113.6591
405.5684, 112.9978
406.0505, 112.2981
406.5326, 111.7954
407.0147, 111.5012
407.4969, 111.3283
407.9790, 111.3361
408.4611, 111.4285
408.9432, 111.1778
409.4254, 110.5633
409.9075, 109.8383
410.3896, 109.1609
410.8717, 108.5293
411.3538, 107.9268
411.8359, 107.3496
412.3181, 106.8205
412.8002, 106.4009
413.2823, 106.0736
413.7644, 105.7387
414.2465, 105.2719
414.7286, 104.8005
415.2108, 104.5553
415.6929, 104.5569
416.1750, 104.4742
416.6571, 103.9362
417.1392, 103.1963
417.6213, 102.5808
418.1035, 102.2834
418.5856, 102.0559
419.0677, 101.7894
419.5498, 101.4837
420.0319, 101.1474
420.5140, 100.6801
420.9962, 100.2531
421.4783, 99.97258
421.9604, 99.22473
422.4425, 99.71372
422.9246, 99.95432
423.4067, 99.95985
423.8889, 99.02630
424.3710, 99.30537
424.8531, 99.09849
425.3352, 98.87167
425.8173, 99.32142
426.2994, 98.52446
426.7816, 98.96346
427.2637, 98.90908
427.7458, 99.67440
428.2279, 100.0761
428.7100, 100.2428
429.1921, 99.47035
429.6743, 99.91056
430.1564, 99.86480
430.6385, 99.79911
431.1206, 100.4100
431.6028, 99.77418
432.0849, 100.3743
432.5670, 100.4811
433.0491, 100.8137
433.5312, 100.6573
434.0133, 100.6519
434.4955, 101.0991
434.9776, 101.6515
435.4597, 102.0023
435.9418, 102.3180
436.4239, 102.9784
436.9060, 103.9169
437.3882, 104.7407
437.8703, 105.0945
438.3524, 105.2157
438.8345, 105.4188
439.3166, 105.7314
439.7987, 106.1594
440.2809, 106.8281
440.7630, 107.5944
441.2451, 108.2284
441.7272, 108.4573
442.2093, 108.6922
442.6914, 109.1520
443.1736, 109.8174
443.6557, 110.5421
444.1378, 111.2613
444.6199, 112.0356
445.1020, 112.8931
445.5841, 113.8109
446.0663, 114.8607
446.5484, 116.1870
447.0305, 117.6256
447.5126, 118.9055
447.9947, 119.8200
448.4768, 120.8035
448.9590, 121.9634
449.4411, 123.2978
449.9232, 124.6672
450.4053, 126.1629
450.8874, 127.5782
451.3695, 128.6711
451.8517, 129.3078
452.3338, 130.2478
452.8159, 131.5999
453.2980, 133.2236
453.7801, 134.8957
454.2622, 136.6048
454.7444, 138.3143
455.2265, 139.9440
455.7086, 141.5501
456.1907, 143.3174
456.6729, 145.2769
457.1550, 147.2879
457.6371, 149.3382
458.1192, 151.3694
458.6013, 153.3030
459.0834, 155.1153
459.5656, 156.7932
460.0477, 158.2991
460.5298, 159.6511
461.0119, 160.8268
461.4940, 161.8262
461.9761, 162.6714
462.4583, 163.3786
462.9404, 163.9559
463.4225, 164.3989
463.9046, 164.9421
464.3867, 165.2453
464.8688, 164.9754
465.3510, 163.7125
465.8331, 162.2658
466.3152, 160.8090
466.7973, 159.3020
467.2794, 157.6000
467.7615, 155.4389
468.2437, 153.3098
468.7258, 151.3843
469.2079, 149.7478
469.6900, 148.0143
470.1721, 146.0995
470.6542, 144.1934
471.1364, 142.5248
471.6185, 141.1665
472.1006, 139.7469
472.5827, 138.1726
473.0648, 136.5128
473.5469, 135.0167
474.0291, 133.7038
474.5112, 132.3324
474.9933, 130.6516
475.4754, 128.7729
475.9575, 127.2239
476.4396, 126.0529
476.9218, 124.9752
477.4039, 123.7748
477.8860, 122.4439
478.3681, 120.9586
478.8503, 119.2069
479.3324, 117.4248
479.8145, 115.7969
480.2966, 114.3108
480.7787, 112.9920
481.2608, 111.9671
481.7430, 110.9976
482.2251, 109.9128
482.7072, 108.6764
483.1893, 107.4228
483.6714, 106.0390
484.1535, 104.7304
484.6357, 103.7024
485.1178, 103.2113
485.5999, 102.7366
486.0820, 102.2890
486.5641, 101.8210
487.0462, 101.1070
487.5284, 99.89889
488.0105, 98.78080
488.4926, 98.01493
488.9747, 97.69046
489.4568, 97.17019
489.9389, 96.39143
490.4211, 95.53738
490.9032, 94.81396
491.3853, 94.22126
491.8674, 93.68079
492.3495, 93.17001
492.8316, 92.71518
493.3138, 92.37778
493.7959, 92.15244
494.2780, 92.00648
494.7601, 92.02480
495.2422, 92.08318
495.7243, 91.90269
496.2065, 91.45931
496.6886, 91.01041
497.1707, 90.74291
497.6528, 90.59557
498.1349, 90.48555
498.6170, 90.39896
499.0992, 90.32764
499.5813, 90.28963
500.0634, 90.26371
500.5455, 90.19791
501.0276, 90.09731
501.5097, 89.93457
501.9919, 89.65353
502.4740, 89.21809
502.9561, 88.91605
503.4382, 88.82311
503.9203, 88.82893
504.4025, 88.86888
504.8846, 88.98576
505.3667, 89.05579
505.8488, 89.10003
506.3309, 89.07612
506.8130, 88.83433
507.2952, 88.29917
507.7773, 87.89170
508.2594, 87.81188
508.7415, 88.00060
509.2236, 88.13277
509.7057, 88.20850
510.1879, 88.23018
510.6700, 88.17496
511.1521, 88.06643
511.6342, 87.98954
512.1163, 87.97877
512.5984, 87.92764
513.0806, 87.65578
513.5627, 87.26235
514.0448, 86.95471
514.5269, 86.90618
515.0090, 86.90536
515.4911, 86.75486
515.9733, 86.49208
516.4554, 86.38065
516.9375, 86.74887
517.4196, 87.13055
517.9017, 87.21315
518.3839, 86.76846
518.8660, 86.49613
519.3481, 86.65983
519.8302, 86.94456
520.3123, 87.00349
520.7944, 86.66225
521.2766, 86.41772
521.7587, 86.36604
522.2408, 86.46507
522.7229, 86.57031
523.2050, 86.70634
523.6871, 86.76407
524.1693, 86.61415
524.6514, 86.28908
525.1335, 86.19722
525.6156, 86.36304
526.0977, 86.60581
526.5798, 86.70513
527.0620, 86.73119
527.5441, 86.91589
528.0262, 87.38444
528.5083, 87.88049
528.9904, 88.10875
529.4725, 88.14314
529.9547, 88.16181
530.4368, 88.24125
530.9189, 88.33889
531.4010, 88.39194
531.8831, 88.40299
532.3652, 88.52693
532.8474, 88.83874
533.3295, 89.26232
533.8116, 89.76923
534.2937, 90.51217
534.7758, 91.05944
535.2579, 91.27279
535.7401, 91.35080
536.2222, 91.55187
536.7043, 91.85376
537.1865, 92.34907
537.6686, 93.09284
538.1507, 94.04558
538.6328, 95.04308
539.1149, 96.12765
539.5970, 97.05859
540.0792, 97.47243
540.5613, 97.55708
541.0434, 98.23785
541.5255, 99.58703
542.0076, 101.1379
542.4897, 102.5674
542.9719, 103.8568
543.4540, 104.9653
543.9361, 105.7769
544.4182, 106.5604
544.9003, 107.5248
545.3824, 108.6080
545.8646, 109.6734
546.3467, 110.6032
546.8288, 111.5569
547.3109, 112.6355
547.7930, 113.8360
548.2751, 114.9609
548.7573, 115.8355
549.2394, 116.7402
549.7215, 117.8439
550.2036, 119.3165
550.6857, 120.5864
551.1678, 121.5325
551.6500, 122.4071
552.1321, 123.6629
552.6142, 125.4344
553.0963, 126.7295
553.5784, 127.1873
554.0605, 127.1377
554.5427, 127.5100
555.0248, 128.2735
555.5069, 128.8645
555.9890, 129.0645
556.4711, 128.8293
556.9532, 127.9323
557.4354, 126.3685
557.9175, 124.6992
558.3996, 123.5523
558.8817, 122.4494
559.3638, 120.8454
559.8459, 118.4842
560.3281, 115.9000
560.8102, 112.9492
561.2923, 110.0088
561.7744, 107.6942
562.2565, 106.5943
562.7386, 105.6141
563.2208, 104.4935
563.7029, 103.2814
564.1850, 102.2339
564.6671, 101.3218
565.1492, 100.6459
565.6313, 100.2974
566.1135, 100.3013
566.5956, 100.3377
567.0777, 100.4091
567.5598, 100.5034
568.0419, 100.5326
568.5240, 100.5470
569.0062, 100.8116
569.4883, 101.3813
569.9704, 102.2062
570.4525, 103.3861
570.9346, 104.7866
571.4167, 106.0051
571.8989, 106.6114
572.3810, 107.2035
572.8631, 108.1980
573.3452, 109.5611
573.8273, 111.0771
574.3094, 112.8840
574.7916, 114.6383
575.2737, 116.0793
575.7558, 116.9495
576.2379, 118.2651
576.7200, 120.3439
577.2021, 122.6096
577.6843, 124.5168
578.1664, 125.7926
578.6485, 127.5322
579.1306, 130.0372
579.6127, 132.8753
580.0948, 135.1799
580.5770, 136.9404
581.0591, 138.8146
581.5412, 141.0943
582.0233, 143.6188
582.5054, 146.0914
582.9875, 148.4801
583.4697, 150.7997
583.9518, 152.7723
584.4340, 154.7987
584.9161, 157.3708
585.3982, 160.5847
585.8803, 163.9291
586.3624, 167.3016
586.8445, 170.6062
587.3267, 173.7563
587.8088, 176.8506
588.2909, 179.6424
588.7730, 181.9736
589.2551, 184.0228
589.7372, 186.0611
590.2194, 188.0156
590.7015, 190.1343
591.1836, 192.5932
591.6657, 195.2522
592.1478, 197.2553
592.6299, 198.5112
593.1121, 199.6478
593.5942, 200.9211
594.0763, 202.3660
594.5584, 204.4160
595.0405, 207.1107
595.5226, 209.2734
596.0048, 209.4357
596.4869, 208.5406
596.9690, 208.0158
597.4511, 208.3955
597.9332, 208.6315
598.4153, 208.1124
598.8975, 207.0768
599.3796, 205.8689
599.8617, 204.8578
600.3438, 203.3738
600.8259, 201.1365
601.3080, 198.2764
601.7902, 195.3212
602.2723, 192.4451
602.7544, 189.2025
603.2365, 185.1971
603.7186, 180.4832
604.2007, 176.4985
604.6829, 173.3564
605.1650, 170.5484
605.6471, 167.5821
606.1292, 164.5978
606.6113, 162.0983
607.0934, 160.2127
607.5756, 158.6337
608.0577, 157.0526
608.5398, 155.5905
609.0219, 154.5103
609.5040, 154.1456
609.9861, 153.8148
610.4683, 152.9970
610.9504, 151.9517
611.4325, 151.2241
611.9146, 151.0720
612.3967, 151.1533
612.8788, 151.3782
613.3610, 151.7453
613.8431, 152.3778
614.3252, 153.5661
614.8073, 154.5232
615.2894, 154.7401
615.7715, 154.1545
616.2537, 154.0196
616.7358, 154.4112
617.2179, 154.8794
617.7000, 154.9618
618.1821, 154.7369
618.6642, 154.5158
619.1464, 154.3853
619.6285, 154.1217
620.1106, 153.4868
620.5927, 152.5619
621.0748, 151.4931
621.5569, 150.2862
622.0391, 148.9831
622.5212, 147.6608
623.0033, 146.2582
623.4854, 144.5870
623.9675, 142.3309
624.4496, 140.0971
624.9318, 138.0347
625.4139, 136.1445
625.8960, 134.4368
626.3781, 133.0275
626.8602, 131.5750
627.3423, 129.8357
627.8245, 127.8195
628.3066, 125.8453
628.7887, 123.9090
629.2708, 122.0849
629.7529, 120.4145
630.2350, 118.9224
630.7172, 117.6700
631.1993, 116.7533
631.6815, 115.8446
632.1636, 114.6381
632.6457, 113.2727
633.1278, 111.9508
633.6099, 110.8186
634.0920, 109.6579
634.5742, 108.2913
635.0563, 106.8239
635.5384, 105.6144
636.0205, 104.8925
636.5026, 104.1098
636.9847, 103.0527
637.4669, 101.7539
637.9490, 100.6315
638.4311, 99.67223
638.9132, 98.91161
639.3953, 98.50198
639.8774, 98.33015
640.3596, 97.88925
640.8417, 97.14954
641.3238, 96.22240
641.8059, 95.01024
642.2880, 93.75864
642.7701, 92.90232
643.2523, 92.69478
643.7344, 92.42365
644.2165, 91.58804
644.6986, 90.51047
645.1807, 89.62823
645.6628, 89.19327
646.1450, 88.76514
646.6271, 88.30498
647.1092, 87.80568
647.5913, 87.25011
648.0734, 86.59878
648.5555, 85.98823
649.0377, 85.44725
649.5198, 84.97802
650.0019, 84.58952
650.4840, 84.27683
650.9661, 84.04678
651.4482, 83.97790
651.9304, 83.96571
652.4125, 83.80443
652.8946, 83.48862
653.3767, 83.17580
653.8588, 83.02226
654.3409, 82.88665
654.8231, 82.64880
655.3052, 82.27760
655.7873, 81.83778
656.2694, 81.15083
656.7515, 80.51080
657.2336, 80.21288
657.7158, 80.44538
658.1979, 80.60857
658.6800, 80.64483
659.1621, 80.60440
659.6442, 80.60598
660.1263, 80.65104
660.6085, 80.54001
661.0906, 80.15198
661.5727, 79.64531
662.0548, 79.23751
662.5369, 78.93675
663.0190, 78.77482
663.5012, 78.81458
663.9833, 78.96519
664.4654, 79.28094
664.9475, 79.70741
665.4296, 79.86471
665.9117, 79.32227
666.3939, 78.74560
666.8760, 78.51926
667.3581, 78.73135
667.8402, 78.69287
668.3223, 78.24834
668.8044, 77.79969
669.2866, 77.70885
669.7687, 77.99757
670.2508, 78.03606
670.7329, 77.74695
671.2150, 77.39659
671.6971, 77.29432
672.1793, 77.36401
672.6614, 77.40449
673.1435, 77.34563
673.6256, 77.30555
674.1077, 77.48289
674.5898, 77.71539
675.0720, 77.75127
675.5541, 77.21413
676.0362, 76.80529
676.5183, 76.80176
677.0004, 77.06786
677.4825, 77.21868
677.9647, 77.17330
678.4468, 77.18014
678.9290, 77.36874
679.4111, 77.65870
679.8932, 77.61159
680.3753, 77.20757
680.8574, 76.80271
681.3395, 76.60346
681.8217, 76.54519
682.3038, 76.52641
682.7859, 76.54001
683.2680, 76.52554
683.7501, 76.27776
684.2322, 76.09227
684.7144, 76.32044
685.1965, 77.11132
685.6786, 77.60721
686.1607, 77.29890
686.6428, 76.80814
687.1249, 76.58626
687.6071, 76.78159
688.0892, 76.90954
688.5713, 76.94601
689.0534, 76.95541
689.5355, 77.04852
690.0176, 77.21852
690.4998, 77.24694
690.9819, 77.05870
691.4640, 76.82146
691.9461, 76.75908
692.4282, 76.82447
692.9103, 76.91780
693.3925, 77.04366
693.8746, 77.13589
694.3567, 77.15981
694.8388, 77.11935
695.3209, 77.02456
695.8030, 76.68667
696.2852, 76.51849
696.7673, 76.71398
697.2494, 77.16924
697.7315, 77.32024
698.2136, 77.08947
698.6957, 76.80435
699.1779, 76.57454
699.6600, 76.40699
700.1421, 76.39148
700.6242, 76.51736
701.1063, 76.57198
701.5884, 76.22716
702.0706, 75.82240
702.5527, 75.86763
703.0348, 76.39530
703.5169, 76.81418
703.9990, 76.74861
704.4811, 76.52522
704.9633, 76.35986
705.4454, 76.29105
705.9275, 76.23498
706.4096, 76.18966
706.8917, 76.15835
707.3738, 76.11817
707.8560, 76.05237
708.3381, 76.19791
708.8202, 76.64372
709.3023, 77.05534
709.7844, 76.87278
710.2665, 76.31127
710.7487, 75.99989
711.2308, 76.18545
711.7129, 76.43409
712.1950, 76.37402
712.6771, 76.16216
713.1592, 76.03516
713.6414, 76.19274
714.1235, 76.29537
714.6056, 76.22166
715.0877, 76.05096
715.5698, 75.95511
716.0519, 76.00795
716.5341, 75.91330
717.0162, 75.49461
717.4983, 74.95840
717.9804, 75.01835
718.4625, 75.62803
718.9446, 76.12821
719.4268, 76.10646
719.9089, 75.85574
720.3910, 75.75051
720.8731, 75.75658
721.3552, 75.72416
721.8373, 75.48511
722.3195, 75.27143
722.8016, 75.27283
723.2837, 75.49856
723.7658, 75.50762
724.2479, 75.04919
724.7300, 74.69848
725.2122, 74.78863
725.6943, 75.32912
726.1765, 75.57666
726.6586, 75.49795
727.1407, 75.35270
727.6228, 75.34426
728.1049, 75.42284
728.5870, 75.47692
729.0692, 75.49747
729.5513, 75.50272
730.0334, 75.46416
730.5155, 75.44026
730.9976, 75.51505
731.4797, 75.78259
731.9619, 75.89718
732.4440, 75.62190
732.9261, 75.29745
733.4082, 75.19284
733.8903, 75.39269
734.3724, 75.53503
734.8546, 75.59775
735.3367, 75.61098
735.8188, 75.56775
736.3009, 75.49624
736.7830, 75.55956
737.2651, 75.84311
737.7473, 76.09624
738.2294, 76.00823
738.7115, 75.74353
739.1936, 75.54835
739.6757, 75.60654
740.1578, 75.60709
740.6400, 75.37336
741.1221, 75.05411
741.6042, 74.90812
742.0863, 75.01497
742.5684, 75.11569
743.0505, 75.16051
743.5327, 75.18440
744.0148, 75.28146
744.4969, 75.44364
744.9790, 75.58414
745.4611, 75.70230
745.9432, 75.74426
746.4254, 75.54104
746.9075, 75.20156
747.3896, 75.00986
747.8717, 75.32158
748.3538, 75.57864
748.8359, 75.49706
749.3181, 75.13783
749.8002, 74.83188
750.2823, 74.51987
750.7644, 74.39503
751.2465, 74.57779
751.7286, 74.99017
752.2108, 75.25748
752.6929, 75.38020
753.1750, 75.42384
753.6571, 75.37368
754.1392, 75.28953
754.6213, 75.28645
755.1035, 75.34827
755.5856, 75.38414
756.0677, 75.31792
756.5498, 75.23254
757.0319, 75.18357
757.5140, 75.17493
757.9962, 75.12303
758.4783, 75.01501
758.9604, 74.87270
759.4425, 74.67031
759.9246, 74.41398
760.4067, 74.31835
760.8889, 74.39094
761.3710, 74.56372
761.8531, 74.84985
762.3352, 75.18147
762.8173, 75.45683
763.2994, 75.66738
763.7816, 75.75614
764.2637, 75.53677
764.7458, 75.29001
765.2279, 75.25277
765.7100, 75.51035
766.1921, 75.65964
766.6743, 75.61543
767.1564, 75.53812
767.6385, 75.54936
768.1206, 75.67245
768.6027, 75.63046
769.0848, 75.39326
769.5670, 75.15831
770.0491, 75.12417
770.5312, 75.21593
771.0133, 75.30598
771.4954, 75.38345
771.9775, 75.39510
772.4597, 75.21388
772.9418, 75.00956
773.4240, 74.92288
773.9061, 74.99723
774.3882, 75.14577
774.8703, 75.44146
775.3524, 75.72108
775.8345, 75.78719
776.3167, 75.60196
776.7988, 75.75896
777.2809, 76.36571
777.7630, 76.94357
778.2451, 76.81673
778.7272, 76.31575
779.2094, 76.14674
779.6915, 76.53269
780.1736, 76.85542
780.6557, 76.61502
781.1378, 76.19802
781.6199, 75.98168
782.1021, 76.19118
782.5842, 76.31950
783.0663, 76.27630
783.5484, 76.25200
784.0305, 76.54069
784.5126, 77.16402
784.9948, 77.44779
785.4769, 77.27554
785.9590, 76.92899
786.4411, 76.61028
786.9232, 76.38018
787.4053, 76.37362
787.8875, 76.71067
788.3696, 77.03371
788.8517, 77.09023
789.3338, 77.07971
789.8159, 77.24062
790.2980, 77.76910
790.7802, 78.15173
791.2623, 78.37053
791.7444, 78.44252
792.2265, 78.34505
792.7086, 78.08787
793.1907, 77.81180
793.6729, 77.48876
794.1550, 77.34951
794.6371, 77.84368
795.1192, 78.64273
795.6013, 79.22561
796.0834, 79.45116
796.5656, 79.44191
797.0477, 78.96245
797.5298, 78.40443
798.0119, 78.25127
798.4940, 78.68661
798.9761, 79.12991
799.4583, 79.59191
799.9404, 79.96181
800.4225, 80.04984
800.9046, 79.89775
801.3867, 79.75098
801.8688, 79.64957
802.3510, 79.59895
802.8331, 79.59481
803.3152, 79.64951
803.7973, 79.79093
804.2794, 80.15271
804.7615, 80.38953
805.2437, 80.25412
805.7258, 80.05959
806.2079, 80.15897
806.6900, 80.64422
807.1721, 81.08076
807.6542, 81.44076
808.1364, 81.69073
808.6185, 81.77277
809.1006, 81.70554
809.5827, 81.48458
810.0648, 81.01025
810.5469, 80.72178
811.0291, 81.10476
811.5112, 81.78421
811.9933, 82.33459
812.4754, 82.76368
812.9575, 82.88301
813.4396, 82.52634
813.9218, 82.02366
814.4039, 81.74390
814.8860, 81.69576
815.3681, 81.71724
815.8502, 81.80385
816.3323, 81.89856
816.8145, 81.97603
817.2966, 82.00381
817.7787, 81.87911
818.2608, 81.48698
818.7429, 81.25656
819.2251, 81.66325
819.7072, 82.18018
820.1893, 82.25130
820.6714, 81.53423
821.1536, 81.09938
821.6357, 81.03754
822.1178, 81.09365
822.5999, 80.98242
823.0820, 80.73403
823.5641, 80.53098
824.0463, 80.38367
824.5284, 80.35876
825.0105, 80.69050
825.4926, 81.09322
825.9747, 81.21766
826.4568, 80.93040
826.9390, 80.59974
827.4211, 80.22182
827.9032, 79.89575
828.3853, 79.68467
828.8674, 79.59792
829.3495, 79.61813
829.8317, 79.77405
830.3138, 79.91063
830.7959, 79.81587
831.2780, 79.60415
831.7601, 79.57043
832.2422, 79.75752
832.7244, 79.84041
833.2065, 79.39008
833.6886, 78.91530
834.1707, 78.85170
834.6528, 79.39517
835.1349, 79.73795
835.6171, 79.85485
836.0992, 79.81499
836.5813, 79.60079
837.0634, 79.23085
837.5455, 79.00636
838.0276, 78.92757
838.5098, 78.87850
838.9919, 78.72204
839.4740, 78.57446
839.9561, 78.56982
840.4382, 78.71504
840.9203, 78.90440
841.4025, 79.19234
841.8846, 79.42505
842.3667, 79.50742
842.8488, 79.44437
843.3309, 79.52114
843.8130, 79.76868
844.2952, 79.98624
844.7773, 80.04854
845.2594, 80.00069
845.7415, 79.93891
846.2236, 79.86121
846.7057, 79.75404
847.1879, 79.48495
847.6700, 79.30093
848.1521, 79.41614
848.6342, 79.78801
849.1163, 79.99809
849.5984, 79.94508
850.0806, 79.91301
850.5627, 80.02014
851.0448, 80.19884
851.5269, 80.20568
852.0090, 80.05892
852.4911, 79.90919
852.9733, 79.74229
853.4554, 79.69003
853.9375, 79.99234
854.4196, 80.50115
854.9017, 80.85275
855.3839, 80.79297
855.8660, 80.74304
856.3481, 80.83554
856.8302, 80.96460
857.3123, 80.84354
857.7944, 80.44183
858.2766, 80.18101
858.7587, 80.15703
859.2408, 80.34016
859.7229, 80.93820
860.2050, 81.67593
860.6871, 81.95438
861.1693, 81.23251
861.6514, 80.56895
862.1335, 80.32040
862.6156, 80.37919
863.0977, 80.60086
863.5798, 81.07626
864.0620, 81.44286
864.5441, 81.63834
865.0262, 81.80568
865.5083, 82.22671
865.9904, 82.77660
866.4726, 83.03588
866.9547, 82.88880
867.4368, 82.70165
867.9189, 82.72533
868.4011, 82.83537
868.8832, 82.91309
869.3653, 82.91501
869.8474, 82.95271
870.3295, 83.01143
870.8116, 83.13096
871.2938, 83.37410
871.7759, 83.72665
872.2580, 84.02161
872.7401, 84.25839
873.2222, 84.40604
873.7043, 84.34470
874.1865, 84.24717
874.6686, 84.27446
875.1507, 84.44120
875.6328, 84.68636
876.1149, 85.15292
876.5970, 85.51530
877.0792, 85.59299
877.5613, 85.43055
878.0434, 85.49181
878.5255, 85.78069
879.0076, 86.16648
879.4897, 86.65051
879.9719, 87.13356
880.4540, 87.42341
880.9361, 87.58000
881.4182, 87.80969
881.9003, 88.28836
882.3824, 88.75394
882.8646, 89.08801
883.3467, 89.34755
883.8288, 89.70295
884.3109, 90.19054
884.7930, 90.57943
885.2751, 90.80985
885.7573, 90.90807
886.2394, 90.77170
886.7215, 90.54436
887.2036, 90.59725
887.6857, 91.23813
888.1678, 91.87762
888.6500, 92.30526
889.1321, 92.55876
889.6142, 92.66386
890.0963, 92.46399
890.5784, 92.58152
891.0605, 93.14275
891.5427, 93.81568
892.0248, 94.20845
892.5069, 94.40958
892.9890, 94.68656
893.4711, 95.08191
893.9532, 95.48733
894.4354, 95.80160
894.9175, 96.10899
895.3996, 96.51565
895.8817, 97.09171
896.3638, 97.42332
896.8459, 97.36926
897.3281, 97.35857
897.8102, 97.75617
898.2923, 98.44959
898.7744, 98.73841
899.2565, 98.65916
899.7386, 98.61629
900.2208, 99.00367
900.7029, 99.41042
901.1850, 99.47496
901.6671, 99.24382
902.1492, 99.15942
902.6313, 99.39316
903.1135, 99.55127
903.5956, 99.49026
904.0777, 99.31657
904.5598, 99.38921
905.0419, 99.66489
905.5240, 99.77490
906.0062, 99.45205
906.4883, 99.12758
906.9704, 99.35679
907.4525, 99.80145
907.9346, 99.91610
908.4167, 99.21817
908.8989, 98.64748
909.3810, 98.21392
909.8631, 97.98703
910.3452, 98.20016
910.8273, 98.80287
911.3094, 98.98022
911.7916, 98.59359
912.2737, 98.11192
912.7558, 97.97979
913.2380, 97.97980
913.7201, 97.88369
914.2022, 97.64727
914.6843, 97.36800
915.1664, 97.02168
915.6486, 96.68307
916.1307, 96.33215
916.6128, 95.98889
917.0949, 96.08733
917.5770, 96.62638
918.0591, 97.12711
918.5413, 97.31614
919.0234, 97.28970
919.5055, 97.06806
919.9876, 96.70206
920.4697, 96.38274
920.9518, 96.12099
921.4340, 95.97560
921.9161, 96.00645
922.3982, 96.12908
922.8803, 96.07868
923.3624, 95.86522
923.8445, 95.86462
924.3267, 96.28933
924.8088, 96.71195
925.2909, 96.56506
925.7730, 96.14634
926.2551, 95.87715
926.7372, 95.74249
927.2194, 96.03459
927.7015, 97.19311
928.1836, 98.32385
928.6657, 98.46198
929.1478, 97.61010
929.6299, 97.20600
930.1121, 97.33372
930.5942, 97.68752
931.0763, 98.13203
931.5584, 98.58556
932.0405, 98.89808
932.5226, 99.05711
933.0048, 99.45596
933.4869, 100.4297
933.9690, 101.3517
934.4511, 101.9879
934.9332, 102.3936
935.4153, 102.7402
935.8975, 103.0426
936.3796, 103.5939
936.8617, 104.7128
937.3438, 105.9267
937.8259, 106.5866
938.3080, 107.0125
938.7902, 107.8279
939.2723, 109.7119
939.7544, 111.2948
940.2365, 112.2659
940.7186, 113.0565
941.2007, 114.1840
941.6829, 115.6439
942.1650, 117.4190
942.6471, 119.5501
943.1292, 121.7795
943.6113, 123.8079
944.0934, 125.8544
944.5756, 128.1419
945.0577, 130.6643
945.5398, 133.6242
946.0219, 137.0119
946.5040, 140.8140
946.9861, 144.9846
947.4683, 149.5970
947.9504, 154.7608
948.4325, 160.4719
948.9146, 166.5412
949.3967, 172.4304
949.8788, 179.0293
950.3610, 186.9729
950.8431, 196.1884
951.3252, 206.3056
951.8073, 217.1380
952.2894, 229.1965
952.7715, 242.7719
953.2537, 257.2733
953.7358, 271.3832
954.2179, 285.5153
954.7000, 301.6347
955.1821, 320.3144
955.6642, 339.4306
956.1464, 357.5529
956.6285, 375.3227
957.1106, 393.5064
957.5927, 412.2316
958.0748, 431.0396
958.5569, 449.8065
959.0391, 469.1920
959.5212, 489.8071
960.0033, 511.3663
960.4855, 532.9724
960.9676, 554.6667
961.4497, 576.0751
961.9318, 597.2961
962.4139, 618.2357
962.8961, 639.3882
963.3782, 659.9297
963.8603, 678.2360
964.3424, 694.3528
964.8245, 707.7154
965.3066, 718.7438
965.7888, 725.6446
966.2709, 726.2075
966.7530, 720.7744
967.2351, 709.8690
967.7172, 693.2980
968.1993, 672.1498
968.6815, 644.9611
969.1636, 614.4915
969.6457, 581.9042
970.1278, 547.0983
970.6099, 512.6611
971.0920, 478.5935
971.5742, 446.3133
972.0563, 417.1062
972.5384, 390.5905
973.0205, 366.1237
973.5026, 343.7335
973.9847, 323.1592
974.4669, 304.4780
974.9490, 287.6387
975.4311, 272.6014
975.9132, 259.1649
976.3953, 246.7873
976.8774, 235.4063
977.3596, 225.6902
977.8417, 218.0964
978.3238, 211.2434
978.8059, 203.6246
979.2880, 196.1429
979.7701, 189.8070
980.2523, 185.1044
980.7344, 180.5570
981.2165, 176.0062
981.6986, 171.6888
982.1807, 167.6392
982.6628, 163.8973
983.1450, 160.7278
983.6271, 158.0754
984.1092, 155.6022
984.5913, 152.9754
985.0734, 150.6146
985.5555, 148.9031
986.0377, 147.6074
986.5198, 146.0520
987.0019, 144.1055
987.4840, 142.3257
987.9661, 140.7921
988.4482, 139.4667
988.9304, 138.4849
989.4125, 137.6380
989.8946, 136.4057
990.3767, 134.5780
990.8588, 133.2011
991.3409, 133.1168
991.8231, 133.2431
992.3052, 132.8863
992.7873, 132.0845
993.2694, 131.7390
993.7515, 131.8598
994.2336, 132.1355
994.7158, 132.4347
995.1979, 132.7614
995.6800, 133.1289
996.1621, 133.5299
996.6442, 133.9451
997.1263, 134.0260
997.6085, 134.6431
998.0906, 136.0420
998.5727, 137.7791
999.0548, 139.2599
999.5369, 140.5685
1000.019, 142.2486
1000.501, 144.3818
1000.983, 146.5369
1001.465, 148.3199
1001.948, 150.0939
1002.430, 152.0806
1002.912, 154.3256
1003.394, 156.8335
1003.876, 159.7110
1004.358, 162.5802
1004.840, 165.2547
1005.322, 167.9636
1005.804, 171.4622
1006.287, 175.3799
1006.769, 178.8753
1007.251, 181.1913
1007.733, 183.6779
1008.215, 186.9757
1008.697, 190.5192
1009.179, 193.9309
1009.661, 197.2177
1010.144, 200.0424
1010.626, 202.4090
1011.108, 204.5584
1011.590, 206.9124
1012.072, 209.0207
1012.554, 210.4189
1013.036, 211.1251
1013.518, 211.5320
1014.000, 211.8709
1014.483, 211.6806
1014.965, 210.9011
1015.447, 209.4691
1015.929, 207.1670
1016.411, 204.0763
1016.893, 200.4227
1017.375, 196.0886
1017.857, 191.7060
1018.340, 187.8201
1018.822, 183.9326
1019.304, 179.4252
1019.786, 174.1270
1020.268, 169.6629
1020.750, 166.1320
1021.232, 162.7937
1021.714, 158.9492
1022.196, 155.1361
1022.679, 152.2835
1023.161, 150.1961
1023.643, 148.3541
1024.125, 146.4968
1024.607, 145.0084
1025.089, 143.9448
1025.571, 143.2513
1026.053, 142.9574
1026.536, 143.0143
1027.018, 142.9046
1027.500, 142.5457
1027.982, 142.4486
1028.464, 143.1776
1028.946, 144.1936
1029.428, 145.0789
1029.910, 145.8178
1030.392, 146.6679
1030.875, 147.6491
1031.357, 148.7132
1031.839, 149.9301
1032.321, 151.1054
1032.803, 151.6774
1033.285, 151.9675
1033.767, 152.6510
1034.249, 154.0589
1034.732, 155.6300
1035.214, 157.5338
1035.696, 159.2569
1036.178, 160.3928
1036.660, 160.9393
1037.142, 161.4375
1037.624, 161.8817
1038.106, 162.2365
1038.589, 162.5218
1039.071, 162.6667
1039.553, 162.6183
1040.035, 162.3825
1040.517, 162.0122
1040.999, 161.5647
1041.481, 160.7925
1041.963, 159.5435
1042.445, 158.2483
1042.927, 157.5510
1043.410, 157.1816
1043.892, 156.5943
1044.374, 155.6788
1044.856, 154.7920
1045.338, 154.1641
1045.820, 153.4686
1046.302, 152.5014
1046.784, 151.3572
1047.267, 150.5986
1047.749, 150.1831
1048.231, 149.6833
1048.713, 148.8701
1049.195, 148.0305
1049.677, 147.5767
1050.159, 147.1491
1050.641, 146.2188
1051.124, 144.6021
1051.606, 142.8988
1052.088, 141.0461
1052.570, 139.3343
1053.052, 138.1272
1053.534, 137.1169
1054.016, 135.6582
1054.498, 133.8322
1054.980, 132.0813
1055.463, 130.8098
1055.945, 129.3033
1056.427, 127.2636
1056.909, 125.0687
1057.391, 123.4781
1057.873, 122.3842
1058.355, 120.8073
1058.837, 118.5441
1059.319, 116.3962
1059.802, 115.2223
1060.284, 114.2633
1060.766, 112.8617
1061.248, 111.0427
1061.730, 109.7476
1062.212, 109.0920
1062.694, 108.3430
1063.176, 107.1550
1063.659, 105.8902
1064.141, 105.1610
1064.623, 104.6883
1065.105, 103.9926
1065.587, 102.8773
1066.069, 101.6772
1066.551, 100.2736
1067.033, 99.03175
1067.516, 98.27041
1067.998, 97.89513
1068.480, 97.45966
1068.962, 96.97751
1069.444, 96.53692
1069.926, 96.25950
1070.408, 95.95689
1070.890, 95.55966
1071.372, 95.07990
1071.854, 94.47503
1072.337, 93.70703
1072.819, 93.32129
1073.301, 93.41613
1073.783, 93.51952
1074.265, 93.12007
1074.747, 92.56360
1075.229, 92.15272
1075.711, 91.91564
1076.194, 91.84091
1076.676, 92.01364
1077.158, 92.11966
1077.640, 92.07901
1078.122, 91.92332
1078.604, 91.61276
1079.086, 91.24973
1079.568, 91.07107
1080.051, 91.17170
1080.533, 91.26382
1081.015, 91.20983
1081.497, 91.16454
1081.979, 91.21973
1082.461, 91.35221
1082.943, 91.40206
1083.425, 91.38078
1083.907, 91.36309
1084.390, 91.32781
1084.872, 91.38650
1085.354, 91.68359
1085.836, 92.07852
1086.318, 92.40318
1086.800, 92.66113
1087.282, 92.79577
1087.764, 92.79485
1088.247, 92.75405
1088.729, 92.57328
1089.211, 92.52021
1089.693, 93.15192
1090.175, 94.22452
1090.657, 94.74204
1091.139, 94.04913
1091.621, 93.70982
1092.104, 93.97317
1092.586, 94.56126
1093.068, 95.26493
1093.550, 95.96561
1094.032, 96.34823
1094.514, 96.37584
1094.996, 96.42834
1095.478, 96.71897
1095.960, 97.01009
1096.443, 97.20238
1096.925, 97.33495
1097.407, 97.51315
1097.889, 97.73959
1098.371, 98.03632
1098.853, 98.43243
1099.335, 98.81970
1099.817, 99.16573
1100.299, 99.43410
1100.782, 99.59003
1101.264, 99.63741
1101.746, 99.58968
1102.228, 99.43533
1102.710, 99.33688
1103.192, 99.41370
1103.674, 99.53655
1104.156, 99.59286
1104.639, 99.58244
1105.121, 99.50683
1105.603, 99.42760
1106.085, 99.15722
1106.567, 98.68125
1107.049, 98.05490
1107.531, 97.11794
1108.013, 96.14946
1108.495, 95.76076
1108.978, 95.83824
1109.460, 95.88290
1109.942, 95.89149
1110.424, 95.55582
1110.906, 94.64190
1111.388, 93.62183
1111.870, 93.21367
1112.352, 93.24682
1112.834, 92.97187
1113.317, 92.32785
1113.799, 91.65490
1114.281, 90.97029
1114.763, 90.50840
1115.245, 90.52827
1115.727, 90.79810
1116.209, 90.76014
1116.691, 90.41988
1117.174, 89.91374
1117.656, 89.24490
1118.138, 88.56926
1118.620, 87.88493
1119.102, 87.35545
1119.584, 87.22667
1120.066, 87.47970
1120.548, 87.47471
1121.031, 87.17546
1121.513, 86.86768
1121.995, 86.65954
1122.477, 86.48184
1122.959, 86.10552
1123.441, 85.76083
1123.923, 85.84615
1124.405, 86.76878
1124.887, 87.02681
1125.370, 86.38723
1125.852, 85.68087
1126.334, 85.39428
1126.816, 85.36831
1127.298, 85.30338
1127.780, 85.22019
1128.262, 85.16828
1128.744, 85.23612
1129.227, 85.22697
1129.709, 85.09946
1130.191, 84.93202
1130.673, 84.78669
1131.155, 84.65732
1131.637, 84.49226
1132.119, 84.30628
1132.601, 84.19022
1133.083, 84.22469
1133.566, 84.29606
1134.048, 84.37833
1134.530, 84.46421
1135.012, 84.58401
1135.494, 84.71986
1135.976, 84.60109
1136.458, 84.20793
1136.940, 83.96674
1137.422, 84.38169
1137.905, 84.82937
1138.387, 84.88699
1138.869, 84.70435
1139.351, 84.66367
1139.833, 84.77324
1140.315, 84.80778
1140.797, 84.71274
1141.279, 84.64238
1141.762, 84.72993
1142.244, 84.90627
1142.726, 85.14113
1143.208, 85.42132
1143.690, 85.63242
1144.172, 85.74554
1144.654, 85.96681
1145.136, 86.39389
1145.619, 86.83387
1146.101, 87.04774
1146.583, 87.12796
1147.065, 87.15981
1147.547, 87.12656
1148.029, 87.25972
1148.511, 87.64375
1148.993, 87.91384
1149.475, 87.86491
1149.958, 87.67900
1150.440, 87.63834
1150.922, 87.68688
1151.404, 87.72471
1151.886, 87.73354
1152.368, 87.74335
1152.850, 87.87439
1153.332, 87.75132
1153.814, 86.92719
1154.297, 85.79825
1154.779, 85.35078
1155.261, 85.44530
1155.743, 85.71062
1156.225, 86.51633
1156.707, 86.64914
1157.189, 85.57073
1157.671, 84.46114
1158.154, 84.51762
1158.636, 85.38548
1159.118, 85.63905
1159.600, 85.32728
1160.082, 84.81809
1160.564, 83.94125
1161.046, 83.35543
1161.528, 83.38908
1162.010, 83.61992
1162.493, 83.59380
1162.975, 83.33383
1163.457, 82.92573
1163.939, 82.39720
1164.421, 82.00986
1164.903, 82.06348
1165.385, 82.12318
1165.867, 81.89098
1166.349, 81.61315
1166.832, 81.81718
1167.314, 82.44241
1167.796, 82.63057
1168.278, 82.28488
1168.760, 81.81988
1169.242, 81.36963
1169.724, 81.04340
1170.206, 80.98256
1170.689, 81.07493
1171.171, 81.06045
1171.653, 80.94081
1172.135, 80.78512
1172.617, 80.60063
1173.099, 80.43869
1173.581, 80.34753
1174.063, 80.29337
1174.546, 80.24371
1175.028, 80.20644
1175.510, 80.25362
1175.992, 80.39098
1176.474, 80.46728
1176.956, 80.42396
1177.438, 80.39487
1177.920, 80.48458
1178.402, 80.66174
1178.885, 81.00608
1179.367, 81.49012
1179.849, 81.44154
1180.331, 80.79491
1180.813, 80.33789
1181.295, 80.40163
1181.777, 80.60384
1182.259, 80.55070
1182.742, 80.41322
1183.224, 80.40723
1183.706, 80.57232
1184.188, 80.57971
1184.670, 80.40588
1185.152, 80.23403
1185.634, 80.10291
1186.116, 80.08743
1186.599, 80.51170
1187.081, 80.99197
1187.563, 80.90703
1188.045, 79.94846
1188.527, 79.57658
1189.009, 79.89086
1189.491, 80.20360
1189.973, 80.05875
1190.455, 79.81416
1190.938, 79.98298
1191.420, 80.33298
1191.902, 80.45848
1192.384, 80.10640
1192.866, 80.15536
1193.348, 80.70576
1193.830, 81.17833
1194.312, 81.18044
1194.794, 80.90871
1195.277, 80.49883
1195.759, 80.03312
1196.241, 79.68587
1196.723, 79.46351
1197.205, 79.40044
1197.687, 79.51030
1198.169, 79.71983
1198.651, 80.08973
1199.134, 80.43831
1199.616, 80.52143
1200.098, 80.38315
1200.580, 80.10540
1201.062, 79.47580
1201.544, 79.31763
1202.026, 79.76857
1202.508, 80.26566
1202.990, 80.29233
1203.473, 80.09238
1203.955, 79.92008
1204.437, 79.79807
1204.919, 79.78249
1205.401, 80.03213
1205.883, 79.96333
1206.365, 79.44772
1206.847, 78.95177
1207.329, 78.98203
1207.812, 79.25298
1208.294, 79.39063
1208.776, 79.43499
1209.258, 79.64148
1209.740, 80.17167
1210.222, 80.51279
1210.704, 80.60596
1211.186, 80.52740
1211.669, 80.19895
1212.151, 79.85401
1212.633, 79.93652
1213.115, 80.33045
1213.597, 80.22379
1214.079, 79.24270
1214.561, 78.74761
1215.043, 78.98546
1215.526, 79.49147
1216.008, 79.90626
1216.490, 80.21432
1216.972, 80.41739
1217.454, 80.50131
1217.936, 80.34120
1218.418, 79.76921
1218.900, 79.59727
1219.382, 80.04253
1219.865, 80.54269
1220.347, 80.34602
1220.829, 79.95064
1221.311, 79.94526
1221.793, 80.32697
1222.275, 80.62693
1222.757, 80.84242
1223.239, 80.92417
1223.722, 80.87109
1224.204, 80.64581
1224.686, 79.96386
1225.168, 79.26702
1225.650, 79.08027
1226.132, 79.39402
1226.614, 79.52747
1227.096, 79.43930
1227.578, 79.36488
1228.061, 79.35314
1228.543, 79.37144
1229.025, 79.31505
1229.507, 79.32434
1229.989, 79.57224
1230.471, 80.04549
1230.953, 80.55592
1231.435, 81.15927
1231.917, 81.24484
1232.400, 80.56923
1232.882, 79.86270
1233.364, 79.83573
1233.846, 80.08427
1234.328, 80.32854
1234.810, 80.52696
1235.292, 80.48686
1235.774, 80.18913
1236.257, 80.17646
1236.739, 80.65868
1237.221, 81.03699
1237.703, 80.67690
1238.185, 80.10992
1238.667, 79.72398
1239.149, 79.51189
1239.631, 79.48335
1240.114, 79.62756
1240.596, 79.56062
1241.078, 79.11784
1241.560, 78.86625
1242.042, 79.56887
1242.524, 80.28216
1243.006, 80.29518
1243.488, 79.81137
1243.970, 79.59184
1244.453, 79.60857
1244.935, 79.65301
1245.417, 79.67066
1245.899, 79.73635
1246.381, 79.95854
1246.863, 80.18430
1247.345, 80.38149
1247.827, 80.49303
1248.309, 80.16942
1248.792, 79.56104
1249.274, 79.40540
1249.756, 79.97657
1250.238, 80.35533
1250.720, 79.83395
1251.202, 79.32325
1251.684, 79.18377
1252.166, 79.32813
1252.649, 79.62402
1253.131, 80.00804
1253.613, 80.32401
1254.095, 80.55808
1254.577, 80.57320
1255.059, 80.13030
1255.541, 79.75461
1256.023, 79.64745
1256.505, 79.69395
1256.988, 79.66789
1257.470, 79.60990
1257.952, 79.63269
1258.434, 79.78207
1258.916, 79.77696
1259.398, 79.43410
1259.880, 79.28259
1260.362, 79.55237
1260.844, 79.99755
1261.327, 80.28626
1261.809, 80.44289
1262.291, 80.48405
1262.773, 80.39954
1263.255, 80.35740
1263.737, 80.39927
1264.219, 80.34818
1264.701, 80.10467
1265.184, 79.86366
1265.666, 79.90646
1266.148, 80.06779
1266.630, 80.17432
1267.112, 80.20158
1267.594, 80.12374
1268.076, 79.91269
1268.558, 79.82267
1269.041, 79.95518
1269.523, 80.12342
1270.005, 80.12919
1270.487, 80.09946
1270.969, 80.14433
1271.451, 80.26237
1271.933, 80.49224
1272.415, 80.82911
1272.897, 80.94221
1273.380, 80.72190
1273.862, 80.44704
1274.344, 80.27042
1274.826, 80.16051
1275.308, 80.08251
1275.790, 80.05090
1276.272, 80.16402
1276.754, 80.38344
1277.237, 80.51331
1277.719, 80.51451
1278.201, 80.40254
1278.683, 79.99890
1279.165, 79.71525
1279.647, 79.73252
1280.129, 79.93967
1280.611, 80.13789
1281.094, 80.32427
1281.576, 80.51942
1282.058, 80.73357
1282.540, 80.80045
1283.022, 80.59145
1283.504, 80.34739
1283.986, 80.08981
1284.468, 79.90453
1284.950, 79.97139
1285.432, 80.17873
1285.915, 80.33810
1286.397, 80.43185
1286.879, 80.63571
1287.361, 81.04670
1287.843, 81.28658
1288.325, 81.27212
1288.807, 81.05198
1289.289, 80.42317
1289.772, 79.81124
1290.254, 79.74915
1290.736, 80.18651
1291.218, 80.48555
1291.700, 80.64753
1292.182, 80.60577
1292.664, 80.32609
1293.146, 80.07910
1293.629, 80.15182
1294.111, 80.28152
1294.593, 80.27982
1295.075, 80.19911
1295.557, 80.13933
1296.039, 80.10056
1296.521, 80.05472
1297.003, 80.00571
1297.485, 80.10171
1297.968, 80.84443
1298.450, 81.14986
1298.932, 80.40890
1299.414, 79.39477
1299.896, 79.40659
1300.378, 80.10031
1300.860, 80.42025
1301.342, 80.31718
1301.824, 80.21394
1302.307, 80.13882
##END=



