##NAMES=Chiolite
##RRUFFID=R050412
##IDEAL CHEMISTRY=Na_5_Al_3_F_14_
##LOCALITY=Ivigtut cryolite deposit, Arsuk Fjord, Greenland
##OWNER=RRUFF
##SOURCE=G.R. Rossman
##DESCRIPTION=Colorless fragment
##STATUS=The identification of this mineral has been confirmed by X-ray diffraction and chemical analysis
##URL=rruff.info/R050412
##MEASURED CHEMISTRY=(Na_4.96_K_0.04_)_Î£=5_Al_3.00_F_14.00_ ; trace amounts of Si and Ca
92.52344, 40.12244
93.00555, 40.00219
93.48767, 40.04489
93.96979, 40.99072
94.45190, 41.98582
94.93402, 42.81809
95.41614, 43.05157
95.89825, 43.00451
96.38037, 43.07489
96.86249, 43.19881
97.34460, 43.20652
97.82672, 42.88895
98.30884, 42.80187
98.79095, 43.19145
99.27307, 43.82042
99.75519, 44.27352
100.2373, 44.40433
100.7194, 44.35080
101.2015, 44.59548
101.6837, 45.25547
102.1658, 46.06189
102.6479, 46.78648
103.1300, 47.40625
103.6121, 48.13257
104.0942, 49.14445
104.5764, 50.36200
105.0585, 51.70574
105.5406, 53.27382
106.0227, 54.96484
106.5048, 56.46114
106.9869, 57.75410
107.4691, 58.80059
107.9512, 59.61498
108.4333, 60.21505
108.9154, 60.63566
109.3975, 60.87758
109.8796, 60.91544
110.3618, 60.92677
110.8439, 61.04956
111.3260, 61.03600
111.8081, 60.74415
112.2902, 60.17273
112.7723, 59.42936
113.2544, 58.66092
113.7366, 57.87189
114.2187, 57.03926
114.7008, 56.17289
115.1829, 55.26094
115.6650, 54.31541
116.1471, 53.33840
116.6293, 52.29189
117.1114, 51.04731
117.5935, 49.44389
118.0756, 47.97197
118.5577, 46.84881
119.0398, 45.95081
119.5220, 44.94674
120.0041, 43.63253
120.4862, 42.17780
120.9683, 40.95176
121.4504, 39.97899
121.9325, 39.18039
122.4147, 38.56440
122.8968, 38.14830
123.3789, 37.70185
123.8610, 37.14821
124.3431, 36.48601
124.8252, 35.66762
125.3074, 34.62054
125.7895, 33.47942
126.2716, 32.51519
126.7537, 31.75593
127.2358, 31.16441
127.7179, 30.78577
128.2001, 30.51867
128.6822, 30.22315
129.1643, 29.80759
129.6464, 29.28378
130.1285, 28.82509
130.6107, 28.53765
131.0928, 28.21484
131.5749, 27.79381
132.0570, 27.29631
132.5391, 26.76913
133.0212, 26.24598
133.5034, 25.70954
133.9855, 25.31464
134.4676, 25.14806
134.9497, 25.02154
135.4318, 24.82614
135.9139, 24.55410
136.3960, 24.27234
136.8782, 24.06351
137.3603, 23.94760
137.8424, 23.79929
138.3245, 23.57169
138.8066, 23.32382
139.2887, 23.14823
139.7709, 23.08495
140.2530, 23.01881
140.7351, 22.78032
141.2172, 22.39009
141.6993, 21.99257
142.1814, 21.66639
142.6636, 21.38885
143.1457, 21.04441
143.6278, 20.46633
144.1099, 19.99738
144.5920, 19.98586
145.0741, 20.42380
145.5563, 20.86974
146.0384, 20.87772
146.5205, 20.38252
147.0026, 20.01025
147.4847, 19.95990
147.9668, 20.00870
148.4490, 20.07506
148.9311, 20.13299
149.4132, 20.15870
149.8953, 20.10366
150.3774, 19.90176
150.8595, 19.75355
151.3417, 19.68613
151.8238, 19.66100
152.3059, 19.63866
152.7880, 19.60601
153.2701, 19.59050
153.7522, 19.66355
154.2344, 20.03094
154.7165, 20.24927
155.1986, 20.17122
155.6807, 19.97104
156.1628, 19.89618
156.6449, 20.08430
157.1271, 20.43450
157.6092, 20.52109
158.0913, 20.18658
158.5734, 19.82518
159.0555, 19.51193
159.5376, 19.25074
160.0198, 19.05940
160.5019, 18.96946
160.9840, 18.94712
161.4661, 18.86188
161.9482, 18.65982
162.4303, 18.45397
162.9125, 18.34969
163.3946, 18.34117
163.8767, 18.28505
164.3588, 18.08498
164.8409, 17.78072
165.3230, 17.42534
165.8052, 16.94702
166.2873, 16.49548
166.7694, 16.28873
167.2515, 16.37154
167.7336, 16.55012
168.2157, 16.79612
168.6979, 17.05960
169.1800, 17.29532
169.6621, 17.51556
170.1442, 17.67251
170.6263, 17.59084
171.1084, 17.01464
171.5906, 16.61502
172.0727, 16.63715
172.5548, 16.93290
173.0369, 17.32278
173.5190, 17.73528
174.0011, 18.14205
174.4833, 18.30065
174.9654, 17.90334
175.4475, 17.54309
175.9296, 17.29090
176.4117, 17.16895
176.8938, 17.20588
177.3760, 17.44573
177.8581, 17.89773
178.3402, 18.18691
178.8223, 18.19156
179.3044, 18.17328
179.7865, 18.23657
180.2687, 18.36098
180.7508, 18.45450
181.2329, 18.42719
181.7150, 18.26203
182.1971, 18.20900
182.6792, 18.26454
183.1614, 18.41348
183.6435, 18.68853
184.1256, 19.07462
184.6077, 19.47907
185.0898, 19.84093
185.5719, 20.14861
186.0541, 20.33621
186.5362, 20.21840
187.0183, 20.08494
187.5004, 20.25690
187.9825, 20.78262
188.4646, 21.34068
188.9468, 21.54715
189.4289, 21.50898
189.9110, 21.68971
190.3931, 22.41367
190.8752, 23.35100
191.3573, 23.95825
191.8395, 24.10156
192.3216, 24.18304
192.8037, 24.48738
193.2858, 24.96080
193.7679, 25.51167
194.2500, 26.19194
194.7322, 26.92727
195.2143, 27.46606
195.6964, 27.68664
196.1785, 27.88158
196.6606, 28.19389
197.1427, 28.60434
197.6249, 29.06817
198.1070, 29.54759
198.5891, 30.04930
199.0712, 30.65692
199.5533, 31.57148
200.0354, 32.36370
200.5176, 32.85130
200.9997, 33.08876
201.4818, 33.21087
201.9639, 33.32234
202.4460, 33.42612
202.9281, 33.41927
203.4103, 33.17371
203.8924, 32.92703
204.3745, 32.85261
204.8566, 32.85291
205.3387, 32.66658
205.8208, 32.01628
206.3030, 30.81064
206.7851, 29.98441
207.2672, 29.90176
207.7493, 29.81303
208.2314, 29.39952
208.7135, 28.70170
209.1957, 27.95617
209.6778, 27.38099
210.1599, 27.01031
210.6420, 26.55405
211.1241, 25.86875
211.6062, 25.23944
212.0884, 24.82862
212.5705, 24.62715
213.0526, 24.51849
213.5347, 24.41665
214.0168, 24.32500
214.4989, 24.14899
214.9811, 23.75544
215.4632, 23.38660
215.9453, 23.21240
216.4274, 23.23689
216.9095, 23.34552
217.3916, 23.46150
217.8737, 23.58205
218.3559, 23.65878
218.8380, 23.62610
219.3201, 23.59192
219.8022, 23.73511
220.2843, 24.06836
220.7664, 24.24518
221.2486, 23.86522
221.7307, 23.06149
222.2128, 22.43527
222.6949, 22.20934
223.1770, 22.12707
223.6591, 21.89804
224.1413, 21.49731
224.6234, 21.06697
225.1055, 20.69618
225.5876, 20.36997
226.0697, 20.06926
226.5518, 19.80626
227.0340, 19.55861
227.5161, 19.26236
227.9982, 18.87367
228.4803, 18.59199
228.9624, 18.65252
229.4445, 18.86366
229.9267, 18.97948
230.4088, 18.89612
230.8909, 18.68049
231.3730, 18.40799
231.8551, 17.97838
232.3372, 17.75988
232.8194, 18.06430
233.3015, 18.59363
233.7836, 19.01261
234.2657, 19.17812
234.7478, 19.16397
235.2299, 19.11594
235.7121, 18.98451
236.1942, 18.92410
236.6763, 18.99353
237.1584, 19.13835
237.6405, 19.31632
238.1227, 19.51709
238.6048, 19.71529
239.0869, 19.83606
239.5690, 19.80761
240.0511, 19.82907
240.5332, 19.96170
241.0154, 20.14362
241.4975, 20.32006
241.9796, 20.46802
242.4617, 20.58804
242.9438, 20.67548
243.4259, 20.69376
243.9081, 20.73775
244.3902, 20.87655
244.8723, 21.01571
245.3544, 21.05009
245.8365, 20.94112
246.3186, 20.75457
246.8008, 20.64536
247.2829, 20.74134
247.7650, 20.72528
248.2471, 20.50031
248.7292, 20.20801
249.2113, 19.99914
249.6935, 19.92017
250.1756, 19.87672
250.6577, 19.67854
251.1398, 19.14235
251.6219, 18.71331
252.1040, 18.44838
252.5862, 18.25738
253.0683, 18.07082
253.5504, 17.86701
254.0325, 17.65246
254.5146, 17.43825
254.9967, 17.23209
255.4789, 17.01190
255.9610, 16.77068
256.4431, 16.52119
256.9252, 16.24655
257.4073, 15.94914
257.8894, 15.69916
258.3716, 15.60300
258.8537, 15.75861
259.3358, 15.81412
259.8179, 15.71801
260.3000, 15.55342
260.7821, 15.38142
261.2643, 15.21451
261.7464, 15.04853
262.2285, 14.87204
262.7106, 14.67560
263.1927, 14.53021
263.6748, 14.48104
264.1570, 14.45560
264.6391, 14.38672
265.1212, 14.26915
265.6033, 14.15173
266.0854, 14.07436
266.5675, 14.04259
267.0497, 14.05321
267.5318, 14.15774
268.0139, 14.26888
268.4960, 14.33223
268.9781, 14.34199
269.4602, 14.28411
269.9424, 14.12223
270.4245, 13.87269
270.9066, 13.67420
271.3887, 13.50276
271.8708, 13.40360
272.3529, 13.46317
272.8351, 13.66559
273.3172, 13.82612
273.7993, 13.82496
274.2814, 13.69334
274.7635, 13.56606
275.2456, 13.42122
275.7278, 13.30886
276.2099, 13.27026
276.6920, 13.30047
277.1741, 13.36975
277.6562, 13.51212
278.1383, 13.64904
278.6205, 13.61861
279.1026, 13.32569
279.5847, 13.07017
280.0668, 13.08198
280.5489, 13.32259
281.0310, 13.57122
281.5132, 13.77667
281.9953, 13.92441
282.4774, 13.98299
282.9595, 13.93042
283.4416, 13.91734
283.9237, 14.12975
284.4059, 14.48509
284.8880, 14.60197
285.3701, 14.25813
285.8522, 13.82391
286.3343, 13.71114
286.8164, 13.90287
287.2986, 14.10589
287.7807, 14.13015
288.2628, 14.03890
288.7449, 14.06048
289.2270, 14.29821
289.7091, 14.51938
290.1913, 14.49521
290.6734, 14.28667
291.1555, 14.10760
291.6376, 14.06346
292.1197, 14.11873
292.6018, 14.20396
293.0840, 14.33933
293.5661, 14.44814
294.0482, 14.43475
294.5303, 14.36302
295.0124, 14.35437
295.4945, 14.48909
295.9767, 14.69657
296.4588, 14.86065
296.9409, 14.98425
297.4230, 15.05358
297.9051, 14.94861
298.3872, 14.81945
298.8694, 14.87430
299.3515, 15.23842
299.8336, 15.69382
300.3157, 15.92891
300.7978, 15.90221
301.2799, 15.91439
301.7621, 16.15268
302.2442, 16.44561
302.7263, 16.62174
303.2084, 16.63182
303.6905, 16.63776
304.1726, 16.82394
304.6548, 17.19805
305.1369, 17.56153
305.6190, 17.86974
306.1011, 18.14901
306.5832, 18.42251
307.0653, 18.69107
307.5475, 18.93488
308.0296, 19.10407
308.5117, 19.21027
308.9938, 19.40204
309.4759, 19.71685
309.9580, 20.10851
310.4402, 20.56801
310.9223, 21.07535
311.4044, 21.56112
311.8865, 21.96097
312.3686, 22.29579
312.8507, 22.66654
313.3329, 23.08954
313.8150, 23.52365
314.2971, 23.98813
314.7792, 24.44682
315.2613, 24.83077
315.7434, 25.09102
316.2256, 25.27067
316.7077, 25.48469
317.1898, 25.78679
317.6719, 25.97398
318.1540, 25.91963
318.6361, 25.72214
319.1183, 25.48538
319.6004, 25.25494
320.0825, 24.94967
320.5646, 24.41631
321.0467, 23.61283
321.5288, 22.85000
322.0110, 22.26361
322.4931, 21.73541
322.9752, 21.17504
323.4573, 20.56997
323.9394, 19.97428
324.4215, 19.42820
324.9037, 18.93476
325.3858, 18.49847
325.8679, 18.13555
326.3500, 17.82358
326.8321, 17.54876
327.3142, 17.30751
327.7964, 17.08715
328.2785, 16.85475
328.7606, 16.62906
329.2427, 16.51685
329.7248, 16.59731
330.2069, 16.66512
330.6891, 16.57695
331.1712, 16.38718
331.6533, 16.20313
332.1354, 16.03321
332.6175, 15.91927
333.0996, 15.97613
333.5818, 16.25865
334.0639, 16.53597
334.5460, 16.66140
335.0281, 16.72662
335.5102, 16.83780
335.9923, 17.04114
336.4745, 17.25525
336.9566, 17.37684
337.4387, 17.39966
337.9208, 17.41986
338.4029, 17.37400
338.8850, 17.41795
339.3671, 17.75291
339.8492, 18.41674
340.3314, 19.07500
340.8135, 19.47607
341.2956, 19.65176
341.7777, 19.75496
342.2598, 19.72183
342.7419, 19.75845
343.2241, 20.06766
343.7062, 20.60557
344.1883, 21.15698
344.6704, 21.59378
345.1525, 21.97736
345.6346, 22.44750
346.1168, 23.02685
346.5989, 23.63973
347.0810, 24.20280
347.5631, 24.76058
348.0452, 25.41059
348.5273, 26.20758
349.0095, 27.07976
349.4916, 27.96318
349.9737, 28.85492
350.4558, 29.73188
350.9379, 30.52936
351.4200, 31.33674
351.9022, 32.32570
352.3843, 33.59855
352.8664, 34.77819
353.3485, 35.56000
353.8306, 36.02289
354.3127, 36.50327
354.7949, 37.16182
355.2770, 37.75205
355.7591, 38.01499
356.2412, 37.97783
356.7233, 37.59935
357.2054, 36.72352
357.6876, 35.54183
358.1697, 34.35295
358.6518, 33.20079
359.1339, 31.98995
359.6160, 30.59093
360.0981, 29.04295
360.5803, 27.61069
361.0624, 26.39278
361.5445, 25.25585
362.0266, 24.09642
362.5087, 22.91866
362.9908, 21.78325
363.4730, 20.70344
363.9551, 19.70929
364.4372, 18.85040
364.9193, 18.14058
365.4014, 17.52988
365.8835, 17.05615
366.3657, 16.66502
366.8478, 16.22692
367.3299, 15.68797
367.8120, 15.14340
368.2941, 14.75740
368.7762, 14.56718
369.2584, 14.35713
369.7405, 14.05173
370.2226, 13.74186
370.7047, 13.52567
371.1868, 13.41122
371.6689, 13.33188
372.1511, 13.22991
372.6332, 13.10382
373.1153, 12.98663
373.5974, 12.86854
374.0795, 12.76676
374.5616, 12.68968
375.0438, 12.63535
375.5259, 12.59844
376.0080, 12.57741
376.4901, 12.56928
376.9722, 12.56408
377.4543, 12.56000
377.9365, 12.56097
378.4186, 12.56314
378.9007, 12.57241
379.3828, 12.58275
379.8649, 12.59595
380.3470, 12.64619
380.8292, 12.79101
381.3113, 13.09192
381.7934, 13.30220
382.2755, 13.37683
382.7576, 13.41340
383.2397, 13.47264
383.7219, 13.54675
384.2040, 13.58043
384.6861, 13.51939
385.1682, 13.37506
385.6503, 13.33356
386.1324, 13.57429
386.6146, 13.72072
387.0967, 13.68314
387.5788, 13.52197
388.0609, 13.28505
388.5430, 12.99480
389.0251, 12.71631
389.5073, 12.60906
389.9894, 12.85314
390.4715, 12.88221
390.9536, 12.50953
391.4357, 12.06628
391.9178, 11.74959
392.4000, 11.58119
392.8821, 11.47267
393.3642, 11.33926
393.8463, 11.17883
394.3284, 11.05865
394.8105, 10.98886
395.2927, 10.95134
395.7748, 10.98553
396.2569, 11.03815
396.7390, 11.01395
397.2211, 10.84901
397.7032, 10.61565
398.1854, 10.47052
398.6675, 10.42024
399.1496, 10.43849
399.6317, 10.69657
400.1138, 10.91109
400.5959, 10.78673
401.0781, 10.28278
401.5602, 9.771061
402.0423, 9.613494
402.5244, 9.780950
403.0065, 9.970310
403.4886, 10.22983
403.9708, 10.37752
404.4529, 10.20181
404.9350, 9.815796
405.4171, 9.539613
405.8992, 9.583981
406.3813, 9.780060
406.8635, 9.860277
407.3456, 9.813125
407.8277, 9.754514
408.3098, 9.726579
408.7919, 9.730083
409.2740, 9.764661
409.7562, 9.837949
410.2383, 9.922332
410.7204, 10.08052
411.2025, 10.24256
411.6846, 10.13838
412.1667, 9.609346
412.6489, 9.057946
413.1310, 9.062651
413.6131, 9.602641
414.0952, 10.02378
414.5773, 10.19485
415.0594, 10.21303
415.5416, 10.10980
416.0237, 9.909136
416.5058, 9.734983
416.9879, 9.667123
417.4700, 9.693890
417.9521, 9.748565
418.4343, 9.872992
418.9164, 9.970578
419.3985, 9.995753
419.8806, 9.983900
420.3627, 9.957767
420.8448, 9.926160
421.3270, 9.966414
421.8091, 10.22606
422.2912, 10.89111
422.7733, 11.21192
423.2554, 10.99704
423.7375, 10.63519
424.2197, 10.25215
424.7018, 9.915160
425.1839, 9.725570
425.6660, 9.764073
426.1481, 10.00439
426.6302, 10.27718
427.1124, 10.70577
427.5945, 11.00522
428.0766, 11.09730
428.5587, 11.06865
429.0408, 10.98238
429.5229, 10.86560
430.0051, 10.75656
430.4872, 10.70894
430.9693, 10.73011
431.4514, 10.78213
431.9335, 10.87284
432.4156, 10.99004
432.8978, 11.14196
433.3799, 11.31801
433.8620, 11.50187
434.3441, 11.69812
434.8262, 11.88208
435.3083, 11.95731
435.7905, 11.86210
436.2726, 11.82901
436.7547, 11.97759
437.2368, 12.20776
437.7189, 12.44130
438.2010, 12.66368
438.6832, 12.89258
439.1653, 13.15817
439.6474, 13.44842
440.1295, 13.70628
440.6116, 13.93315
441.0938, 14.10381
441.5759, 14.10812
442.0580, 14.02104
442.5401, 14.09684
443.0222, 14.63240
443.5043, 15.20552
443.9865, 15.37169
444.4686, 15.16047
444.9507, 14.84196
445.4328, 14.49150
445.9149, 14.16160
446.3970, 13.98002
446.8792, 13.97125
447.3613, 14.00284
447.8434, 14.10781
448.3255, 14.20209
448.8076, 14.15602
449.2897, 13.95500
449.7719, 13.73311
450.2540, 13.63040
450.7361, 13.65695
451.2182, 13.54845
451.7003, 13.12854
452.1824, 12.78703
452.6646, 12.73325
453.1467, 12.83812
453.6288, 12.86566
454.1109, 12.71210
454.5930, 12.48643
455.0751, 12.42237
455.5573, 12.70640
456.0394, 12.78086
456.5215, 12.52126
457.0036, 12.19463
457.4857, 11.90994
457.9678, 11.69789
458.4500, 11.58189
458.9321, 11.60598
459.4142, 11.73234
459.8963, 11.72242
460.3784, 11.45767
460.8605, 11.26913
461.3427, 11.28377
461.8248, 11.38379
462.3069, 11.44570
462.7890, 11.43894
463.2711, 11.45102
463.7532, 11.63449
464.2354, 11.96717
464.7175, 12.10032
465.1996, 11.91192
465.6817, 11.64691
466.1638, 11.40776
466.6459, 11.22579
467.1281, 11.20023
467.6102, 11.45559
468.0923, 11.79878
468.5744, 12.04848
469.0565, 12.20653
469.5386, 12.26196
470.0208, 12.18176
470.5029, 12.03256
470.9850, 11.91653
471.4671, 11.82012
471.9492, 11.79970
472.4313, 11.95867
472.9135, 12.14861
473.3956, 12.15720
473.8777, 11.99186
474.3598, 11.91027
474.8419, 12.14756
475.3240, 12.64871
475.8062, 12.85765
476.2883, 12.57002
476.7704, 12.28602
477.2525, 12.06250
477.7346, 11.91486
478.2167, 11.87163
478.6989, 11.93453
479.1810, 12.05851
479.6631, 12.19546
480.1452, 12.35437
480.6273, 12.47490
481.1094, 12.46807
481.5916, 12.51397
482.0737, 12.70528
482.5558, 12.98459
483.0379, 13.26526
483.5200, 13.51517
484.0021, 13.70353
484.4843, 13.73762
484.9664, 13.56471
485.4485, 13.48191
485.9306, 13.59641
486.4127, 13.78018
486.8948, 13.97791
487.3770, 14.17732
487.8591, 14.33944
488.3412, 14.42462
488.8233, 14.46272
489.3054, 14.50587
489.7875, 14.55364
490.2697, 14.60977
490.7518, 14.65556
491.2339, 14.72563
491.7160, 14.88663
492.1981, 15.16888
492.6802, 15.45027
493.1624, 15.68180
493.6445, 15.87817
494.1266, 16.04833
494.6087, 16.19607
495.0908, 16.35725
495.5729, 16.56732
496.0551, 16.82557
496.5372, 17.08100
497.0193, 17.34475
497.5014, 17.59286
497.9835, 17.78410
498.4656, 17.96797
498.9478, 18.20931
499.4299, 18.53024
499.9120, 18.91827
500.3941, 19.36444
500.8762, 19.90195
501.3583, 20.37681
501.8405, 20.77657
502.3226, 21.12460
502.8047, 21.34449
503.2868, 21.53105
503.7689, 21.83608
504.2510, 22.33517
504.7331, 22.99094
505.2152, 23.79312
505.6974, 24.79288
506.1795, 25.62568
506.6616, 26.05738
507.1437, 26.44635
507.6258, 27.04035
508.1079, 27.82991
508.5901, 28.69938
509.0722, 29.64734
509.5543, 30.61635
510.0364, 31.46241
510.5185, 32.18849
511.0006, 33.12267
511.4828, 34.49341
511.9649, 36.09566
512.4470, 37.45387
512.9291, 38.45833
513.4113, 39.63467
513.8934, 41.09002
514.3755, 42.78975
514.8576, 44.75886
515.3397, 46.96716
515.8218, 49.22599
516.3040, 51.41626
516.7861, 53.54217
517.2682, 55.60056
517.7503, 57.36181
518.2324, 59.34287
518.7145, 61.57085
519.1967, 64.06912
519.6788, 66.88902
520.1609, 70.02310
520.6430, 73.39178
521.1251, 76.93593
521.6072, 80.67174
522.0894, 84.42358
522.5715, 88.07519
523.0536, 91.95835
523.5357, 96.19961
524.0178, 100.6957
524.4999, 105.2986
524.9821, 109.9653
525.4642, 114.8859
525.9463, 120.3980
526.4284, 126.3468
526.9105, 132.2463
527.3926, 138.0395
527.8748, 143.6476
528.3569, 149.1435
528.8390, 154.4104
529.3211, 159.1234
529.8032, 163.3689
530.2853, 166.8941
530.7675, 169.5878
531.2496, 171.4428
531.7317, 172.5331
532.2138, 172.8889
532.6959, 172.1799
533.1780, 169.9702
533.6602, 166.1247
534.1423, 161.4783
534.6244, 155.9712
535.1065, 149.8407
535.5886, 142.8638
536.0707, 135.4315
536.5529, 128.0937
537.0350, 121.1155
537.5171, 114.2758
537.9992, 107.2550
538.4813, 99.93209
538.9634, 93.10778
539.4456, 87.04636
539.9277, 81.30006
540.4098, 75.63583
540.8919, 70.17264
541.3740, 65.15966
541.8561, 60.72316
542.3383, 56.72053
542.8204, 53.01836
543.3025, 49.62117
543.7846, 46.61293
544.2667, 44.10211
544.7488, 41.81668
545.2310, 39.40968
545.7131, 36.91198
546.1952, 34.68405
546.6773, 32.87267
547.1594, 31.27590
547.6415, 29.79700
548.1237, 28.42683
548.6058, 27.12115
549.0879, 25.86707
549.5700, 24.70997
550.0521, 23.74800
550.5342, 23.09943
551.0164, 22.29431
551.4985, 21.11251
551.9806, 20.02889
552.4627, 19.26435
552.9448, 18.74349
553.4269, 18.30961
553.9091, 17.89358
554.3912, 17.47802
554.8733, 17.01358
555.3554, 16.47868
555.8375, 16.04054
556.3196, 15.83613
556.8018, 15.59721
557.2839, 15.11426
557.7660, 14.46163
558.2481, 13.84783
558.7302, 13.30699
559.2123, 12.88563
559.6945, 12.70837
560.1766, 12.71614
560.6587, 12.63182
561.1408, 12.35246
561.6229, 12.01805
562.1050, 11.80849
562.5872, 11.75151
563.0693, 11.63010
563.5514, 11.36504
564.0335, 11.11304
564.5156, 10.95885
564.9977, 10.87450
565.4799, 10.79855
565.9620, 10.70733
566.4441, 10.62995
566.9262, 10.63543
567.4083, 10.78171
567.8904, 10.77427
568.3726, 10.45175
568.8547, 10.13619
569.3368, 9.933344
569.8189, 9.811357
570.3010, 9.712182
570.7831, 9.613647
571.2653, 9.530203
571.7474, 9.488046
572.2295, 9.481168
572.7116, 9.449378
573.1937, 9.362414
573.6758, 9.303044
574.1580, 9.391545
574.6401, 9.573844
575.1222, 9.635072
575.6043, 9.441317
576.0864, 9.252023
576.5685, 9.195207
577.0507, 9.227735
577.5328, 9.295095
578.0149, 9.379615
578.4970, 9.455325
578.9791, 9.502549
579.4612, 9.524192
579.9434, 9.444250
580.4255, 9.075833
580.9076, 8.826544
581.3897, 8.857957
581.8718, 8.999264
582.3539, 9.058666
582.8361, 8.995884
583.3182, 8.914022
583.8003, 8.941166
584.2824, 9.052725
584.7645, 9.034155
585.2466, 8.806321
585.7288, 8.674541
586.2108, 8.856945
586.6929, 9.196756
587.1750, 9.496288
587.6572, 9.765416
588.1393, 9.890566
588.6214, 9.661921
589.1035, 9.339626
589.5856, 9.308823
590.0677, 9.577593
590.5499, 9.856364
591.0320, 9.953218
591.5141, 9.925830
591.9962, 9.987895
592.4783, 10.30028
592.9604, 10.47241
593.4426, 10.39755
593.9247, 10.26823
594.4068, 10.22225
594.8889, 10.24699
595.3710, 10.25250
595.8531, 10.18373
596.3353, 10.05371
596.8174, 9.875612
597.2995, 9.636250
597.7816, 9.430884
598.2637, 9.299077
598.7458, 9.189363
599.2280, 9.040412
599.7101, 8.866113
600.1922, 8.741195
600.6743, 8.726893
601.1564, 8.738569
601.6385, 8.723334
602.1207, 8.676580
602.6028, 8.568375
603.0849, 8.383878
603.5670, 8.200790
604.0491, 8.131003
604.5313, 8.206840
605.0134, 8.192736
605.4955, 8.013027
605.9776, 7.842851
606.4597, 7.750358
606.9418, 7.693501
607.4240, 7.605557
607.9061, 7.471543
608.3882, 7.351341
608.8703, 7.312001
609.3524, 7.350298
609.8345, 7.448032
610.3167, 7.666807
610.7988, 7.790413
611.2809, 7.632211
611.7630, 7.349582
612.2451, 7.152762
612.7272, 7.070194
613.2094, 7.018762
613.6915, 6.927754
614.1736, 6.865422
614.6557, 6.967865
615.1378, 7.211935
615.6199, 7.393730
616.1021, 7.384820
616.5842, 7.241562
617.0663, 7.121543
617.5484, 7.012691
618.0305, 6.949392
618.5126, 6.986807
618.9948, 7.014314
619.4769, 6.923141
619.9590, 6.773948
620.4411, 6.722441
620.9232, 6.860314
621.4053, 7.076702
621.8875, 7.228944
622.3696, 7.316113
622.8517, 7.243948
623.3338, 6.896077
623.8159, 6.580872
624.2980, 6.609594
624.7802, 6.885470
625.2623, 7.099024
625.7444, 7.217946
626.2265, 7.266935
626.7086, 7.219361
627.1907, 7.125431
627.6729, 7.043933
628.1550, 6.991017
628.6371, 6.977337
629.1192, 7.014016
629.6013, 7.097514
630.0834, 7.202127
630.5656, 7.377635
631.0477, 7.489548
631.5298, 7.494363
632.0119, 7.455534
632.4940, 7.406217
632.9761, 7.355576
633.4583, 7.316413
633.9404, 7.309268
634.4225, 7.307071
634.9046, 7.269534
635.3867, 7.197133
635.8688, 7.082011
636.3510, 6.893561
636.8331, 6.731119
637.3152, 6.733158
637.7973, 6.921436
638.2794, 7.047090
638.7615, 7.090595
639.2437, 7.090142
639.7258, 6.999738
640.2079, 6.900632
640.6900, 6.924971
641.1721, 7.094814
641.6542, 7.291493
642.1364, 7.385543
642.6185, 7.385874
643.1006, 7.407726
643.5827, 7.463607
644.0648, 7.513247
644.5469, 7.561017
645.0291, 7.583736
645.5112, 7.553775
645.9933, 7.469606
646.4754, 7.366931
646.9575, 7.236346
647.4396, 7.113829
647.9218, 7.040190
648.4039, 7.010547
648.8860, 7.003023
649.3681, 7.010601
649.8502, 7.020722
650.3323, 7.009536
650.8145, 6.961481
651.2966, 6.964833
651.7787, 7.113373
652.2608, 7.203170
652.7429, 7.130685
653.2250, 6.983159
653.7072, 6.850596
654.1893, 6.761065
654.6714, 6.742380
655.1535, 6.840325
655.6356, 7.029447
656.1177, 7.262929
656.5999, 7.558561
657.0820, 7.722244
657.5641, 7.634113
658.0462, 7.390803
658.5283, 7.136585
659.0104, 6.844798
659.4926, 6.666539
659.9747, 6.676336
660.4568, 6.755833
660.9389, 6.862411
661.4210, 6.975540
661.9031, 7.070288
662.3853, 7.137023
662.8674, 7.179119
663.3495, 7.199525
663.8316, 7.197440
664.3137, 7.186213
664.7958, 7.170417
665.2780, 7.136986
665.7601, 7.072160
666.2422, 6.990056
666.7243, 6.893600
667.2064, 6.776833
667.6885, 6.705920
668.1707, 6.720000
668.6528, 6.790497
669.1349, 6.941018
669.6170, 7.130640
670.0991, 7.178377
670.5812, 6.988451
671.0634, 6.718630
671.5455, 6.656065
672.0276, 6.879903
672.5097, 7.011336
672.9918, 6.971701
673.4739, 6.923235
673.9561, 6.902734
674.4382, 6.905591
674.9203, 6.937198
675.4024, 6.998314
675.8845, 7.029122
676.3666, 6.933945
676.8488, 6.786941
677.3309, 6.776850
677.8130, 6.908954
678.2951, 6.999632
678.7772, 6.951009
679.2593, 6.834467
679.7415, 6.781779
680.2236, 6.824382
680.7057, 6.835252
681.1878, 6.738889
681.6699, 6.692095
682.1520, 6.845967
682.6342, 7.065255
683.1163, 7.121651
683.5984, 6.955174
684.0805, 6.748132
684.5626, 6.699394
685.0447, 6.781949
685.5269, 6.861386
686.0090, 6.945783
686.4911, 6.972056
686.9732, 6.882142
687.4553, 6.746710
687.9374, 6.673740
688.4196, 6.661716
688.9017, 6.695140
689.3838, 6.824831
689.8659, 6.946640
690.3480, 7.021008
690.8301, 7.037130
691.3123, 6.951835
691.7944, 6.763206
692.2765, 6.586108
692.7586, 6.557889
693.2407, 6.669139
693.7228, 6.798510
694.2050, 6.979054
694.6871, 7.088626
695.1692, 7.027716
695.6513, 6.917135
696.1334, 6.899650
696.6155, 6.975645
697.0977, 7.012165
697.5798, 6.921714
698.0619, 6.823550
698.5440, 6.802196
699.0261, 6.839759
699.5082, 6.912818
699.9904, 7.008770
700.4725, 7.075485
700.9546, 7.040230
701.4367, 6.916104
701.9188, 6.915063
702.4009, 7.113722
702.8831, 7.283204
703.3652, 7.376722
703.8473, 7.412313
704.3294, 7.389242
704.8115, 7.313878
705.2936, 7.217975
705.7758, 7.073479
706.2579, 6.953124
706.7400, 6.953687
707.2221, 7.017262
707.7042, 6.992358
708.1863, 6.849908
708.6685, 6.724216
709.1506, 6.743882
709.6327, 6.887187
710.1148, 6.992140
710.5969, 7.045868
711.0790, 7.083249
711.5612, 7.099055
712.0433, 7.109331
712.5254, 7.106113
713.0075, 7.104836
713.4896, 7.162244
713.9717, 7.367081
714.4539, 7.511392
714.9360, 7.307892
715.4181, 6.923486
715.9002, 6.766305
716.3823, 6.891801
716.8644, 7.045852
717.3466, 7.033193
717.8287, 6.921455
718.3108, 6.974687
718.7929, 7.371170
719.2750, 7.591728
719.7571, 7.496897
720.2393, 7.358513
720.7214, 7.313391
721.2035, 7.322156
721.6856, 7.285203
722.1677, 7.159715
722.6498, 7.041763
723.1320, 7.036377
723.6141, 7.088215
724.0962, 7.069466
724.5783, 6.976944
725.0604, 6.918116
725.5425, 6.956653
726.0247, 7.045377
726.5068, 7.083943
726.9889, 7.037671
727.4710, 7.047669
727.9531, 7.174537
728.4352, 7.287343
728.9174, 7.339212
729.3995, 7.353803
729.8816, 7.354174
730.3637, 7.346889
730.8458, 7.352006
731.3279, 7.391179
731.8101, 7.447839
732.2922, 7.516623
732.7743, 7.585852
733.2564, 7.567548
733.7385, 7.416941
734.2206, 7.258860
734.7028, 7.265574
735.1849, 7.453992
735.6670, 7.551583
736.1491, 7.539713
736.6312, 7.454522
737.1133, 7.196830
737.5955, 6.944230
738.0776, 6.878351
738.5597, 6.981071
739.0418, 7.068158
739.5239, 6.993663
740.0060, 6.922595
740.4882, 7.120121
740.9703, 7.479341
741.4524, 7.640335
741.9345, 7.529198
742.4166, 7.385694
742.8987, 7.421072
743.3809, 7.579419
743.8630, 7.572043
744.3451, 7.245149
744.8272, 7.033044
745.3093, 7.000708
745.7914, 7.041130
746.2736, 7.125921
746.7557, 7.235537
747.2378, 7.349821
747.7199, 7.471579
748.2020, 7.555315
748.6841, 7.546454
749.1663, 7.485628
749.6484, 7.417023
750.1305, 7.356239
750.6126, 7.386749
751.0947, 7.565391
751.5768, 7.770129
752.0590, 7.765888
752.5411, 7.489790
753.0232, 7.300363
753.5053, 7.207850
753.9874, 7.193300
754.4695, 7.336821
754.9517, 7.498482
755.4338, 7.479607
755.9159, 7.271513
756.3980, 7.170190
756.8801, 7.450827
757.3622, 7.785464
757.8444, 7.830631
758.3265, 7.682054
758.8086, 7.566298
759.2907, 7.545933
759.7728, 7.579608
760.2549, 7.636856
760.7371, 7.707839
761.2192, 7.727156
761.7013, 7.678066
762.1834, 7.619308
762.6655, 7.495285
763.1476, 7.435084
763.6298, 7.604611
764.1119, 7.900776
764.5940, 8.024310
765.0761, 7.819220
765.5582, 7.629488
766.0403, 7.628678
766.5225, 7.725326
767.0046, 7.875783
767.4867, 8.031483
767.9688, 8.042532
768.4509, 7.826945
768.9330, 7.574329
769.4152, 7.686351
769.8973, 8.190687
770.3794, 8.269733
770.8615, 7.721429
771.3436, 7.259343
771.8257, 7.247822
772.3079, 7.455718
772.7900, 7.524352
773.2721, 7.434745
773.7542, 7.454492
774.2363, 7.715183
774.7184, 7.996042
775.2006, 8.265756
775.6827, 8.448189
776.1648, 8.412896
776.6469, 8.167955
777.1290, 7.865502
777.6111, 7.582118
778.0933, 7.381948
778.5754, 7.476609
779.0575, 7.852302
779.5396, 8.112642
780.0217, 8.169554
780.5038, 8.142179
780.9860, 8.091677
781.4681, 8.038853
781.9502, 8.079517
782.4323, 8.356214
782.9144, 8.487882
783.3965, 8.336660
783.8787, 8.156996
784.3608, 8.092546
784.8429, 8.102962
785.3250, 8.098762
785.8071, 8.051664
786.2892, 8.001899
786.7714, 7.963197
787.2535, 7.953837
787.7356, 8.032212
788.2177, 8.184105
788.6998, 8.302070
789.1819, 8.344943
789.6641, 8.363881
790.1462, 8.432532
790.6283, 8.394895
791.1104, 8.321454
791.5925, 8.309561
792.0746, 8.121609
792.5568, 8.030488
793.0389, 7.993586
793.5210, 7.991830
794.0031, 8.020368
794.4852, 8.076211
794.9673, 8.190454
795.4495, 8.268698
795.9316, 8.209010
796.4137, 8.103991
796.8958, 8.082314
797.3779, 8.138101
797.8600, 8.190434
798.3422, 8.197840
798.8243, 8.174047
799.3064, 8.109783
799.7885, 7.998547
800.2706, 8.074635
800.7527, 8.435914
801.2349, 8.677586
801.7170, 8.555120
802.1991, 8.308901
802.6812, 8.302627
803.1633, 8.537985
803.6454, 8.647765
804.1276, 8.449790
804.6097, 8.302571
805.0918, 8.413169
805.5739, 8.588808
806.0560, 8.612403
806.5381, 8.491199
807.0203, 8.380934
807.5024, 8.376330
807.9845, 8.410929
808.4666, 8.403764
808.9487, 8.357491
809.4308, 8.271879
809.9130, 8.146061
810.3951, 8.012644
810.8772, 7.867036
811.3593, 7.783494
811.8414, 7.944533
812.3235, 8.486712
812.8057, 8.760055
813.2878, 8.526825
813.7699, 8.317821
814.2520, 8.278986
814.7341, 8.328401
815.2162, 8.396977
815.6984, 8.473552
816.1805, 8.544661
816.6626, 8.610918
817.1447, 8.663943
817.6268, 8.743353
818.1089, 8.785264
818.5911, 8.619861
819.0732, 8.278807
819.5553, 8.044435
820.0374, 8.112311
820.5195, 8.332847
821.0016, 8.367025
821.4838, 8.205673
821.9659, 8.210841
822.4480, 8.451090
822.9301, 8.726896
823.4122, 9.012989
823.8943, 9.209970
824.3765, 9.085604
824.8586, 8.536269
825.3407, 8.214361
825.8228, 8.284372
826.3049, 8.412151
826.7870, 8.581769
827.2692, 8.687724
827.7513, 8.551222
828.2334, 8.223858
828.7155, 8.011502
829.1976, 8.129086
829.6797, 8.334850
830.1619, 8.332651
830.6440, 8.214804
831.1261, 8.239709
831.6082, 8.415644
832.0903, 8.483368
832.5724, 8.275676
833.0546, 7.977158
833.5367, 7.975542
834.0188, 8.331707
834.5009, 8.557148
834.9830, 8.619164
835.4651, 8.612429
835.9473, 8.487735
836.4294, 8.374837
836.9115, 8.464053
837.3936, 8.739354
837.8757, 8.880039
838.3578, 8.721327
838.8400, 8.564169
839.3221, 8.500088
839.8042, 8.505911
840.2863, 8.632447
840.7684, 8.806198
841.2505, 8.806939
841.7327, 8.507248
842.2148, 8.148280
842.6969, 8.001547
843.1790, 8.026468
843.6611, 8.165598
844.1432, 8.397029
844.6254, 8.473111
845.1075, 8.265499
845.5896, 8.016428
846.0717, 8.075704
846.5538, 8.445357
847.0359, 8.594884
847.5181, 8.376877
848.0002, 8.226548
848.4823, 8.305495
848.9644, 8.406243
849.4465, 8.334871
849.9286, 8.170193
850.4108, 8.171869
850.8929, 8.504583
851.3750, 8.724610
851.8571, 8.596579
852.3392, 8.364234
852.8214, 8.177239
853.3035, 8.057784
853.7856, 8.029919
854.2677, 8.093078
854.7498, 8.161218
855.2319, 8.125173
855.7141, 8.049966
856.1962, 8.125884
856.6783, 8.320768
857.1604, 8.385385
857.6425, 8.250652
858.1246, 8.095775
858.6068, 8.068819
859.0889, 8.140451
859.5710, 8.214847
860.0531, 8.349673
860.5352, 8.323510
861.0173, 7.932630
861.4995, 7.639806
861.9816, 7.750918
862.4637, 8.023493
862.9458, 8.134011
863.4279, 8.049717
863.9100, 7.980749
864.3922, 7.988281
864.8743, 8.014020
865.3564, 8.029577
865.8385, 8.044588
866.3206, 8.091047
866.8027, 8.153818
867.2849, 8.162686
867.7670, 8.068789
868.2491, 7.939446
868.7312, 7.844029
869.2133, 7.786208
869.6954, 7.803806
870.1776, 7.888926
870.6597, 7.922486
871.1418, 7.850605
871.6239, 7.698976
872.1060, 7.468921
872.5881, 7.163363
873.0703, 7.144825
873.5524, 7.580699
874.0345, 7.874496
874.5166, 7.854068
874.9987, 7.702400
875.4808, 7.483278
875.9630, 7.249294
876.4451, 7.179095
876.9272, 7.403102
877.4093, 7.531912
877.8914, 7.380515
878.3735, 7.223030
878.8557, 7.242381
879.3378, 7.361427
879.8199, 7.470120
880.3020, 7.533815
880.7841, 7.516325
881.2662, 7.309510
881.7484, 7.087822
882.2305, 7.113754
882.7126, 7.284477
883.1947, 7.352510
883.6768, 7.284701
884.1589, 7.189075
884.6411, 7.134877
885.1232, 7.094516
885.6053, 6.988272
886.0874, 6.810952
886.5695, 6.796291
887.0516, 7.011160
887.5338, 7.116987
888.0159, 6.925478
888.4980, 6.665132
888.9801, 6.607852
889.4622, 6.753351
889.9443, 6.911563
890.4265, 7.182295
890.9086, 7.321805
891.3907, 7.220752
891.8728, 7.066648
892.3549, 6.988733
892.8370, 6.939054
893.3192, 6.779860
893.8013, 6.455616
894.2834, 6.239764
894.7655, 6.352019
895.2476, 6.545156
895.7297, 6.635382
896.2119, 6.650178
896.6940, 6.649261
897.1761, 6.644496
897.6582, 6.613032
898.1403, 6.532336
898.6224, 6.436098
899.1046, 6.382019
899.5867, 6.360692
900.0688, 6.328874
900.5509, 6.282567
901.0330, 6.228374
901.5151, 6.161649
901.9973, 6.135888
902.4794, 6.259062
902.9615, 6.189607
903.4436, 6.119148
903.9257, 6.207625
904.4078, 5.982170
904.8900, 6.037881
905.3721, 6.189986
905.8542, 6.355118
906.3363, 6.501413
906.8184, 6.525206
907.3005, 6.382265
907.7827, 6.221729
908.2648, 6.040055
908.7469, 5.868995
909.2290, 5.633574
909.7111, 5.470372
910.1932, 5.661427
910.6754, 6.156083
911.1575, 6.411812
911.6396, 5.975551
912.1217, 5.489087
912.6038, 5.534058
913.0859, 5.816084
913.5681, 5.944371
914.0502, 5.901031
914.5323, 5.792719
915.0144, 5.668818
915.4965, 5.591103
915.9786, 5.695821
916.4607, 5.565149
916.9428, 5.824034
917.4249, 5.506811
917.9070, 5.332814
918.3892, 5.401908
918.8713, 5.577071
919.3534, 5.770274
919.8355, 5.952102
920.3176, 6.026532
920.7997, 5.974168
921.2819, 5.879263
921.7640, 5.691319
922.2461, 5.561204
922.7282, 5.550661
923.2103, 5.625281
923.6924, 5.795370
924.1746, 6.050452
924.6567, 6.158262
925.1388, 5.998844
925.6209, 5.847104
926.1030, 5.767890
926.5851, 5.695961
927.0673, 5.545997
927.5494, 5.385255
928.0315, 5.345691
928.5136, 5.461371
928.9957, 5.615011
929.4778, 5.848550
929.9600, 5.991919
930.4421, 5.816010
930.9242, 5.503471
931.4063, 5.319075
931.8884, 5.298702
932.3705, 5.388200
932.8527, 5.575085
933.3348, 5.730442
933.8169, 5.641129
934.2990, 5.399206
934.7811, 5.243420
935.2632, 5.181519
935.7454, 5.191825
936.2275, 5.267660
936.7096, 5.342099
937.1917, 5.345326
937.6738, 5.381128
938.1559, 5.396566
938.6381, 5.368627
939.1202, 5.387988
939.6023, 5.338711
940.0844, 5.288734
940.5665, 5.270299
941.0486, 5.272898
941.5308, 5.277962
942.0129, 5.282981
942.4950, 5.319193
942.9771, 5.418898
943.4592, 5.501236
943.9413, 5.507361
944.4235, 5.539704
944.9056, 5.741595
945.3877, 5.998981
945.8698, 6.036908
946.3519, 5.758959
946.8340, 5.548073
947.3162, 5.589755
947.7983, 5.621165
948.2804, 5.419487
948.7625, 5.190622
949.2446, 5.217395
949.7267, 5.463170
950.2089, 5.667966
950.6910, 5.742138
951.1731, 5.665292
951.6552, 5.265553
952.1373, 4.819601
952.6194, 4.688940
953.1016, 4.805750
953.5837, 4.974487
954.0658, 5.125766
954.5479, 5.237010
955.0300, 5.279597
955.5121, 5.292248
955.9943, 5.356343
956.4764, 5.453676
956.9585, 5.521603
957.4406, 5.550927
957.9227, 5.504541
958.4048, 5.359286
958.8870, 5.209218
959.3691, 5.186627
959.8512, 5.273552
960.3333, 5.332153
960.8154, 5.364477
961.2975, 5.324671
961.7797, 5.149149
962.2618, 5.102963
962.7439, 5.430893
963.2260, 5.913018
963.7081, 6.063632
964.1902, 5.804943
964.6724, 5.632753
965.1545, 5.609354
965.6366, 5.568575
966.1187, 5.408170
966.6008, 5.279371
967.0829, 5.369547
967.5651, 5.580912
968.0472, 5.592875
968.5293, 5.263933
969.0114, 5.065219
969.4935, 5.148963
969.9756, 5.270445
970.4578, 5.378424
970.9399, 5.428701
971.4220, 5.327150
971.9041, 5.116639
972.3862, 5.017241
972.8683, 5.176010
973.3505, 5.294304
973.8326, 5.114254
974.3147, 4.922243
974.7968, 5.056200
975.2789, 5.336605
975.7610, 5.389320
976.2432, 5.163470
976.7253, 4.948352
977.2074, 4.932593
977.6895, 5.007532
978.1716, 5.085922
978.6537, 5.157562
979.1359, 5.216900
979.6180, 5.253961
980.1001, 5.236058
980.5822, 5.153313
981.0643, 5.040543
981.5464, 4.919252
982.0286, 4.808122
982.5107, 4.747841
982.9928, 4.738394
983.4749, 4.796745
983.9570, 4.919816
984.4391, 5.031749
984.9213, 5.092350
985.4034, 5.124926
985.8855, 5.168734
986.3676, 5.216545
986.8497, 5.190179
987.3318, 5.080362
987.8140, 5.003789
988.2961, 4.982468
988.7782, 5.009104
989.2603, 5.104897
989.7424, 5.196889
990.2245, 5.110556
990.7067, 4.802881
991.1888, 4.681919
991.6709, 4.838097
992.1530, 4.956463
992.6351, 4.940264
993.1172, 4.901861
993.5994, 4.929855
994.0815, 5.001707
994.5636, 5.045494
995.0457, 5.038888
995.5278, 5.067198
996.0099, 5.190080
996.4921, 5.269931
996.9742, 5.234216
997.4563, 5.173579
997.9384, 5.141238
998.4205, 5.148111
998.9026, 5.232701
999.3848, 5.456101
999.8669, 5.610241
1000.349, 5.682311
1000.831, 5.644598
1001.313, 5.363403
1001.795, 5.049543
1002.277, 4.930434
1002.760, 5.001380
1003.242, 5.136687
1003.724, 5.357391
1004.206, 5.482352
1004.688, 5.365212
1005.170, 5.183935
1005.652, 5.039964
1006.134, 4.941826
1006.617, 4.899127
1007.099, 4.902413
1007.581, 4.899613
1008.063, 4.839036
1008.545, 4.830063
1009.027, 5.057936
1009.509, 5.309952
1009.991, 5.300272
1010.473, 5.118810
1010.956, 4.984643
1011.438, 4.952107
1011.920, 4.958218
1012.402, 4.970935
1012.884, 4.975189
1013.366, 4.951671
1013.848, 4.906657
1014.330, 4.799376
1014.813, 4.680844
1015.295, 4.766883
1015.777, 5.099820
1016.259, 5.397492
1016.741, 5.403465
1017.223, 5.257785
1017.705, 5.203058
1018.187, 5.218970
1018.669, 5.245876
1019.152, 5.274689
1019.634, 5.295194
1020.116, 5.302960
1020.598, 5.266694
1021.080, 5.143827
1021.562, 4.972096
1022.044, 4.861654
1022.526, 4.807152
1023.008, 4.748429
1023.491, 4.679494
1023.973, 4.644140
1024.455, 4.657478
1024.937, 4.750281
1025.419, 4.988083
1025.901, 5.306674
1026.383, 5.384583
1026.865, 5.202823
1027.348, 5.062292
1027.830, 4.988523
1028.312, 4.990436
1028.794, 5.093839
1029.276, 5.199869
1029.758, 5.171225
1030.240, 5.236953
1030.722, 5.017911
1031.204, 5.177531
1031.687, 5.195544
1032.169, 4.989151
1032.651, 4.789263
1033.133, 4.684649
1033.615, 4.677177
1034.097, 4.803896
1034.579, 5.046685
1035.061, 5.110449
1035.544, 4.917799
1036.026, 4.734062
1036.508, 4.500125
1036.990, 4.437894
1037.472, 4.778635
1037.954, 5.210242
1038.436, 5.286403
1038.918, 5.024101
1039.401, 4.939761
1039.883, 5.225502
1040.365, 5.327157
1040.847, 5.055624
1041.329, 4.803441
1041.811, 4.746736
1042.293, 4.798898
1042.775, 4.895538
1043.257, 5.031516
1043.740, 5.011322
1044.222, 4.630295
1044.704, 4.409747
1045.186, 4.496737
1045.668, 4.607633
1046.150, 4.618190
1046.632, 4.585869
1047.114, 4.565641
1047.596, 4.562786
1048.079, 4.612488
1048.561, 4.756236
1049.043, 4.893810
1049.525, 5.108771
1050.007, 5.205607
1050.489, 4.979905
1050.971, 4.657935
1051.453, 4.495748
1051.936, 4.500767
1052.418, 4.578313
1052.900, 4.813985
1053.382, 4.946773
1053.864, 4.881844
1054.346, 4.754833
1054.828, 4.598252
1055.310, 4.444251
1055.792, 4.297494
1056.275, 4.177265
1056.757, 4.179657
1057.239, 4.376566
1057.721, 4.591158
1058.203, 4.863125
1058.685, 5.040817
1059.167, 4.985548
1059.649, 4.826452
1060.131, 4.700837
1060.614, 4.618213
1061.096, 4.537294
1061.578, 4.441739
1062.060, 4.364259
1062.542, 4.291067
1063.024, 4.267926
1063.506, 4.373676
1063.988, 4.506464
1064.471, 4.500431
1064.953, 4.408602
1065.435, 4.500926
1065.917, 4.950435
1066.399, 5.225069
1066.881, 4.928249
1067.363, 4.612935
1067.845, 4.646956
1068.328, 4.798666
1068.810, 4.783260
1069.292, 4.640425
1069.774, 4.600541
1070.256, 4.750296
1070.738, 4.867012
1071.220, 4.868203
1071.702, 4.792716
1072.184, 4.585104
1072.667, 4.373263
1073.149, 4.292903
1073.631, 4.323534
1074.113, 4.386005
1074.595, 4.462400
1075.077, 4.531782
1075.559, 4.622281
1076.041, 4.656640
1076.523, 4.514840
1077.006, 4.360754
1077.488, 4.380617
1077.970, 4.511068
1078.452, 4.584697
1078.934, 4.561877
1079.416, 4.522252
1079.898, 4.482733
1080.380, 4.458351
1080.862, 4.460993
1081.345, 4.478330
1081.827, 4.508725
1082.309, 4.541637
1082.791, 4.551710
1083.273, 4.537876
1083.755, 4.550496
1084.237, 4.659952
1084.719, 4.731230
1085.202, 4.666715
1085.684, 4.570920
1086.166, 4.518946
1086.648, 4.498099
1087.130, 4.495464
1087.612, 4.498880
1088.094, 4.447598
1088.576, 4.242218
1089.058, 4.132286
1089.541, 4.361063
1090.023, 4.579725
1090.505, 4.497744
1090.987, 4.284123
1091.469, 4.199490
1091.951, 4.228384
1092.433, 4.124320
1092.915, 3.714091
1093.397, 3.455841
1093.880, 3.636315
1094.362, 3.897468
1094.844, 4.051345
1095.326, 4.158097
1095.808, 4.322800
1096.290, 4.508524
1096.772, 4.571257
1097.254, 4.450964
1097.737, 4.334713
1098.219, 4.252505
1098.701, 4.229748
1099.183, 4.316488
1099.665, 4.433934
1100.147, 4.535345
1100.629, 4.604927
1101.111, 4.619750
1101.594, 4.573286
1102.076, 4.512041
1102.558, 4.468423
1103.040, 4.383992
1103.522, 4.161990
1104.004, 3.970664
1104.486, 3.944009
1104.968, 4.020246
1105.450, 4.094833
1105.932, 4.157378
1106.415, 4.248621
1106.897, 4.483821
1107.379, 4.586910
1107.861, 4.376863
1108.343, 4.169009
1108.825, 4.143053
1109.307, 4.197354
1109.789, 4.223170
1110.272, 4.211099
1110.754, 4.145001
1111.236, 3.923923
1111.718, 3.846220
1112.200, 4.068601
1112.682, 4.271023
1113.164, 4.363139
1113.646, 4.372652
1114.129, 4.285992
1114.611, 4.140201
1115.093, 4.055549
1115.575, 4.043159
1116.057, 4.063255
1116.539, 4.166357
1117.021, 4.224478
1117.503, 4.171572
1117.985, 4.115885
1118.468, 4.132039
1118.950, 4.190031
1119.432, 4.238148
1119.914, 4.277877
1120.396, 4.285858
1120.878, 4.226346
1121.360, 4.216991
1121.842, 4.315187
1122.324, 4.383290
1122.807, 4.344954
1123.289, 4.250123
1123.771, 4.128572
1124.253, 4.004722
1124.735, 4.113022
1125.217, 4.583977
1125.699, 4.817681
1126.181, 4.727346
1126.664, 4.580672
1127.146, 4.457921
1127.628, 4.333524
1128.110, 4.167884
1128.592, 4.153009
1129.074, 3.994230
1129.556, 4.151587
1130.038, 4.269629
1130.521, 4.349303
1131.003, 4.363066
1131.485, 4.288142
1131.967, 4.262404
1132.449, 4.382807
1132.931, 4.572688
1133.413, 4.735930
1133.895, 4.850473
1134.377, 4.719905
1134.859, 4.353515
1135.342, 4.057977
1135.824, 3.874252
1136.306, 3.769135
1136.788, 3.728509
1137.270, 3.756850
1137.752, 3.873100
1138.234, 4.032217
1138.716, 4.114103
1139.199, 4.140553
1139.681, 4.205458
1140.163, 4.309995
1140.645, 4.447603
1141.127, 4.603065
1141.609, 4.662806
1142.091, 4.539842
1142.573, 4.344999
1143.056, 4.171263
1143.538, 4.072155
1144.020, 4.278586
1144.502, 4.619562
1144.984, 4.596839
1145.466, 4.230990
1145.948, 3.944387
1146.430, 3.917243
1146.912, 3.997471
1147.395, 4.082604
1147.877, 4.169929
1148.359, 4.244571
1148.841, 4.328183
1149.323, 4.499215
1149.805, 4.691463
1150.287, 4.748655
1150.769, 4.646444
1151.251, 4.486089
1151.734, 4.270637
1152.216, 4.138581
1152.698, 4.274704
1153.180, 4.436143
1153.662, 4.390739
1154.144, 4.268247
1154.626, 4.274269
1155.108, 4.374296
1155.591, 4.357175
1156.073, 4.132187
1156.555, 4.018975
1157.037, 4.260168
1157.519, 4.461554
1158.001, 4.363169
1158.483, 4.261868
1158.965, 4.492797
1159.448, 4.830289
1159.930, 4.812148
1160.412, 4.410667
1160.894, 4.212224
1161.376, 4.532618
1161.858, 4.660640
1162.340, 4.275766
1162.822, 4.026954
1163.304, 4.281677
1163.786, 4.644753
1164.269, 4.757960
1164.751, 4.677680
1165.233, 4.584977
1165.715, 4.448385
1166.197, 4.453385
1166.679, 4.671160
1167.161, 4.835749
1167.643, 4.906986
1168.126, 4.872045
1168.608, 4.689402
1169.090, 4.475313
1169.572, 4.414750
1170.054, 4.478809
1170.536, 4.423671
1171.018, 4.441755
1171.500, 4.505254
1171.983, 4.436513
1172.465, 4.567408
1172.947, 4.522253
1173.429, 4.394907
1173.911, 4.247076
1174.393, 4.143557
1174.875, 4.213106
1175.357, 4.431480
1175.839, 4.823904
1176.322, 5.282542
1176.804, 5.281272
1177.286, 4.819131
1177.768, 4.442452
1178.250, 4.397970
1178.732, 4.436104
1179.214, 4.282211
1179.696, 4.414608
1180.178, 4.298800
1180.661, 4.601228
1181.143, 4.803691
1181.625, 4.873466
1182.107, 4.751397
1182.589, 4.470839
1183.071, 4.221816
1183.553, 4.085691
1184.035, 4.034121
1184.518, 4.045743
1185.000, 4.140923
1185.482, 4.481087
1185.964, 4.791148
1186.446, 4.685093
1186.928, 4.338138
1187.410, 4.215889
1187.892, 4.403376
1188.375, 4.518702
1188.857, 4.380556
1189.339, 4.300620
1189.821, 4.418542
1190.303, 4.519252
1190.785, 4.429559
1191.267, 4.327136
1191.749, 4.476531
1192.231, 4.376083
1192.714, 4.294266
1193.196, 4.361887
1193.678, 4.132821
1194.160, 4.125143
1194.642, 4.220343
1195.124, 4.474325
1195.606, 4.577330
1196.088, 4.294929
1196.570, 3.922132
1197.053, 3.881249
1197.535, 4.102011
1198.017, 4.264696
1198.499, 4.367200
1198.981, 4.283567
1199.463, 4.020016
1199.945, 3.924947
1200.427, 4.092154
1200.910, 4.305603
1201.392, 4.421335
1201.874, 4.467100
1202.356, 4.464341
1202.838, 4.432060
1203.320, 4.409641
1203.802, 4.390869
1204.284, 4.344874
1204.766, 4.288937
1205.249, 4.306962
1205.731, 4.410501
1206.213, 4.464232
1206.695, 4.367618
1207.177, 4.236203
1207.659, 4.100520
1208.141, 4.028769
1208.623, 4.126479
1209.105, 4.291484
1209.588, 4.424785
1210.070, 4.502303
1210.552, 4.493805
1211.034, 4.381177
1211.516, 4.299735
1211.998, 4.325577
1212.480, 4.320002
1212.962, 4.219132
1213.445, 4.114488
1213.927, 4.049214
1214.409, 4.006818
1214.891, 3.937499
1215.373, 3.878501
1215.855, 4.020681
1216.337, 4.452181
1216.819, 4.675691
1217.302, 4.620925
1217.784, 4.647150
1218.266, 4.859665
1218.748, 4.997157
1219.230, 4.901972
1219.712, 4.959399
1220.194, 4.706427
1220.676, 4.754992
1221.158, 4.610448
1221.641, 4.337023
1222.123, 4.329822
1222.605, 4.544738
1223.087, 4.603328
1223.569, 4.445391
1224.051, 4.347170
1224.533, 4.464844
1225.015, 4.648870
1225.497, 4.833999
1225.980, 4.919269
1226.462, 4.657493
1226.944, 4.322761
1227.426, 4.290319
1227.908, 4.470473
1228.390, 4.644700
1228.872, 4.763863
1229.354, 4.843616
1229.837, 4.883132
1230.319, 4.903147
1230.801, 4.929543
1231.283, 4.913097
1231.765, 4.760887
1232.247, 4.628843
1232.729, 4.679678
1233.211, 4.814639
1233.693, 4.856281
1234.176, 4.806665
1234.658, 4.718114
1235.140, 4.549046
1235.622, 4.462537
1236.104, 4.459864
1236.586, 4.588937
1237.068, 4.908886
1237.550, 5.138084
1238.032, 5.048805
1238.515, 4.854912
1238.997, 4.962725
1239.479, 5.240728
1239.961, 5.033794
1240.443, 5.128507
1240.925, 5.161195
1241.407, 4.945867
1241.889, 5.128284
1242.372, 4.884876
1242.854, 4.720646
1243.336, 4.966115
1243.818, 5.269427
1244.300, 5.345328
1244.782, 5.274868
1245.264, 5.044640
1245.746, 4.789419
1246.229, 4.665333
1246.711, 4.642784
1247.193, 4.637398
1247.675, 4.635808
1248.157, 4.674529
1248.639, 4.864687
1249.121, 4.887949
1249.603, 4.440906
1250.085, 4.165107
1250.568, 4.409698
1251.050, 4.699910
1251.532, 4.723624
1252.014, 4.599792
1252.496, 4.521115
1252.978, 4.483124
1253.460, 4.420649
1253.942, 4.320508
1254.424, 4.367432
1254.907, 4.579058
1255.389, 4.732678
1255.871, 4.766997
1256.353, 4.762580
1256.835, 4.769529
1257.317, 4.776307
1257.799, 4.777853
1258.281, 4.759753
1258.764, 4.687095
1259.246, 4.581215
1259.728, 4.440185
1260.210, 4.312338
1260.692, 4.320027
1261.174, 4.455272
1261.656, 4.581948
1262.138, 4.664718
1262.620, 4.635599
1263.103, 4.276970
1263.585, 4.050513
1264.067, 4.328984
1264.549, 4.633336
1265.031, 4.581605
1265.513, 4.379942
1265.995, 4.343101
1266.477, 4.433648
1266.959, 4.436975
1267.442, 4.319774
1267.924, 4.249692
1268.406, 4.226553
1268.888, 4.258229
1269.370, 4.352832
1269.852, 4.454490
1270.334, 4.537555
1270.816, 4.582969
1271.299, 4.557187
1271.781, 4.517207
1272.263, 4.638417
1272.745, 4.808701
1273.227, 4.670967
1273.709, 4.754093
1274.191, 4.764715
1274.673, 4.634694
1275.156, 4.726379
1275.638, 4.530210
1276.120, 4.375458
1276.602, 4.495752
1277.084, 4.603407
1277.566, 4.506608
1278.048, 4.413105
1278.530, 4.427942
1279.012, 4.523280
1279.495, 4.790929
##END=



