##NAMES=Chiolite
##RRUFFID=R050412
##IDEAL CHEMISTRY=Na_5_Al_3_F_14_
##LOCALITY=Ivigtut cryolite deposit, Arsuk Fjord, Greenland
##OWNER=RRUFF
##SOURCE=G.R. Rossman
##DESCRIPTION=Colorless fragment
##STATUS=The identification of this mineral has been confirmed by X-ray diffraction and chemical analysis
##URL=rruff.info/R050412
##MEASURED CHEMISTRY=(Na_4.96_K_0.04_)_Î£=5_Al_3.00_F_14.00_ ; trace amounts of Si and Ca
91.87140, 0.0000000E+00
92.35352, 8.808709
92.83563, 8.568041
93.31775, 8.465741
93.79987, 8.606260
94.28198, 8.898963
94.76410, 9.057714
95.24622, 8.953530
95.72833, 8.760686
96.21045, 8.906932
96.69257, 9.412501
97.17468, 9.942354
97.65680, 10.12680
98.13892, 9.975764
98.62103, 9.953142
99.10315, 10.21057
99.58527, 10.70503
100.0674, 11.11214
100.5495, 11.37853
101.0316, 11.66747
101.5137, 12.17790
101.9958, 12.94728
102.4780, 13.81913
102.9601, 14.75839
103.4422, 15.77667
103.9243, 16.76739
104.4064, 17.67510
104.8885, 18.59546
105.3707, 19.73117
105.8528, 21.13812
106.3349, 22.66950
106.8170, 24.27317
107.2991, 26.00942
107.7813, 27.70614
108.2634, 29.39013
108.7455, 31.04656
109.2276, 32.56544
109.7097, 33.74647
110.1918, 34.94941
110.6740, 36.32540
111.1561, 38.28139
111.6382, 39.95781
112.1203, 41.14122
112.6024, 41.92558
113.0845, 42.81373
113.5667, 44.04231
114.0488, 45.31044
114.5309, 46.42891
115.0130, 47.09245
115.4951, 47.83912
115.9772, 48.89320
116.4594, 50.25670
116.9415, 51.56179
117.4236, 52.55613
117.9057, 53.46068
118.3878, 54.50730
118.8699, 56.24208
119.3521, 57.81148
119.8342, 58.57839
120.3163, 58.42595
120.7984, 58.33765
121.2805, 58.79871
121.7626, 59.73667
122.2448, 61.02763
122.7269, 63.49163
123.2090, 65.85632
123.6911, 66.74710
124.1732, 65.83886
124.6553, 64.21204
125.1375, 62.51357
125.6196, 60.82934
126.1017, 59.43114
126.5838, 58.52655
127.0659, 58.01046
127.5480, 57.71596
128.0302, 57.65977
128.5123, 57.72332
128.9944, 57.74475
129.4765, 57.73174
129.9586, 57.75574
130.4407, 58.01908
130.9229, 58.40756
131.4050, 58.39812
131.8871, 57.72770
132.3692, 56.75088
132.8513, 56.28363
133.3334, 56.26229
133.8156, 56.22301
134.2977, 55.96019
134.7798, 55.67482
135.2619, 55.60814
135.7440, 55.87775
136.2261, 56.39950
136.7083, 56.74490
137.1904, 56.83484
137.6725, 57.00320
138.1546, 57.77678
138.6367, 59.35832
139.1188, 60.44314
139.6010, 60.65707
140.0831, 60.00494
140.5652, 59.22504
141.0473, 58.35201
141.5294, 57.30012
142.0115, 55.84658
142.4937, 53.59924
142.9758, 51.82817
143.4579, 50.96818
143.9400, 51.21806
144.4221, 51.40648
144.9042, 51.53667
145.3864, 51.60341
145.8685, 51.59306
146.3506, 51.47865
146.8327, 51.32334
147.3148, 51.14146
147.7969, 50.91939
148.2791, 50.69947
148.7612, 50.39861
149.2433, 50.10658
149.7254, 50.03102
150.2075, 50.27827
150.6896, 50.64819
151.1718, 51.08549
151.6539, 51.87826
152.1360, 52.32616
152.6181, 52.13544
153.1002, 51.54980
153.5823, 51.29816
154.0645, 51.88333
154.5466, 52.48075
155.0287, 52.70905
155.5108, 52.36012
155.9929, 51.84853
156.4750, 51.15021
156.9572, 50.31092
157.4393, 49.53338
157.9214, 48.68865
158.4035, 48.01164
158.8856, 47.64489
159.3677, 48.11342
159.8499, 48.39960
160.3320, 48.08382
160.8141, 47.26997
161.2962, 46.57209
161.7783, 46.19602
162.2604, 46.03808
162.7426, 46.01261
163.2247, 46.50672
163.7068, 46.76839
164.1889, 46.25503
164.6710, 45.03300
165.1531, 44.00416
165.6353, 43.74469
166.1174, 43.86353
166.5995, 43.93980
167.0816, 43.67054
167.5637, 43.42217
168.0458, 43.43754
168.5280, 43.71938
169.0101, 44.11159
169.4922, 44.63011
169.9743, 45.17237
170.4564, 45.59145
170.9385, 45.76920
171.4207, 45.83354
171.9028, 45.81329
172.3849, 45.69855
172.8670, 45.75257
173.3491, 46.46143
173.8312, 47.47802
174.3134, 48.13927
174.7955, 47.77002
175.2776, 47.04328
175.7597, 46.72371
176.2418, 46.85912
176.7239, 47.29681
177.2061, 48.08930
177.6882, 49.10669
178.1703, 49.98021
178.6524, 50.35325
179.1345, 50.52302
179.6166, 51.03194
180.0988, 51.96302
180.5809, 52.97689
181.0630, 53.68285
181.5451, 54.14183
182.0272, 54.56765
182.5093, 54.92197
182.9915, 55.33573
183.4736, 56.11404
183.9557, 57.29252
184.4378, 58.79922
184.9199, 60.91289
185.4020, 63.46568
185.8842, 65.54014
186.3663, 66.31499
186.8484, 66.13093
187.3305, 66.15530
187.8126, 66.46517
188.2947, 67.03143
188.7769, 67.84940
189.2590, 68.91333
189.7411, 70.10210
190.2232, 71.41047
190.7053, 72.81323
191.1874, 74.17293
191.6696, 75.48348
192.1517, 76.76798
192.6338, 78.06689
193.1159, 79.37949
193.5980, 80.72987
194.0801, 82.15358
194.5623, 83.63770
195.0444, 85.11536
195.5265, 86.60228
196.0086, 88.03117
196.4907, 89.21904
196.9728, 90.14066
197.4550, 91.02962
197.9371, 91.99629
198.4192, 93.03967
198.9013, 94.25709
199.3834, 95.78346
199.8655, 97.35421
200.3477, 98.32559
200.8298, 98.63436
201.3119, 98.60632
201.7940, 98.41452
202.2761, 98.05949
202.7582, 97.55130
203.2404, 96.90356
203.7225, 96.09643
204.2046, 95.05082
204.6867, 93.73534
205.1688, 92.28699
205.6509, 90.73629
206.1331, 89.02450
206.6152, 87.57057
207.0973, 86.50097
207.5794, 85.66466
208.0615, 84.51579
208.5436, 82.87551
209.0258, 81.38798
209.5079, 80.58149
209.9900, 80.67220
210.4721, 80.40482
210.9542, 79.54389
211.4363, 78.30264
211.9185, 77.39964
212.4006, 76.89213
212.8827, 76.59427
213.3648, 76.40369
213.8469, 76.30716
214.3290, 76.35741
214.8112, 76.58913
215.2933, 76.96230
215.7754, 77.36112
216.2575, 77.82266
216.7396, 78.23998
217.2217, 78.59111
217.7039, 78.97163
218.1860, 78.96915
218.6681, 78.43236
219.1502, 77.51313
219.6323, 76.82163
220.1144, 76.59998
220.5966, 76.20341
221.0787, 75.23550
221.5608, 73.51402
222.0429, 71.71272
222.5250, 69.79942
223.0071, 67.84373
223.4893, 66.18064
223.9714, 64.86107
224.4535, 63.73068
224.9356, 62.71307
225.4177, 61.87554
225.8998, 60.99352
226.3820, 59.99841
226.8641, 58.95415
227.3462, 58.10172
227.8283, 57.41538
228.3104, 56.95800
228.7925, 56.82220
229.2747, 57.26226
229.7568, 57.43160
230.2389, 57.20800
230.7210, 56.71014
231.2031, 56.29329
231.6852, 55.86441
232.1674, 55.65250
232.6495, 55.82676
233.1316, 56.67717
233.6137, 57.24471
234.0958, 57.34402
234.5779, 57.17540
235.0601, 57.31840
235.5422, 57.95908
236.0243, 58.64537
236.5064, 59.18121
236.9885, 59.51856
237.4706, 59.80763
237.9528, 60.02211
238.4349, 60.19236
238.9170, 60.39267
239.3991, 60.64119
239.8812, 60.89251
240.3633, 61.12974
240.8455, 61.35463
241.3276, 61.55438
241.8097, 61.68739
242.2918, 61.80809
242.7739, 62.05908
243.2560, 62.59014
243.7382, 63.02153
244.2203, 63.22625
244.7024, 63.21791
245.1845, 62.91916
245.6666, 62.15622
246.1487, 61.18733
246.6309, 60.52668
247.1130, 60.42249
247.5951, 60.21572
248.0772, 59.62828
248.5593, 58.49073
249.0414, 57.60299
249.5236, 57.12965
250.0057, 56.80293
250.4878, 56.15388
250.9699, 55.02315
251.4520, 53.84406
251.9341, 52.72078
252.4163, 51.60597
252.8984, 50.78342
253.3805, 50.44749
253.8626, 50.24928
254.3447, 49.64148
254.8268, 48.34314
255.3090, 47.19478
255.7911, 46.49775
256.2732, 46.31852
256.7553, 45.97611
257.2374, 45.35691
257.7195, 44.68506
258.2017, 44.26970
258.6838, 44.26896
259.1659, 44.14960
259.6480, 43.71917
260.1301, 42.96238
260.6122, 42.42054
261.0944, 42.16393
261.5765, 42.03417
262.0586, 41.86333
262.5407, 41.62969
263.0228, 41.42377
263.5049, 41.30581
263.9871, 41.26494
264.4692, 41.00986
264.9513, 40.41192
265.4334, 39.80239
265.9155, 39.50200
266.3976, 39.60550
266.8798, 39.71217
267.3619, 39.73473
267.8440, 39.69416
268.3261, 39.78566
268.8082, 40.07626
269.2903, 40.35744
269.7725, 40.46568
270.2546, 40.38750
270.7367, 40.17574
271.2188, 39.76190
271.7009, 39.23412
272.1830, 38.99812
272.6652, 39.14358
273.1473, 39.33979
273.6294, 39.32915
274.1115, 39.05745
274.5936, 38.92060
275.0757, 38.98628
275.5579, 39.18950
276.0400, 39.36000
276.5221, 39.50425
277.0042, 39.58830
277.4863, 39.55584
277.9684, 39.39195
278.4506, 39.30898
278.9327, 39.31275
279.4148, 39.41493
279.8969, 39.69123
280.3790, 40.17336
280.8611, 40.60846
281.3433, 40.84964
281.8254, 40.89907
282.3075, 40.94410
282.7896, 40.99849
283.2717, 41.03437
283.7538, 40.96931
284.2360, 40.79681
284.7181, 40.69611
285.2002, 40.76465
285.6823, 40.98669
286.1644, 41.22916
286.6465, 41.49372
287.1287, 41.76346
287.6108, 42.01516
288.0929, 42.24929
288.5750, 42.47996
289.0571, 42.72532
289.5392, 42.97239
290.0214, 43.15153
290.5035, 43.25508
290.9856, 43.34883
291.4677, 43.47191
291.9498, 43.63366
292.4319, 43.89722
292.9141, 44.36060
293.3962, 44.89756
293.8783, 45.13835
294.3604, 45.07697
294.8425, 45.06792
295.3246, 45.43031
295.8068, 46.09991
296.2889, 46.87188
296.7710, 47.77082
297.2531, 48.67355
297.7352, 49.31715
298.2173, 49.72628
298.6995, 50.13727
299.1816, 50.72424
299.6637, 51.43329
300.1458, 52.11780
300.6279, 52.71708
301.1100, 53.37214
301.5922, 54.43344
302.0743, 55.76331
302.5564, 56.80357
303.0385, 56.83995
303.5206, 56.51221
304.0027, 56.78953
304.4849, 57.87154
304.9670, 59.23273
305.4491, 60.54424
305.9312, 61.75367
306.4133, 62.73577
306.8954, 63.24218
307.3776, 63.59383
307.8597, 64.08102
308.3418, 64.72958
308.8239, 65.50454
309.3060, 66.36858
309.7881, 67.35308
310.2703, 68.47740
310.7524, 70.01436
311.2345, 71.51542
311.7166, 72.58304
312.1987, 73.22581
312.6808, 73.83737
313.1630, 74.77839
313.6451, 75.75883
314.1272, 76.47327
314.6093, 76.64310
315.0914, 76.68227
315.5735, 76.84561
316.0557, 77.07704
316.5378, 77.08131
317.0199, 76.64803
317.5020, 75.99100
317.9841, 75.27071
318.4662, 74.67509
318.9484, 73.81054
319.4305, 72.40888
319.9126, 70.62712
320.3947, 68.87719
320.8768, 67.30904
321.3589, 65.78007
321.8411, 64.18600
322.3232, 62.43034
322.8053, 60.85772
323.2874, 59.56452
323.7695, 58.48902
324.2516, 57.53358
324.7338, 56.72672
325.2159, 55.99711
325.6980, 55.30745
326.1801, 54.63002
326.6622, 54.10195
327.1443, 53.80693
327.6265, 53.62888
328.1086, 53.44884
328.5907, 52.97306
329.0728, 52.82758
329.5549, 53.26383
330.0370, 54.29236
330.5192, 55.01966
331.0013, 55.26917
331.4834, 55.37383
331.9655, 55.54660
332.4476, 55.70046
332.9297, 56.07444
333.4119, 56.69887
333.8940, 57.55707
334.3761, 58.60747
334.8582, 59.95040
335.3403, 61.28777
335.8224, 62.43913
336.3046, 63.30299
336.7867, 64.29888
337.2688, 65.48882
337.7509, 66.77902
338.2330, 68.02287
338.7151, 69.22133
339.1973, 70.34152
339.6794, 71.36005
340.1615, 72.26234
340.6436, 73.18260
341.1257, 74.08042
341.6078, 75.06543
342.0900, 76.33579
342.5721, 77.89355
343.0542, 79.42419
343.5363, 80.79140
344.0184, 82.04630
344.5005, 83.49428
344.9827, 85.15402
345.4648, 86.78791
345.9469, 88.03865
346.4290, 88.99458
346.9111, 90.19836
347.3932, 91.75098
347.8754, 93.61832
348.3575, 95.85991
348.8396, 98.42554
349.3217, 100.8808
349.8038, 102.8576
350.2859, 104.4852
350.7681, 106.1258
351.2502, 107.8720
351.7323, 109.4334
352.2144, 110.3935
352.6965, 110.8823
353.1786, 111.2634
353.6608, 112.0688
354.1429, 112.7107
354.6250, 112.4460
355.1071, 111.2372
355.5892, 109.4134
356.0714, 107.1253
356.5535, 104.4111
357.0356, 101.3219
357.5177, 97.66872
357.9998, 93.80632
358.4819, 90.03666
358.9641, 86.33069
359.4462, 82.61746
359.9283, 78.63886
360.4104, 74.75334
360.8925, 71.24708
361.3746, 68.15637
361.8568, 65.49765
362.3389, 63.52924
362.8210, 62.01237
363.3031, 60.35894
363.7852, 58.01738
364.2673, 55.79453
364.7495, 54.12543
365.2316, 53.21009
365.7137, 52.27202
366.1958, 51.01031
366.6779, 49.71029
367.1600, 48.69609
367.6422, 48.17440
368.1243, 47.76558
368.6064, 47.44046
369.0885, 47.20333
369.5706, 46.88957
370.0527, 46.30257
370.5349, 45.78931
371.0170, 45.58242
371.4991, 45.88187
371.9812, 46.15545
372.4633, 46.38145
372.9454, 46.55814
373.4276, 46.65608
373.9097, 46.59355
374.3918, 46.59826
374.8739, 46.82043
375.3560, 47.36045
375.8381, 47.64732
376.3203, 47.57807
376.8024, 47.38524
377.2845, 47.41829
377.7666, 47.69809
378.2487, 48.09143
378.7308, 48.56966
379.2130, 49.12726
379.6951, 49.69899
380.1772, 50.29737
380.6593, 50.86852
381.1414, 51.37679
381.6235, 51.81880
382.1057, 52.21933
382.5878, 52.61163
383.0699, 52.91991
383.5520, 52.98175
384.0341, 52.80971
384.5162, 52.52622
384.9984, 52.12597
385.4805, 51.67943
385.9626, 51.41708
386.4447, 51.42324
386.9268, 51.28040
387.4089, 50.40495
387.8911, 49.04673
388.3732, 47.78764
388.8553, 46.93923
389.3374, 46.27229
389.8195, 45.59372
390.3016, 44.91079
390.7838, 44.25514
391.2659, 43.70217
391.7480, 43.17249
392.2301, 42.57772
392.7122, 41.82959
393.1943, 41.10271
393.6765, 40.46739
394.1586, 39.91905
394.6407, 39.45533
395.1228, 39.06057
395.6049, 38.75727
396.0870, 38.58686
396.5692, 38.62345
397.0513, 38.56910
397.5334, 38.29406
398.0155, 37.92006
398.4976, 37.60328
398.9797, 37.33367
399.4619, 37.14682
399.9440, 37.10703
400.4261, 37.21260
400.9082, 37.17023
401.3903, 36.88712
401.8724, 36.54310
402.3546, 36.23133
402.8367, 35.88176
403.3188, 35.74727
403.8009, 35.97579
404.2830, 36.36938
404.7651, 36.37551
405.2473, 35.84805
405.7294, 35.35021
406.2115, 35.11095
406.6936, 35.13730
407.1757, 35.24364
407.6578, 35.44078
408.1400, 35.69062
408.6221, 36.01645
409.1042, 36.41304
409.5863, 36.61691
410.0684, 36.50103
410.5505, 36.19288
411.0327, 35.99241
411.5148, 35.89534
411.9969, 35.79528
412.4790, 35.51731
412.9611, 35.18394
413.4432, 35.14320
413.9254, 35.50211
414.4075, 35.91552
414.8896, 35.98876
415.3717, 35.82845
415.8538, 35.68310
416.3359, 35.66072
416.8181, 35.71376
417.3002, 35.79564
417.7823, 35.90748
418.2644, 36.08171
418.7465, 36.37910
419.2286, 36.73149
419.7108, 37.08228
420.1929, 37.56665
420.6750, 37.84875
421.1571, 37.55267
421.6392, 36.93686
422.1213, 36.68067
422.6035, 37.35750
423.0856, 38.09235
423.5677, 38.51874
424.0498, 38.51902
424.5319, 38.52300
425.0140, 38.51949
425.4962, 38.55671
425.9783, 38.68041
426.4604, 38.87540
426.9425, 39.18560
427.4246, 39.66834
427.9067, 40.29290
428.3889, 40.80033
428.8710, 41.12631
429.3531, 41.44748
429.8352, 41.87001
430.3173, 42.40462
430.7994, 42.98185
431.2816, 43.65050
431.7637, 44.27740
432.2458, 44.55835
432.7279, 44.46584
433.2100, 44.48134
433.6921, 44.79133
434.1743, 45.33832
434.6564, 45.93421
435.1385, 46.58855
435.6206, 47.22636
436.1027, 47.74817
436.5848, 48.20376
437.0670, 48.73639
437.5491, 49.39257
438.0312, 50.08891
438.5133, 50.78411
438.9954, 51.45684
439.4775, 52.04666
439.9597, 52.49174
440.4418, 52.86115
440.9239, 53.22703
441.4060, 53.59414
441.8881, 53.89350
442.3702, 54.11531
442.8524, 54.23366
443.3345, 54.21981
443.8166, 53.87327
444.2987, 53.61916
444.7808, 53.77238
445.2629, 54.14098
445.7451, 54.16314
446.2272, 53.31718
446.7093, 52.45894
447.1914, 51.91534
447.6735, 51.77643
448.1556, 51.70444
448.6378, 51.81161
449.1199, 51.91082
449.6020, 51.80067
450.0841, 51.38733
450.5662, 50.97559
451.0483, 50.65583
451.5305, 50.36896
452.0126, 49.82981
452.4947, 48.96128
452.9768, 48.06469
453.4589, 47.24039
453.9410, 46.47952
454.4232, 46.03223
454.9053, 45.94578
455.3874, 46.00887
455.8695, 45.99051
456.3516, 45.89067
456.8337, 45.70758
457.3159, 45.39384
457.7980, 45.03345
458.2801, 44.77299
458.7622, 44.60603
459.2443, 44.47917
459.7264, 44.41506
460.2086, 44.34900
460.6907, 44.13817
461.1728, 43.70201
461.6549, 43.41048
462.1370, 43.75905
462.6191, 44.37702
463.1013, 44.71277
463.5834, 44.20494
464.0655, 43.70388
464.5476, 43.65326
465.0297, 44.00236
465.5118, 44.26162
465.9940, 44.24465
466.4761, 44.13877
466.9582, 44.02318
467.4403, 43.73619
467.9224, 43.75147
468.4045, 44.35492
468.8867, 45.14295
469.3688, 45.52197
469.8509, 45.22305
470.3330, 44.99364
470.8151, 45.02412
471.2972, 45.28581
471.7794, 45.45544
472.2615, 45.48593
472.7436, 45.55877
473.2257, 45.87461
473.7078, 46.44207
474.1899, 46.73347
474.6721, 46.64607
475.1542, 46.45380
475.6363, 46.58476
476.1184, 46.99416
476.6005, 47.39514
477.0826, 47.64478
477.5648, 47.83314
478.0469, 48.12103
478.5290, 48.50005
479.0111, 48.89400
479.4932, 49.23344
479.9753, 49.56450
480.4575, 49.93891
480.9396, 50.36509
481.4217, 50.84235
481.9038, 51.41002
482.3859, 52.01206
482.8680, 52.55896
483.3502, 52.87483
483.8323, 53.27211
484.3144, 54.02326
484.7965, 55.07452
485.2786, 55.73882
485.7607, 55.48231
486.2429, 55.14434
486.7250, 55.13505
487.2071, 55.54270
487.6892, 56.10161
488.1713, 56.91292
488.6534, 57.80457
489.1356, 58.51638
489.6177, 58.96721
490.0998, 59.49848
490.5819, 60.23606
491.0640, 61.12799
491.5461, 61.84214
492.0283, 62.34922
492.5104, 62.93015
492.9925, 63.82541
493.4746, 64.98368
493.9567, 66.05104
494.4388, 67.00193
494.9210, 67.94099
495.4031, 69.00456
495.8852, 70.15606
496.3673, 71.32690
496.8494, 72.35486
497.3315, 73.50629
497.8137, 75.18090
498.2958, 77.25724
498.7779, 79.16869
499.2600, 80.44225
499.7421, 81.59112
500.2242, 82.91572
500.7064, 84.43105
501.1885, 86.29838
501.6706, 88.82308
502.1527, 91.59998
502.6348, 94.17923
503.1169, 96.04698
503.5991, 98.26698
504.0812, 101.0201
504.5633, 104.1903
505.0454, 107.4236
505.5275, 110.5967
506.0096, 113.9504
506.4918, 117.5478
506.9739, 121.4188
507.4560, 125.5273
507.9381, 129.8338
508.4202, 134.4817
508.9023, 139.6792
509.3845, 145.4061
509.8666, 151.2552
510.3487, 157.0210
510.8308, 163.1158
511.3129, 170.4070
511.7950, 178.7164
512.2772, 187.2079
512.7593, 195.3002
513.2414, 203.3936
513.7235, 212.0562
514.2056, 221.2975
514.6877, 230.9873
515.1699, 240.8711
515.6520, 251.2526
516.1341, 262.4900
516.6162, 275.1216
517.0983, 287.7481
517.5804, 299.7613
518.0626, 311.5871
518.5447, 323.9262
519.0268, 337.2234
519.5089, 350.7295
519.9910, 364.0133
520.4731, 377.1720
520.9553, 391.1718
521.4374, 406.2608
521.9195, 421.5854
522.4016, 436.5831
522.8837, 450.9029
523.3658, 466.1627
523.8480, 482.6313
524.3301, 499.5771
524.8122, 516.0446
525.2943, 531.9671
525.7764, 547.2843
526.2585, 562.0887
526.7407, 576.1440
527.2228, 589.6589
527.7049, 602.5167
528.1870, 613.6345
528.6691, 623.2542
529.1512, 630.4666
529.6334, 634.3024
530.1155, 634.7186
530.5976, 631.9438
531.0797, 626.1179
531.5618, 617.1329
532.0439, 604.9120
532.5261, 588.1610
533.0082, 569.8157
533.4903, 550.6137
533.9724, 530.2145
534.4545, 507.3638
534.9366, 480.1400
535.4188, 452.7060
535.9009, 425.8898
536.3830, 399.7073
536.8651, 374.5868
537.3472, 350.5444
537.8293, 327.6338
538.3115, 306.1689
538.7936, 286.2592
539.2757, 267.2508
539.7578, 249.1236
540.2399, 232.2704
540.7220, 217.0852
541.2042, 203.6301
541.6863, 191.1448
542.1684, 179.2116
542.6505, 168.1772
543.1326, 158.7148
543.6147, 150.6280
544.0969, 142.9319
544.5790, 134.9862
545.0611, 127.4307
545.5432, 120.9416
546.0253, 115.6322
546.5074, 110.5785
546.9896, 105.3754
547.4717, 100.3325
547.9538, 95.69595
548.4359, 91.40443
548.9180, 87.67113
549.4001, 84.77895
549.8823, 82.33940
550.3644, 79.67085
550.8465, 76.42113
551.3286, 73.57978
551.8107, 71.55231
552.2928, 70.17400
552.7750, 68.16364
553.2571, 65.33476
553.7392, 62.73882
554.2213, 61.24764
554.7034, 60.66384
555.1855, 59.75716
555.6677, 58.44761
556.1498, 56.97218
556.6319, 55.47226
557.1140, 54.01377
557.5961, 52.75806
558.0782, 51.80821
558.5604, 50.97412
559.0425, 50.13664
559.5246, 49.30388
560.0067, 48.49878
560.4888, 47.82469
560.9709, 47.10266
561.4531, 46.16164
561.9352, 44.99733
562.4173, 44.11453
562.8994, 43.86813
563.3815, 43.68888
563.8636, 43.27753
564.3458, 42.51571
564.8279, 41.83974
565.3100, 41.22722
565.7921, 40.71983
566.2742, 40.41788
566.7563, 40.34560
567.2385, 40.23077
567.7206, 40.02537
568.2027, 39.73363
568.6848, 39.33307
569.1669, 38.83655
569.6490, 38.38129
570.1312, 38.08772
570.6133, 37.85202
571.0954, 37.47722
571.5775, 36.97067
572.0596, 36.57613
572.5417, 36.55756
573.0239, 36.65100
573.5060, 36.61647
573.9881, 36.35330
574.4702, 36.12220
574.9523, 35.96257
575.4344, 35.88961
575.9166, 35.92542
576.3987, 36.20051
576.8808, 36.41366
577.3629, 36.56185
577.8450, 36.62315
578.3271, 36.46886
578.8093, 35.96641
579.2914, 35.64000
579.7735, 35.71022
580.2556, 36.14821
580.7377, 36.93221
581.2198, 38.11618
581.7020, 38.99921
582.1841, 38.65678
582.6662, 37.60431
583.1483, 37.04511
583.6304, 37.15606
584.1125, 37.71712
584.5947, 39.14699
585.0768, 40.74461
585.5589, 41.46153
586.0410, 39.79082
586.5231, 38.46527
587.0052, 39.23008
587.4874, 41.25414
587.9695, 42.29242
588.4516, 40.81052
588.9337, 39.44299
589.4158, 39.04456
589.8979, 39.62239
590.3801, 39.85158
590.8622, 39.56874
591.3443, 39.22448
591.8264, 39.13261
592.3085, 39.31532
592.7906, 39.37761
593.2728, 39.30046
593.7549, 39.12107
594.2370, 38.86018
594.7191, 38.52710
595.2012, 38.16096
595.6833, 37.75492
596.1655, 37.34698
596.6476, 37.06094
597.1297, 36.80799
597.6118, 36.37609
598.0939, 35.43036
598.5760, 34.49423
599.0582, 33.87876
599.5403, 33.57029
600.0224, 33.26290
600.5045, 32.89997
600.9866, 32.51525
601.4688, 32.10013
601.9509, 31.61846
602.4330, 31.28201
602.9151, 31.17666
603.3972, 31.10056
603.8793, 30.83575
604.3615, 30.34987
604.8436, 30.02952
605.3257, 29.96667
605.8078, 29.97808
606.2899, 29.72505
606.7720, 29.27144
607.2542, 28.93490
607.7363, 28.89658
608.2184, 28.96481
608.7005, 28.94995
609.1826, 28.85781
609.6647, 28.70934
610.1469, 28.44201
610.6290, 28.17899
611.1111, 28.00299
611.5932, 27.91855
612.0753, 27.84908
612.5574, 27.80884
613.0396, 27.75544
613.5217, 27.66408
614.0038, 27.51868
614.4859, 27.36548
614.9680, 27.17307
615.4501, 27.01473
615.9323, 26.97671
616.4144, 27.06040
616.8965, 27.26154
617.3786, 27.65581
617.8607, 28.02270
618.3428, 27.86884
618.8250, 27.31521
619.3071, 26.86804
619.7892, 26.82460
620.2713, 26.95728
620.7534, 27.11883
621.2355, 27.28336
621.7177, 27.32179
622.1998, 26.92029
622.6819, 26.58041
623.1640, 26.67140
623.6461, 27.31805
624.1282, 27.71729
624.6104, 27.72290
625.0925, 27.51906
625.5746, 27.16524
626.0567, 26.48616
626.5388, 26.18470
627.0209, 26.38735
627.5031, 26.78272
627.9852, 26.92888
628.4673, 26.83961
628.9494, 26.82826
629.4315, 26.97492
629.9136, 27.22164
630.3958, 27.60532
630.8779, 28.03240
631.3600, 28.21533
631.8421, 27.62810
632.3242, 27.05705
632.8063, 27.27561
633.2885, 28.12035
633.7706, 28.66813
634.2527, 28.35976
634.7348, 27.88207
635.2169, 27.53952
635.6990, 27.36513
636.1812, 27.24019
636.6633, 27.20267
637.1454, 27.16605
637.6275, 27.02991
638.1096, 26.74856
638.5917, 26.70923
639.0739, 26.98199
639.5560, 27.34269
640.0381, 27.53141
640.5202, 27.56836
641.0023, 27.53147
641.4844, 27.41690
641.9666, 27.28442
642.4487, 27.14808
642.9308, 27.04212
643.4129, 27.04191
643.8950, 27.29618
644.3771, 27.54949
644.8593, 27.68884
645.3414, 27.72472
645.8235, 27.73325
646.3056, 27.68637
646.7877, 27.65615
647.2698, 27.68793
647.7520, 27.78744
648.2341, 27.77144
648.7162, 27.61503
649.1983, 27.41191
649.6804, 27.18789
650.1625, 26.95770
650.6447, 26.91636
651.1268, 27.10109
651.6089, 27.25221
652.0910, 26.98677
652.5731, 26.52481
653.0552, 26.27948
653.5374, 26.44590
654.0195, 26.61609
654.5016, 26.50651
654.9837, 26.24908
655.4658, 26.03740
655.9479, 25.93801
656.4301, 25.87087
656.9122, 25.79810
657.3943, 25.74680
657.8764, 25.80216
658.3585, 26.00801
658.8406, 26.22496
659.3228, 26.44480
659.8049, 26.63871
660.2870, 26.59619
660.7691, 26.30699
661.2512, 26.04180
661.7333, 26.03305
662.2155, 26.15215
662.6976, 26.12226
663.1797, 25.93926
663.6618, 25.80845
664.1439, 25.94655
664.6260, 26.15601
665.1082, 26.25184
665.5903, 26.16547
666.0724, 26.09860
666.5545, 26.16654
667.0366, 26.23689
667.5187, 26.17592
668.0009, 25.84320
668.4830, 25.69484
668.9651, 25.85228
669.4472, 26.09308
669.9293, 26.00092
670.4114, 25.57059
670.8936, 25.29369
671.3757, 25.33381
671.8578, 25.54233
672.3399, 25.73736
672.8220, 25.90293
673.3041, 25.98274
673.7863, 25.84239
674.2684, 25.69575
674.7505, 25.71057
675.2326, 25.86181
675.7147, 26.01220
676.1968, 26.23046
676.6790, 26.33546
677.1611, 26.16880
677.6432, 25.70877
678.1253, 25.52621
678.6074, 25.76042
679.0895, 26.01498
679.5717, 26.00119
680.0538, 25.71908
680.5359, 25.59509
681.0180, 25.65333
681.5001, 25.74797
681.9822, 25.71162
682.4644, 25.61057
682.9465, 25.60091
683.4286, 25.74056
683.9107, 25.84577
684.3928, 25.68804
684.8749, 25.46054
685.3571, 25.39470
685.8392, 25.81135
686.3213, 26.07020
686.8034, 25.95658
687.2855, 25.66543
687.7676, 25.49313
688.2498, 25.45859
688.7319, 25.50415
689.2140, 25.65567
689.6961, 25.84883
690.1782, 25.88673
690.6603, 25.77719
691.1425, 25.66740
691.6246, 25.60257
692.1067, 25.59158
692.5888, 25.67541
693.0709, 25.83371
693.5530, 25.97966
694.0352, 26.14646
694.5173, 26.21722
694.9994, 26.04197
695.4815, 25.60490
695.9636, 25.34266
696.4457, 25.39541
696.9279, 25.56535
697.4100, 25.80741
697.8921, 26.16149
698.3742, 26.28001
698.8563, 26.09569
699.3384, 25.88267
699.8206, 25.92454
700.3027, 26.15933
700.7848, 26.29604
701.2669, 26.29978
701.7490, 26.24243
702.2311, 26.14233
702.7133, 26.04177
703.1954, 26.00796
703.6775, 26.10047
704.1596, 26.17105
704.6417, 26.12161
705.1238, 26.03171
705.6060, 26.01495
706.0881, 26.12870
706.5702, 26.23033
707.0523, 26.31177
707.5344, 26.37060
708.0165, 26.40055
708.4987, 26.40129
708.9808, 26.37835
709.4629, 26.33239
709.9450, 26.26480
710.4271, 26.15670
710.9092, 26.02446
711.3914, 25.92489
711.8735, 25.95704
712.3556, 25.97485
712.8377, 25.82894
713.3198, 25.55989
713.8019, 25.37750
714.2841, 25.32625
714.7662, 25.38968
715.2483, 25.63157
715.7304, 26.03837
716.2125, 26.15712
716.6946, 25.85562
717.1768, 25.63060
717.6589, 25.90602
718.1410, 26.57524
718.6231, 26.70131
719.1052, 26.27164
719.5873, 25.86545
720.0695, 26.04176
720.5516, 26.46578
721.0337, 26.71910
721.5158, 26.73924
721.9979, 26.66955
722.4800, 26.45335
722.9622, 26.25295
723.4443, 26.21236
723.9264, 26.46647
724.4085, 26.61319
724.8906, 26.62827
725.3727, 26.56569
725.8549, 26.44273
726.3370, 26.24595
726.8191, 26.20769
727.3012, 26.39028
727.7833, 26.60798
728.2654, 26.57030
728.7476, 26.38127
729.2297, 26.30347
729.7118, 26.47879
730.1939, 26.64001
730.6760, 26.50707
731.1581, 26.26789
731.6403, 26.20974
732.1224, 26.57814
732.6045, 26.91856
733.0866, 27.23127
733.5687, 27.45175
734.0508, 27.38458
734.5330, 26.92102
735.0151, 26.63711
735.4972, 26.73372
735.9793, 27.04159
736.4614, 27.24745
736.9435, 27.34117
737.4257, 27.27014
737.9078, 26.79701
738.3899, 26.30991
738.8720, 26.22659
739.3541, 26.44584
739.8362, 26.61394
740.3184, 26.58754
740.8005, 26.50381
741.2826, 26.35526
741.7647, 26.16622
742.2468, 26.17203
742.7289, 26.46575
743.2111, 26.71385
743.6932, 26.68746
744.1753, 26.47486
744.6574, 26.63260
745.1395, 27.15035
745.6216, 27.71778
746.1038, 28.31416
746.5859, 28.72415
747.0680, 28.56249
747.5501, 27.83880
748.0322, 27.13851
748.5143, 26.63125
748.9965, 26.30783
749.4786, 26.19685
749.9607, 26.34701
750.4428, 26.45147
750.9249, 26.48660
751.4070, 26.51856
751.8892, 26.62864
752.3713, 26.81397
752.8534, 26.79660
753.3355, 26.54700
753.8176, 26.30776
754.2997, 26.38118
754.7819, 26.58642
755.2640, 26.61820
755.7461, 26.39895
756.2282, 26.20968
756.7103, 26.24042
757.1924, 26.34301
757.6746, 26.38290
758.1567, 26.24496
758.6388, 26.25777
759.1209, 26.52655
759.6030, 26.81879
760.0851, 26.83208
760.5673, 26.55069
761.0494, 26.53987
761.5315, 26.92233
762.0136, 27.32502
762.4957, 27.20860
762.9778, 26.81022
763.4600, 26.58456
763.9421, 26.70130
764.4242, 26.87666
764.9063, 26.97166
765.3884, 27.03033
765.8705, 27.10745
766.3527, 27.29606
766.8348, 27.36727
767.3169, 27.23267
767.7990, 27.04940
768.2811, 27.08791
768.7632, 27.36267
769.2454, 27.53550
769.7275, 27.48797
770.2096, 27.43702
770.6917, 27.83925
771.1738, 28.46072
771.6559, 28.78528
772.1381, 28.52342
772.6202, 28.06011
773.1023, 27.32504
773.5844, 26.58410
774.0665, 26.33606
774.5486, 27.21481
775.0308, 27.72538
775.5129, 27.51467
775.9950, 26.94650
776.4771, 26.88096
776.9592, 27.33867
777.4413, 27.67780
777.9235, 27.68238
778.4056, 27.52265
778.8877, 27.36232
779.3698, 27.24656
779.8519, 27.29193
780.3340, 27.85208
780.8162, 28.27260
781.2983, 28.15694
781.7804, 27.67114
782.2625, 27.25391
782.7446, 26.84228
783.2267, 26.67269
783.7089, 26.86650
784.1910, 27.29380
784.6731, 27.61014
785.1552, 27.81721
785.6373, 27.91854
786.1194, 27.87085
786.6016, 27.76666
787.0837, 27.71457
787.5658, 27.71567
788.0479, 27.77518
788.5300, 28.03282
789.0121, 28.20774
789.4943, 28.12527
789.9764, 27.84652
790.4585, 27.62186
790.9406, 27.45224
791.4227, 27.34261
791.9048, 27.27468
792.3870, 27.27972
792.8691, 27.45019
793.3512, 27.78705
793.8333, 28.29750
794.3154, 29.30363
794.7975, 30.21473
795.2797, 30.11822
795.7618, 29.28176
796.2439, 28.56641
796.7260, 28.42455
797.2081, 28.35703
797.6902, 28.12649
798.1724, 27.80863
798.6545, 27.72828
799.1366, 27.96070
799.6187, 28.24675
800.1008, 28.56173
800.5829, 28.83359
801.0651, 28.79738
801.5472, 28.49095
802.0293, 28.15467
802.5114, 27.85596
802.9935, 27.63479
803.4756, 27.53385
803.9578, 27.54294
804.4399, 27.63097
804.9220, 27.81108
805.4041, 28.05462
805.8862, 28.47488
806.3683, 28.95418
806.8505, 28.90223
807.3326, 28.16931
807.8147, 27.65166
808.2968, 27.78754
808.7789, 28.26493
809.2610, 28.35532
809.7432, 28.15173
810.2253, 28.03337
810.7074, 28.36852
811.1895, 28.69543
811.6716, 28.65186
812.1537, 28.34460
812.6359, 28.18407
813.1180, 28.42682
813.6001, 28.54889
814.0822, 28.38811
814.5643, 28.03461
815.0464, 27.81276
815.5286, 27.72461
816.0107, 27.67608
816.4928, 27.60692
816.9749, 27.57902
817.4570, 27.72978
817.9391, 28.00357
818.4213, 28.24472
818.9034, 28.12251
819.3855, 28.22306
819.8676, 29.12094
820.3497, 30.45253
820.8318, 30.96051
821.3140, 30.25003
821.7961, 29.64511
822.2782, 29.52987
822.7603, 29.66182
823.2424, 29.41272
823.7245, 28.83467
824.2067, 28.26271
824.6888, 27.71897
825.1709, 27.37286
825.6530, 27.49890
826.1351, 27.92920
826.6172, 28.28368
827.0994, 28.44984
827.5815, 28.53353
828.0636, 28.54349
828.5457, 28.49840
829.0278, 28.43806
829.5099, 28.36653
829.9921, 28.24275
830.4742, 28.02709
830.9563, 27.81308
831.4384, 27.76481
831.9205, 27.83810
832.4026, 27.92157
832.8848, 27.99938
833.3669, 28.04274
833.8490, 28.01750
834.3311, 27.95286
834.8132, 27.90140
835.2953, 27.90501
835.7775, 27.83650
836.2596, 27.63584
836.7417, 27.41906
837.2238, 27.40529
837.7059, 27.57030
838.1880, 27.68923
838.6702, 27.70423
839.1523, 27.68427
839.6344, 27.66619
840.1165, 27.66961
840.5986, 27.73248
841.0807, 27.98074
841.5629, 28.09276
842.0450, 27.86743
842.5271, 27.57190
843.0092, 27.48870
843.4913, 27.66622
843.9734, 27.78107
844.4556, 27.79819
844.9377, 27.77411
845.4198, 27.75470
845.9019, 27.74844
846.3840, 27.79926
846.8661, 27.94635
847.3483, 27.99838
847.8304, 27.78683
848.3125, 27.46799
848.7946, 27.15911
849.2767, 26.78954
849.7589, 26.67779
850.2410, 26.91999
850.7231, 27.23788
851.2052, 27.38658
851.6873, 27.38857
852.1694, 27.38715
852.6516, 27.38959
853.1337, 27.42249
853.6158, 27.57945
854.0979, 27.73169
854.5800, 27.74472
855.0621, 27.58951
855.5443, 27.40958
856.0264, 27.12562
856.5085, 26.94306
856.9906, 27.01420
857.4727, 27.33930
857.9548, 27.45378
858.4370, 27.33935
858.9191, 27.21972
859.4012, 27.30622
859.8833, 27.46215
860.3654, 27.44346
860.8475, 27.26589
861.3297, 27.11823
861.8118, 27.10725
862.2939, 27.12694
862.7760, 27.14048
863.2581, 27.14374
863.7402, 27.10035
864.2224, 26.99072
864.7045, 26.89875
865.1866, 26.84812
865.6687, 26.84638
866.1508, 26.99859
866.6329, 27.24446
867.1151, 27.31811
867.5972, 26.79648
868.0793, 26.33630
868.5614, 26.45917
869.0435, 26.96539
869.5256, 27.20993
870.0078, 26.99161
870.4899, 26.78421
870.9720, 26.64325
871.4541, 26.59006
871.9362, 26.74782
872.4183, 27.07593
872.9005, 27.23412
873.3826, 27.05082
873.8647, 26.80310
874.3468, 26.80693
874.8289, 26.90924
875.3110, 26.87793
875.7932, 26.42779
876.2753, 26.14863
876.7574, 26.18201
877.2395, 26.31506
877.7216, 26.27746
878.2037, 26.05564
878.6859, 25.88963
879.1680, 25.79667
879.6501, 25.81584
880.1322, 26.13236
880.6143, 26.53041
881.0964, 26.67697
881.5786, 26.47033
882.0607, 26.20528
882.5428, 25.88501
883.0249, 25.62335
883.5070, 25.50014
883.9891, 25.53018
884.4713, 25.63457
884.9534, 25.84005
885.4355, 25.97846
885.9176, 25.82002
886.3997, 25.52874
886.8818, 25.48842
887.3640, 25.69034
887.8461, 25.83287
888.3282, 25.69770
888.8103, 25.50517
889.2924, 25.36301
889.7745, 25.27386
890.2567, 25.20992
890.7388, 25.16491
891.2209, 25.17305
891.7030, 25.29517
892.1851, 25.44943
892.6672, 25.35959
893.1494, 25.09056
893.6315, 24.92355
894.1136, 25.16307
894.5957, 25.38124
895.0778, 25.24498
895.5599, 24.90854
896.0421, 24.78261
896.5242, 24.99200
897.0063, 25.19745
897.4884, 25.37135
897.9705, 25.47675
898.4526, 25.39997
898.9348, 25.18073
899.4169, 25.01099
899.8990, 24.95802
900.3811, 24.90301
900.8632, 24.69899
901.3453, 24.46359
901.8275, 24.33122
902.3096, 24.39713
902.7917, 24.44459
903.2738, 24.44514
903.7559, 24.46622
904.2380, 24.61395
904.7202, 24.86296
905.2023, 24.94874
905.6844, 24.85332
906.1665, 24.68119
906.6486, 24.37944
907.1307, 24.13607
907.6129, 24.21662
908.0950, 24.67194
908.5771, 24.83529
909.0592, 24.28836
909.5413, 23.91428
910.0234, 24.20507
910.5056, 24.98901
910.9877, 25.10987
911.4698, 24.60216
911.9519, 24.11423
912.4340, 23.99644
912.9161, 24.08131
913.3983, 24.30683
913.8804, 24.60387
914.3625, 24.77973
914.8446, 24.75615
915.3267, 24.62171
915.8088, 24.33233
916.2910, 23.98804
916.7731, 23.74719
917.2552, 23.61245
917.7373, 23.75695
918.2194, 24.31857
918.7015, 24.84889
919.1837, 24.76738
919.6658, 24.38549
920.1479, 24.13070
920.6300, 24.16185
921.1121, 24.19946
921.5942, 24.24167
922.0764, 24.23458
922.5585, 24.09767
923.0406, 23.82233
923.5227, 23.71883
924.0048, 23.80708
924.4869, 23.87894
924.9691, 23.67118
925.4512, 23.41298
925.9333, 23.37416
926.4154, 23.56422
926.8975, 23.80120
927.3796, 24.14331
927.8618, 24.40073
928.3439, 24.49931
928.8260, 24.46272
929.3081, 24.40808
929.7902, 24.33538
930.2723, 24.25177
930.7545, 24.13303
931.2366, 24.03864
931.7187, 24.08066
932.2008, 24.19468
932.6829, 24.24825
933.1650, 24.13613
933.6472, 24.05075
934.1293, 24.03855
934.6114, 24.04618
935.0935, 24.00141
935.5756, 23.90423
936.0577, 23.76513
936.5399, 23.57460
937.0220, 23.42620
937.5041, 23.44706
937.9862, 23.54613
938.4683, 23.63150
938.9504, 23.69762
939.4326, 23.69304
939.9147, 23.52592
940.3968, 23.39800
940.8789, 23.45884
941.3610, 23.68091
941.8431, 23.67792
942.3253, 23.45688
942.8074, 23.22113
943.2895, 23.07435
943.7716, 22.99612
944.2537, 22.99155
944.7358, 23.04357
945.2180, 23.09157
945.7001, 23.12884
946.1822, 23.14911
946.6643, 23.13765
947.1464, 23.12146
947.6285, 23.16299
948.1107, 23.25562
948.5928, 23.36208
949.0749, 23.49639
949.5570, 23.56502
950.0391, 23.37669
950.5212, 23.13009
951.0034, 23.06532
951.4855, 23.33414
951.9676, 23.53033
952.4497, 23.63726
952.9318, 23.68920
953.4139, 23.67309
953.8961, 23.61483
954.3782, 23.71615
954.8603, 23.96526
955.3424, 24.13715
955.8245, 24.02454
956.3066, 23.83030
956.7888, 23.63779
957.2709, 23.47489
957.7530, 23.49313
958.2351, 23.81782
958.7172, 24.03270
959.1993, 24.02203
959.6815, 23.84336
960.1636, 23.53385
960.6457, 23.15609
961.1278, 22.92027
961.6099, 22.93414
962.0920, 23.02532
962.5742, 23.12289
963.0563, 23.23198
963.5384, 23.36716
964.0205, 23.58199
964.5026, 23.64692
964.9847, 23.51816
965.4669, 23.38766
965.9490, 23.47805
966.4311, 23.68027
966.9132, 23.77765
967.3953, 23.75823
967.8774, 23.67275
968.3596, 23.39192
968.8417, 23.20943
969.3238, 23.34821
969.8059, 23.71146
970.2880, 23.84897
970.7701, 23.73613
971.2523, 23.60484
971.7344, 23.51088
972.2165, 23.47498
972.6986, 23.54233
973.1807, 23.68612
973.6628, 23.85794
974.1450, 24.12414
974.6271, 24.28444
975.1092, 24.25121
975.5913, 24.14754
976.0734, 24.10692
976.5555, 24.13419
977.0377, 23.94312
977.5198, 23.50688
978.0019, 23.17551
978.4840, 23.29840
978.9661, 23.62262
979.4482, 23.98723
979.9304, 24.36057
980.4125, 24.46572
980.8946, 24.05980
981.3767, 23.70951
981.8588, 23.56758
982.3409, 23.59593
982.8231, 23.74783
983.3052, 23.99149
983.7873, 24.16732
984.2694, 24.24231
984.7515, 24.18533
985.2336, 23.79373
985.7158, 23.33632
986.1979, 23.18911
986.6800, 23.55359
987.1621, 23.79583
987.6442, 23.89448
988.1263, 23.92881
988.6085, 23.97249
989.0906, 23.96126
989.5727, 23.96659
990.0548, 23.85872
990.5369, 23.74513
991.0190, 23.61746
991.5012, 23.53414
991.9833, 23.51441
992.4654, 23.56071
992.9475, 23.73507
993.4296, 24.06345
993.9117, 24.25648
994.3939, 24.20243
994.8760, 24.03420
995.3581, 23.89417
995.8402, 23.77442
996.3223, 23.65240
996.8044, 23.48969
997.2866, 23.40121
997.7687, 23.42848
998.2508, 23.49752
998.7329, 23.56526
999.2150, 23.63005
999.6971, 23.65337
1000.179, 23.63679
1000.661, 23.64038
1001.143, 23.76302
1001.626, 23.87260
1002.108, 23.82464
1002.590, 23.66129
1003.072, 23.61323
1003.554, 23.75667
1004.036, 23.86075
1004.518, 23.87502
1005.000, 23.83475
1005.483, 23.76335
1005.965, 23.68792
1006.447, 23.69200
1006.929, 23.81362
1007.411, 23.93812
1007.893, 23.98553
1008.375, 24.03758
1008.857, 24.20200
1009.339, 24.50975
1009.822, 24.42260
1010.304, 23.89801
1010.786, 23.45188
1011.268, 23.52110
1011.750, 23.78247
1012.232, 23.79815
1012.714, 23.66116
1013.196, 23.64472
1013.679, 24.02159
1014.161, 24.26554
1014.643, 24.28019
1015.125, 24.15463
1015.607, 23.98435
1016.089, 23.78085
1016.571, 23.60165
1017.053, 23.45328
1017.535, 23.36341
1018.018, 23.25547
1018.500, 23.29038
1018.982, 23.73274
1019.464, 24.60385
1019.946, 24.96754
1020.428, 24.70532
1020.910, 24.36874
1021.392, 24.18198
1021.875, 24.07706
1022.357, 23.89556
1022.839, 23.69437
1023.321, 23.61450
1023.803, 23.90178
1024.285, 24.02891
1024.767, 23.63444
1025.249, 23.22366
1025.731, 23.36978
1026.214, 24.08169
1026.696, 24.42365
1027.178, 24.34668
1027.660, 24.15596
1028.142, 23.98876
1028.624, 23.89509
1029.106, 23.98217
1029.588, 24.21520
1030.071, 24.30968
1030.553, 24.23776
1031.035, 24.04465
1031.517, 23.67748
1031.999, 23.30064
1032.481, 23.28869
1032.963, 23.49286
1033.445, 23.48337
1033.927, 23.04525
1034.410, 22.80027
1034.892, 23.24424
1035.374, 23.80089
1035.856, 24.09003
1036.338, 24.11043
1036.820, 23.94305
1037.302, 23.58483
1037.784, 23.33316
1038.266, 23.43461
1038.749, 23.67838
1039.231, 23.96380
1039.713, 24.21673
1040.195, 24.23970
1040.677, 23.75068
1041.159, 23.49155
1041.641, 23.59115
1042.123, 23.79969
1042.605, 23.82314
1043.088, 23.70727
1043.570, 23.54826
1044.052, 23.35688
1044.534, 23.24680
1045.016, 23.37317
1045.498, 23.50165
1045.980, 23.48816
1046.462, 23.37448
1046.945, 23.35550
1047.427, 23.43344
1047.909, 23.55371
1048.391, 23.72712
1048.873, 23.86616
1049.355, 23.83658
1049.837, 23.73260
1050.319, 23.69023
1050.802, 23.81298
1051.284, 23.78498
1051.766, 23.51442
1052.248, 23.29376
1052.730, 23.37747
1053.212, 23.66967
1053.694, 23.94711
1054.176, 24.17673
1054.658, 24.21399
1055.141, 23.75680
1055.623, 23.36339
1056.105, 23.26989
1056.587, 23.33539
1057.069, 23.37502
1057.551, 23.38861
1058.033, 23.35671
1058.515, 23.26499
1058.998, 23.23520
1059.480, 23.43875
1059.962, 23.71147
1060.444, 23.97256
1060.926, 24.19942
1061.408, 24.06396
1061.890, 23.37819
1062.372, 22.81704
1062.854, 22.59342
1063.337, 22.64987
1063.819, 23.10309
1064.301, 23.71902
1064.783, 23.94443
1065.265, 23.43148
1065.747, 22.98030
1066.229, 22.87906
1066.711, 22.87094
1067.193, 22.77416
1067.676, 22.79884
1068.158, 22.89169
1068.640, 22.88895
1069.122, 23.12493
1069.604, 23.26467
1070.086, 23.31495
1070.568, 23.23265
1071.050, 23.07568
1071.532, 22.97367
1072.015, 22.94179
1072.497, 22.93628
1072.979, 22.97116
1073.461, 22.95213
1073.943, 22.64771
1074.425, 22.29795
1074.907, 22.29816
1075.389, 22.66299
1075.872, 22.93775
1076.354, 22.97143
1076.836, 22.94479
1077.318, 22.87753
1077.800, 22.80599
1078.282, 22.81196
1078.764, 22.88431
1079.246, 22.99364
1079.729, 23.15470
1080.211, 23.27187
1080.693, 23.31238
1081.175, 23.26517
1081.657, 23.08661
1082.139, 22.77666
1082.621, 22.71260
1083.103, 22.89871
1083.585, 23.05317
1084.068, 22.94217
1084.550, 22.81754
1085.032, 23.02368
1085.514, 22.91486
1085.996, 22.88487
1086.478, 23.02011
1086.960, 22.86437
1087.442, 23.08100
1087.925, 23.33405
1088.407, 23.26909
1088.889, 23.03960
1089.371, 22.92609
1089.853, 22.92568
1090.335, 22.92591
1090.817, 22.86439
1091.299, 22.82910
1091.781, 22.85280
1092.264, 22.89997
1092.746, 22.88938
1093.228, 22.84027
1093.710, 22.84595
1094.192, 22.92398
1094.674, 23.04127
1095.156, 23.26597
1095.638, 23.44149
1096.120, 23.44405
1096.603, 23.29752
1097.085, 23.13988
1097.567, 22.96871
1098.049, 22.84269
1098.531, 22.78187
1099.013, 22.77726
1099.495, 22.90412
1099.977, 23.04000
1100.459, 23.00211
1100.942, 22.64791
1101.424, 22.51609
1101.906, 22.67949
1102.388, 22.82830
1102.870, 22.72384
1103.352, 22.48955
1103.834, 22.36121
1104.316, 22.30474
1104.799, 22.22787
1105.281, 22.06355
1105.763, 21.91144
1106.245, 21.71102
1106.727, 21.63128
1107.209, 21.96408
1107.691, 22.58952
1108.173, 23.00514
1108.656, 23.18689
1109.138, 23.21478
1109.620, 23.04321
1110.102, 22.82761
1110.584, 22.61080
1111.066, 22.41252
1111.548, 22.23795
1112.030, 22.08858
1112.512, 22.17440
1112.995, 22.58079
1113.477, 22.90013
1113.959, 22.61886
1114.441, 22.21743
1114.923, 22.08562
1115.405, 22.24547
1115.887, 22.63299
1116.369, 23.34897
1116.852, 23.71377
1117.334, 23.39341
1117.816, 22.81080
1118.298, 22.35014
1118.780, 22.06785
1119.262, 22.09962
1119.744, 22.68298
1120.226, 22.90005
1120.708, 22.57370
1121.191, 22.25182
1121.673, 22.31917
1122.155, 22.58224
1122.637, 22.54455
1123.119, 22.31046
1123.601, 22.16808
1124.083, 22.29803
1124.565, 22.44064
1125.047, 22.59756
1125.530, 22.69639
1126.012, 22.63076
1126.494, 22.44030
1126.976, 22.36950
1127.458, 22.40736
1127.940, 22.39590
1128.422, 22.16019
1128.904, 21.95051
1129.386, 21.87018
1129.869, 21.88723
1130.351, 22.00120
1130.833, 22.20828
1131.315, 22.26170
1131.797, 22.12327
1132.279, 22.00256
1132.761, 22.12275
1133.243, 22.27234
1133.726, 22.27087
1134.208, 22.15349
1134.690, 22.13701
1135.172, 22.24242
1135.654, 22.27968
1136.136, 22.18569
1136.618, 22.08078
1137.100, 22.06057
1137.583, 22.12480
1138.065, 22.30114
1138.547, 22.61303
1139.029, 22.86594
1139.511, 23.08818
1139.993, 23.13648
1140.475, 22.88754
1140.957, 22.54318
1141.439, 22.39364
1141.922, 22.38559
1142.404, 22.44006
1142.886, 22.59951
1143.368, 22.64670
1143.850, 22.54915
1144.332, 22.37733
1144.814, 22.06426
1145.296, 21.76736
1145.779, 21.99713
1146.261, 22.59510
1146.743, 23.10532
1147.225, 23.54400
1147.707, 23.54537
1148.189, 22.83552
1148.671, 22.02876
1149.153, 21.67679
1149.635, 21.70041
1150.118, 21.74191
1150.600, 21.79248
1151.082, 21.85706
1151.564, 21.94801
1152.046, 22.04063
1152.528, 22.07542
1153.010, 22.14638
1153.492, 22.42935
1153.974, 22.89666
1154.457, 23.28868
1154.939, 23.57580
1155.421, 23.64841
1155.903, 23.17759
1156.385, 22.72225
1156.867, 22.60003
1157.349, 22.74380
1157.831, 23.12796
1158.313, 23.76114
1158.796, 24.05988
1159.278, 23.90694
1159.760, 23.59508
1160.242, 23.15467
1160.724, 22.83581
1161.206, 22.92004
1161.688, 23.35188
1162.170, 23.68242
1162.653, 23.90267
1163.135, 24.14648
1163.617, 24.47596
1164.099, 24.75906
1164.581, 24.85206
1165.063, 24.83328
1165.545, 24.74496
1166.027, 24.57831
1166.510, 24.62151
1166.992, 24.93532
1167.474, 25.11354
1167.956, 24.95237
1168.438, 24.64698
1168.920, 24.39177
1169.402, 24.18210
1169.884, 24.00724
1170.366, 23.86869
1170.849, 23.77398
1171.331, 23.73580
1171.813, 23.69540
1172.295, 23.59403
1172.777, 23.49431
1173.259, 23.64306
1173.741, 23.83980
1174.223, 23.67165
1174.706, 22.46497
1175.188, 21.95608
1175.670, 22.38461
1176.152, 22.92146
1176.634, 22.86676
1177.116, 22.52508
1177.598, 22.56068
1178.080, 22.83663
1178.563, 22.92450
1179.045, 22.38216
1179.527, 22.13043
1180.009, 22.34612
1180.491, 22.63824
1180.973, 22.59624
1181.455, 22.36040
1181.937, 22.23936
1182.419, 22.23069
1182.901, 22.25321
1183.384, 22.36031
1183.866, 22.37048
1184.348, 22.23040
1184.830, 22.03153
1185.312, 21.87375
1185.794, 21.75138
1186.276, 21.63070
1186.758, 21.51633
1187.240, 21.49290
1187.723, 21.75784
1188.205, 21.88690
1188.687, 21.70216
1189.169, 21.44021
1189.651, 21.55030
1190.133, 21.90221
1190.615, 22.09102
1191.097, 22.06330
1191.580, 21.98261
1192.062, 21.81458
1192.544, 21.75086
1193.026, 21.90819
1193.508, 22.14698
1193.990, 22.12108
1194.472, 21.91265
1194.954, 21.83065
1195.437, 21.94873
1195.919, 22.02385
1196.401, 21.79099
1196.883, 21.69342
1197.365, 22.02251
1197.847, 22.53411
1198.329, 22.40962
1198.811, 21.82699
1199.293, 21.46230
1199.776, 21.48252
1200.258, 21.72300
1200.740, 22.50822
1201.222, 23.04468
1201.704, 22.82410
1202.186, 22.09062
1202.668, 21.83222
1203.150, 21.94307
1203.633, 21.99205
1204.115, 21.81638
1204.597, 21.64140
1205.079, 21.52154
1205.561, 21.49097
1206.043, 21.59295
1206.525, 21.79855
1207.007, 22.00467
1207.490, 22.18575
1207.972, 22.22120
1208.454, 21.97099
1208.936, 21.75419
1209.418, 21.71125
1209.900, 21.75347
1210.382, 21.89622
1210.864, 22.08706
1211.346, 21.80405
1211.828, 21.17885
1212.311, 20.87627
1212.793, 21.46824
1213.275, 22.01093
1213.757, 22.23156
1214.239, 22.19418
1214.721, 21.76867
1215.203, 21.06442
1215.685, 21.05381
1216.167, 21.60781
1216.650, 22.03460
1217.132, 21.86886
1217.614, 21.67704
1218.096, 21.57817
1218.578, 21.58385
1219.060, 21.78652
1219.542, 22.12875
1220.024, 22.19615
1220.507, 22.01905
1220.989, 21.80955
1221.471, 21.67815
1221.953, 21.51012
1222.435, 21.16299
1222.917, 20.89248
1223.399, 21.05251
1223.881, 21.53343
1224.364, 21.78546
1224.846, 21.81691
1225.328, 21.79269
1225.810, 21.72670
1226.292, 21.69421
1226.774, 21.62741
1227.256, 21.70382
1227.738, 22.40596
1228.220, 23.41210
1228.703, 23.36793
1229.185, 22.36982
1229.667, 21.57754
1230.149, 21.71869
1230.631, 21.84164
1231.113, 21.58469
1231.595, 21.43316
1232.077, 22.39404
1232.560, 23.88265
1233.042, 24.04244
1233.524, 22.91735
1234.006, 21.94172
1234.488, 21.81155
1234.970, 21.77118
1235.452, 21.70551
1235.934, 21.61806
1236.417, 21.46120
1236.899, 21.30420
1237.381, 21.36935
1237.863, 21.63854
1238.345, 21.76868
1238.827, 21.46055
1239.309, 21.29814
1239.791, 21.41090
1240.273, 21.62918
1240.755, 21.71733
1241.238, 21.75348
1241.720, 21.94696
1242.202, 22.28494
1242.684, 22.36766
1243.166, 21.86988
1243.648, 21.66162
1244.130, 21.96945
1244.612, 22.44427
1245.094, 22.63705
1245.577, 22.69648
1246.059, 22.88643
1246.541, 23.21047
1247.023, 23.32724
1247.505, 23.18714
1247.987, 22.88561
1248.469, 22.37449
1248.951, 21.95075
1249.434, 22.14352
1249.916, 22.54153
1250.398, 22.64043
1250.880, 22.41233
1251.362, 22.26497
1251.844, 22.22126
1252.326, 22.21961
1252.808, 22.24440
1253.291, 22.32064
1253.773, 22.55965
1254.255, 22.80040
1254.737, 22.81277
1255.219, 22.63373
1255.701, 22.80269
1256.183, 23.40640
1256.665, 23.48833
1257.147, 22.71173
1257.630, 22.04617
1258.112, 22.70249
1258.594, 23.60029
1259.076, 23.71199
1259.558, 23.23635
1260.040, 23.16358
1260.522, 23.48751
1261.004, 23.62431
1261.487, 23.41700
1261.969, 23.20880
1262.451, 23.30912
1262.933, 23.44714
1263.415, 23.39016
1263.897, 23.24166
1264.379, 23.48099
1264.861, 24.01558
1265.344, 24.03962
1265.826, 23.29199
1266.308, 22.75792
1266.790, 23.06177
1267.272, 23.73813
1267.754, 24.79903
1268.236, 25.83120
1268.718, 25.54621
1269.200, 24.28594
1269.682, 23.28391
1270.165, 22.79050
1270.647, 22.37770
1271.129, 21.76352
1271.611, 21.35819
1272.093, 21.33732
1272.575, 21.53232
1273.057, 21.62513
1273.539, 21.66353
1274.021, 21.77355
1274.504, 21.99008
1274.986, 22.10434
1275.468, 22.02903
1275.950, 21.97170
1276.432, 22.01439
1276.914, 22.05902
1277.396, 21.91165
1277.878, 21.68482
1278.361, 21.54587
1278.843, 21.52273
1279.325, 21.53987
1279.807, 21.62167
1280.289, 21.60569
1280.771, 21.39964
1281.253, 21.23385
1281.735, 21.53337
1282.218, 21.92051
1282.700, 21.89719
1283.182, 21.47388
1283.664, 21.40096
1284.146, 21.71408
1284.628, 21.96282
1285.110, 22.03064
1285.592, 22.04116
1286.074, 22.11345
1286.557, 22.16581
1287.039, 22.09035
1287.521, 21.94413
1288.003, 21.95460
1288.485, 22.10920
1288.967, 22.27649
1289.449, 22.43630
1289.931, 22.52770
1290.414, 22.50021
1290.896, 22.39518
1291.378, 22.18252
1291.860, 21.96023
1292.342, 22.05564
1292.824, 22.35326
1293.306, 22.42625
1293.788, 22.18683
1294.271, 21.96573
1294.753, 21.89458
1295.235, 21.86147
1295.717, 21.83060
1296.199, 21.83840
1296.681, 21.98541
1297.163, 22.20021
1297.645, 22.39189
1298.127, 22.54703
1298.609, 22.47763
1299.092, 22.04300
1299.574, 21.75542
1300.056, 21.75211
1300.538, 21.86456
1301.020, 21.92406
1301.502, 21.95907
1301.984, 21.97694
1302.466, 21.99400
1302.948, 21.87302
1303.431, 21.38650
1303.913, 22.42301
1304.395, 25.31569
##END=



