##NAMES=Chlorapatite
##RRUFFID=R060192
##IDEAL CHEMISTRY=Ca_5_(PO_4_)_3_Cl
##LOCALITY=Parelhas, Rio Grande de Norte, Brazil
##OWNER=RRUFF
##SOURCE=Luiz Menezes
##DESCRIPTION=Colorless to gray fine-grained parallel aggregates
##STATUS=The identification of this mineral has been confirmed by X-ray diffraction and chemical analysis
##URL=rruff.info/R060192
##MEASURED CHEMISTRY=(Ca_4.97_Mn_0.03_)_Σ=5_(P_1.00_O_4_)_3_(Cl_0.69_(OH)_0.29_F_0.02_)_Σ=1_ ; trace amounts of Sr ; (OH) estimated by difference and stoichiometry
92.37695, 76.12395
92.85907, 76.46621
93.34119, 76.55146
93.82330, 75.74950
94.30542, 74.32427
94.78754, 72.48928
95.26965, 70.41578
95.75177, 68.28783
96.23389, 65.99327
96.71600, 63.86638
97.19812, 62.30254
97.68024, 61.43225
98.16235, 60.82763
98.64447, 59.92636
99.12659, 58.63498
99.60870, 57.18494
100.0908, 55.71010
100.5729, 54.31379
101.0551, 53.09053
101.5372, 52.07946
102.0193, 51.23458
102.5014, 50.38438
102.9835, 49.35619
103.4656, 48.47599
103.9478, 47.84584
104.4299, 47.39587
104.9120, 47.00819
105.3941, 46.59763
105.8762, 46.16002
106.3583, 45.65594
106.8405, 45.06277
107.3226, 44.42305
107.8047, 43.72106
108.2868, 42.96811
108.7689, 42.25053
109.2510, 41.70612
109.7332, 41.35133
110.2153, 40.88375
110.6974, 40.08646
111.1795, 39.19681
111.6616, 38.54711
112.1437, 38.19716
112.6259, 38.15300
113.1080, 38.48972
113.5901, 39.17244
114.0722, 39.84979
114.5543, 40.31676
115.0364, 40.58069
115.5185, 40.74507
116.0007, 40.71920
116.4828, 40.67743
116.9649, 40.72515
117.4470, 40.87769
117.9291, 41.08724
118.4112, 41.28675
118.8934, 41.44576
119.3755, 41.67269
119.8576, 42.07002
120.3397, 42.48142
120.8218, 42.79381
121.3039, 42.96062
121.7861, 43.00087
122.2682, 42.96835
122.7503, 42.49931
123.2324, 42.37227
123.7145, 43.00743
124.1966, 43.96223
124.6788, 44.55172
125.1609, 44.33849
125.6430, 43.45392
126.1251, 43.05787
126.6072, 43.51856
127.0893, 43.97285
127.5715, 44.05982
128.0536, 43.81423
128.5357, 43.46209
129.0178, 43.09880
129.4999, 42.76548
129.9821, 42.61242
130.4642, 42.85110
130.9463, 43.16331
131.4284, 43.18063
131.9105, 42.83534
132.3926, 42.45415
132.8748, 42.31866
133.3569, 42.32585
133.8390, 42.30217
134.3211, 42.11904
134.8032, 41.83965
135.2853, 41.69387
135.7674, 41.78820
136.2496, 41.87896
136.7317, 41.89115
137.2138, 41.81145
137.6959, 41.61516
138.1780, 41.24612
138.6601, 40.68272
139.1423, 40.17664
139.6244, 39.74992
140.1065, 39.36487
140.5886, 39.04974
141.0707, 38.78107
141.5528, 38.47758
142.0350, 38.01661
142.5171, 37.24010
142.9992, 36.73452
143.4813, 36.68023
143.9634, 36.71971
144.4455, 36.62135
144.9277, 36.32740
145.4098, 35.92551
145.8919, 35.54613
146.3740, 35.12256
146.8561, 34.86748
147.3382, 34.91663
147.8204, 35.09816
148.3025, 35.21444
148.7846, 35.20016
149.2667, 35.07838
149.7488, 34.86425
150.2309, 34.52979
150.7131, 34.21952
151.1952, 34.00459
151.6773, 33.85990
152.1594, 33.70010
152.6415, 33.45755
153.1236, 33.22518
153.6058, 33.16327
154.0879, 33.34124
154.5700, 33.47797
155.0521, 33.26687
155.5342, 32.68780
156.0163, 32.22968
156.4985, 32.10949
156.9806, 32.18938
157.4627, 32.41608
157.9448, 32.80272
158.4269, 33.22541
158.9090, 33.48327
159.3912, 33.49358
159.8733, 33.54222
160.3554, 33.80274
160.8375, 34.08276
161.3196, 34.17772
161.8017, 33.98511
162.2839, 33.63308
162.7660, 33.52237
163.2481, 33.99160
163.7302, 34.24762
164.2123, 33.97907
164.6944, 33.49813
165.1766, 33.20855
165.6587, 33.34925
166.1408, 33.83873
166.6229, 34.14126
167.1050, 34.12491
167.5871, 34.06785
168.0693, 33.98420
168.5514, 33.90055
169.0335, 33.85694
169.5156, 33.88186
169.9977, 33.97263
170.4798, 34.06960
170.9620, 34.13030
171.4441, 34.23421
171.9262, 34.46159
172.4083, 34.78302
172.8904, 35.06587
173.3725, 35.19852
173.8547, 35.19337
174.3368, 35.24296
174.8189, 35.34665
175.3010, 35.50469
175.7831, 35.77424
176.2652, 36.16351
176.7474, 36.46612
177.2295, 36.43200
177.7116, 36.19096
178.1937, 36.06132
178.6758, 36.16247
179.1579, 36.39281
179.6401, 36.63694
180.1222, 36.92905
180.6043, 37.12555
181.0864, 37.03152
181.5685, 36.79466
182.0506, 36.65949
182.5328, 36.79645
183.0149, 37.10949
183.4970, 37.30703
183.9791, 37.38189
184.4612, 37.32931
184.9433, 37.09467
185.4255, 36.75863
185.9076, 36.45392
186.3897, 36.25951
186.8718, 36.17210
187.3539, 36.16073
187.8360, 36.32666
188.3182, 36.46597
188.8003, 36.54933
189.2824, 36.56184
189.7645, 36.45708
190.2466, 36.14242
190.7287, 35.58989
191.2109, 35.50035
191.6930, 36.47329
192.1751, 37.32978
192.6572, 37.59932
193.1393, 37.40174
193.6214, 37.14326
194.1036, 37.18449
194.5857, 37.57444
195.0678, 37.87342
195.5499, 38.00169
196.0320, 38.13326
196.5141, 38.36245
196.9963, 38.67918
197.4784, 39.01022
197.9605, 39.28855
198.4426, 39.50620
198.9247, 39.70709
199.4068, 39.88656
199.8890, 40.05449
200.3711, 40.17081
200.8532, 40.24791
201.3353, 40.42518
201.8174, 40.91922
202.2995, 41.74354
202.7817, 42.17082
203.2638, 41.87144
203.7459, 41.33794
204.2280, 41.04868
204.7101, 41.06306
205.1922, 41.09814
205.6744, 40.82276
206.1565, 40.31913
206.6386, 39.99748
207.1207, 40.11269
207.6028, 40.38805
208.0849, 40.41504
208.5671, 40.10895
209.0492, 39.76961
209.5313, 39.73589
210.0134, 39.85984
210.4955, 39.80578
210.9776, 39.35470
211.4598, 38.65296
211.9419, 37.99571
212.4240, 37.35191
212.9061, 36.84386
213.3882, 36.60130
213.8703, 36.52639
214.3525, 36.44421
214.8346, 36.23619
215.3167, 35.95235
215.7988, 35.79379
216.2809, 35.85945
216.7630, 35.89864
217.2451, 35.68692
217.7273, 35.38654
218.2094, 35.29073
218.6915, 35.63110
219.1736, 36.32410
219.6557, 36.87197
220.1378, 37.26500
220.6200, 37.49199
221.1021, 37.47972
221.5842, 37.32113
222.0663, 37.15365
222.5484, 37.06181
223.0305, 37.04229
223.5127, 37.06621
223.9948, 37.26534
224.4769, 37.36485
224.9590, 37.20016
225.4411, 36.90566
225.9232, 36.71579
226.4054, 36.79769
226.8875, 37.12215
227.3696, 37.35145
227.8517, 37.54491
228.3338, 37.57263
228.8159, 37.27226
229.2981, 36.79182
229.7802, 36.38524
230.2623, 36.21904
230.7444, 36.27152
231.2265, 36.30206
231.7086, 36.28824
232.1908, 36.27884
232.6729, 36.38345
233.1550, 36.49883
233.6371, 36.39718
234.1192, 35.90985
234.6013, 35.11321
235.0835, 34.58974
235.5656, 34.52730
236.0477, 34.46977
236.5298, 34.27338
237.0119, 33.98040
237.4940, 33.70216
237.9762, 33.51311
238.4583, 33.37333
238.9404, 33.09040
239.4225, 32.49337
239.9046, 31.97110
240.3867, 31.65716
240.8689, 31.51871
241.3510, 31.51772
241.8331, 31.69913
242.3152, 31.93203
242.7973, 31.81978
243.2794, 31.17384
243.7616, 30.54757
244.2437, 30.24016
244.7258, 30.15326
245.2079, 29.96233
245.6900, 29.46476
246.1721, 28.87604
246.6543, 28.63952
247.1364, 28.85448
247.6185, 29.10466
248.1006, 29.21759
248.5827, 29.20330
249.0648, 29.09022
249.5470, 28.85946
250.0291, 28.55951
250.5112, 28.23491
250.9933, 27.85874
251.4754, 27.59629
251.9576, 27.58465
252.4397, 27.77798
252.9218, 27.98765
253.4039, 28.21145
253.8860, 28.37097
254.3681, 28.36963
254.8503, 28.20858
255.3324, 28.04460
255.8145, 27.98413
256.2966, 28.00721
256.7787, 28.00570
257.2608, 27.92672
257.7430, 27.86743
258.2251, 27.92389
258.7072, 28.07931
259.1893, 28.22203
259.6714, 28.20246
260.1535, 28.07804
260.6357, 28.20995
261.1178, 28.85488
261.5999, 29.45907
262.0820, 29.66226
262.5641, 29.54566
263.0462, 29.36367
263.5284, 29.21398
264.0105, 29.11333
264.4926, 29.17805
264.9747, 29.52594
265.4568, 29.87646
265.9389, 30.09833
266.4211, 30.22261
266.9032, 30.30900
267.3853, 30.37074
267.8674, 30.42388
268.3495, 30.54514
268.8316, 30.77509
269.3138, 31.01646
269.7959, 31.31905
270.2780, 31.59262
270.7601, 31.67819
271.2422, 31.44204
271.7243, 31.01146
272.2065, 30.80973
272.6886, 30.89556
273.1707, 31.14013
273.6528, 31.69987
274.1349, 32.30286
274.6170, 32.58226
275.0992, 32.34475
275.5813, 31.83419
276.0634, 31.67376
276.5455, 32.07076
277.0276, 32.44344
277.5097, 32.65192
277.9919, 32.80637
278.4740, 33.02334
278.9561, 33.34477
279.4382, 33.69358
279.9203, 33.91112
280.4024, 33.89091
280.8846, 33.96562
281.3667, 34.30353
281.8488, 34.64810
282.3309, 34.76951
282.8130, 34.62659
283.2951, 34.39864
283.7773, 34.38435
284.2594, 34.76628
284.7415, 34.89829
285.2236, 34.47531
285.7057, 34.05357
286.1878, 34.03601
286.6700, 34.42391
287.1521, 34.87481
287.6342, 34.96991
288.1163, 34.57656
288.5984, 34.34407
289.0805, 34.38364
289.5627, 34.47011
290.0448, 34.53005
290.5269, 34.54798
291.0090, 34.52969
291.4911, 34.48359
291.9732, 34.41292
292.4554, 34.27336
292.9375, 33.94657
293.4196, 33.66898
293.9017, 33.56116
294.3838, 33.56540
294.8659, 33.54575
295.3481, 33.40059
295.8302, 33.14201
296.3123, 32.94141
296.7944, 32.79026
297.2765, 32.71184
297.7586, 32.75877
298.2408, 32.87348
298.7229, 32.97287
299.2050, 33.01007
299.6871, 33.00293
300.1692, 33.02181
300.6513, 33.19615
301.1335, 33.23089
301.6156, 32.93502
302.0977, 32.55633
302.5798, 32.41689
303.0619, 32.63730
303.5440, 32.99597
304.0262, 33.01188
304.5083, 32.31767
304.9904, 31.81978
305.4725, 31.61611
305.9546, 31.54337
306.4367, 31.51287
306.9189, 31.48567
307.4010, 31.41400
307.8831, 31.22828
308.3652, 30.89634
308.8473, 30.52124
309.3294, 29.98382
309.8116, 29.50136
310.2937, 29.22853
310.7758, 29.15656
311.2579, 29.17851
311.7400, 29.21683
312.2221, 29.31140
312.7043, 29.11536
313.1864, 28.36249
313.6685, 27.62401
314.1506, 27.12420
314.6327, 26.82676
315.1148, 26.59324
315.5970, 26.32773
316.0791, 26.03355
316.5612, 25.75637
317.0433, 25.37043
317.5254, 25.14018
318.0075, 25.27906
318.4897, 25.57853
318.9718, 25.72936
319.4539, 25.57067
319.9360, 25.17587
320.4181, 24.77079
320.9002, 24.19070
321.3824, 23.82978
321.8645, 23.87128
322.3466, 24.05780
322.8287, 24.16460
323.3108, 24.10983
323.7929, 23.91522
324.2751, 23.58491
324.7572, 22.84188
325.2393, 22.52585
325.7214, 22.97983
326.2035, 23.54377
326.6856, 23.78181
327.1678, 23.63859
327.6499, 23.31525
328.1320, 23.00884
328.6141, 22.69868
329.0962, 22.51600
329.5783, 22.59862
330.0605, 22.65980
330.5426, 22.52252
331.0247, 22.25275
331.5068, 22.05502
331.9889, 22.10139
332.4710, 22.36798
332.9532, 22.46437
333.4353, 22.17816
333.9174, 21.94434
334.3995, 21.85967
334.8816, 21.87540
335.3637, 21.92946
335.8459, 21.99247
336.3280, 22.04793
336.8101, 22.04513
337.2922, 21.96681
337.7743, 21.84771
338.2564, 21.63580
338.7386, 21.41840
339.2206, 21.27064
339.7028, 21.21307
340.1849, 21.21965
340.6670, 21.27835
341.1491, 21.48901
341.6312, 21.49190
342.1133, 21.04706
342.5955, 20.62122
343.0776, 20.50914
343.5597, 20.68742
344.0418, 20.92226
344.5239, 20.99564
345.0060, 20.89781
345.4882, 20.81064
345.9703, 20.62670
346.4524, 20.56637
346.9345, 20.86100
347.4166, 21.30750
347.8987, 21.51327
348.3809, 21.19552
348.8630, 20.53030
349.3451, 20.26640
349.8272, 20.74279
350.3093, 21.10483
350.7914, 21.18158
351.2736, 21.08351
351.7557, 20.87542
352.2378, 20.58292
352.7199, 20.30297
353.2020, 20.23156
353.6841, 20.47443
354.1663, 20.60169
354.6484, 20.43363
355.1305, 20.24130
355.6126, 20.18617
356.0947, 20.27639
356.5768, 20.41213
357.0590, 20.52109
357.5411, 20.60504
358.0232, 20.60036
358.5053, 20.35209
358.9874, 20.19183
359.4695, 20.36640
359.9517, 20.72501
360.4338, 20.94259
360.9159, 20.77664
361.3980, 20.37220
361.8801, 20.20173
362.3622, 20.40528
362.8444, 20.53537
363.3265, 20.36098
363.8086, 20.07075
364.2907, 19.84844
364.7728, 19.74761
365.2549, 19.72877
365.7371, 19.73742
366.2192, 19.76874
366.7013, 19.88122
367.1834, 20.25571
367.6655, 20.57519
368.1476, 20.55254
368.6298, 20.19580
369.1119, 19.82203
369.5940, 19.64709
370.0761, 19.64646
370.5582, 19.71476
371.0403, 19.86464
371.5225, 20.04762
372.0046, 20.33261
372.4867, 20.62930
372.9688, 20.70273
373.4509, 20.26026
373.9330, 19.67002
374.4152, 19.53183
374.8973, 19.89841
375.3794, 20.28031
375.8615, 20.48229
376.3436, 20.52485
376.8257, 20.42103
377.3079, 20.10439
377.7900, 19.80902
378.2721, 19.68428
378.7542, 19.71882
379.2363, 19.90563
379.7184, 20.34283
380.2006, 20.76546
380.6827, 20.75549
381.1648, 20.32346
381.6469, 20.00911
382.1290, 20.09557
382.6111, 20.35407
383.0933, 20.43985
383.5754, 20.30591
384.0575, 20.17297
384.5396, 20.23007
385.0217, 20.45603
385.5038, 20.63086
385.9860, 20.74165
386.4681, 20.80530
386.9502, 20.80835
387.4323, 20.76745
387.9144, 20.74110
388.3965, 20.76208
388.8787, 20.80646
389.3608, 20.79610
389.8429, 20.63894
390.3250, 20.62136
390.8071, 20.93710
391.2892, 21.36500
391.7714, 21.60497
392.2535, 21.59571
392.7356, 21.55589
393.2177, 21.76901
393.6998, 22.33483
394.1819, 22.63230
394.6641, 22.42929
395.1462, 22.19270
395.6283, 22.13288
396.1104, 22.26055
396.5925, 22.55774
397.0746, 23.03774
397.5568, 23.64387
398.0389, 24.07224
398.5210, 24.10426
399.0031, 24.21448
399.4852, 24.58507
399.9673, 25.00079
400.4495, 25.10663
400.9316, 24.82856
401.4137, 24.58598
401.8958, 25.08422
402.3779, 26.73428
402.8600, 28.00988
403.3422, 28.78359
403.8243, 29.36106
404.3064, 29.74784
404.7885, 30.05536
405.2706, 30.51101
405.7527, 31.28827
406.2349, 32.36552
406.7170, 33.55743
407.1991, 35.01708
407.6812, 36.35859
408.1633, 37.35796
408.6454, 38.25951
409.1276, 39.34484
409.6097, 40.71452
410.0918, 42.23183
410.5739, 43.74153
411.0560, 45.25949
411.5381, 46.65015
412.0203, 47.67246
412.5024, 48.74141
412.9845, 50.16668
413.4666, 51.88536
413.9487, 53.55437
414.4308, 54.78926
414.9130, 55.76115
415.3951, 57.15522
415.8772, 59.10155
416.3593, 61.15311
416.8414, 63.19457
417.3235, 65.15585
417.8057, 66.88069
418.2878, 68.20845
418.7699, 69.54395
419.2520, 71.33514
419.7341, 73.53924
420.2162, 75.77742
420.6984, 78.01865
421.1805, 80.12003
421.6626, 81.74583
422.1447, 82.89648
422.6268, 84.36733
423.1089, 86.69572
423.5911, 89.39653
424.0732, 91.98071
424.5553, 94.38965
425.0374, 96.27719
425.5195, 97.28165
426.0016, 97.46277
426.4838, 97.58784
426.9659, 97.79903
427.4480, 97.80965
427.9301, 97.64561
428.4122, 97.17358
428.8943, 96.06522
429.3765, 94.17017
429.8586, 91.76323
430.3407, 89.30965
430.8228, 86.83144
431.3049, 84.22806
431.7870, 81.34841
432.2692, 78.46884
432.7513, 75.74192
433.2334, 73.21099
433.7155, 70.88244
434.1976, 68.79192
434.6797, 66.92663
435.1619, 65.04591
435.6440, 62.98994
436.1261, 61.10040
436.6082, 59.42351
437.0903, 57.94865
437.5724, 56.69072
438.0546, 55.64997
438.5367, 54.71798
439.0188, 53.67185
439.5009, 52.35365
439.9830, 51.43926
440.4651, 51.35985
440.9473, 51.31316
441.4294, 50.92519
441.9115, 50.25550
442.3936, 49.54969
442.8757, 48.94647
443.3578, 48.44446
443.8400, 48.08917
444.3221, 47.96696
444.8042, 47.77137
445.2863, 47.37127
445.7684, 46.85858
446.2505, 46.29789
446.7327, 45.69991
447.2148, 45.09174
447.6969, 44.47110
448.1790, 43.85410
448.6611, 43.33512
449.1432, 42.96346
449.6254, 42.62777
450.1075, 42.30052
450.5896, 41.94714
451.0717, 41.41870
451.5538, 40.49448
452.0359, 39.50897
452.5181, 38.80231
453.0002, 38.34427
453.4823, 37.92957
453.9644, 37.47327
454.4465, 36.99598
454.9286, 36.54570
455.4108, 36.13526
455.8929, 35.71377
456.3750, 35.26925
456.8571, 34.80880
457.3392, 34.35005
457.8214, 33.89110
458.3035, 33.38504
458.7856, 32.77760
459.2677, 32.06585
459.7498, 31.41327
460.2319, 30.81806
460.7141, 30.27220
461.1962, 29.75217
461.6783, 29.28624
462.1604, 28.95375
462.6425, 28.77830
463.1246, 28.64056
463.6068, 28.32481
464.0889, 27.74619
464.5710, 27.21805
465.0531, 26.78948
465.5352, 26.36384
466.0173, 25.84796
466.4995, 25.29187
466.9816, 24.84024
467.4637, 24.61793
467.9458, 24.53031
468.4279, 24.22492
468.9100, 23.53203
469.3922, 23.06209
469.8743, 23.17815
470.3564, 23.47631
470.8385, 23.68563
471.3206, 23.76073
471.8027, 23.69555
472.2849, 23.38577
472.7670, 22.91616
473.2491, 22.64589
473.7312, 22.67263
474.2133, 22.70740
474.6954, 22.49848
475.1776, 22.14312
475.6597, 21.86706
476.1418, 21.74456
476.6239, 21.66374
477.1060, 21.53281
477.5881, 21.38006
478.0703, 21.31115
478.5524, 21.38298
479.0345, 21.46864
479.5166, 21.36424
479.9987, 21.00851
480.4808, 20.74852
480.9630, 20.62835
481.4451, 20.58828
481.9272, 20.65032
482.4093, 20.76597
482.8914, 20.79873
483.3735, 20.65870
483.8557, 20.39887
484.3378, 20.20859
484.8199, 20.14824
485.3020, 20.07526
485.7841, 19.97695
486.2662, 19.86901
486.7484, 19.73663
487.2305, 19.59599
487.7126, 19.51516
488.1947, 19.57672
488.6768, 19.76734
489.1589, 19.87297
489.6411, 19.86752
490.1232, 19.81285
490.6053, 19.74822
491.0874, 19.64466
491.5695, 19.41384
492.0516, 19.01444
492.5338, 18.70374
493.0159, 18.90687
493.4980, 19.53503
493.9801, 19.72161
494.4622, 19.14104
494.9443, 18.48412
495.4265, 18.37305
495.9086, 18.64345
496.3907, 18.86527
496.8728, 18.88065
497.3549, 18.85846
497.8370, 18.96709
498.3192, 19.16415
498.8013, 19.27738
499.2834, 19.22446
499.7655, 19.10752
500.2476, 19.11195
500.7297, 19.31292
501.2119, 19.35758
501.6940, 19.08504
502.1761, 18.76365
502.6582, 18.53008
503.1403, 18.41195
503.6224, 18.46054
504.1045, 18.73379
504.5866, 19.11890
505.0688, 19.19764
505.5509, 18.67216
506.0330, 18.30317
506.5151, 18.12936
506.9972, 18.11476
507.4793, 18.33178
507.9615, 18.71570
508.4436, 19.01594
508.9257, 18.97505
509.4078, 18.66784
509.8899, 18.57188
510.3720, 18.79001
510.8542, 18.99522
511.3363, 19.11459
511.8184, 19.13592
512.3005, 19.01463
512.7827, 18.73257
513.2648, 18.42050
513.7469, 18.06584
514.2290, 17.75721
514.7111, 17.84796
515.1932, 18.47858
515.6754, 19.04042
516.1575, 18.96987
516.6396, 18.42366
517.1217, 18.18014
517.6038, 18.50694
518.0859, 18.85912
518.5681, 19.04202
519.0502, 19.07455
519.5323, 18.95090
520.0144, 18.67232
520.4965, 18.35022
520.9786, 18.10666
521.4608, 17.93196
521.9429, 17.90609
522.4250, 18.12449
522.9071, 18.36251
523.3892, 18.61390
523.8713, 18.81140
524.3535, 18.82477
524.8356, 18.60400
525.3177, 18.31454
525.7998, 18.23302
526.2819, 18.39090
526.7640, 18.60890
527.2462, 19.09695
527.7283, 19.39933
528.2104, 19.11700
528.6925, 18.49516
529.1746, 18.11907
529.6567, 18.34948
530.1389, 18.75812
530.6210, 18.69114
531.1031, 18.18579
531.5852, 17.92400
532.0673, 18.18928
532.5494, 18.63351
533.0316, 18.82287
533.5137, 18.77593
533.9958, 18.75693
534.4779, 18.84831
534.9600, 18.96224
535.4421, 19.07041
535.9243, 19.14691
536.4064, 19.09045
536.8885, 18.83352
537.3706, 18.51665
537.8527, 18.45109
538.3348, 18.85898
538.8170, 19.07348
539.2991, 19.02615
539.7812, 18.86323
540.2633, 18.55493
540.7454, 18.20147
541.2275, 18.01947
541.7097, 18.15491
542.1918, 18.49965
542.6739, 18.76246
543.1560, 18.89475
543.6381, 19.10816
544.1202, 19.66986
544.6024, 20.13543
545.0845, 20.11086
545.5666, 19.68103
546.0487, 19.34971
546.5308, 19.49618
547.0129, 19.84180
547.4951, 19.90688
547.9772, 19.70072
548.4593, 19.58710
548.9414, 19.75543
549.4235, 20.05127
549.9056, 20.17944
550.3878, 20.10837
550.8699, 20.09640
551.3520, 20.26116
551.8341, 20.44938
552.3162, 20.51182
552.7983, 20.47522
553.2805, 20.46287
553.7626, 20.54378
554.2447, 20.70935
554.7268, 20.94881
555.2089, 21.40771
555.6910, 21.67290
556.1732, 21.51906
556.6553, 21.37920
557.1374, 21.54477
557.6195, 21.96933
558.1016, 22.42963
558.5837, 22.79762
559.0659, 23.09696
559.5480, 23.37457
560.0301, 23.62399
560.5122, 23.87845
560.9943, 24.09626
561.4764, 24.37383
561.9586, 24.81181
562.4407, 25.40167
562.9228, 26.01783
563.4049, 26.65221
563.8870, 27.26448
564.3691, 27.74676
564.8513, 28.14051
565.3334, 28.69381
565.8155, 29.55374
566.2976, 30.52569
566.7797, 31.22980
567.2618, 31.45967
567.7440, 31.89748
568.2261, 32.50290
568.7082, 33.34609
569.1903, 34.53083
569.6724, 35.98402
570.1545, 37.58795
570.6367, 39.27978
571.1188, 41.00875
571.6009, 42.66241
572.0830, 44.27184
572.5651, 45.72924
573.0472, 46.78786
573.5294, 47.92418
574.0115, 49.46013
574.4936, 51.28712
574.9757, 53.09671
575.4578, 54.84767
575.9399, 56.41271
576.4221, 57.54174
576.9042, 58.30980
577.3863, 59.12770
577.8684, 60.06945
578.3505, 61.22279
578.8326, 62.80192
579.3148, 64.85622
579.7969, 66.47112
580.2790, 67.19269
580.7611, 67.91360
581.2432, 68.98540
581.7253, 70.37087
582.2075, 72.06942
582.6896, 74.04955
583.1717, 76.10375
583.6538, 77.93110
584.1359, 79.50353
584.6180, 81.05247
585.1002, 82.80207
585.5823, 84.26026
586.0643, 85.44553
586.5464, 86.19532
587.0286, 86.25093
587.5107, 85.51884
587.9928, 84.35450
588.4749, 83.18152
588.9570, 81.87211
589.4391, 79.91900
589.9213, 77.22908
590.4034, 74.00491
590.8855, 70.28947
591.3676, 66.11005
591.8497, 61.68626
592.3318, 56.62769
592.8140, 51.92556
593.2961, 47.73486
593.7782, 44.15725
594.2603, 41.51252
594.7424, 39.72475
595.2245, 38.19582
595.7067, 36.45134
596.1888, 34.59171
596.6709, 33.20160
597.1530, 32.43096
597.6351, 31.88661
598.1172, 31.57227
598.5994, 31.39063
599.0815, 31.28616
599.5636, 31.24877
600.0457, 31.28200
600.5278, 31.42858
601.0099, 31.62014
601.4921, 31.64126
601.9742, 31.48584
602.4563, 31.63667
602.9384, 32.35730
603.4205, 33.32650
603.9026, 34.13383
604.3848, 34.79303
604.8669, 35.31103
605.3490, 35.65315
605.8311, 35.89355
606.3132, 36.14485
606.7953, 36.32529
607.2775, 36.27949
607.7596, 35.94674
608.2417, 35.32118
608.7238, 34.34806
609.2059, 32.92614
609.6880, 31.65964
610.1702, 30.56713
610.6523, 29.62345
611.1344, 28.92950
611.6165, 28.33907
612.0986, 27.62210
612.5807, 26.69709
613.0629, 25.82973
613.5450, 25.29011
614.0271, 25.01102
614.5092, 24.79822
614.9913, 24.64683
615.4734, 24.44774
615.9556, 24.10367
616.4377, 23.66463
616.9198, 23.29810
617.4019, 22.98689
617.8840, 22.76598
618.3661, 22.79760
618.8483, 22.81054
619.3304, 22.46453
619.8125, 21.83837
620.2946, 21.34364
620.7767, 21.27130
621.2589, 21.44117
621.7410, 21.29846
622.2231, 20.70196
622.7052, 20.20938
623.1873, 19.84234
623.6694, 19.65397
624.1516, 19.83233
624.6337, 20.22758
625.1158, 20.40264
625.5979, 20.08395
626.0800, 19.62951
626.5621, 19.38254
627.0443, 19.30198
627.5264, 19.29062
628.0085, 19.34314
628.4906, 19.29752
628.9727, 18.93698
629.4548, 18.26143
629.9370, 17.88701
630.4191, 17.92938
630.9012, 18.07767
631.3833, 18.36325
631.8654, 18.66242
632.3475, 18.84787
632.8297, 18.90602
633.3118, 18.91365
633.7939, 18.93762
634.2760, 18.96416
634.7581, 18.94089
635.2402, 18.87316
635.7224, 18.72467
636.2045, 18.36724
636.6866, 18.03073
637.1687, 17.97297
637.6508, 18.18262
638.1329, 18.40838
638.6151, 18.68720
639.0972, 18.85361
639.5793, 18.63623
640.0614, 18.19785
640.5435, 17.96476
641.0256, 18.08861
641.5078, 18.42103
641.9899, 18.80483
642.4720, 19.28195
642.9541, 19.46389
643.4362, 19.02366
643.9183, 18.66009
644.4005, 18.51861
644.8826, 18.53715
645.3647, 18.70447
645.8468, 18.99661
646.3289, 19.21700
646.8110, 19.12774
647.2932, 18.86093
647.7753, 18.75979
648.2574, 18.83857
648.7395, 18.92136
649.2216, 18.91612
649.7037, 18.89154
650.1859, 18.99489
650.6680, 19.28232
651.1501, 19.43892
651.6322, 19.39825
652.1143, 19.26253
652.5964, 19.00774
653.0786, 18.72074
653.5607, 18.55908
654.0428, 18.57829
654.5249, 18.66885
655.0070, 18.69754
655.4891, 18.66432
655.9713, 18.55741
656.4534, 18.32717
656.9355, 18.11986
657.4176, 17.93374
657.8997, 17.84390
658.3818, 18.01517
658.8640, 18.51573
659.3461, 18.88390
659.8282, 18.75540
660.3103, 18.49132
660.7924, 18.58120
661.2745, 18.94576
661.7567, 19.08475
662.2388, 18.72872
662.7209, 18.19897
663.2030, 18.13252
663.6851, 18.73828
664.1672, 19.12249
664.6494, 19.14323
665.1315, 19.09329
665.6136, 19.04931
666.0957, 19.00046
666.5778, 18.91858
667.0599, 18.79450
667.5421, 18.66350
668.0242, 18.52416
668.5063, 18.40657
668.9884, 18.40913
669.4705, 18.53938
669.9526, 18.66118
670.4348, 18.71152
670.9169, 18.69448
671.3990, 18.60815
671.8811, 18.39373
672.3632, 18.25619
672.8453, 18.19499
673.3275, 18.21600
673.8096, 18.38031
674.2917, 18.61344
674.7738, 18.78921
675.2559, 18.85835
675.7380, 18.89277
676.2202, 19.02199
676.7023, 19.22236
677.1844, 19.20284
677.6665, 18.85579
678.1486, 18.63138
678.6307, 18.87750
679.1129, 19.32137
679.5950, 19.41812
680.0771, 19.07546
680.5592, 18.81196
681.0413, 18.77484
681.5234, 18.84401
682.0056, 18.98935
682.4877, 19.15937
682.9698, 19.25823
683.4519, 19.24498
683.9340, 19.16004
684.4161, 19.05883
684.8983, 18.94231
685.3804, 18.79714
685.8625, 18.59277
686.3446, 18.41455
686.8267, 18.28396
687.3088, 18.20771
687.7910, 18.19696
688.2731, 18.25365
688.7552, 18.36950
689.2373, 18.55983
689.7194, 18.79420
690.2015, 19.12744
690.6837, 19.48379
691.1658, 19.60047
691.6479, 19.36353
692.1300, 18.95082
692.6121, 18.58875
693.0942, 18.25027
693.5764, 18.18253
694.0585, 18.62960
694.5406, 19.02437
695.0227, 19.25091
695.5048, 19.32528
695.9869, 19.21757
696.4691, 18.93527
696.9512, 18.67834
697.4333, 18.52651
697.9154, 18.48923
698.3975, 18.65383
698.8796, 18.96731
699.3618, 19.15993
699.8439, 19.12527
700.3260, 18.99604
700.8081, 18.93801
701.2902, 18.95325
701.7723, 19.02028
702.2545, 19.34822
702.7366, 19.46844
703.2187, 19.05363
703.7008, 18.54165
704.1829, 18.37340
704.6650, 18.57873
705.1472, 18.86377
705.6293, 19.07993
706.1114, 19.22808
706.5935, 19.29432
707.0756, 19.28632
707.5577, 19.24727
708.0399, 19.18401
708.5220, 19.12094
709.0041, 19.08364
709.4862, 19.07214
709.9683, 19.06950
710.4504, 19.06641
710.9326, 19.08376
711.4147, 19.15428
711.8968, 19.22540
712.3789, 19.22348
712.8610, 19.17056
713.3431, 19.18612
713.8253, 19.39403
714.3074, 19.62204
714.7895, 19.58496
715.2716, 19.31111
715.7537, 18.95029
716.2358, 18.48967
716.7180, 18.17946
717.2001, 18.28174
717.6822, 18.72268
718.1643, 19.01492
718.6464, 19.10292
719.1285, 19.13074
719.6107, 19.02369
720.0928, 18.93582
720.5749, 19.03024
721.0570, 19.23873
721.5391, 19.35727
722.0212, 19.27709
722.5034, 19.11600
722.9855, 19.00502
723.4676, 18.94673
723.9497, 18.98592
724.4318, 19.14858
724.9139, 19.26950
725.3961, 19.23015
725.8782, 19.08880
726.3603, 19.00590
726.8424, 18.99263
727.3245, 19.00943
727.8066, 19.08382
728.2888, 19.15859
728.7709, 19.21889
729.2530, 19.25134
729.7351, 19.22016
730.2172, 19.11590
730.6993, 19.02020
731.1815, 19.02094
731.6636, 19.10304
732.1457, 19.21627
732.6278, 19.36055
733.1099, 19.53396
733.5920, 19.78307
734.0742, 19.98171
734.5563, 19.88728
735.0384, 19.39015
735.5205, 19.17215
736.0026, 19.54931
736.4847, 19.83125
736.9669, 19.66007
737.4490, 19.32392
737.9311, 19.14151
738.4132, 19.17633
738.8953, 19.32983
739.3774, 19.59234
739.8596, 19.86870
740.3417, 19.94910
740.8238, 19.84242
741.3059, 19.65570
741.7880, 19.37825
742.2701, 19.17712
742.7523, 19.26797
743.2344, 19.61764
743.7165, 19.70859
744.1986, 19.21197
744.6807, 18.93172
745.1628, 19.14578
745.6450, 19.46267
746.1271, 19.60321
746.6092, 19.57773
747.0913, 19.49940
747.5734, 19.39882
748.0555, 19.36265
748.5377, 19.57166
749.0198, 19.94247
749.5019, 20.15295
749.9840, 20.16265
750.4661, 20.07607
750.9482, 19.92345
751.4304, 19.76302
751.9125, 19.74839
752.3946, 20.00105
752.8767, 20.11114
753.3588, 19.97860
753.8409, 19.82628
754.3231, 19.73723
754.8052, 19.68910
755.2873, 19.63014
755.7694, 19.55060
756.2515, 19.52302
756.7336, 19.69975
757.2158, 19.91412
757.6979, 19.78172
758.1800, 19.38170
758.6621, 19.24246
759.1442, 19.56509
759.6263, 20.03314
760.1085, 20.28230
760.5906, 20.31124
761.0727, 20.32534
761.5548, 20.31921
762.0369, 20.30573
762.5190, 20.30557
763.0012, 20.28427
763.4833, 20.19943
763.9654, 20.06763
764.4475, 19.94928
764.9296, 19.84358
765.4117, 19.80214
765.8939, 19.93423
766.3760, 20.13769
766.8581, 20.23084
767.3402, 20.18926
767.8223, 20.04024
768.3044, 19.78456
768.7866, 19.50145
769.2687, 19.41149
769.7508, 19.58549
770.2329, 19.68493
770.7150, 19.60870
771.1971, 19.58765
771.6793, 19.82892
772.1614, 20.13730
772.6435, 20.20313
773.1256, 19.95835
773.6077, 19.82272
774.0898, 20.12217
774.5720, 20.44536
775.0541, 20.41266
775.5362, 20.15399
776.0183, 19.93925
776.5004, 19.85436
776.9825, 19.85695
777.4647, 19.92249
777.9468, 20.03051
778.4289, 20.05715
778.9110, 19.97153
779.3931, 19.97535
779.8752, 20.14645
780.3574, 20.37562
780.8395, 20.60015
781.3216, 20.80689
781.8037, 20.92002
782.2858, 20.91694
782.7679, 20.84933
783.2501, 20.66419
783.7322, 20.47318
784.2143, 20.38575
784.6964, 20.37297
785.1785, 20.31462
785.6606, 20.14957
786.1428, 20.02501
786.6249, 20.17826
787.1070, 20.53320
787.5891, 20.77957
788.0712, 20.89809
788.5533, 20.93903
789.0355, 20.90884
789.5176, 20.84791
789.9997, 20.83485
790.4818, 20.90244
790.9639, 20.80942
791.4460, 20.25307
791.9282, 19.92816
792.4103, 20.18991
792.8924, 20.60558
793.3745, 20.79157
793.8566, 20.73160
794.3387, 20.61247
794.8209, 20.46602
795.3030, 20.38835
795.7851, 20.57368
796.2672, 20.87412
796.7493, 20.91273
797.2314, 20.66386
797.7136, 20.46146
798.1957, 20.53008
798.6778, 20.75583
799.1599, 20.85029
799.6420, 20.76298
800.1241, 20.76509
800.6063, 20.98221
801.0884, 21.10102
801.5705, 20.78602
802.0526, 20.38744
802.5347, 20.38873
803.0168, 20.85263
803.4990, 21.23062
803.9811, 21.42071
804.4632, 21.42397
804.9453, 21.05995
805.4274, 20.59053
805.9095, 20.42170
806.3917, 20.60157
806.8738, 20.86470
807.3559, 21.02869
807.8380, 21.09376
808.3201, 20.97979
808.8022, 20.70295
809.2844, 20.73142
809.7665, 21.22579
810.2486, 21.63733
810.7307, 21.50574
811.2128, 21.06042
811.6949, 21.03224
812.1771, 21.82913
812.6592, 22.20701
813.1413, 21.84625
813.6234, 21.42776
814.1055, 21.14664
814.5876, 21.03481
815.0698, 21.19201
815.5519, 21.61154
816.0340, 21.93572
816.5161, 21.84767
816.9982, 21.61984
817.4803, 21.57236
817.9625, 21.64577
818.4446, 21.66762
818.9267, 21.60054
819.4088, 21.53486
819.8909, 21.55649
820.3730, 21.62233
820.8552, 21.56420
821.3373, 21.34256
821.8194, 21.16469
822.3015, 21.03307
822.7836, 20.97902
823.2657, 21.05527
823.7479, 21.21261
824.2300, 21.36228
824.7121, 21.51436
825.1942, 21.61046
825.6763, 21.56930
826.1584, 21.54234
826.6406, 21.67355
827.1227, 21.84864
827.6048, 21.88027
828.0869, 21.74552
828.5690, 21.59032
829.0511, 21.50552
829.5333, 21.49118
830.0154, 21.57595
830.4975, 21.73812
830.9796, 21.88776
831.4617, 22.00908
831.9438, 22.04520
832.4260, 21.94076
832.9081, 21.74314
833.3902, 21.57849
833.8723, 21.38264
834.3544, 21.39532
834.8365, 21.82546
835.3187, 22.19869
835.8008, 22.39222
836.2829, 22.39658
836.7650, 22.09818
837.2471, 21.48076
837.7292, 21.09729
838.2114, 21.33391
838.6935, 21.63544
839.1756, 21.63604
839.6577, 21.49143
840.1398, 21.45256
840.6219, 21.52962
841.1041, 21.52109
841.5862, 21.26099
842.0683, 20.95195
842.5504, 20.98028
843.0325, 21.29819
843.5146, 21.62603
843.9968, 21.94515
844.4789, 22.09081
844.9610, 21.92093
845.4431, 21.64091
845.9252, 21.64394
846.4073, 22.01531
846.8895, 22.23767
847.3716, 22.33318
847.8537, 22.24210
848.3358, 21.62555
848.8179, 21.06850
849.3000, 21.25625
849.7822, 22.03858
850.2643, 22.48945
850.7464, 22.08398
851.2285, 21.66125
851.7106, 21.78138
852.1927, 22.09027
852.6749, 22.19726
853.1570, 22.10125
853.6391, 21.95183
854.1212, 21.81857
854.6033, 21.68174
855.0854, 21.46873
855.5676, 21.22448
856.0497, 21.21175
856.5318, 21.44118
857.0139, 21.59145
857.4960, 21.52856
857.9781, 21.47367
858.4603, 21.70094
858.9424, 22.16821
859.4245, 22.37978
859.9066, 22.17890
860.3887, 21.98936
860.8708, 21.81863
861.3530, 21.69037
861.8351, 21.60041
862.3172, 21.56671
862.7993, 21.64516
863.2814, 21.87164
863.7635, 22.04460
864.2457, 22.02949
864.7278, 21.97654
865.2099, 21.98658
865.6920, 22.05100
866.1741, 22.17801
866.6563, 22.34656
867.1384, 22.45040
867.6205, 22.40533
868.1026, 22.25198
868.5847, 22.01635
869.0668, 21.72610
869.5490, 21.54020
870.0311, 21.47819
870.5132, 21.62583
870.9953, 22.11078
871.4774, 22.64108
871.9595, 22.56417
872.4417, 21.67629
872.9238, 21.31192
873.4059, 21.91922
873.8880, 22.33667
874.3701, 22.03124
874.8522, 21.54054
875.3344, 21.24760
875.8165, 21.16023
876.2986, 21.24397
876.7807, 21.62739
877.2628, 21.98153
877.7449, 22.25350
878.2271, 22.39445
878.7092, 22.24945
879.1913, 21.95709
879.6734, 21.87372
880.1555, 22.11588
880.6376, 22.27751
881.1198, 21.80379
881.6019, 21.08283
882.0840, 20.86536
882.5661, 21.06458
883.0482, 21.28866
883.5303, 21.43421
884.0125, 21.54333
884.4946, 21.65600
884.9767, 21.75031
885.4588, 21.72940
885.9409, 21.55331
886.4230, 21.49545
886.9052, 21.62663
887.3873, 21.75633
887.8694, 21.76792
888.3515, 21.74126
888.8336, 21.83920
889.3157, 22.09888
889.7979, 22.19353
890.2800, 21.93202
890.7621, 21.74231
891.2442, 21.83481
891.7263, 21.96733
892.2084, 21.91623
892.6906, 21.71785
893.1727, 21.54593
893.6548, 21.47079
894.1369, 21.39599
894.6190, 21.17298
895.1011, 20.97636
895.5833, 21.06856
896.0654, 21.35848
896.5475, 21.59235
897.0296, 21.69158
897.5117, 21.75372
897.9938, 21.88313
898.4760, 22.02699
898.9581, 22.01516
899.4402, 21.86408
899.9223, 21.78547
900.4044, 21.82123
900.8865, 21.85756
901.3687, 21.82010
901.8508, 21.74062
902.3329, 21.67196
902.8150, 21.58169
903.2971, 21.67936
903.7792, 22.13717
904.2614, 22.48725
904.7435, 22.58610
905.2256, 22.52255
905.7077, 22.26041
906.1898, 21.87299
906.6719, 21.76882
907.1541, 22.30949
907.6362, 22.63855
908.1183, 22.27724
908.6004, 21.88957
909.0825, 22.03070
909.5646, 22.45405
910.0468, 22.67298
910.5289, 22.56741
911.0110, 22.42004
911.4931, 22.44757
911.9752, 22.50735
912.4573, 22.34457
912.9395, 22.12668
913.4216, 22.27462
913.9037, 22.78368
914.3858, 23.24004
914.8679, 23.39234
915.3500, 23.36484
915.8321, 23.34504
916.3142, 23.32987
916.7963, 23.29252
917.2784, 23.23138
917.7606, 23.14547
918.2427, 23.01022
918.7248, 22.96044
919.2069, 23.18077
919.6890, 23.61237
920.1711, 23.77691
920.6533, 23.46328
921.1354, 23.40849
921.6175, 24.00982
922.0996, 24.43120
922.5817, 23.94696
923.0638, 23.14445
923.5460, 22.94538
924.0281, 23.45361
924.5102, 23.82656
924.9923, 23.70887
925.4744, 23.74344
925.9565, 24.41257
926.4387, 25.13468
926.9208, 25.28956
927.4029, 25.01474
927.8850, 24.83048
928.3671, 24.90295
928.8492, 25.18867
929.3314, 25.76295
929.8135, 26.45124
930.2956, 27.16394
930.7777, 27.80895
931.2598, 28.12836
931.7419, 28.12593
932.2241, 28.22002
932.7062, 28.75076
933.1883, 29.54081
933.6704, 30.27006
934.1525, 30.97047
934.6346, 31.80419
935.1168, 32.78314
935.5989, 33.78156
936.0810, 34.71669
936.5631, 35.79714
937.0452, 37.34205
937.5273, 39.32532
938.0095, 41.26893
938.4916, 43.11153
938.9737, 45.18676
939.4558, 47.56831
939.9379, 50.20470
940.4200, 53.05226
940.9022, 56.15538
941.3843, 59.65939
941.8664, 63.70824
942.3485, 67.74664
942.8306, 71.38625
943.3127, 75.49458
943.7949, 80.50338
944.2770, 85.91673
944.7591, 91.08811
945.2412, 96.21487
945.7233, 102.1775
946.2054, 109.2217
946.6876, 117.0016
947.1697, 125.7240
947.6518, 134.8276
948.1339, 143.8781
948.6160, 152.9714
949.0981, 162.3886
949.5803, 172.1212
950.0624, 181.9380
950.5445, 191.8053
951.0266, 201.5925
951.5087, 211.5772
951.9908, 221.3192
952.4730, 229.8921
952.9551, 237.5197
953.4372, 245.4204
953.9193, 254.0667
954.4014, 262.5474
954.8835, 269.6823
955.3657, 275.8666
955.8478, 282.2958
956.3299, 288.8673
956.8120, 295.0146
957.2941, 300.6199
957.7762, 305.4342
958.2584, 309.2906
958.7405, 312.3971
959.2226, 315.4815
959.7047, 318.7155
960.1868, 318.9486
960.6689, 315.8076
961.1511, 311.2071
961.6332, 305.8443
962.1153, 298.8263
962.5974, 289.3520
963.0795, 277.5844
963.5616, 264.2078
964.0438, 248.7133
964.5259, 232.5647
965.0080, 215.2768
965.4901, 197.9586
965.9722, 180.3887
966.4543, 163.3932
966.9365, 147.6879
967.4186, 133.3273
967.9007, 120.7857
968.3828, 111.0755
968.8649, 101.7074
969.3470, 91.59084
969.8292, 82.30912
970.3113, 75.11967
970.7934, 69.39135
971.2755, 64.19210
971.7576, 59.34733
972.2397, 54.87994
972.7219, 50.75522
973.2040, 47.10221
973.6861, 44.11343
974.1682, 41.54283
974.6503, 39.12652
975.1324, 36.86060
975.6146, 34.79229
976.0967, 32.93754
976.5788, 31.46964
977.0609, 30.75314
977.5430, 30.34748
978.0251, 29.60960
978.5073, 28.69535
978.9894, 27.95283
979.4715, 27.42818
979.9536, 27.00290
980.4357, 26.60954
980.9178, 26.29409
981.4000, 26.21453
981.8821, 26.26255
982.3642, 25.92393
982.8463, 25.26115
983.3284, 24.89287
983.8105, 24.97505
984.2927, 25.14256
984.7748, 25.13112
985.2569, 24.99833
985.7390, 24.83834
986.2211, 24.64221
986.7032, 24.66961
987.1854, 24.99740
987.6675, 25.09705
988.1496, 24.72846
988.6317, 24.30723
989.1138, 24.24427
989.5959, 24.06615
990.0781, 23.97196
990.5602, 24.12603
991.0423, 24.04451
991.5244, 24.33685
992.0065, 24.64625
992.4886, 24.88307
992.9708, 25.03339
993.4529, 25.02787
993.9350, 24.89027
994.4171, 24.90864
994.8992, 25.15493
995.3813, 25.44390
995.8635, 25.87827
996.3456, 26.23040
996.8277, 26.28131
997.3098, 26.26510
997.7919, 26.56585
998.2740, 27.16268
998.7562, 27.44287
999.2383, 26.94960
999.7204, 26.60308
1000.203, 26.60524
1000.685, 26.86956
1001.167, 27.61511
1001.649, 28.45564
1002.131, 28.72588
1002.613, 28.35162
1003.095, 28.02045
1003.577, 27.91174
1004.059, 28.07439
1004.542, 28.84721
1005.024, 29.64904
1005.506, 29.86529
1005.988, 29.63575
1006.470, 29.29551
1006.952, 28.96794
1007.434, 28.89277
1007.916, 29.45513
1008.398, 30.11850
1008.881, 30.29191
1009.363, 30.27638
1009.845, 30.53975
1010.327, 31.04390
1010.809, 31.48657
1011.291, 31.74909
1011.773, 31.96686
1012.255, 32.28649
1012.738, 32.62275
1013.220, 32.80917
1013.702, 32.91561
1014.184, 33.09597
1014.666, 33.37464
1015.148, 33.75987
1015.630, 34.25451
1016.112, 34.74510
1016.594, 35.09246
1017.077, 35.33091
1017.559, 35.51965
1018.041, 35.67970
1018.523, 35.91188
1019.005, 36.23336
1019.487, 36.64394
1019.969, 37.15100
1020.451, 37.68752
1020.934, 38.15346
1021.416, 38.56222
1021.898, 39.02040
1022.380, 39.52533
1022.862, 39.91231
1023.344, 40.13885
1023.826, 40.48145
1024.308, 41.13818
1024.791, 41.90955
1025.273, 42.36113
1025.755, 43.27406
1026.237, 44.24709
1026.719, 44.95583
1027.201, 46.31182
1027.683, 47.15308
1028.165, 47.86016
1028.647, 48.62010
1029.130, 49.55493
1029.612, 50.98758
1030.094, 53.00267
1030.576, 54.39787
1031.058, 54.94282
1031.540, 55.65358
1032.022, 56.70661
1032.504, 58.09361
1032.986, 59.95272
1033.469, 62.00850
1033.951, 63.63454
1034.433, 64.74013
1034.915, 65.94182
1035.397, 67.23367
1035.879, 68.65427
1036.361, 70.32670
1036.843, 71.97227
1037.326, 73.33277
1037.808, 74.55659
1038.290, 76.03503
1038.772, 77.93954
1039.254, 79.34965
1039.736, 79.97777
1040.218, 80.56513
1040.700, 81.45027
1041.182, 82.12579
1041.665, 82.21963
1042.147, 81.84885
1042.629, 81.34745
1043.111, 80.85307
1043.593, 79.62240
1044.075, 77.06575
1044.557, 74.56699
1045.039, 72.47000
1045.521, 70.45684
1046.004, 68.40193
1046.486, 66.24733
1046.968, 63.82302
1047.450, 61.05134
1047.932, 58.45641
1048.414, 56.09926
1048.896, 53.90110
1049.378, 51.93895
1049.861, 50.03386
1050.343, 47.93023
1050.825, 45.82195
1051.307, 44.11619
1051.789, 42.89559
1052.271, 41.79797
1052.753, 40.87897
1053.235, 39.91229
1053.718, 38.65937
1054.200, 37.50211
1054.682, 36.82782
1055.164, 36.42146
1055.646, 35.82595
1056.128, 34.96210
1056.610, 34.20731
1057.092, 33.61280
1057.574, 33.20884
1058.057, 33.12552
1058.539, 33.12032
1059.021, 33.08034
1059.503, 32.95453
1059.985, 32.62278
1060.467, 32.06952
1060.949, 31.66709
1061.431, 31.57604
1061.913, 31.60212
1062.396, 31.74607
1062.878, 31.90476
1063.360, 31.98057
1063.842, 32.02303
1064.324, 32.09852
1064.806, 32.22532
1065.288, 32.46739
1065.770, 32.86365
1066.253, 33.35836
1066.735, 34.00466
1067.217, 34.66500
1067.699, 35.34581
1068.181, 35.91575
1068.663, 36.05128
1069.145, 35.79248
1069.627, 35.84918
1070.109, 36.58507
1070.592, 37.52024
1071.074, 38.54850
1071.556, 39.58494
1072.038, 40.61265
1072.520, 41.59069
1073.002, 42.52312
1073.484, 43.37683
1073.966, 43.99598
1074.448, 44.23964
1074.931, 44.43568
1075.413, 44.56757
1075.895, 44.88567
1076.377, 45.82628
1076.859, 46.90803
1077.341, 47.56216
1077.823, 47.71063
1078.305, 47.42785
1078.788, 46.61641
1079.270, 45.78070
1079.752, 45.26427
1080.234, 44.69059
1080.716, 43.76134
1081.198, 42.65936
1081.680, 41.61626
1082.162, 40.61624
1082.644, 39.44225
1083.127, 37.96769
1083.609, 36.64711
1084.091, 35.77385
1084.573, 34.99509
1085.055, 34.07137
1085.537, 33.14612
1086.019, 32.46861
1086.501, 31.91504
1086.984, 31.05993
1087.466, 29.74160
1087.948, 28.71853
1088.430, 28.59877
1088.912, 28.49473
1089.394, 27.85270
1089.876, 27.09542
1090.358, 26.59623
1090.840, 26.31012
1091.323, 26.07340
1091.805, 25.85196
1092.287, 25.70339
1092.769, 25.78199
1093.251, 25.75882
1093.733, 25.39454
1094.215, 24.97354
1094.697, 24.68334
1095.179, 24.51031
1095.662, 24.43381
1096.144, 24.43708
1096.626, 24.40188
1097.108, 24.29712
1097.590, 24.14002
1098.072, 23.80409
1098.554, 23.56070
1099.036, 23.66311
1099.519, 23.90832
1100.001, 24.06672
1100.483, 24.10601
1100.965, 24.02700
1101.447, 23.78426
1101.929, 23.52420
1102.411, 23.27673
1102.893, 23.03097
1103.375, 22.60812
1103.858, 22.31769
1104.340, 22.63721
1104.822, 23.36422
1105.304, 23.72804
1105.786, 23.49134
1106.268, 23.35516
1106.750, 23.57349
1107.232, 23.73853
1107.714, 23.60744
1108.197, 23.47259
1108.679, 23.63787
1109.161, 23.95516
1109.643, 24.03434
1110.125, 23.78519
1110.607, 23.73774
1111.089, 24.30416
1111.571, 24.54990
1112.054, 23.94074
1112.536, 23.35531
1113.018, 23.39492
1113.500, 23.71569
1113.982, 23.73112
1114.464, 23.42755
1114.946, 23.39005
1115.428, 23.87525
1115.911, 24.20016
1116.393, 24.30011
1116.875, 24.27784
1117.357, 24.14955
1117.839, 23.93644
1118.321, 23.57841
1118.803, 23.14376
1119.285, 23.05626
1119.767, 23.55987
1120.250, 23.79314
1120.732, 23.64655
1121.214, 23.43866
1121.696, 23.17170
1122.178, 23.03328
1122.660, 23.25172
1123.142, 23.64702
1123.624, 23.72455
1124.106, 23.42123
1124.589, 23.28853
1125.071, 23.36135
1125.553, 23.49076
1126.035, 23.65895
1126.517, 23.85534
1126.999, 24.09698
1127.481, 24.31193
1127.963, 24.37799
1128.446, 24.30829
1128.928, 24.24789
1129.410, 24.19300
1129.892, 24.19187
1130.374, 24.25901
1130.856, 24.29861
1131.338, 24.26250
1131.820, 24.22803
1132.302, 24.26645
1132.785, 24.39128
1133.267, 24.69226
1133.749, 25.15009
1134.231, 25.47229
1134.713, 25.64511
1135.195, 25.59123
1135.677, 25.29324
1136.159, 25.22439
1136.641, 25.76965
1137.124, 26.46065
1137.606, 26.41617
1138.088, 25.86068
1138.570, 25.64998
1139.052, 25.71230
1139.534, 25.70636
1140.016, 25.58332
1140.498, 25.43951
1140.981, 25.32144
1141.463, 25.26838
1141.945, 25.36904
1142.427, 25.50245
1142.909, 25.43325
1143.391, 25.24547
1143.873, 25.10180
1144.355, 25.01458
1144.838, 24.98437
1145.320, 24.99397
1145.802, 24.93112
1146.284, 24.68542
1146.766, 24.45308
1147.248, 24.47181
1147.730, 24.58298
1148.212, 24.57436
1148.694, 24.67415
1149.177, 24.61752
1149.659, 24.83126
1150.141, 24.99866
1150.623, 25.05721
1151.105, 25.05266
1151.587, 25.00509
1152.069, 24.91444
1152.551, 24.82128
1153.033, 24.65063
1153.516, 24.18747
1153.998, 23.63917
1154.480, 23.44456
1154.962, 23.66761
1155.444, 23.91823
1155.926, 24.08225
1156.408, 24.23174
1156.890, 24.45921
1157.373, 24.59714
1157.855, 24.47787
1158.337, 24.26965
1158.819, 24.11212
1159.301, 24.04020
1159.783, 24.18746
1160.265, 24.78854
1160.747, 25.00660
1161.229, 24.38420
1161.712, 23.95178
1162.194, 24.08278
1162.676, 24.29444
1163.158, 24.30017
1163.640, 24.15829
1164.122, 23.93008
1164.604, 23.60463
1165.086, 23.56011
1165.568, 23.91142
1166.051, 24.19303
1166.533, 24.33982
1167.015, 24.48618
1167.497, 24.71562
1167.979, 24.87541
1168.461, 24.77878
1168.943, 24.53059
1169.425, 24.49567
1169.908, 24.68366
1170.390, 24.71536
1170.872, 24.58104
1171.354, 24.39001
1171.836, 24.16435
1172.318, 24.08692
1172.800, 24.28428
1173.282, 24.50928
1173.765, 24.35736
1174.247, 24.00827
1174.729, 23.97393
1175.211, 24.21050
1175.693, 24.72751
1176.175, 25.38112
1176.657, 25.50536
1177.139, 24.94218
1177.621, 24.39599
1178.104, 24.39751
1178.586, 24.59313
1179.068, 24.54361
1179.550, 24.44720
1180.032, 24.65504
1180.514, 24.98482
1180.996, 25.07993
1181.478, 24.94251
1181.960, 24.76691
1182.443, 24.61867
1182.925, 24.57864
1183.407, 24.76244
1183.889, 24.98417
1184.371, 25.20698
1184.853, 25.34570
1185.335, 25.20067
1185.817, 24.98836
1186.300, 25.14809
1186.782, 25.65193
1187.264, 25.85965
1187.746, 25.48700
1188.228, 25.13675
1188.710, 24.75077
1189.192, 24.61389
1189.674, 25.09579
1190.156, 25.61044
1190.639, 25.67746
1191.121, 25.45617
1191.603, 25.26459
1192.085, 25.09669
1192.567, 25.05357
1193.049, 25.21783
1193.531, 25.24854
1194.013, 25.04026
1194.495, 24.92091
1194.978, 25.05960
1195.460, 25.24537
1195.942, 25.26706
1196.424, 25.15850
1196.906, 24.98096
1197.388, 24.74430
1197.870, 24.66455
1198.352, 24.74291
1198.835, 24.96083
1199.317, 25.29929
1199.799, 25.58438
1200.281, 25.72540
1200.763, 25.69585
1201.245, 25.38502
1201.727, 24.99355
1202.209, 24.91452
1202.692, 25.01416
1203.174, 24.96572
1203.656, 24.85337
1204.138, 25.10706
1204.620, 25.68507
1205.102, 25.80552
1205.584, 24.95245
1206.066, 24.20424
1206.548, 24.55628
1207.031, 25.07495
1207.513, 25.03649
1207.995, 24.79323
1208.477, 24.72114
1208.959, 24.77406
1209.441, 24.76181
1209.923, 24.65906
1210.405, 24.63420
1210.887, 24.71656
1211.370, 24.89555
1211.852, 25.29582
1212.334, 25.63365
1212.816, 25.82047
1213.298, 25.86577
1213.780, 25.68579
1214.262, 25.41395
1214.744, 25.42434
1215.227, 25.76944
1215.709, 25.76728
1216.191, 25.24291
1216.673, 25.17044
1217.155, 25.79987
1217.637, 26.20816
1218.119, 25.95190
1218.601, 25.60291
1219.083, 25.76455
1219.566, 26.18561
1220.048, 26.26282
1220.530, 26.05760
1221.012, 25.79447
1221.494, 25.51406
1221.976, 25.41836
1222.458, 25.48638
1222.940, 25.34771
1223.422, 24.84983
1223.905, 24.47230
1224.387, 24.69455
1224.869, 25.14445
1225.351, 25.60451
1225.833, 25.90847
1226.315, 25.66337
1226.797, 25.22034
1227.279, 25.25160
1227.762, 25.69634
1228.244, 25.88160
1228.726, 25.53755
1229.208, 25.32327
1229.690, 25.49609
1230.172, 25.78487
1230.654, 26.29989
1231.136, 26.67871
1231.619, 26.53373
1232.101, 26.21956
1232.583, 26.30975
1233.065, 26.68886
1233.547, 26.55252
1234.029, 25.58463
1234.511, 25.22458
1234.993, 25.67349
1235.475, 25.94199
1235.958, 25.75115
1236.440, 25.63884
1236.922, 25.94088
1237.404, 26.36350
1237.886, 26.52417
1238.368, 26.47737
1238.850, 26.30028
1239.332, 26.07340
1239.814, 26.25887
1240.297, 26.72177
1240.779, 26.70894
1241.261, 26.15122
1241.743, 25.69805
1242.225, 25.68534
1242.707, 25.88388
1243.189, 26.28114
1243.671, 26.58170
1244.154, 26.34341
1244.636, 26.02427
1245.118, 26.22503
1245.600, 26.65448
1246.082, 26.72721
1246.564, 26.44009
1247.046, 26.25300
1247.528, 26.28079
1248.010, 26.37592
1248.493, 26.63098
1248.975, 26.77819
1249.457, 26.61123
1249.939, 26.51350
1250.421, 26.76956
1250.903, 27.12570
1251.385, 27.25978
1251.867, 27.18661
1252.349, 26.93775
1252.832, 26.47968
1253.314, 26.30779
1253.796, 26.44281
1254.278, 26.68789
1254.760, 26.99419
1255.242, 27.18723
1255.724, 27.16777
1256.206, 27.21426
1256.689, 27.77154
1257.171, 28.36792
1257.653, 27.94655
1258.135, 28.37292
1258.617, 27.47906
1259.099, 28.32845
1259.581, 28.65699
1260.063, 28.38702
1260.546, 28.01734
1261.028, 27.68713
1261.510, 27.64116
1261.992, 28.27119
1262.474, 28.80890
1262.956, 28.94102
1263.438, 28.89526
1263.920, 28.70287
1264.402, 28.49594
1264.885, 28.40698
1265.367, 28.43012
1265.849, 28.54813
1266.331, 28.76965
1266.813, 29.05830
1267.295, 29.46917
1267.777, 29.66251
1268.259, 29.56603
1268.741, 29.42386
1269.224, 29.33999
1269.706, 29.24507
1270.188, 29.05737
1270.670, 28.88253
1271.152, 28.94219
1271.634, 29.15002
1272.116, 29.32403
1272.598, 29.47265
1273.081, 29.68130
1273.563, 29.89116
1274.045, 29.80527
1274.527, 29.40043
1275.009, 29.34097
1275.491, 30.26214
1275.973, 30.90809
1276.455, 30.35677
1276.938, 29.75849
1277.420, 29.82959
1277.902, 30.06297
1278.384, 29.92906
1278.866, 29.63820
1279.348, 29.69461
1279.830, 29.61913
1280.312, 29.54707
1280.794, 29.71993
1281.276, 29.54341
1281.759, 29.67260
1282.241, 29.76707
1282.723, 29.73892
1283.205, 29.62015
1283.687, 29.40934
1284.169, 29.36996
1284.651, 29.97104
1285.133, 30.76982
1285.616, 31.00180
1286.098, 30.66357
##END=



