##NAMES=Chlorapatite
##RRUFFID=R060192
##IDEAL CHEMISTRY=Ca_5_(PO_4_)_3_Cl
##LOCALITY=Parelhas, Rio Grande de Norte, Brazil
##OWNER=RRUFF
##SOURCE=Luiz Menezes
##DESCRIPTION=Colorless to gray fine-grained parallel aggregates
##STATUS=The identification of this mineral has been confirmed by X-ray diffraction and chemical analysis
##URL=rruff.info/R060192
##MEASURED CHEMISTRY=(Ca_4.97_Mn_0.03_)_Σ=5_(P_1.00_O_4_)_3_(Cl_0.69_(OH)_0.29_F_0.02_)_Σ=1_ ; trace amounts of Sr ; (OH) estimated by difference and stoichiometry
91.40820, 237.2337
91.89032, 236.7746
92.37244, 236.8998
92.85455, 237.5520
93.33667, 238.3883
93.81879, 238.8572
94.30090, 239.2649
94.78302, 240.7303
95.26514, 244.0355
95.74725, 248.0707
96.22937, 250.0125
96.71149, 249.6796
97.19360, 249.1120
97.67572, 250.2561
98.15784, 253.0700
98.63995, 256.1826
99.12207, 258.7639
99.60419, 261.0959
100.0863, 266.0566
100.5684, 274.0126
101.0505, 283.9083
101.5327, 294.5771
102.0148, 305.8400
102.4969, 318.1867
102.9790, 331.2274
103.4611, 344.0270
103.9432, 362.1104
104.4253, 385.8526
104.9075, 414.6248
105.3896, 446.3158
105.8717, 479.9843
106.3538, 518.2908
106.8359, 563.1688
107.3180, 616.5834
107.8002, 672.3934
108.2823, 729.7775
108.7644, 789.2736
109.2465, 855.3446
109.7286, 926.1232
110.2107, 1003.964
110.6929, 1091.223
111.1750, 1184.757
111.6571, 1290.151
112.1392, 1406.712
112.6213, 1534.879
113.1034, 1680.148
113.5856, 1854.197
114.0677, 2042.066
114.5498, 2231.464
115.0319, 2427.649
115.5140, 2619.621
115.9961, 2803.515
116.4783, 2979.227
116.9604, 3146.163
117.4425, 3309.387
117.9246, 3464.114
118.4067, 3603.886
118.8888, 3713.592
119.3710, 3818.807
119.8531, 3931.950
120.3352, 4053.167
120.8173, 4184.467
121.2994, 4326.561
121.7815, 4478.625
122.2637, 4639.926
122.7458, 4802.444
123.2279, 4976.053
123.7100, 5171.707
124.1921, 5392.775
124.6742, 5626.608
125.1564, 5866.438
125.6385, 6110.677
126.1206, 6355.337
126.6027, 6596.631
127.0848, 6835.122
127.5669, 7070.223
128.0491, 7302.276
128.5312, 7530.021
129.0133, 7754.806
129.4954, 7974.118
129.9775, 8183.556
130.4596, 8380.630
130.9418, 8563.915
131.4239, 8735.437
131.9060, 8895.758
132.3881, 9044.710
132.8702, 9177.488
133.3523, 9294.246
133.8345, 9401.814
134.3166, 9499.937
134.7987, 9589.719
135.2808, 9691.013
135.7629, 9811.859
136.2450, 9949.188
136.7272, 10083.27
137.2093, 10213.10
137.6914, 10345.09
138.1735, 10484.74
138.6556, 10630.52
139.1377, 10788.69
139.6199, 10967.38
140.1020, 11164.92
140.5841, 11348.57
141.0662, 11511.14
141.5483, 11666.61
142.0304, 11831.73
142.5126, 12006.12
142.9947, 12183.09
143.4768, 12323.61
143.9589, 12402.12
144.4410, 12471.42
144.9231, 12534.70
145.4053, 12588.31
145.8874, 12626.59
146.3695, 12641.55
146.8516, 12653.38
147.3337, 12668.99
147.8158, 12694.55
148.2980, 12709.43
148.7801, 12709.99
149.2622, 12701.12
149.7443, 12692.31
150.2264, 12677.11
150.7085, 12667.54
151.1907, 12668.39
151.6728, 12689.04
152.1549, 12703.77
152.6370, 12708.16
153.1191, 12705.93
153.6012, 12706.38
154.0834, 12705.33
154.5655, 12710.06
155.0476, 12724.18
155.5297, 12758.96
156.0118, 12787.36
156.4939, 12800.86
156.9761, 12804.00
157.4582, 12811.72
157.9403, 12832.29
158.4224, 12855.12
158.9045, 12874.11
159.3866, 12885.00
159.8688, 12895.45
160.3509, 12905.27
160.8330, 12915.53
161.3151, 12931.02
161.7972, 12959.48
162.2793, 12990.86
162.7615, 13017.49
163.2436, 13034.43
163.7257, 13049.05
164.2078, 13066.12
164.6899, 13084.69
165.1720, 13098.02
165.6541, 13098.04
166.1363, 13092.90
166.6184, 13090.63
167.1005, 13091.47
167.5826, 13097.59
168.0647, 13115.05
168.5468, 13142.60
169.0290, 13164.18
169.5111, 13162.30
169.9932, 13150.32
170.4753, 13145.91
170.9574, 13159.55
171.4395, 13181.22
171.9217, 13206.50
172.4038, 13235.30
172.8859, 13258.62
173.3680, 13263.89
173.8501, 13259.48
174.3322, 13260.15
174.8144, 13273.85
175.2965, 13295.18
175.7786, 13318.35
176.2607, 13343.50
176.7428, 13368.51
177.2249, 13390.66
177.7071, 13410.88
178.1892, 13432.18
178.6713, 13458.81
179.1534, 13486.34
179.6355, 13506.01
180.1176, 13516.83
180.5998, 13526.63
181.0819, 13543.08
181.5640, 13565.19
182.0461, 13590.39
182.5282, 13621.55
183.0103, 13654.30
183.4925, 13677.35
183.9746, 13689.13
184.4567, 13696.38
184.9388, 13704.82
185.4209, 13715.06
185.9030, 13729.85
186.3852, 13757.13
186.8673, 13791.15
187.3494, 13810.37
187.8315, 13811.59
188.3136, 13806.48
188.7957, 13808.55
189.2779, 13817.84
189.7600, 13834.29
190.2421, 13863.89
190.7242, 13902.89
191.2063, 13928.15
191.6884, 13935.44
192.1706, 13936.28
192.6527, 13950.24
193.1348, 13977.32
193.6169, 14003.47
194.0990, 14019.33
194.5811, 14025.67
195.0633, 14038.87
195.5454, 14061.12
196.0275, 14087.05
196.5096, 14104.32
196.9917, 14111.92
197.4738, 14122.83
197.9560, 14149.51
198.4381, 14192.11
198.9202, 14215.58
199.4023, 14213.87
199.8844, 14199.32
200.3665, 14194.30
200.8487, 14199.14
201.3308, 14212.44
201.8129, 14238.17
202.2950, 14278.26
202.7771, 14305.07
203.2592, 14313.01
203.7414, 14312.54
204.2235, 14328.58
204.7056, 14365.31
205.1877, 14401.10
205.6698, 14421.42
206.1519, 14421.76
206.6341, 14436.45
207.1162, 14470.91
207.5983, 14515.82
208.0804, 14551.20
208.5625, 14576.10
209.0446, 14593.11
209.5268, 14599.19
210.0089, 14588.78
210.4910, 14596.08
210.9731, 14629.13
211.4552, 14675.77
211.9373, 14704.87
212.4195, 14710.03
212.9016, 14714.31
213.3837, 14728.45
213.8658, 14754.28
214.3479, 14784.72
214.8300, 14822.01
215.3121, 14862.67
215.7943, 14899.30
216.2764, 14933.41
216.7585, 14959.19
217.2406, 14971.03
217.7227, 14960.58
218.2048, 14962.31
218.6870, 14979.80
219.1691, 15007.48
219.6512, 15033.72
220.1333, 15059.68
220.6154, 15081.87
221.0975, 15098.16
221.5797, 15104.85
222.0618, 15116.32
222.5439, 15134.29
223.0260, 15156.55
223.5081, 15179.23
223.9902, 15204.92
224.4724, 15227.15
224.9545, 15241.69
225.4366, 15244.22
225.9187, 15253.40
226.4008, 15271.34
226.8829, 15295.32
227.3651, 15319.38
227.8472, 15342.87
228.3293, 15367.90
228.8114, 15395.68
229.2935, 15427.36
229.7757, 15457.38
230.2578, 15485.15
230.7399, 15510.84
231.2220, 15534.99
231.7041, 15555.54
232.1862, 15576.88
232.6684, 15599.99
233.1505, 15623.86
233.6326, 15653.28
234.1147, 15694.78
234.5968, 15738.25
235.0789, 15762.13
235.5611, 15749.82
236.0432, 15745.10
236.5253, 15765.58
237.0074, 15821.11
237.4895, 15864.88
237.9716, 15892.44
238.4538, 15911.13
238.9359, 15932.80
239.4180, 15961.05
239.9001, 15986.80
240.3822, 16004.96
240.8643, 16010.94
241.3465, 16031.61
241.8286, 16077.85
242.3107, 16131.06
242.7928, 16163.52
243.2749, 16163.17
243.7570, 16162.48
244.2392, 16169.41
244.7213, 16184.44
245.2034, 16205.02
245.6855, 16235.34
246.1676, 16268.00
246.6497, 16293.59
247.1319, 16309.49
247.6140, 16323.34
248.0961, 16334.89
248.5782, 16342.98
249.0603, 16363.47
249.5424, 16405.26
250.0246, 16451.49
250.5067, 16482.46
250.9888, 16487.14
251.4709, 16498.61
251.9530, 16525.96
252.4351, 16570.36
252.9173, 16609.10
253.3994, 16639.46
253.8815, 16667.27
254.3636, 16699.08
254.8457, 16738.38
255.3278, 16771.85
255.8100, 16794.83
256.2921, 16807.62
256.7742, 16824.44
257.2563, 16845.34
257.7384, 16870.05
258.2205, 16898.39
258.7026, 16931.57
259.1848, 16966.91
259.6669, 17006.79
260.1490, 17049.99
260.6311, 17080.28
261.1132, 17091.94
261.5953, 17100.64
262.0775, 17118.64
262.5596, 17150.53
263.0417, 17178.65
263.5238, 17199.43
264.0059, 17214.76
264.4880, 17235.61
264.9702, 17263.96
265.4523, 17293.01
265.9344, 17317.25
266.4165, 17334.05
266.8986, 17356.46
267.3807, 17388.93
267.8629, 17426.59
268.3450, 17453.44
268.8271, 17467.46
269.3092, 17476.84
269.7913, 17485.56
270.2734, 17493.24
270.7556, 17503.28
271.2377, 17515.57
271.7198, 17531.49
272.2019, 17554.47
272.6840, 17585.81
273.1661, 17621.20
273.6483, 17661.31
274.1304, 17707.77
274.6125, 17743.12
275.0946, 17762.34
275.5767, 17775.87
276.0588, 17803.43
276.5410, 17847.00
277.0231, 17891.44
277.5052, 17927.37
277.9873, 17954.28
278.4694, 17990.93
278.9515, 18039.97
279.4337, 18091.81
279.9158, 18133.07
280.3979, 18162.87
280.8800, 18188.75
281.3621, 18213.38
281.8442, 18236.51
282.3264, 18252.92
282.8085, 18261.66
283.2906, 18268.38
283.7727, 18277.36
284.2548, 18288.80
284.7369, 18309.69
285.2191, 18347.80
285.7012, 18396.49
286.1833, 18425.05
286.6654, 18430.55
287.1475, 18436.07
287.6296, 18467.37
288.1118, 18521.75
288.5939, 18570.90
289.0760, 18607.78
289.5581, 18635.38
290.0402, 18663.45
290.5223, 18692.17
291.0045, 18714.42
291.4866, 18719.55
291.9687, 18711.79
292.4508, 18711.74
292.9329, 18723.89
293.4150, 18744.34
293.8972, 18770.21
294.3793, 18800.98
294.8614, 18828.76
295.3435, 18845.92
295.8256, 18856.01
296.3077, 18868.24
296.7899, 18883.67
297.2720, 18901.81
297.7541, 18920.23
298.2362, 18939.83
298.7183, 18965.14
299.2004, 19004.31
299.6826, 19049.41
300.1647, 19085.86
300.6468, 19111.44
301.1289, 19132.68
301.6110, 19155.23
302.0931, 19178.42
302.5753, 19201.57
303.0574, 19224.68
303.5395, 19247.07
304.0216, 19266.82
304.5037, 19284.02
304.9858, 19301.68
305.4680, 19321.37
305.9501, 19343.64
306.4322, 19369.35
306.9143, 19402.35
307.3964, 19436.96
307.8785, 19470.00
308.3607, 19501.25
308.8428, 19528.40
309.3249, 19546.06
309.8070, 19560.23
310.2891, 19578.02
310.7712, 19603.79
311.2534, 19630.61
311.7355, 19651.79
312.2176, 19669.21
312.6997, 19689.81
313.1818, 19710.70
313.6639, 19739.25
314.1461, 19786.08
314.6282, 19866.83
315.1103, 19935.34
315.5924, 19958.05
316.0745, 19951.79
316.5566, 19951.99
317.0388, 19980.76
317.5209, 20014.44
318.0030, 20039.09
318.4851, 20050.62
318.9672, 20063.76
319.4493, 20087.37
319.9315, 20114.66
320.4136, 20136.89
320.8957, 20141.40
321.3778, 20149.59
321.8599, 20172.99
322.3420, 20213.99
322.8242, 20247.05
323.3063, 20256.63
323.7884, 20260.79
324.2705, 20275.29
324.7526, 20314.57
325.2347, 20351.86
325.7169, 20378.82
326.1990, 20396.72
326.6811, 20419.81
327.1632, 20449.50
327.6453, 20484.30
328.1274, 20523.46
328.6096, 20583.61
329.0917, 20627.52
329.5738, 20646.30
330.0559, 20647.21
330.5380, 20653.74
331.0201, 20668.29
331.5023, 20685.93
331.9844, 20704.23
332.4665, 20719.96
332.9486, 20744.52
333.4307, 20783.54
333.9128, 20828.24
334.3950, 20861.44
334.8771, 20873.88
335.3592, 20892.92
335.8413, 20930.68
336.3234, 20990.85
336.8055, 21032.50
337.2877, 21049.24
337.7698, 21055.57
338.2519, 21066.07
338.7340, 21080.15
339.2161, 21100.92
339.6982, 21131.84
340.1803, 21170.44
340.6624, 21198.63
341.1446, 21214.75
341.6267, 21227.16
342.1088, 21239.69
342.5909, 21251.89
343.0730, 21275.48
343.5551, 21314.15
344.0373, 21362.18
344.5194, 21410.06
345.0015, 21458.75
345.4836, 21494.59
345.9657, 21496.70
346.4478, 21474.40
346.9300, 21485.49
347.4121, 21540.77
347.8942, 21603.28
348.3763, 21616.04
348.8584, 21587.60
349.3405, 21567.90
349.8227, 21585.42
350.3048, 21626.27
350.7869, 21663.31
351.2690, 21696.65
351.7511, 21726.77
352.2332, 21746.83
352.7154, 21763.98
353.1975, 21794.46
353.6796, 21851.68
354.1617, 21915.53
354.6438, 21962.29
355.1259, 21994.18
355.6081, 22024.39
356.0902, 22061.57
356.5723, 22101.21
357.0544, 22138.01
357.5365, 22168.83
358.0186, 22199.27
358.5008, 22233.89
358.9829, 22270.63
359.4650, 22305.27
359.9471, 22340.04
360.4292, 22369.17
360.9113, 22387.39
361.3935, 22392.92
361.8756, 22397.81
362.3577, 22405.47
362.8398, 22416.22
363.3219, 22430.43
363.8040, 22451.18
364.2862, 22473.26
364.7683, 22495.50
365.2504, 22518.13
365.7325, 22541.25
366.2146, 22565.57
366.6967, 22590.41
367.1789, 22615.35
367.6610, 22640.63
368.1431, 22665.82
368.6252, 22692.40
369.1073, 22719.25
369.5894, 22742.25
370.0716, 22754.33
370.5537, 22769.92
371.0358, 22795.52
371.5179, 22836.56
372.0000, 22870.04
372.4821, 22888.54
372.9643, 22903.94
373.4464, 22934.04
373.9285, 22988.64
374.4106, 23035.44
374.8927, 23063.18
375.3748, 23072.82
375.8570, 23096.10
376.3391, 23137.19
376.8212, 23182.81
377.3033, 23223.49
377.7854, 23258.90
378.2675, 23288.44
378.7497, 23309.51
379.2318, 23327.42
379.7139, 23361.45
380.1960, 23413.59
380.6781, 23457.16
381.1602, 23468.37
381.6424, 23454.00
382.1245, 23457.37
382.6066, 23482.67
383.0887, 23517.82
383.5708, 23549.77
384.0529, 23578.96
384.5351, 23608.52
385.0172, 23640.42
385.4993, 23672.71
385.9814, 23702.88
386.4635, 23730.68
386.9456, 23757.60
387.4278, 23780.91
387.9099, 23804.35
388.3920, 23835.68
388.8741, 23881.26
389.3562, 23926.68
389.8383, 23959.61
390.3205, 23982.49
390.8026, 24001.47
391.2847, 24012.30
391.7668, 24025.13
392.2489, 24050.64
392.7310, 24092.86
393.2132, 24131.88
393.6953, 24154.39
394.1774, 24169.06
394.6595, 24186.52
395.1416, 24214.54
395.6237, 24241.58
396.1059, 24261.00
396.5880, 24273.67
397.0701, 24293.08
397.5522, 24332.09
398.0343, 24371.99
398.5164, 24401.63
398.9986, 24408.37
399.4807, 24420.40
399.9628, 24439.62
400.4449, 24464.78
400.9270, 24492.89
401.4091, 24520.76
401.8913, 24555.72
402.3734, 24603.68
402.8555, 24669.72
403.3376, 24718.43
403.8197, 24741.19
404.3018, 24756.43
404.7840, 24785.67
405.2661, 24834.81
405.7482, 24876.54
406.2303, 24904.21
406.7124, 24920.61
407.1945, 24938.09
407.6767, 24956.07
408.1588, 24976.44
408.6409, 24997.31
409.1230, 25019.31
409.6051, 25058.34
410.0872, 25119.80
410.5694, 25187.14
411.0515, 25237.19
411.5336, 25271.25
412.0157, 25295.03
412.4978, 25306.13
412.9799, 25310.53
413.4621, 25318.97
413.9442, 25331.79
414.4263, 25349.23
414.9084, 25372.30
415.3905, 25400.39
415.8727, 25433.48
416.3548, 25474.88
416.8369, 25516.47
417.3190, 25552.29
417.8011, 25582.96
418.2832, 25610.66
418.7654, 25637.35
419.2475, 25660.09
419.7296, 25670.21
420.2117, 25661.93
420.6938, 25672.20
421.1759, 25737.11
421.6581, 25818.80
422.1402, 25878.02
422.6223, 25879.79
423.1044, 25884.20
423.5865, 25906.42
424.0686, 25944.52
424.5508, 25983.24
425.0329, 26029.40
425.5150, 26069.09
425.9971, 26094.00
426.4792, 26087.45
426.9613, 26102.46
427.4435, 26153.07
427.9256, 26217.87
428.4077, 26260.92
428.8898, 26271.21
429.3719, 26285.97
429.8540, 26317.29
430.3362, 26363.52
430.8183, 26403.91
431.3004, 26439.10
431.7825, 26465.91
432.2646, 26477.31
432.7467, 26473.15
433.2289, 26476.16
433.7110, 26489.49
434.1931, 26510.60
434.6752, 26537.17
435.1573, 26568.54
435.6394, 26599.15
436.1216, 26621.26
436.6037, 26641.32
437.0858, 26676.38
437.5679, 26727.17
438.0500, 26778.47
438.5321, 26819.02
439.0142, 26850.66
439.4963, 26875.96
439.9785, 26892.82
440.4606, 26908.10
440.9427, 26923.01
441.4248, 26940.39
441.9069, 26968.06
442.3890, 27030.26
442.8712, 27090.06
443.3533, 27118.66
443.8354, 27105.62
444.3175, 27099.42
444.7996, 27118.87
445.2817, 27151.96
445.7639, 27186.26
446.2460, 27214.46
446.7281, 27248.85
447.2102, 27294.51
447.6923, 27349.32
448.1744, 27398.41
448.6566, 27438.51
449.1387, 27475.39
449.6208, 27511.82
450.1029, 27549.93
450.5850, 27580.14
451.0671, 27598.13
451.5493, 27612.22
452.0314, 27635.51
452.5135, 27670.75
452.9956, 27703.14
453.4777, 27728.20
453.9598, 27747.51
454.4420, 27768.14
454.9241, 27790.27
455.4062, 27811.83
455.8883, 27827.74
456.3704, 27840.83
456.8525, 27867.04
457.3347, 27911.23
457.8168, 27955.23
458.2989, 27968.09
458.7810, 27960.54
459.2631, 27963.61
459.7452, 28005.00
460.2274, 28055.82
460.7095, 28078.65
461.1916, 28077.82
461.6737, 28083.46
462.1558, 28118.77
462.6379, 28166.51
463.1201, 28211.85
463.6022, 28253.54
464.0843, 28289.18
464.5664, 28310.84
465.0485, 28326.89
465.5306, 28350.78
466.0128, 28403.32
466.4949, 28446.24
466.9770, 28457.85
467.4591, 28436.28
467.9412, 28442.32
468.4233, 28506.70
468.9055, 28573.70
469.3876, 28609.73
469.8697, 28591.88
470.3518, 28595.04
470.8339, 28628.31
471.3160, 28678.92
471.7982, 28723.86
472.2803, 28762.43
472.7624, 28798.77
473.2445, 28832.01
473.7266, 28863.58
474.2087, 28903.12
474.6909, 28951.02
475.1730, 28999.78
475.6551, 29043.06
476.1372, 29081.02
476.6193, 29112.75
477.1014, 29134.12
477.5836, 29159.42
478.0657, 29215.78
478.5478, 29291.92
479.0299, 29354.81
479.5120, 29380.58
479.9941, 29392.46
480.4763, 29411.57
480.9584, 29437.59
481.4405, 29461.58
481.9226, 29469.18
482.4047, 29478.62
482.8868, 29506.95
483.3690, 29568.89
483.8511, 29625.88
484.3332, 29667.57
484.8153, 29697.40
485.2974, 29721.81
485.7795, 29739.39
486.2617, 29753.60
486.7438, 29760.48
487.2259, 29760.53
487.7080, 29777.53
488.1901, 29819.71
488.6722, 29868.55
489.1544, 29913.63
489.6365, 29953.01
490.1186, 29996.32
490.6007, 30047.64
491.0828, 30097.58
491.5649, 30129.63
492.0471, 30142.63
492.5292, 30155.72
493.0113, 30171.71
493.4934, 30193.15
493.9755, 30232.67
494.4576, 30288.78
494.9398, 30342.68
495.4219, 30380.60
495.9040, 30406.12
496.3861, 30422.81
496.8682, 30429.98
497.3503, 30435.76
497.8325, 30440.93
498.3146, 30450.64
498.7967, 30473.02
499.2788, 30528.81
499.7609, 30582.29
500.2430, 30614.11
500.7252, 30628.44
501.2073, 30643.32
501.6894, 30663.07
502.1715, 30686.20
502.6536, 30714.75
503.1357, 30755.66
503.6179, 30782.15
504.1000, 30775.20
504.5821, 30765.79
505.0642, 30786.05
505.5463, 30849.87
506.0284, 30911.96
506.5106, 30967.00
506.9927, 31014.35
507.4748, 31049.13
507.9569, 31067.33
508.4390, 31089.86
508.9211, 31129.09
509.4033, 31182.70
509.8854, 31235.46
510.3675, 31288.02
510.8496, 31333.22
511.3317, 31357.67
511.8138, 31369.14
512.2960, 31389.81
512.7781, 31430.18
513.2602, 31470.98
513.7423, 31479.86
514.2244, 31472.90
514.7065, 31489.07
515.1887, 31581.82
515.6708, 31677.10
516.1529, 31718.46
516.6350, 31706.06
517.1171, 31699.79
517.5992, 31720.52
518.0814, 31754.49
518.5635, 31793.54
519.0456, 31843.09
519.5277, 31887.37
520.0098, 31923.03
520.4919, 31953.93
520.9741, 31985.66
521.4562, 32019.12
521.9383, 32050.00
522.4204, 32073.77
522.9025, 32093.25
523.3846, 32129.63
523.8668, 32185.70
524.3489, 32244.68
524.8310, 32298.68
525.3131, 32347.48
525.7952, 32387.64
526.2773, 32418.54
526.7595, 32444.60
527.2416, 32469.79
527.7237, 32493.91
528.2058, 32517.13
528.6879, 32541.38
529.1700, 32562.32
529.6522, 32572.60
530.1343, 32575.89
530.6164, 32582.56
531.0985, 32595.96
531.5806, 32616.21
532.0627, 32642.25
532.5449, 32673.75
533.0270, 32716.47
533.5091, 32783.33
533.9912, 32854.52
534.4733, 32915.05
534.9554, 32963.32
535.4376, 33000.92
535.9197, 33017.66
536.4018, 33027.77
536.8839, 33058.51
537.3660, 33121.49
537.8481, 33172.16
538.3303, 33192.50
538.8124, 33190.86
539.2945, 33219.87
539.7766, 33283.96
540.2587, 33341.60
540.7408, 33353.66
541.2230, 33334.88
541.7051, 33340.63
542.1872, 33376.63
542.6693, 33423.79
543.1514, 33469.96
543.6335, 33513.34
544.1157, 33551.54
544.5978, 33583.86
545.0799, 33611.14
545.5620, 33623.57
546.0441, 33630.70
546.5262, 33656.04
547.0084, 33731.10
547.4905, 33805.24
547.9726, 33855.57
548.4547, 33878.39
548.9368, 33903.50
549.4189, 33928.96
549.9011, 33960.41
550.3832, 34002.27
550.8653, 34062.05
551.3474, 34113.19
551.8295, 34152.44
552.3116, 34184.93
552.7938, 34217.29
553.2759, 34249.35
553.7580, 34282.54
554.2401, 34320.06
554.7222, 34356.64
555.2043, 34375.56
555.6865, 34378.38
556.1686, 34382.30
556.6507, 34392.61
557.1328, 34413.27
557.6149, 34458.03
558.0970, 34528.17
558.5792, 34591.19
559.0613, 34622.88
559.5434, 34636.55
560.0255, 34642.87
560.5076, 34631.34
560.9897, 34637.07
561.4719, 34687.86
561.9540, 34760.12
562.4361, 34813.76
562.9182, 34820.63
563.4003, 34834.46
563.8824, 34865.82
564.3646, 34912.16
564.8467, 34960.58
565.3288, 35014.08
565.8109, 35062.07
566.2930, 35097.87
566.7751, 35120.49
567.2573, 35140.16
567.7394, 35154.14
568.2215, 35176.98
568.7036, 35235.63
569.1857, 35318.06
569.6678, 35380.41
570.1500, 35409.64
570.6321, 35424.55
571.1142, 35439.74
571.5963, 35456.98
572.0784, 35479.93
572.5605, 35518.43
573.0427, 35556.83
573.5248, 35587.29
574.0069, 35610.13
574.4890, 35628.96
574.9711, 35637.37
575.4532, 35648.42
575.9354, 35669.17
576.4175, 35702.49
576.8996, 35737.87
577.3817, 35781.68
577.8638, 35820.89
578.3459, 35839.45
578.8281, 35826.97
579.3102, 35836.20
579.7923, 35878.32
580.2744, 35935.56
580.7565, 35971.77
581.2386, 35988.03
581.7208, 36006.87
582.2029, 36035.91
582.6850, 36073.55
583.1671, 36124.90
583.6492, 36186.50
584.1313, 36237.48
584.6135, 36251.30
585.0956, 36257.54
585.5776, 36284.54
586.0598, 36336.79
586.5419, 36397.63
587.0240, 36482.64
587.5061, 36561.25
587.9882, 36607.29
588.4703, 36571.30
588.9525, 36566.36
589.4346, 36613.99
589.9167, 36686.95
590.3988, 36740.43
590.8809, 36763.97
591.3630, 36793.08
591.8452, 36839.77
592.3273, 36895.84
592.8094, 36925.08
593.2915, 36925.00
593.7736, 36931.58
594.2557, 36975.35
594.7379, 37040.36
595.2200, 37084.07
595.7021, 37105.44
596.1842, 37121.63
596.6663, 37143.84
597.1484, 37170.05
597.6306, 37198.35
598.1127, 37228.59
598.5948, 37259.73
599.0769, 37294.74
599.5590, 37329.65
600.0411, 37359.49
600.5233, 37384.24
601.0054, 37402.62
601.4875, 37407.75
601.9696, 37406.79
602.4517, 37421.62
602.9338, 37457.05
603.4160, 37498.81
603.8981, 37545.74
604.3802, 37596.39
604.8623, 37631.41
605.3444, 37649.26
605.8265, 37665.35
606.3087, 37689.84
606.7908, 37721.41
607.2729, 37757.61
607.7550, 37798.27
608.2371, 37841.85
608.7192, 37888.33
609.2014, 37936.60
609.6835, 37987.04
610.1656, 38043.18
610.6477, 38093.52
611.1298, 38128.44
611.6119, 38154.95
612.0941, 38186.50
612.5762, 38237.96
613.0583, 38279.95
613.5404, 38300.77
614.0225, 38305.66
614.5046, 38327.32
614.9868, 38374.99
615.4689, 38417.62
615.9510, 38433.90
616.4331, 38426.32
616.9152, 38456.35
617.3973, 38527.90
617.8795, 38600.88
618.3616, 38633.86
618.8437, 38640.74
619.3258, 38653.16
619.8079, 38675.71
620.2900, 38705.61
620.7722, 38744.55
621.2543, 38788.64
621.7364, 38831.72
622.2185, 38870.55
622.7006, 38910.43
623.1827, 38958.19
623.6649, 39008.40
624.1470, 39048.23
624.6291, 39063.60
625.1112, 39083.96
625.5933, 39116.49
626.0754, 39159.32
626.5576, 39199.21
627.0397, 39234.84
627.5218, 39270.32
628.0039, 39307.59
628.4860, 39346.38
628.9681, 39387.15
629.4503, 39430.48
629.9324, 39470.09
630.4145, 39497.96
630.8966, 39519.88
631.3787, 39546.11
631.8608, 39579.14
632.3430, 39614.57
632.8251, 39656.32
633.3072, 39696.72
633.7893, 39726.82
634.2714, 39731.21
634.7535, 39740.65
635.2357, 39760.32
635.7178, 39789.45
636.1999, 39826.14
636.6820, 39870.66
637.1641, 39921.16
637.6462, 39979.29
638.1284, 40042.18
638.6105, 40093.23
639.0926, 40131.55
639.5747, 40163.91
640.0568, 40186.96
640.5389, 40207.07
641.0211, 40248.38
641.5032, 40310.43
641.9853, 40368.18
642.4674, 40397.05
642.9495, 40413.49
643.4316, 40434.99
643.9138, 40464.95
644.3959, 40499.55
644.8780, 40542.99
645.3601, 40587.69
645.8422, 40625.30
646.3243, 40654.39
646.8065, 40677.32
647.2886, 40688.91
647.7707, 40697.80
648.2528, 40720.52
648.7349, 40759.95
649.2170, 40801.05
649.6992, 40840.30
650.1813, 40878.97
650.6634, 40922.28
651.1455, 40969.58
651.6276, 41016.97
652.1097, 41061.32
652.5919, 41105.29
653.0740, 41149.91
653.5561, 41196.09
654.0382, 41253.26
654.5203, 41343.36
655.0024, 41432.49
655.4846, 41498.43
655.9667, 41534.94
656.4488, 41562.13
656.9309, 41562.50
657.4130, 41569.59
657.8951, 41609.43
658.3773, 41698.24
658.8594, 41771.69
659.3415, 41827.49
659.8236, 41867.66
660.3057, 41889.09
660.7878, 41893.71
661.2700, 41905.04
661.7521, 41930.45
662.2342, 41960.76
662.7163, 41980.68
663.1984, 41996.15
663.6805, 42021.95
664.1627, 42071.89
664.6448, 42127.89
665.1269, 42189.93
665.6090, 42252.18
666.0911, 42291.18
666.5732, 42265.18
667.0554, 42253.29
667.5375, 42286.93
668.0196, 42365.54
668.5017, 42429.05
668.9838, 42471.24
669.4659, 42512.79
669.9481, 42571.81
670.4302, 42645.15
670.9123, 42690.61
671.3944, 42705.64
671.8765, 42711.01
672.3586, 42718.00
672.8408, 42730.44
673.3229, 42760.74
673.8050, 42816.62
674.2871, 42862.67
674.7692, 42856.06
675.2513, 42835.60
675.7335, 42844.59
676.2156, 42926.49
676.6977, 42997.49
677.1798, 43046.50
677.6619, 43080.35
678.1440, 43106.39
678.6262, 43117.05
679.1083, 43141.86
679.5904, 43189.07
680.0725, 43251.88
680.5546, 43319.75
681.0367, 43392.01
681.5189, 43457.03
682.0010, 43507.09
682.4831, 43547.79
682.9652, 43588.60
683.4473, 43627.85
683.9294, 43663.06
684.4116, 43682.73
684.8937, 43705.15
685.3758, 43747.56
685.8579, 43811.76
686.3400, 43863.15
686.8221, 43880.53
687.3043, 43897.33
687.7864, 43929.94
688.2685, 43982.04
688.7506, 44031.80
689.2327, 44079.92
689.7148, 44125.71
690.1970, 44167.30
690.6791, 44205.79
691.1612, 44247.14
691.6433, 44292.47
692.1254, 44335.25
692.6075, 44371.38
693.0897, 44400.05
693.5718, 44420.18
694.0539, 44430.34
694.5360, 44434.40
695.0181, 44422.46
695.5002, 44409.07
695.9824, 44416.44
696.4645, 44446.19
696.9466, 44502.15
697.4287, 44604.58
697.9108, 44725.60
698.3929, 44784.55
698.8751, 44768.02
699.3572, 44774.86
699.8393, 44849.51
700.3214, 44959.23
700.8035, 45022.89
701.2856, 45046.95
701.7678, 45069.78
702.2499, 45107.37
702.7320, 45157.95
703.2141, 45228.87
703.6962, 45315.80
704.1783, 45387.38
704.6605, 45414.07
705.1426, 45437.11
705.6247, 45481.10
706.1068, 45550.39
706.5889, 45597.52
707.0710, 45614.00
707.5532, 45621.47
708.0353, 45629.51
708.5174, 45638.22
708.9995, 45667.28
709.4816, 45720.41
709.9637, 45774.04
710.4459, 45805.09
710.9280, 45821.91
711.4101, 45839.29
711.8922, 45861.38
712.3743, 45880.45
712.8564, 45882.96
713.3386, 45884.98
713.8207, 45903.46
714.3028, 45949.22
714.7849, 46001.34
715.2670, 46055.90
715.7491, 46116.38
716.2313, 46193.67
716.7134, 46296.14
717.1955, 46370.74
717.6776, 46401.13
718.1597, 46409.79
718.6418, 46436.39
719.1240, 46477.91
719.6061, 46524.34
720.0882, 46575.38
720.5703, 46623.73
721.0524, 46661.12
721.5345, 46689.61
722.0167, 46714.21
722.4988, 46736.52
722.9809, 46756.87
723.4630, 46773.21
723.9451, 46788.03
724.4272, 46811.01
724.9094, 46845.21
725.3915, 46884.96
725.8736, 46934.45
726.3557, 46988.69
726.8378, 47010.36
727.3199, 46999.30
727.8021, 47001.00
728.2842, 47054.30
728.7663, 47134.06
729.2484, 47202.03
729.7305, 47256.34
730.2126, 47301.39
730.6948, 47321.12
731.1769, 47344.74
731.6590, 47394.32
732.1411, 47475.94
732.6232, 47551.61
733.1053, 47625.18
733.5875, 47684.12
734.0696, 47716.35
734.5517, 47717.27
735.0338, 47732.29
735.5159, 47765.95
735.9980, 47797.10
736.4802, 47792.54
736.9623, 47771.03
737.4444, 47788.51
737.9265, 47856.73
738.4086, 47930.14
738.8907, 47969.35
739.3729, 47998.04
739.8550, 48043.49
740.3371, 48130.82
740.8192, 48195.86
741.3013, 48203.57
741.7834, 48197.41
742.2656, 48220.66
742.7477, 48284.62
743.2298, 48334.20
743.7119, 48357.92
744.1940, 48375.35
744.6761, 48416.52
745.1583, 48477.81
745.6404, 48544.22
746.1225, 48618.18
746.6046, 48681.11
747.0867, 48706.21
747.5688, 48709.96
748.0510, 48719.93
748.5331, 48753.77
749.0152, 48786.80
749.4973, 48807.47
749.9794, 48824.80
750.4615, 48856.09
750.9437, 48903.34
751.4258, 48962.08
751.9079, 49040.44
752.3900, 49121.47
752.8721, 49156.96
753.3542, 49151.09
753.8364, 49148.35
754.3185, 49157.02
754.8006, 49188.18
755.2827, 49273.71
755.7648, 49394.48
756.2469, 49493.70
756.7291, 49524.46
757.2112, 49551.70
757.6933, 49606.33
758.1754, 49681.78
758.6575, 49739.21
759.1396, 49770.71
759.6218, 49798.18
760.1039, 49828.88
760.5860, 49861.50
761.0681, 49889.06
761.5502, 49912.14
762.0323, 49946.28
762.5145, 50017.59
762.9966, 50096.88
763.4787, 50141.36
763.9608, 50155.53
764.4429, 50169.11
764.9250, 50192.46
765.4072, 50222.74
765.8893, 50257.40
766.3714, 50296.82
766.8535, 50347.31
767.3356, 50410.38
767.8177, 50481.55
768.2999, 50564.90
768.7820, 50656.18
769.2641, 50710.19
769.7462, 50724.98
770.2283, 50735.73
770.7104, 50767.70
771.1926, 50811.04
771.6747, 50850.71
772.1568, 50885.84
772.6389, 50929.91
773.1210, 51007.17
773.6031, 51081.77
774.0853, 51132.82
774.5674, 51158.27
775.0495, 51165.60
775.5316, 51144.57
776.0137, 51125.51
776.4958, 51128.30
776.9780, 51152.77
777.4601, 51186.89
777.9422, 51231.77
778.4243, 51274.48
778.9064, 51290.82
779.3885, 51305.04
779.8707, 51360.11
780.3528, 51464.91
780.8349, 51550.13
781.3170, 51557.81
781.7991, 51552.18
782.2813, 51582.70
782.7633, 51666.83
783.2454, 51725.01
783.7275, 51744.19
784.2097, 51759.57
784.6918, 51807.24
785.1739, 51881.72
785.6560, 51929.75
786.1381, 51946.73
786.6202, 51957.70
787.1024, 51981.18
787.5845, 52014.85
788.0666, 52057.64
788.5487, 52112.11
789.0308, 52163.37
789.5129, 52191.46
789.9951, 52225.18
790.4772, 52289.24
790.9593, 52402.42
791.4414, 52490.33
791.9235, 52547.63
792.4056, 52593.27
792.8878, 52645.17
793.3699, 52701.53
793.8520, 52758.90
794.3341, 52818.46
794.8162, 52865.95
795.2983, 52870.86
795.7805, 52867.57
796.2626, 52901.84
796.7447, 53002.14
797.2268, 53076.29
797.7089, 53080.37
798.1910, 53066.55
798.6732, 53072.76
799.1553, 53102.43
799.6374, 53143.54
800.1195, 53198.02
800.6016, 53258.96
801.0837, 53327.74
801.5659, 53397.79
802.0480, 53445.27
802.5301, 53463.88
803.0122, 53480.89
803.4943, 53513.30
803.9764, 53555.71
804.4586, 53603.06
804.9407, 53654.99
805.4228, 53709.56
805.9049, 53768.55
806.3870, 53826.86
806.8691, 53877.45
807.3513, 53916.57
807.8334, 53982.08
808.3155, 54080.71
808.7976, 54178.89
809.2797, 54244.79
809.7618, 54283.89
810.2440, 54299.42
810.7261, 54287.21
811.2082, 54285.55
811.6903, 54319.22
812.1724, 54371.15
812.6545, 54430.55
813.1367, 54514.77
813.6188, 54554.63
814.1009, 54525.18
814.5830, 54491.68
815.0651, 54520.82
815.5472, 54607.52
816.0294, 54671.92
816.5115, 54708.05
816.9936, 54730.26
817.4757, 54741.59
817.9578, 54752.09
818.4399, 54775.17
818.9221, 54814.80
819.4042, 54857.61
819.8863, 54894.59
820.3684, 54937.62
820.8505, 54996.69
821.3326, 55078.56
821.8148, 55145.53
822.2969, 55191.24
822.7790, 55239.19
823.2611, 55317.79
823.7432, 55413.21
824.2253, 55477.42
824.7075, 55504.98
825.1896, 55530.77
825.6717, 55579.05
826.1538, 55635.94
826.6359, 55695.12
827.1180, 55759.63
827.6002, 55797.34
828.0823, 55780.98
828.5644, 55769.23
829.0465, 55803.23
829.5286, 55885.15
830.0107, 55938.39
830.4929, 55962.28
830.9750, 55976.14
831.4571, 55987.99
831.9392, 56003.88
832.4213, 56040.81
832.9034, 56098.05
833.3856, 56138.22
833.8677, 56104.93
834.3498, 56081.68
834.8319, 56131.61
835.3140, 56258.62
835.7961, 56337.48
836.2783, 56349.30
836.7604, 56363.00
837.2425, 56422.02
837.7246, 56513.39
838.2067, 56581.88
838.6888, 56629.95
839.1710, 56681.46
839.6531, 56764.68
840.1352, 56847.35
840.6173, 56893.57
841.0994, 56907.01
841.5815, 56939.10
842.0637, 57033.69
842.5458, 57105.89
843.0279, 57123.07
843.5100, 57094.83
843.9921, 57075.31
844.4742, 57064.39
844.9564, 57077.58
845.4385, 57145.51
845.9206, 57227.70
846.4027, 57257.52
846.8848, 57248.64
847.3669, 57245.13
847.8491, 57267.29
848.3312, 57300.58
848.8133, 57343.64
849.2954, 57394.86
849.7775, 57444.77
850.2596, 57487.31
850.7418, 57550.80
851.2239, 57650.06
851.7060, 57765.34
852.1881, 57850.29
852.6702, 57910.32
853.1523, 57966.72
853.6345, 58024.04
854.1166, 58083.19
854.5987, 58146.80
855.0808, 58210.25
855.5629, 58267.17
856.0450, 58312.20
856.5272, 58355.49
857.0093, 58402.87
857.4914, 58444.59
857.9735, 58460.32
858.4556, 58452.34
858.9377, 58445.29
859.4199, 58445.32
859.9020, 58452.90
860.3841, 58476.66
860.8662, 58507.27
861.3483, 58529.14
861.8304, 58524.86
862.3126, 58537.93
862.7947, 58581.86
863.2768, 58645.86
863.7589, 58724.29
864.2410, 58821.18
864.7231, 58905.39
865.2053, 58972.73
865.6874, 59031.86
866.1695, 59096.45
866.6516, 59158.23
867.1337, 59198.72
867.6158, 59211.93
868.0980, 59225.79
868.5801, 59252.50
869.0622, 59288.15
869.5443, 59333.14
870.0264, 59392.59
870.5085, 59444.39
870.9907, 59491.88
871.4728, 59526.73
871.9549, 59528.74
872.4370, 59512.56
872.9191, 59546.55
873.4012, 59629.19
873.8834, 59701.93
874.3655, 59707.64
874.8476, 59701.07
875.3297, 59720.20
875.8118, 59766.70
876.2939, 59825.44
876.7761, 59908.82
877.2582, 59977.74
877.7403, 60011.27
878.2224, 60018.45
878.7045, 60045.61
879.1866, 60091.54
879.6688, 60142.26
880.1509, 60189.04
880.6330, 60238.47
881.1151, 60303.11
881.5972, 60376.57
882.0793, 60439.20
882.5615, 60472.52
883.0436, 60512.12
883.5257, 60575.11
884.0078, 60644.30
884.4899, 60674.17
884.9720, 60662.36
885.4542, 60664.81
885.9363, 60698.29
886.4184, 60747.21
886.9005, 60787.29
887.3826, 60828.77
887.8647, 60891.28
888.3469, 61002.59
888.8290, 61097.64
889.3111, 61146.09
889.7932, 61173.57
890.2753, 61200.79
890.7574, 61221.24
891.2396, 61275.50
891.7217, 61373.29
892.2038, 61472.21
892.6859, 61516.66
893.1680, 61530.59
893.6501, 61565.96
894.1323, 61632.49
894.6144, 61692.82
895.0965, 61731.14
895.5786, 61755.27
896.0607, 61761.98
896.5428, 61745.28
897.0250, 61784.23
897.5071, 61898.38
897.9892, 62005.27
898.4713, 62040.41
898.9534, 62030.77
899.4355, 62055.36
899.9177, 62110.39
900.3998, 62170.14
900.8819, 62220.56
901.3640, 62267.46
901.8461, 62310.60
902.3282, 62350.17
902.8104, 62393.11
903.2925, 62441.26
903.7746, 62482.89
904.2567, 62508.36
904.7388, 62531.02
905.2209, 62601.59
905.7031, 62702.19
906.1852, 62757.22
906.6673, 62712.73
907.1494, 62655.57
907.6315, 62630.62
908.1136, 62636.30
908.5958, 62672.74
909.0779, 62768.81
909.5600, 62843.36
910.0421, 62890.00
910.5242, 62919.09
911.0063, 62935.09
911.4885, 62942.98
911.9706, 62968.52
912.4527, 63015.52
912.9348, 63074.25
913.4169, 63136.61
913.8990, 63206.44
914.3812, 63290.80
914.8633, 63396.56
915.3454, 63483.70
915.8275, 63543.44
916.3096, 63594.52
916.7917, 63641.88
917.2739, 63687.82
917.7560, 63764.23
918.2381, 63866.39
918.7202, 63945.12
919.2023, 63944.13
919.6844, 63926.84
920.1666, 63945.40
920.6487, 63993.89
921.1308, 64032.95
921.6129, 64059.38
922.0950, 64073.35
922.5771, 64068.73
923.0593, 64058.41
923.5414, 64076.43
924.0235, 64120.21
924.5056, 64168.86
924.9877, 64219.10
925.4698, 64266.31
925.9520, 64321.83
926.4341, 64366.79
926.9162, 64373.59
927.3983, 64258.59
927.8804, 64229.35
928.3625, 64323.87
928.8447, 64450.85
929.3268, 64510.05
929.8089, 64511.03
930.2910, 64535.46
930.7731, 64590.26
931.2552, 64658.01
931.7374, 64731.80
932.2195, 64807.67
932.7016, 64886.33
933.1837, 64967.75
933.6658, 65034.67
934.1479, 65089.88
934.6301, 65124.16
935.1122, 65123.49
935.5943, 65101.48
936.0764, 65114.86
936.5585, 65162.00
937.0406, 65227.54
937.5228, 65324.95
938.0049, 65419.13
938.4870, 65477.70
938.9691, 65514.09
939.4512, 65560.39
939.9333, 65633.75
940.4155, 65693.77
940.8976, 65728.93
941.3797, 65757.73
941.8618, 65809.71
942.3439, 65880.44
942.8260, 65950.42
943.3082, 66016.97
943.7903, 66077.94
944.2724, 66118.09
944.7545, 66159.77
945.2366, 66230.32
945.7188, 66351.76
946.2009, 66430.15
946.6830, 66452.17
947.1651, 66462.68
947.6472, 66494.99
948.1293, 66541.08
948.6115, 66559.59
949.0936, 66555.55
949.5757, 66563.59
950.0578, 66613.41
950.5399, 66674.97
951.0220, 66731.69
951.5042, 66785.86
951.9863, 66848.48
952.4684, 66925.31
952.9505, 66996.59
953.4326, 67057.19
953.9147, 67112.60
954.3969, 67177.01
954.8790, 67245.17
955.3611, 67295.97
955.8432, 67303.91
956.3253, 67344.66
956.8074, 67487.46
957.2896, 67662.55
957.7717, 67807.63
958.2538, 67925.47
958.7359, 67980.79
959.2180, 67955.14
959.7001, 67934.74
960.1823, 68008.39
960.6644, 68129.83
961.1465, 68201.27
961.6286, 68223.76
962.1107, 68240.91
962.5928, 68284.51
963.0750, 68314.60
963.5571, 68304.95
964.0392, 68270.13
964.5213, 68270.50
965.0034, 68314.65
965.4855, 68330.96
965.9677, 68297.59
966.4498, 68232.55
966.9319, 68118.38
967.4140, 68002.75
967.8961, 67977.24
968.3782, 68139.45
968.8604, 68260.22
969.3425, 68276.95
969.8246, 68254.46
970.3067, 68239.27
970.7888, 68230.91
971.2709, 68222.14
971.7531, 68210.52
972.2352, 68224.50
972.7173, 68296.98
973.1994, 68397.58
973.6815, 68506.08
974.1636, 68616.68
974.6458, 68699.41
975.1279, 68727.27
975.6100, 68754.89
976.0921, 68793.66
976.5742, 68844.13
977.0563, 68913.20
977.5385, 68998.26
978.0206, 69080.73
978.5027, 69159.83
978.9848, 69224.76
979.4669, 69266.97
979.9490, 69291.63
980.4311, 69303.52
980.9132, 69293.53
981.3953, 69293.90
981.8774, 69302.25
982.3596, 69328.33
982.8417, 69402.64
983.3238, 69499.14
983.8059, 69521.86
984.2880, 69473.95
984.7701, 69450.11
985.2523, 69530.50
985.7344, 69623.09
986.2165, 69674.86
986.6986, 69695.63
987.1807, 69730.69
987.6628, 69782.70
988.1450, 69829.86
988.6271, 69865.46
989.1092, 69894.00
989.5913, 69911.51
990.0734, 69929.95
990.5555, 69975.54
991.0377, 70083.70
991.5198, 70160.43
992.0019, 70158.88
992.4840, 70142.19
992.9661, 70154.95
993.4482, 70198.12
993.9304, 70254.58
994.4125, 70325.11
994.8946, 70386.23
995.3767, 70407.67
995.8588, 70423.30
996.3409, 70465.85
996.8231, 70532.16
997.3052, 70598.39
997.7873, 70660.51
998.2694, 70720.31
998.7515, 70772.94
999.2336, 70828.71
999.7158, 70914.74
1000.198, 71022.10
1000.680, 71121.05
1001.162, 71207.34
1001.644, 71267.67
1002.126, 71266.18
1002.608, 71251.38
1003.091, 71269.73
1003.573, 71330.16
1004.055, 71379.03
1004.537, 71416.33
1005.019, 71446.19
1005.501, 71470.64
1005.983, 71490.98
1006.465, 71502.80
1006.948, 71512.06
1007.430, 71539.97
1007.912, 71627.88
1008.394, 71694.37
1008.876, 71704.55
1009.358, 71692.80
1009.840, 71724.00
1010.322, 71796.64
1010.804, 71857.89
1011.287, 71898.39
1011.769, 71931.52
1012.251, 71954.30
1012.733, 71985.78
1013.215, 72052.93
1013.697, 72168.66
1014.179, 72252.45
1014.661, 72289.98
1015.143, 72321.32
1015.626, 72366.80
1016.108, 72419.65
1016.590, 72459.61
1017.072, 72488.59
1017.554, 72514.52
1018.036, 72523.15
1018.518, 72550.20
1019.000, 72624.38
1019.483, 72718.84
1019.965, 72795.15
1020.447, 72847.80
1020.929, 72916.73
1021.411, 73008.66
1021.893, 73089.64
1022.375, 73113.98
1022.857, 73115.41
1023.339, 73143.23
1023.822, 73199.38
1024.304, 73228.77
1024.786, 73174.70
1025.268, 73156.58
1025.750, 73223.09
1026.232, 73339.84
1026.714, 73411.86
1027.196, 73446.67
1027.679, 73477.54
1028.161, 73509.48
1028.643, 73554.89
1029.125, 73638.67
1029.607, 73730.27
1030.089, 73792.30
1030.571, 73809.05
1031.053, 73852.98
1031.536, 73927.37
1032.018, 74009.78
1032.500, 74096.53
1032.982, 74172.67
1033.464, 74188.21
1033.946, 74164.23
1034.428, 74191.42
1034.910, 74389.21
1035.392, 74529.25
1035.875, 74540.70
1036.357, 74493.57
1036.839, 74509.59
1037.321, 74582.05
1037.803, 74647.23
1038.285, 74696.55
1038.767, 74728.92
1039.249, 74719.78
1039.731, 74710.86
1040.214, 74741.13
1040.696, 74814.86
1041.178, 74887.70
1041.660, 74965.39
1042.142, 75013.77
1042.624, 74997.15
1043.106, 74965.89
1043.588, 75033.39
1044.071, 75156.06
1044.553, 75234.34
1045.035, 75184.04
1045.517, 75165.20
1045.999, 75235.64
1046.481, 75320.32
1046.963, 75334.79
1047.445, 75286.99
1047.927, 75315.27
1048.410, 75422.27
1048.892, 75527.28
1049.374, 75562.70
1049.856, 75584.20
1050.338, 75646.62
1050.820, 75731.55
1051.302, 75742.94
1051.784, 75639.98
1052.266, 75609.92
1052.749, 75705.88
1053.231, 75843.59
1053.713, 75921.80
1054.195, 75955.18
1054.677, 75960.23
1055.159, 75930.96
1055.641, 75927.86
1056.123, 75972.86
1056.606, 76044.02
1057.088, 76144.45
1057.570, 76263.35
1058.052, 76338.95
1058.534, 76374.44
1059.016, 76391.62
1059.498, 76388.93
1059.980, 76386.27
1060.463, 76381.83
1060.945, 76392.13
1061.427, 76441.30
1061.909, 76538.34
1062.391, 76640.90
1062.873, 76748.05
1063.355, 76852.91
1063.837, 76963.17
1064.319, 77058.70
1064.802, 77102.59
1065.284, 77100.42
1065.766, 77095.61
1066.248, 77082.68
1066.730, 77094.43
1067.212, 77147.88
1067.694, 77215.23
1068.176, 77230.23
1068.658, 77213.55
1069.141, 77248.59
1069.623, 77358.42
1070.105, 77467.50
1070.587, 77535.72
1071.069, 77585.73
1071.551, 77638.66
1072.033, 77660.84
1072.515, 77704.58
1072.998, 77673.42
1073.480, 77642.71
1073.962, 77613.41
1074.444, 77619.52
1074.926, 77731.05
1075.408, 77891.09
1075.890, 78008.67
1076.372, 78036.52
1076.854, 78083.41
1077.337, 78160.45
1077.819, 78226.42
1078.301, 78233.20
1078.783, 78207.84
1079.265, 78208.95
1079.747, 78236.70
1080.229, 78282.11
1080.711, 78368.66
1081.193, 78436.08
1081.676, 78454.59
1082.158, 78458.92
1082.640, 78511.11
1083.122, 78605.45
1083.604, 78693.02
1084.086, 78767.03
1084.568, 78827.55
1085.050, 78873.24
1085.532, 78906.53
1086.015, 78935.07
1086.497, 78956.23
1086.979, 78923.95
1087.461, 78822.86
1087.943, 78784.50
1088.425, 78873.57
1088.907, 79000.06
1089.389, 79053.99
1089.872, 79067.27
1090.354, 79081.45
1090.836, 79095.33
1091.318, 79147.92
1091.800, 79261.88
1092.282, 79367.54
1092.764, 79416.70
1093.246, 79425.36
1093.729, 79429.66
1094.211, 79434.62
1094.693, 79460.70
1095.175, 79546.23
1095.657, 79613.48
1096.139, 79618.62
1096.621, 79614.23
1097.103, 79664.14
1097.585, 79765.69
1098.068, 79846.45
1098.550, 79902.95
1099.032, 79952.51
1099.514, 79999.42
1099.996, 80052.68
1100.478, 80134.17
1100.960, 80168.62
1101.442, 80275.52
1101.924, 80262.17
1102.407, 80272.84
1102.889, 80325.80
1103.371, 80394.88
1103.853, 80446.20
1104.335, 80498.80
1104.817, 80578.83
1105.299, 80691.88
1105.781, 80805.11
1106.264, 80932.30
1106.746, 81014.55
1107.228, 81015.85
1107.710, 80976.54
1108.192, 80969.12
1108.674, 80988.46
1109.156, 81026.10
1109.638, 81090.77
1110.120, 81144.13
1110.603, 81158.31
1111.085, 81181.89
1111.567, 81263.73
1112.049, 81386.89
1112.531, 81414.45
1113.013, 81361.64
1113.495, 81325.37
1113.977, 81371.58
1114.459, 81430.20
1114.942, 81478.45
1115.424, 81515.20
1115.906, 81534.33
1116.388, 81533.15
1116.870, 81554.59
1117.352, 81602.13
1117.834, 81645.87
1118.316, 81639.30
1118.799, 81639.08
1119.281, 81707.91
1119.763, 81827.48
1120.245, 81910.52
1120.727, 81944.50
1121.209, 81968.67
1121.691, 81981.52
1122.173, 82012.61
1122.656, 82141.61
1123.138, 82285.34
1123.620, 82306.89
1124.102, 82185.87
1124.584, 82139.33
1125.066, 82234.95
1125.548, 82309.28
1126.030, 82290.30
1126.512, 82252.80
1126.995, 82387.06
1127.477, 82615.63
1127.959, 82744.75
1128.441, 82696.62
1128.923, 82672.80
1129.405, 82756.40
1129.887, 82857.19
1130.369, 82937.25
1130.851, 82996.51
1131.334, 83030.66
1131.816, 83043.94
1132.298, 83059.27
1132.780, 83078.02
1133.262, 83111.56
1133.744, 83161.11
1134.226, 83230.17
1134.708, 83334.48
1135.191, 83478.67
1135.673, 83545.84
1136.155, 83538.52
1136.637, 83527.61
1137.119, 83570.54
1137.601, 83615.85
1138.083, 83622.70
1138.565, 83609.48
1139.047, 83618.80
1139.530, 83662.23
1140.012, 83666.28
1140.494, 83619.74
1140.976, 83590.77
1141.458, 83656.56
1141.940, 83758.29
1142.422, 83847.70
1142.904, 83918.88
1143.386, 83958.49
1143.869, 83948.61
1144.351, 83961.80
1144.833, 84012.66
1145.315, 84081.38
1145.797, 84152.40
1146.279, 84219.61
1146.761, 84274.68
1147.243, 84316.55
1147.726, 84345.70
1148.208, 84341.10
1148.690, 84371.94
1149.172, 84473.34
1149.654, 84600.22
1150.136, 84660.84
1150.618, 84681.51
1151.100, 84717.92
1151.583, 84787.08
1152.065, 84845.57
1152.547, 84866.40
1153.029, 84896.24
1153.511, 84964.70
1153.993, 85052.41
1154.475, 85094.09
1154.957, 85101.52
1155.439, 85114.56
1155.922, 85155.53
1156.404, 85189.63
1156.886, 85200.48
1157.368, 85206.16
1157.850, 85214.80
1158.332, 85228.48
1158.814, 85267.30
1159.296, 85327.68
1159.778, 85384.12
1160.261, 85408.91
1160.743, 85442.83
1161.225, 85521.03
1161.707, 85604.25
1162.189, 85643.09
1162.671, 85634.83
1163.153, 85663.34
1163.635, 85729.09
1164.118, 85802.52
1164.600, 85875.39
1165.082, 85936.63
1165.564, 85972.12
1166.046, 85993.46
1166.528, 86026.22
1167.010, 86075.20
1167.492, 86085.81
1167.974, 86050.46
1168.457, 86031.52
1168.939, 86111.35
1169.421, 86201.70
1169.903, 86214.51
1170.385, 86174.33
1170.867, 86205.52
1171.349, 86325.70
1171.831, 86406.11
1172.313, 86418.75
1172.796, 86418.86
1173.278, 86461.44
1173.760, 86519.52
1174.242, 86567.95
1174.724, 86604.99
1175.206, 86645.88
1175.688, 86690.84
1176.170, 86740.16
1176.653, 86794.48
1177.135, 86851.29
1177.617, 86918.74
1178.099, 86979.38
1178.581, 87004.84
1179.063, 86986.13
1179.545, 86972.51
1180.027, 86947.27
1180.510, 86992.91
1180.992, 87167.66
1181.474, 87371.89
1181.956, 87463.23
1182.438, 87482.00
1182.920, 87486.25
1183.402, 87479.86
1183.884, 87489.34
1184.366, 87517.42
1184.849, 87560.48
1185.331, 87634.70
1185.813, 87705.13
1186.295, 87678.17
1186.777, 87607.17
1187.259, 87595.52
1187.741, 87714.88
1188.223, 87791.58
1188.705, 87807.29
1189.188, 87802.70
1189.670, 87782.47
1190.152, 87772.88
1190.634, 87839.70
1191.116, 87961.55
1191.598, 88087.83
1192.080, 88231.45
1192.562, 88324.59
1193.045, 88346.83
1193.527, 88356.12
1194.009, 88402.02
1194.491, 88468.41
1194.973, 88519.03
1195.455, 88556.47
1195.937, 88591.50
1196.419, 88618.76
1196.901, 88659.67
1197.384, 88726.92
1197.866, 88787.17
1198.348, 88797.11
1198.830, 88780.31
1199.312, 88791.55
1199.794, 88830.83
1200.276, 88885.30
1200.758, 88992.85
1201.240, 89052.19
1201.723, 89041.96
1202.205, 88995.99
1202.687, 88929.49
1203.169, 88867.20
1203.651, 88882.92
1204.133, 88973.16
1204.615, 89060.04
1205.097, 89095.60
1205.580, 89156.28
1206.062, 89272.52
1206.544, 89391.73
1207.026, 89425.47
1207.508, 89403.29
1207.990, 89390.62
1208.472, 89394.22
1208.954, 89419.47
1209.437, 89483.92
1209.919, 89548.97
1210.401, 89605.84
1210.883, 89659.32
1211.365, 89728.15
1211.847, 89798.88
1212.329, 89826.50
1212.811, 89803.50
1213.293, 89830.51
1213.776, 90004.87
1214.258, 90149.27
1214.740, 90212.17
1215.222, 90228.58
1215.704, 90252.64
1216.186, 90287.13
1216.668, 90346.37
1217.150, 90436.77
1217.632, 90500.24
1218.115, 90496.27
1218.597, 90500.27
1219.079, 90539.73
1219.561, 90596.08
1220.043, 90628.80
1220.525, 90650.90
1221.007, 90698.49
1221.489, 90787.73
1221.972, 90844.84
1222.454, 90830.62
1222.936, 90825.75
1223.418, 90864.31
1223.900, 90926.89
1224.382, 90983.60
1224.864, 91029.70
1225.346, 91053.25
1225.828, 91046.98
1226.311, 91036.49
1226.793, 91013.41
1227.275, 91017.85
1227.757, 91088.91
1228.239, 91174.60
1228.721, 91140.10
1229.203, 91044.04
1229.685, 91005.77
1230.167, 91067.95
1230.650, 91154.77
1231.132, 91272.61
1231.614, 91379.58
1232.096, 91460.58
1232.578, 91510.20
1233.060, 91491.21
1233.542, 91439.23
1234.024, 91423.37
1234.507, 91473.41
1234.989, 91526.10
1235.471, 91578.23
1235.953, 91629.51
1236.435, 91670.13
1236.917, 91719.45
1237.399, 91851.61
1237.881, 92004.55
1238.364, 92053.88
1238.846, 91883.88
1239.328, 91847.77
1239.810, 91977.55
1240.292, 92117.95
1240.774, 92165.47
1241.256, 92179.36
1241.738, 92237.72
1242.220, 92324.11
1242.703, 92412.45
1243.185, 92507.39
1243.667, 92564.52
1244.149, 92573.46
1244.631, 92597.45
1245.113, 92699.17
1245.595, 92812.58
1246.077, 92857.92
1246.559, 92862.75
1247.042, 92874.73
1247.524, 92894.61
1248.006, 92931.79
1248.488, 92987.95
1248.970, 93043.73
1249.452, 93112.64
1249.934, 93153.34
1250.416, 93092.82
1250.899, 93000.59
1251.381, 92997.33
1251.863, 93117.84
1252.345, 93133.13
1252.827, 93043.02
1253.309, 92964.14
1253.791, 92980.43
1254.273, 93026.86
1254.755, 93063.30
1255.238, 93100.14
1255.720, 93154.60
1256.202, 93226.33
1256.684, 93263.27
1257.166, 93267.17
1257.648, 93307.52
1258.130, 93472.33
1258.612, 93631.39
1259.094, 93721.13
1259.577, 93766.21
1260.059, 93773.19
1260.541, 93749.54
1261.023, 93796.40
1261.505, 93906.59
1261.987, 93997.11
1262.469, 93985.91
1262.951, 93997.29
1263.434, 94087.55
1263.916, 94197.95
1264.398, 94279.04
1264.880, 94329.70
1265.362, 94325.30
1265.844, 94280.52
1266.326, 94278.63
1266.808, 94402.54
1267.291, 94504.05
1267.773, 94551.05
1268.255, 94580.94
1268.737, 94632.77
1269.219, 94696.63
1269.701, 94755.61
1270.183, 94806.14
1270.665, 94835.67
1271.147, 94827.49
1271.630, 94819.62
1272.112, 94814.38
1272.594, 94814.19
1273.076, 94819.94
1273.558, 94833.08
1274.040, 94852.13
1274.522, 94880.18
1275.004, 94931.65
1275.486, 95033.39
1275.969, 95081.66
1276.451, 95058.88
1276.933, 95043.36
1277.415, 95121.90
1277.897, 95224.95
1278.379, 95271.23
1278.861, 95342.82
1279.343, 95397.96
1279.825, 95430.38
1280.308, 95481.61
1280.790, 95477.80
1281.272, 95494.36
1281.754, 95627.24
1282.236, 95758.28
1282.718, 95782.59
1283.200, 95757.81
1283.682, 95781.73
1284.165, 95855.80
1284.647, 95929.38
1285.129, 95999.95
1285.611, 96062.92
1286.093, 96119.09
1286.575, 96163.72
1287.057, 96191.92
1287.539, 96210.66
1288.021, 96227.95
1288.504, 96242.33
1288.986, 96235.14
1289.468, 96212.56
1289.950, 96210.63
1290.432, 96263.13
1290.914, 96319.46
1291.396, 96381.86
1291.878, 96425.32
1292.360, 96393.25
1292.843, 96336.73
1293.325, 96405.80
1293.807, 96566.51
1294.289, 96691.21
1294.771, 96699.91
1295.253, 96735.34
1295.735, 96813.32
1296.217, 96883.15
1296.700, 96873.28
1297.182, 96848.88
1297.664, 96911.36
1298.146, 97023.05
1298.628, 97104.21
1299.110, 97161.53
1299.592, 97191.73
1300.074, 97189.98
1300.557, 97187.73
1301.039, 97230.26
1301.521, 97256.73
1302.003, 97207.21
1302.485, 97118.87
1302.967, 97075.16
1303.449, 97132.36
##END=



