##NAMES=Chloritoid
##RRUFFID=R050334
##IDEAL CHEMISTRY=Fe^2+^Al_2_OSiO_4_(OH)_2_
##LOCALITY=Selçuk, Mugla Province, Turkey
##OWNER=RRUFF
##SOURCE=George Rossman
##DESCRIPTION=Dark greenish-black foliated cleavage fragments
##STATUS=The identification of this mineral is confirmed by single-crystal X-ray diffraction and chemical analysis.
##URL=rruff.info/R050334
##MEASURED CHEMISTRY=(Fe^2+^_1.84_Mg_0.12_Mn_0.04_)_Σ=2_(Al_3.95_Fe^3+^_0.05_)_Σ=4_Si_2.00_O_10_(OH)_4_ ; H not measured but estimated by difference and stoichiometry
92.52344, 174.5202
93.00555, 174.2343
93.48767, 174.4757
93.96979, 178.7093
94.45190, 182.4011
94.93402, 184.5823
95.41614, 183.6178
95.89825, 180.9998
96.38037, 178.5183
96.86249, 176.0562
97.34460, 173.3331
97.82672, 170.4678
98.30884, 167.6184
98.79095, 164.8018
99.27307, 161.8166
99.75519, 158.6062
100.2373, 155.6477
100.7194, 153.0259
101.2015, 150.5107
101.6837, 147.9366
102.1658, 145.4874
102.6479, 143.1226
103.1300, 140.7646
103.6121, 138.9884
104.0942, 138.6099
104.5764, 139.0565
105.0585, 139.5894
105.5406, 140.2862
106.0227, 140.9022
106.5048, 140.6533
106.9869, 139.2573
107.4691, 137.1998
107.9512, 134.3902
108.4333, 131.1315
108.9154, 128.1480
109.3975, 126.0324
109.8796, 124.8483
110.3618, 124.0831
110.8439, 124.0007
111.3260, 124.0944
111.8081, 124.1702
112.2902, 124.1956
112.7723, 124.2506
113.2544, 124.4639
113.7366, 125.0372
114.2187, 125.3828
114.7008, 125.6808
115.1829, 125.6943
115.6650, 125.0849
116.1471, 123.7235
116.6293, 121.9699
117.1114, 120.7087
117.5935, 120.3723
118.0756, 119.6658
118.5577, 118.0171
119.0398, 115.7474
119.5220, 113.5363
120.0041, 111.5411
120.4862, 109.9939
120.9683, 109.1956
121.4504, 109.3119
121.9325, 109.8584
122.4147, 110.7127
122.8968, 111.9364
123.3789, 112.7106
123.8610, 112.3080
124.3431, 111.3182
124.8252, 110.1494
125.3074, 108.7742
125.7895, 107.4727
126.2716, 106.9314
126.7537, 107.7018
127.2358, 108.2728
127.7179, 108.0571
128.2001, 107.4147
128.6822, 106.8514
129.1643, 106.7383
129.6464, 107.0030
130.1285, 106.7171
130.6107, 105.0301
131.0928, 103.5689
131.5749, 102.9024
132.0570, 102.8116
132.5391, 102.7097
133.0212, 102.0528
133.5034, 100.6987
133.9855, 99.77220
134.4676, 99.35997
134.9497, 99.20193
135.4318, 99.23193
135.9139, 99.41306
136.3960, 99.63692
136.8782, 99.76508
137.3603, 99.76077
137.8424, 99.89249
138.3245, 100.4965
138.8066, 101.1210
139.2887, 101.1889
139.7709, 100.5249
140.2530, 99.49536
140.7351, 98.31883
141.2172, 97.00176
141.6993, 96.16109
142.1814, 96.36803
142.6636, 97.34573
143.1457, 98.07797
143.6278, 98.30529
144.1099, 98.24289
144.5920, 97.98683
145.0741, 97.55624
145.5563, 97.28442
146.0384, 97.61376
146.5205, 98.65161
147.0026, 99.36695
147.4847, 99.13184
147.9668, 98.80844
148.4490, 98.89698
148.9311, 99.49116
149.4132, 100.2980
149.8953, 100.9105
150.3774, 101.3721
150.8595, 101.5034
151.3417, 101.2473
151.8238, 100.7567
152.3059, 100.1054
152.7880, 99.33363
153.2701, 98.48784
153.7522, 97.69666
154.2344, 96.99995
154.7165, 96.32560
155.1986, 95.59917
155.6807, 94.91014
156.1628, 94.34972
156.6449, 93.95882
157.1271, 93.75198
157.6092, 93.82431
158.0913, 94.33469
158.5734, 94.88360
159.0555, 95.49657
159.5376, 96.08463
160.0198, 96.38197
160.5019, 96.15920
160.9840, 95.56821
161.4661, 95.22185
161.9482, 95.22070
162.4303, 95.34075
162.9125, 95.51168
163.3946, 95.72706
163.8767, 95.79838
164.3588, 95.37073
164.8409, 94.80434
165.3230, 94.75820
165.8052, 95.74166
166.2873, 96.92461
166.7694, 97.01721
167.2515, 95.62336
167.7336, 94.50290
168.2157, 94.74313
168.6979, 95.67104
169.1800, 96.56170
169.6621, 97.11534
170.1442, 97.43127
170.6263, 97.82646
171.1084, 98.52969
171.5906, 98.91375
172.0727, 98.51902
172.5548, 97.78212
173.0369, 97.35616
173.5190, 97.72200
174.0011, 98.73624
174.4833, 99.18690
174.9654, 98.59882
175.4475, 97.85068
175.9296, 96.81977
176.4117, 95.76894
176.8938, 95.14073
177.3760, 95.32276
177.8581, 96.34547
178.3402, 96.98758
178.8223, 96.86106
179.3044, 96.77848
179.7865, 97.19160
180.2687, 97.94107
180.7508, 98.47823
181.2329, 98.27637
181.7150, 97.23702
182.1971, 96.71540
182.6792, 96.94065
183.1614, 97.40439
183.6435, 97.88724
184.1256, 98.35363
184.6077, 98.80317
185.0898, 99.27415
185.5719, 99.75368
186.0541, 99.97155
186.5362, 99.67006
187.0183, 99.24732
187.5004, 99.08619
187.9825, 99.23476
188.4646, 99.46281
188.9468, 99.50127
189.4289, 99.42297
189.9110, 99.55917
190.3931, 100.1344
190.8752, 100.9230
191.3573, 101.6021
191.8395, 102.1545
192.3216, 102.5774
192.8037, 102.7998
193.2858, 102.8920
193.7679, 103.0101
194.2500, 103.2855
194.7322, 103.6470
195.2143, 103.8207
195.6964, 103.5812
196.1785, 103.5139
196.6606, 104.1096
197.1427, 105.1015
197.6249, 105.8897
198.1070, 105.9558
198.5891, 105.3946
199.0712, 105.1969
199.5533, 105.8107
200.0354, 106.3031
200.5176, 106.2170
200.9997, 105.7238
201.4818, 105.2319
201.9639, 105.0734
202.4460, 105.2568
202.9281, 105.3922
203.4103, 105.1552
203.8924, 105.1736
204.3745, 105.9916
204.8566, 107.2900
205.3387, 108.2427
205.8208, 108.0368
206.3030, 106.4758
206.7851, 105.6014
207.2672, 105.9384
207.7493, 106.3867
208.2314, 106.5453
208.7135, 106.4245
209.1957, 106.2277
209.6778, 106.1279
210.1599, 106.1293
210.6420, 106.2208
211.1241, 106.2563
211.6062, 106.4804
212.0884, 107.1239
212.5705, 108.1242
213.0526, 109.2150
213.5347, 110.2584
214.0168, 111.2702
214.4989, 111.4234
214.9811, 109.9512
215.4632, 108.2948
215.9453, 107.3965
216.4274, 107.2996
216.9095, 107.4989
217.3916, 107.6471
217.8737, 107.7227
218.3559, 107.5833
218.8380, 106.8644
219.3201, 106.1625
219.8022, 106.1766
220.2843, 106.9576
220.7664, 107.5958
221.2486, 107.1775
221.7307, 105.9541
222.2128, 105.0501
222.6949, 104.8296
223.1770, 104.8929
223.6591, 104.8160
224.1413, 104.5757
224.6234, 104.2691
225.1055, 103.8823
225.5876, 103.4826
226.0697, 103.2220
226.5518, 103.4210
227.0340, 103.6361
227.5161, 102.9772
227.9982, 101.0796
228.4803, 99.58523
228.9624, 100.1486
229.4445, 101.5451
229.9267, 102.0895
230.4088, 100.7032
230.8909, 98.51451
231.3730, 97.82175
231.8551, 99.21612
232.3372, 100.6329
232.8194, 101.4034
233.3015, 101.6624
233.7836, 101.4269
234.2657, 100.5404
234.7478, 99.42398
235.2299, 99.11730
235.7121, 100.1100
236.1942, 100.9411
236.6763, 101.0269
237.1584, 100.8163
237.6405, 100.8066
238.1227, 101.2360
238.6048, 101.8921
239.0869, 102.1736
239.5690, 101.6284
240.0511, 101.5281
240.5332, 102.4173
241.0154, 103.6587
241.4975, 104.7020
241.9796, 105.3185
242.4617, 105.4901
242.9438, 105.0543
243.4259, 103.0346
243.9081, 102.0010
244.3902, 102.7237
244.8723, 104.2113
245.3544, 105.5961
245.8365, 106.5374
246.3186, 107.1662
246.8008, 107.7801
247.2829, 108.2908
247.7650, 108.9229
248.2471, 110.0422
248.7292, 111.1011
249.2113, 111.5152
249.6935, 111.1049
250.1756, 110.2417
250.6577, 109.6511
251.1398, 109.6321
251.6219, 109.4696
252.1040, 109.0605
252.5862, 108.5709
253.0683, 108.1513
253.5504, 107.8457
254.0325, 107.5856
254.5146, 107.2521
254.9967, 106.7240
255.4789, 106.3674
255.9610, 106.2373
256.4431, 106.2454
256.9252, 106.4320
257.4073, 106.7785
257.8894, 106.9891
258.3716, 106.5838
258.8537, 105.0387
259.3358, 104.3603
259.8179, 105.2743
260.3000, 106.6173
260.7821, 107.4116
261.2643, 107.4854
261.7464, 107.2197
262.2285, 106.9932
262.7106, 106.8070
263.1927, 106.6888
263.6748, 106.2580
264.1570, 106.1378
264.6391, 107.1397
265.1212, 109.2768
265.6033, 111.4440
266.0854, 112.5699
266.5675, 112.5721
267.0497, 112.6716
267.5318, 112.8718
268.0139, 113.1909
268.4960, 113.6509
268.9781, 114.2507
269.4602, 114.9641
269.9424, 115.7821
270.4245, 116.7116
270.9066, 117.7120
271.3887, 118.8683
271.8708, 120.0350
272.3529, 121.0459
272.8351, 121.9212
273.3172, 122.9033
273.7993, 124.2374
274.2814, 125.7686
274.7635, 127.0246
275.2456, 127.9956
275.7278, 128.6848
276.2099, 128.7363
276.6920, 128.2873
277.1741, 128.5127
277.6562, 130.1756
278.1383, 132.7806
278.6205, 135.2160
279.1026, 137.6972
279.5847, 139.5974
280.0668, 140.0365
280.5489, 139.3094
281.0310, 139.2677
281.5132, 141.0419
281.9953, 143.3036
282.4774, 144.2278
282.9595, 143.7081
283.4416, 142.5602
283.9237, 141.0197
284.4059, 139.1876
284.8880, 137.4641
285.3701, 135.9435
285.8522, 134.5860
286.3343, 133.3521
286.8164, 132.2361
287.2986, 131.1534
287.7807, 130.0428
288.2628, 128.9262
288.7449, 127.8703
289.2270, 126.8457
289.7091, 125.9577
290.1913, 125.2867
290.6734, 124.8047
291.1555, 124.4191
291.6376, 124.1456
292.1197, 123.9362
292.6018, 123.6336
293.0840, 123.1450
293.5661, 122.7782
294.0482, 123.0520
294.5303, 123.5706
295.0124, 123.5501
295.4945, 122.3779
295.9767, 120.6537
296.4588, 119.4127
296.9409, 118.6981
297.4230, 118.3243
297.9051, 118.4849
298.3872, 118.8404
298.8694, 119.0055
299.3515, 118.8736
299.8336, 118.5055
300.3157, 117.9943
300.7978, 117.3515
301.2799, 116.4650
301.7621, 114.9241
302.2442, 113.3030
302.7263, 112.1685
303.2084, 111.6768
303.6905, 111.3369
304.1726, 110.6993
304.6548, 109.7612
305.1369, 108.5875
305.6190, 106.9719
306.1011, 105.2874
306.5832, 103.8542
307.0653, 102.6858
307.5475, 101.5338
308.0296, 100.0981
308.5117, 98.42628
308.9938, 97.07656
309.4759, 96.24674
309.9580, 95.63717
310.4402, 95.08555
310.9223, 94.57405
311.4044, 94.05083
311.8865, 93.50719
312.3686, 92.93337
312.8507, 92.20847
313.3329, 91.06614
313.8150, 90.25684
314.2971, 90.51863
314.7792, 91.32065
315.2613, 91.63327
315.7434, 90.66405
316.2256, 89.13055
316.7077, 88.78445
317.1898, 90.20007
317.6719, 91.18736
318.1540, 90.33118
318.6361, 88.71830
319.1183, 87.45450
319.6004, 86.86430
320.0825, 86.71416
320.5646, 86.71086
321.0467, 86.84789
321.5288, 87.17715
322.0110, 87.89481
322.4931, 88.71082
322.9752, 89.43961
323.4573, 90.05207
323.9394, 90.51379
324.4215, 90.69200
324.9037, 90.59452
325.3858, 90.68652
325.8679, 91.14543
326.3500, 91.73194
326.8321, 92.39119
327.3142, 93.07149
327.7964, 93.50754
328.2785, 93.24320
328.7606, 92.50184
329.2427, 92.43192
329.7248, 93.40504
330.2069, 94.52812
330.6891, 95.49707
331.1712, 96.20737
331.6533, 96.37996
332.1354, 95.58333
332.6175, 94.32520
333.0996, 93.71019
333.5818, 93.94527
334.0639, 94.14566
334.5460, 93.71184
335.0281, 93.04726
335.5102, 92.64754
335.9923, 92.75394
336.4745, 92.88779
336.9566, 92.37763
337.4387, 91.17751
337.9208, 90.14570
338.4029, 89.58444
338.8850, 89.31741
339.3671, 89.22068
339.8492, 89.29745
340.3314, 89.36350
340.8135, 89.10976
341.2956, 88.64505
341.7777, 88.74258
342.2598, 89.87664
342.7419, 91.12278
343.2241, 91.66492
343.7062, 91.61205
344.1883, 91.46282
344.6704, 91.40569
345.1525, 91.42448
345.6346, 91.49268
346.1168, 91.61793
346.5989, 91.76233
347.0810, 91.88827
347.5631, 92.01447
348.0452, 92.20512
348.5273, 92.74438
349.0095, 93.11467
349.4916, 92.47855
349.9737, 90.80984
350.4558, 89.45734
350.9379, 89.15508
351.4200, 89.50893
351.9022, 89.83974
352.3843, 90.11923
352.8664, 90.37211
353.3485, 90.63165
353.8306, 90.88184
354.3127, 91.03423
354.7949, 91.00603
355.2770, 90.97126
355.7591, 91.28094
356.2412, 91.93831
356.7233, 92.24625
357.2054, 91.48713
357.6876, 90.37130
358.1697, 90.14234
358.6518, 91.04968
359.1339, 92.18682
359.6160, 92.77685
360.0981, 92.91158
360.5803, 93.08362
361.0624, 93.42930
361.5445, 93.77300
362.0266, 93.99782
362.5087, 94.09984
362.9908, 94.04953
363.4730, 93.76823
363.9551, 93.35819
364.4372, 93.12080
364.9193, 93.04927
365.4014, 93.13692
365.8835, 93.58781
366.3657, 94.17629
366.8478, 94.43604
367.3299, 94.19767
367.8120, 93.63707
368.2941, 92.94317
368.7762, 92.02635
369.2584, 91.37348
369.7405, 91.39538
370.2226, 91.51366
370.7047, 91.03556
371.1868, 89.91393
371.6689, 88.82348
372.1511, 88.39396
372.6332, 88.66553
373.1153, 88.74699
373.5974, 88.51627
374.0795, 88.23813
374.5616, 88.07518
375.0438, 87.97068
375.5259, 87.71085
376.0080, 87.13984
376.4901, 86.42761
376.9722, 86.19492
377.4543, 86.99698
377.9365, 87.55367
378.4186, 87.47270
378.9007, 87.20089
379.3828, 87.28735
379.8649, 87.86581
380.3470, 88.58504
380.8292, 88.96531
381.3113, 88.94344
381.7934, 88.71883
382.2755, 87.77319
382.7576, 87.09487
383.2397, 87.45757
383.7219, 88.65661
384.2040, 89.89500
384.6861, 90.54196
385.1682, 90.63731
385.6503, 90.78168
386.1324, 91.01286
386.6146, 91.25526
387.0967, 91.45497
387.5788, 91.67162
388.0609, 92.03916
388.5430, 92.61067
389.0251, 93.20411
389.5073, 93.39101
389.9894, 92.76431
390.4715, 92.59960
390.9536, 93.29751
391.4357, 94.14954
391.9178, 94.63063
392.4000, 94.75064
392.8821, 94.95882
393.3642, 95.78249
393.8463, 97.25242
394.3284, 98.32128
394.8105, 98.70087
395.2927, 98.99255
395.7748, 99.41111
396.2569, 99.88316
396.7390, 100.2951
397.2211, 100.6114
397.7032, 100.7892
398.1854, 100.6399
398.6675, 99.95678
399.1496, 99.57719
399.6317, 100.0595
400.1138, 100.7382
400.5959, 101.0935
401.0781, 101.0405
401.5602, 100.9181
402.0423, 100.9770
402.5244, 101.2180
403.0065, 101.6801
403.4886, 102.4610
403.9708, 103.3360
404.4529, 104.2860
404.9350, 105.2152
405.4171, 105.8396
405.8992, 105.8825
406.3813, 105.6252
406.8635, 105.5065
407.3456, 105.5420
407.8277, 105.5639
408.3098, 105.4091
408.7919, 105.2347
409.2740, 105.2958
409.7562, 105.6457
410.2383, 106.1289
410.7204, 106.6769
411.2025, 107.2883
411.6846, 108.0608
412.1667, 109.1451
412.6489, 110.0423
413.1310, 109.9420
413.6131, 108.8809
414.0952, 108.0525
414.5773, 107.6324
415.0594, 107.5504
415.5416, 108.1236
416.0237, 109.1976
416.5058, 109.5228
416.9879, 107.9809
417.4700, 105.1040
417.9521, 103.8176
418.4343, 105.2595
418.9164, 106.6311
419.3985, 107.2396
419.8806, 107.2976
420.3627, 107.0386
420.8448, 106.5424
421.3270, 105.9390
421.8091, 105.4096
422.2912, 104.9516
422.7733, 104.6038
423.2554, 104.5502
423.7375, 104.4402
424.2197, 103.8851
424.7018, 103.0542
425.1839, 102.5480
425.6660, 102.8593
426.1481, 103.8092
426.6302, 104.1591
427.1124, 103.0645
427.5945, 102.3921
428.0766, 102.6107
428.5587, 103.2272
429.0408, 103.8033
429.5229, 104.1868
430.0051, 104.3973
430.4872, 104.4717
430.9693, 104.4311
431.4514, 104.1704
431.9335, 103.4027
432.4156, 102.6579
432.8978, 102.0174
433.3799, 101.5675
433.8620, 101.5185
434.3441, 102.2249
434.8262, 103.2445
435.3083, 103.1355
435.7905, 101.4088
436.2726, 99.91000
436.7547, 99.20312
437.2368, 99.07347
437.7189, 99.55186
438.2010, 100.6866
438.6832, 101.8116
439.1653, 102.2512
439.6474, 102.1452
440.1295, 102.3193
440.6116, 103.0804
441.0938, 103.7828
441.5759, 103.6958
442.0580, 103.0698
442.5401, 102.6622
443.0222, 102.6265
443.5043, 102.9422
443.9865, 103.8475
444.4686, 105.2408
444.9507, 106.2342
445.4328, 106.3280
445.9149, 105.8467
446.3970, 105.4756
446.8792, 105.1199
447.3613, 105.0875
447.8434, 105.7797
448.3255, 106.6947
448.8076, 107.0709
449.2897, 106.8219
449.7719, 106.7136
450.2540, 107.5820
450.7361, 109.5089
451.2182, 110.5824
451.7003, 110.4621
452.1824, 110.0085
452.6646, 109.1698
453.1467, 108.2869
453.6288, 107.9468
454.1109, 108.4074
454.5930, 109.3085
455.0751, 109.9685
455.5573, 110.4700
456.0394, 110.5237
456.5215, 109.7694
457.0036, 108.9501
457.4857, 108.2505
457.9678, 107.8515
458.4500, 108.1508
458.9321, 109.6651
459.4142, 112.0591
459.8963, 113.2946
460.3784, 112.6748
460.8605, 112.1067
461.3427, 112.1208
461.8248, 112.4088
462.3069, 112.7131
462.7890, 112.9689
463.2711, 113.1628
463.7532, 113.1816
464.2354, 113.0559
464.7175, 113.3010
465.1996, 114.3339
465.6817, 115.1621
466.1638, 114.6941
466.6459, 113.4739
467.1281, 112.9191
467.6102, 114.0476
468.0923, 115.5440
468.5744, 115.6982
469.0565, 114.6834
469.5386, 114.3519
470.0208, 115.7251
470.5029, 117.7767
470.9850, 118.5965
471.4671, 118.0150
471.9492, 117.5430
472.4313, 117.5212
472.9135, 117.8178
473.3956, 118.3355
473.8777, 119.0462
474.3598, 119.8795
474.8419, 120.7705
475.3240, 121.7350
475.8062, 122.9124
476.2883, 124.5372
476.7704, 126.0642
477.2525, 127.3312
477.7346, 128.4642
478.2167, 129.5401
478.6989, 130.6111
479.1810, 131.8000
479.6631, 133.2782
480.1452, 135.0488
480.6273, 137.0559
481.1094, 139.8457
481.5916, 142.2978
482.0737, 143.7708
482.5558, 144.6971
483.0379, 145.8922
483.5200, 147.7933
484.0021, 149.9493
484.4843, 151.3951
484.9664, 151.9051
485.4485, 152.7603
485.9306, 154.0911
486.4127, 155.9807
486.8948, 158.8254
487.3770, 162.4253
487.8591, 165.6956
488.3412, 167.7401
488.8233, 169.1207
489.3054, 170.9297
489.7875, 173.2010
490.2697, 175.5575
490.7518, 177.9160
491.2339, 180.1569
491.7160, 182.0102
492.1981, 183.1809
492.6802, 184.7975
493.1624, 187.9629
493.6445, 191.6224
494.1266, 194.1819
494.6087, 195.3861
495.0908, 195.8686
495.5729, 196.0990
496.0551, 196.0794
496.5372, 196.1306
497.0193, 196.0994
497.5014, 196.3005
497.9835, 197.4307
498.4656, 198.6435
498.9478, 198.5913
499.4299, 196.8845
499.9120, 194.5020
500.3941, 192.8513
500.8762, 192.0790
501.3583, 191.4167
501.8405, 191.1806
502.3226, 190.7331
502.8047, 189.7932
503.2868, 188.4805
503.7689, 187.0139
504.2510, 185.4653
504.7331, 183.9253
505.2152, 182.6260
505.6974, 181.6419
506.1795, 180.4299
506.6616, 178.9754
507.1437, 177.1432
507.6258, 174.6806
508.1079, 171.6948
508.5901, 168.8516
509.0722, 166.6435
509.5543, 164.6780
510.0364, 162.1831
510.5185, 159.1753
511.0006, 156.6795
511.4828, 155.3977
511.9649, 154.7324
512.4470, 153.4668
512.9291, 151.5973
513.4113, 149.3137
513.8934, 146.1746
514.3755, 142.9498
514.8576, 140.7063
515.3397, 139.3704
515.8218, 137.7514
516.3040, 134.8336
516.7861, 130.9043
517.2682, 128.0893
517.7503, 127.1638
518.2324, 126.4341
518.7145, 125.9146
519.1967, 125.4185
519.6788, 124.7765
520.1609, 123.9629
520.6430, 123.0497
521.1251, 122.0168
521.6072, 120.8775
522.0894, 120.3515
522.5715, 121.0585
523.0536, 121.3833
523.5357, 120.5354
524.0178, 119.1676
524.4999, 118.0109
524.9821, 117.2541
525.4642, 116.6478
525.9463, 115.9981
526.4284, 115.3115
526.9105, 114.5451
527.3926, 113.6197
527.8748, 112.8610
528.3569, 112.7670
528.8390, 113.0677
529.3211, 112.8144
529.8032, 111.5626
530.2853, 110.1407
530.7675, 108.8927
531.2496, 107.8140
531.7317, 106.9828
532.2138, 106.4228
532.6959, 105.8293
533.1780, 104.8165
533.6602, 103.3094
534.1423, 101.8235
534.6244, 100.2008
535.1065, 98.75388
535.5886, 97.62459
536.0707, 96.74360
536.5529, 96.07011
537.0350, 95.58231
537.5171, 95.08875
537.9992, 94.13954
538.4813, 92.49737
538.9634, 91.65144
539.4456, 92.34949
539.9277, 93.12349
540.4098, 93.33041
540.8919, 93.11637
541.3740, 92.77365
541.8561, 92.32316
542.3383, 91.98775
542.8204, 92.25195
543.3025, 93.01427
543.7846, 93.26524
544.2667, 92.67049
544.7488, 91.66216
545.2310, 90.39844
545.7131, 88.95340
546.1952, 88.31627
546.6773, 89.13261
547.1594, 90.34082
547.6415, 91.56763
548.1237, 92.62527
548.6058, 93.03677
549.0879, 92.58457
549.5700, 91.79800
550.0521, 91.58049
550.5342, 92.25243
551.0164, 92.51443
551.4985, 92.23490
551.9806, 91.74908
552.4627, 91.16574
552.9448, 90.48884
553.4269, 89.68824
553.9091, 88.74731
554.3912, 87.69911
554.8733, 86.58195
555.3554, 85.37653
555.8375, 84.18810
556.3196, 82.89839
556.8018, 81.79295
557.2839, 81.18824
557.7660, 80.89613
558.2481, 80.38589
558.7302, 79.34489
559.2123, 78.15958
559.6945, 77.08833
560.1766, 76.18046
560.6587, 75.75325
561.1408, 75.99871
561.6229, 76.43152
562.1050, 76.41460
562.5872, 75.84773
563.0693, 75.54919
563.5514, 75.86266
564.0335, 76.11023
564.5156, 75.73972
564.9977, 75.10081
565.4799, 74.88883
565.9620, 75.37471
566.4441, 76.17406
566.9262, 76.65469
567.4083, 76.68503
567.8904, 76.93176
568.3726, 77.68245
568.8547, 78.35630
569.3368, 78.45576
569.8189, 78.42313
570.3010, 79.08324
570.7831, 80.85055
571.2653, 82.83668
571.7474, 83.86932
572.2295, 84.09132
572.7116, 84.56510
573.1937, 85.20943
573.6758, 86.74720
574.1580, 90.13638
574.6401, 95.00684
575.1222, 99.92437
575.6043, 104.2812
576.0864, 109.1955
576.5685, 114.7929
577.0507, 121.3967
577.5328, 129.9744
578.0149, 140.6561
578.4970, 151.8826
578.9791, 162.1390
579.4612, 171.4463
579.9434, 179.2568
580.4255, 185.1357
580.9076, 189.9506
581.3897, 193.2697
581.8718, 195.9504
582.3539, 198.4491
582.8361, 201.0613
583.3182, 204.7385
583.8003, 210.9377
584.2824, 219.2962
584.7645, 226.8150
585.2466, 232.9739
585.7288, 239.8613
586.2108, 249.0908
586.6929, 259.4322
587.1750, 268.9650
587.6572, 277.4009
588.1393, 285.7193
588.6214, 294.0180
589.1035, 302.6355
589.5856, 311.9035
590.0677, 321.8912
590.5499, 332.7269
591.0320, 344.7049
591.5141, 357.3791
591.9962, 368.9504
592.4783, 379.7096
592.9604, 388.7079
593.4426, 398.4557
593.9247, 404.4405
594.4068, 403.9200
594.8889, 396.7677
595.3710, 383.7181
595.8531, 364.9188
596.3353, 341.3630
596.8174, 313.8622
597.2995, 281.4729
597.7816, 251.1469
598.2637, 223.8874
598.7458, 200.0031
599.2280, 179.1438
599.7101, 161.3455
600.1922, 146.5947
600.6743, 135.7057
601.1564, 127.1691
601.6385, 120.1170
602.1207, 114.3742
602.6028, 109.4785
603.0849, 105.3171
603.5670, 101.7359
604.0491, 98.55810
604.5313, 95.77879
605.0134, 93.46571
605.4955, 91.88109
605.9776, 90.38729
606.4597, 88.69120
606.9418, 87.00467
607.4240, 85.67004
607.9061, 84.77049
608.3882, 84.04450
608.8703, 83.33996
609.3524, 82.62644
609.8345, 81.32370
610.3167, 79.06454
610.7988, 77.12001
611.2809, 76.25355
611.7630, 76.02688
612.2451, 75.94984
612.7272, 76.07283
613.2094, 75.93613
613.6915, 74.98594
614.1736, 73.85152
614.6557, 73.43391
615.1378, 73.70046
615.6199, 73.93647
616.1021, 73.69633
616.5842, 73.16361
617.0663, 72.88590
617.5484, 73.35159
618.0305, 73.21713
618.5126, 71.98830
618.9948, 70.67544
619.4769, 69.63857
619.9590, 69.00325
620.4411, 69.03943
620.9232, 70.02553
621.4053, 71.17503
621.8875, 71.08253
622.3696, 69.77380
622.8517, 68.75327
623.3338, 68.31886
623.8159, 68.13162
624.2980, 67.99153
624.7802, 67.88205
625.2623, 67.74165
625.7444, 67.38888
626.2265, 67.23017
626.7086, 67.67672
627.1907, 68.33633
627.6729, 68.69062
628.1550, 68.63071
628.6371, 68.21225
629.1192, 67.39794
629.6013, 66.30012
630.0834, 65.90395
630.5656, 66.73771
631.0477, 67.40382
631.5298, 67.76017
632.0119, 67.85110
632.4940, 67.61330
632.9761, 67.11173
633.4583, 66.60441
633.9404, 66.21410
634.4225, 65.93156
634.9046, 65.83488
635.3867, 65.89529
635.8688, 65.72593
636.3510, 65.17453
636.8331, 64.41639
637.3152, 63.54981
637.7973, 62.53405
638.2794, 62.03515
638.7615, 62.26183
639.2437, 62.77950
639.7258, 63.82213
640.2079, 64.87679
640.6900, 65.10922
641.1721, 64.38343
641.6542, 63.45206
642.1364, 63.11543
642.6185, 63.32862
643.1006, 63.53427
643.5827, 63.74433
644.0648, 63.91905
644.5469, 64.16583
645.0291, 64.28943
645.5112, 64.01907
645.9933, 63.34365
646.4754, 62.74946
646.9575, 62.43013
647.4396, 62.31870
647.9218, 62.45449
648.4039, 62.75857
648.8860, 62.89345
649.3681, 62.70514
649.8502, 62.43718
650.3323, 62.46569
650.8145, 62.85861
651.2966, 63.24090
651.7787, 63.85390
652.2608, 64.17927
652.7429, 63.70539
653.2250, 63.01400
653.7072, 62.93622
654.1893, 63.65166
654.6714, 64.41526
655.1535, 64.49134
655.6356, 64.05571
656.1177, 63.72688
656.5999, 63.55149
657.0820, 63.19315
657.5641, 62.33586
658.0462, 61.35527
658.5283, 60.98528
659.0104, 61.28598
659.4926, 61.70294
659.9747, 62.38955
660.4568, 62.95384
660.9389, 63.07899
661.4210, 62.90223
661.9031, 62.73554
662.3853, 62.69900
662.8674, 62.64527
663.3495, 62.26105
663.8316, 61.49308
664.3137, 61.27576
664.7958, 61.88206
665.2780, 62.54284
665.7601, 62.91439
666.2422, 63.15907
666.7243, 63.51408
667.2064, 64.04331
667.6885, 64.32571
668.1707, 63.90881
668.6528, 63.31310
669.1349, 63.17536
669.6170, 63.43383
670.0991, 63.69061
670.5812, 63.76855
671.0634, 63.68338
671.5455, 63.43243
672.0276, 62.93350
672.5097, 62.58936
672.9918, 62.56850
673.4739, 62.52157
673.9561, 62.19932
674.4382, 61.85726
674.9203, 61.90491
675.4024, 62.44157
675.8845, 62.95525
676.3666, 63.05489
676.8488, 62.82903
677.3309, 62.36230
677.8130, 61.67014
678.2951, 61.11886
678.7772, 60.83894
679.2593, 60.88029
679.7415, 61.42394
680.2236, 62.85532
680.7057, 63.55399
681.1878, 62.78863
681.6699, 62.09393
682.1520, 62.41965
682.6342, 63.16912
683.1163, 63.29522
683.5984, 62.51848
684.0805, 61.64607
684.5626, 61.62719
685.0447, 62.29028
685.5269, 62.71949
686.0090, 62.89702
686.4911, 62.86952
686.9732, 62.50207
687.4553, 62.07898
687.9374, 62.13427
688.4196, 62.72824
688.9017, 63.14622
689.3838, 63.11382
689.8659, 63.04205
690.3480, 63.24667
690.8301, 63.56427
691.3123, 63.66171
691.7944, 63.44671
692.2765, 63.15807
692.7586, 63.03955
693.2407, 63.09186
693.7228, 63.39551
694.2050, 64.16518
694.6871, 64.60622
695.1692, 64.26875
695.6513, 63.58968
696.1334, 62.89815
696.6155, 62.20885
697.0977, 61.95849
697.5798, 62.56185
698.0619, 63.37772
698.5440, 64.16045
699.0261, 64.75451
699.5082, 64.79317
699.9904, 64.20261
700.4725, 63.38209
700.9546, 62.71955
701.4367, 62.22264
701.9188, 62.01147
702.4009, 62.15984
702.8831, 62.45141
703.3652, 62.92514
703.8473, 63.45648
704.3294, 64.00111
704.8115, 64.53562
705.2936, 64.96269
705.7758, 65.38908
706.2579, 65.55013
706.7400, 64.83195
707.2221, 63.74921
707.7042, 63.63707
708.1863, 64.75255
708.6685, 65.89201
709.1506, 65.88149
709.6327, 64.94411
710.1148, 64.82697
710.5969, 66.33303
711.0790, 67.18059
711.5612, 66.35407
712.0433, 65.44965
712.5254, 65.55667
713.0075, 66.45914
713.4896, 67.33037
713.9717, 67.94631
714.4539, 68.25236
714.9360, 67.87099
715.4181, 67.20512
715.9002, 67.32522
716.3823, 68.35731
716.8644, 69.33654
717.3466, 69.51428
717.8287, 69.16494
718.3108, 69.33784
718.7929, 70.50700
719.2750, 71.29556
719.7571, 71.54340
720.2393, 71.54626
720.7214, 71.16431
721.2035, 70.70532
721.6856, 70.77721
722.1677, 71.66123
722.6498, 72.65068
723.1320, 73.16983
723.6141, 73.36909
724.0962, 73.52016
724.5783, 73.65314
725.0604, 73.78024
725.5425, 73.91684
726.0247, 74.02136
726.5068, 73.97193
726.9889, 73.57310
727.4710, 73.62447
727.9531, 74.55214
728.4352, 75.43423
728.9174, 75.93091
729.3995, 76.22401
729.8816, 76.53429
730.3637, 76.91277
730.8458, 77.31852
731.3279, 77.89722
731.8101, 78.39828
732.2922, 78.20186
732.7743, 77.44972
733.2564, 77.14388
733.7385, 77.69345
734.2206, 78.52128
734.7028, 78.93465
735.1849, 78.92809
735.6670, 78.58089
736.1491, 77.19243
736.6312, 76.37594
737.1133, 77.05943
737.5955, 77.92229
738.0776, 77.62420
738.5597, 76.28577
739.0418, 75.21275
739.5239, 75.25237
740.0060, 75.64727
740.4882, 75.44932
740.9703, 74.87978
741.4524, 74.68370
741.9345, 75.01381
742.4166, 75.38358
742.8987, 75.40059
743.3809, 75.11235
743.8630, 74.76003
744.3451, 74.41213
744.8272, 73.86910
745.3093, 72.96793
745.7914, 72.03230
746.2736, 71.10397
746.7557, 70.29746
747.2378, 69.78606
747.7199, 69.62105
748.2020, 69.78905
748.6841, 70.79623
749.1663, 71.90928
749.6484, 71.52076
750.1305, 69.77339
750.6126, 68.50646
751.0947, 68.71492
751.5768, 69.56332
752.0590, 69.48283
752.5411, 68.14804
753.0232, 67.43932
753.5053, 67.86311
753.9874, 68.24603
754.4695, 68.18336
754.9517, 67.93402
755.4338, 67.71895
755.9159, 67.57489
756.3980, 67.58947
756.8801, 68.17144
757.3622, 68.61863
757.8444, 67.91100
758.3265, 66.57833
758.8086, 65.96387
759.2907, 66.39043
759.7728, 67.14166
760.2549, 67.57948
760.7371, 67.70103
761.2192, 67.35775
761.7013, 66.09798
762.1834, 65.62601
762.6655, 67.16958
763.1476, 68.60580
763.6298, 68.01223
764.1119, 66.21199
764.5940, 65.60416
765.0761, 67.33678
765.5582, 68.96202
766.0403, 69.23978
766.5225, 68.82906
767.0046, 68.35957
767.4867, 67.90578
767.9688, 67.29478
768.4509, 66.42275
768.9330, 65.67435
769.4152, 65.85806
769.8973, 67.02762
770.3794, 67.62696
770.8615, 67.39680
771.3436, 67.22135
771.8257, 67.51888
772.3079, 68.05663
772.7900, 68.54812
773.2721, 69.00875
773.7542, 69.23895
774.2363, 69.04869
774.7184, 68.79842
775.2006, 68.69272
775.6827, 68.62466
776.1648, 68.30031
776.6469, 67.77531
777.1290, 67.63026
777.6111, 68.50612
778.0933, 69.78787
778.5754, 69.92898
779.0575, 68.97877
779.5396, 68.33772
780.0217, 68.33458
780.5038, 68.42922
780.9860, 68.11637
781.4681, 67.57431
781.9502, 67.59383
782.4323, 68.56386
782.9144, 69.44141
783.3965, 70.58399
783.8787, 71.22353
784.3608, 70.45184
784.8429, 69.01131
785.3250, 68.27403
785.8071, 68.67510
786.2892, 69.27998
786.7714, 69.08396
787.2535, 69.80170
787.7356, 69.22328
788.2177, 70.67487
788.6998, 71.73284
789.1819, 71.92908
789.6641, 71.62025
790.1462, 71.13172
790.6283, 70.46728
791.1104, 70.53214
791.5925, 71.95239
792.0746, 73.04380
792.5568, 73.55131
793.0389, 73.62106
793.5210, 73.06530
794.0031, 72.13015
794.4852, 71.59371
794.9673, 71.82048
795.4495, 72.22144
795.9316, 72.55692
796.4137, 72.77878
796.8958, 72.67163
797.3779, 72.35828
797.8600, 72.38713
798.3422, 73.05260
798.8243, 73.94812
799.3064, 74.42538
799.7885, 74.47630
800.2706, 74.36394
800.7527, 74.05225
801.2349, 73.67038
801.7170, 73.10587
802.1991, 72.64259
802.6812, 72.80143
803.1633, 73.58415
803.6454, 74.10185
804.1276, 74.08906
804.6097, 74.02371
805.0918, 74.10927
805.5739, 74.20840
806.0560, 74.17610
806.5381, 74.00736
807.0203, 73.73918
807.5024, 73.33082
807.9845, 73.02734
808.4666, 73.27628
808.9487, 73.93221
809.4308, 74.45904
809.9130, 74.79530
810.3951, 74.90061
810.8772, 74.68596
811.3593, 74.38931
811.8414, 74.54984
812.3235, 75.43060
812.8057, 75.77541
813.2878, 75.15264
813.7699, 74.52188
814.2520, 73.97936
814.7341, 73.65391
815.2162, 73.74776
815.6984, 74.23573
816.1805, 74.74258
816.6626, 75.18469
817.1447, 75.52308
817.6268, 75.63406
818.1089, 75.66249
818.5911, 75.86938
819.0732, 76.25912
819.5553, 76.59702
820.0374, 76.71301
820.5195, 76.78397
821.0016, 77.19456
821.4838, 77.95293
821.9659, 78.82443
822.4480, 79.93186
822.9301, 80.64570
823.4122, 80.34522
823.8943, 79.72759
824.3765, 80.18011
824.8586, 82.06367
825.3407, 83.10322
825.8228, 82.23426
826.3049, 81.70831
826.7870, 82.67525
827.2692, 84.11364
827.7513, 84.87704
828.2334, 84.95930
828.7155, 85.16312
829.1976, 85.98303
829.6797, 86.99301
830.1619, 87.74244
830.6440, 88.30592
831.1261, 88.86079
831.6082, 89.42430
832.0903, 89.88396
832.5724, 90.16064
833.0546, 90.39183
833.5367, 90.88179
834.0188, 91.69875
834.5009, 92.29063
834.9830, 92.56467
835.4651, 92.79207
835.9473, 92.88804
836.4294, 93.12666
836.9115, 93.98833
837.3936, 95.41750
837.8757, 96.35181
838.3578, 96.25789
838.8400, 96.10783
839.3221, 96.32240
839.8042, 96.61372
840.2863, 96.72304
840.7684, 96.63168
841.2505, 96.38486
841.7327, 95.98323
842.2148, 95.58315
842.6969, 95.45403
843.1790, 95.46119
843.6611, 95.09157
844.1432, 94.36552
844.6254, 94.07212
845.1075, 94.61880
845.5896, 95.24709
846.0717, 94.87971
846.5538, 93.51254
847.0359, 92.56651
847.5181, 92.25514
848.0002, 91.95724
848.4823, 91.47177
848.9644, 91.03853
849.4465, 90.93599
849.9286, 91.01624
850.4108, 90.79066
850.8929, 89.92271
851.3750, 89.33543
851.8571, 89.74238
852.3392, 90.21450
852.8214, 89.79079
853.3035, 88.87988
853.7856, 88.39869
854.2677, 88.63102
854.7498, 89.16976
855.2319, 89.86472
855.7141, 90.46947
856.1962, 90.23596
856.6783, 89.30464
857.1604, 88.69097
857.6425, 88.65867
858.1246, 88.73357
858.6068, 88.43859
859.0889, 88.04391
859.5710, 88.70627
860.0531, 91.21178
860.5352, 92.66251
861.0173, 92.11091
861.4995, 91.60622
861.9816, 92.36147
862.4637, 93.53442
862.9458, 93.78053
863.4279, 92.90728
863.9100, 92.94388
864.3922, 95.32944
864.8743, 97.69376
865.3564, 98.64651
865.8385, 98.95840
866.3206, 99.56916
866.8027, 100.5356
867.2849, 101.3574
867.7670, 101.6941
868.2491, 101.9747
868.7312, 102.7885
869.2133, 103.9833
869.6954, 105.1467
870.1776, 106.2485
870.6597, 107.3682
871.1418, 108.5440
871.6239, 109.7407
872.1060, 110.9185
872.5881, 112.0757
873.0703, 113.2607
873.5524, 114.6408
874.0345, 115.5872
874.5166, 115.5174
874.9987, 115.4837
875.4808, 116.7204
875.9630, 118.6757
876.4451, 119.6564
876.9272, 119.1486
877.4093, 118.5610
877.8914, 118.0413
878.3735, 117.6545
878.8557, 117.5622
879.3378, 117.5723
879.8199, 117.4924
880.3020, 117.2368
880.7841, 116.5672
881.2662, 114.9495
881.7484, 113.1797
882.2305, 112.4275
882.7126, 112.2563
883.1947, 111.7337
883.6768, 110.6713
884.1589, 108.9699
884.6411, 106.4973
885.1232, 103.8193
885.6053, 102.2003
886.0874, 101.6758
886.5695, 100.7358
887.0516, 99.27119
887.5338, 97.72879
888.0159, 96.25209
888.4980, 94.82092
888.9801, 93.37183
889.4622, 91.90392
889.9443, 90.74201
890.4265, 90.24035
890.9086, 89.53262
891.3907, 88.22204
891.8728, 86.99171
892.3549, 86.40254
892.8370, 86.16259
893.3192, 85.69003
893.8013, 84.84934
894.2834, 83.83088
894.7655, 82.33055
895.2476, 81.06716
895.7297, 80.93784
896.2119, 81.35327
896.6940, 81.24124
897.1761, 80.46849
897.6582, 79.70674
898.1403, 79.43407
898.6224, 79.37881
899.1046, 79.21589
899.5867, 78.88842
900.0688, 77.87035
900.5509, 76.15195
901.0330, 75.27270
901.5151, 76.06798
901.9973, 77.43371
902.4794, 77.71563
902.9615, 76.91231
903.4436, 76.41530
903.9257, 76.41753
904.4078, 76.19585
904.8900, 75.36720
905.3721, 74.57541
905.8542, 74.36862
906.3363, 74.58717
906.8184, 74.76893
907.3005, 75.01519
907.7827, 74.95583
908.2648, 74.22873
908.7469, 73.54185
909.2290, 73.36742
909.7111, 73.35397
910.1932, 72.99403
910.6754, 72.27505
911.1575, 71.62496
911.6396, 71.06304
912.1217, 70.92901
912.6038, 72.13029
913.0859, 73.56198
913.5681, 73.31487
914.0502, 71.73436
914.5323, 70.62949
915.0144, 70.79180
915.4965, 71.55550
915.9786, 72.37949
916.4607, 73.10944
916.9428, 73.01576
917.4249, 72.17476
917.9070, 71.68330
918.3892, 71.83780
918.8713, 72.03993
919.3534, 71.80575
919.8355, 71.69743
920.3176, 71.44112
920.7997, 70.92403
921.2819, 70.62134
921.7640, 69.83312
922.2461, 69.16454
922.7282, 68.89223
923.2103, 68.82494
923.6924, 68.82928
924.1746, 68.89038
924.6567, 68.65433
925.1388, 67.61136
925.6209, 66.96815
926.1030, 67.22274
926.5851, 67.67344
927.0673, 67.94907
927.5494, 68.03878
928.0315, 67.95251
928.5136, 67.68594
928.9957, 67.46754
929.4778, 67.40364
929.9600, 67.44985
930.4421, 67.66898
930.9242, 67.92533
931.4063, 67.91166
931.8884, 67.69413
932.3705, 67.81529
932.8527, 68.65869
933.3348, 69.39114
933.8169, 68.51901
934.2990, 66.77810
934.7811, 66.29747
935.2632, 67.01283
935.7454, 67.84849
936.2275, 68.45393
936.7096, 68.70016
937.1917, 68.37475
937.6738, 67.71363
938.1559, 67.73093
938.6381, 68.55583
939.1202, 68.94634
939.6023, 68.63956
940.0844, 68.36734
940.5665, 68.56632
941.0486, 68.91582
941.5308, 68.89097
942.0129, 68.44853
942.4950, 68.10477
942.9771, 67.94939
943.4592, 67.75471
943.9413, 67.28938
944.4235, 66.97080
944.9056, 67.17812
945.3877, 67.69580
945.8698, 68.06135
946.3519, 68.20852
946.8340, 68.24169
947.3162, 67.92896
947.7983, 67.80560
948.2804, 68.50113
948.7625, 69.30590
949.2446, 69.36631
949.7267, 68.71420
950.2089, 67.89416
950.6910, 67.03339
951.1731, 66.43513
951.6552, 66.52200
952.1373, 66.86938
952.6194, 66.85508
953.1016, 66.66516
953.5837, 66.95480
954.0658, 67.83027
954.5479, 68.61344
955.0300, 68.76003
955.5121, 68.46439
955.9943, 67.97821
956.4764, 67.35987
956.9585, 66.78940
957.4406, 66.30014
957.9227, 66.10320
958.4048, 66.31187
958.8870, 66.62569
959.3691, 66.61838
959.8512, 66.75249
960.3333, 66.88058
960.8154, 66.74359
961.2975, 66.92033
961.7797, 66.79110
962.2618, 66.48960
962.7439, 66.05562
963.2260, 65.56060
963.7081, 65.13871
964.1902, 64.75861
964.6724, 64.63634
965.1545, 65.14021
965.6366, 65.28503
966.1187, 64.59258
966.6008, 63.70374
967.0829, 62.98190
967.5651, 62.46159
968.0472, 62.29237
968.5293, 62.70357
969.0114, 62.87434
969.4935, 62.45267
969.9756, 62.05299
970.4578, 62.09363
970.9399, 62.19387
971.4220, 61.76928
971.9041, 60.94993
972.3862, 60.58404
972.8683, 61.22733
973.3505, 61.76459
973.8326, 61.45812
974.3147, 60.94904
974.7968, 60.96086
975.2789, 61.13726
975.7610, 60.62477
976.2432, 59.36777
976.7253, 58.32003
977.2074, 58.12630
977.6895, 58.37060
978.1716, 58.74639
978.6537, 59.17322
979.1359, 59.54586
979.6180, 59.84144
980.1001, 60.03138
980.5822, 60.10837
981.0643, 60.11759
981.5464, 60.14957
982.0286, 60.09688
982.5107, 59.50343
982.9928, 58.56312
983.4749, 58.34002
983.9570, 58.93526
984.4391, 59.49016
984.9213, 59.56404
985.4034, 59.26626
985.8855, 58.66339
986.3676, 57.82451
986.8497, 57.39705
987.3318, 57.40901
987.8140, 57.49440
988.2961, 57.56576
988.7782, 57.82227
989.2603, 58.48943
989.7424, 59.25750
990.2245, 59.46016
990.7067, 59.01632
991.1888, 58.66512
991.6709, 58.43315
992.1530, 58.23096
992.6351, 58.09422
993.1172, 57.88611
993.5994, 57.36448
994.0815, 56.72501
994.5636, 56.58994
995.0457, 57.14544
995.5278, 57.67966
996.0099, 58.52289
996.4921, 58.91687
996.9742, 58.31626
997.4563, 57.48744
997.9384, 57.08721
998.4205, 57.00855
998.9026, 56.76046
999.3848, 56.01734
999.8669, 55.79844
1000.349, 56.93905
1000.831, 57.90060
1001.313, 57.83616
1001.795, 57.28568
1002.277, 56.71349
1002.760, 56.24700
1003.242, 56.04776
1003.724, 56.16290
1004.206, 56.57090
1004.688, 57.90294
1005.170, 58.88756
1005.652, 58.15034
1006.134, 56.61832
1006.617, 55.65182
1007.099, 55.45925
1007.581, 55.59298
1008.063, 55.97787
1008.545, 56.24828
1009.027, 56.00513
1009.509, 55.56905
1009.991, 55.21758
1010.473, 55.01227
1010.956, 55.05297
1011.438, 55.33398
1011.920, 55.70697
1012.402, 56.15335
1012.884, 56.44500
1013.366, 56.08521
1013.848, 55.47116
1014.330, 55.40243
1014.813, 55.79800
1015.295, 56.24363
1015.777, 56.57342
1016.259, 56.60480
1016.741, 56.11237
1017.223, 55.38255
1017.705, 54.88047
1018.187, 54.59720
1018.669, 54.53302
1019.152, 54.67373
1019.634, 55.03234
1020.116, 55.60221
1020.598, 55.87299
1021.080, 55.17605
1021.562, 54.04206
1022.044, 54.31001
1022.526, 55.76175
1023.008, 55.84253
1023.491, 54.29905
1023.973, 53.18182
1024.455, 53.38680
1024.937, 53.98279
1025.419, 53.88118
1025.901, 53.28250
1026.383, 53.15871
1026.865, 53.55074
1027.348, 53.79052
1027.830, 53.80357
1028.312, 53.73765
1028.794, 53.68288
1029.276, 53.46884
1029.758, 52.77729
1030.240, 51.74970
1030.722, 51.62246
1031.204, 52.64036
1031.687, 53.46990
1032.169, 53.98696
1032.651, 54.31744
1033.133, 54.53168
1033.615, 54.55929
1034.097, 54.27758
1034.579, 53.70652
1035.061, 53.15889
1035.544, 52.65659
1036.026, 52.08775
1036.508, 51.18126
1036.990, 50.70547
1037.472, 51.16452
1037.954, 52.10222
1038.436, 53.07660
1038.918, 54.06416
1039.401, 54.35306
1039.883, 53.43749
1040.365, 52.76713
1040.847, 52.60976
1041.329, 52.46524
1041.811, 51.99221
1042.293, 51.49236
1042.775, 51.32993
1043.257, 51.50322
1043.740, 51.91406
1044.222, 53.10180
1044.704, 53.69371
1045.186, 53.34405
1045.668, 52.71093
1046.150, 51.67675
1046.632, 50.77208
1047.114, 50.79895
1047.596, 51.69081
1048.079, 52.27929
1048.561, 52.31797
1049.043, 52.26962
1049.525, 52.34484
1050.007, 52.16123
1050.489, 51.09877
1050.971, 49.96145
1051.453, 49.86337
1051.936, 50.71696
1052.418, 51.27543
1052.900, 51.18169
1053.382, 51.05239
1053.864, 50.87687
1054.346, 50.84025
1054.828, 51.23323
1055.310, 51.68864
1055.792, 51.66389
1056.275, 51.23690
1056.757, 51.11142
1057.239, 51.70064
1057.721, 52.06153
1058.203, 51.51002
1058.685, 51.15094
1059.167, 52.12677
1059.649, 53.26376
1060.131, 52.89842
1060.614, 51.30356
1061.096, 50.36899
1061.578, 50.82778
1062.060, 51.34111
1062.542, 51.61435
1063.024, 51.63459
1063.506, 51.25183
1063.988, 50.71156
1064.471, 50.26632
1064.953, 49.92519
1065.435, 49.57646
1065.917, 49.14030
1066.399, 48.86507
1066.881, 48.88433
1067.363, 49.05053
1067.845, 49.59951
1068.328, 50.01116
1068.810, 49.30675
1069.292, 47.97869
1069.774, 47.80804
1070.256, 49.54787
1070.738, 50.91081
1071.220, 50.69739
1071.702, 50.07212
1072.184, 49.16209
1072.667, 48.61247
1073.149, 49.66166
1073.631, 51.53144
1074.113, 51.96471
1074.595, 50.23634
1075.077, 48.76072
1075.559, 48.77417
1076.041, 49.15611
1076.523, 49.74930
1077.006, 50.01599
1077.488, 49.00593
1077.970, 47.38534
1078.452, 46.67569
1078.934, 47.23563
1079.416, 48.05773
1079.898, 49.16744
1080.380, 49.83379
1080.862, 49.20441
1081.345, 48.39443
1081.827, 48.56808
1082.309, 49.26210
1082.791, 49.34390
1083.273, 48.66667
1083.755, 48.42705
1084.237, 49.88968
1084.719, 50.82543
1085.202, 49.23049
1085.684, 47.60659
1086.166, 48.57903
1086.648, 50.58832
1087.130, 50.88688
1087.612, 49.29134
1088.094, 47.95784
1088.576, 47.63113
1089.058, 47.80096
1089.541, 48.70070
1090.023, 49.54137
1090.505, 49.79424
1090.987, 49.63239
1091.469, 49.07339
1091.951, 48.33169
1092.433, 48.23018
1092.915, 49.34960
1093.397, 50.15699
1093.880, 49.84781
1094.362, 49.28779
1094.844, 48.76345
1095.326, 48.42148
1095.808, 48.60041
1096.290, 49.06145
1096.772, 48.99050
1097.254, 48.02884
1097.737, 47.37401
1098.219, 47.50956
1098.701, 47.93798
1099.183, 48.76383
1099.665, 49.49557
1100.147, 49.78150
1100.629, 49.61314
1101.111, 48.82532
1101.594, 47.28446
1102.076, 46.60492
1102.558, 48.19581
1103.040, 49.34931
1103.522, 48.65849
1104.004, 47.76287
1104.486, 48.04246
1104.968, 48.79292
1105.450, 48.61610
1105.932, 47.42500
1106.415, 46.82722
1106.897, 47.58406
1107.379, 48.27174
1107.861, 48.60598
1108.343, 48.82040
1108.825, 49.06361
1109.307, 49.23668
1109.789, 49.13348
1110.272, 48.80965
1110.754, 48.70818
1111.236, 49.22357
1111.718, 49.26476
1112.200, 48.06732
1112.682, 47.23655
1113.164, 47.89916
1113.646, 48.67310
1114.129, 47.98429
1114.611, 46.38539
1115.093, 45.87164
1115.575, 47.03791
1116.057, 47.50053
1116.539, 46.76241
1117.021, 46.06437
1117.503, 45.41813
1117.985, 45.15991
1118.468, 45.83369
1118.950, 46.85498
1119.432, 47.01817
1119.914, 46.21124
1120.396, 45.93446
1120.878, 46.56358
1121.360, 46.90602
1121.842, 46.71916
1122.324, 46.40514
1122.807, 46.03656
1123.289, 45.81444
1123.771, 46.09684
1124.253, 46.77634
1124.735, 46.84666
1125.217, 45.87710
1125.699, 45.91523
1126.181, 47.41827
1126.664, 48.88363
1127.146, 50.02208
1127.628, 50.25816
1128.110, 48.75364
1128.592, 46.35038
1129.074, 45.67418
1129.556, 46.95166
1130.038, 47.48848
1130.521, 47.15197
1131.003, 47.07918
1131.485, 47.60064
1131.967, 47.91199
1132.449, 47.46748
1132.931, 46.63132
1133.413, 45.94201
1133.895, 45.41325
1134.377, 45.14821
1134.859, 45.14116
1135.342, 45.33391
1135.824, 45.71231
1136.306, 45.90025
1136.788, 45.72833
1137.270, 45.50188
1137.752, 45.56742
1138.234, 45.39426
1138.716, 45.62487
1139.199, 45.25921
1139.681, 45.02696
1140.163, 44.98474
1140.645, 45.44275
1141.127, 46.39668
1141.609, 47.01616
1142.091, 46.70036
1142.573, 45.98165
1143.056, 45.46344
1143.538, 45.15761
1144.020, 45.13464
1144.502, 45.33565
1144.984, 45.71678
1145.466, 46.17782
1145.948, 46.44395
1146.430, 46.39469
1146.912, 45.99793
1147.395, 44.85726
1147.877, 43.77755
1148.359, 43.92025
1148.841, 43.35760
1149.323, 44.33171
1149.805, 43.73049
1150.287, 43.90362
1150.769, 45.01030
1151.251, 46.10028
1151.734, 46.82540
1152.216, 47.02435
1152.698, 46.15539
1153.180, 45.16294
1153.662, 44.91676
1154.144, 44.97212
1154.626, 44.51113
1155.108, 43.76270
1155.591, 43.86137
1156.073, 45.31865
1156.555, 46.23961
1157.037, 45.50140
1157.519, 44.70623
1158.001, 44.51644
1158.483, 44.50903
1158.965, 44.36824
1159.448, 44.16356
1159.930, 44.00607
1160.412, 43.90929
1160.894, 44.02531
1161.376, 44.61637
1161.858, 45.03227
1162.340, 45.53643
1162.822, 45.43090
1163.304, 43.75785
1163.786, 42.06883
1164.269, 41.97151
1164.751, 42.99532
1165.233, 43.49961
1165.715, 43.31123
1166.197, 43.39564
1166.679, 43.94668
1167.161, 44.16589
1167.643, 43.67450
1168.126, 43.46644
1168.608, 44.25256
1169.090, 45.38169
1169.572, 45.92759
1170.054, 45.91392
1170.536, 45.36731
1171.018, 44.24266
1171.500, 43.60843
1171.983, 43.56249
1172.465, 43.70232
1172.947, 43.89006
1173.429, 44.31074
1173.911, 45.22431
1174.393, 45.99424
1174.875, 44.97485
1175.357, 42.83802
1175.839, 42.27392
1176.322, 42.98431
1176.804, 43.64548
1177.286, 43.98957
1177.768, 44.07170
1178.250, 43.92177
1178.732, 43.56571
1179.214, 42.65824
1179.696, 42.06337
1180.178, 43.54940
1180.661, 45.70387
1181.143, 46.26177
1181.625, 45.65010
1182.107, 45.12811
1182.589, 44.97506
1183.071, 44.90203
1183.553, 44.82295
1184.035, 44.60018
1184.518, 43.78789
1185.000, 43.21453
1185.482, 43.56399
1185.964, 44.37584
1186.446, 45.52768
1186.928, 46.60498
1187.410, 46.69368
1187.892, 45.61683
1188.375, 44.79308
1188.857, 44.69461
1189.339, 44.67006
1189.821, 44.79948
1190.303, 44.71550
1190.785, 43.77856
1191.267, 42.91166
1191.749, 43.37933
1192.231, 44.72846
1192.714, 45.16700
1193.196, 44.42717
1193.678, 43.77519
1194.160, 43.09985
1194.642, 42.86499
1195.124, 43.32235
1195.606, 43.74994
1196.088, 43.69009
1196.570, 43.50539
1197.053, 43.71753
1197.535, 44.23508
1198.017, 44.63789
1198.499, 44.92404
1198.981, 45.04691
1199.463, 45.00311
1199.945, 44.72319
1200.427, 44.19897
1200.910, 43.76631
1201.392, 43.66089
1201.874, 43.70618
1202.356, 43.66570
1202.838, 43.58239
1203.320, 43.45161
1203.802, 43.38963
1204.284, 43.84988
1204.766, 44.62543
1205.249, 44.86000
1205.731, 44.35469
1206.213, 43.88333
1206.695, 43.96754
1207.177, 44.13155
1207.659, 44.04103
1208.141, 43.84138
1208.623, 43.58341
1209.105, 43.34978
1209.588, 43.25600
1210.070, 43.26664
1210.552, 43.22096
1211.034, 43.06348
1211.516, 43.07644
1211.998, 43.51555
1212.480, 43.85408
1212.962, 43.89283
1213.445, 43.88508
1213.927, 43.78609
1214.409, 43.86389
1214.891, 44.60567
1215.373, 45.76130
1215.855, 46.18300
1216.337, 45.70997
1216.819, 45.16799
1217.302, 44.49653
1217.784, 44.01980
1218.266, 43.84387
1218.748, 43.70758
1219.230, 43.49741
1219.712, 43.04502
1220.194, 41.96605
1220.676, 40.71415
1221.158, 41.04132
1221.641, 42.56128
1222.123, 43.08830
1222.605, 42.73088
1223.087, 42.93634
1223.569, 43.91495
1224.051, 44.44210
1224.533, 43.81234
1225.015, 42.97239
1225.497, 42.98565
1225.980, 43.19569
1226.462, 42.50203
1226.944, 41.78773
1227.426, 42.52874
1227.908, 44.06586
1228.390, 44.99627
1228.872, 45.06792
1229.354, 44.62366
1229.837, 43.52688
1230.319, 42.67296
1230.801, 42.46397
1231.283, 42.43254
1231.765, 42.51136
1232.247, 42.56036
1232.729, 42.32132
1233.211, 42.06084
1233.693, 42.29881
1234.176, 43.01513
1234.658, 43.63123
1235.140, 44.25330
1235.622, 44.39206
1236.104, 43.82354
1236.586, 43.55598
1237.068, 43.97494
1237.550, 44.33829
1238.032, 44.11373
1238.515, 43.49059
1238.997, 42.61957
1239.479, 41.71504
1239.961, 41.79231
1240.443, 42.62633
1240.925, 43.33287
1241.407, 43.76674
1241.889, 43.68332
1242.372, 43.09527
1242.854, 42.58081
1243.336, 42.51284
1243.818, 42.52814
1244.300, 42.18188
1244.782, 41.86491
1245.264, 42.11336
1245.746, 42.48936
1246.229, 42.52592
1246.711, 42.23536
1247.193, 41.56454
1247.675, 40.60600
1248.157, 40.21267
1248.639, 40.70255
1249.121, 41.54975
1249.603, 43.49043
1250.085, 44.61811
1250.568, 43.68884
1251.050, 42.59319
1251.532, 42.69554
1252.014, 42.10361
1252.496, 41.84960
1252.978, 42.01538
1253.460, 41.66483
1253.942, 42.01487
1254.424, 42.24064
1254.907, 42.29183
1255.389, 42.09044
1255.871, 41.62354
1256.353, 41.35665
1256.835, 41.58922
1257.317, 42.18136
1257.799, 43.24097
1258.281, 44.25690
1258.764, 44.11739
1259.246, 43.37574
1259.728, 42.87591
1260.210, 42.68815
1260.692, 42.96245
1261.174, 43.50793
1261.656, 43.32664
1262.138, 41.79356
1262.620, 40.77238
1263.103, 41.58622
1263.585, 42.48227
1264.067, 42.87064
1264.549, 42.86249
1265.031, 42.14953
1265.513, 41.36268
1265.995, 41.41908
1266.477, 42.17892
1266.959, 42.94574
1267.442, 43.84675
1267.924, 44.20918
1268.406, 43.94828
1268.888, 43.46043
1269.370, 42.75221
1269.852, 42.41974
1270.334, 42.80376
1270.816, 43.25205
1271.299, 43.06102
1271.781, 42.48991
1272.263, 41.92876
1272.745, 41.46256
1273.227, 41.30505
1273.709, 41.41346
1274.191, 41.69801
1274.673, 42.11850
1275.156, 42.74476
1275.638, 43.55632
1276.120, 43.90556
1276.602, 43.06792
1277.084, 42.33757
1277.566, 42.46857
1278.048, 42.76611
1278.530, 42.72268
1279.012, 42.72428
1279.495, 43.34142
1279.977, 44.25657
1280.459, 44.73578
1280.941, 44.77681
1281.423, 44.28739
1281.905, 44.43053
1282.387, 44.44029
1282.869, 43.84327
1283.351, 44.48041
1283.834, 43.79644
1284.316, 43.27599
1284.798, 43.98360
1285.280, 44.89368
1285.762, 44.77324
1286.244, 43.64089
##END=



