##NAMES=Chondrodite
##RRUFFID=R040016
##IDEAL CHEMISTRY=Mg_5_(SiO_4_)_2_F_2_
##LOCALITY=Vastmanland, Kafveltorp, Sweden
##OWNER=RRUFF
##SOURCE=University of Arizona Mineral Museum
##DESCRIPTION=Deep red single crystals embedded in matrix
##STATUS=The identification of this mineral has been confirmed by X-ray diffraction and chemical analysis
##URL=rruff.info/R040016
##MEASURED CHEMISTRY=(Mg_4.61_Fe_0.31_Mn_0.07_Ca_0.01_)_Σ=5_(Si_1.00_O_4_)_2_(F_1.16_(OH)_0.84_)_Σ=2_
127.3135, 368.7061
127.7956, 383.2607
128.2778, 398.5340
128.7599, 414.9881
129.2420, 434.1338
129.7241, 458.0057
130.2062, 479.5319
130.6884, 495.8414
131.1705, 508.5138
131.6526, 519.4561
132.1347, 529.8922
132.6168, 539.0529
133.0989, 544.1641
133.5811, 543.7974
134.0632, 541.0452
134.5453, 536.3619
135.0274, 530.4786
135.5095, 524.1516
135.9916, 517.0422
136.4738, 509.7651
136.9559, 507.5228
137.4380, 516.4411
137.9201, 523.7325
138.4022, 522.1887
138.8843, 516.1053
139.3665, 514.0255
139.8486, 522.8594
140.3307, 542.6717
140.8128, 562.6628
141.2949, 582.6302
141.7770, 603.1139
142.2592, 623.9833
142.7413, 645.3820
143.2234, 667.7966
143.7055, 691.6473
144.1876, 717.0424
144.6697, 742.5355
145.1519, 768.7237
145.6340, 794.4230
146.1161, 817.9294
146.5982, 840.1361
147.0803, 864.0076
147.5624, 893.4099
148.0446, 930.9213
148.5267, 961.6908
149.0088, 982.7700
149.4909, 1000.915
149.9730, 1020.641
150.4551, 1041.544
150.9372, 1059.230
151.4194, 1068.581
151.9015, 1066.810
152.3836, 1065.150
152.8657, 1062.669
153.3478, 1060.937
153.8299, 1062.049
154.3121, 1065.720
154.7942, 1069.011
155.2763, 1068.392
155.7584, 1062.973
156.2405, 1054.935
156.7226, 1039.994
157.2048, 1025.450
157.6869, 1016.291
158.1690, 1013.570
158.6511, 1015.571
159.1332, 1020.290
159.6153, 1029.095
160.0975, 1037.796
160.5796, 1046.550
161.0617, 1055.116
161.5438, 1062.631
162.0259, 1068.976
162.5080, 1075.990
162.9902, 1086.285
163.4723, 1100.973
163.9544, 1116.995
164.4365, 1135.936
164.9186, 1155.362
165.4007, 1172.081
165.8829, 1185.319
166.3650, 1197.770
166.8471, 1213.651
167.3292, 1234.600
167.8113, 1254.522
168.2934, 1272.437
168.7756, 1289.205
169.2577, 1305.631
169.7398, 1321.949
170.2219, 1338.019
170.7040, 1352.992
171.1861, 1365.176
171.6683, 1381.743
172.1504, 1406.141
172.6325, 1434.771
173.1146, 1464.088
173.5967, 1493.645
174.0788, 1520.948
174.5610, 1541.438
175.0431, 1553.997
175.5252, 1565.856
176.0073, 1577.914
176.4894, 1590.298
176.9715, 1605.837
177.4537, 1626.990
177.9358, 1644.693
178.4179, 1640.912
178.9000, 1612.977
179.3821, 1585.159
179.8642, 1563.920
180.3464, 1546.355
180.8285, 1528.600
181.3106, 1510.289
181.7927, 1489.370
182.2748, 1459.368
182.7569, 1418.134
183.2391, 1383.503
183.7212, 1364.297
184.2033, 1354.402
184.6854, 1343.393
185.1675, 1328.294
185.6496, 1312.427
186.1318, 1301.395
186.6139, 1295.379
187.0960, 1289.398
187.5781, 1279.570
188.0602, 1269.214
188.5423, 1265.742
189.0245, 1272.967
189.5066, 1282.148
189.9887, 1279.474
190.4708, 1264.909
190.9529, 1251.451
191.4350, 1243.545
191.9172, 1239.477
192.3993, 1236.715
192.8814, 1235.289
193.3635, 1233.486
193.8456, 1227.719
194.3277, 1217.859
194.8099, 1210.786
195.2920, 1210.190
195.7741, 1213.510
196.2562, 1216.603
196.7383, 1218.910
197.2204, 1220.095
197.7026, 1218.257
198.1847, 1213.445
198.6668, 1211.730
199.1489, 1217.947
199.6310, 1227.758
200.1131, 1233.650
200.5953, 1233.786
201.0774, 1231.411
201.5595, 1230.511
202.0416, 1230.920
202.5237, 1229.065
203.0058, 1219.319
203.4880, 1207.959
203.9701, 1207.220
204.4522, 1221.344
204.9343, 1236.449
205.4164, 1234.208
205.8985, 1217.146
206.3807, 1204.556
206.8628, 1205.006
207.3449, 1211.287
207.8270, 1212.211
208.3091, 1205.356
208.7912, 1198.765
209.2734, 1203.459
209.7555, 1217.302
210.2376, 1223.991
210.7197, 1215.696
211.2018, 1200.454
211.6839, 1186.716
212.1661, 1175.002
212.6482, 1167.321
213.1303, 1167.492
213.6124, 1174.312
214.0945, 1180.167
214.5766, 1184.643
215.0588, 1187.231
215.5409, 1185.533
216.0230, 1179.157
216.5051, 1175.066
216.9872, 1180.788
217.4693, 1194.403
217.9515, 1203.807
218.4336, 1204.981
218.9157, 1203.318
219.3978, 1202.873
219.8799, 1203.849
220.3620, 1206.337
220.8442, 1210.702
221.3263, 1216.850
221.8084, 1223.435
222.2905, 1232.200
222.7726, 1239.979
223.2547, 1244.436
223.7369, 1245.663
224.2190, 1245.050
224.7011, 1242.849
225.1832, 1239.458
225.6653, 1236.899
226.1474, 1234.049
226.6296, 1232.967
227.1117, 1236.260
227.5938, 1242.903
228.0759, 1248.406
228.5580, 1250.207
229.0401, 1249.061
229.5223, 1248.161
230.0044, 1249.317
230.4865, 1248.635
230.9686, 1242.579
231.4507, 1233.086
231.9328, 1225.715
232.4150, 1223.567
232.8971, 1224.611
233.3792, 1222.874
233.8613, 1216.877
234.3434, 1211.070
234.8255, 1204.604
235.3077, 1199.517
235.7898, 1201.085
236.2719, 1212.544
236.7540, 1228.153
237.2361, 1235.166
237.7182, 1231.211
238.2004, 1225.247
238.6825, 1215.239
239.1646, 1205.336
239.6467, 1202.595
240.1288, 1209.536
240.6109, 1220.261
241.0931, 1224.612
241.5752, 1217.598
242.0573, 1216.245
242.5394, 1226.795
243.0215, 1241.133
243.5036, 1251.755
243.9858, 1256.896
244.4679, 1257.789
244.9500, 1255.259
245.4321, 1246.430
245.9142, 1243.016
246.3963, 1249.124
246.8785, 1257.659
247.3606, 1263.885
247.8427, 1267.070
248.3248, 1268.433
248.8069, 1268.749
249.2890, 1267.312
249.7712, 1269.175
250.2533, 1276.381
250.7354, 1284.548
251.2175, 1293.036
251.6996, 1300.699
252.1817, 1304.273
252.6639, 1299.853
253.1460, 1286.867
253.6281, 1284.461
254.1102, 1299.477
254.5923, 1316.483
255.0744, 1334.225
255.5566, 1350.051
256.0387, 1358.292
256.5208, 1354.078
257.0029, 1340.310
257.4850, 1338.469
257.9671, 1361.315
258.4492, 1382.769
258.9314, 1401.909
259.4135, 1416.454
259.8956, 1422.269
260.3777, 1416.882
260.8598, 1405.274
261.3419, 1402.518
261.8241, 1417.870
262.3062, 1428.941
262.7883, 1430.612
263.2704, 1428.805
263.7525, 1428.759
264.2346, 1432.331
264.7168, 1438.297
265.1989, 1445.082
265.6810, 1454.521
266.1631, 1460.422
266.6452, 1456.573
267.1273, 1453.539
267.6095, 1458.766
268.0916, 1473.284
268.5737, 1492.536
269.0558, 1510.723
269.5379, 1526.745
270.0201, 1547.851
270.5022, 1580.846
270.9843, 1614.095
271.4664, 1642.971
271.9485, 1667.419
272.4306, 1689.672
272.9128, 1713.753
273.3949, 1739.166
273.8770, 1752.797
274.3591, 1748.623
274.8412, 1739.388
275.3233, 1729.779
275.8055, 1720.140
276.2876, 1711.273
276.7697, 1706.710
277.2518, 1702.284
277.7339, 1684.425
278.2160, 1647.969
278.6982, 1610.066
279.1803, 1577.786
279.6624, 1549.508
280.1445, 1523.182
280.6266, 1498.000
281.1087, 1474.916
281.5909, 1455.120
282.0730, 1438.616
282.5551, 1425.435
283.0372, 1418.902
283.5193, 1413.903
284.0014, 1402.994
284.4836, 1382.998
284.9657, 1363.852
285.4478, 1354.333
285.9299, 1352.877
286.4120, 1350.570
286.8941, 1343.386
287.3763, 1336.125
287.8584, 1336.351
288.3405, 1344.983
288.8226, 1352.701
289.3047, 1352.996
289.7868, 1350.357
290.2690, 1354.346
290.7511, 1367.919
291.2332, 1382.964
291.7153, 1388.877
292.1974, 1385.208
292.6795, 1385.851
293.1617, 1398.763
293.6438, 1412.953
294.1259, 1418.115
294.6080, 1413.547
295.0901, 1404.278
295.5722, 1393.967
296.0544, 1382.512
296.5365, 1368.415
297.0186, 1346.119
297.5007, 1326.758
297.9828, 1317.516
298.4649, 1315.681
298.9471, 1313.450
299.4292, 1306.096
299.9113, 1295.294
300.3934, 1288.853
300.8755, 1291.080
301.3576, 1292.259
301.8398, 1290.187
302.3219, 1286.606
302.8040, 1283.458
303.2861, 1281.488
303.7682, 1280.642
304.2503, 1280.505
304.7325, 1278.123
305.2146, 1282.149
305.6967, 1299.993
306.1788, 1318.097
306.6609, 1325.718
307.1430, 1322.369
307.6252, 1316.554
308.1073, 1318.136
308.5894, 1328.843
309.0715, 1336.193
309.5536, 1338.432
310.0357, 1338.805
310.5179, 1337.313
311.0000, 1334.782
311.4821, 1332.588
311.9642, 1331.197
312.4463, 1331.016
312.9284, 1334.818
313.4106, 1346.896
313.8927, 1355.399
314.3748, 1354.958
314.8569, 1349.673
315.3390, 1344.086
315.8211, 1339.406
316.3033, 1336.366
316.7854, 1336.760
317.2675, 1341.158
317.7496, 1344.790
318.2317, 1346.294
318.7138, 1346.197
319.1960, 1344.241
319.6781, 1340.055
320.1602, 1337.113
320.6423, 1338.720
321.1244, 1343.811
321.6065, 1347.895
322.0887, 1349.578
322.5708, 1351.108
323.0529, 1355.066
323.5350, 1361.134
324.0171, 1367.370
324.4992, 1374.772
324.9814, 1381.238
325.4635, 1383.316
325.9456, 1380.788
326.4277, 1378.296
326.9098, 1379.980
327.3919, 1385.069
327.8741, 1386.094
328.3562, 1380.042
328.8383, 1373.105
329.3204, 1367.978
329.8025, 1364.333
330.2846, 1360.932
330.7668, 1357.066
331.2489, 1353.521
331.7310, 1352.652
332.2131, 1360.131
332.6952, 1362.654
333.1773, 1354.953
333.6595, 1344.198
334.1416, 1337.950
334.6237, 1337.797
335.1058, 1339.679
335.5879, 1338.295
336.0700, 1332.689
336.5522, 1326.998
337.0343, 1319.257
337.5164, 1313.226
337.9985, 1312.110
338.4806, 1314.453
338.9627, 1315.888
339.4449, 1312.590
339.9270, 1305.602
340.4091, 1302.927
340.8912, 1307.981
341.3733, 1312.418
341.8554, 1313.100
342.3376, 1312.234
342.8197, 1312.241
343.3018, 1313.893
343.7839, 1317.337
344.2660, 1323.580
344.7481, 1333.208
345.2303, 1341.392
345.7124, 1345.333
346.1945, 1348.564
346.6766, 1355.134
347.1587, 1365.241
347.6408, 1372.954
348.1230, 1372.910
348.6051, 1367.545
349.0872, 1363.326
349.5693, 1360.423
350.0514, 1360.550
350.5335, 1367.484
351.0157, 1379.450
351.4978, 1388.822
351.9799, 1391.468
352.4620, 1393.158
352.9441, 1398.809
353.4262, 1408.149
353.9084, 1418.805
354.3905, 1430.082
354.8726, 1441.392
355.3547, 1450.026
355.8368, 1454.944
356.3189, 1459.302
356.8011, 1465.224
357.2832, 1470.471
357.7653, 1471.208
358.2474, 1466.484
358.7295, 1460.208
359.2116, 1458.034
359.6938, 1462.155
360.1759, 1464.085
360.6580, 1463.778
361.1401, 1461.707
361.6222, 1454.940
362.1043, 1446.153
362.5865, 1443.417
363.0686, 1454.928
363.5507, 1477.253
364.0328, 1482.625
364.5149, 1455.160
364.9970, 1433.814
365.4792, 1433.360
365.9613, 1440.976
366.4434, 1440.952
366.9255, 1427.383
367.4076, 1410.109
367.8897, 1402.909
368.3719, 1406.696
368.8540, 1409.690
369.3361, 1409.640
369.8182, 1407.987
370.3003, 1405.610
370.7824, 1402.610
371.2646, 1399.782
371.7467, 1396.150
372.2288, 1393.320
372.7109, 1394.944
373.1930, 1401.655
373.6751, 1409.849
374.1573, 1416.899
374.6394, 1423.423
375.1215, 1431.836
375.6036, 1444.214
376.0857, 1456.547
376.5678, 1465.516
377.0500, 1472.750
377.5321, 1481.911
378.0142, 1494.365
378.4963, 1509.980
378.9784, 1528.887
379.4605, 1555.609
379.9427, 1577.145
380.4248, 1590.951
380.9069, 1601.275
381.3890, 1611.266
381.8711, 1621.227
382.3532, 1630.361
382.8354, 1638.739
383.3175, 1646.359
383.7996, 1645.591
384.2817, 1626.103
384.7638, 1609.385
385.2459, 1606.528
385.7281, 1607.273
386.2102, 1595.921
386.6923, 1564.971
387.1744, 1526.613
387.6565, 1501.770
388.1386, 1492.928
388.6208, 1484.106
389.1029, 1474.324
389.5850, 1461.744
390.0671, 1442.515
390.5492, 1417.548
391.0313, 1396.485
391.5135, 1387.337
391.9956, 1385.652
392.4777, 1381.244
392.9598, 1372.643
393.4419, 1366.504
393.9240, 1369.707
394.4062, 1379.013
394.8883, 1382.148
395.3704, 1376.084
395.8525, 1366.422
396.3346, 1351.483
396.8167, 1335.309
397.2989, 1327.884
397.7810, 1333.235
398.2631, 1345.190
398.7452, 1353.653
399.2273, 1356.201
399.7094, 1360.664
400.1916, 1368.832
400.6737, 1377.373
401.1558, 1382.592
401.6379, 1385.810
402.1200, 1392.111
402.6021, 1405.735
403.0843, 1425.789
403.5664, 1445.712
404.0485, 1472.065
404.5306, 1487.992
405.0127, 1482.262
405.4948, 1469.552
405.9770, 1466.023
406.4591, 1476.407
406.9412, 1489.857
407.4233, 1492.376
407.9054, 1484.317
408.3875, 1482.844
408.8697, 1495.691
409.3518, 1507.738
409.8339, 1505.644
410.3160, 1492.558
410.7981, 1480.471
411.2802, 1474.415
411.7624, 1470.640
412.2445, 1464.256
412.7266, 1455.710
413.2087, 1450.286
413.6908, 1452.477
414.1729, 1457.857
414.6551, 1452.972
415.1372, 1430.777
415.6193, 1413.649
416.1014, 1411.328
416.5835, 1413.210
417.0656, 1406.700
417.5478, 1390.588
418.0299, 1374.474
418.5120, 1368.473
418.9941, 1373.664
419.4762, 1374.000
419.9583, 1362.481
420.4405, 1353.667
420.9226, 1352.213
421.4047, 1355.358
421.8868, 1359.577
422.3689, 1363.580
422.8510, 1366.216
423.3332, 1365.327
423.8153, 1360.534
424.2974, 1354.500
424.7795, 1344.289
425.2616, 1336.460
425.7437, 1336.982
426.2259, 1344.755
426.7080, 1352.156
427.1901, 1354.281
427.6722, 1354.417
428.1543, 1357.811
428.6364, 1364.593
429.1186, 1371.629
429.6007, 1377.920
430.0828, 1382.819
430.5649, 1384.153
431.0470, 1377.908
431.5291, 1375.271
432.0113, 1381.990
432.4934, 1392.625
432.9755, 1402.286
433.4576, 1409.413
433.9397, 1411.803
434.4218, 1406.288
434.9040, 1391.722
435.3861, 1380.474
435.8682, 1373.387
436.3503, 1368.676
436.8324, 1367.323
437.3145, 1367.672
437.7967, 1367.977
438.2788, 1367.651
438.7609, 1365.520
439.2430, 1359.069
439.7251, 1347.747
440.2072, 1336.196
440.6894, 1321.783
441.1715, 1311.118
441.6536, 1310.603
442.1357, 1318.580
442.6178, 1325.452
443.0999, 1328.456
443.5821, 1327.429
444.0642, 1319.730
444.5463, 1305.971
445.0284, 1295.447
445.5105, 1293.640
445.9926, 1297.342
446.4748, 1297.635
446.9569, 1291.538
447.4390, 1288.403
447.9211, 1292.191
448.4032, 1298.151
448.8853, 1303.098
449.3675, 1305.916
449.8496, 1304.803
450.3317, 1297.099
450.8138, 1283.272
451.2959, 1276.160
451.7780, 1280.496
452.2602, 1285.793
452.7423, 1290.329
453.2244, 1294.357
453.7065, 1298.231
454.1886, 1302.046
454.6707, 1305.714
455.1529, 1310.448
455.6350, 1315.753
456.1171, 1314.806
456.5992, 1302.949
457.0813, 1292.065
457.5634, 1292.231
458.0455, 1300.833
458.5276, 1311.448
459.0098, 1327.093
459.4919, 1340.434
459.9740, 1342.951
460.4561, 1338.805
460.9382, 1339.471
461.4203, 1349.224
461.9025, 1365.361
462.3846, 1384.511
462.8667, 1410.726
463.3488, 1428.732
463.8309, 1432.589
464.3130, 1434.415
464.7952, 1440.102
465.2773, 1449.247
465.7594, 1459.914
466.2415, 1471.596
466.7236, 1482.103
467.2057, 1483.978
467.6879, 1472.813
468.1700, 1467.213
468.6521, 1478.653
469.1342, 1491.596
469.6163, 1495.564
470.0984, 1490.260
470.5806, 1480.972
471.0627, 1469.996
471.5448, 1457.074
472.0269, 1439.957
472.5090, 1418.602
472.9911, 1401.590
473.4733, 1395.100
473.9554, 1395.141
474.4375, 1388.853
474.9196, 1372.854
475.4017, 1357.840
475.8839, 1348.526
476.3660, 1339.251
476.8481, 1322.698
477.3302, 1299.281
477.8123, 1277.063
478.2944, 1263.622
478.7766, 1257.991
479.2587, 1248.416
479.7408, 1230.426
480.2229, 1215.394
480.7050, 1206.283
481.1871, 1200.767
481.6693, 1197.702
482.1514, 1196.748
482.6335, 1194.813
483.1156, 1187.493
483.5977, 1176.811
484.0798, 1170.778
484.5620, 1171.043
485.0441, 1172.043
485.5262, 1170.126
486.0083, 1165.708
486.4904, 1161.282
486.9725, 1157.287
487.4547, 1152.760
487.9368, 1147.244
488.4189, 1140.982
488.9010, 1133.097
489.3831, 1123.800
489.8652, 1117.353
490.3474, 1119.855
490.8295, 1132.703
491.3116, 1136.811
491.7937, 1121.050
492.2758, 1108.655
492.7579, 1106.569
493.2401, 1110.554
493.7222, 1116.226
494.2043, 1122.410
494.6864, 1125.698
495.1685, 1120.548
495.6506, 1108.147
496.1328, 1097.654
496.6149, 1089.973
497.0970, 1084.748
497.5791, 1083.411
498.0612, 1084.616
498.5433, 1082.871
499.0255, 1073.483
499.5076, 1065.437
499.9897, 1064.142
500.4718, 1067.011
500.9539, 1070.734
501.4360, 1074.147
501.9182, 1074.798
502.4003, 1068.744
502.8824, 1054.189
503.3645, 1044.216
503.8466, 1042.342
504.3287, 1041.490
504.8109, 1039.891
505.2930, 1038.105
505.7751, 1037.488
506.2572, 1038.701
506.7393, 1039.521
507.2214, 1036.255
507.7036, 1029.542
508.1857, 1025.439
508.6678, 1025.010
509.1499, 1026.798
509.6320, 1030.990
510.1141, 1036.749
510.5963, 1040.164
511.0784, 1040.581
511.5605, 1038.897
512.0426, 1033.537
512.5247, 1026.893
513.0068, 1023.146
513.4890, 1023.428
513.9711, 1025.598
514.4532, 1027.298
514.9353, 1028.670
515.4174, 1028.443
515.8995, 1025.110
516.3817, 1021.786
516.8638, 1017.322
517.3459, 1014.103
517.8280, 1015.877
518.3101, 1024.096
518.7922, 1034.398
519.2744, 1043.908
519.7565, 1052.058
520.2386, 1056.151
520.7207, 1055.487
521.2028, 1051.748
521.6849, 1043.887
522.1671, 1033.569
522.6492, 1030.349
523.1313, 1040.932
523.6134, 1050.714
524.0955, 1055.274
524.5776, 1056.059
525.0598, 1053.410
525.5419, 1048.121
526.0240, 1044.110
526.5061, 1045.732
526.9882, 1052.911
527.4703, 1059.621
527.9525, 1067.615
528.4346, 1072.352
528.9167, 1069.750
529.3988, 1065.059
529.8809, 1064.009
530.3630, 1067.857
530.8452, 1073.119
531.3273, 1076.900
531.8094, 1080.402
532.2915, 1086.056
532.7736, 1094.110
533.2557, 1104.135
533.7379, 1115.802
534.2200, 1129.244
534.7021, 1145.137
535.1842, 1166.776
535.6663, 1186.232
536.1484, 1201.916
536.6306, 1215.648
537.1127, 1226.269
537.5948, 1235.719
538.0769, 1250.438
538.5590, 1276.734
539.0411, 1310.823
539.5233, 1338.444
540.0054, 1356.442
540.4875, 1379.052
540.9696, 1413.041
541.4517, 1451.249
541.9338, 1487.386
542.4160, 1521.158
542.8981, 1552.234
543.3802, 1578.798
543.8623, 1603.528
544.3444, 1630.393
544.8265, 1658.149
545.3087, 1681.815
545.7908, 1699.221
546.2729, 1711.182
546.7550, 1720.294
547.2371, 1732.491
547.7192, 1726.729
548.2014, 1691.202
548.6835, 1650.977
549.1656, 1616.052
549.6477, 1585.336
550.1298, 1555.372
550.6119, 1525.229
551.0941, 1493.144
551.5762, 1453.026
552.0583, 1406.836
552.5404, 1373.564
553.0225, 1359.843
553.5046, 1350.291
553.9868, 1330.711
554.4689, 1301.733
554.9510, 1278.083
555.4331, 1261.264
555.9152, 1248.185
556.3973, 1238.755
556.8795, 1232.053
557.3616, 1225.557
557.8437, 1219.404
558.3258, 1218.696
558.8079, 1231.068
559.2900, 1255.152
559.7722, 1269.845
560.2543, 1271.887
560.7364, 1271.156
561.2185, 1266.468
561.7006, 1263.387
562.1827, 1269.227
562.6649, 1285.603
563.1470, 1301.411
563.6291, 1308.303
564.1112, 1313.510
564.5933, 1327.860
565.0754, 1350.486
565.5576, 1372.161
566.0397, 1388.057
566.5218, 1398.845
567.0039, 1405.523
567.4860, 1402.104
567.9681, 1405.920
568.4503, 1416.942
568.9324, 1434.401
569.4145, 1461.610
569.8966, 1494.666
570.3787, 1525.053
570.8608, 1548.411
571.3430, 1568.462
571.8251, 1586.922
572.3072, 1605.077
572.7893, 1632.246
573.2714, 1671.679
573.7535, 1715.287
574.2357, 1757.068
574.7178, 1796.784
575.1999, 1827.846
575.6820, 1841.547
576.1641, 1857.632
576.6462, 1887.525
577.1284, 1919.653
577.6105, 1940.719
578.0926, 1948.407
578.5747, 1949.533
579.0568, 1952.426
579.5389, 1954.154
580.0211, 1935.615
580.5032, 1890.160
580.9853, 1849.043
581.4674, 1828.709
581.9495, 1814.636
582.4316, 1786.841
582.9138, 1744.034
583.3959, 1700.485
583.8780, 1657.571
584.3601, 1617.624
584.8422, 1584.034
585.3243, 1555.086
585.8065, 1525.722
586.2886, 1493.568
586.7707, 1460.704
587.2528, 1430.164
587.7349, 1400.754
588.2170, 1378.745
588.6992, 1372.068
589.1813, 1362.969
589.6634, 1336.526
590.1455, 1304.827
590.6276, 1289.405
591.1097, 1299.254
591.5919, 1312.416
592.0740, 1306.574
592.5561, 1296.683
593.0382, 1316.974
593.5203, 1368.307
594.0024, 1410.175
594.4846, 1411.973
594.9667, 1384.643
595.4488, 1374.131
595.9309, 1389.500
596.4130, 1407.092
596.8951, 1422.638
597.3773, 1442.213
597.8594, 1474.369
598.3415, 1514.305
598.8236, 1546.587
599.3057, 1559.541
599.7878, 1567.546
600.2700, 1589.849
600.7521, 1623.713
601.2342, 1656.483
601.7163, 1685.281
602.1984, 1711.632
602.6805, 1737.359
603.1627, 1762.497
603.6448, 1781.609
604.1269, 1790.854
604.6090, 1799.544
605.0911, 1811.965
605.5732, 1823.199
606.0554, 1829.727
606.5375, 1830.278
607.0196, 1823.088
607.5017, 1805.667
607.9838, 1780.038
608.4659, 1748.243
608.9481, 1710.019
609.4302, 1678.063
609.9123, 1659.417
610.3944, 1643.989
610.8765, 1617.524
611.3586, 1577.691
611.8408, 1540.650
612.3229, 1506.259
612.8050, 1475.067
613.2871, 1449.181
613.7692, 1425.911
614.2513, 1401.113
614.7335, 1373.619
615.2156, 1346.727
615.6977, 1324.670
616.1798, 1306.504
616.6619, 1285.469
617.1440, 1260.412
617.6262, 1237.767
618.1083, 1221.363
618.5904, 1208.536
619.0725, 1194.953
619.5546, 1180.609
620.0367, 1165.563
620.5189, 1147.505
621.0010, 1130.923
621.4831, 1119.752
621.9652, 1112.141
622.4473, 1103.934
622.9294, 1093.412
623.4116, 1083.164
623.8937, 1077.682
624.3758, 1076.885
624.8579, 1073.556
625.3400, 1066.676
625.8221, 1059.302
626.3043, 1053.074
626.7864, 1047.407
627.2685, 1041.112
627.7506, 1034.010
628.2327, 1026.795
628.7148, 1019.267
629.1970, 1012.052
629.6791, 1004.564
630.1612, 997.8460
630.6433, 995.6698
631.1254, 1000.217
631.6075, 1005.682
632.0897, 1000.278
632.5718, 982.7999
633.0539, 971.8934
633.5360, 971.8185
634.0181, 972.5271
634.5002, 967.4667
634.9824, 959.1142
635.4645, 952.6969
635.9466, 949.3450
636.4287, 945.9841
636.9108, 940.9859
637.3929, 935.9703
637.8751, 932.1019
638.3572, 929.6245
638.8393, 929.5439
639.3214, 932.7935
639.8035, 935.8196
640.2856, 928.9648
640.7678, 910.2421
641.2499, 903.4100
641.7320, 918.4099
642.2141, 931.7714
642.6962, 923.9833
643.1783, 904.0742
643.6605, 892.5693
644.1426, 895.0811
644.6247, 897.7012
645.1068, 895.1614
645.5889, 891.0884
646.0710, 888.9239
646.5532, 888.6540
647.0353, 889.0818
647.5174, 889.7538
647.9995, 889.3036
648.4816, 883.3486
648.9637, 870.9913
649.4459, 864.6368
649.9280, 867.6525
650.4101, 873.0326
650.8922, 878.0461
651.3743, 881.6188
651.8564, 880.3980
652.3386, 868.8723
652.8207, 862.4507
653.3028, 870.5015
653.7849, 882.0872
654.2670, 888.2643
654.7491, 888.4608
655.2313, 884.3349
655.7134, 876.2912
656.1955, 867.5975
656.6776, 865.5294
657.1597, 870.2660
657.6418, 870.5850
658.1240, 863.5268
658.6061, 856.0790
659.0882, 852.3366
659.5703, 851.9648
660.0524, 853.5815
660.5345, 859.8351
661.0167, 863.1432
661.4988, 859.6144
661.9809, 854.5187
662.4630, 852.1047
662.9451, 851.8090
663.4272, 850.6461
663.9094, 846.9679
664.3915, 842.8795
664.8736, 841.5295
665.3557, 842.7386
665.8378, 844.9092
666.3199, 848.1571
666.8021, 851.3016
667.2842, 854.2150
667.7663, 856.2360
668.2484, 854.9611
668.7305, 848.0352
669.2126, 842.7216
669.6948, 841.5370
670.1769, 840.3435
670.6590, 834.0786
671.1411, 826.2596
671.6232, 825.4798
672.1053, 835.8439
672.5875, 847.4534
673.0696, 847.0396
673.5517, 838.4532
674.0338, 835.9000
674.5159, 840.7230
674.9980, 847.4053
675.4802, 853.6239
675.9623, 858.8281
676.4444, 861.8857
676.9265, 863.8475
677.4086, 860.9433
677.8907, 844.8251
678.3729, 833.1557
678.8550, 837.8084
679.3371, 850.3210
679.8192, 858.1362
680.3013, 857.7994
680.7834, 852.0789
681.2656, 837.3820
681.7477, 821.2238
682.2298, 819.1749
682.7119, 829.9348
683.1940, 839.7737
683.6761, 842.4099
684.1583, 841.2571
684.6404, 841.4709
685.1225, 842.7704
685.6046, 847.2214
686.0867, 860.8372
686.5688, 869.4548
687.0510, 865.5084
687.5331, 856.6060
688.0152, 850.7839
688.4973, 849.1562
688.9794, 848.2946
689.4615, 846.9108
689.9437, 845.3568
690.4258, 843.7321
690.9079, 842.2300
691.3900, 841.7522
691.8721, 842.4616
692.3542, 842.1907
692.8364, 837.3674
693.3185, 828.8210
693.8006, 828.6647
694.2827, 840.6749
694.7648, 849.7064
695.2469, 849.3655
695.7291, 846.1248
696.2112, 847.0765
696.6933, 851.8619
697.1754, 855.6144
697.6575, 857.4676
698.1396, 858.2440
698.6218, 859.0363
699.1039, 858.5616
699.5860, 853.7895
700.0681, 845.4255
700.5502, 838.3906
701.0323, 835.8063
701.5145, 837.9868
701.9966, 851.2357
702.4787, 874.7267
702.9608, 877.0834
703.4429, 846.2040
703.9250, 813.5052
704.4072, 806.7536
704.8893, 821.7912
705.3714, 829.0806
705.8535, 818.4302
706.3356, 814.5239
706.8177, 825.7823
707.2999, 838.3234
707.7820, 843.1176
708.2641, 841.3487
708.7462, 837.4536
709.2283, 832.1798
709.7104, 829.0613
710.1926, 834.1956
710.6747, 843.0998
711.1568, 844.5001
711.6389, 838.2852
712.1210, 835.3883
712.6031, 842.5203
713.0853, 854.8340
713.5674, 861.9781
714.0495, 863.0874
714.5316, 861.9197
715.0137, 856.7784
715.4958, 851.7063
715.9780, 848.6676
716.4601, 846.6158
716.9422, 843.8757
717.4243, 839.9812
717.9064, 837.7724
718.3885, 840.0600
718.8707, 842.7875
719.3528, 840.9225
719.8349, 837.5945
720.3170, 840.5752
720.7991, 851.6092
721.2813, 862.3222
721.7634, 862.6268
722.2455, 855.3630
722.7276, 853.5153
723.2097, 857.6206
723.6918, 860.6578
724.1740, 859.3268
724.6561, 858.8962
725.1382, 867.1186
725.6203, 884.4888
726.1024, 890.9738
726.5845, 876.4839
727.0667, 865.7216
727.5488, 864.8867
728.0309, 868.0640
728.5130, 871.2382
728.9951, 873.8144
729.4772, 876.0764
729.9594, 877.8989
730.4415, 879.9554
730.9236, 883.4238
731.4057, 887.4653
731.8878, 890.3434
732.3699, 891.8176
732.8521, 892.0791
733.3342, 891.0217
733.8163, 889.6467
734.2984, 890.3466
734.7805, 893.2043
735.2626, 898.3832
735.7448, 910.2001
736.2269, 917.2896
736.7090, 909.0533
737.1911, 894.1919
737.6732, 886.2308
738.1553, 886.4160
738.6375, 890.4498
739.1196, 897.9225
739.6017, 908.3980
740.0838, 926.6050
740.5659, 945.8334
741.0480, 953.9307
741.5302, 948.4014
742.0123, 939.6546
742.4944, 935.8567
742.9765, 936.1413
743.4586, 940.3616
743.9407, 947.8235
744.4229, 949.9033
744.9050, 943.0901
745.3871, 937.6797
745.8692, 945.0628
746.3513, 963.9648
746.8334, 977.2869
747.3156, 982.2120
747.7977, 986.5571
748.2798, 993.4691
748.7619, 998.1772
749.2440, 995.7274
749.7261, 988.7016
750.2083, 984.7649
750.6904, 987.0104
751.1725, 989.9308
751.6546, 989.6995
752.1367, 989.5241
752.6188, 993.6224
753.1010, 1000.965
753.5831, 1007.433
754.0652, 1011.102
754.5473, 1013.969
755.0294, 1018.580
755.5115, 1024.802
755.9937, 1032.279
756.4758, 1041.239
756.9579, 1048.432
757.4400, 1052.529
757.9221, 1054.103
758.4042, 1053.407
758.8864, 1049.802
759.3685, 1048.950
759.8506, 1054.040
760.3327, 1057.883
760.8148, 1060.328
761.2969, 1060.139
761.7791, 1053.875
762.2612, 1043.213
762.7433, 1036.862
763.2254, 1041.077
763.7075, 1046.818
764.1896, 1048.723
764.6718, 1047.904
765.1539, 1046.195
765.6360, 1043.492
766.1181, 1037.637
766.6002, 1026.960
767.0823, 1014.923
767.5645, 1006.803
768.0466, 1002.635
768.5287, 1005.291
769.0108, 1016.506
769.4929, 1024.920
769.9750, 1023.546
770.4572, 1017.851
770.9393, 1017.812
771.4214, 1024.957
771.9035, 1031.718
772.3856, 1039.333
772.8677, 1045.115
773.3499, 1048.256
773.8320, 1049.263
774.3141, 1048.336
774.7962, 1045.661
775.2783, 1042.186
775.7604, 1035.607
776.2426, 1031.220
776.7247, 1034.276
777.2068, 1041.182
777.6889, 1047.426
778.1710, 1052.044
778.6531, 1055.023
779.1353, 1056.140
779.6174, 1056.675
780.0995, 1059.056
780.5816, 1063.122
781.0637, 1067.270
781.5458, 1071.348
782.0280, 1075.550
782.5101, 1080.365
782.9922, 1084.585
783.4743, 1085.185
783.9564, 1079.857
784.4385, 1080.173
784.9207, 1095.993
785.4028, 1104.799
785.8849, 1090.743
786.3670, 1073.507
786.8491, 1076.784
787.3312, 1099.865
787.8134, 1114.712
788.2955, 1104.702
788.7776, 1092.337
789.2597, 1088.946
789.7418, 1091.027
790.2239, 1096.218
790.7061, 1102.633
791.1882, 1105.652
791.6703, 1101.710
792.1524, 1097.129
792.6345, 1103.205
793.1166, 1116.621
793.5988, 1123.333
794.0809, 1122.282
794.5630, 1121.966
795.0451, 1126.798
795.5272, 1133.844
796.0093, 1137.882
796.4915, 1138.220
796.9736, 1141.843
797.4557, 1151.380
797.9378, 1159.126
798.4199, 1162.603
798.9020, 1163.406
799.3842, 1162.360
799.8663, 1159.748
800.3484, 1158.285
800.8305, 1155.756
801.3126, 1157.787
801.7947, 1168.745
802.2769, 1182.800
802.7590, 1194.919
803.2411, 1205.632
803.7232, 1218.478
804.2053, 1235.330
804.6874, 1251.853
805.1696, 1263.471
805.6517, 1272.277
806.1338, 1281.008
806.6159, 1290.167
807.0980, 1301.056
807.5801, 1314.212
808.0623, 1327.491
808.5444, 1337.988
809.0265, 1346.395
809.5086, 1358.148
809.9907, 1373.938
810.4728, 1387.896
810.9550, 1397.827
811.4371, 1407.360
811.9192, 1419.135
812.4013, 1433.282
812.8834, 1450.435
813.3655, 1475.454
813.8477, 1495.931
814.3298, 1503.886
814.8119, 1515.575
815.2940, 1543.215
815.7761, 1578.215
816.2582, 1605.039
816.7404, 1619.790
817.2225, 1638.645
817.7046, 1671.097
818.1867, 1707.227
818.6688, 1741.187
819.1509, 1773.031
819.6331, 1801.584
820.1152, 1827.967
820.5973, 1858.194
821.0794, 1896.516
821.5615, 1941.475
822.0436, 1990.666
822.5258, 2044.764
823.0079, 2107.546
823.4900, 2179.040
823.9721, 2252.880
824.4542, 2325.499
824.9363, 2398.662
825.4185, 2474.385
825.9006, 2551.909
826.3827, 2639.297
826.8648, 2737.391
827.3469, 2841.429
827.8290, 2942.496
828.3111, 3056.983
828.7932, 3209.515
829.2753, 3400.926
829.7574, 3584.710
830.2396, 3738.064
830.7217, 3913.573
831.2038, 4114.905
831.6859, 4344.277
832.1680, 4607.722
832.6501, 4900.903
833.1323, 5214.617
833.6144, 5539.192
834.0965, 5905.277
834.5786, 6331.583
835.0607, 6800.091
835.5428, 7289.070
836.0250, 7808.722
836.5071, 8378.847
836.9892, 9004.063
837.4713, 9679.874
837.9534, 10405.09
838.4355, 11176.00
838.9177, 11994.97
839.3998, 12854.71
839.8819, 13728.47
840.3640, 14611.20
840.8461, 15514.73
841.3282, 16450.23
841.8104, 17376.77
842.2925, 18202.96
842.7746, 18932.11
843.2567, 19512.20
843.7388, 19954.99
844.2209, 20208.70
844.7031, 20246.91
845.1852, 20090.31
845.6673, 19761.82
846.1494, 19261.97
846.6315, 18611.60
847.1136, 17730.06
847.5958, 16809.02
848.0779, 15844.23
848.5600, 14874.39
849.0421, 13893.88
849.5242, 12930.85
850.0063, 12038.80
850.4885, 11235.06
850.9706, 10483.05
851.4527, 9755.079
851.9348, 9088.924
852.4169, 8530.707
852.8990, 8046.231
853.3812, 7569.919
853.8633, 7091.502
854.3454, 6661.366
854.8275, 6325.639
855.3096, 6046.911
855.7917, 5790.649
856.2739, 5552.964
856.7560, 5318.939
857.2381, 5092.443
857.7202, 4908.320
858.2023, 4788.651
858.6844, 4703.796
859.1666, 4602.878
859.6487, 4491.470
860.1308, 4409.965
860.6129, 4359.881
861.0950, 4327.655
861.5771, 4308.983
862.0593, 4303.089
862.5414, 4310.164
863.0235, 4329.177
863.5056, 4349.333
863.9877, 4365.680
864.4698, 4398.871
864.9520, 4460.931
865.4341, 4526.405
865.9162, 4586.733
866.3983, 4637.358
866.8804, 4665.167
867.3625, 4667.003
867.8447, 4658.391
868.3268, 4643.626
868.8089, 4613.959
869.2910, 4574.347
869.7731, 4512.880
870.2552, 4411.043
870.7374, 4273.778
871.2195, 4131.783
871.7016, 3995.892
872.1837, 3857.228
872.6658, 3711.608
873.1479, 3561.638
873.6301, 3405.442
874.1122, 3246.593
874.5943, 3087.107
875.0764, 2928.483
875.5585, 2781.469
876.0406, 2654.017
876.5228, 2541.919
877.0049, 2444.145
877.4870, 2355.605
877.9691, 2263.290
878.4512, 2165.445
878.9333, 2069.011
879.4155, 1977.335
879.8976, 1895.608
880.3797, 1839.723
880.8618, 1803.808
881.3439, 1753.983
881.8260, 1688.486
882.3082, 1629.379
882.7903, 1586.179
883.2724, 1550.369
883.7545, 1512.558
884.2366, 1472.918
884.7188, 1433.860
885.2009, 1394.583
885.6830, 1358.944
886.1651, 1326.981
886.6472, 1300.089
887.1293, 1279.750
887.6115, 1264.721
888.0936, 1252.589
888.5757, 1245.968
889.0578, 1233.625
889.5399, 1212.322
890.0220, 1189.649
890.5042, 1163.685
890.9863, 1140.156
891.4684, 1126.406
891.9505, 1120.636
892.4326, 1110.924
892.9147, 1086.999
893.3969, 1072.457
893.8790, 1085.137
894.3611, 1095.980
894.8432, 1082.582
895.3253, 1055.951
895.8074, 1034.505
896.2896, 1022.020
896.7717, 1014.934
897.2538, 1015.077
897.7359, 1016.130
898.2180, 1014.602
898.7001, 1010.940
899.1823, 1004.696
899.6644, 996.9488
900.1465, 990.9462
900.6286, 988.5002
901.1107, 986.0485
901.5928, 978.4324
902.0750, 969.7618
902.5571, 966.4984
903.0392, 967.6431
903.5213, 970.8671
904.0034, 974.8519
904.4855, 975.1346
904.9677, 966.9949
905.4498, 955.6215
905.9319, 952.5905
906.4140, 955.5173
906.8961, 951.8243
907.3782, 940.9535
907.8604, 934.1456
908.3425, 936.7701
908.8246, 943.7221
909.3067, 948.7424
909.7888, 951.8506
910.2709, 952.7906
910.7531, 951.2889
911.2352, 950.6390
911.7173, 951.5233
912.1994, 953.1005
912.6815, 954.7324
913.1636, 956.7620
913.6458, 960.1537
914.1279, 965.2570
914.6100, 969.4528
915.0921, 970.2986
915.5742, 976.4871
916.0563, 995.0387
916.5385, 1014.158
917.0206, 1021.366
917.5027, 1018.419
917.9848, 1017.815
918.4669, 1017.103
918.9490, 1022.829
919.4312, 1033.353
919.9133, 1052.324
920.3954, 1089.132
920.8775, 1130.839
921.3596, 1158.202
921.8417, 1170.322
922.3239, 1190.896
922.8060, 1225.140
923.2881, 1265.747
923.7702, 1310.348
924.2523, 1360.927
924.7344, 1421.735
925.2166, 1488.600
925.6987, 1552.910
926.1808, 1611.797
926.6629, 1675.086
927.1450, 1746.885
927.6271, 1823.929
928.1093, 1910.624
928.5914, 1996.940
929.0735, 2074.443
929.5556, 2141.182
930.0377, 2198.430
930.5198, 2247.860
931.0020, 2283.064
931.4841, 2296.766
931.9662, 2296.643
932.4483, 2286.118
932.9304, 2269.708
933.4125, 2252.216
933.8947, 2236.054
934.3768, 2224.966
934.8589, 2218.805
935.3410, 2224.545
935.8231, 2253.847
936.3052, 2298.586
936.7874, 2349.760
937.2695, 2402.914
937.7516, 2447.266
938.2337, 2479.476
938.7158, 2508.597
939.1979, 2551.287
939.6801, 2588.036
940.1622, 2579.775
940.6443, 2533.423
941.1264, 2468.369
941.6085, 2388.179
942.0906, 2296.796
942.5728, 2195.740
943.0549, 2087.543
943.5370, 1971.800
944.0191, 1852.405
944.5012, 1744.945
944.9833, 1649.078
945.4655, 1563.085
945.9476, 1486.372
946.4297, 1420.563
946.9118, 1367.825
947.3939, 1323.344
947.8760, 1275.943
948.3582, 1226.159
948.8403, 1195.194
949.3224, 1185.194
949.8045, 1165.408
950.2866, 1124.560
950.7687, 1085.654
951.2509, 1069.364
951.7330, 1069.475
952.2151, 1065.687
952.6972, 1057.399
953.1793, 1049.775
953.6614, 1043.555
954.1436, 1035.523
954.6257, 1023.959
955.1078, 1010.977
955.5899, 997.8884
956.0720, 985.5763
956.5541, 981.7479
957.0363, 988.3694
957.5184, 997.3576
958.0005, 1009.130
958.4826, 1020.981
958.9647, 1031.635
959.4468, 1041.603
959.9290, 1050.952
960.4111, 1059.672
960.8932, 1071.891
961.3753, 1086.606
961.8574, 1107.146
962.3395, 1137.109
962.8217, 1168.254
963.3038, 1196.915
963.7859, 1223.125
964.2680, 1245.258
964.7501, 1261.456
965.2322, 1286.753
965.7144, 1338.311
966.1965, 1373.306
966.6786, 1377.969
967.1607, 1371.169
967.6428, 1363.771
968.1249, 1353.541
968.6071, 1335.002
969.0892, 1306.585
969.5713, 1276.097
970.0534, 1246.132
970.5355, 1211.089
971.0176, 1163.320
971.4998, 1115.505
971.9819, 1076.982
972.4640, 1046.419
972.9461, 1019.605
973.4282, 997.6933
973.9103, 974.5286
974.3925, 947.7552
974.8746, 921.6325
975.3567, 892.9514
975.8388, 869.5348
976.3209, 862.5062
976.8030, 867.3603
977.2852, 865.5703
977.7673, 850.5295
978.2494, 838.0679
978.7315, 834.8844
979.2136, 831.2908
979.6957, 821.5699
980.1779, 809.8355
980.6600, 803.4953
981.1421, 800.2988
981.6242, 786.3892
982.1063, 749.1479
982.5884, 721.5221
983.0706, 720.7052
983.5527, 723.8765
984.0348, 717.6411
984.5169, 707.8320
984.9990, 703.3631
985.4811, 704.0911
985.9633, 702.1121
986.4454, 692.8228
986.9275, 684.7498
987.4096, 682.1232
987.8917, 680.5855
988.3738, 679.4146
988.8560, 676.2476
989.3381, 665.9756
989.8202, 649.4351
990.3023, 637.2642
990.7844, 633.3968
991.2665, 634.1782
991.7487, 644.1707
992.2308, 652.2796
992.7129, 645.8994
993.1950, 634.0595
993.6771, 632.3105
994.1592, 642.1838
994.6414, 651.0468
995.1235, 654.3163
995.6056, 654.9922
996.0877, 653.6567
996.5698, 651.0143
997.0519, 646.6321
997.5341, 641.7867
998.0162, 638.3192
998.4983, 636.5818
998.9804, 636.1026
999.4625, 638.4391
999.9446, 639.6536
1000.427, 635.4756
1000.909, 631.5977
1001.391, 634.1402
1001.873, 639.9863
1002.355, 644.0058
1002.837, 644.9501
1003.319, 641.7025
1003.802, 627.9050
1004.284, 617.3889
1004.766, 618.0806
1005.248, 623.9273
1005.730, 634.0075
1006.212, 643.6792
1006.694, 644.4116
1007.176, 635.0303
1007.659, 626.2931
1008.141, 624.6192
1008.623, 622.2496
1009.105, 612.2170
1009.587, 602.8392
1010.069, 601.7599
1010.551, 606.4874
1011.033, 612.7752
1011.515, 619.5007
1011.998, 623.2710
1012.480, 621.7335
1012.962, 618.1944
1013.444, 614.3823
1013.926, 608.9843
1014.408, 596.2116
1014.890, 582.8978
1015.372, 583.7348
1015.854, 600.7092
1016.337, 612.7260
1016.819, 606.2777
1017.301, 600.8613
1017.783, 608.7308
1018.265, 616.7694
1018.747, 613.7839
1019.229, 603.8793
1019.711, 593.8758
1020.194, 585.1359
1020.676, 581.0613
1021.158, 585.4605
1021.640, 591.0060
1022.122, 598.8130
1022.604, 603.1484
1023.086, 594.2005
1023.568, 581.5891
1024.051, 584.4766
1024.533, 604.3785
1025.015, 613.3847
1025.497, 592.0950
1025.979, 575.9272
1026.461, 579.4803
1026.943, 586.5727
1027.425, 586.0446
1027.907, 582.6086
1028.390, 585.0709
1028.872, 593.9460
1029.354, 600.3887
1029.836, 601.5031
1030.318, 601.7875
1030.800, 605.0400
1031.282, 604.5477
1031.764, 590.0877
1032.246, 573.3584
1032.729, 572.4355
1033.211, 587.3124
1033.693, 598.1526
1034.175, 601.1478
1034.657, 602.4253
1035.139, 598.1532
1035.621, 597.5717
1036.103, 612.8118
1036.586, 628.9392
1037.068, 624.0328
1037.550, 599.8751
1038.032, 587.0502
1038.514, 595.6054
1038.996, 600.7853
1039.478, 600.4338
1039.960, 598.8300
1040.443, 595.9639
1040.925, 593.9254
1041.407, 595.6229
##END=



