##NAMES=Chondrodite
##RRUFFID=R110158
##IDEAL CHEMISTRY=Mg_5_(SiO_4_)_2_F_2_
##LOCALITY=Pein Pyit, Mogok, Mandalay Division, Burma
##OWNER=RRUFF
##SOURCE=Marcus Origlieri
##DESCRIPTION=Orange bleb enclosed in calcite, associated with red spinel
##STATUS=The identification of this mineral has been confirmed by single-crystal X-ray diffraction.
##URL=rruff.info/R110158
220.6637, 62257.29
221.1458, 62342.08
221.6279, 62428.87
222.1100, 62523.87
222.5921, 62605.38
223.0743, 62674.05
223.5564, 62728.62
224.0385, 62763.12
224.5206, 62770.32
225.0027, 62770.52
225.4848, 62774.43
225.9670, 62779.47
226.4491, 62799.36
226.9312, 62843.07
227.4133, 62904.23
227.8954, 62951.96
228.3775, 62981.04
228.8597, 63003.99
229.3418, 63029.25
229.8239, 63064.55
230.3060, 63080.76
230.7881, 63060.63
231.2702, 63016.44
231.7524, 63012.21
232.2345, 63062.26
232.7166, 63128.22
233.1987, 63187.01
233.6808, 63231.73
234.1629, 63281.21
234.6451, 63342.30
235.1272, 63408.48
235.6093, 63453.87
236.0914, 63471.95
236.5735, 63478.39
237.0556, 63481.30
237.5378, 63480.23
238.0199, 63479.47
238.5020, 63481.35
238.9841, 63485.64
239.4662, 63488.16
239.9483, 63487.48
240.4305, 63490.81
240.9126, 63504.95
241.3947, 63543.79
241.8768, 63565.13
242.3589, 63558.51
242.8410, 63534.38
243.3232, 63528.04
243.8053, 63539.77
244.2874, 63568.52
244.7695, 63616.16
245.2516, 63696.52
245.7337, 63759.66
246.2159, 63788.31
246.6980, 63798.84
247.1801, 63850.17
247.6622, 63973.39
248.1443, 64088.68
248.6264, 64152.72
249.1086, 64135.89
249.5907, 64139.69
250.0728, 64172.08
250.5549, 64224.86
251.0370, 64277.63
251.5191, 64338.82
252.0013, 64389.32
252.4834, 64418.75
252.9655, 64414.52
253.4476, 64425.17
253.9297, 64455.87
254.4118, 64500.18
254.8940, 64544.34
255.3761, 64589.45
255.8582, 64632.20
256.3403, 64670.25
256.8224, 64701.45
257.3046, 64730.93
257.7867, 64758.03
258.2688, 64781.42
258.7509, 64797.31
259.2330, 64799.65
259.7151, 64804.06
260.1973, 64816.46
260.6794, 64837.80
261.1615, 64861.35
261.6436, 64889.54
262.1257, 64918.26
262.6078, 64938.91
263.0900, 64947.03
263.5721, 64961.33
264.0542, 64991.75
264.5363, 65043.69
265.0184, 65087.55
265.5005, 65125.89
265.9827, 65157.12
266.4648, 65172.02
266.9469, 65156.44
267.4290, 65167.96
267.9111, 65238.64
268.3932, 65374.46
268.8754, 65447.93
269.3575, 65431.30
269.8396, 65392.11
270.3217, 65420.05
270.8038, 65529.68
271.2859, 65643.49
271.7681, 65739.90
272.2502, 65818.29
272.7323, 65894.17
273.2144, 65964.77
273.6965, 66034.76
274.1786, 66111.95
274.6608, 66200.80
275.1429, 66277.73
275.6250, 66338.64
276.1071, 66383.46
276.5892, 66407.74
277.0714, 66406.89
277.5535, 66398.09
278.0356, 66399.38
278.5177, 66412.52
278.9998, 66414.02
279.4819, 66396.84
279.9641, 66364.23
280.4462, 66336.45
280.9283, 66317.70
281.4104, 66283.86
281.8925, 66202.91
282.3746, 66074.16
282.8568, 65969.67
283.3389, 65905.37
283.8210, 65871.89
284.3031, 65848.75
284.7852, 65839.41
285.2673, 65824.87
285.7495, 65778.81
286.2316, 65707.01
286.7137, 65675.91
287.1958, 65702.53
287.6779, 65762.84
288.1600, 65810.83
288.6422, 65846.23
289.1243, 65875.41
289.6064, 65896.44
290.0885, 65911.22
290.5706, 65929.41
291.0527, 65947.16
291.5349, 65975.41
292.0170, 66042.26
292.4991, 66142.40
292.9812, 66234.91
293.4633, 66297.88
293.9454, 66334.70
294.4276, 66348.43
294.9097, 66333.89
295.3918, 66320.52
295.8739, 66354.95
296.3560, 66427.52
296.8381, 66493.05
297.3203, 66519.77
297.8024, 66526.55
298.2845, 66558.43
298.7666, 66619.52
299.2487, 66676.80
299.7308, 66686.70
300.2130, 66664.76
300.6951, 66655.27
301.1772, 66675.41
301.6593, 66717.84
302.1414, 66784.29
302.6235, 66873.14
303.1057, 66950.38
303.5878, 66978.66
304.0699, 66975.65
304.5520, 66973.09
305.0341, 66982.11
305.5162, 66995.77
305.9984, 67005.60
306.4805, 67012.73
306.9626, 67024.76
307.4447, 67052.94
307.9268, 67087.21
308.4089, 67112.73
308.8911, 67118.11
309.3732, 67125.73
309.8553, 67160.64
310.3374, 67214.75
310.8195, 67261.13
311.3016, 67273.79
311.7838, 67276.63
312.2659, 67292.79
312.7480, 67332.52
313.2301, 67370.58
313.7122, 67383.18
314.1943, 67383.06
314.6765, 67396.99
315.1586, 67455.58
315.6407, 67519.02
316.1228, 67562.61
316.6049, 67580.39
317.0870, 67590.55
317.5692, 67600.05
318.0513, 67607.27
318.5334, 67609.78
319.0155, 67616.32
319.4976, 67610.09
319.9797, 67567.40
320.4619, 67480.57
320.9440, 67435.84
321.4261, 67499.64
321.9082, 67599.22
322.3903, 67665.55
322.8724, 67653.31
323.3546, 67635.73
323.8367, 67628.92
324.3188, 67632.98
324.8009, 67640.70
325.2830, 67655.40
325.7651, 67671.48
326.2473, 67685.59
326.7294, 67703.70
327.2115, 67715.70
327.6936, 67717.93
328.1757, 67714.20
328.6578, 67719.44
329.1400, 67745.57
329.6221, 67773.65
330.1042, 67796.84
330.5863, 67819.63
331.0684, 67829.73
331.5505, 67807.02
332.0327, 67774.09
332.5148, 67782.79
332.9969, 67852.05
333.4790, 67933.42
333.9611, 68011.82
334.4432, 68085.23
334.9254, 68154.30
335.4075, 68218.87
335.8896, 68274.85
336.3717, 68316.18
336.8538, 68339.08
337.3359, 68352.82
337.8180, 68357.20
338.3001, 68352.71
338.7823, 68356.05
339.2644, 68372.05
339.7465, 68389.52
340.2286, 68403.40
340.7107, 68418.95
341.1928, 68405.26
341.6750, 68347.78
342.1571, 68261.45
342.6392, 68209.59
343.1213, 68198.63
343.6034, 68189.66
344.0855, 68143.30
344.5677, 68062.80
345.0498, 68017.57
345.5319, 68020.96
346.0140, 68055.49
346.4961, 68097.48
346.9782, 68145.93
347.4604, 68181.34
347.9425, 68173.82
348.4246, 68141.16
348.9067, 68153.95
349.3888, 68221.15
349.8709, 68307.51
350.3531, 68378.31
350.8352, 68433.87
351.3173, 68475.80
351.7994, 68490.26
352.2815, 68495.90
352.7636, 68525.09
353.2458, 68577.16
353.7279, 68638.10
354.2100, 68698.36
354.6921, 68758.11
355.1742, 68819.63
355.6563, 68898.40
356.1385, 68963.15
356.6206, 68969.35
357.1027, 68928.31
357.5848, 68897.31
358.0669, 68915.73
358.5490, 68957.79
359.0312, 69001.65
359.5133, 69048.59
359.9954, 69086.95
360.4775, 69103.35
360.9596, 69107.60
361.4417, 69119.52
361.9239, 69159.93
362.4060, 69201.89
362.8881, 69232.01
363.3702, 69248.86
363.8523, 69255.55
364.3344, 69239.16
364.8166, 69218.12
365.2987, 69213.42
365.7808, 69245.23
366.2629, 69279.01
366.7450, 69303.49
367.2271, 69318.30
367.7093, 69340.42
368.1914, 69387.49
368.6735, 69431.51
369.1556, 69453.83
369.6377, 69418.10
370.1198, 69403.59
370.6020, 69423.01
371.0841, 69466.22
371.5662, 69497.58
372.0483, 69509.20
372.5304, 69516.78
373.0125, 69527.16
373.4947, 69543.70
373.9768, 69551.16
374.4589, 69545.30
374.9410, 69533.70
375.4231, 69527.17
375.9052, 69524.45
376.3874, 69533.80
376.8695, 69560.67
377.3516, 69606.24
377.8337, 69657.83
378.3158, 69720.46
378.7979, 69782.07
379.2801, 69824.13
379.7622, 69845.93
380.2443, 69886.00
380.7264, 69955.42
381.2085, 70045.51
381.6906, 70134.20
382.1728, 70220.23
382.6549, 70308.84
383.1370, 70397.27
383.6191, 70488.09
384.1012, 70596.10
384.5833, 70728.26
385.0655, 70856.86
385.5476, 70944.51
386.0297, 70996.77
386.5118, 71031.28
386.9939, 71066.59
387.4760, 71085.84
387.9582, 71058.10
388.4403, 70982.97
388.9224, 70895.68
389.4045, 70829.68
389.8866, 70770.58
390.3687, 70695.36
390.8509, 70573.70
391.3330, 70461.91
391.8151, 70414.00
392.2972, 70415.28
392.7793, 70402.89
393.2614, 70324.79
393.7436, 70234.86
394.2257, 70170.11
394.7078, 70143.11
395.1899, 70126.45
395.6720, 70108.87
396.1541, 70094.62
396.6363, 70090.82
397.1184, 70099.42
397.6005, 70117.52
398.0826, 70151.14
398.5647, 70204.34
399.0468, 70236.84
399.5290, 70221.52
400.0111, 70197.01
400.4932, 70194.59
400.9753, 70238.54
401.4574, 70272.72
401.9395, 70286.63
402.4217, 70286.21
402.9038, 70299.70
403.3859, 70335.29
403.8680, 70373.13
404.3501, 70403.16
404.8322, 70421.48
405.3144, 70444.41
405.7965, 70471.41
406.2786, 70503.27
406.7607, 70544.85
407.2428, 70599.39
407.7249, 70644.09
408.2071, 70667.65
408.6892, 70673.77
409.1713, 70684.28
409.6534, 70698.53
410.1355, 70719.70
410.6176, 70755.93
411.0998, 70803.57
411.5819, 70838.90
412.0640, 70851.30
412.5461, 70858.83
413.0282, 70907.48
413.5103, 70986.47
413.9925, 71034.70
414.4746, 70985.00
414.9567, 70892.18
415.4388, 70849.65
415.9209, 70869.58
416.4030, 70891.41
416.8852, 70866.64
417.3673, 70809.77
417.8494, 70744.57
418.3315, 70668.63
418.8136, 70597.92
419.2957, 70541.34
419.7779, 70499.70
420.2600, 70469.83
420.7421, 70465.23
421.2242, 70464.78
421.7063, 70450.05
422.1884, 70396.21
422.6706, 70370.18
423.1527, 70416.52
423.6348, 70498.62
424.1169, 70547.14
424.5990, 70515.48
425.0811, 70483.11
425.5633, 70469.04
426.0454, 70471.76
426.5275, 70496.98
427.0096, 70559.55
427.4917, 70630.55
427.9738, 70684.88
428.4560, 70709.70
428.9381, 70744.05
429.4202, 70803.63
429.9023, 70871.97
430.3844, 70891.53
430.8665, 70849.66
431.3487, 70794.16
431.8308, 70737.27
432.3129, 70677.12
432.7950, 70673.39
433.2771, 70741.86
433.7592, 70828.42
434.2414, 70861.52
434.7235, 70845.54
435.2056, 70826.84
435.6877, 70817.08
436.1698, 70817.13
436.6519, 70832.91
437.1341, 70863.99
437.6162, 70894.97
438.0983, 70915.37
438.5804, 70928.52
439.0625, 70938.28
439.5446, 70943.55
440.0268, 70952.11
440.5089, 70968.55
440.9910, 70993.29
441.4731, 71026.85
441.9552, 71095.38
442.4373, 71151.73
442.9195, 71153.34
443.4016, 71100.30
443.8837, 71059.05
444.3658, 71056.95
444.8479, 71075.72
445.3300, 71101.16
445.8122, 71137.46
446.2943, 71169.41
446.7764, 71195.32
447.2585, 71214.63
447.7406, 71226.76
448.2227, 71232.26
448.7049, 71229.82
449.1870, 71215.45
449.6691, 71185.65
450.1512, 71171.41
450.6333, 71184.29
451.1154, 71202.23
451.5976, 71204.52
452.0797, 71188.86
452.5618, 71168.95
453.0439, 71144.82
453.5260, 71120.62
454.0081, 71106.92
454.4903, 71104.88
454.9724, 71108.20
455.4545, 71110.73
455.9366, 71113.91
456.4187, 71129.41
456.9008, 71157.07
457.3830, 71195.41
457.8651, 71249.78
458.3472, 71313.46
458.8293, 71363.58
459.3114, 71387.32
459.7935, 71397.74
460.2757, 71411.86
460.7578, 71427.24
461.2399, 71435.71
461.7220, 71428.17
462.2041, 71413.29
462.6862, 71396.34
463.1684, 71375.73
463.6505, 71367.65
464.1326, 71404.09
464.6147, 71452.63
465.0968, 71471.54
465.5789, 71412.89
466.0611, 71360.93
466.5432, 71347.39
467.0253, 71369.74
467.5074, 71384.38
467.9895, 71374.63
468.4716, 71366.48
468.9538, 71371.88
469.4359, 71393.83
469.9180, 71423.07
470.4001, 71469.10
470.8822, 71514.66
471.3643, 71530.25
471.8465, 71501.53
472.3286, 71481.32
472.8107, 71483.87
473.2928, 71505.32
473.7749, 71530.78
474.2570, 71562.61
474.7392, 71582.08
475.2213, 71557.45
475.7034, 71499.86
476.1855, 71495.88
476.6676, 71567.01
477.1497, 71652.66
477.6319, 71662.78
478.1140, 71617.89
478.5961, 71583.20
479.0782, 71593.16
479.5603, 71625.00
480.0424, 71659.50
480.5246, 71695.36
481.0067, 71721.02
481.4888, 71713.88
481.9709, 71701.15
482.4530, 71710.10
482.9352, 71757.34
483.4173, 71796.11
483.8994, 71797.05
484.3815, 71779.30
484.8636, 71772.34
485.3457, 71789.70
485.8279, 71810.45
486.3100, 71833.57
486.7921, 71859.13
487.2742, 71870.97
487.7563, 71853.23
488.2384, 71840.27
488.7206, 71855.76
489.2027, 71921.52
489.6848, 71957.07
490.1669, 71947.80
490.6490, 71924.45
491.1311, 71941.48
491.6133, 72006.09
492.0954, 72059.20
492.5775, 72075.57
493.0596, 72067.68
493.5417, 72084.58
494.0238, 72125.52
494.5060, 72172.83
494.9881, 72220.14
495.4702, 72261.45
495.9523, 72281.51
496.4344, 72274.23
496.9165, 72258.52
497.3987, 72248.85
497.8808, 72244.52
498.3629, 72244.98
498.8450, 72255.14
499.3271, 72266.25
499.8092, 72276.84
500.2914, 72285.98
500.7735, 72285.85
501.2556, 72270.07
501.7377, 72248.73
502.2198, 72227.36
502.7019, 72205.17
503.1841, 72189.52
503.6662, 72186.91
504.1483, 72190.26
504.6304, 72190.66
505.1125, 72180.96
505.5946, 72179.99
506.0768, 72191.73
506.5589, 72213.89
507.0410, 72240.28
507.5231, 72275.84
508.0052, 72299.17
508.4873, 72287.32
508.9695, 72239.35
509.4516, 72231.54
509.9337, 72270.05
510.4158, 72321.43
510.8979, 72350.23
511.3800, 72359.16
511.8622, 72359.92
512.3443, 72355.13
512.8264, 72344.20
513.3085, 72319.26
513.7906, 72285.86
514.2728, 72263.36
514.7549, 72283.41
515.2370, 72306.72
515.7191, 72292.66
516.2012, 72236.59
516.6833, 72189.90
517.1655, 72181.13
517.6476, 72190.58
518.1297, 72201.58
518.6118, 72209.95
519.0939, 72221.41
519.5760, 72242.59
520.0582, 72267.27
520.5403, 72279.91
521.0224, 72257.55
521.5045, 72254.53
521.9866, 72288.55
522.4688, 72359.37
522.9509, 72432.41
523.4330, 72512.77
523.9151, 72582.24
524.3972, 72620.40
524.8793, 72625.64
525.3615, 72638.87
525.8436, 72662.11
526.3257, 72696.40
526.8078, 72759.10
527.2899, 72839.78
527.7720, 72887.07
528.2542, 72858.61
528.7363, 72802.17
529.2184, 72782.95
529.7005, 72795.22
530.1826, 72806.70
530.6647, 72785.01
531.1469, 72762.63
531.6290, 72774.97
532.1111, 72837.45
532.5932, 72886.48
533.0753, 72884.04
533.5574, 72862.77
534.0396, 72856.52
534.5217, 72893.76
535.0038, 72921.39
535.4859, 72922.95
535.9680, 72909.97
536.4501, 72918.23
536.9323, 72956.72
537.4144, 73001.80
537.8965, 73046.78
538.3786, 73091.37
538.8607, 73124.75
539.3428, 73141.29
539.8250, 73160.64
540.3071, 73203.50
540.7892, 73266.47
541.2713, 73326.58
541.7534, 73378.84
542.2355, 73429.09
542.7177, 73484.20
543.1998, 73544.22
543.6819, 73607.92
544.1640, 73689.08
544.6461, 73763.05
545.1282, 73793.85
545.6104, 73790.11
546.0925, 73805.26
546.5746, 73889.65
547.0567, 73986.75
547.5388, 74065.09
548.0209, 74125.60
548.5031, 74147.27
548.9852, 74089.63
549.4673, 74008.07
549.9494, 73963.71
550.4315, 74017.32
550.9136, 74011.12
551.3958, 73903.55
551.8779, 73730.60
552.3600, 73602.27
552.8421, 73525.22
553.3242, 73465.98
553.8063, 73419.03
554.2885, 73380.70
554.7706, 73313.96
555.2527, 73215.99
555.7348, 73122.70
556.2169, 73072.12
556.6990, 73051.02
557.1812, 73021.98
557.6633, 72977.03
558.1454, 72934.38
558.6275, 72913.47
559.1096, 72907.55
559.5917, 72903.84
560.0739, 72887.74
560.5560, 72882.34
561.0381, 72911.11
561.5202, 72963.97
562.0023, 72997.66
562.4844, 72988.61
562.9666, 72967.78
563.4487, 72942.63
563.9308, 72906.96
564.4129, 72897.88
564.8950, 72929.98
565.3771, 72971.63
565.8593, 72995.22
566.3414, 72994.45
566.8235, 73002.49
567.3056, 73026.36
567.7877, 73054.66
568.2698, 73066.76
568.7520, 73063.70
569.2341, 73055.92
569.7162, 73043.61
570.1983, 73033.16
570.6804, 73042.79
571.1625, 73069.59
571.6447, 73088.13
572.1268, 73058.96
572.6089, 73028.07
573.0910, 73047.42
573.5731, 73129.59
574.0552, 73212.21
574.5374, 73265.67
575.0195, 73307.20
575.5016, 73352.87
575.9837, 73392.48
576.4658, 73450.23
576.9479, 73546.95
577.4301, 73656.43
577.9122, 73724.73
578.3943, 73721.73
578.8764, 73734.48
579.3585, 73792.58
579.8406, 73886.30
580.3228, 73956.83
580.8049, 74004.30
581.2870, 74025.88
581.7691, 74010.55
582.2512, 73967.52
582.7333, 73940.13
583.2155, 73935.51
583.6975, 73911.95
584.1796, 73795.59
584.6617, 73642.85
585.1439, 73548.72
585.6260, 73561.48
586.1081, 73600.71
586.5902, 73647.78
587.0723, 73683.73
587.5544, 73671.63
588.0366, 73537.39
588.5187, 73416.38
589.0008, 73353.08
589.4829, 73345.48
589.9650, 73344.13
590.4471, 73354.02
590.9293, 73359.24
591.4114, 73346.09
591.8935, 73307.02
592.3756, 73303.52
592.8577, 73348.09
593.3398, 73392.96
593.8220, 73382.73
594.3041, 73324.52
594.7862, 73270.41
595.2683, 73229.02
595.7504, 73199.88
596.2325, 73185.62
596.7147, 73183.65
597.1968, 73186.05
597.6789, 73187.05
598.1610, 73194.61
598.6431, 73225.09
599.1252, 73271.23
599.6074, 73298.88
600.0895, 73277.32
600.5716, 73250.40
601.0537, 73240.77
601.5358, 73255.52
602.0179, 73260.61
602.5001, 73250.25
602.9822, 73235.54
603.4643, 73222.33
603.9464, 73206.65
604.4285, 73211.27
604.9106, 73245.14
605.3928, 73286.11
605.8749, 73292.01
606.3570, 73266.65
606.8391, 73264.93
607.3212, 73320.30
607.8033, 73385.77
608.2855, 73374.34
608.7676, 73305.96
609.2497, 73255.20
609.7318, 73291.39
610.2139, 73339.84
610.6960, 73339.17
611.1782, 73287.34
611.6603, 73230.98
612.1424, 73179.98
612.6245, 73133.98
613.1066, 73093.61
613.5887, 73061.95
614.0709, 73031.00
614.5530, 73001.72
615.0351, 72974.15
615.5172, 72946.37
615.9993, 72916.48
616.4814, 72898.01
616.9636, 72895.58
617.4457, 72901.55
617.9278, 72899.11
618.4099, 72889.14
618.8920, 72885.11
619.3741, 72901.46
619.8563, 72918.67
620.3384, 72904.96
620.8205, 72864.02
621.3026, 72817.17
621.7847, 72767.13
622.2668, 72722.08
622.7490, 72690.92
623.2311, 72675.41
623.7132, 72662.65
624.1953, 72649.35
624.6774, 72639.66
625.1595, 72638.80
625.6417, 72666.16
626.1238, 72666.13
626.6059, 72626.05
627.0880, 72575.61
627.5701, 72556.73
628.0522, 72573.41
628.5344, 72588.04
629.0165, 72591.43
629.4986, 72590.41
629.9807, 72595.57
630.4628, 72606.77
630.9449, 72624.95
631.4271, 72656.23
631.9092, 72689.41
632.3913, 72705.90
632.8734, 72708.82
633.3555, 72722.50
633.8376, 72772.88
634.3198, 72825.20
634.8019, 72858.26
635.2840, 72867.16
635.7661, 72870.11
636.2482, 72867.39
636.7303, 72861.27
637.2125, 72853.63
637.6946, 72844.77
638.1767, 72835.12
638.6588, 72825.91
639.1409, 72816.04
639.6230, 72803.49
640.1052, 72788.92
640.5873, 72776.80
641.0694, 72769.47
641.5515, 72764.70
642.0336, 72755.84
642.5157, 72746.36
642.9979, 72746.10
643.4800, 72767.15
643.9621, 72792.49
644.4442, 72808.80
644.9263, 72817.59
645.4084, 72830.16
645.8906, 72855.49
646.3727, 72880.84
646.8548, 72901.84
647.3369, 72919.23
647.8190, 72928.66
648.3011, 72932.40
648.7833, 72924.86
649.2654, 72894.70
649.7475, 72837.73
650.2296, 72806.66
650.7117, 72806.23
651.1938, 72823.51
651.6760, 72842.75
652.1581, 72866.46
652.6402, 72902.92
653.1223, 72957.23
653.6044, 73017.67
654.0865, 73089.30
654.5687, 73158.09
655.0508, 73198.20
655.5329, 73176.08
656.0150, 73148.48
656.4971, 73128.79
656.9792, 73119.28
657.4614, 73130.12
657.9435, 73183.74
658.4256, 73225.40
658.9077, 73231.77
659.3898, 73204.85
659.8719, 73197.40
660.3541, 73213.09
660.8362, 73230.43
661.3183, 73232.02
661.8004, 73222.52
662.2825, 73221.28
662.7646, 73229.78
663.2468, 73241.52
663.7289, 73264.05
664.2110, 73281.86
664.6931, 73270.80
665.1752, 73213.77
665.6573, 73161.32
666.1395, 73132.08
666.6216, 73121.68
667.1037, 73124.55
667.5858, 73148.89
668.0679, 73176.55
668.5500, 73207.96
669.0322, 73240.91
669.5143, 73272.97
669.9964, 73307.20
670.4785, 73323.71
670.9606, 73310.75
671.4427, 73279.05
671.9249, 73250.29
672.4070, 73226.20
672.8891, 73225.13
673.3712, 73279.83
673.8533, 73350.32
674.3354, 73387.13
674.8176, 73392.16
675.2997, 73397.17
675.7818, 73426.80
676.2639, 73455.23
676.7460, 73463.22
677.2281, 73440.13
677.7103, 73431.05
678.1924, 73439.39
678.6745, 73460.16
679.1566, 73488.50
679.6387, 73522.02
680.1208, 73580.52
680.6030, 73675.22
681.0851, 73768.59
681.5672, 73808.26
682.0493, 73804.79
682.5314, 73805.84
683.0135, 73822.63
683.4957, 73846.66
683.9778, 73879.65
684.4599, 73911.92
684.9420, 73924.43
685.4241, 73882.05
685.9063, 73849.28
686.3884, 73857.59
686.8705, 73896.40
687.3526, 73926.64
687.8347, 73937.88
688.3168, 73955.83
688.7990, 73994.95
689.2811, 74049.15
689.7632, 74067.84
690.2453, 74047.13
690.7274, 74020.95
691.2095, 74000.99
691.6917, 73991.17
692.1738, 74015.86
692.6559, 74072.36
693.1380, 74111.27
693.6201, 74064.29
694.1022, 73999.50
694.5844, 73988.45
695.0665, 74047.91
695.5486, 74103.45
696.0307, 74122.84
696.5128, 74130.98
696.9949, 74149.84
697.4771, 74202.02
697.9592, 74216.30
698.4413, 74176.42
698.9234, 74121.51
699.4055, 74106.26
699.8876, 74132.80
700.3698, 74137.36
700.8519, 74106.64
701.3340, 74061.26
701.8161, 74028.85
702.2982, 74005.36
702.7803, 73977.99
703.2625, 73927.00
703.7446, 73889.90
704.2267, 73901.91
704.7088, 73945.55
705.1909, 73982.98
705.6730, 73989.38
706.1552, 74002.77
706.6373, 74031.60
707.1194, 74072.77
707.6015, 74115.00
708.0836, 74155.91
708.5657, 74199.95
709.0479, 74254.64
709.5300, 74311.96
710.0121, 74332.73
710.4942, 74317.93
710.9763, 74306.09
711.4584, 74335.23
711.9406, 74375.60
712.4227, 74390.70
712.9048, 74379.32
713.3869, 74357.80
713.8690, 74325.38
714.3511, 74293.71
714.8333, 74271.09
715.3154, 74262.95
715.7975, 74257.09
716.2796, 74263.02
716.7617, 74262.84
717.2438, 74235.10
717.7260, 74175.73
718.2081, 74150.59
718.6902, 74169.29
719.1723, 74202.97
719.6544, 74216.73
720.1365, 74218.73
720.6187, 74228.91
721.1008, 74251.61
721.5829, 74281.43
722.0650, 74309.97
722.5471, 74343.35
723.0292, 74390.76
723.5114, 74470.67
723.9935, 74541.46
724.4756, 74585.51
724.9577, 74619.34
725.4398, 74674.51
725.9219, 74758.77
726.4041, 74835.99
726.8862, 74894.46
727.3683, 74944.45
727.8504, 75012.59
728.3325, 75095.34
728.8146, 75169.77
729.2968, 75229.37
729.7789, 75271.12
730.2610, 75276.99
730.7431, 75259.45
731.2252, 75260.14
731.7073, 75313.73
732.1895, 75373.37
732.6716, 75422.13
733.1537, 75459.43
733.6358, 75487.67
734.1179, 75493.22
734.6000, 75516.63
735.0822, 75589.87
735.5643, 75703.58
736.0464, 75737.97
736.5285, 75688.80
737.0106, 75653.73
737.4927, 75721.87
737.9749, 75843.30
738.4570, 75935.95
738.9391, 75995.11
739.4212, 76042.45
739.9033, 76097.43
740.3854, 76139.78
740.8676, 76145.54
741.3497, 76093.17
741.8318, 76081.64
742.3139, 76144.84
742.7960, 76216.58
743.2781, 76248.84
743.7603, 76233.34
744.2424, 76243.33
744.7245, 76288.77
745.2066, 76328.71
745.6887, 76304.05
746.1708, 76242.23
746.6530, 76217.10
747.1351, 76246.23
747.6172, 76288.73
748.0993, 76321.96
748.5814, 76349.62
749.0635, 76374.66
749.5457, 76390.37
750.0278, 76415.23
750.5099, 76445.52
750.9920, 76487.57
751.4741, 76555.95
751.9562, 76661.90
752.4384, 76733.11
752.9205, 76750.34
753.4026, 76743.27
753.8847, 76752.91
754.3668, 76777.54
754.8489, 76818.74
755.3311, 76898.11
755.8132, 76953.32
756.2953, 76897.30
756.7774, 76784.23
757.2595, 76710.43
757.7416, 76755.16
758.2238, 76785.41
758.7059, 76765.92
759.1880, 76715.38
759.6701, 76670.05
760.1522, 76634.33
760.6343, 76592.59
761.1165, 76536.02
761.5986, 76477.40
762.0807, 76449.66
762.5628, 76449.14
763.0449, 76452.77
763.5270, 76458.20
764.0092, 76455.23
764.4913, 76424.63
764.9734, 76375.89
765.4555, 76338.73
765.9376, 76327.16
766.4197, 76324.62
766.9019, 76330.64
767.3840, 76341.22
767.8661, 76338.88
768.3482, 76318.58
768.8303, 76297.72
769.3124, 76281.08
769.7946, 76269.82
770.2767, 76267.35
770.7588, 76273.68
771.2409, 76289.47
771.7230, 76318.66
772.2051, 76355.55
772.6873, 76397.34
773.1694, 76443.30
773.6515, 76487.09
774.1336, 76529.46
774.6157, 76567.38
775.0978, 76595.27
775.5800, 76614.41
776.0621, 76652.88
776.5442, 76713.63
777.0263, 76786.24
777.5084, 76863.87
777.9905, 76947.88
778.4727, 77046.53
778.9548, 77158.85
779.4369, 77273.38
779.9190, 77382.55
780.4011, 77488.15
780.8832, 77592.98
781.3654, 77695.80
781.8475, 77797.54
782.3296, 77905.25
782.8117, 78004.96
783.2938, 78093.51
783.7759, 78172.05
784.2581, 78228.70
784.7402, 78260.23
785.2223, 78282.59
785.7044, 78327.66
786.1865, 78376.16
786.6686, 78338.38
787.1508, 78213.15
787.6329, 78066.93
788.1150, 77933.16
788.5971, 77810.33
789.0792, 77701.62
789.5613, 77606.49
790.0435, 77512.88
790.5256, 77403.14
791.0077, 77303.96
791.4898, 77229.26
791.9719, 77181.77
792.4540, 77130.70
792.9362, 77072.43
793.4183, 77023.30
793.9004, 77016.70
794.3825, 77028.59
794.8646, 76981.25
795.3467, 76868.12
795.8289, 76760.04
796.3110, 76707.90
796.7931, 76686.02
797.2752, 76679.07
797.7573, 76690.55
798.2394, 76696.07
798.7216, 76684.16
799.2037, 76677.78
799.6858, 76694.33
800.1679, 76738.51
800.6500, 76772.88
801.1321, 76795.57
801.6143, 76825.50
802.0964, 76889.66
802.5785, 76970.11
803.0606, 77030.05
803.5427, 77063.50
804.0248, 77098.96
804.5070, 77130.90
804.9891, 77185.96
805.4712, 77293.54
805.9533, 77488.43
806.4354, 77629.41
806.9175, 77685.04
807.3997, 77730.63
807.8818, 77837.58
808.3639, 78002.13
808.8460, 78097.71
809.3281, 78118.42
809.8102, 78090.84
810.2924, 78002.52
810.7745, 77897.80
811.2566, 77845.15
811.7387, 77860.41
812.2208, 77866.65
812.7029, 77803.78
813.1851, 77744.05
813.6672, 77749.54
814.1493, 77852.13
814.6314, 77875.20
815.1135, 77790.27
815.5956, 77696.45
816.0778, 77684.07
816.5599, 77733.02
817.0420, 77746.18
817.5241, 77716.98
818.0062, 77692.32
818.4883, 77704.12
818.9705, 77739.68
819.4526, 77790.34
819.9347, 77856.10
820.4168, 77920.20
820.8989, 77986.35
821.3810, 78042.57
821.8632, 78084.35
822.3453, 78112.66
822.8274, 78117.90
823.3095, 78097.12
823.7916, 78079.22
824.2737, 78091.63
824.7559, 78123.78
825.2380, 78145.77
825.7201, 78157.68
826.2022, 78199.70
826.6843, 78319.35
827.1664, 78459.49
827.6486, 78576.00
828.1307, 78658.82
828.6128, 78773.09
829.0949, 78911.26
829.5770, 79094.76
830.0591, 79358.93
830.5413, 79690.97
831.0234, 79956.14
831.5055, 80154.66
831.9876, 80347.83
832.4697, 80575.43
832.9518, 80824.90
833.4340, 81075.59
833.9161, 81329.26
834.3982, 81635.72
834.8803, 82058.10
835.3624, 82493.10
835.8445, 82887.63
836.3267, 83243.62
836.8088, 83647.80
837.2909, 84101.66
837.7730, 84590.46
838.2551, 85095.08
838.7372, 85632.85
839.2194, 86256.48
839.7015, 86958.37
840.1836, 87692.66
840.6657, 88419.05
841.1478, 89182.13
841.6299, 90020.82
842.1121, 90928.51
842.5942, 91809.21
843.0763, 92650.80
843.5584, 93492.02
844.0405, 94387.45
844.5226, 95277.09
845.0048, 95954.89
845.4869, 96417.77
845.9690, 96629.84
846.4511, 96570.70
846.9332, 96251.77
847.4153, 95635.13
847.8975, 94765.52
848.3796, 93767.91
848.8617, 92593.88
849.3438, 91397.84
849.8259, 90195.62
850.3080, 89017.02
850.7902, 87944.37
851.2723, 86988.86
851.7544, 86129.01
852.2365, 85363.84
852.7186, 84685.74
853.2007, 84082.42
853.6829, 83555.25
854.1650, 83103.46
854.6471, 82745.42
855.1292, 82430.79
855.6113, 82131.03
856.0934, 81859.91
856.5756, 81637.82
857.0577, 81472.36
857.5398, 81335.83
858.0219, 81226.45
858.5040, 81137.66
858.9861, 81053.02
859.4683, 80977.76
859.9504, 80949.41
860.4325, 80986.68
860.9146, 81039.48
861.3967, 81051.77
861.8788, 81056.65
862.3610, 81096.00
862.8431, 81192.75
863.3252, 81301.41
863.8073, 81415.45
864.2894, 81541.46
864.7715, 81692.23
865.2537, 81871.18
865.7358, 82034.48
866.2179, 82184.89
866.7000, 82298.63
867.1821, 82338.65
867.6642, 82334.71
868.1464, 82333.61
868.6285, 82348.73
869.1106, 82327.70
869.5927, 82243.41
870.0748, 82120.13
870.5569, 81977.66
871.0391, 81818.85
871.5212, 81603.18
872.0033, 81313.02
872.4854, 81027.63
872.9675, 80822.51
873.4496, 80661.42
873.9318, 80463.61
874.4139, 80228.34
874.8960, 79996.66
875.3781, 79788.58
875.8602, 79594.72
876.3423, 79417.39
876.8245, 79258.41
877.3066, 79087.45
877.7887, 78893.38
878.2708, 78722.80
878.7529, 78606.17
879.2350, 78527.46
879.7172, 78416.54
880.1993, 78283.97
880.6814, 78177.66
881.1635, 78145.67
881.6456, 78131.26
882.1277, 78089.59
882.6099, 78030.14
883.0920, 77982.63
883.5741, 77946.08
884.0562, 77927.46
884.5383, 77933.04
885.0204, 77947.52
885.5026, 77931.36
885.9847, 77886.23
886.4668, 77861.48
886.9489, 77876.89
887.4310, 77901.86
887.9131, 77903.32
888.3953, 77892.52
888.8774, 77888.16
889.3595, 77931.20
889.8416, 77926.79
890.3237, 77825.82
890.8058, 77706.36
891.2880, 77656.98
891.7701, 77686.51
892.2522, 77678.41
892.7343, 77617.80
893.2164, 77550.84
893.6985, 77521.09
894.1807, 77517.09
894.6628, 77531.05
895.1449, 77567.42
895.6270, 77575.14
896.1091, 77499.67
896.5912, 77421.38
897.0734, 77389.80
897.5555, 77409.66
898.0376, 77433.71
898.5197, 77467.00
899.0018, 77480.16
899.4839, 77422.63
899.9661, 77344.24
900.4482, 77356.25
900.9303, 77445.02
901.4124, 77509.46
901.8945, 77462.70
902.3766, 77416.30
902.8588, 77434.62
903.3409, 77500.16
903.8230, 77529.52
904.3051, 77509.01
904.7872, 77502.49
905.2693, 77536.77
905.7515, 77587.78
906.2336, 77603.80
906.7157, 77595.14
907.1978, 77593.18
907.6799, 77609.52
908.1620, 77636.76
908.6442, 77696.10
909.1263, 77756.63
909.6084, 77765.42
910.0905, 77697.27
910.5726, 77647.96
911.0547, 77628.09
911.5369, 77625.77
912.0190, 77627.22
912.5011, 77633.68
912.9832, 77649.47
913.4653, 77676.80
913.9474, 77704.00
914.4296, 77724.20
914.9117, 77740.09
915.3938, 77752.20
915.8759, 77757.84
916.3580, 77768.96
916.8401, 77789.59
917.3223, 77802.20
917.8044, 77785.29
918.2865, 77750.47
918.7686, 77745.95
919.2507, 77769.10
919.7328, 77789.03
920.2150, 77795.38
920.6971, 77786.02
921.1792, 77746.48
921.6613, 77685.46
922.1434, 77661.48
922.6255, 77693.20
923.1077, 77721.09
923.5898, 77722.46
924.0719, 77715.48
924.5540, 77748.54
925.0361, 77811.93
925.5182, 77866.33
926.0004, 77887.90
926.4825, 77908.55
926.9646, 77942.95
927.4467, 77989.63
927.9288, 78048.22
928.4109, 78129.38
928.8931, 78199.27
929.3752, 78259.57
929.8573, 78300.92
930.3394, 78295.40
930.8215, 78262.30
931.3036, 78279.66
931.7858, 78361.25
932.2679, 78437.04
932.7500, 78446.20
933.2321, 78442.33
933.7142, 78475.00
934.1964, 78557.59
934.6785, 78600.05
935.1606, 78584.64
935.6427, 78574.01
936.1248, 78591.59
936.6069, 78641.86
937.0891, 78753.37
937.5712, 78915.65
938.0533, 79071.03
938.5354, 79188.36
939.0175, 79287.66
939.4996, 79383.20
939.9818, 79466.04
940.4639, 79513.05
940.9460, 79521.72
941.4281, 79496.23
941.9102, 79437.25
942.3923, 79341.71
942.8745, 79194.73
943.3566, 79007.14
943.8387, 78805.02
944.3208, 78582.91
944.8029, 78400.27
945.2850, 78325.37
945.7672, 78283.99
946.2493, 78203.78
946.7314, 78069.83
947.2135, 77952.13
947.6956, 77851.71
948.1777, 77767.98
948.6599, 77694.93
949.1420, 77641.73
949.6241, 77652.20
950.1062, 77716.29
950.5883, 77751.42
951.0704, 77660.77
951.5526, 77580.16
952.0347, 77596.78
952.5168, 77682.66
952.9989, 77738.22
953.4810, 77762.42
953.9631, 77756.48
954.4453, 77711.76
954.9274, 77653.23
955.4095, 77618.24
955.8916, 77602.40
956.3737, 77594.03
956.8558, 77581.70
957.3380, 77593.28
957.8201, 77678.36
958.3022, 77766.13
958.7843, 77777.87
959.2664, 77687.11
959.7485, 77685.43
960.2307, 77787.83
960.7128, 77908.51
961.1949, 77955.76
961.6770, 77982.02
962.1591, 78070.22
962.6412, 78222.24
963.1234, 78361.20
963.6055, 78413.96
964.0876, 78503.34
964.5697, 78693.38
965.0518, 78949.92
965.5339, 79127.80
966.0161, 79226.78
966.4982, 79301.24
966.9803, 79340.88
967.4624, 79414.98
967.9445, 79667.13
968.4266, 79990.00
968.9088, 80201.77
969.3909, 80190.63
969.8730, 80154.48
970.3551, 80114.48
970.8372, 80049.57
971.3193, 79931.13
971.8015, 79765.12
972.2836, 79586.40
972.7657, 79398.91
973.2478, 79211.34
973.7299, 79015.07
974.2120, 78831.61
974.6942, 78675.46
975.1763, 78549.08
975.6584, 78458.01
976.1405, 78410.92
976.6226, 78375.75
977.1047, 78339.90
977.5869, 78315.78
978.0690, 78290.55
978.5511, 78287.16
979.0332, 78285.89
979.5153, 78293.11
979.9974, 78283.73
980.4796, 78228.02
980.9617, 78153.99
981.4438, 78101.89
981.9259, 78078.32
982.4080, 78061.79
982.8901, 78055.66
983.3723, 78042.45
983.8544, 77994.99
984.3365, 77932.41
984.8186, 77885.80
985.3007, 77858.92
985.7828, 77855.96
986.2650, 77900.07
986.7471, 77947.47
987.2292, 77980.10
987.7113, 77999.13
988.1934, 78007.97
988.6755, 78005.08
989.1577, 78011.15
989.6398, 78037.22
990.1219, 78068.00
990.6040, 78080.78
991.0861, 78085.59
991.5682, 78100.84
992.0504, 78165.32
992.5325, 78182.73
993.0146, 78116.85
993.4967, 78043.11
993.9788, 78049.38
994.4609, 78121.66
994.9431, 78120.85
995.4252, 78040.60
995.9073, 77966.25
996.3894, 77978.98
996.8715, 78006.26
997.3536, 77985.60
997.8358, 77920.47
998.3179, 77888.55
998.8000, 77901.16
999.2821, 77923.77
999.7642, 77950.54
1000.246, 77976.39
1000.728, 77994.23
1001.211, 78002.43
1001.693, 77994.14
1002.175, 77958.52
1002.657, 77926.38
1003.139, 77905.10
1003.621, 77898.70
1004.103, 77912.97
1004.585, 77952.91
1005.068, 77980.98
1005.550, 77995.33
1006.032, 78011.00
1006.514, 78040.25
1006.996, 78075.27
1007.478, 78109.09
1007.960, 78139.72
1008.442, 78162.98
1008.924, 78166.55
1009.407, 78175.98
1009.889, 78200.73
1010.371, 78229.58
1010.853, 78243.21
1011.335, 78241.70
1011.817, 78221.97
1012.299, 78183.66
1012.781, 78132.97
1013.263, 78058.84
1013.746, 77987.27
1014.228, 77944.73
1014.710, 77937.77
1015.192, 77947.09
1015.674, 77979.61
1016.156, 78009.26
1016.638, 78011.30
1017.120, 78003.20
1017.603, 78019.51
1018.085, 78057.74
1018.567, 78110.48
1019.049, 78186.53
1019.531, 78257.28
1020.013, 78305.77
1020.495, 78345.72
1020.977, 78407.90
1021.459, 78492.59
1021.942, 78519.64
1022.424, 78473.25
1022.906, 78409.96
1023.388, 78371.87
1023.870, 78351.52
1024.352, 78348.28
1024.834, 78365.22
1025.316, 78367.34
1025.799, 78345.18
1026.281, 78330.40
1026.763, 78340.67
1027.245, 78365.20
1027.727, 78373.73
1028.209, 78371.22
1028.691, 78372.59
1029.173, 78389.41
1029.656, 78401.82
1030.138, 78391.55
1030.620, 78376.32
1031.102, 78373.01
1031.584, 78380.43
1032.066, 78401.86
1032.548, 78437.55
1033.030, 78474.59
1033.512, 78485.46
1033.995, 78501.20
1034.477, 78582.28
1034.959, 78712.72
1035.441, 78783.98
1035.923, 78725.36
1036.405, 78674.79
1036.887, 78664.73
1037.369, 78670.73
1037.851, 78642.02
1038.334, 78587.55
1038.816, 78536.34
1039.298, 78493.92
1039.780, 78463.03
1040.262, 78445.68
1040.744, 78441.70
1041.226, 78458.65
1041.708, 78500.09
1042.191, 78495.95
1042.673, 78439.63
1043.155, 78397.02
1043.637, 78410.63
1044.119, 78452.11
1044.601, 78492.66
1045.083, 78529.13
1045.565, 78553.02
1046.047, 78561.91
1046.530, 78553.16
1047.012, 78510.09
1047.494, 78474.08
1047.976, 78500.02
1048.458, 78575.30
1048.940, 78643.80
1049.422, 78700.66
1049.904, 78734.98
1050.386, 78729.48
1050.869, 78709.03
1051.351, 78671.93
1051.833, 78630.42
1052.315, 78640.18
1052.797, 78707.53
1053.279, 78778.57
1053.761, 78847.59
1054.243, 78892.91
1054.726, 78863.46
1055.208, 78803.55
1055.690, 78774.21
1056.172, 78791.64
1056.654, 78835.48
1057.136, 78930.70
1057.618, 79000.42
1058.100, 78981.29
1058.583, 78903.07
1059.065, 78888.41
1059.547, 78923.99
1060.029, 78947.77
1060.511, 78904.55
1060.993, 78869.67
1061.475, 78885.35
1061.957, 78922.73
1062.439, 78942.16
1062.922, 78941.27
1063.404, 78952.55
1063.886, 78982.34
1064.368, 78989.99
1064.850, 78911.55
1065.332, 78813.37
1065.814, 78759.28
1066.296, 78752.25
1066.778, 78764.38
1067.261, 78813.17
1067.743, 78824.41
1068.225, 78756.85
1068.707, 78677.80
1069.189, 78739.73
1069.671, 78884.70
1070.153, 78976.73
1070.635, 78973.57
1071.118, 78946.87
1071.600, 78912.99
1072.082, 78875.74
1072.564, 78837.30
1073.046, 78799.02
1073.528, 78754.29
1074.010, 78706.80
1074.492, 78691.70
1074.974, 78772.23
1075.457, 78843.68
1075.939, 78795.42
1076.421, 78697.12
1076.903, 78673.38
1077.385, 78768.50
1077.867, 78810.72
1078.349, 78781.61
1078.831, 78741.92
1079.313, 78745.70
1079.796, 78774.35
1080.278, 78803.09
1080.760, 78830.08
1081.242, 78857.51
1081.724, 78891.48
1082.206, 78917.09
1082.688, 78928.09
1083.170, 78933.41
1083.652, 78952.97
1084.135, 78981.92
1084.617, 78998.60
1085.099, 78998.02
1085.581, 78996.88
1086.063, 79032.34
1086.545, 79044.23
1087.027, 78975.66
1087.509, 78841.72
1087.992, 78802.48
1088.474, 78859.07
1088.956, 78924.27
1089.438, 78975.48
1089.920, 78998.11
1090.402, 78937.21
1090.884, 78857.21
1091.366, 78853.66
1091.849, 78985.96
1092.331, 79061.89
1092.813, 79067.09
1093.295, 79064.34
1093.777, 79112.41
1094.259, 79176.91
1094.741, 79177.53
1095.223, 79135.08
1095.705, 79125.36
1096.188, 79219.12
1096.670, 79286.07
1097.152, 79295.05
1097.634, 79280.38
1098.116, 79281.84
1098.598, 79298.04
1099.080, 79324.39
1099.562, 79360.45
1100.044, 79404.20
1100.527, 79487.77
1101.009, 79546.00
1101.491, 79538.23
1101.973, 79481.27
1102.455, 79411.48
1102.937, 79329.13
1103.419, 79280.17
1103.901, 79283.01
1104.384, 79298.83
1104.866, 79281.57
1105.348, 79264.64
1105.830, 79296.88
1106.312, 79395.35
1106.794, 79401.30
1107.276, 79284.63
1107.758, 79193.26
1108.240, 79203.67
1108.723, 79264.57
1109.205, 79296.84
1109.687, 79316.65
1110.169, 79356.57
1110.651, 79444.12
1111.133, 79518.13
1111.615, 79580.14
1112.097, 79618.20
1112.579, 79606.63
1113.062, 79564.84
1113.544, 79570.52
1114.026, 79613.43
1114.508, 79641.82
1114.990, 79608.47
1115.472, 79585.33
1115.954, 79612.35
1116.436, 79647.98
1116.919, 79628.43
1117.401, 79560.50
1117.883, 79537.55
1118.365, 79568.68
1118.847, 79597.47
1119.329, 79570.55
1119.811, 79540.85
1120.293, 79548.99
1120.776, 79547.07
1121.258, 79560.31
1121.740, 79593.76
1122.222, 79611.59
1122.704, 79672.18
1123.186, 79713.20
1123.668, 79635.27
1124.150, 79525.26
1124.632, 79479.34
1125.115, 79515.52
1125.597, 79532.32
1126.079, 79518.48
1126.561, 79521.85
1127.043, 79576.36
1127.525, 79634.54
1128.007, 79608.39
1128.489, 79535.02
1128.971, 79475.88
1129.454, 79448.07
1129.936, 79439.80
1130.418, 79467.73
1130.900, 79482.05
1131.382, 79432.67
1131.864, 79355.26
1132.346, 79370.63
1132.828, 79452.73
1133.311, 79516.03
1133.793, 79484.49
1134.275, 79479.54
1134.757, 79536.93
1135.239, 79616.88
1135.721, 79693.75
1136.203, 79761.84
1136.685, 79772.33
1137.167, 79730.07
1137.650, 79711.50
1138.132, 79805.66
1138.614, 79886.64
1139.096, 79879.55
1139.578, 79826.55
1140.060, 79788.03
1140.542, 79764.78
1141.024, 79760.96
1141.506, 79779.01
1141.989, 79805.58
1142.471, 79856.88
1142.953, 79891.27
1143.435, 79859.72
1143.917, 79780.91
1144.399, 79744.48
1144.881, 79754.73
1145.363, 79785.45
1145.846, 79834.40
1146.328, 79881.86
1146.810, 79903.92
1147.292, 79911.99
1147.774, 79912.66
1148.256, 79904.80
1148.738, 79918.64
1149.220, 79957.98
1149.703, 80007.99
1150.185, 80077.13
1150.667, 80126.55
1151.149, 80057.73
1151.631, 79945.63
1152.113, 79921.23
1152.595, 80056.59
1153.077, 80114.76
1153.559, 80053.16
1154.042, 79984.26
1154.524, 79971.95
1155.006, 79988.72
1155.488, 79976.54
1155.970, 79942.98
1156.452, 79905.46
1156.934, 79857.41
1157.416, 79831.38
1157.898, 79837.51
1158.381, 79854.65
1158.863, 79868.14
1159.345, 79879.63
1159.827, 79898.55
1160.309, 79921.25
1160.791, 79933.73
1161.273, 79902.39
1161.755, 79894.93
1162.238, 79940.49
1162.720, 79999.76
1163.202, 80029.03
1163.684, 80033.09
1164.166, 80050.04
1164.648, 80079.10
1165.130, 80099.09
1165.612, 80093.72
1166.094, 80081.20
1166.577, 80068.21
1167.059, 80055.02
1167.541, 80042.95
1168.023, 80032.48
1168.505, 80021.24
1168.987, 80009.74
1169.469, 79991.41
1169.951, 79923.86
1170.433, 79886.54
1170.916, 79957.70
1171.398, 80087.95
1171.880, 80159.42
1172.362, 80172.80
1172.844, 80159.80
1173.326, 80118.59
1173.808, 80106.03
1174.290, 80221.40
1174.773, 80339.89
1175.255, 80334.33
1175.737, 80379.46
1176.219, 80395.07
1176.701, 80323.66
1177.183, 80350.70
1177.665, 80244.85
1178.147, 80137.28
1178.630, 80176.52
1179.112, 80260.16
1179.594, 80282.13
1180.076, 80237.91
1180.558, 80232.28
1181.040, 80270.43
1181.522, 80302.09
1182.004, 80308.97
1182.486, 80299.59
1182.969, 80251.30
1183.451, 80209.11
1183.933, 80238.91
1184.415, 80361.92
1184.897, 80442.70
1185.379, 80476.84
1185.861, 80492.30
1186.343, 80496.55
1186.825, 80497.25
1187.308, 80509.16
1187.790, 80521.59
1188.272, 80516.75
1188.754, 80489.03
1189.236, 80449.67
1189.718, 80393.50
1190.200, 80357.93
1190.682, 80375.95
1191.165, 80422.65
1191.647, 80490.93
1192.129, 80558.23
1192.611, 80574.80
1193.093, 80494.77
1193.575, 80455.52
1194.057, 80468.26
1194.539, 80484.98
1195.021, 80457.05
1195.504, 80417.47
1195.986, 80406.73
1196.468, 80421.62
1196.950, 80453.43
1197.432, 80510.51
1197.914, 80562.12
1198.396, 80611.16
1198.878, 80634.27
1199.360, 80571.88
1199.843, 80493.04
1200.325, 80523.98
1200.807, 80635.09
1201.289, 80685.70
1201.771, 80621.10
1202.253, 80568.95
1202.735, 80543.05
1203.217, 80538.68
1203.700, 80547.32
1204.182, 80576.45
1204.664, 80650.00
1205.146, 80759.28
1205.628, 80845.88
1206.110, 80900.16
1206.592, 80924.16
1207.074, 80906.51
1207.557, 80886.25
1208.039, 80917.78
1208.521, 80973.48
1209.003, 81014.65
1209.485, 81038.17
1209.967, 81064.09
1210.449, 81110.49
1210.931, 81121.03
1211.413, 81076.08
1211.896, 81014.85
1212.378, 80977.59
1212.860, 80965.39
1213.342, 80999.20
1213.824, 81081.53
1214.306, 81099.35
1214.788, 81023.16
1215.270, 80941.97
1215.752, 80874.13
1216.235, 80826.92
1216.717, 80843.83
1217.199, 80871.77
1217.681, 80811.59
1218.163, 80639.77
1218.645, 80563.45
1219.127, 80627.57
1219.609, 80687.26
1220.092, 80694.92
1220.574, 80681.32
1221.056, 80677.21
1221.538, 80688.40
1222.020, 80731.93
1222.502, 80816.38
1222.984, 80860.50
1223.466, 80841.71
1223.948, 80846.84
1224.431, 80921.95
1224.913, 81004.05
1225.395, 80988.36
1225.877, 80927.29
1226.359, 80891.92
1226.841, 80898.34
1227.323, 80920.88
1227.805, 80969.76
1228.287, 80989.59
1228.770, 80945.42
1229.252, 80882.66
1229.734, 80857.95
1230.216, 80856.77
1230.698, 80863.77
1231.180, 80881.04
1231.662, 80880.95
1232.144, 80861.30
1232.627, 80839.98
1233.109, 80826.50
1233.591, 80814.98
1234.073, 80809.45
1234.555, 80796.93
1235.037, 80754.77
1235.519, 80675.80
1236.001, 80602.77
1236.484, 80530.79
1236.966, 80529.12
1237.448, 80683.25
1237.930, 80845.15
1238.412, 80837.41
1238.894, 80759.59
1239.376, 80749.40
1239.858, 80821.05
1240.340, 80880.74
1240.823, 80925.42
1241.305, 80967.50
1241.787, 81009.71
1242.269, 81052.23
1242.751, 81097.12
1243.233, 81138.73
1243.715, 81172.59
1244.197, 81199.55
1244.679, 81204.27
1245.162, 81187.41
1245.644, 81160.54
1246.126, 81124.35
1246.608, 81090.61
1247.090, 81060.60
1247.572, 81046.11
1248.054, 81066.83
1248.536, 81127.60
1249.019, 81134.36
1249.501, 81094.12
1249.983, 81070.01
1250.465, 81112.58
1250.947, 81161.09
1251.429, 81192.30
1251.911, 81206.52
1252.393, 81193.72
1252.875, 81155.64
1253.358, 81156.73
1253.840, 81190.88
1254.322, 81227.08
1254.804, 81257.49
1255.286, 81271.88
1255.768, 81258.68
1256.250, 81235.09
1256.732, 81199.45
1257.214, 81163.71
1257.697, 81228.97
1258.179, 81369.93
1258.661, 81464.50
1259.143, 81424.51
1259.625, 81382.41
1260.107, 81356.77
1260.589, 81350.41
1261.071, 81371.26
1261.554, 81412.08
1262.036, 81463.52
1262.518, 81514.42
1263.000, 81530.73
1263.482, 81439.21
1263.964, 81409.73
1264.446, 81483.17
1264.928, 81552.01
1265.411, 81496.84
1265.893, 81390.22
1266.375, 81381.90
1266.857, 81440.52
1267.339, 81477.25
1267.821, 81428.30
1268.303, 81449.54
1268.785, 81570.23
1269.267, 81671.15
1269.750, 81625.22
1270.232, 81531.17
1270.714, 81518.45
1271.196, 81558.02
1271.678, 81578.13
1272.160, 81558.59
1272.642, 81557.36
1273.124, 81575.26
1273.606, 81606.21
1274.089, 81648.63
1274.571, 81696.75
1275.053, 81759.66
1275.535, 81816.58
1276.017, 81832.62
1276.499, 81800.92
1276.981, 81763.96
1277.463, 81723.45
1277.946, 81707.85
1278.428, 81789.86
1278.910, 81845.13
1279.392, 81751.32
1279.874, 81620.16
1280.356, 81586.03
1280.838, 81647.66
1281.320, 81703.16
1281.802, 81748.36
1282.285, 81764.02
1282.767, 81691.91
1283.249, 81650.76
1283.731, 81710.11
1284.213, 81786.32
1284.695, 81795.43
1285.177, 81757.18
1285.659, 81772.76
1286.141, 81831.73
1286.624, 81889.29
1287.106, 81915.76
1287.588, 81957.92
1288.070, 82035.61
1288.552, 82100.43
1289.034, 82092.73
1289.516, 82051.59
1289.998, 82077.05
1290.481, 82142.27
1290.963, 82176.82
1291.445, 82137.34
1291.927, 82107.00
1292.409, 82086.98
1292.891, 82073.30
1293.373, 82053.39
1293.855, 82046.49
1294.338, 82088.38
1294.820, 82157.41
1295.302, 82216.58
1295.784, 82276.80
1296.266, 82256.21
1296.748, 82148.17
1297.230, 82075.88
1297.712, 82135.97
1298.194, 82234.36
1298.677, 82328.59
1299.159, 82393.01
1299.641, 82389.92
1300.123, 82316.07
1300.605, 82261.10
1301.087, 82222.27
1301.569, 82180.38
1302.051, 82125.91
1302.533, 82047.28
1303.016, 81936.68
##END=



