##NAMES=Christelite
##RRUFFID=R060792
##IDEAL CHEMISTRY=Zn^2+^_3_Cu^2+^_2_(S^6+^_4_)_2_(OH)_6_&#183;4H_2_O
##LOCALITY=San Francisco mine, Sierra Gorda, Chile
##OWNER=RRUFF
##SOURCE=Bob Jenkins
##DESCRIPTION=Greenish blue bladed crystals associated with hemimorphite and quartz
##STATUS=The identification of this mineral has been confirmed by single-crystal X-ray diffraction.
##URL=rruff.info/R060792
109.470, 54.059
109.952, 59.761
110.434, 66.915
110.916, 72.040
111.399, 71.625
111.881, 71.658
112.363, 74.627
112.845, 82.728
113.327, 91.468
113.809, 100.619
114.291, 110.045
114.773, 119.249
115.256, 128.344
115.738, 136.993
116.220, 144.808
116.702, 150.218
117.184, 156.033
117.666, 163.391
118.148, 172.315
118.630, 182.252
119.112, 192.830
119.595, 204.198
120.077, 216.504
120.559, 230.060
121.041, 244.355
121.523, 259.635
122.005, 276.213
122.487, 292.055
122.969, 304.414
123.451, 314.519
123.934, 325.371
124.416, 340.517
124.898, 356.921
125.380, 369.717
125.862, 376.281
126.344, 382.160
126.826, 395.304
127.308, 414.777
127.790, 434.385
128.273, 449.431
128.755, 460.858
129.237, 470.753
129.719, 478.406
130.201, 485.580
130.683, 497.090
131.165, 513.378
131.648, 529.784
132.130, 541.490
132.612, 548.846
133.094, 554.845
133.576, 559.467
134.058, 563.215
134.540, 569.353
135.022, 577.895
135.504, 588.855
135.986, 602.971
136.469, 620.591
136.951, 638.039
137.433, 653.036
137.915, 664.965
138.397, 679.452
138.879, 697.122
139.361, 717.090
139.843, 737.271
140.326, 757.631
140.808, 778.762
141.290, 801.225
141.772, 824.787
142.254, 850.189
142.736, 878.719
143.218, 909.502
143.700, 935.794
144.182, 957.851
144.665, 975.086
145.147, 986.641
145.629, 991.320
146.111, 992.446
146.593, 991.399
147.075, 988.376
147.557, 977.527
148.039, 959.423
148.521, 933.267
149.004, 897.584
149.486, 840.999
149.968, 787.644
150.450, 741.402
150.932, 703.380
151.414, 669.816
151.896, 644.823
152.378, 623.308
152.861, 598.505
153.343, 558.376
153.825, 524.748
154.307, 506.398
154.789, 513.120
155.271, 514.009
155.753, 499.423
156.235, 476.230
156.717, 458.554
157.200, 452.892
157.682, 450.591
158.164, 447.448
158.646, 442.352
159.128, 436.878
159.610, 430.142
160.092, 422.944
160.574, 418.256
161.057, 418.918
161.539, 421.477
162.021, 423.504
162.503, 426.515
162.985, 426.756
163.467, 421.458
163.949, 411.207
164.431, 400.656
164.913, 393.039
165.396, 385.876
165.878, 376.657
166.360, 359.860
166.842, 344.262
167.324, 337.151
167.806, 338.694
168.288, 338.940
168.770, 329.354
169.253, 314.948
169.735, 303.090
170.217, 299.569
170.699, 298.550
171.181, 294.780
171.663, 287.603
172.145, 280.417
172.627, 275.729
173.109, 273.001
173.592, 270.940
174.074, 268.584
174.556, 266.649
175.038, 266.388
175.520, 268.302
176.002, 270.466
176.484, 269.988
176.966, 267.792
177.449, 267.031
177.931, 271.415
178.413, 278.174
178.895, 282.439
179.377, 283.147
179.859, 281.793
180.341, 279.026
180.823, 275.234
181.305, 273.214
181.788, 276.433
182.270, 282.989
182.752, 287.685
183.234, 288.578
183.716, 288.126
184.198, 290.817
184.680, 296.575
185.162, 302.974
185.645, 308.713
186.127, 313.633
186.609, 317.153
187.091, 318.393
187.573, 318.503
188.055, 319.731
188.537, 322.011
189.019, 326.457
189.501, 335.498
189.984, 348.639
190.466, 360.492
190.948, 369.241
191.430, 375.549
191.912, 381.008
192.394, 385.258
192.876, 390.414
193.358, 399.988
193.840, 413.858
194.323, 426.240
194.805, 433.562
195.287, 436.927
195.769, 445.203
196.251, 459.181
196.733, 476.202
197.215, 492.766
197.697, 508.891
198.180, 525.419
198.662, 542.959
199.144, 561.662
199.626, 578.570
200.108, 592.359
200.590, 606.774
201.072, 628.738
201.554, 659.558
202.036, 690.886
202.519, 718.637
203.001, 742.292
203.483, 768.009
203.965, 796.205
204.447, 826.122
204.929, 855.902
205.411, 885.622
205.893, 915.358
206.376, 945.667
206.858, 977.056
207.340, 1005.383
207.822, 1029.322
208.304, 1050.961
208.786, 1077.022
209.268, 1110.286
209.750, 1139.829
210.232, 1161.002
210.714, 1174.448
211.197, 1175.755
211.679, 1162.459
212.161, 1137.764
212.643, 1111.467
213.125, 1084.095
213.607, 1054.525
214.089, 1021.775
214.572, 985.413
215.054, 946.588
215.536, 903.878
216.018, 858.964
216.500, 820.287
216.982, 790.018
217.464, 762.772
217.946, 734.581
218.428, 704.493
218.911, 676.901
219.393, 652.677
219.875, 631.538
220.357, 609.841
220.839, 584.728
221.321, 563.157
221.803, 550.427
222.285, 550.766
222.767, 549.839
223.250, 544.885
223.732, 536.640
224.214, 532.776
224.696, 535.213
225.178, 539.551
225.660, 542.080
226.142, 540.434
226.624, 542.219
227.107, 549.273
227.589, 561.384
228.071, 572.500
228.553, 580.259
229.035, 589.882
229.517, 606.458
229.999, 635.615
230.481, 660.644
230.963, 676.572
231.445, 683.708
231.928, 698.870
232.410, 726.486
232.892, 757.581
233.374, 783.581
233.856, 803.184
234.338, 820.378
234.820, 834.843
235.303, 846.390
235.785, 861.785
236.267, 884.629
236.749, 907.834
237.231, 924.288
237.713, 931.622
238.195, 936.353
238.677, 939.719
239.159, 941.787
239.641, 940.738
240.124, 934.666
240.606, 927.226
241.088, 921.845
241.570, 918.461
242.052, 917.465
242.534, 919.930
243.016, 926.214
243.498, 929.658
243.981, 929.313
244.463, 926.942
244.945, 924.138
245.427, 920.122
245.909, 916.890
246.391, 914.011
246.873, 911.134
247.355, 913.958
247.837, 926.947
248.320, 941.478
248.802, 947.228
249.284, 937.207
249.766, 931.937
250.248, 938.417
250.730, 958.093
251.212, 967.471
251.694, 963.124
252.176, 951.962
252.659, 941.049
253.141, 930.708
253.623, 920.158
254.105, 910.023
254.587, 900.714
255.069, 886.118
255.551, 864.057
256.033, 839.011
256.516, 815.083
256.998, 791.443
257.480, 770.685
257.962, 754.907
258.444, 744.315
258.926, 728.108
259.408, 703.910
259.890, 676.602
260.372, 651.728
260.855, 629.781
261.337, 608.309
261.819, 586.056
262.301, 562.734
262.783, 544.273
263.265, 531.297
263.747, 522.118
264.229, 515.529
264.711, 513.023
265.194, 508.983
265.676, 501.820
266.158, 491.742
266.640, 481.391
267.122, 470.044
267.604, 459.773
268.086, 453.213
268.569, 451.216
269.051, 449.895
269.533, 448.837
270.015, 447.944
270.497, 445.436
270.979, 440.941
271.461, 435.645
271.943, 429.934
272.425, 422.988
272.908, 419.675
273.390, 421.633
273.872, 428.352
274.354, 436.231
274.836, 445.824
275.318, 455.393
275.800, 463.471
276.282, 470.022
276.764, 475.030
277.247, 477.551
277.729, 478.504
278.211, 483.831
278.693, 494.640
279.175, 505.897
279.657, 512.428
280.139, 513.854
280.621, 517.009
281.103, 524.327
281.586, 533.962
282.068, 538.666
282.550, 537.895
283.032, 535.057
283.514, 533.171
283.996, 532.203
284.478, 529.043
284.960, 522.032
285.443, 513.197
285.925, 509.215
286.407, 510.460
286.889, 512.196
287.371, 511.120
287.853, 507.370
288.335, 502.023
288.817, 494.987
289.299, 486.767
289.782, 477.605
290.264, 467.644
290.746, 459.133
291.228, 454.156
291.710, 452.177
292.192, 451.074
292.674, 451.100
293.156, 450.911
293.638, 447.195
294.121, 440.297
294.603, 434.357
295.085, 433.165
295.567, 435.058
296.049, 434.755
296.531, 430.693
297.013, 426.453
297.496, 428.083
297.978, 434.576
298.460, 440.616
298.942, 441.238
299.424, 439.458
299.906, 441.598
300.388, 449.121
300.870, 457.881
301.352, 462.754
301.835, 464.709
302.317, 466.958
302.799, 471.561
303.281, 477.343
303.763, 482.248
304.245, 485.616
304.727, 490.426
305.209, 501.183
305.691, 515.649
306.174, 528.161
306.656, 534.416
307.138, 538.524
307.620, 544.570
308.102, 552.950
308.584, 562.267
309.066, 572.963
309.548, 583.829
310.030, 592.535
310.513, 599.532
310.995, 603.211
311.477, 600.936
311.959, 592.622
312.441, 584.189
312.923, 582.219
313.405, 581.180
313.887, 574.500
314.370, 552.831
314.852, 530.834
315.334, 517.102
315.816, 511.243
316.298, 504.868
316.780, 492.685
317.262, 479.025
317.744, 467.703
318.226, 462.724
318.709, 457.543
319.191, 449.095
319.673, 438.065
320.155, 428.799
320.637, 422.986
321.119, 419.130
321.601, 416.251
322.083, 414.267
322.565, 413.159
323.048, 413.315
323.530, 414.439
324.012, 415.448
324.494, 416.649
324.976, 417.331
325.458, 416.825
325.940, 410.780
326.422, 410.073
326.905, 419.721
327.387, 435.357
327.869, 446.002
328.351, 448.828
328.833, 448.932
329.315, 447.629
329.797, 443.809
330.279, 441.097
330.762, 440.089
331.244, 439.966
331.726, 439.368
332.208, 437.955
332.690, 436.576
333.172, 435.782
333.654, 436.051
334.136, 434.131
334.618, 428.249
335.100, 421.808
335.583, 419.221
336.065, 422.197
336.547, 424.959
337.029, 425.931
337.511, 425.146
337.993, 425.530
338.475, 427.585
338.957, 429.819
339.440, 430.400
339.922, 428.750
340.404, 428.692
340.886, 431.552
341.368, 436.506
341.850, 439.275
342.332, 439.135
342.814, 439.982
343.297, 446.229
343.779, 457.737
344.261, 466.359
344.743, 470.846
345.225, 472.054
345.707, 470.511
346.189, 466.169
346.671, 463.541
347.153, 467.517
347.635, 476.023
348.118, 480.090
348.600, 477.832
349.082, 473.762
349.564, 475.328
350.046, 481.314
350.528, 485.356
351.010, 481.853
351.492, 474.807
351.975, 471.844
352.457, 473.918
352.939, 476.173
353.421, 473.678
353.903, 467.844
354.385, 461.725
354.867, 455.265
355.349, 449.980
355.832, 448.857
356.314, 451.750
356.796, 452.864
357.278, 447.039
357.760, 437.472
358.242, 428.213
358.724, 419.299
359.206, 412.200
359.688, 408.018
360.171, 406.516
360.653, 406.407
361.135, 408.176
361.617, 410.497
362.099, 412.371
362.581, 413.634
363.063, 414.373
363.545, 413.612
364.027, 412.239
364.510, 412.611
364.992, 417.464
365.474, 422.496
365.956, 425.653
366.438, 425.766
366.920, 426.209
367.402, 425.902
367.884, 426.460
368.366, 430.356
368.849, 439.984
369.331, 450.787
369.813, 462.212
370.295, 474.585
370.777, 485.168
371.259, 492.093
371.741, 498.615
372.224, 507.816
372.706, 519.588
373.188, 534.493
373.670, 553.831
374.152, 576.825
374.634, 596.906
375.116, 613.232
375.598, 627.781
376.080, 641.433
376.562, 653.586
377.045, 667.510
377.527, 684.045
378.009, 702.072
378.491, 718.897
378.973, 734.751
379.455, 747.524
379.937, 754.351
380.419, 755.892
380.902, 759.719
381.384, 766.583
381.866, 774.832
382.348, 782.028
382.830, 788.351
383.312, 795.348
383.794, 807.892
384.276, 820.877
384.759, 820.316
385.241, 805.720
385.723, 788.223
386.205, 778.237
386.687, 773.289
387.169, 768.586
387.651, 764.974
388.133, 758.571
388.615, 742.943
389.098, 719.562
389.580, 696.844
390.062, 680.006
390.544, 666.739
391.026, 655.370
391.508, 646.316
391.990, 637.512
392.472, 629.753
392.954, 621.414
393.437, 608.802
393.919, 583.264
394.401, 558.850
394.883, 543.012
395.365, 538.229
395.847, 535.007
396.329, 533.969
396.811, 532.120
397.293, 526.009
397.776, 506.622
398.258, 491.634
398.740, 487.173
399.222, 493.691
399.704, 495.732
400.186, 491.134
400.668, 483.639
401.151, 475.004
401.633, 460.169
402.115, 453.407
402.597, 459.021
403.079, 472.851
403.561, 481.195
404.043, 482.647
404.525, 481.463
405.007, 478.536
405.490, 472.743
405.972, 471.902
406.454, 477.630
406.936, 485.555
407.418, 488.038
407.900, 484.460
408.382, 483.283
408.864, 488.295
409.346, 498.104
409.828, 506.021
410.311, 511.681
410.793, 518.606
411.275, 531.367
411.757, 548.541
412.239, 564.526
412.721, 578.183
413.203, 590.062
413.685, 599.164
414.168, 606.312
414.650, 615.832
415.132, 632.304
415.614, 651.904
416.096, 669.353
416.578, 683.546
417.060, 697.853
417.542, 714.197
418.025, 732.312
418.507, 751.673
418.989, 769.109
419.471, 790.305
419.953, 820.342
420.435, 859.163
420.917, 897.829
421.399, 935.246
421.881, 969.777
422.364, 1000.122
422.846, 1017.009
423.328, 1039.928
423.810, 1073.425
424.292, 1115.957
424.774, 1159.729
425.256, 1201.542
425.738, 1247.463
426.220, 1300.134
426.703, 1364.369
427.185, 1422.188
427.667, 1467.546
428.149, 1510.311
428.631, 1564.566
429.113, 1632.866
429.595, 1708.126
430.077, 1789.189
430.560, 1875.456
431.042, 1961.778
431.524, 2047.883
432.006, 2133.308
432.488, 2218.291
432.970, 2302.752
433.452, 2385.494
433.934, 2470.902
434.417, 2549.220
434.899, 2607.045
435.381, 2644.202
435.863, 2658.648
436.345, 2642.972
436.827, 2604.970
437.309, 2558.776
437.791, 2505.446
438.273, 2446.080
438.755, 2377.648
439.238, 2304.421
439.720, 2234.104
440.202, 2164.438
440.684, 2102.866
441.166, 2052.426
441.648, 2014.159
442.130, 1991.725
442.612, 1997.917
443.095, 2014.231
443.577, 2025.741
444.059, 2022.580
444.541, 2027.731
445.023, 2049.478
445.505, 2083.560
445.987, 2121.356
446.469, 2165.907
446.952, 2209.663
447.434, 2250.897
447.916, 2289.755
448.398, 2325.801
448.880, 2362.044
449.362, 2392.694
449.844, 2412.556
450.326, 2421.291
450.808, 2419.484
451.290, 2404.213
451.773, 2379.145
452.255, 2356.921
452.737, 2338.039
453.219, 2319.837
453.701, 2301.643
454.183, 2283.403
454.665, 2260.011
455.147, 2229.728
455.630, 2199.024
456.112, 2172.843
456.594, 2152.267
457.076, 2142.321
457.558, 2148.181
458.040, 2163.814
458.522, 2179.226
459.004, 2194.924
459.487, 2214.269
459.969, 2241.413
460.451, 2273.097
460.933, 2306.164
461.415, 2339.962
461.897, 2373.497
462.379, 2407.083
462.861, 2439.914
463.343, 2471.266
463.826, 2503.683
464.308, 2531.636
464.790, 2551.155
465.272, 2561.246
465.754, 2572.427
466.236, 2594.420
466.718, 2614.099
467.200, 2621.289
467.682, 2611.167
468.165, 2593.800
468.647, 2568.429
469.129, 2535.837
469.611, 2499.713
470.093, 2463.242
470.575, 2417.230
471.057, 2356.166
471.539, 2278.776
472.022, 2198.522
472.504, 2115.008
472.986, 2029.484
473.468, 1942.509
473.950, 1854.828
474.432, 1767.351
474.914, 1678.805
475.396, 1592.195
475.878, 1515.093
476.361, 1447.120
476.843, 1382.805
477.325, 1318.157
477.807, 1255.385
478.289, 1199.302
478.771, 1150.922
479.253, 1106.336
479.735, 1060.962
480.217, 1017.279
480.700, 979.233
481.182, 956.833
481.664, 933.597
482.146, 897.117
482.628, 849.848
483.110, 807.789
483.592, 779.605
484.074, 756.146
484.556, 731.834
485.039, 704.764
485.521, 679.341
486.003, 657.029
486.485, 636.105
486.967, 613.964
487.449, 589.723
487.931, 565.908
488.414, 541.892
488.896, 518.064
489.378, 501.469
489.860, 494.434
490.342, 488.967
490.824, 478.741
491.306, 463.444
491.788, 448.695
492.270, 434.191
492.753, 421.931
493.235, 417.232
493.717, 418.994
494.199, 418.264
494.681, 408.475
495.163, 394.449
495.645, 384.474
496.127, 378.521
496.609, 374.094
497.092, 370.906
497.574, 367.666
498.056, 362.590
498.538, 354.491
499.020, 346.183
499.502, 338.968
499.984, 332.698
500.466, 327.207
500.948, 322.582
501.431, 318.662
501.913, 315.018
502.395, 311.471
502.877, 310.348
503.359, 314.855
503.841, 319.657
504.323, 321.495
504.805, 319.925
505.288, 315.620
505.770, 306.141
506.252, 295.365
506.734, 293.851
507.216, 304.599
507.698, 312.289
508.180, 309.375
508.662, 297.658
509.145, 290.245
509.627, 287.396
510.109, 286.631
510.591, 286.116
511.073, 285.901
511.555, 286.415
512.037, 288.298
512.519, 289.622
513.001, 286.931
513.484, 281.826
513.966, 278.355
514.448, 279.695
514.930, 282.517
515.412, 284.893
515.894, 286.702
516.376, 287.491
516.858, 286.359
517.341, 284.545
517.823, 282.938
518.305, 281.573
518.787, 280.569
519.269, 281.050
519.751, 281.716
520.233, 279.896
520.715, 273.830
521.197, 268.189
521.680, 264.317
522.162, 262.178
522.644, 259.676
523.126, 256.249
523.608, 254.086
524.090, 255.848
524.572, 261.433
525.054, 265.359
525.536, 267.178
526.019, 266.978
526.501, 263.836
526.983, 258.464
527.465, 253.712
527.947, 250.145
528.429, 248.310
528.911, 250.391
529.393, 255.717
529.875, 258.879
530.358, 254.305
530.840, 247.415
531.322, 242.851
531.804, 242.245
532.286, 242.096
532.768, 240.243
533.250, 238.471
533.732, 239.269
534.214, 245.923
534.697, 251.949
535.179, 257.658
535.661, 262.458
536.143, 260.437
536.625, 246.629
537.107, 234.556
537.589, 233.135
538.071, 244.471
538.554, 250.324
539.036, 249.561
539.518, 245.520
540.000, 240.686
540.482, 235.575
540.964, 234.562
541.446, 240.891
541.928, 249.574
542.411, 251.645
542.893, 248.465
543.375, 246.264
543.857, 249.915
544.339, 255.732
544.821, 260.830
545.303, 265.096
545.785, 267.155
546.268, 263.892
546.750, 259.286
547.232, 257.054
547.714, 262.778
548.196, 265.330
548.678, 259.964
549.160, 250.331
549.642, 246.000
550.124, 249.732
550.606, 254.768
551.089, 259.623
551.571, 264.318
552.053, 266.712
552.535, 265.935
553.017, 265.289
553.499, 268.629
553.981, 275.515
554.463, 278.996
554.945, 277.680
555.428, 274.386
555.910, 271.709
556.392, 270.163
556.874, 271.401
557.356, 280.393
557.838, 289.498
558.320, 289.823
558.802, 282.723
559.284, 276.275
559.767, 273.535
560.249, 273.614
560.731, 276.565
561.213, 283.808
561.695, 289.375
562.177, 289.294
562.659, 288.328
563.141, 291.933
563.624, 305.780
564.106, 314.783
564.588, 315.462
565.070, 310.546
565.552, 308.568
566.034, 309.779
566.516, 313.064
566.998, 319.059
567.481, 327.134
567.963, 332.168
568.445, 333.985
568.927, 335.277
569.409, 337.853
569.891, 341.816
570.373, 347.998
570.855, 357.463
571.338, 366.494
571.820, 370.117
572.302, 371.073
572.784, 374.145
573.266, 382.419
573.748, 392.079
574.230, 401.935
574.712, 411.875
575.194, 421.732
575.677, 430.474
576.159, 440.040
576.641, 451.648
577.123, 466.804
577.605, 478.922
578.087, 486.448
578.569, 493.012
579.051, 502.442
579.533, 514.909
580.016, 529.114
580.498, 545.780
580.980, 562.715
581.462, 573.295
581.944, 578.783
582.426, 588.277
582.908, 611.128
583.390, 638.444
583.872, 657.297
584.355, 668.101
584.837, 679.738
585.319, 696.946
585.801, 717.969
586.283, 742.159
586.765, 771.955
587.247, 798.568
587.729, 818.416
588.211, 834.461
588.694, 850.509
589.176, 865.018
589.658, 882.062
590.140, 902.601
590.622, 926.056
591.104, 950.203
591.586, 974.601
592.068, 1000.520
592.551, 1029.762
593.033, 1061.526
593.515, 1089.268
593.997, 1112.877
594.479, 1135.039
594.961, 1158.166
595.443, 1181.679
595.925, 1203.466
596.407, 1221.846
596.890, 1242.747
597.372, 1273.386
597.854, 1308.989
598.336, 1341.893
598.818, 1364.909
599.300, 1389.446
599.782, 1421.435
600.265, 1459.389
600.747, 1493.567
601.229, 1520.059
601.711, 1545.888
602.193, 1574.266
602.675, 1605.859
603.157, 1632.613
603.639, 1653.291
604.121, 1672.415
604.604, 1695.673
605.086, 1722.764
605.568, 1744.854
606.050, 1761.018
606.532, 1771.720
607.014, 1780.182
607.496, 1784.066
607.978, 1776.653
608.460, 1747.764
608.943, 1712.856
609.425, 1685.046
609.907, 1662.335
610.389, 1637.878
610.871, 1607.370
611.353, 1575.545
611.835, 1544.621
612.317, 1514.489
612.799, 1485.535
613.282, 1456.906
613.764, 1429.923
614.246, 1405.682
614.728, 1384.944
615.210, 1364.802
615.692, 1345.958
616.174, 1326.320
616.656, 1302.953
617.138, 1275.935
617.621, 1246.146
618.103, 1211.018
618.585, 1175.871
619.067, 1150.162
619.549, 1132.009
620.031, 1113.486
620.513, 1088.191
620.995, 1061.690
621.477, 1040.508
621.960, 1025.110
622.442, 1003.561
622.924, 963.548
623.406, 921.401
623.888, 888.216
624.370, 872.508
624.852, 851.770
625.334, 822.461
625.817, 790.917
626.299, 765.685
626.781, 747.376
627.263, 731.682
627.745, 717.928
628.227, 706.125
628.709, 698.863
629.191, 695.230
629.674, 686.287
630.156, 662.278
630.638, 633.083
631.120, 611.982
631.602, 598.629
632.084, 587.859
632.566, 578.196
633.048, 568.896
633.531, 559.317
634.013, 549.455
634.495, 539.660
634.977, 530.803
635.459, 521.524
635.941, 510.425
636.423, 495.109
636.905, 483.129
637.387, 475.985
637.870, 471.639
638.352, 466.839
638.834, 461.649
639.316, 453.348
639.798, 438.458
640.280, 421.561
640.762, 413.676
641.244, 413.679
641.726, 415.026
642.209, 415.732
642.691, 414.516
643.173, 409.382
643.655, 400.070
644.137, 390.919
644.619, 383.622
645.101, 377.116
645.583, 370.597
646.065, 363.713
646.548, 357.254
647.030, 350.809
647.512, 345.151
647.994, 341.337
648.476, 339.420
648.958, 339.527
649.440, 343.296
649.922, 347.032
650.404, 341.388
650.887, 327.481
651.369, 314.092
651.851, 304.670
652.333, 298.585
652.815, 296.692
653.297, 298.278
653.779, 298.905
654.261, 295.531
654.744, 290.906
655.226, 286.861
655.708, 283.785
656.190, 280.028
656.672, 273.598
657.154, 267.748
657.636, 265.084
658.118, 267.209
658.601, 267.623
659.083, 265.986
659.565, 262.668
660.047, 257.162
660.529, 249.754
661.011, 244.596
661.493, 243.507
661.975, 244.128
662.458, 243.082
662.940, 240.980
663.422, 239.612
663.904, 241.981
664.386, 243.583
664.868, 240.291
665.350, 232.792
665.832, 227.473
666.314, 227.769
666.797, 228.910
667.279, 228.754
667.761, 226.987
668.243, 225.753
668.725, 224.932
669.207, 224.843
669.689, 226.180
670.171, 228.856
670.653, 230.418
671.135, 230.484
671.618, 230.051
672.100, 230.877
672.582, 232.085
673.064, 231.561
673.546, 227.316
674.028, 223.349
674.510, 222.268
674.992, 223.382
675.474, 225.308
675.957, 229.670
676.439, 232.616
676.921, 231.899
677.403, 228.546
677.885, 227.570
678.367, 229.554
678.849, 232.714
679.331, 237.163
679.814, 242.482
680.296, 243.764
680.778, 240.722
681.260, 237.595
681.742, 238.681
682.224, 241.817
682.706, 242.543
683.188, 240.048
683.670, 238.081
684.153, 239.080
684.635, 241.976
685.117, 245.957
685.599, 253.833
686.081, 258.053
686.563, 254.305
687.045, 247.624
687.528, 244.676
688.010, 247.644
688.492, 248.612
688.974, 245.403
689.456, 240.170
689.938, 238.400
690.420, 239.923
690.902, 241.824
691.384, 243.404
691.867, 244.149
692.349, 242.842
692.831, 239.832
693.313, 236.863
693.795, 235.148
694.277, 233.580
694.759, 230.791
695.241, 226.410
695.723, 224.720
696.206, 230.140
696.688, 234.990
697.170, 234.712
697.652, 227.469
698.134, 223.493
698.616, 223.786
699.098, 224.750
699.580, 221.804
700.062, 215.898
700.545, 212.230
701.027, 212.131
701.509, 212.644
701.991, 209.895
702.473, 205.777
702.955, 203.480
703.437, 205.538
703.919, 207.904
704.402, 210.195
704.884, 211.635
705.366, 210.183
705.848, 201.629
706.330, 196.278
706.812, 197.117
707.294, 202.658
707.776, 206.814
708.258, 209.678
708.741, 210.639
709.223, 208.882
709.705, 205.121
710.187, 200.257
710.669, 194.497
711.151, 190.611
711.633, 192.371
712.115, 195.440
712.597, 195.286
713.080, 191.015
713.562, 188.743
714.044, 191.761
714.526, 196.352
715.008, 200.092
715.490, 202.583
715.972, 205.365
716.455, 209.196
716.937, 211.924
717.419, 209.798
717.901, 203.322
718.383, 200.178
718.865, 202.212
719.347, 205.711
719.829, 206.004
720.311, 204.588
720.794, 204.379
721.276, 207.197
721.758, 210.449
722.240, 213.223
722.722, 215.520
723.204, 217.243
723.686, 219.374
724.168, 219.433
724.651, 215.219
725.133, 208.849
725.615, 209.428
726.097, 218.274
726.579, 225.727
727.061, 227.177
727.543, 224.369
728.025, 220.456
728.507, 215.829
728.990, 213.208
729.472, 215.484
729.954, 219.812
730.436, 225.085
730.918, 231.240
731.400, 233.420
731.882, 224.599
732.364, 216.243
732.846, 215.398
733.328, 224.623
733.811, 228.993
734.293, 227.144
734.775, 223.478
735.257, 221.340
735.739, 220.702
736.221, 221.507
736.703, 223.816
737.185, 227.088
737.667, 232.718
738.150, 238.308
738.632, 239.949
739.114, 233.908
739.596, 229.574
740.078, 232.480
740.560, 238.560
741.042, 242.148
741.524, 241.977
742.007, 241.104
742.489, 239.733
742.971, 237.908
743.453, 235.171
743.935, 231.493
744.417, 229.409
744.899, 230.014
745.381, 232.203
745.864, 235.900
746.346, 239.910
746.828, 240.709
747.310, 232.115
747.792, 224.049
748.274, 223.044
748.756, 227.704
749.238, 230.418
749.721, 229.104
750.203, 227.233
750.685, 226.418
751.167, 226.190
751.649, 220.364
752.131, 207.620
752.613, 198.784
753.095, 203.439
753.577, 216.407
754.060, 224.909
754.542, 229.094
755.024, 231.964
755.506, 235.557
755.988, 238.652
756.470, 239.921
756.952, 238.833
757.434, 238.660
757.916, 241.147
758.399, 243.617
758.881, 244.492
759.363, 243.377
759.845, 242.670
760.327, 242.515
760.809, 242.329
761.291, 240.283
761.773, 237.711
762.255, 239.731
762.738, 247.869
763.220, 255.420
763.702, 256.328
764.184, 253.938
764.666, 251.974
765.148, 252.141
765.630, 251.321
766.112, 247.211
766.594, 242.903
767.077, 242.137
767.559, 246.087
768.041, 249.274
768.523, 251.096
769.005, 251.761
769.487, 251.263
769.969, 249.832
770.451, 248.210
770.934, 245.782
771.416, 244.776
771.898, 249.837
772.380, 257.296
772.862, 260.367
773.344, 250.831
773.826, 244.103
774.308, 247.038
774.791, 254.268
775.273, 252.197
775.755, 236.959
776.237, 226.471
776.719, 226.726
777.201, 234.002
777.683, 240.990
778.165, 247.429
778.648, 251.821
779.130, 251.502
779.612, 250.360
780.094, 252.557
780.576, 256.927
781.058, 259.137
781.540, 256.447
782.022, 252.821
782.504, 248.575
782.987, 244.204
783.469, 243.337
783.951, 246.781
784.433, 250.765
784.915, 253.850
785.397, 256.102
785.879, 257.807
786.361, 258.922
786.843, 258.981
787.326, 257.451
787.808, 254.926
788.290, 250.632
788.772, 244.821
789.254, 242.350
789.736, 248.743
790.218, 254.537
790.700, 255.452
791.182, 251.293
791.665, 248.049
792.147, 245.355
792.629, 245.295
793.111, 251.764
793.593, 261.638
794.075, 266.306
794.557, 265.510
795.039, 263.387
795.521, 260.595
796.004, 259.252
796.486, 261.846
796.968, 269.658
797.450, 275.456
797.932, 279.156
798.414, 280.013
798.896, 276.530
799.378, 267.662
799.860, 263.181
800.343, 263.547
800.825, 265.264
801.307, 265.237
801.789, 264.283
802.271, 264.085
802.753, 264.883
803.235, 265.894
803.718, 265.905
804.200, 266.427
804.682, 269.186
805.164, 276.869
805.646, 280.156
806.128, 277.410
806.610, 272.401
807.092, 267.801
807.574, 263.601
808.057, 260.816
808.539, 259.480
809.021, 259.824
809.503, 263.283
809.985, 268.187
810.467, 272.311
810.949, 275.616
811.431, 276.482
811.914, 271.387
812.396, 265.274
812.878, 262.677
813.360, 265.324
813.842, 267.919
814.324, 271.027
814.806, 272.999
815.288, 270.815
815.770, 265.495
816.253, 263.145
816.735, 265.006
817.217, 267.511
817.699, 267.456
818.181, 266.067
818.663, 264.792
819.145, 263.816
819.627, 263.256
820.109, 263.725
820.592, 264.236
821.074, 263.673
821.556, 261.468
822.038, 260.970
822.520, 262.717
823.002, 265.266
823.484, 267.134
823.966, 268.423
824.448, 269.649
824.931, 271.227
825.413, 271.508
825.895, 266.675
826.377, 261.314
826.859, 260.274
827.341, 268.390
827.823, 274.739
828.305, 279.066
828.787, 281.751
829.270, 283.124
829.752, 283.192
830.234, 281.612
830.716, 278.023
831.198, 274.283
831.680, 272.086
832.162, 271.195
832.644, 271.541
833.127, 273.841
833.609, 275.406
834.091, 274.813
834.573, 273.280
835.055, 271.792
835.537, 269.433
836.019, 270.369
836.501, 276.079
836.984, 281.873
837.466, 280.898
837.948, 275.061
838.430, 271.246
838.912, 270.734
839.394, 271.401
839.876, 271.997
840.358, 272.637
840.841, 273.399
841.323, 273.995
841.805, 275.591
842.287, 280.435
842.769, 283.941
843.251, 279.585
843.733, 266.535
844.215, 262.870
844.697, 271.284
845.180, 281.674
845.662, 282.641
846.144, 278.609
846.626, 276.424
847.108, 277.713
847.590, 279.257
848.072, 280.443
848.554, 280.792
849.036, 280.133
849.519, 279.053
850.001, 273.978
850.483, 262.409
850.965, 253.493
851.447, 259.894
851.929, 276.491
852.411, 284.738
852.893, 282.695
853.375, 277.188
853.858, 270.004
854.340, 263.799
854.822, 261.549
855.304, 265.419
855.786, 266.294
856.268, 261.691
856.750, 256.530
857.232, 254.028
857.714, 254.225
858.197, 254.997
858.679, 256.402
859.161, 257.188
859.643, 256.439
860.125, 254.374
860.607, 250.412
861.089, 244.363
861.571, 240.358
862.054, 241.754
862.536, 243.970
863.018, 244.635
863.500, 243.679
863.982, 241.844
864.464, 238.901
864.946, 236.287
865.428, 235.915
865.911, 236.397
866.393, 233.481
866.875, 227.562
867.357, 223.191
867.839, 223.525
868.321, 226.002
868.803, 230.027
869.285, 235.484
869.767, 238.870
870.250, 239.869
870.732, 239.483
871.214, 238.114
871.696, 235.720
872.178, 231.161
872.660, 224.814
873.142, 220.094
873.624, 220.167
874.106, 221.740
874.589, 222.107
875.071, 221.479
875.553, 221.212
876.035, 223.105
876.517, 223.421
876.999, 220.539
877.481, 215.647
877.963, 213.119
878.445, 212.974
878.928, 213.122
879.410, 212.941
879.892, 212.375
880.374, 210.639
880.856, 208.479
881.338, 207.678
881.820, 209.968
882.302, 212.501
882.784, 215.179
883.267, 217.338
883.749, 217.409
884.231, 214.882
884.713, 213.179
885.195, 213.229
885.677, 213.966
886.159, 214.204
886.641, 213.814
887.124, 212.347
887.606, 208.572
888.088, 205.656
888.570, 204.890
889.052, 205.927
889.534, 208.582
890.016, 214.573
890.498, 217.717
890.981, 217.588
891.463, 214.798
891.945, 207.776
892.427, 198.695
892.909, 194.948
893.391, 198.587
893.873, 202.813
894.355, 202.031
894.838, 200.107
895.320, 201.087
895.802, 208.297
896.284, 209.964
896.766, 203.757
897.248, 196.264
897.730, 192.887
898.212, 192.912
898.694, 191.206
899.177, 187.609
899.659, 184.362
900.141, 183.647
900.623, 183.722
901.105, 182.502
901.587, 179.661
902.069, 179.985
902.551, 187.425
903.033, 192.759
903.516, 191.015
903.998, 183.529
904.480, 180.134
904.962, 180.663
905.444, 181.670
905.926, 181.419
906.408, 180.411
906.890, 178.898
907.372, 176.999
907.855, 175.120
908.337, 173.062
908.819, 171.402
909.301, 170.103
909.783, 169.382
910.265, 170.141
910.747, 172.374
911.229, 174.431
911.711, 175.429
912.194, 176.645
912.676, 181.282
913.158, 186.951
913.640, 189.350
914.122, 185.937
914.604, 180.307
915.086, 169.094
915.568, 158.901
916.051, 159.783
916.533, 172.976
917.015, 182.072
917.497, 184.850
917.979, 184.377
918.461, 183.513
918.943, 181.829
919.425, 177.892
919.907, 170.031
920.390, 165.540
920.872, 170.554
921.354, 176.684
921.836, 178.356
922.318, 174.944
922.800, 172.104
923.282, 169.746
923.764, 168.630
924.247, 170.906
924.729, 174.034
925.211, 173.276
925.693, 168.867
926.175, 166.564
926.657, 172.375
927.139, 176.858
927.621, 174.232
928.104, 166.434
928.586, 166.947
929.068, 177.056
929.550, 184.602
930.032, 183.379
930.514, 177.603
930.996, 171.742
931.478, 166.727
931.960, 165.206
932.443, 172.334
932.925, 178.145
933.407, 179.199
933.889, 177.457
934.371, 175.350
934.853, 172.556
935.335, 172.472
935.817, 176.648
936.299, 180.532
936.782, 175.288
937.264, 166.527
937.746, 164.927
938.228, 176.516
938.710, 184.648
939.192, 180.871
939.674, 173.545
940.156, 168.214
940.638, 164.823
941.121, 164.508
941.603, 167.607
942.085, 171.294
942.567, 173.564
943.049, 174.767
943.531, 175.120
944.013, 174.721
944.495, 174.694
944.977, 175.833
945.460, 177.086
945.942, 178.359
946.424, 179.443
946.906, 178.520
947.388, 175.442
947.870, 173.172
948.352, 173.203
948.834, 174.474
949.317, 176.435
949.799, 178.461
950.281, 179.087
950.763, 175.016
951.245, 173.107
951.727, 175.427
952.209, 179.884
952.691, 183.434
953.174, 186.023
953.656, 189.763
954.138, 195.437
954.620, 199.971
955.102, 198.816
955.584, 195.291
956.066, 193.576
956.548, 194.830
957.031, 196.307
957.513, 197.565
957.995, 198.857
958.477, 199.952
958.959, 200.937
959.441, 204.934
959.923, 211.915
960.405, 217.621
960.887, 217.804
961.370, 216.460
961.852, 216.251
962.334, 217.609
962.816, 222.283
963.298, 234.163
963.780, 244.008
964.262, 249.603
964.744, 252.097
965.226, 253.004
965.709, 252.924
966.191, 255.845
966.673, 263.871
967.155, 273.578
967.637, 283.862
968.119, 293.428
968.601, 300.111
969.083, 297.338
969.565, 303.652
970.048, 321.800
970.530, 343.595
971.012, 361.175
971.494, 375.780
971.976, 392.544
972.458, 412.055
972.940, 431.497
973.422, 446.643
973.904, 463.673
974.387, 487.785
974.869, 519.144
975.351, 548.517
975.833, 573.630
976.315, 604.176
976.797, 644.077
977.279, 691.656
977.761, 742.943
978.244, 799.976
978.726, 869.391
979.208, 956.593
979.690, 1053.379
980.172, 1157.153
980.654, 1269.798
981.136, 1396.800
981.618, 1539.772
982.101, 1686.021
982.583, 1832.150
983.065, 1988.287
983.547, 2166.205
984.029, 2359.918
984.511, 2554.440
984.993, 2745.910
985.475, 2961.777
985.957, 3208.044
986.440, 3484.745
986.922, 3789.604
987.404, 4123.926
987.886, 4497.708
988.368, 4908.685
988.850, 5386.634
989.332, 5934.057
989.814, 6567.460
990.296, 7297.556
990.779, 8123.769
991.261, 9069.307
991.743, 10207.140
992.225, 11381.270
992.707, 12710.630
993.189, 13883.660
993.671, 14461.100
994.153, 14447.050
994.635, 13748.340
995.118, 12262.030
995.600, 10554.400
996.082, 8803.065
996.564, 7164.930
997.046, 5784.603
997.528, 4681.679
998.010, 3797.699
998.492, 3153.658
998.974, 2652.645
999.457, 2265.992
999.939, 1965.113
1000.421, 1701.247
1000.903, 1473.259
1001.385, 1280.749
1001.867, 1137.923
1002.349, 1017.445
1002.831, 913.450
1003.314, 824.763
1003.796, 753.172
1004.278, 699.030
1004.760, 651.056
1005.242, 607.221
1005.724, 566.809
1006.206, 526.837
1006.688, 490.191
1007.171, 460.381
1007.653, 438.972
1008.135, 420.165
1008.617, 403.567
1009.099, 388.147
1009.581, 372.929
1010.063, 358.101
1010.545, 348.240
1011.027, 342.473
1011.510, 333.502
1011.992, 310.500
1012.474, 289.119
1012.956, 282.512
1013.438, 285.763
1013.920, 282.852
1014.402, 270.276
1014.884, 260.811
1015.367, 257.257
1015.849, 255.577
1016.331, 250.130
1016.813, 242.092
1017.295, 233.525
1017.777, 224.604
1018.259, 216.874
1018.741, 209.917
1019.223, 205.523
1019.706, 205.483
1020.188, 209.759
1020.670, 211.568
1021.152, 210.914
1021.634, 207.614
1022.116, 199.433
1022.598, 190.301
1023.080, 183.454
1023.563, 178.932
1024.045, 176.990
1024.527, 180.774
1025.009, 181.848
1025.491, 178.198
1025.973, 173.191
1026.455, 172.301
1026.937, 174.308
1027.419, 174.444
1027.901, 171.693
1028.384, 169.434
1028.866, 170.437
1029.348, 172.198
1029.830, 173.298
1030.312, 173.718
1030.794, 171.959
1031.276, 167.632
1031.758, 163.819
1032.241, 162.114
1032.723, 161.817
1033.205, 162.989
1033.687, 164.670
1034.169, 164.641
1034.651, 158.691
1035.133, 156.076
1035.615, 159.842
1036.098, 164.913
1036.580, 163.881
1037.062, 158.026
1037.544, 157.273
1038.026, 162.805
1038.508, 167.115
1038.990, 162.828
1039.472, 156.779
1039.954, 154.062
1040.437, 154.776
1040.919, 155.067
1041.401, 154.573
1041.883, 155.371
1042.365, 159.079
1042.847, 163.244
1043.329, 163.123
1043.811, 160.418
1044.293, 158.592
1044.776, 159.190
1045.258, 159.990
1045.740, 160.590
1046.222, 161.218
1046.704, 162.111
1047.186, 163.254
1047.668, 164.303
1048.150, 165.251
1048.633, 166.174
1049.115, 167.290
1049.597, 168.248
1050.079, 169.566
1050.561, 170.642
1051.043, 168.196
1051.525, 160.391
1052.007, 155.136
1052.490, 154.313
1052.972, 156.770
1053.454, 162.963
1053.936, 170.555
1054.418, 175.004
1054.900, 174.396
1055.382, 173.537
1055.864, 173.177
1056.346, 173.505
1056.828, 175.273
1057.311, 178.118
1057.793, 177.892
1058.275, 174.781
1058.757, 171.000
1059.239, 165.591
1059.721, 162.146
1060.203, 164.928
1060.685, 171.109
1061.168, 174.159
1061.650, 173.049
1062.132, 171.432
1062.614, 169.416
1063.096, 168.081
1063.578, 169.767
1064.060, 172.450
1064.542, 172.507
1065.025, 169.418
1065.507, 167.397
1065.989, 167.902
1066.471, 169.623
1066.953, 172.798
1067.435, 176.604
1067.917, 177.551
1068.399, 176.210
1068.881, 175.663
1069.364, 177.240
1069.846, 179.537
1070.328, 183.146
1070.810, 186.109
1071.292, 185.668
1071.774, 179.986
1072.256, 179.315
1072.738, 184.358
1073.220, 189.454
1073.703, 188.804
1074.185, 186.522
1074.667, 188.689
1075.149, 194.175
1075.631, 196.977
1076.113, 192.496
1076.595, 190.372
1077.077, 192.771
1077.559, 197.251
1078.042, 200.071
1078.524, 201.656
1079.006, 203.397
1079.488, 205.608
1079.970, 207.374
1080.452, 207.805
1080.934, 207.999
1081.416, 208.119
1081.899, 208.410
1082.381, 211.969
1082.863, 218.780
1083.345, 225.715
1083.827, 231.656
1084.309, 236.685
1084.791, 241.267
1085.273, 244.975
1085.755, 246.914
1086.238, 244.902
1086.720, 246.229
1087.202, 251.719
1087.684, 258.143
1088.166, 262.513
1088.648, 265.954
1089.130, 269.823
1089.612, 274.576
1090.094, 282.400
1090.577, 298.318
1091.059, 312.116
1091.541, 321.359
1092.023, 327.209
1092.505, 331.306
1092.987, 333.945
1093.469, 335.849
1093.951, 336.430
1094.434, 341.274
1094.916, 357.835
1095.398, 376.994
1095.880, 390.978
1096.362, 400.241
1096.844, 415.383
1097.326, 436.847
1097.808, 457.306
1098.291, 471.759
1098.773, 486.217
1099.255, 505.420
1099.737, 529.572
1100.219, 559.153
1100.701, 599.855
1101.183, 634.860
1101.665, 661.744
1102.147, 690.264
1102.630, 728.517
1103.112, 774.085
1103.594, 822.996
1104.076, 874.807
1104.558, 930.519
1105.040, 987.636
1105.522, 1052.246
1106.004, 1125.623
1106.486, 1205.847
1106.969, 1289.263
1107.451, 1375.199
1107.933, 1462.279
1108.415, 1549.315
1108.897, 1639.400
1109.379, 1741.931
1109.861, 1840.362
1110.343, 1924.823
1110.826, 1995.662
1111.308, 2057.160
1111.790, 2109.463
1112.272, 2140.590
1112.754, 2142.342
1113.236, 2129.248
1113.718, 2108.834
1114.200, 2086.298
1114.682, 2069.771
1115.165, 2065.828
1115.647, 2049.002
1116.129, 2016.195
1116.611, 1981.569
1117.093, 1955.723
1117.575, 1934.124
1118.057, 1913.919
1118.539, 1891.527
1119.021, 1855.773
1119.504, 1792.255
1119.986, 1729.684
1120.468, 1670.769
1120.950, 1614.578
1121.432, 1558.619
1121.914, 1504.422
1122.396, 1455.593
1122.878, 1412.433
1123.361, 1372.745
1123.843, 1334.558
1124.325, 1300.876
1124.807, 1273.153
1125.289, 1250.236
1125.771, 1227.100
1126.253, 1204.344
1126.735, 1190.340
1127.218, 1189.790
1127.700, 1187.598
1128.182, 1167.818
1128.664, 1144.266
1129.146, 1130.297
1129.628, 1126.365
1130.110, 1116.058
1130.592, 1098.829
1131.074, 1081.685
1131.557, 1071.209
1132.039, 1058.091
1132.521, 1029.451
1133.003, 992.141
1133.485, 957.524
1133.967, 929.954
1134.449, 899.459
1134.931, 865.685
1135.413, 829.800
1135.896, 792.718
1136.378, 754.677
1136.860, 713.898
1137.342, 671.984
1137.824, 633.760
1138.306, 601.630
1138.788, 572.436
1139.270, 545.660
1139.752, 521.294
1140.235, 501.524
1140.717, 483.721
1141.199, 457.470
1141.681, 422.128
1142.163, 394.542
1142.645, 391.393
1143.127, 387.493
1143.609, 372.975
1144.092, 352.041
1144.574, 336.028
1145.056, 324.101
1145.538, 312.181
1146.020, 298.887
1146.502, 287.211
1146.984, 279.408
1147.466, 274.121
1147.948, 271.232
1148.431, 270.313
1148.913, 263.743
1149.395, 251.729
1149.877, 242.327
1150.359, 241.256
1150.841, 240.773
1151.323, 234.503
1151.805, 225.312
1152.287, 216.860
1152.770, 209.249
1153.252, 202.279
1153.734, 195.712
1154.216, 191.486
1154.698, 194.171
1155.180, 197.266
1155.662, 192.576
1156.144, 182.973
1156.627, 176.648
1157.109, 175.027
1157.591, 174.738
1158.073, 176.062
1158.555, 176.456
1159.037, 172.369
1159.519, 166.352
1160.001, 160.800
1160.484, 156.270
1160.966, 156.010
1161.448, 164.097
1161.930, 169.129
1162.412, 168.369
1162.894, 164.641
1163.376, 162.062
1163.858, 159.756
1164.340, 155.224
1164.823, 147.596
1165.305, 143.358
1165.787, 146.621
1166.269, 149.808
1166.751, 150.386
##END=



