##NAMES=Chromite
##RRUFFID=R110060
##IDEAL CHEMISTRY=Fe^2+^Cr^3+^_2_O_4_
##LOCALITY=Pilliken mine, south of Auburn, El Dorado County, California, USA
##OWNER=RRUFF
##SOURCE=James Shigley
##DESCRIPTION=Black massive with conchoidal cleavage
##STATUS=The identification of this mineral has been confirmed only by single crystal X-ray diffraction.
##URL=rruff.info/R110060
196.5579, 150.8314
197.0400, 150.4899
197.5221, 150.8548
198.0042, 151.2910
198.4863, 151.4224
198.9684, 151.2443
199.4506, 151.1322
199.9327, 151.0597
200.4148, 151.1290
200.8969, 151.6789
201.3790, 152.8162
201.8611, 153.8935
202.3433, 154.5058
202.8254, 154.6177
203.3075, 154.7554
203.7896, 155.0552
204.2717, 155.3189
204.7538, 154.8163
205.2360, 153.2517
205.7181, 151.9971
206.2002, 152.1458
206.6823, 154.0258
207.1644, 155.0907
207.6465, 154.9206
208.1287, 153.9275
208.6108, 153.3755
209.0929, 153.4266
209.5750, 153.4659
210.0571, 153.0448
210.5392, 152.0126
211.0214, 151.2422
211.5035, 150.8819
211.9856, 150.8128
212.4677, 150.5407
212.9498, 149.8858
213.4319, 149.4368
213.9140, 149.7534
214.3962, 151.2905
214.8783, 151.8940
215.3604, 150.9956
215.8425, 149.0829
216.3246, 148.1967
216.8067, 148.6588
217.2889, 149.5011
217.7710, 150.1925
218.2531, 150.7614
218.7352, 151.0786
219.2173, 151.0662
219.6994, 150.7901
220.1816, 150.5960
220.6637, 150.5797
221.1458, 150.4679
221.6279, 150.0279
222.1100, 149.0176
222.5921, 148.3146
223.0743, 148.0511
223.5564, 148.1497
224.0385, 148.2780
224.5206, 148.5494
225.0027, 148.6769
225.4848, 148.3940
225.9670, 147.3371
226.4491, 146.7970
226.9312, 147.0997
227.4133, 148.0168
227.8954, 148.4395
228.3775, 148.1806
228.8597, 147.6944
229.3418, 147.2225
229.8239, 146.7024
230.3060, 146.3389
230.7881, 146.1596
231.2702, 146.1470
231.7524, 146.3002
232.2345, 146.9262
232.7166, 147.2776
233.1987, 146.7537
233.6808, 144.5142
234.1629, 143.2942
234.6451, 143.6269
235.1272, 145.1286
235.6093, 146.1471
236.0914, 146.6197
236.5735, 146.6991
237.0556, 146.4122
237.5378, 145.5065
238.0199, 144.7913
238.5020, 144.3355
238.9841, 144.1029
239.4662, 143.9875
239.9483, 144.1366
240.4305, 144.2108
240.9126, 143.9868
241.3947, 143.1985
241.8768, 142.7197
242.3589, 142.7108
242.8410, 143.0316
243.3232, 143.1857
243.8053, 143.1134
244.2874, 142.9525
244.7695, 142.7459
245.2516, 142.3835
245.7337, 142.2229
246.2159, 142.3815
246.6980, 142.7309
247.1801, 142.8637
247.6622, 142.7306
248.1443, 142.4527
248.6264, 142.0372
249.1086, 141.2792
249.5907, 140.8923
250.0728, 141.0704
250.5549, 141.5762
251.0370, 141.7688
251.5191, 141.5307
252.0013, 141.1721
252.4834, 140.7885
252.9655, 140.2811
253.4476, 140.0188
253.9297, 140.0099
254.4118, 140.2443
254.8940, 140.8066
255.3761, 142.1125
255.8582, 143.0091
256.3403, 142.8572
256.8224, 141.1497
257.3046, 140.0905
257.7867, 139.8792
258.2688, 140.1913
258.7509, 140.4414
259.2330, 140.6572
259.7151, 140.7452
260.1973, 140.6594
260.6794, 140.3812
261.1615, 139.9926
261.6436, 139.4043
262.1257, 138.7887
262.6078, 138.4843
263.0900, 138.6524
263.5721, 138.7612
264.0542, 138.6219
264.5363, 138.2001
265.0184, 137.7192
265.5005, 137.0477
265.9827, 136.4637
266.4648, 136.4586
266.9469, 137.2915
267.4290, 137.9497
267.9111, 138.0694
268.3932, 137.6082
268.8754, 137.3038
269.3575, 137.2559
269.8396, 137.2065
270.3217, 136.6891
270.8038, 135.4625
271.2859, 134.7180
271.7681, 134.9754
272.2502, 136.1827
272.7323, 136.8281
273.2144, 136.7589
273.6965, 136.4118
274.1786, 136.2614
274.6608, 136.3594
275.1429, 136.3593
275.6250, 136.1249
276.1071, 135.7067
276.5892, 135.4835
277.0714, 135.4831
277.5535, 135.6101
278.0356, 135.8155
278.5177, 136.1124
278.9998, 136.3704
279.4819, 136.6452
279.9641, 136.8458
280.4462, 136.4033
280.9283, 135.1491
281.4104, 133.9688
281.8925, 133.8050
282.3746, 134.6799
282.8568, 134.9721
283.3389, 134.2556
283.8210, 132.9234
284.3031, 132.1681
284.7852, 132.0737
285.2673, 131.8473
285.7495, 130.4581
286.2316, 128.0782
286.7137, 127.1518
287.1958, 128.3667
287.6779, 130.6178
288.1600, 131.6580
288.6422, 131.4739
289.1243, 130.9502
289.6064, 130.5304
290.0885, 130.2103
290.5706, 130.0383
291.0527, 130.0622
291.5349, 130.1180
292.0170, 129.8223
292.4991, 129.2216
292.9812, 128.8290
293.4633, 129.2715
293.9454, 130.1754
294.4276, 130.1355
294.9097, 128.8916
295.3918, 127.5381
295.8739, 127.7119
296.3560, 129.1060
296.8381, 130.2731
297.3203, 130.5291
297.8024, 130.0827
298.2845, 129.1130
298.7666, 127.5462
299.2487, 126.2160
299.7308, 126.3237
300.2130, 127.3932
300.6951, 128.0467
301.1772, 127.2812
301.6593, 126.0081
302.1414, 125.6307
302.6235, 126.1330
303.1057, 126.7170
303.5878, 126.6791
304.0699, 126.2569
304.5520, 125.8791
305.0341, 125.6223
305.5162, 125.5292
305.9984, 125.7742
306.4805, 126.2980
306.9626, 126.7081
307.4447, 126.7869
307.9268, 126.5740
308.4089, 126.0625
308.8911, 125.0095
309.3732, 124.0328
309.8553, 123.6792
310.3374, 123.8310
310.8195, 124.0885
311.3016, 124.2842
311.7838, 124.4518
312.2659, 124.6673
312.7480, 125.0531
313.2301, 125.2195
313.7122, 124.7226
314.1943, 123.8362
314.6765, 123.1468
315.1586, 123.0536
315.6407, 123.1452
316.1228, 123.1414
316.6049, 122.9587
317.0870, 122.8947
317.5692, 123.3640
318.0513, 123.9703
318.5334, 124.1547
319.0155, 123.4371
319.4976, 122.5187
319.9797, 121.5100
320.4619, 120.3688
320.9440, 119.8197
321.4261, 120.5931
321.9082, 121.8391
322.3903, 122.7510
322.8724, 122.9866
323.3546, 123.0408
323.8367, 122.9915
324.3188, 122.8455
324.8009, 122.6839
325.2830, 122.3451
325.7651, 122.1049
326.2473, 122.1435
326.7294, 123.1350
327.2115, 123.6529
327.6936, 123.4004
328.1757, 122.5121
328.6578, 121.6457
329.1400, 120.7348
329.6221, 119.9146
330.1042, 119.2315
330.5863, 118.6631
331.0684, 118.2686
331.5505, 118.0539
332.0327, 118.0111
332.5148, 118.1299
332.9969, 118.4300
333.4790, 118.8667
333.9611, 119.5340
334.4432, 120.6400
334.9254, 121.0572
335.4075, 120.3857
335.8896, 119.3524
336.3717, 119.0473
336.8538, 119.8808
337.3359, 120.4357
337.8180, 120.1855
338.3001, 119.1521
338.7823, 118.6640
339.2644, 118.8601
339.7465, 119.3404
340.2286, 119.8295
340.7107, 120.3918
341.1928, 120.5355
341.6750, 120.0227
342.1571, 119.0676
342.6392, 118.5770
343.1213, 118.6228
343.6034, 118.7342
344.0855, 118.5240
344.5677, 118.0116
345.0498, 117.6396
345.5319, 117.4850
346.0140, 117.4579
346.4961, 117.3266
346.9782, 117.1018
347.4604, 117.0679
347.9425, 117.5967
348.4246, 118.4815
348.9067, 118.9257
349.3888, 118.8517
349.8709, 118.5173
350.3531, 118.1425
350.8352, 117.7466
351.3173, 117.4031
351.7994, 117.1335
352.2815, 116.9355
352.7636, 116.7514
353.2458, 116.5805
353.7279, 116.6007
354.2100, 117.2750
354.6921, 118.1959
355.1742, 118.6278
355.6563, 118.0333
356.1385, 117.1937
356.6206, 116.8178
357.1027, 116.8454
357.5848, 116.9836
358.0669, 117.1045
358.5490, 117.2284
359.0312, 117.4204
359.5133, 117.8240
359.9954, 118.0038
360.4775, 117.4318
360.9596, 116.4537
361.4417, 115.8109
361.9239, 116.1870
362.4060, 116.6801
362.8881, 116.7770
363.3702, 116.3615
363.8523, 115.8916
364.3344, 115.3268
364.8166, 114.8517
365.2987, 114.6757
365.7808, 115.1557
366.2629, 115.6367
366.7450, 116.0385
367.2271, 116.3523
367.7093, 116.3372
368.1914, 115.3075
368.6735, 114.3512
369.1556, 114.1833
369.6377, 116.0144
370.1198, 117.1452
370.6020, 117.1942
371.0841, 116.4296
371.5662, 115.7992
372.0483, 115.2179
372.5304, 114.8791
373.0125, 114.8753
373.4947, 115.2668
373.9768, 115.8885
374.4589, 117.0679
374.9410, 118.2223
375.4231, 118.2955
375.9052, 116.8971
376.3874, 115.5098
376.8695, 114.5154
377.3516, 113.9060
377.8337, 113.7800
378.3158, 114.2673
378.7979, 114.8776
379.2801, 115.0723
379.7622, 114.8298
380.2443, 114.7309
380.7264, 114.9551
381.2085, 115.3381
381.6906, 115.4638
382.1728, 115.3305
382.6549, 115.0090
383.1370, 114.3176
383.6191, 113.4254
384.1012, 113.0701
384.5833, 113.3791
385.0655, 114.0348
385.5476, 114.7500
386.0297, 115.4889
386.5118, 116.0857
386.9939, 116.5428
387.4760, 116.7838
387.9582, 116.6469
388.4403, 116.1274
388.9224, 115.4692
389.4045, 114.7140
389.8866, 113.9924
390.3687, 113.4897
390.8509, 113.3452
391.3330, 113.3660
391.8151, 113.4143
392.2972, 113.5114
392.7793, 113.7395
393.2614, 114.4947
393.7436, 115.1693
394.2257, 115.2961
394.7078, 114.6000
395.1899, 113.8193
395.6720, 113.0323
396.1541, 112.3555
396.6363, 111.9771
397.1184, 112.1193
397.6005, 112.4008
398.0826, 112.7440
398.5647, 113.1615
399.0468, 113.4785
399.5290, 113.6350
400.0111, 113.7080
400.4932, 113.7688
400.9753, 114.0973
401.4574, 114.0189
401.9395, 113.1835
402.4217, 111.8347
402.9038, 111.1833
403.3859, 111.6259
403.8680, 112.1852
404.3501, 112.3636
404.8322, 111.9950
405.3144, 111.8656
405.7965, 112.1261
406.2786, 112.4480
406.7607, 112.1437
407.2428, 111.0221
407.7249, 110.3404
408.2071, 110.7104
408.6892, 111.9191
409.1713, 112.6195
409.6534, 112.7816
410.1355, 112.6102
410.6176, 112.1191
411.0998, 111.3891
411.5819, 110.9224
412.0640, 110.8551
412.5461, 111.0271
413.0282, 111.2179
413.5103, 111.4269
413.9925, 111.6548
414.4746, 111.9921
414.9567, 112.3215
415.4388, 112.4612
415.9209, 112.3949
416.4030, 112.1712
416.8852, 111.6418
417.3673, 111.0132
417.8494, 110.6185
418.3315, 110.8674
418.8136, 111.1576
419.2957, 111.1099
419.7779, 110.7557
420.2600, 110.3081
420.7421, 109.7695
421.2242, 109.2341
421.7063, 108.7718
422.1884, 108.3376
422.6706, 108.0698
423.1527, 108.1638
423.6348, 108.4269
424.1169, 108.4965
424.5990, 107.9132
425.0811, 107.5173
425.5633, 107.6548
426.0454, 108.4308
426.5275, 108.9900
427.0096, 109.3284
427.4917, 109.4539
427.9738, 109.3182
428.4560, 108.6256
428.9381, 108.3091
429.4202, 108.6194
429.9023, 109.3458
430.3844, 109.7885
430.8665, 109.8992
431.3487, 109.8534
431.8308, 109.6700
432.3129, 109.3346
432.7950, 109.2553
433.2771, 109.5445
433.7592, 109.8015
434.2414, 109.3096
434.7235, 108.1547
435.2056, 107.3819
435.6877, 107.4258
436.1698, 107.9855
436.6519, 108.5436
437.1341, 109.0905
437.6162, 109.4654
438.0983, 109.3710
438.5804, 109.0717
439.0625, 109.0705
439.5446, 109.5295
440.0268, 110.0238
440.5089, 110.1671
440.9910, 110.0660
441.4731, 109.9383
441.9552, 109.6939
442.4373, 109.6006
442.9195, 109.9926
443.4016, 110.8540
443.8837, 111.4415
444.3658, 111.0070
444.8479, 110.4192
445.3300, 110.3780
445.8122, 111.6898
446.2943, 112.6746
446.7764, 112.8917
447.2585, 112.5771
447.7406, 112.3339
448.2227, 112.0536
448.7049, 112.0045
449.1870, 112.3899
449.6691, 113.3603
450.1512, 113.8127
450.6333, 113.4623
451.1154, 112.9022
451.5976, 112.6793
452.0797, 112.8499
452.5618, 113.2109
453.0439, 113.8417
453.5260, 114.5873
454.0081, 114.9841
454.4903, 115.0035
454.9724, 114.8703
455.4545, 114.6094
455.9366, 114.2643
456.4187, 114.1379
456.9008, 114.2489
457.3830, 114.5282
457.8651, 115.0546
458.3472, 115.7093
458.8293, 116.0606
459.3114, 115.7775
459.7935, 115.3210
460.2757, 115.2772
460.7578, 115.5879
461.2399, 115.9582
461.7220, 116.1727
462.2041, 116.3786
462.6862, 116.7978
463.1684, 117.5654
463.6505, 118.0758
464.1326, 117.6925
464.6147, 116.9640
465.0968, 116.5942
465.5789, 116.9404
466.0611, 117.5357
466.5432, 118.4061
467.0253, 119.5010
467.5074, 120.3462
467.9895, 120.7645
468.4716, 121.0213
468.9538, 121.2395
469.4359, 121.4565
469.9180, 121.5365
470.4001, 121.3855
470.8822, 121.1602
471.3643, 121.1254
471.8465, 121.3812
472.3286, 121.5236
472.8107, 121.4071
473.2928, 121.0870
473.7749, 120.8367
474.2570, 120.6366
474.7392, 120.6166
475.2213, 121.0344
475.7034, 121.7923
476.1855, 122.1728
476.6676, 122.0386
477.1497, 121.7350
477.6319, 121.7804
478.1140, 122.0582
478.5961, 122.1834
479.0782, 121.7549
479.5603, 121.2315
480.0424, 121.2653
480.5246, 121.7806
481.0067, 122.1607
481.4888, 121.8623
481.9709, 121.3428
482.4530, 121.0117
482.9352, 121.0062
483.4173, 121.0438
483.8994, 121.0915
484.3815, 121.0935
484.8636, 120.9648
485.3457, 120.4960
485.8279, 120.0898
486.3100, 119.8729
486.7921, 119.8491
487.2742, 119.8298
487.7563, 119.9476
488.2384, 119.9392
488.7206, 119.5923
489.2027, 118.6111
489.6848, 118.1551
490.1669, 118.4865
490.6490, 119.0807
491.1311, 119.0371
491.6133, 118.2544
492.0954, 117.5224
492.5775, 117.0015
493.0596, 116.7381
493.5417, 117.0389
494.0238, 117.9100
494.5060, 118.7570
494.9881, 119.0878
495.4702, 119.0527
495.9523, 119.0086
496.4344, 118.9836
496.9165, 119.0259
497.3987, 119.2330
497.8808, 119.5378
498.3629, 119.8114
498.8450, 119.9237
499.3271, 120.0532
499.8092, 120.3204
500.2914, 120.7139
500.7735, 121.1395
501.2556, 121.5970
501.7377, 122.0601
502.2198, 122.5137
502.7019, 122.9595
503.1841, 123.4048
503.6662, 123.8503
504.1483, 124.2994
504.6304, 124.7411
505.1125, 125.0761
505.5946, 125.5639
506.0768, 126.3274
506.5589, 127.2840
507.0410, 128.0062
507.5231, 128.4088
508.0052, 128.8100
508.4873, 129.3998
508.9695, 130.1721
509.4516, 130.8988
509.9337, 131.5686
510.4158, 132.2280
510.8979, 132.8554
511.3800, 133.4984
511.8622, 134.3626
512.3443, 135.5655
512.8264, 136.9243
513.3085, 138.3134
513.7906, 139.6907
514.2728, 140.9043
514.7549, 141.7599
515.2370, 142.4878
515.7191, 143.1909
516.2012, 143.8688
516.6833, 144.8442
517.1655, 146.6233
517.6476, 148.5861
518.1297, 150.1998
518.6118, 151.0220
519.0939, 151.9062
519.5760, 152.8842
520.0582, 154.0164
520.5403, 155.4847
521.0224, 157.6822
521.5045, 159.6307
521.9866, 160.9342
522.4688, 161.5989
522.9509, 162.7674
523.4330, 164.6186
523.9151, 166.5666
524.3972, 168.0974
524.8793, 169.1898
525.3615, 170.5337
525.8436, 172.2249
526.3257, 174.1096
526.8078, 176.0249
527.2899, 177.9459
527.7720, 179.7249
528.2542, 181.2747
528.7363, 182.6488
529.2184, 183.8348
529.7005, 184.8719
530.1826, 186.0334
530.6647, 187.5732
531.1469, 189.2546
531.6290, 190.8820
532.1111, 192.3917
532.5932, 193.9949
533.0753, 195.7631
533.5574, 197.6791
534.0396, 199.6946
534.5217, 202.0744
535.0038, 204.2581
535.4859, 206.0829
535.9680, 207.6644
536.4501, 209.3671
536.9323, 211.0974
537.4144, 213.1139
537.8965, 215.6210
538.3786, 218.6287
538.8607, 221.1812
539.3428, 223.1626
539.8250, 224.9742
540.3071, 226.8917
540.7892, 228.8981
541.2713, 231.1813
541.7534, 233.8577
542.2355, 236.5240
542.7177, 238.4793
543.1998, 239.9370
543.6819, 241.5258
544.1640, 243.5864
544.6461, 245.8496
545.1282, 248.1661
545.6104, 250.5048
546.0925, 252.7359
546.5746, 254.7753
547.0567, 256.6899
547.5388, 258.5138
548.0209, 260.1916
548.5031, 261.9651
548.9852, 264.1166
549.4673, 266.2896
549.9494, 268.1191
550.4315, 269.6068
550.9136, 270.7291
551.3958, 271.3943
551.8779, 271.7121
552.3600, 271.9375
552.8421, 271.9846
553.3242, 272.2466
553.8063, 273.0331
554.2885, 274.2337
554.7706, 274.8947
555.2527, 274.9752
555.7348, 274.9588
556.2169, 275.3987
556.6990, 276.0652
557.1812, 276.3140
557.6633, 275.9647
558.1454, 275.5054
558.6275, 275.4413
559.1096, 275.5947
559.5917, 275.6489
560.0739, 275.4331
560.5560, 275.1308
561.0381, 274.7423
561.5202, 274.3185
562.0023, 274.0598
562.4844, 274.3295
562.9666, 274.5021
563.4487, 274.2152
563.9308, 273.3184
564.4129, 272.6959
564.8950, 272.3627
565.3771, 272.2828
565.8593, 272.4987
566.3414, 273.1328
566.8235, 273.5472
567.3056, 273.7043
567.7877, 273.5826
568.2698, 273.0260
568.7520, 272.0606
569.2341, 271.1941
569.7162, 270.6371
570.1983, 270.2850
570.6804, 269.9029
571.1625, 269.5210
571.6447, 269.3126
572.1268, 269.7049
572.6089, 270.1493
573.0910, 270.1021
573.5731, 269.4740
574.0552, 268.5915
574.5374, 267.1557
575.0195, 265.7501
575.5016, 264.9125
575.9837, 265.4677
576.4658, 265.6954
576.9479, 265.4546
577.4301, 264.7780
577.9122, 263.6951
578.3943, 262.0296
578.8764, 260.2459
579.3585, 258.3598
579.8406, 256.4337
580.3228, 254.9974
580.8049, 254.1147
581.2870, 253.3132
581.7691, 252.3526
582.2512, 251.2200
582.7333, 249.8358
583.2155, 248.1889
583.6975, 246.3513
584.1796, 244.1723
584.6617, 241.8681
585.1439, 239.7796
585.6260, 238.0273
586.1081, 236.4689
586.5902, 235.1377
587.0723, 233.9219
587.5544, 232.6314
588.0366, 231.1516
588.5187, 229.6122
589.0008, 228.0548
589.4829, 226.4709
589.9650, 224.7679
590.4471, 222.5911
590.9293, 220.7411
591.4114, 219.7046
591.8935, 219.6159
592.3756, 219.3495
592.8577, 218.9248
593.3398, 218.2624
593.8220, 217.1397
594.3041, 215.6305
594.7862, 214.2928
595.2683, 213.2167
595.7504, 212.3757
596.2325, 211.8876
596.7147, 211.6051
597.1968, 211.1511
597.6789, 210.2189
598.1610, 209.1724
598.6431, 208.3290
599.1252, 207.6230
599.6074, 206.7282
600.0895, 205.1133
600.5716, 203.6261
601.0537, 202.8258
601.5358, 203.0267
602.0179, 202.5765
602.5001, 201.0574
602.9822, 199.2778
603.4643, 197.8250
603.9464, 196.7557
604.4285, 195.7514
604.9106, 194.7955
605.3928, 193.8787
605.8749, 193.1185
606.3570, 192.4664
606.8391, 191.3394
607.3212, 189.4668
607.8033, 187.1524
608.2855, 184.4908
608.7676, 181.6913
609.2497, 179.4287
609.7318, 178.6400
610.2139, 178.1474
610.6960, 176.9995
611.1782, 175.1705
611.6603, 173.3970
612.1424, 172.1135
612.6245, 170.8200
613.1066, 169.1772
613.5887, 166.8880
614.0709, 164.8638
614.5530, 163.2602
615.0351, 161.7645
615.5172, 159.9204
615.9993, 157.5108
616.4814, 155.7376
616.9636, 154.9465
617.4457, 154.6110
617.9278, 153.7008
618.4099, 152.2596
618.8920, 150.7716
619.3741, 149.4054
619.8563, 148.1105
620.3384, 146.7314
620.8205, 145.3327
621.3026, 144.2459
621.7847, 144.1061
622.2668, 144.0267
622.7490, 143.2077
623.2311, 141.4864
623.7132, 140.1214
624.1953, 139.6963
624.6774, 139.5782
625.1595, 139.3100
625.6417, 138.6192
626.1238, 138.3231
626.6059, 138.5799
627.0880, 139.0656
627.5701, 139.3634
628.0522, 139.4602
628.5344, 139.4657
629.0165, 139.3006
629.4986, 139.2086
629.9807, 139.7087
630.4628, 140.7378
630.9449, 141.9328
631.4271, 143.1369
631.9092, 144.4072
632.3913, 145.8366
632.8734, 147.4089
633.3555, 148.9795
633.8376, 150.4057
634.3198, 151.8755
634.8019, 153.5750
635.2840, 155.6096
635.7661, 157.4182
636.2482, 158.7151
636.7303, 159.9763
637.2125, 161.5319
637.6946, 163.4822
638.1767, 165.4856
638.6588, 167.5715
639.1409, 169.6337
639.6230, 171.4565
640.1052, 173.0623
640.5873, 174.6450
641.0694, 176.2110
641.5515, 177.8281
642.0336, 179.6997
642.5157, 181.6947
642.9979, 183.4642
643.4800, 184.6313
643.9621, 185.6595
644.4442, 186.8972
644.9263, 188.2973
645.4084, 189.5264
645.8906, 190.4701
646.3727, 191.2138
646.8548, 191.7527
647.3369, 192.0614
647.8190, 192.3938
648.3011, 192.7230
648.7833, 193.1134
649.2654, 193.7123
649.7475, 194.5788
650.2296, 194.9202
650.7117, 194.6194
651.1938, 194.0875
651.6760, 193.8216
652.1581, 193.7424
652.6402, 193.5969
653.1223, 193.2622
653.6044, 192.9580
654.0865, 192.9175
654.5687, 193.0405
655.0508, 193.1339
655.5329, 193.0522
656.0150, 193.0044
656.4971, 193.2139
656.9792, 193.5725
657.4614, 193.4890
657.9435, 192.4162
658.4256, 191.6538
658.9077, 191.7851
659.3898, 192.7522
659.8719, 193.0770
660.3541, 192.6648
660.8362, 192.0530
661.3183, 191.4098
661.8004, 190.8553
662.2825, 190.9086
662.7646, 191.6208
663.2468, 192.5429
663.7289, 193.1584
664.2110, 193.7935
664.6931, 195.0038
665.1752, 197.3027
665.6573, 199.1481
666.1395, 199.3144
666.6216, 198.8792
667.1037, 199.1678
667.5858, 201.1707
668.0679, 202.8869
668.5500, 204.0020
669.0322, 204.8108
669.5143, 205.9158
669.9964, 207.3513
670.4785, 208.9496
670.9606, 210.7313
671.4427, 212.5959
671.9249, 214.1214
672.4070, 215.3726
672.8891, 216.8402
673.3712, 219.0686
673.8533, 221.5075
674.3354, 223.3490
674.8176, 224.6586
675.2997, 226.2327
675.7818, 228.7847
676.2639, 231.4684
676.7460, 233.7025
677.2281, 235.1760
677.7103, 237.0458
678.1924, 239.6129
678.6745, 242.3171
679.1566, 244.7507
679.6387, 246.8365
680.1208, 249.0671
680.6030, 251.5208
681.0851, 254.0439
681.5672, 256.5173
682.0493, 258.9403
682.5314, 261.4436
683.0135, 264.0824
683.4957, 266.6868
683.9778, 269.0096
684.4599, 271.1648
684.9420, 273.2784
685.4241, 275.4611
685.9063, 277.5993
686.3884, 279.5538
686.8705, 281.4276
687.3526, 283.6386
687.8347, 286.9238
688.3168, 289.5314
688.7990, 290.7428
689.2811, 290.8373
689.7632, 291.5811
690.2453, 293.0488
690.7274, 294.6362
691.2095, 296.1153
691.6917, 297.4200
692.1738, 298.3060
692.6559, 298.7710
693.1380, 299.1310
693.6201, 299.8775
694.1022, 300.4671
694.5844, 300.2780
695.0665, 299.1225
695.5486, 297.8990
696.0307, 296.9029
696.5128, 295.9641
696.9949, 294.9657
697.4771, 294.1377
697.9592, 292.7488
698.4413, 290.6293
698.9234, 288.1864
699.4055, 285.9914
699.8876, 284.0608
700.3698, 281.6990
700.8519, 278.7951
701.3340, 275.4861
701.8161, 271.7643
702.2982, 267.8003
702.7803, 264.0237
703.2625, 260.7299
703.7446, 257.4969
704.2267, 254.0661
704.7088, 250.5076
705.1909, 246.9931
705.6730, 243.4780
706.1552, 240.1641
706.6373, 237.1805
707.1194, 234.4382
707.6015, 231.5104
708.0836, 228.3562
708.5657, 225.1810
709.0479, 222.0407
709.5300, 218.9273
710.0121, 215.8174
710.4942, 212.6972
710.9763, 209.5782
711.4584, 206.4561
711.9406, 203.3309
712.4227, 200.2064
712.9048, 197.0783
713.3869, 194.1366
713.8690, 191.5545
714.3511, 189.1399
714.8333, 186.7370
715.3154, 184.3343
715.7975, 182.0221
716.2796, 179.8499
716.7617, 177.6950
717.2438, 175.3947
717.7260, 172.9431
718.2081, 170.6054
718.6902, 168.3929
719.1723, 166.3989
719.6544, 164.9953
720.1365, 163.9090
720.6187, 162.3964
721.1008, 160.1372
721.5829, 157.8539
722.0650, 155.8955
722.5471, 154.2894
723.0292, 153.0318
723.5114, 152.6055
723.9935, 151.9758
724.4756, 150.8968
724.9577, 149.5489
725.4398, 148.1918
725.9219, 146.8337
726.4041, 145.4232
726.8862, 143.8486
727.3683, 142.3175
727.8504, 141.6189
728.3325, 141.6026
728.8146, 141.2250
729.2968, 139.6939
729.7789, 137.8452
730.2610, 136.7103
730.7431, 136.0773
731.2252, 135.2432
731.7073, 133.3036
732.1895, 131.6818
732.6716, 131.2980
733.1537, 132.0468
733.6358, 132.0468
734.1179, 130.9253
734.6000, 129.6754
735.0822, 128.6331
735.5643, 127.8057
736.0464, 127.4213
736.5285, 127.5043
737.0106, 127.5610
737.4927, 127.3558
737.9749, 126.8494
738.4570, 125.8423
738.9391, 124.3523
739.4212, 122.9088
739.9033, 121.6068
740.3854, 120.6251
740.8676, 120.2384
741.3497, 120.7552
741.8318, 120.6879
742.3139, 119.5678
742.7960, 118.2809
743.2781, 117.4838
743.7603, 117.3023
744.2424, 116.5979
744.7245, 115.1973
745.2066, 113.8688
745.6887, 113.5828
746.1708, 113.9782
746.6530, 114.0989
747.1351, 113.7453
747.6172, 113.3163
748.0993, 113.0313
748.5814, 112.8659
749.0635, 112.8118
749.5457, 113.1142
750.0278, 113.1173
750.5099, 112.4563
750.9920, 111.6437
751.4741, 111.3861
751.9562, 111.9569
752.4384, 111.8162
752.9205, 110.5397
753.4026, 108.9410
753.8847, 108.3525
754.3668, 108.5845
754.8489, 108.8767
755.3311, 109.0082
755.8132, 109.0998
756.2953, 109.2476
756.7774, 109.4304
757.2595, 109.6073
757.7416, 109.9668
758.2238, 110.0862
758.7059, 109.7387
759.1880, 109.1255
759.6701, 108.6334
760.1522, 108.2526
760.6343, 108.0434
761.1165, 108.1036
761.5986, 108.2601
762.0807, 108.0510
762.5628, 107.5280
763.0449, 106.9842
763.5270, 106.3682
764.0092, 105.9595
764.4913, 106.2681
764.9734, 107.0318
765.4555, 107.4410
765.9376, 106.7676
766.4197, 106.1455
766.9019, 106.0949
767.3840, 106.4527
767.8661, 106.3840
768.3482, 105.6568
768.8303, 105.1996
769.3124, 105.5507
769.7946, 106.3970
770.2767, 106.6290
770.7588, 106.2908
771.2409, 105.7967
771.7230, 105.1584
772.2051, 104.6545
772.6873, 104.6836
773.1694, 105.1736
773.6515, 105.5496
774.1336, 105.5555
774.6157, 105.4574
775.0978, 105.3320
775.5800, 105.1856
776.0621, 105.1660
776.5442, 105.3501
777.0263, 105.4419
777.5084, 105.1844
777.9905, 104.6885
778.4727, 104.5977
778.9548, 104.8799
779.4369, 104.9765
779.9190, 104.0832
780.4011, 103.0746
780.8832, 102.8821
781.3654, 103.5607
781.8475, 104.2698
782.3296, 104.9417
782.8117, 105.3867
783.2938, 105.4682
783.7759, 105.1401
784.2581, 105.0353
784.7402, 105.2666
785.2223, 105.3744
785.7044, 104.8555
786.1865, 103.9367
786.6686, 103.5583
787.1508, 103.7418
787.6329, 104.0098
788.1150, 103.9199
788.5971, 103.7977
789.0792, 104.0930
789.5613, 104.9471
790.0435, 105.3151
790.5256, 104.3017
791.0077, 103.3054
791.4898, 103.1337
791.9719, 103.9599
792.4540, 104.3463
792.9362, 104.2084
793.4183, 103.9444
793.9004, 103.8295
794.3825, 103.8527
794.8646, 104.0300
795.3467, 104.3659
795.8289, 104.6861
796.3110, 105.0040
796.7931, 105.1588
797.2752, 104.9477
797.7573, 104.2331
798.2394, 103.6711
798.7216, 103.3764
799.2037, 103.2070
799.6858, 103.0621
800.1679, 102.9186
800.6500, 103.0765
801.1321, 103.6020
801.6143, 104.0310
802.0964, 103.7546
802.5785, 103.1359
803.0606, 102.8785
803.5427, 103.0761
804.0248, 103.4134
804.5070, 103.8722
804.9891, 104.2781
805.4712, 104.4861
805.9533, 104.4227
806.4354, 104.3242
806.9175, 104.1509
807.3997, 104.0011
807.8818, 103.9503
808.3639, 103.9968
808.8460, 104.0859
809.3281, 104.2206
809.8102, 104.3361
810.2924, 104.2934
810.7745, 104.2329
811.2566, 104.4707
811.7387, 105.1123
812.2208, 105.3607
812.7029, 104.2986
813.1851, 103.1731
813.6672, 102.9389
814.1493, 103.9042
814.6314, 104.4310
815.1135, 104.4280
815.5956, 104.2039
816.0778, 103.9249
816.5599, 103.6215
817.0420, 103.4514
817.5241, 103.4232
818.0062, 103.4634
818.4883, 103.4214
818.9705, 103.4747
819.4526, 103.8905
819.9347, 104.7754
820.4168, 105.4034
820.8989, 105.6471
821.3810, 105.5580
821.8632, 105.0728
822.3453, 104.1295
822.8274, 103.3706
823.3095, 102.7967
823.7916, 102.4871
824.2737, 102.7395
824.7559, 103.2431
825.2380, 103.3137
825.7201, 102.9230
826.2022, 102.5233
826.6843, 102.3189
827.1664, 102.2559
827.6486, 102.3448
828.1307, 102.6233
828.6128, 102.7579
829.0949, 102.6592
829.5770, 102.5702
830.0591, 102.6712
830.5413, 102.9288
831.0234, 102.8986
831.5055, 102.5853
831.9876, 102.3940
832.4697, 102.8787
832.9518, 103.4683
833.4340, 103.4430
833.9161, 102.8111
834.3982, 102.3044
834.8803, 102.2088
835.3624, 102.2729
835.8445, 102.4420
836.3267, 102.7038
836.8088, 102.7421
837.2909, 102.5173
837.7730, 102.2504
838.2551, 102.0493
838.7372, 101.9001
839.2194, 101.7568
839.7015, 101.6272
840.1836, 101.5545
840.6657, 101.5979
841.1478, 101.6751
841.6299, 101.7872
842.1121, 101.9106
842.5942, 101.8645
843.0763, 101.5354
843.5584, 101.2219
844.0405, 100.9968
844.5226, 100.8639
845.0048, 100.8760
845.4869, 101.0227
845.9690, 101.1533
846.4511, 101.1110
846.9332, 101.0816
847.4153, 101.4530
847.8975, 102.0173
848.3796, 102.1848
848.8617, 101.0415
849.3438, 100.3066
849.8259, 100.7362
850.3080, 101.8336
850.7902, 102.3127
851.2723, 102.0868
851.7544, 101.7370
852.2365, 101.3982
852.7186, 101.0682
853.2007, 100.7707
853.6829, 100.4794
854.1650, 100.1118
854.6471, 99.41204
855.1292, 98.91016
855.6113, 99.06080
856.0934, 99.53161
856.5756, 99.69514
857.0577, 99.30370
857.5398, 99.08245
858.0219, 99.18504
858.5040, 99.36739
858.9861, 99.15445
859.4683, 98.63715
859.9504, 98.35472
860.4325, 98.51447
860.9146, 98.67408
861.3967, 98.42723
861.8788, 97.94632
862.3610, 97.42284
862.8431, 96.73476
863.3252, 96.32426
863.8073, 96.30363
864.2894, 96.47817
864.7715, 96.75329
865.2537, 97.15311
865.7358, 97.15611
866.2179, 96.69668
866.7000, 96.03677
867.1821, 95.20573
867.6642, 94.44247
868.1464, 94.23513
868.6285, 94.76657
869.1106, 95.03809
869.5927, 94.19909
870.0748, 93.36019
870.5569, 93.37109
871.0391, 94.46067
871.5212, 94.69241
872.0033, 93.86163
872.4854, 92.96503
872.9675, 93.00430
873.4496, 93.48172
873.9318, 92.96895
874.4139, 91.53242
874.8960, 90.48376
875.3781, 91.10855
875.8602, 91.92041
876.3423, 91.92822
876.8245, 91.08558
877.3066, 90.57475
877.7887, 90.56065
878.2708, 90.51340
878.7529, 90.20832
879.2350, 89.72172
879.7172, 89.25153
880.1993, 88.81483
880.6814, 88.46960
881.1635, 88.23016
881.6456, 88.11163
882.1277, 88.33744
882.6099, 88.70572
883.0920, 88.61392
883.5741, 87.61126
884.0562, 86.56306
884.5383, 85.44385
885.0204, 84.46934
885.5026, 84.27859
885.9847, 84.80807
886.4668, 85.12783
886.9489, 84.94173
887.4310, 84.50997
887.9131, 84.00053
888.3953, 83.47757
888.8774, 83.03001
889.3595, 82.61968
889.8416, 82.39400
890.3237, 82.42079
890.8058, 82.59391
891.2880, 82.96164
891.7701, 83.59332
892.2522, 83.29690
892.7343, 81.82430
893.2164, 80.34782
893.6985, 80.31173
894.1807, 80.96085
894.6628, 81.19530
895.1449, 80.80041
895.6270, 80.31473
896.1091, 79.83145
896.5912, 79.40096
897.0734, 79.03085
897.5555, 78.71745
898.0376, 78.61050
898.5197, 78.76144
899.0018, 78.81951
899.4839, 78.40051
899.9661, 77.77905
900.4482, 77.57764
900.9303, 77.71506
901.4124, 77.61926
901.8945, 76.42504
902.3766, 75.50300
902.8588, 75.84095
903.3409, 77.07950
903.8230, 77.57342
904.3051, 77.21450
904.7872, 76.48782
905.2693, 75.34514
905.7515, 74.17265
906.2336, 73.85513
906.7157, 74.16759
907.1978, 74.46251
907.6799, 74.50602
908.1620, 74.43058
908.6442, 74.17264
909.1263, 73.87617
909.6084, 73.80982
910.0905, 74.18246
910.5726, 74.18668
911.0547, 73.63927
911.5369, 72.97500
912.0190, 72.84020
912.5011, 73.05013
912.9832, 73.07427
913.4653, 72.80589
913.9474, 72.45544
914.4296, 72.02071
914.9117, 71.65163
915.3938, 71.51280
915.8759, 71.68931
916.3580, 71.75197
916.8401, 71.70158
917.3223, 71.53242
917.8044, 71.06303
918.2865, 70.47259
918.7686, 70.59126
919.2507, 71.33517
919.7328, 71.88492
920.2150, 71.58916
920.6971, 71.06490
921.1792, 70.67611
921.6613, 70.41318
922.1434, 70.04859
922.6255, 69.42715
923.1077, 69.06223
923.5898, 69.15568
924.0719, 69.53780
924.5540, 69.92727
925.0361, 70.27832
925.5182, 70.39004
926.0004, 70.08894
926.4825, 69.69153
926.9646, 69.34905
927.4467, 69.04784
927.9288, 68.76194
928.4109, 68.34489
928.8931, 68.28483
929.3752, 68.77416
929.8573, 69.27607
930.3394, 69.06809
930.8215, 68.35606
931.3036, 67.82289
931.7858, 67.54240
932.2679, 67.55398
932.7500, 68.38623
933.2321, 69.14497
933.7142, 69.02256
934.1964, 67.79890
934.6785, 66.98563
935.1606, 66.64674
935.6427, 66.59050
936.1248, 66.86256
936.6069, 67.30303
937.0891, 67.23063
937.5712, 66.76501
938.0533, 66.51407
938.5354, 67.08707
939.0175, 67.68962
939.4996, 67.95155
939.9818, 67.87891
940.4639, 67.48701
940.9460, 66.55921
941.4281, 65.92837
941.9102, 65.79702
942.3923, 65.92269
942.8745, 65.95564
943.3566, 65.92126
943.8387, 65.90048
944.3208, 65.92961
944.8029, 65.91370
945.2850, 65.69974
945.7672, 65.47935
946.2493, 65.46309
946.7314, 65.74421
947.2135, 65.82675
947.6956, 65.64314
948.1777, 65.49374
948.6599, 65.63250
949.1420, 65.97459
949.6241, 66.49457
950.1062, 67.11368
950.5883, 67.27168
951.0704, 66.04700
951.5526, 64.88907
952.0347, 64.64706
952.5168, 65.10140
952.9989, 65.50906
953.4810, 65.91872
953.9631, 66.02559
954.4453, 65.67020
954.9274, 65.09965
955.4095, 64.59460
955.8916, 64.20837
956.3737, 64.06242
956.8558, 64.32944
957.3380, 64.58871
957.8201, 64.85194
958.3022, 64.93327
958.7843, 64.53539
959.2664, 63.44803
959.7485, 63.24042
960.2307, 64.08146
960.7128, 64.88504
961.1949, 64.51279
961.6770, 63.59043
962.1591, 62.93078
962.6412, 62.58867
963.1234, 62.47731
963.6055, 62.79881
964.0876, 63.09053
964.5697, 63.21160
965.0518, 63.17033
965.5339, 62.95266
966.0161, 62.55732
966.4982, 62.24079
966.9803, 62.07747
967.4624, 62.07301
967.9445, 62.39837
968.4266, 62.84633
968.9088, 63.06838
969.3909, 62.78194
969.8730, 62.53120
970.3551, 62.36702
970.8372, 62.23267
971.3193, 61.98668
971.8015, 61.67327
972.2836, 61.80101
972.7657, 62.42398
973.2478, 62.95691
973.7299, 62.87737
974.2120, 62.56707
974.6942, 62.34948
975.1763, 62.24963
975.6584, 61.98015
976.1405, 61.30976
976.6226, 60.96817
977.1047, 61.39680
977.5869, 62.18989
978.0690, 62.14129
978.5511, 61.44515
979.0332, 60.80467
979.5153, 60.19793
979.9974, 60.15359
980.4796, 61.79708
980.9617, 63.79282
981.4438, 64.16015
981.9259, 62.06204
982.4080, 60.91164
982.8901, 61.01925
983.3723, 61.48577
983.8544, 61.44014
984.3365, 61.10127
984.8186, 60.82620
985.3007, 60.65135
985.7828, 60.64516
986.2650, 61.05532
986.7471, 61.40976
987.2292, 61.47366
987.7113, 61.30795
988.1934, 61.22445
988.6755, 61.22414
989.1577, 61.25599
989.6398, 61.23925
990.1219, 61.34482
990.6040, 62.19533
991.0861, 63.20198
991.5682, 63.34947
992.0504, 61.16077
992.5325, 59.99128
993.0146, 60.62294
993.4967, 61.60798
993.9788, 61.43518
994.4609, 60.28444
994.9431, 59.70025
995.4252, 59.76390
995.9073, 60.24220
996.3894, 61.56997
996.8715, 62.73909
997.3536, 62.83895
997.8358, 61.91763
998.3179, 61.28446
998.8000, 60.96869
999.2821, 60.99012
999.7642, 61.53079
1000.246, 62.15400
1000.728, 61.70125
1001.211, 60.62177
1001.693, 60.12492
1002.175, 60.86074
1002.657, 61.60368
1003.139, 61.96820
1003.621, 61.98648
1004.103, 61.60780
1004.585, 60.67782
1005.068, 60.28234
1005.550, 60.45011
1006.032, 60.83837
1006.514, 61.36088
1006.996, 61.84040
1007.478, 62.00102
1007.960, 61.89180
1008.442, 61.83912
1008.924, 62.23443
1009.407, 62.25400
1009.889, 61.50625
1010.371, 60.50165
1010.853, 60.44972
1011.335, 61.18421
1011.817, 61.58098
1012.299, 61.32124
1012.781, 60.96006
1013.263, 60.82624
1013.746, 60.85058
1014.228, 61.04235
1014.710, 61.49946
1015.192, 61.45318
1015.674, 60.68059
1016.156, 60.14320
1016.638, 60.59066
1017.120, 61.59600
1017.603, 62.33139
1018.085, 62.82186
1018.567, 63.13327
1019.049, 63.23328
1019.531, 63.21874
1020.013, 62.92917
1020.495, 62.66510
1020.977, 63.01520
1021.459, 64.00327
1021.942, 64.48199
1022.424, 64.28201
1022.906, 63.75677
1023.388, 62.91280
1023.870, 62.12301
1024.352, 61.82981
1024.834, 62.11883
1025.316, 62.31537
1025.799, 62.34557
1026.281, 62.33662
1026.763, 62.32869
1027.245, 62.32583
1027.727, 62.35704
1028.209, 62.40374
1028.691, 62.39619
1029.173, 62.23753
1029.656, 62.13029
1030.138, 62.23943
1030.620, 62.40205
1031.102, 62.43796
1031.584, 62.31572
1032.066, 62.20636
1032.548, 62.09917
1033.030, 62.12614
1033.512, 62.65864
1033.995, 63.21170
1034.477, 63.02189
1034.959, 62.21880
1035.441, 61.79885
1035.923, 62.35186
1036.405, 62.72456
1036.887, 62.55535
1037.369, 62.25116
1037.851, 62.83838
1038.334, 64.01180
1038.816, 64.63548
1039.298, 64.41975
1039.780, 63.78791
1040.262, 62.32608
1040.744, 61.08167
1041.226, 61.05807
1041.708, 62.34713
1042.191, 63.02506
1042.673, 63.06177
1043.155, 62.82424
1043.637, 62.27488
1044.119, 61.77155
1044.601, 61.90752
1045.083, 62.46829
1045.565, 62.95665
1046.047, 63.39381
1046.530, 63.45280
1047.012, 62.88312
1047.494, 62.27042
1047.976, 62.39552
1048.458, 63.07617
1048.940, 63.44096
1049.422, 63.42724
1049.904, 63.22576
1050.386, 62.66149
1050.869, 62.21856
1051.351, 62.27435
1051.833, 62.71260
1052.315, 63.16654
1052.797, 63.69194
1053.279, 63.74071
1053.761, 63.02800
1054.243, 62.15568
1054.726, 61.86613
1055.208, 61.90965
1055.690, 61.93872
1056.172, 61.85558
1056.654, 61.85786
1057.136, 62.00320
1057.618, 62.15689
1058.100, 62.26626
1058.583, 62.31470
1059.065, 62.19108
1059.547, 61.93213
1060.029, 61.70584
1060.511, 61.69468
1060.993, 61.63015
1061.475, 61.29445
1061.957, 60.89536
1062.439, 60.70366
1062.922, 60.72614
1063.404, 60.94989
1063.886, 61.39771
1064.368, 61.80855
1064.850, 61.96483
1065.332, 61.96139
1065.814, 61.86665
1066.296, 61.69169
1066.778, 61.48992
1067.261, 61.26345
1067.743, 60.99925
1068.225, 60.63538
1068.707, 60.32953
1069.189, 60.46499
1069.671, 60.87948
1070.153, 61.19140
1070.635, 61.28151
1071.118, 61.35572
1071.600, 61.59552
1072.082, 61.73367
1072.564, 61.52724
1073.046, 61.03419
1073.528, 61.03526
1074.010, 61.49712
1074.492, 61.93190
1074.974, 62.00310
1075.457, 62.03848
1075.939, 62.50981
1076.421, 63.02897
1076.903, 62.84373
1077.385, 61.46404
1077.867, 60.90596
1078.349, 61.40985
1078.831, 62.08919
1079.313, 62.02864
1079.796, 61.67162
1080.278, 61.72888
1080.760, 62.16870
1081.242, 62.50978
1081.724, 62.42938
1082.206, 62.48470
1082.688, 62.87103
1083.170, 63.34000
1083.652, 63.36531
1084.135, 63.06958
1084.617, 62.88877
1085.099, 62.89591
1085.581, 63.09422
1086.063, 63.92336
1086.545, 64.52251
1087.027, 64.16611
1087.509, 63.01262
1087.992, 62.87614
1088.474, 63.77319
1088.956, 64.21490
1089.438, 63.25306
1089.920, 62.19212
1090.402, 62.55800
1090.884, 63.51101
1091.366, 63.83866
1091.849, 62.91323
1092.331, 62.72948
1092.813, 63.50189
1093.295, 64.28942
1093.777, 64.23789
1094.259, 63.81110
1094.741, 63.95664
1095.223, 64.51260
1095.705, 64.88089
1096.188, 64.56772
1096.670, 64.42773
1097.152, 64.68501
1097.634, 65.04993
1098.116, 65.14197
1098.598, 65.01164
1099.080, 64.92500
1099.562, 64.90395
1100.044, 64.75478
1100.527, 63.92844
1101.009, 63.38866
1101.491, 63.94194
1101.973, 65.13943
1102.455, 65.46024
1102.937, 64.89559
1103.419, 64.69296
1103.901, 65.26622
1104.384, 65.85542
1104.866, 65.54956
1105.348, 64.99967
1105.830, 64.91068
1106.312, 65.43021
1106.794, 65.68057
1107.276, 65.59443
1107.758, 65.50676
1108.240, 65.58605
1108.723, 65.73115
1109.205, 65.78770
1109.687, 65.78835
1110.169, 65.79176
1110.651, 65.74072
1111.133, 65.85372
1111.615, 66.24299
1112.097, 66.61316
1112.579, 66.76324
1113.062, 66.70699
1113.544, 66.35198
1114.026, 65.79115
1114.508, 65.48290
1114.990, 65.95362
1115.472, 66.33694
1115.954, 66.36039
1116.436, 66.15718
1116.919, 65.69411
1117.401, 65.03447
1117.883, 65.29060
1118.365, 66.56100
1118.847, 67.78950
1119.329, 68.47998
1119.811, 68.63320
1120.293, 67.73014
1120.776, 66.29591
1121.258, 66.22977
1121.740, 67.71068
1122.222, 68.81383
1122.704, 69.13850
1123.186, 68.97971
1123.668, 68.43342
1124.150, 67.70454
1124.632, 66.90961
1125.115, 66.04176
1125.597, 65.70013
1126.079, 66.07735
1126.561, 66.33167
1127.043, 66.05818
1127.525, 65.63512
1128.007, 65.77876
1128.489, 66.18985
1128.971, 66.34190
1129.454, 66.00416
1129.936, 65.66788
1130.418, 65.30234
1130.900, 65.10798
1131.382, 65.36892
1131.864, 65.82676
1132.346, 65.48428
1132.828, 64.62549
1133.311, 64.18782
1133.793, 65.11868
1134.275, 65.78652
1134.757, 65.65370
1135.239, 65.31034
1135.721, 65.34174
1136.203, 65.68259
1136.685, 65.73528
1137.167, 65.51173
1137.650, 65.33440
1138.132, 65.52347
1138.614, 65.66798
1139.096, 65.51933
1139.578, 65.21777
1140.060, 64.97543
1140.542, 64.79268
1141.024, 64.56600
1141.506, 64.27526
1141.989, 64.13931
1142.471, 64.64171
1142.953, 65.09497
1143.435, 64.79703
1143.917, 63.94794
1144.399, 63.65691
1144.881, 64.03819
1145.363, 64.17443
1145.846, 63.80161
1146.328, 63.40187
1146.810, 63.59828
1147.292, 63.99050
1147.774, 64.11367
1148.256, 63.88369
1148.738, 63.88952
1149.220, 64.18391
1149.703, 64.57512
1150.185, 65.07150
1150.667, 65.48127
1151.149, 65.55097
1151.631, 65.33006
1152.113, 64.84372
1152.595, 63.95272
1153.077, 63.33423
1153.559, 63.09206
1154.042, 62.96764
1154.524, 62.83561
1155.006, 62.72266
1155.488, 62.75345
1155.970, 62.84541
1156.452, 62.78392
1156.934, 62.26702
1157.416, 62.04303
1157.898, 62.31313
1158.381, 62.68119
1158.863, 62.81481
1159.345, 62.80170
1159.827, 63.10989
1160.309, 63.61744
1160.791, 63.82329
1161.273, 63.23056
1161.755, 62.65497
1162.238, 62.34926
1162.720, 62.09167
1163.202, 61.53608
1163.684, 60.78418
1164.166, 60.55173
1164.648, 60.82259
1165.130, 61.15265
1165.612, 61.37070
1166.094, 61.49622
1166.577, 61.47181
1167.059, 61.40633
1167.541, 61.64043
1168.023, 62.09937
1168.505, 61.52703
1168.987, 59.78522
1169.469, 58.45405
1169.951, 58.87626
1170.433, 59.80856
1170.916, 60.77649
1171.398, 61.61713
1171.880, 61.90977
1172.362, 61.66221
1172.844, 61.28385
1173.326, 60.83989
1173.808, 60.37132
1174.290, 59.78511
1174.773, 59.29961
1175.255, 59.11671
1175.737, 59.19405
1176.219, 59.46009
1176.701, 59.94235
1177.183, 60.02385
1177.665, 59.45072
1178.147, 58.74380
1178.630, 58.19872
1179.112, 57.90728
1179.594, 58.05744
1180.076, 58.64331
1180.558, 59.12519
1181.040, 59.52256
1181.522, 59.63450
1182.004, 59.27546
1182.486, 58.83803
1182.969, 58.76182
1183.451, 58.84332
1183.933, 58.81432
1184.415, 58.60497
1184.897, 58.62272
1185.379, 58.92497
1185.861, 59.07604
1186.343, 58.76414
1186.825, 58.30894
1187.308, 58.02530
1187.790, 57.87948
1188.272, 57.83167
1188.754, 57.88190
1189.236, 58.07373
1189.718, 58.48503
1190.200, 58.62851
1190.682, 57.85286
1191.165, 56.91055
1191.647, 56.94606
1192.129, 57.51588
1192.611, 57.69649
1193.093, 56.96593
1193.575, 56.74569
1194.057, 57.20284
1194.539, 57.56335
1195.021, 56.79501
1195.504, 55.86370
1195.986, 56.49199
1196.468, 58.06665
1196.950, 58.68185
1197.432, 57.28983
1197.914, 56.66207
1198.396, 57.13311
1198.878, 57.76520
1199.360, 57.64608
1199.843, 57.14593
1200.325, 56.67212
1200.807, 56.28297
1201.289, 56.14875
1201.771, 56.43815
1202.253, 56.64827
1202.735, 56.70366
1203.217, 56.74001
1203.700, 57.01892
1204.182, 57.30687
1204.664, 57.16076
1205.146, 56.64483
1205.628, 56.37620
1206.110, 56.61829
1206.592, 56.70832
1207.074, 56.51640
1207.557, 56.21281
1208.039, 55.84136
1208.521, 55.58785
1209.003, 55.88703
1209.485, 56.71485
1209.967, 57.07490
1210.449, 56.55341
1210.931, 56.33047
1211.413, 56.74674
1211.896, 57.29266
1212.378, 57.18620
1212.860, 56.82190
1213.342, 56.93958
1213.824, 57.61671
1214.306, 57.47510
1214.788, 55.91728
1215.270, 54.87877
1215.752, 54.93246
1216.235, 55.55766
1216.717, 56.44124
1217.199, 57.19968
1217.681, 57.19799
1218.163, 56.29420
1218.645, 55.31962
1219.127, 54.12972
1219.609, 53.55058
1220.092, 53.99660
1220.574, 54.81616
1221.056, 55.08185
1221.538, 55.06992
1222.020, 55.17509
1222.502, 55.47828
1222.984, 55.73775
1223.466, 55.93513
1223.948, 56.11012
1224.431, 56.28076
1224.913, 56.42675
1225.395, 56.55339
1225.877, 56.61902
1226.359, 56.54552
1226.841, 56.27746
1227.323, 56.08012
1227.805, 55.94971
1228.287, 55.94157
1228.770, 56.19075
1229.252, 56.36620
1229.734, 55.79710
1230.216, 54.97770
1230.698, 54.61071
1231.180, 54.90055
1231.662, 55.11428
1232.144, 55.23005
1232.627, 55.42382
1233.109, 55.89658
1233.591, 56.28288
1234.073, 56.02123
1234.555, 55.47015
1235.037, 55.12365
1235.519, 55.07257
1236.001, 54.95259
1236.484, 54.76130
1236.966, 54.53260
1237.448, 54.24131
1237.930, 53.98920
1238.412, 53.87457
1238.894, 53.86235
1239.376, 53.95385
1239.858, 54.19637
1240.340, 54.02135
1240.823, 53.39760
1241.305, 53.10978
1241.787, 53.83384
1242.269, 54.69269
1242.751, 54.96325
1243.233, 54.90918
1243.715, 54.86881
1244.197, 54.86904
1244.679, 54.68791
1245.162, 54.32951
1245.644, 54.04897
1246.126, 53.98240
1246.608, 54.03855
1247.090, 54.36194
1247.572, 54.62904
1248.054, 54.43511
1248.536, 53.75371
1249.019, 53.31934
1249.501, 53.13316
1249.983, 53.20069
1250.465, 53.81164
1250.947, 54.31994
1251.429, 54.17980
1251.911, 53.94776
1252.393, 54.28407
1252.875, 55.12183
1253.358, 54.91156
1253.840, 53.84993
1254.322, 53.25139
1254.804, 54.41607
1255.286, 55.35674
1255.768, 55.16954
1256.250, 54.72051
1256.732, 54.76813
1257.214, 55.19596
1257.697, 55.29704
1258.179, 55.10984
1258.661, 54.82613
1259.143, 54.33750
1259.625, 54.05503
1260.107, 54.11009
1260.589, 54.27814
1261.071, 54.44732
1261.554, 54.56228
1262.036, 54.36945
1262.518, 53.95753
1263.000, 53.62597
1263.482, 53.26028
1263.964, 53.42661
1264.446, 54.40862
1264.928, 55.33840
1265.411, 55.41820
1265.893, 54.97969
1266.375, 54.57609
1266.857, 54.20020
1267.339, 53.81023
1267.821, 53.30402
1268.303, 52.97492
1268.785, 52.86438
1269.267, 52.79480
1269.750, 52.51969
1270.232, 52.28855
1270.714, 52.49990
1271.196, 52.99721
1271.678, 53.42293
1272.160, 53.78318
1272.642, 53.89989
1273.124, 53.73101
1273.606, 53.63165
1274.089, 54.11582
1274.571, 54.53410
1275.053, 54.06188
1275.535, 53.21185
1276.017, 52.95387
1276.499, 53.46189
1276.981, 53.36334
1277.463, 52.64509
1277.946, 52.23552
1278.428, 53.16933
1278.910, 54.12893
1279.392, 54.29206
1279.874, 54.01717
1280.356, 53.64902
1280.838, 53.20081
1281.320, 53.06750
1281.802, 53.22087
1282.285, 53.36213
1282.767, 53.24904
1283.249, 53.19864
1283.731, 53.32520
1284.213, 53.55921
1284.695, 53.92104
1285.177, 54.34569
1285.659, 54.50677
1286.141, 54.44022
1286.624, 54.30039
1287.106, 54.29277
1287.588, 53.92604
1288.070, 52.87700
1288.552, 52.04160
1289.034, 52.42199
1289.516, 53.44259
1289.998, 53.89085
1290.481, 53.88181
1290.963, 53.72526
1291.445, 53.42213
1291.927, 53.10948
1292.409, 52.77856
1292.891, 52.47509
1293.373, 52.12831
1293.855, 51.91241
1294.338, 52.21814
1294.820, 52.76606
1295.302, 53.00246
1295.784, 52.82483
1296.266, 52.68984
1296.748, 52.61065
1297.230, 52.32505
1297.712, 51.18081
1298.194, 50.34294
1298.677, 51.03521
1299.159, 52.39323
1299.641, 53.33222
1300.123, 53.84454
1300.605, 54.26628
1301.087, 54.60660
1301.569, 54.97827
1302.051, 55.82704
1302.533, 56.07808
1303.016, 55.32457
##END=



