##NAMES=Chromite
##RRUFFID=R110060
##IDEAL CHEMISTRY=Fe^2+^Cr^3+^_2_O_4_
##LOCALITY=Pilliken mine, south of Auburn, El Dorado County, California, USA
##OWNER=RRUFF
##SOURCE=James Shigley
##DESCRIPTION=Black massive with conchoidal cleavage
##STATUS=The identification of this mineral has been confirmed only by single crystal X-ray diffraction.
##URL=rruff.info/R110060
150.9039, 63.51649
151.3860, 63.24900
151.8681, 62.98009
152.3502, 62.71266
152.8323, 62.48705
153.3145, 62.38295
153.7966, 62.24339
154.2787, 61.99520
154.7608, 61.68451
155.2429, 61.40831
155.7250, 61.25036
156.2072, 61.22520
156.6893, 61.09808
157.1714, 60.70928
157.6535, 60.38276
158.1356, 60.35214
158.6177, 60.55428
159.0999, 60.68090
159.5820, 60.41396
160.0641, 59.66236
160.5462, 59.16677
161.0283, 59.05076
161.5104, 59.09164
161.9926, 59.18777
162.4747, 59.32045
162.9568, 59.37869
163.4389, 59.20921
163.9210, 58.82335
164.4031, 58.43587
164.8853, 58.04279
165.3674, 57.67996
165.8495, 57.40048
166.3316, 57.20613
166.8137, 57.11341
167.2958, 57.22584
167.7780, 57.48242
168.2601, 57.62831
168.7422, 57.46065
169.2243, 57.06252
169.7064, 56.77525
170.1885, 56.68629
170.6707, 56.65639
171.1528, 56.63430
171.6349, 56.60126
172.1170, 56.49114
172.5991, 56.18931
173.0812, 55.67992
173.5634, 55.32049
174.0455, 55.30585
174.5276, 55.31080
175.0097, 55.18711
175.4918, 54.94288
175.9739, 54.68427
176.4561, 54.54457
176.9382, 54.58493
177.4203, 54.52996
177.9024, 54.34119
178.3845, 54.09990
178.8666, 53.77991
179.3488, 53.41537
179.8309, 53.12604
180.3130, 53.10101
180.7951, 53.53904
181.2772, 53.79494
181.7593, 53.80843
182.2415, 53.70670
182.7236, 53.57244
183.2057, 53.42838
183.6878, 53.25437
184.1699, 53.01170
184.6520, 52.61594
185.1342, 52.32906
185.6163, 52.15329
186.0984, 52.09047
186.5805, 52.21852
187.0626, 52.57694
187.5447, 52.94238
188.0269, 52.87138
188.5090, 52.25068
188.9911, 51.74551
189.4732, 51.56921
189.9553, 51.59296
190.4374, 51.60467
190.9196, 51.54816
191.4017, 51.44992
191.8838, 51.34039
192.3659, 51.21801
192.8480, 51.10353
193.3301, 50.99703
193.8123, 50.90358
194.2944, 50.85125
194.7765, 50.88572
195.2586, 50.91383
195.7407, 50.82916
196.2228, 50.63000
196.7050, 50.42783
197.1871, 50.31478
197.6692, 50.28618
198.1513, 50.23500
198.6334, 50.14648
199.1155, 50.02027
199.5977, 49.81638
200.0798, 49.54322
200.5619, 49.32019
201.0440, 49.28733
201.5261, 49.47652
202.0082, 49.64483
202.4904, 49.85176
202.9725, 49.96374
203.4546, 49.85194
203.9367, 49.52627
204.4188, 49.15247
204.9009, 48.95452
205.3831, 49.01947
205.8652, 48.99283
206.3473, 48.71412
206.8294, 48.45742
207.3115, 48.44306
207.7936, 48.67471
208.2758, 48.94288
208.7579, 48.94114
209.2400, 48.51054
209.7221, 48.14451
210.2042, 47.80494
210.6863, 47.54246
211.1685, 47.41340
211.6506, 47.41838
212.1327, 47.49015
212.6148, 47.53571
213.0969, 47.55547
213.5790, 47.53785
214.0612, 47.43951
214.5433, 47.33329
215.0254, 47.29749
215.5075, 47.34463
215.9896, 47.39587
216.4718, 47.33797
216.9539, 47.11970
217.4360, 46.89606
217.9181, 46.55116
218.4002, 46.25985
218.8823, 46.25647
219.3645, 46.60020
219.8466, 47.02829
220.3287, 47.16905
220.8108, 46.96980
221.2929, 46.79799
221.7750, 46.73822
222.2572, 46.71747
222.7393, 46.63873
223.2214, 46.47691
223.7035, 46.28846
224.1856, 46.12959
224.6677, 45.99688
225.1499, 45.91520
225.6320, 45.98487
226.1141, 46.08718
226.5962, 45.97171
227.0783, 45.51978
227.5604, 45.08165
228.0426, 45.08426
228.5247, 45.42608
229.0068, 45.72306
229.4889, 45.80628
229.9710, 45.74282
230.4531, 45.67886
230.9353, 45.63084
231.4174, 45.57625
231.8995, 45.48965
232.3816, 45.38214
232.8637, 45.28449
233.3458, 45.20918
233.8280, 45.15479
234.3101, 45.12593
234.7922, 45.16009
235.2743, 45.15292
235.7564, 44.98344
236.2385, 44.73452
236.7207, 44.57812
237.2028, 44.65265
237.6849, 44.90052
238.1670, 45.08298
238.6491, 45.20916
239.1312, 45.24224
239.6134, 45.13504
240.0955, 44.94486
240.5776, 44.76458
241.0597, 44.64880
241.5418, 44.58681
242.0239, 44.53570
242.5061, 44.54229
242.9882, 44.48928
243.4703, 44.28295
243.9524, 44.01335
244.4345, 43.81229
244.9166, 43.76180
245.3988, 43.83039
245.8809, 43.87495
246.3630, 43.91805
246.8451, 43.89927
247.3272, 43.78420
247.8093, 43.61093
248.2915, 43.41820
248.7736, 43.22327
249.2557, 43.03788
249.7378, 42.91408
250.2199, 42.93377
250.7020, 42.91478
251.1842, 42.78425
251.6663, 42.61967
252.1484, 42.53076
252.6305, 42.57202
253.1126, 42.68464
253.5947, 42.68060
254.0769, 42.38105
254.5590, 42.17715
255.0411, 42.12843
255.5232, 42.17189
256.0053, 42.26870
256.4874, 42.40100
256.9695, 42.51540
257.4517, 42.48257
257.9338, 42.08086
258.4159, 41.79042
258.8980, 41.63628
259.3801, 41.58450
259.8622, 41.63950
260.3444, 41.79810
260.8265, 41.96879
261.3086, 41.97602
261.7907, 41.67586
262.2728, 41.42603
262.7549, 41.21687
263.2371, 41.06543
263.7192, 41.03754
264.2013, 41.14312
264.6834, 41.24201
265.1655, 41.10097
265.6476, 40.52268
266.1298, 40.19999
266.6119, 40.35418
267.0940, 40.65358
267.5761, 40.78272
268.0582, 40.68242
268.5403, 40.51505
269.0225, 40.48130
269.5046, 40.63370
269.9867, 40.66567
270.4688, 40.46119
270.9509, 40.20191
271.4330, 40.03232
271.9152, 39.97143
272.3973, 39.97847
272.8794, 40.03572
273.3615, 40.14684
273.8436, 40.20015
274.3257, 40.16035
274.8079, 40.08598
275.2900, 40.00921
275.7721, 39.93463
276.2542, 39.88243
276.7363, 39.87757
277.2184, 39.91280
277.7006, 39.91706
278.1827, 39.89295
278.6648, 39.83528
279.1469, 39.71179
279.6290, 39.53436
280.1111, 39.39494
280.5933, 39.36845
281.0754, 39.41693
281.5575, 39.39684
282.0396, 39.23080
282.5217, 39.09063
283.0038, 39.11500
283.4860, 39.27277
283.9681, 39.40722
284.4502, 39.46841
284.9323, 39.43925
285.4144, 39.30581
285.8965, 39.04956
286.3787, 38.74386
286.8608, 38.32346
287.3429, 37.86180
287.8250, 37.64993
288.3071, 37.86890
288.7892, 38.26743
289.2714, 38.47551
289.7535, 38.47860
290.2356, 38.45376
290.7177, 38.48421
291.1998, 38.54923
291.6819, 38.60043
292.1641, 38.63755
292.6462, 38.63601
293.1283, 38.55522
293.6104, 38.40516
294.0925, 38.25049
294.5746, 38.11503
295.0568, 37.99287
295.5389, 37.86735
296.0210, 37.72942
296.5031, 37.61008
296.9852, 37.51627
297.4673, 37.45600
297.9495, 37.47399
298.4316, 37.70274
298.9137, 37.97279
299.3958, 37.98200
299.8779, 37.66764
300.3600, 37.36866
300.8422, 37.39370
301.3243, 37.57615
301.8064, 37.62510
302.2885, 37.39780
302.7706, 37.08868
303.2527, 36.91692
303.7349, 36.88874
304.2170, 36.89928
304.6991, 36.89668
305.1812, 36.90959
305.6633, 36.98683
306.1454, 37.16070
306.6276, 37.33367
307.1097, 37.41619
307.5918, 37.41241
308.0739, 37.39788
308.5560, 37.41711
309.0381, 37.41336
309.5203, 37.31717
310.0024, 37.11832
310.4845, 36.91117
310.9666, 36.70005
311.4487, 36.51406
311.9308, 36.54019
312.4130, 36.95866
312.8951, 37.38672
313.3772, 37.44220
313.8593, 37.17518
314.3414, 36.89392
314.8235, 36.74573
315.3057, 36.69616
315.7878, 36.66441
316.2699, 36.65830
316.7520, 36.63592
317.2341, 36.52209
317.7162, 36.36731
318.1984, 36.29010
318.6805, 36.39988
319.1626, 36.58135
319.6447, 36.65722
320.1268, 36.61898
320.6089, 36.51661
321.0911, 36.25596
321.5732, 35.98311
322.0553, 35.93831
322.5374, 36.27948
323.0195, 36.68016
323.5016, 36.75973
323.9838, 36.51585
324.4659, 36.33295
324.9480, 36.42017
325.4301, 36.59797
325.9122, 36.63076
326.3943, 36.48021
326.8765, 36.32418
327.3586, 36.32717
327.8407, 36.45170
328.3228, 36.48487
328.8049, 36.35467
329.2870, 36.14685
329.7692, 35.91571
330.2513, 35.66802
330.7334, 35.50487
331.2155, 35.53752
331.6976, 35.68478
332.1797, 35.74529
332.6619, 35.66999
333.1440, 35.58736
333.6261, 35.62287
334.1082, 35.73372
334.5903, 35.82282
335.0724, 35.89058
335.5546, 35.90610
336.0367, 35.77190
336.5188, 35.46554
337.0009, 35.25935
337.4830, 35.39848
337.9651, 35.71775
338.4473, 35.89945
338.9294, 35.85501
339.4115, 35.75461
339.8936, 35.72728
340.3758, 35.76440
340.8579, 35.80611
341.3400, 35.84474
341.8221, 35.86086
342.3042, 35.82340
342.7863, 35.72328
343.2685, 35.62381
343.7506, 35.57737
344.2327, 35.55367
344.7148, 35.45281
345.1969, 35.21572
345.6790, 35.00051
346.1612, 35.08609
346.6433, 35.41658
347.1254, 35.57903
347.6075, 35.26229
348.0896, 34.81915
348.5717, 34.71881
349.0539, 35.00932
349.5360, 35.38523
350.0181, 35.69336
350.5002, 35.89910
350.9823, 35.91063
351.4644, 35.54268
351.9466, 35.13283
352.4287, 34.87556
352.9108, 34.76368
353.3929, 34.77188
353.8750, 34.92452
354.3571, 35.15621
354.8393, 35.30790
355.3214, 35.37905
355.8035, 35.39135
356.2856, 35.30777
356.7677, 35.17820
357.2498, 35.09053
357.7320, 35.07022
358.2141, 35.09461
358.6962, 35.14627
359.1783, 35.23547
359.6604, 35.28709
360.1425, 35.30915
360.6247, 35.28016
361.1068, 35.12040
361.5889, 34.84139
362.0710, 34.64925
362.5531, 34.75826
363.0352, 35.15879
363.5174, 35.31826
363.9995, 35.02219
364.4816, 34.72271
364.9637, 34.60937
365.4458, 34.66322
365.9279, 34.84572
366.4101, 35.16290
366.8922, 35.53427
367.3743, 35.68473
367.8564, 35.48315
368.3385, 35.26448
368.8206, 34.99032
369.3028, 34.75440
369.7849, 34.71425
370.2670, 34.90336
370.7491, 35.14285
371.2312, 35.17608
371.7133, 34.90089
372.1955, 34.72210
372.6776, 34.68639
373.1597, 34.69973
373.6418, 34.70555
374.1239, 34.70475
374.6060, 34.74251
375.0882, 34.87368
375.5703, 35.08964
376.0524, 35.10830
376.5345, 34.68213
377.0166, 34.34670
377.4987, 34.26109
377.9809, 34.33063
378.4630, 34.42255
378.9451, 34.47613
379.4272, 34.49526
379.9093, 34.48547
380.3914, 34.41192
380.8736, 34.36815
381.3557, 34.39865
381.8378, 34.42810
382.3199, 34.37778
382.8020, 34.25031
383.2841, 34.13380
383.7663, 34.14466
384.2484, 34.31509
384.7305, 34.38525
385.2126, 34.16182
385.6947, 34.02341
386.1768, 34.19695
386.6590, 34.54227
387.1411, 34.75947
387.6232, 34.64391
388.1053, 34.30837
388.5874, 34.18111
389.0695, 34.44073
389.5517, 34.56902
390.0338, 34.35941
390.5159, 34.03288
390.9980, 33.77128
391.4801, 33.62621
391.9622, 33.57315
392.4444, 33.57483
392.9265, 33.62574
393.4086, 33.79309
393.8907, 34.27822
394.3728, 34.69554
394.8549, 34.79850
395.3371, 34.63199
395.8192, 34.39854
396.3013, 34.20325
396.7834, 34.03996
397.2655, 33.87368
397.7477, 33.66897
398.2298, 33.55529
398.7119, 33.74381
399.1940, 34.02052
399.6761, 34.07338
400.1582, 33.73592
400.6404, 33.35256
401.1225, 33.34054
401.6046, 33.67171
402.0867, 33.85273
402.5688, 33.64967
403.0509, 33.32960
403.5331, 33.23291
404.0152, 33.36372
404.4973, 33.46950
404.9794, 33.38049
405.4615, 33.21155
405.9436, 33.20637
406.4258, 33.41848
406.9079, 33.58031
407.3900, 33.40441
407.8721, 32.97250
408.3542, 32.72456
408.8363, 32.77877
409.3185, 32.94633
409.8006, 33.18165
410.2827, 33.44555
410.7648, 33.59111
411.2469, 33.53502
411.7290, 33.36183
412.2112, 33.25347
412.6933, 33.20144
413.1754, 33.21823
413.6575, 33.36076
414.1396, 33.54383
414.6217, 33.70144
415.1039, 33.81448
415.5860, 33.84820
416.0681, 33.74706
416.5502, 33.48803
417.0323, 33.36043
417.5144, 33.47969
417.9966, 33.58726
418.4787, 33.56666
418.9608, 33.45887
419.4429, 33.36553
419.9250, 33.34203
420.4071, 33.33904
420.8893, 33.20807
421.3714, 32.72435
421.8535, 32.46365
422.3356, 32.60893
422.8177, 32.84958
423.2998, 32.96614
423.7820, 32.92139
424.2641, 32.78451
424.7462, 32.59850
425.2283, 32.34936
425.7104, 32.25077
426.1925, 32.45231
426.6747, 32.65096
427.1568, 32.73339
427.6389, 32.76243
428.1210, 32.85748
428.6031, 33.08971
429.0852, 33.35919
429.5674, 33.44638
430.0495, 33.29841
430.5316, 33.16126
431.0137, 33.12741
431.4958, 33.09821
431.9779, 32.96701
432.4601, 32.74441
432.9422, 32.60392
433.4243, 32.74212
433.9064, 33.08600
434.3885, 33.34042
434.8706, 33.52711
435.3528, 33.54131
435.8349, 33.12765
436.3170, 32.52681
436.7991, 32.14973
437.2812, 32.16513
437.7633, 32.33986
438.2455, 32.50209
438.7276, 32.64806
439.2097, 32.74893
439.6918, 32.79755
440.1739, 32.79100
440.6560, 32.67900
441.1382, 32.43940
441.6203, 32.32964
442.1024, 32.53811
442.5845, 32.84954
443.0666, 33.02898
443.5487, 33.05447
444.0309, 32.99269
444.5130, 32.86449
444.9951, 32.68859
445.4772, 32.63243
445.9593, 32.76292
446.4414, 32.91578
446.9236, 33.08203
447.4057, 33.22800
447.8878, 33.28586
448.3699, 33.23490
448.8520, 33.15326
449.3341, 33.16367
449.8163, 33.30938
450.2984, 33.42777
450.7805, 33.52206
451.2626, 33.59066
451.7447, 33.60968
452.2268, 33.60119
452.7090, 33.61987
453.1911, 33.70558
453.6732, 33.83943
454.1553, 33.94610
454.6374, 34.04884
455.1195, 34.07796
455.6017, 33.93061
456.0838, 33.77411
456.5659, 33.77594
457.0480, 33.95515
457.5301, 34.16129
458.0122, 34.22311
458.4944, 34.14449
458.9765, 34.12219
459.4586, 34.19010
459.9407, 34.27447
460.4228, 34.36466
460.9049, 34.43870
461.3871, 34.43779
461.8692, 34.27849
462.3513, 34.14027
462.8334, 34.33385
463.3155, 34.84004
463.7976, 35.12898
464.2798, 34.91583
464.7619, 34.55925
465.2440, 34.52654
465.7261, 34.81782
466.2082, 35.12592
466.6903, 35.37558
467.1725, 35.57300
467.6546, 35.70229
468.1367, 35.76777
468.6188, 35.86055
469.1009, 36.07481
469.5830, 36.35517
470.0652, 36.42546
470.5473, 36.04749
471.0294, 35.78974
471.5115, 35.93530
471.9936, 36.22225
472.4757, 36.28747
472.9579, 36.04920
473.4400, 35.73837
473.9221, 35.63825
474.4042, 35.79687
474.8863, 35.88933
475.3684, 35.84371
475.8506, 35.81681
476.3327, 35.91255
476.8148, 36.05727
477.2969, 36.12487
477.7790, 36.05371
478.2611, 35.88259
478.7433, 35.67519
479.2254, 35.39224
479.7075, 35.18853
480.1896, 35.10538
480.6717, 35.08729
481.1538, 35.14903
481.6360, 35.26210
482.1181, 35.33343
482.6002, 35.26616
483.0823, 35.12241
483.5644, 35.09814
484.0465, 35.23571
484.5287, 35.33692
485.0108, 35.27843
485.4929, 35.15398
485.9750, 35.07800
486.4571, 35.07240
486.9392, 35.06134
487.4214, 35.02980
487.9035, 34.95512
488.3856, 34.72878
488.8677, 34.30201
489.3498, 33.97135
489.8319, 34.05608
490.3141, 34.51780
490.7962, 34.75303
491.2783, 34.57574
491.7604, 34.37346
492.2425, 34.29770
492.7246, 34.32534
493.2068, 34.43066
493.6889, 34.60434
494.1710, 34.78354
494.6531, 34.86570
495.1352, 34.81400
495.6173, 34.77726
496.0995, 34.75116
496.5816, 34.74169
497.0637, 34.76261
497.5458, 34.80170
498.0279, 34.83030
498.5100, 34.82994
498.9922, 34.82112
499.4743, 34.85341
499.9564, 34.92540
500.4385, 35.04375
500.9206, 35.25884
501.4027, 35.48167
501.8849, 35.64343
502.3670, 35.75358
502.8491, 35.88208
503.3312, 36.09930
503.8133, 36.36474
504.2954, 36.55364
504.7776, 36.64410
505.2597, 36.75895
505.7418, 36.96042
506.2239, 37.21699
506.7060, 37.49392
507.1881, 37.80267
507.6703, 38.07353
508.1524, 38.24622
508.6345, 38.36676
509.1166, 38.50626
509.5987, 38.67590
510.0808, 38.85852
510.5630, 39.01418
511.0451, 39.16198
511.5272, 39.50628
512.0093, 40.30180
512.4914, 40.96626
512.9735, 41.24694
513.4556, 41.33510
513.9377, 41.48052
514.4199, 41.75093
514.9020, 42.06123
515.3841, 42.29316
515.8662, 42.42188
516.3483, 42.64129
516.8304, 43.00106
517.3126, 43.40247
517.7947, 43.81777
518.2768, 44.25777
518.7589, 44.77890
519.2410, 45.41199
519.7231, 46.00118
520.2053, 46.26361
520.6874, 46.16699
521.1695, 46.21146
521.6516, 46.51588
522.1337, 46.91108
522.6158, 47.33502
523.0980, 47.75433
523.5801, 48.06782
524.0622, 48.17155
524.5443, 48.22041
525.0264, 48.38473
525.5085, 48.64582
525.9907, 48.90845
526.4728, 49.17753
526.9549, 49.35246
527.4370, 49.24048
527.9191, 48.78868
528.4012, 48.40648
528.8834, 48.15514
529.3655, 47.96761
529.8476, 47.84191
530.3297, 47.74266
530.8118, 47.58523
531.2939, 47.32121
531.7761, 46.98827
532.2582, 46.67488
532.7403, 46.33183
533.2224, 46.10610
533.7045, 46.07831
534.1866, 46.08335
534.6688, 46.01028
535.1509, 45.87927
535.6330, 45.78500
536.1151, 45.80132
536.5972, 45.88014
537.0793, 45.88839
537.5615, 45.81003
538.0436, 45.72899
538.5257, 45.69374
539.0078, 45.64573
539.4899, 45.49821
539.9720, 45.25930
540.4542, 45.09990
540.9363, 45.13646
541.4184, 45.28574
541.9005, 45.45149
542.3826, 45.62691
542.8647, 45.76821
543.3469, 45.83012
543.8290, 45.86719
544.3111, 46.03137
544.7932, 46.36892
545.2753, 46.69975
545.7574, 47.03586
546.2396, 47.33043
546.7217, 47.54443
547.2038, 47.67709
547.6859, 47.73510
548.1680, 47.71571
548.6501, 47.64159
549.1323, 47.61339
549.6144, 47.64440
550.0965, 47.70172
550.5786, 47.80569
551.0607, 47.91266
551.5428, 47.99244
552.0250, 48.04317
552.5071, 48.07798
552.9892, 48.09487
553.4713, 48.10689
553.9534, 48.15992
554.4355, 48.26402
554.9177, 48.36090
555.3998, 48.45422
555.8819, 48.50585
556.3640, 48.45879
556.8461, 48.29950
557.3282, 48.14529
557.8104, 48.01078
558.2925, 47.92249
558.7746, 47.94240
559.2567, 48.05742
559.7388, 48.14799
560.2209, 48.13235
560.7031, 48.05773
561.1852, 48.07542
561.6673, 48.31940
562.1494, 48.46737
562.6315, 48.48793
563.1136, 48.43270
563.5958, 48.24680
564.0779, 48.00442
564.5600, 47.93999
565.0421, 48.25840
565.5242, 48.80590
566.0063, 49.03431
566.4885, 48.80469
566.9706, 48.65874
567.4527, 48.81005
567.9348, 49.02379
568.4169, 49.13188
568.8990, 49.14064
569.3812, 49.17464
569.8633, 49.37213
570.3454, 49.59342
570.8275, 49.57787
571.3096, 49.34596
571.7917, 49.22039
572.2739, 49.36161
572.7560, 49.64088
573.2381, 49.83515
573.7202, 49.93321
574.2023, 50.00305
574.6844, 50.06512
575.1666, 50.08922
575.6487, 50.00653
576.1308, 49.86865
576.6129, 49.83092
577.0950, 49.98168
577.5771, 50.18904
578.0593, 50.12453
578.5414, 49.61100
579.0235, 49.31012
579.5056, 49.42278
579.9877, 49.59922
580.4698, 49.71809
580.9520, 49.77672
581.4341, 49.80090
581.9162, 49.80705
582.3983, 49.77250
582.8804, 49.65601
583.3625, 49.46301
583.8447, 49.24369
584.3268, 48.98516
584.8089, 48.76034
585.2910, 48.67073
585.7732, 48.70208
586.2553, 48.70552
586.7374, 48.66735
587.2195, 48.59985
587.7017, 48.52510
588.1838, 48.42152
588.6659, 48.19773
589.1480, 47.83987
589.6301, 47.54548
590.1122, 47.58736
590.5944, 48.01743
591.0765, 48.28601
591.5586, 48.28014
592.0407, 48.23637
592.5228, 48.21651
593.0049, 48.18558
593.4871, 48.09253
593.9692, 47.92511
594.4513, 47.73395
594.9334, 47.52672
595.4155, 47.32829
595.8976, 47.25483
596.3798, 47.32314
596.8619, 47.48136
597.3440, 47.80755
597.8261, 48.15771
598.3082, 48.17276
598.7903, 47.67578
599.2725, 47.29293
599.7546, 47.37264
600.2367, 47.57490
600.7188, 47.49695
601.2009, 47.14761
601.6830, 46.83082
602.1652, 46.75921
602.6473, 46.85545
603.1294, 46.83041
603.6115, 46.60806
604.0936, 46.40112
604.5757, 46.19801
605.0579, 46.03541
605.5400, 45.99599
606.0221, 46.02382
606.5042, 45.94263
606.9863, 45.61315
607.4684, 45.18636
607.9506, 44.92029
608.4327, 44.80988
608.9148, 44.66516
609.3969, 44.42716
609.8790, 44.15748
610.3611, 43.92857
610.8433, 43.73443
611.3254, 43.50793
611.8075, 43.24113
612.2896, 42.94142
612.7717, 42.57272
613.2538, 42.18494
613.7360, 41.87294
614.2181, 41.66007
614.7002, 41.47185
615.1823, 41.20722
615.6644, 40.85721
616.1465, 40.61903
616.6287, 40.59163
617.1108, 40.54309
617.5929, 40.42548
618.0750, 40.25399
618.5571, 40.04033
619.0392, 39.78804
619.5214, 39.50653
620.0035, 39.19376
620.4856, 38.85984
620.9677, 38.50713
621.4498, 38.13445
621.9319, 37.82330
622.4141, 37.63491
622.8962, 37.51041
623.3783, 37.31115
623.8604, 36.98902
624.3425, 36.75360
624.8246, 36.68103
625.3068, 36.65682
625.7889, 36.62135
626.2710, 36.56874
626.7531, 36.50458
627.2352, 36.43187
627.7173, 36.34895
628.1995, 36.21482
628.6816, 35.97915
629.1637, 35.98439
629.6458, 36.46434
630.1279, 36.90929
630.6100, 36.97323
631.0922, 36.85638
631.5743, 36.92726
632.0564, 37.32563
632.5385, 37.77573
633.0206, 38.09157
633.5027, 38.31482
633.9849, 38.50226
634.4670, 38.66557
634.9491, 38.88916
635.4312, 39.24929
635.9133, 39.71146
636.3954, 40.11652
636.8776, 40.42314
637.3597, 40.72213
637.8418, 40.98734
638.3239, 41.26777
638.8060, 41.61820
639.2881, 42.01810
639.7703, 42.39017
640.2524, 42.67946
640.7345, 42.93785
641.2166, 43.28015
641.6987, 43.71376
642.1808, 44.08669
642.6630, 44.36482
643.1451, 44.58512
643.6272, 44.74887
644.1093, 44.87640
644.5914, 45.04259
645.0735, 45.28019
645.5557, 45.53156
646.0378, 45.77298
646.5199, 46.01079
647.0020, 46.27920
647.4841, 46.56986
647.9662, 46.79181
648.4484, 46.85395
648.9305, 46.77991
649.4126, 46.73648
649.8947, 46.72252
650.3768, 46.74344
650.8589, 46.80864
651.3411, 46.90004
651.8232, 47.01249
652.3053, 47.14167
652.7874, 47.27812
653.2695, 47.45965
653.7516, 47.60524
654.2338, 47.59570
654.7159, 47.45548
655.1980, 47.25976
655.6801, 47.00520
656.1622, 46.85741
656.6443, 47.05387
657.1265, 47.62716
657.6086, 47.89714
658.0907, 47.67936
658.5728, 47.43542
659.0549, 47.15410
659.5370, 46.97174
660.0192, 47.09691
660.5013, 47.50727
660.9834, 47.89545
661.4655, 47.96388
661.9476, 47.84538
662.4297, 47.96806
662.9119, 48.35933
663.3940, 48.78292
663.8761, 49.21202
664.3582, 49.58706
664.8403, 49.78630
665.3224, 49.82739
665.8046, 49.95802
666.2867, 50.28393
666.7688, 50.63902
667.2509, 50.93552
667.7330, 51.19682
668.2151, 51.44444
668.6973, 51.69375
669.1794, 51.99366
669.6615, 52.39591
670.1436, 52.89990
670.6257, 53.51656
671.1078, 54.38967
671.5900, 55.08100
672.0721, 55.21578
672.5542, 55.30434
673.0363, 55.83556
673.5184, 56.78150
674.0005, 57.59492
674.4827, 57.86684
674.9648, 58.04877
675.4469, 58.59431
675.9290, 59.42760
676.4111, 60.34665
676.8932, 61.29038
677.3754, 62.17081
677.8575, 62.85700
678.3396, 63.33634
678.8217, 63.94911
679.3038, 64.71143
679.7859, 65.59933
680.2681, 66.74379
680.7502, 67.91292
681.2323, 68.88134
681.7144, 69.63842
682.1965, 70.36479
682.6786, 71.14561
683.1608, 71.97963
683.6429, 72.86558
684.1250, 73.80310
684.6071, 74.77888
685.0892, 75.81618
685.5714, 76.79951
686.0535, 77.57066
686.5356, 78.10508
687.0177, 78.81133
687.4998, 79.85981
687.9819, 80.84457
688.4641, 81.63055
688.9462, 82.32324
689.4283, 83.01345
689.9104, 83.72535
690.3925, 84.48479
690.8746, 85.37488
691.3568, 86.25954
691.8389, 86.75626
692.3210, 86.85019
692.8031, 86.96465
693.2852, 87.25039
693.7673, 87.51772
694.2495, 87.55814
694.7316, 87.38271
695.2137, 87.20337
695.6958, 87.09665
696.1779, 86.90337
696.6600, 86.55335
697.1422, 86.09823
697.6243, 85.57598
698.1064, 85.00553
698.5885, 84.41811
699.0706, 83.84546
699.5527, 83.25983
700.0349, 82.58303
700.5170, 81.81637
700.9991, 80.95089
701.4812, 80.00129
701.9633, 78.92632
702.4454, 77.55984
702.9276, 76.02011
703.4097, 74.69241
703.8918, 73.82256
704.3739, 72.90468
704.8560, 71.60166
705.3381, 70.19897
705.8203, 69.03828
706.3024, 68.13767
706.7845, 67.30616
707.2666, 66.42342
707.7487, 65.48946
708.2308, 64.54852
708.7130, 63.63860
709.1951, 62.51842
709.6772, 60.93282
710.1593, 59.43541
710.6414, 58.45463
711.1235, 57.80499
711.6057, 57.09318
712.0878, 56.20863
712.5699, 55.36756
713.0520, 54.74568
713.5341, 54.18914
714.0162, 53.52805
714.4984, 52.75434
714.9805, 51.88700
715.4626, 50.91716
715.9447, 49.97201
716.4268, 49.37187
716.9089, 49.24538
717.3911, 48.86554
717.8732, 48.02890
718.3553, 47.17989
718.8374, 46.50503
719.3195, 45.95232
719.8016, 45.46803
720.2838, 45.05637
720.7659, 44.62831
721.2480, 44.11683
721.7301, 43.58534
722.2122, 43.09908
722.6943, 42.65420
723.1765, 42.21149
723.6586, 41.75342
724.1407, 41.31185
724.6228, 40.94770
725.1049, 40.67110
725.5870, 40.35652
726.0692, 40.01348
726.5513, 39.61735
727.0334, 39.10207
727.5155, 38.56737
727.9976, 38.09044
728.4797, 37.68242
728.9619, 37.40642
729.4440, 37.44499
729.9261, 37.49475
730.4082, 37.23164
730.8903, 36.76761
731.3724, 36.38833
731.8546, 36.17428
732.3367, 35.99625
732.8188, 35.70171
733.3009, 35.55387
733.7830, 35.09662
734.2651, 35.17643
734.7473, 35.16957
735.2294, 34.93663
735.7115, 34.63255
736.1936, 34.32204
736.6757, 34.02724
737.1578, 33.81929
737.6400, 33.78891
738.1221, 33.76143
738.6042, 33.65073
739.0863, 33.45494
739.5684, 33.12801
740.0505, 32.69094
740.5327, 32.26932
741.0148, 31.93985
741.4969, 31.73383
741.9790, 31.81498
742.4611, 32.35670
742.9432, 32.52884
743.4254, 32.00096
743.9075, 31.40565
744.3896, 31.05767
744.8717, 30.90321
745.3538, 30.87900
745.8359, 31.04230
746.3181, 31.11436
746.8002, 30.85928
747.2823, 30.53231
747.7644, 30.43249
748.2465, 30.50509
748.7286, 30.50431
749.2108, 30.31842
749.6929, 30.04453
750.1750, 29.80471
750.6571, 29.59538
751.1392, 29.51124
751.6213, 29.62154
752.1035, 29.69448
752.5856, 29.57366
753.0677, 29.41429
753.5498, 29.44773
754.0319, 29.68460
754.5140, 29.78771
754.9962, 29.55457
755.4783, 29.29236
755.9604, 29.17728
756.4425, 29.15827
756.9246, 29.16419
757.4067, 29.17002
757.8889, 29.15808
758.3710, 29.11451
758.8531, 29.03952
759.3352, 28.90390
759.8173, 28.68593
760.2994, 28.61958
760.7816, 28.85679
761.2637, 29.07160
761.7458, 28.91691
762.2279, 28.49061
762.7100, 28.27905
763.1921, 28.46447
763.6743, 28.59822
764.1564, 28.54520
764.6385, 28.42773
765.1206, 28.29493
765.6027, 28.18911
766.0848, 28.21710
766.5670, 28.43883
767.0491, 28.64398
767.5312, 28.45838
768.0133, 27.98349
768.4954, 27.84250
768.9775, 28.11741
769.4597, 28.32324
769.9418, 28.19433
770.4239, 27.91442
770.9060, 27.81884
771.3881, 27.99204
771.8702, 28.00621
772.3524, 27.65637
772.8345, 27.39639
773.3166, 27.47546
773.7987, 27.67165
774.2808, 27.74273
774.7629, 27.65240
775.2451, 27.49696
775.7272, 27.28202
776.2093, 27.09531
776.6914, 27.09449
777.1735, 27.24169
777.6556, 27.39440
778.1378, 27.52226
778.6199, 27.60470
779.1020, 27.61288
779.5841, 27.56857
780.0662, 27.58986
780.5483, 27.75899
781.0305, 27.83646
781.5126, 27.73164
781.9947, 27.61072
782.4768, 27.55836
782.9589, 27.54628
783.4410, 27.51085
783.9232, 27.42956
784.4053, 27.35997
784.8874, 27.36092
785.3695, 27.37639
785.8516, 27.31775
786.3337, 27.20892
786.8159, 27.14797
787.2980, 27.17381
787.7801, 27.23817
788.2622, 27.28218
788.7443, 27.30592
789.2264, 27.30887
789.7086, 27.26292
790.1907, 27.27984
790.6728, 27.45814
791.1549, 27.64902
791.6370, 27.69421
792.1191, 27.61250
792.6013, 27.53003
793.0834, 27.44999
793.5655, 27.39051
794.0476, 27.40763
794.5297, 27.41481
795.0118, 27.24614
795.4940, 26.97179
795.9761, 26.89026
796.4582, 27.19201
796.9403, 27.58774
797.4224, 27.58682
797.9045, 27.26242
798.3867, 27.12495
798.8688, 27.23454
799.3509, 27.36900
799.8330, 27.43162
800.3151, 27.42679
800.7972, 27.35136
801.2794, 27.17288
801.7615, 27.05175
802.2436, 26.99759
802.7257, 26.98273
803.2078, 27.04157
803.6899, 27.10866
804.1721, 27.10023
804.6542, 27.02191
805.1363, 26.97195
805.6184, 27.00714
806.1005, 27.08948
806.5826, 27.22111
807.0648, 27.36100
807.5469, 27.40413
808.0290, 27.33959
808.5111, 27.24738
808.9932, 27.18345
809.4753, 27.13265
809.9575, 27.04401
810.4396, 26.89483
810.9217, 26.81429
811.4038, 26.85544
811.8859, 26.88783
812.3680, 26.81784
812.8502, 26.71324
813.3323, 26.66265
813.8144, 26.66801
814.2965, 26.74102
814.7786, 26.92264
815.2607, 27.13213
815.7429, 27.40029
816.2250, 27.62939
816.7071, 27.66149
817.1892, 27.48894
817.6713, 27.25209
818.1534, 27.03448
818.6356, 26.85494
819.1177, 26.76948
819.5998, 26.76533
820.0819, 26.73160
820.5640, 26.64189
821.0461, 26.58765
821.5283, 26.64414
822.0104, 26.77099
822.4925, 26.84234
822.9746, 26.81225
823.4567, 26.83035
823.9388, 26.95736
824.4210, 27.06292
824.9031, 27.11321
825.3852, 27.11007
825.8673, 27.01915
826.3494, 26.84143
826.8315, 26.75778
827.3137, 26.98423
827.7958, 27.21465
828.2779, 27.15345
828.7600, 26.92154
829.2421, 26.72427
829.7242, 26.61176
830.2064, 26.57182
830.6885, 26.60819
831.1706, 26.67332
831.6527, 26.63062
832.1348, 26.47503
832.6169, 26.37343
833.0991, 26.34995
833.5812, 26.37034
834.0633, 26.44238
834.5454, 26.52382
835.0275, 26.51503
835.5096, 26.37183
835.9918, 26.26825
836.4739, 26.18372
836.9560, 26.16348
837.4381, 26.26264
837.9202, 26.41080
838.4023, 26.55286
838.8845, 26.66962
839.3666, 26.72714
839.8487, 26.70498
840.3308, 26.61917
840.8129, 26.40022
841.2950, 26.15656
841.7772, 26.17382
842.2593, 26.44429
842.7414, 26.62329
843.2235, 26.48115
843.7056, 26.19641
844.1877, 26.15097
844.6699, 26.36998
845.1520, 26.51919
845.6341, 26.58813
846.1162, 26.58464
846.5983, 26.47320
847.0804, 26.32679
847.5626, 26.24810
848.0447, 26.24018
848.5268, 26.23822
849.0089, 26.29966
849.4910, 26.28932
849.9731, 26.06531
850.4553, 25.83388
850.9374, 25.82316
851.4195, 25.97770
851.9016, 26.05522
852.3837, 25.92945
852.8658, 25.77737
853.3480, 25.76661
853.8301, 25.83631
854.3122, 25.90442
854.7943, 25.95280
855.2764, 25.93183
855.7585, 25.81929
856.2407, 25.68400
856.7228, 25.61109
857.2049, 25.59887
857.6870, 25.63477
858.1691, 25.74032
858.6512, 25.81111
859.1334, 25.83770
859.6155, 25.79390
860.0976, 25.61166
860.5797, 25.32891
861.0618, 25.15793
861.5439, 25.14168
862.0261, 25.16220
862.5082, 25.23680
862.9903, 25.31510
863.4724, 25.37728
863.9545, 25.41896
864.4366, 25.45572
864.9188, 25.48857
865.4009, 25.43748
865.8830, 25.17286
866.3651, 24.85862
866.8472, 24.70889
867.3293, 24.65497
867.8115, 24.47075
868.2936, 24.13825
868.7757, 23.93831
869.2578, 24.10885
869.7399, 24.47889
870.2220, 24.60491
870.7042, 24.47208
871.1863, 24.41728
871.6684, 24.50370
872.1505, 24.53174
872.6326, 24.36318
873.1147, 24.11896
873.5969, 24.00956
874.0790, 24.06991
874.5611, 24.07704
875.0432, 23.99580
875.5253, 23.91041
876.0074, 23.88492
876.4896, 23.82694
876.9717, 23.61896
877.4538, 23.30298
877.9359, 23.03763
878.4180, 22.85533
878.9001, 22.78155
879.3823, 22.94078
879.8644, 23.13725
880.3465, 23.14184
880.8286, 22.98602
881.3107, 22.78038
881.7928, 22.57392
882.2750, 22.42524
882.7571, 22.42426
883.2392, 22.51955
883.7213, 22.53512
884.2034, 22.47809
884.6855, 22.49649
885.1677, 22.64355
885.6498, 22.71686
886.1319, 22.52422
886.6140, 22.17511
887.0961, 22.06328
887.5782, 22.35597
888.0604, 22.44880
888.5425, 22.18141
889.0246, 21.93090
889.5067, 21.90223
889.9888, 21.93688
890.4709, 21.81027
890.9531, 21.51694
891.4352, 21.37721
891.9173, 21.65030
892.3994, 21.84709
892.8815, 21.66910
893.3636, 21.39743
893.8458, 21.35679
894.3279, 21.47684
894.8100, 21.43323
895.2921, 21.06420
895.7742, 20.70954
896.2563, 20.74987
896.7385, 20.98791
897.2206, 21.12955
897.7027, 21.15700
898.1848, 21.04163
898.6669, 20.78175
899.1490, 20.50879
899.6312, 20.34653
900.1133, 20.27668
900.5954, 20.24106
901.0775, 20.24367
901.5596, 20.23023
902.0417, 20.18280
902.5239, 20.15837
903.0060, 20.21287
903.4881, 20.28864
903.9702, 20.25560
904.4523, 20.06587
904.9344, 19.96031
905.4166, 19.99413
905.8987, 20.04027
906.3808, 20.11870
906.8629, 20.16021
907.3450, 20.06816
907.8271, 19.87994
908.3093, 19.75523
908.7914, 19.74569
909.2735, 19.78013
909.7556, 19.91098
910.2377, 19.99902
910.7198, 19.82415
911.2020, 19.53686
911.6841, 19.49404
912.1662, 19.77419
912.6483, 20.01976
913.1304, 19.87176
913.6125, 19.56284
914.0947, 19.51285
914.5768, 19.62319
915.0589, 19.53379
915.5410, 19.20710
916.0231, 18.93744
916.5052, 18.91173
916.9874, 19.04106
917.4695, 19.18493
917.9516, 19.34807
918.4337, 19.37537
918.9158, 19.23339
919.3979, 19.11202
919.8801, 19.09510
920.3622, 19.08091
920.8443, 18.93589
921.3264, 18.68351
921.8085, 18.58076
922.2906, 18.79586
922.7728, 18.88454
923.2549, 18.72197
923.7370, 18.54993
924.2191, 18.47683
924.7012, 18.46801
925.1833, 18.48756
925.6655, 18.53477
926.1476, 18.51612
926.6297, 18.32686
927.1118, 18.15574
927.5939, 18.07554
928.0760, 18.07848
928.5582, 18.21362
929.0403, 18.42170
929.5224, 18.51595
930.0045, 18.39642
930.4866, 18.27085
930.9688, 18.37766
931.4509, 18.56928
931.9330, 18.61882
932.4151, 18.54614
932.8972, 18.42571
933.3793, 18.28919
933.8615, 18.20534
934.3436, 18.25124
934.8257, 18.35335
935.3078, 18.31048
935.7899, 18.13546
936.2720, 18.01361
936.7542, 17.96697
937.2363, 17.95897
937.7184, 17.98130
938.2005, 18.00173
938.6826, 17.96348
939.1647, 17.86395
939.6469, 17.82957
940.1290, 17.88214
940.6111, 17.95044
941.0932, 18.06074
941.5753, 18.13167
942.0574, 18.09422
942.5396, 17.97576
943.0217, 17.83713
943.5038, 17.63135
943.9859, 17.55091
944.4680, 17.73582
944.9501, 17.89663
945.4323, 17.92086
945.9144, 17.87197
946.3965, 17.79260
946.8786, 17.70273
947.3607, 17.65084
947.8428, 17.65999
948.3250, 17.69324
948.8071, 17.74111
949.2892, 17.79487
949.7713, 17.87958
950.2534, 17.95312
950.7355, 17.89802
951.2177, 17.70659
951.6998, 17.57424
952.1819, 17.70163
952.6640, 17.89914
953.1461, 17.90793
953.6282, 17.78511
954.1104, 17.62950
954.5925, 17.47288
955.0746, 17.39553
955.5567, 17.43822
956.0388, 17.51900
956.5209, 17.52835
957.0031, 17.47860
957.4852, 17.42840
957.9673, 17.37759
958.4494, 17.33106
958.9315, 17.29063
959.4136, 17.24410
959.8958, 17.17587
960.3779, 17.10785
960.8600, 17.10565
961.3421, 17.19216
961.8242, 17.21719
962.3063, 17.13131
962.7885, 17.11175
963.2706, 17.26854
963.7527, 17.44447
964.2348, 17.46730
964.7169, 17.36208
965.1990, 17.31320
965.6812, 17.39524
966.1633, 17.41922
966.6454, 17.35916
967.1275, 17.27070
967.6096, 17.13305
968.0917, 17.00550
968.5739, 16.99327
969.0560, 17.09152
969.5381, 17.10498
970.0202, 16.90707
970.5023, 16.72309
970.9844, 16.59028
971.4666, 16.54024
971.9487, 16.67879
972.4308, 16.89406
972.9129, 16.95164
973.3950, 16.79385
973.8771, 16.64165
974.3593, 16.65775
974.8414, 16.70266
975.3235, 16.61457
975.8056, 16.49769
976.2877, 16.52682
976.7698, 16.68658
977.2520, 16.84652
977.7341, 16.94686
978.2162, 17.00237
978.6983, 17.02282
979.1804, 17.01233
979.6625, 16.97946
980.1447, 16.92226
980.6268, 16.78209
981.1089, 16.57365
981.5910, 16.54980
982.0731, 16.91948
982.5552, 17.36159
983.0374, 17.14545
983.5195, 17.30389
984.0016, 17.38756
984.4837, 16.98004
984.9658, 17.27029
985.4479, 16.86252
985.9301, 16.34009
986.4122, 16.24487
986.8943, 16.45507
987.3764, 16.52209
987.8585, 16.40835
988.3406, 16.42330
988.8228, 16.64646
989.3049, 16.76299
989.7870, 16.58299
990.2691, 16.35673
990.7512, 16.41856
991.2333, 16.30976
991.7155, 16.22788
992.1976, 16.38697
992.6797, 16.18949
993.1618, 16.38874
993.6439, 16.59747
994.1260, 16.64261
994.6082, 16.58727
995.0903, 16.49843
995.5724, 16.37278
996.0545, 16.31255
996.5366, 16.34140
997.0187, 16.40714
997.5009, 16.52389
997.9830, 16.65250
998.4651, 16.81929
998.9472, 16.96230
999.4293, 16.96172
999.9114, 16.79591
1000.394, 16.63328
1000.876, 16.53253
1001.358, 16.42852
1001.840, 16.26301
1002.322, 16.11048
1002.804, 16.05047
1003.286, 16.05512
1003.768, 16.02765
1004.250, 15.93502
1004.733, 15.94101
1005.215, 16.29657
1005.697, 16.60798
1006.179, 16.47864
1006.661, 16.19277
1007.143, 16.12962
1007.625, 16.27565
1008.107, 16.41945
1008.590, 16.47581
1009.072, 16.47597
1009.554, 16.42385
1010.036, 16.34798
1010.518, 16.21046
1011.000, 16.10184
1011.482, 16.29429
1011.964, 16.73316
1012.446, 16.97070
1012.929, 16.74824
1013.411, 16.38580
1013.893, 16.24829
1014.375, 16.25716
1014.857, 16.27799
1015.339, 16.30012
1015.821, 16.30056
1016.303, 16.27841
1016.786, 16.27324
1017.268, 16.31606
1017.750, 16.36484
1018.232, 16.35519
1018.714, 16.29212
1019.196, 16.16347
1019.678, 15.98613
1020.160, 15.91263
1020.642, 15.98409
1021.125, 16.09002
1021.607, 16.14897
1022.089, 16.15807
1022.571, 16.07640
1023.053, 15.91419
1023.535, 15.92298
1024.017, 16.12262
1024.499, 16.18479
1024.981, 15.98616
1025.464, 15.77416
1025.946, 15.77730
1026.428, 15.93291
1026.910, 16.04861
1027.392, 16.12045
1027.874, 16.18414
1028.356, 16.23225
1028.838, 16.33569
1029.321, 16.56571
1029.803, 16.71111
1030.285, 16.52207
1030.767, 16.10305
1031.249, 15.93943
1031.731, 16.11542
1032.213, 16.22950
1032.695, 16.28469
1033.177, 16.22808
1033.660, 15.97296
1034.142, 15.70759
1034.624, 15.62719
1035.106, 15.70968
1035.588, 15.82930
1036.070, 16.04279
1036.552, 16.15057
1037.034, 16.06964
1037.516, 16.02347
1037.999, 16.15035
1038.481, 16.29011
1038.963, 16.24036
1039.445, 16.03619
1039.927, 15.95073
1040.409, 16.06455
1040.891, 16.15551
1041.373, 16.23462
1041.856, 16.27509
1042.338, 16.25987
1042.820, 16.20612
1043.302, 16.09247
1043.784, 15.93979
1044.266, 15.90616
1044.748, 16.15302
1045.230, 16.25469
1045.713, 16.04786
1046.195, 15.86259
1046.677, 15.84698
1047.159, 15.90532
1047.641, 15.94089
1048.123, 15.95239
1048.605, 15.96613
1049.087, 15.99069
1049.569, 16.00707
1050.052, 16.04983
1050.534, 16.03984
1051.016, 15.88667
1051.498, 15.69973
1051.980, 15.58665
1052.462, 15.55343
1052.944, 15.57870
1053.426, 15.68919
1053.908, 15.79547
1054.391, 15.92576
1054.873, 15.99103
1055.355, 15.87415
1055.837, 15.71847
1056.319, 15.70922
1056.801, 15.82457
1057.283, 15.88131
1057.765, 15.82758
1058.248, 15.73481
1058.730, 15.54386
1059.212, 15.41009
1059.694, 15.46496
1060.176, 15.59269
1060.658, 15.68500
1061.140, 15.72185
1061.622, 15.67866
1062.104, 15.49674
1062.587, 15.38439
1063.069, 15.44147
1063.551, 15.56117
1064.033, 15.76408
1064.515, 15.93763
1064.997, 15.92786
1065.479, 15.77070
1065.961, 15.63414
1066.443, 15.55206
1066.926, 15.54601
1067.408, 15.71389
1067.890, 15.85841
1068.372, 15.85378
1068.854, 15.76767
1069.336, 15.63957
1069.818, 15.50885
1070.300, 15.46368
1070.783, 15.54349
1071.265, 15.63845
1071.747, 15.73621
1072.229, 15.79331
1072.711, 15.76204
1073.193, 15.69295
1073.675, 15.61597
1074.157, 15.55433
1074.640, 15.56262
1075.122, 15.66939
1075.604, 15.74039
1076.086, 15.69500
1076.568, 15.61920
1077.050, 15.54232
1077.532, 15.47724
1078.014, 15.44436
1078.496, 15.43156
1078.979, 15.40871
1079.461, 15.36790
1079.943, 15.32024
1080.425, 15.22003
1080.907, 15.17712
1081.389, 15.34067
1081.871, 15.51451
1082.353, 15.46098
1082.836, 15.28242
1083.318, 15.24789
1083.800, 15.41543
1084.282, 15.52434
1084.764, 15.36547
1085.246, 15.24505
1085.728, 15.40829
1086.210, 15.59029
1086.693, 15.51937
1087.175, 15.31314
1087.657, 15.23024
1088.139, 15.30577
1088.621, 15.31208
1089.103, 15.02348
1089.585, 14.83763
1090.067, 15.03123
1090.549, 15.28810
1091.031, 15.37505
1091.514, 15.35696
1091.996, 15.34744
1092.478, 15.36337
1092.960, 15.37677
1093.442, 15.38109
1093.924, 15.37633
1094.406, 15.37054
1094.888, 15.34692
1095.371, 15.26788
1095.853, 15.18193
1096.335, 15.17719
1096.817, 15.23258
1097.299, 15.19897
1097.781, 14.96833
1098.263, 14.82474
1098.745, 14.90817
1099.228, 15.04214
1099.710, 15.18925
1100.192, 15.29783
1100.674, 15.28055
1101.156, 15.18166
1101.638, 15.16788
1102.120, 15.31212
1102.602, 15.38166
1103.084, 15.25060
1103.567, 15.12339
1104.049, 15.11191
1104.531, 15.10929
1105.013, 14.97265
1105.495, 14.78267
1105.977, 14.75993
1106.459, 14.96500
1106.941, 15.09751
1107.423, 15.06650
1107.906, 15.01487
1108.388, 14.94088
1108.870, 14.89827
1109.352, 14.93079
1109.834, 15.01481
1110.316, 15.12123
1110.798, 15.25163
1111.280, 15.33964
1111.763, 15.39076
1112.245, 15.38416
1112.727, 15.24394
1113.209, 15.12988
1113.691, 15.17424
1114.173, 15.25327
1114.655, 15.17067
1115.137, 14.94701
1115.620, 14.87079
1116.102, 15.11714
1116.584, 15.19659
1117.066, 14.94808
1117.548, 14.76308
1118.030, 14.81231
1118.512, 14.94324
1118.994, 15.04847
1119.476, 15.10876
1119.958, 15.02392
1120.441, 15.07755
1120.923, 15.16028
1121.405, 15.00584
1121.887, 15.27066
1122.369, 15.17297
1122.851, 14.98983
1123.333, 14.90766
1123.815, 14.89862
1124.298, 14.90039
1124.780, 14.91065
1125.262, 14.97760
1125.744, 15.14877
1126.226, 15.18060
1126.708, 14.98586
1127.190, 14.79865
1127.672, 14.74543
1128.155, 14.77421
1128.637, 14.80851
1129.119, 14.85468
1129.601, 15.01248
1130.083, 15.31712
1130.565, 15.28324
1131.047, 14.80912
1131.529, 14.52307
1132.011, 14.70251
1132.494, 14.97352
1132.976, 14.94710
1133.458, 14.74653
1133.940, 14.74109
1134.422, 14.91219
1134.904, 15.02240
1135.386, 15.06420
1135.868, 15.11650
1136.350, 15.20033
1136.833, 15.27791
1137.315, 15.32300
1137.797, 15.34525
1138.279, 15.37906
1138.761, 15.40005
1139.243, 15.28640
1139.725, 15.07933
1140.207, 14.95519
1140.690, 14.93712
1141.172, 14.96546
1141.654, 15.01088
1142.136, 15.04480
1142.618, 15.03252
1143.100, 14.99404
1143.582, 14.95322
1144.064, 14.91620
1144.547, 14.89102
1145.029, 14.88219
1145.511, 14.89803
1145.993, 14.94102
1146.475, 15.01553
1146.957, 15.14908
1147.439, 15.25163
1147.921, 15.22872
1148.403, 15.12942
1148.885, 14.98874
1149.368, 14.82829
1149.850, 14.63679
1150.332, 14.45168
1150.814, 14.40479
1151.296, 14.56759
1151.778, 14.77188
1152.260, 14.96003
1152.742, 15.10433
1153.225, 15.19399
1153.707, 15.22512
1154.189, 15.19076
1154.671, 15.09701
1155.153, 14.92020
1155.635, 14.65307
1156.117, 14.51536
1156.599, 14.63332
1157.082, 14.80903
1157.564, 15.04107
1158.046, 15.24681
1158.528, 15.40828
1159.010, 15.49142
1159.492, 15.41203
1159.974, 15.19575
1160.456, 15.06923
1160.938, 15.12817
1161.421, 15.12511
1161.903, 14.92134
1162.385, 14.84298
1162.867, 15.11939
1163.349, 15.38602
1163.831, 15.32374
1164.313, 15.06513
1164.795, 14.93597
1165.277, 14.95469
1165.760, 14.93806
1166.242, 14.85536
1166.724, 14.84164
1167.206, 14.93594
1167.688, 15.04450
1168.170, 15.12552
1168.652, 15.17907
1169.134, 15.20145
1169.617, 15.19942
1170.099, 15.16801
1170.581, 15.10466
1171.063, 15.35489
1171.545, 15.94426
1172.027, 16.16771
1172.509, 15.80708
1172.991, 15.34308
1173.474, 15.13174
1173.956, 15.08782
1174.438, 15.07399
1174.920, 15.10451
1175.402, 15.29609
1175.884, 15.56956
1176.366, 15.61570
1176.848, 15.42694
1177.330, 15.21207
1177.813, 15.06336
1178.295, 14.96779
1178.777, 14.91199
1179.259, 14.90342
1179.741, 15.02201
1180.223, 15.14308
1180.705, 15.00187
1181.187, 14.74688
1181.669, 14.76759
1182.152, 15.06882
1182.634, 15.23203
1183.116, 15.00722
1183.598, 14.84722
1184.080, 15.16655
1184.562, 15.46610
1185.044, 15.35373
1185.526, 15.09944
1186.009, 14.94446
1186.491, 14.90333
1186.973, 14.96620
1187.455, 15.14085
1187.937, 15.23733
1188.419, 15.12902
1188.901, 15.07361
1189.383, 15.19190
1189.865, 15.29114
1190.348, 15.25739
1190.830, 15.16834
1191.312, 15.10460
1191.794, 15.05805
1192.276, 14.98340
1192.758, 14.85364
1193.240, 14.78419
1193.722, 14.77045
1194.204, 14.85174
1194.687, 15.08818
1195.169, 15.24188
1195.651, 15.12955
1196.133, 14.94526
1196.615, 15.01791
1197.097, 15.29103
1197.579, 15.42864
1198.061, 15.43420
1198.544, 15.33855
1199.026, 15.15408
1199.508, 15.00241
1199.990, 14.92580
1200.472, 14.89949
1200.954, 14.90481
1201.436, 14.94948
1201.918, 15.10789
1202.401, 15.27795
1202.883, 15.21832
1203.365, 15.01364
1203.847, 14.83828
1204.329, 14.73057
1204.811, 14.70691
1205.293, 14.77025
1205.775, 14.83863
1206.257, 14.84099
1206.740, 14.84946
1207.222, 14.93371
1207.704, 15.03084
1208.186, 15.08960
1208.668, 15.11923
1209.150, 15.12124
1209.632, 15.11174
1210.114, 15.16067
1210.596, 15.32341
1211.079, 15.41121
1211.561, 15.34000
1212.043, 15.25441
1212.525, 15.15899
1213.007, 15.10655
1213.489, 15.19349
1213.971, 15.29403
1214.453, 15.17775
1214.936, 14.86491
1215.418, 14.73895
1215.900, 14.84915
1216.382, 14.96780
1216.864, 15.09392
1217.346, 15.17839
1217.828, 15.20457
1218.310, 15.18751
1218.792, 15.13264
1219.275, 15.06568
1219.757, 15.03718
1220.239, 15.03751
1220.721, 15.02276
1221.203, 14.99339
1221.685, 14.94320
1222.167, 14.87826
1222.649, 14.83383
1223.131, 14.82055
1223.614, 14.81796
1224.096, 14.82566
1224.578, 14.79048
1225.060, 14.50458
1225.542, 14.27601
1226.024, 14.63264
1226.506, 15.20822
1226.988, 15.39782
1227.471, 15.25260
1227.953, 15.18773
1228.435, 15.32341
1228.917, 15.34883
1229.399, 14.96959
1229.881, 14.71414
1230.363, 14.85954
1230.845, 15.05727
1231.328, 15.15393
1231.810, 15.15364
1232.292, 15.00093
1232.774, 14.76316
1233.256, 14.71899
1233.738, 14.94003
1234.220, 15.04065
1234.702, 14.97972
1235.184, 14.92590
1235.667, 14.90185
1236.149, 14.92879
1236.631, 15.03193
1237.113, 15.11948
1237.595, 15.06296
1238.077, 14.93884
1238.559, 15.02014
1239.041, 15.24466
1239.523, 15.26501
1240.006, 15.11351
1240.488, 15.04475
1240.970, 15.08867
1241.452, 15.04067
1241.934, 14.79745
1242.416, 14.60657
1242.898, 14.77535
1243.380, 15.01426
1243.863, 15.02663
1244.345, 14.95559
1244.827, 14.96993
1245.309, 15.01832
1245.791, 14.96837
1246.273, 14.83395
1246.755, 14.77081
1247.237, 14.82523
1247.719, 14.92837
1248.202, 15.14678
1248.684, 15.29682
1249.166, 15.31020
1249.648, 15.25359
1250.130, 15.14157
1250.612, 15.00255
1251.094, 14.86334
1251.576, 14.73180
1252.058, 14.67453
1252.541, 14.71357
1253.023, 14.63873
1253.505, 14.42526
1253.987, 14.33956
1254.469, 14.44481
1254.951, 14.61908
1255.433, 14.79636
1255.915, 14.93425
1256.398, 14.95451
1256.880, 14.93792
1257.362, 15.11920
1257.844, 15.33929
1258.326, 15.19849
1258.808, 14.84904
1259.290, 14.71617
1259.772, 14.83404
1260.255, 14.91995
1260.737, 14.84699
1261.219, 14.83986
1261.701, 15.11790
1262.183, 15.35531
1262.665, 15.39861
1263.147, 15.34021
1263.629, 15.17749
1264.111, 15.00206
1264.594, 14.93575
1265.076, 14.97027
1265.558, 15.04864
1266.040, 15.23350
1266.522, 15.19979
1267.004, 14.82172
1267.486, 14.69643
1267.968, 14.99157
1268.450, 15.29582
1268.933, 15.40798
1269.415, 15.38185
1269.897, 15.26106
1270.379, 15.08477
1270.861, 14.90072
1271.343, 14.75339
1271.825, 14.85391
1272.307, 14.77432
1272.790, 14.77940
1273.272, 14.90929
1273.754, 14.84867
1274.236, 15.05615
1274.718, 15.21747
1275.200, 15.08447
1275.682, 14.91243
1276.164, 14.79249
1276.646, 14.75416
1277.129, 14.89784
1277.611, 15.07360
1278.093, 15.08430
1278.575, 14.98268
1279.057, 14.99467
1279.539, 15.16295
1280.021, 15.13437
1280.503, 14.75787
1280.985, 14.62344
1281.468, 14.85264
1281.950, 15.10949
1282.432, 15.27420
1282.914, 15.41285
1283.396, 15.58454
1283.878, 15.75210
1284.360, 15.87226
1284.842, 15.91781
1285.325, 15.81573
1285.807, 15.56914
##END=



