##NAMES=Chrysoberyl
##RRUFFID=R080110
##IDEAL CHEMISTRY=BeAl_2_O_4_
##LOCALITY=Ratonapura, Sri Lanka
##OWNER=RRUFF
##SOURCE=Shinichi Kihara
##DESCRIPTION=Pale greenish blue euhedral single crystal
##STATUS=The identification of this mineral has been confirmed by single-crystal X-ray diffraction.
##URL=rruff.info/R080110
92.52344, 79.90580
93.00555, 81.67442
93.48767, 81.53284
93.96979, 79.33250
94.45190, 77.84437
94.93402, 77.33578
95.41614, 76.23695
95.89825, 74.43253
96.38037, 72.35201
96.86249, 70.11077
97.34460, 68.11623
97.82672, 66.60715
98.30884, 65.12963
98.79095, 63.66790
99.27307, 62.10662
99.75519, 60.32638
100.2373, 58.40761
100.7194, 56.45496
101.2015, 54.74358
101.6837, 53.37199
102.1658, 52.09900
102.6479, 50.71045
103.1300, 49.17654
103.6121, 47.71655
104.0942, 46.36530
104.5764, 45.18194
105.0585, 44.39587
105.5406, 44.32330
106.0227, 44.71514
106.5048, 44.81059
106.9869, 44.45257
107.4691, 43.96617
107.9512, 43.53560
108.4333, 43.12543
108.9154, 42.64213
109.3975, 41.97081
109.8796, 41.06548
110.3618, 40.26117
110.8439, 39.60150
111.3260, 38.99756
111.8081, 38.42792
112.2902, 37.88488
112.7723, 37.35521
113.2544, 36.80367
113.7366, 36.05737
114.2187, 35.65777
114.7008, 35.82201
115.1829, 36.18922
115.6650, 36.44594
116.1471, 36.48085
116.6293, 36.37565
117.1114, 36.31416
117.5935, 36.32453
118.0756, 36.31850
118.5577, 36.30592
119.0398, 36.26442
119.5220, 36.12281
120.0041, 35.80297
120.4862, 35.40191
120.9683, 35.12226
121.4504, 34.95652
121.9325, 34.91466
122.4147, 35.08069
122.8968, 35.47821
123.3789, 35.79344
123.8610, 35.81665
124.3431, 35.68664
124.8252, 35.50928
125.3074, 35.30711
125.7895, 35.08681
126.2716, 34.84473
126.7537, 34.51244
127.2358, 34.29565
127.7179, 34.29968
128.2001, 34.42513
128.6822, 34.54052
129.1643, 34.55980
129.6464, 34.49370
130.1285, 34.47807
130.6107, 34.73289
131.0928, 34.82596
131.5749, 34.52628
132.0570, 33.96098
132.5391, 33.42134
133.0212, 33.17579
133.5034, 33.28264
133.9855, 33.29668
134.4676, 33.11074
134.9497, 32.93743
135.4318, 32.91531
135.9139, 33.04889
136.3960, 33.22701
136.8782, 33.32395
137.3603, 33.31935
137.8424, 33.33308
138.3245, 33.38448
138.8066, 33.45248
139.2887, 33.53843
139.7709, 33.66169
140.2530, 33.72644
140.7351, 33.57222
141.2172, 33.22459
141.6993, 32.86006
142.1814, 32.54579
142.6636, 32.27468
143.1457, 31.99924
143.6278, 31.61824
144.1099, 31.35528
144.5920, 31.45576
145.0741, 31.91091
145.5563, 32.34848
146.0384, 32.40331
146.5205, 32.02656
147.0026, 31.68779
147.4847, 31.43269
147.9668, 31.26371
148.4490, 31.23055
148.9311, 31.33234
149.4132, 31.46795
149.8953, 31.46458
150.3774, 31.19008
150.8595, 31.05182
151.3417, 31.19724
151.8238, 31.40110
152.3059, 31.46511
152.7880, 31.31855
153.2701, 31.05715
153.7522, 30.92528
154.2344, 31.18853
154.7165, 31.27985
155.1986, 31.00145
155.6807, 30.58741
156.1628, 30.34643
156.6449, 30.44275
157.1271, 30.78607
157.6092, 31.01172
158.0913, 31.05506
158.5734, 31.08179
159.0555, 31.19179
159.5376, 31.32916
160.0198, 31.32356
160.5019, 31.02691
160.9840, 30.54437
161.4661, 30.27069
161.9482, 30.24972
162.4303, 30.37357
162.9125, 30.66124
163.3946, 31.10241
163.8767, 31.43688
164.3588, 31.44403
164.8409, 31.25459
165.3230, 31.09025
165.8052, 30.98955
166.2873, 30.92618
166.7694, 30.87826
167.2515, 30.85614
167.7336, 30.81249
168.2157, 30.67485
168.6979, 30.51611
169.1800, 30.43279
169.6621, 30.49459
170.1442, 30.63732
170.6263, 30.67454
171.1084, 30.54090
171.5906, 30.39872
172.0727, 30.23215
172.5548, 30.10262
173.0369, 30.12283
173.5190, 30.40620
174.0011, 30.89396
174.4833, 31.08636
174.9654, 30.58236
175.4475, 30.16043
175.9296, 29.98886
176.4117, 30.02065
176.8938, 30.15404
177.3760, 30.32786
177.8581, 30.54578
178.3402, 30.65548
178.8223, 30.52098
179.3044, 30.42325
179.7865, 30.51381
180.2687, 30.74158
180.7508, 30.93699
181.2329, 30.94888
181.7150, 30.75574
182.1971, 30.61179
182.6792, 30.45111
183.1614, 30.38241
183.6435, 30.56357
184.1256, 30.96280
184.6077, 31.29028
185.0898, 31.23880
185.5719, 30.78028
186.0541, 30.53860
186.5362, 30.69741
187.0183, 30.97957
187.5004, 31.14025
187.9825, 31.15203
188.4646, 31.09476
188.9468, 30.98539
189.4289, 30.85024
189.9110, 30.81120
190.3931, 30.99463
190.8752, 31.26097
191.3573, 31.36283
191.8395, 31.21817
192.3216, 31.09323
192.8037, 31.28574
193.2858, 31.66320
193.7679, 31.91804
194.2500, 31.81808
194.7322, 31.47943
195.2143, 31.27439
195.6964, 31.24339
196.1785, 31.31010
196.6606, 31.47646
197.1427, 31.69500
197.6249, 31.85565
198.1070, 31.83650
198.5891, 31.66726
199.0712, 31.65795
199.5533, 31.95399
200.0354, 32.26152
200.5176, 32.54503
200.9997, 32.75658
201.4818, 32.79442
201.9639, 32.50578
202.4460, 31.87393
202.9281, 31.56609
203.4103, 31.78763
203.8924, 32.17704
204.3745, 32.85512
204.8566, 33.65081
205.3387, 34.18071
205.8208, 34.05757
206.3030, 33.17495
206.7851, 32.63417
207.2672, 32.62842
207.7493, 32.73899
208.2314, 32.85527
208.7135, 32.95230
209.1957, 33.03206
209.6778, 33.09690
210.1599, 33.14739
210.6420, 33.16993
211.1241, 33.10900
211.6062, 33.07271
212.0884, 33.15570
212.5705, 33.33510
213.0526, 33.48446
213.5347, 33.47849
214.0168, 33.29182
214.4989, 33.19162
214.9811, 33.20022
215.4632, 33.26815
215.9453, 33.39925
216.4274, 33.58194
216.9095, 33.73620
217.3916, 33.79493
217.8737, 33.74868
218.3559, 33.66336
218.8380, 33.40474
219.3201, 33.19398
219.8022, 33.28592
220.2843, 33.69906
220.7664, 34.11714
221.2486, 34.28959
221.7307, 34.24995
222.2128, 34.15033
222.6949, 33.88596
223.1770, 33.63552
223.6591, 33.64803
224.1413, 33.96511
224.6234, 34.29576
225.1055, 34.39470
225.5876, 34.35958
226.0697, 34.36371
226.5518, 34.51370
227.0340, 34.69489
227.5161, 34.70124
227.9982, 34.46949
228.4803, 34.28343
228.9624, 34.35299
229.4445, 34.55795
229.9267, 34.75276
230.4088, 34.87388
230.8909, 34.96411
231.3730, 35.09016
231.8551, 35.23248
232.3372, 35.46619
232.8194, 35.92901
233.3015, 36.46111
233.7836, 36.85261
234.2657, 36.97122
234.7478, 36.97386
235.2299, 37.20885
235.7121, 37.71759
236.1942, 38.40422
236.6763, 39.30928
237.1584, 40.31641
237.6405, 41.30650
238.1227, 42.22915
238.6048, 43.12262
239.0869, 44.08026
239.5690, 45.12568
240.0511, 46.20848
240.5332, 47.34859
241.0154, 48.50044
241.4975, 49.67282
241.9796, 50.87528
242.4617, 51.96473
242.9438, 52.59820
243.4259, 52.89797
243.9081, 52.43121
244.3902, 51.06371
244.8723, 49.05874
245.3544, 46.49291
245.8365, 43.40754
246.3186, 40.13444
246.8008, 37.38924
247.2829, 35.36407
247.7650, 33.69489
248.2471, 32.36300
248.7292, 31.34432
249.2113, 30.71039
249.6935, 30.46412
250.1756, 30.40212
250.6577, 30.12142
251.1398, 29.36590
251.6219, 28.75705
252.1040, 28.27986
252.5862, 27.95221
253.0683, 27.81246
253.5504, 27.86666
254.0325, 28.06083
254.5146, 28.32244
254.9967, 28.79102
255.4789, 29.04260
255.9610, 28.93578
256.4431, 28.69680
256.9252, 28.51220
257.4073, 28.42734
257.8894, 28.38137
258.3716, 28.28364
258.8537, 28.07408
259.3358, 27.99386
259.8179, 28.16634
260.3000, 28.39411
260.7821, 28.50297
261.2643, 28.46418
261.7464, 28.36626
262.2285, 28.30091
262.7106, 28.27584
263.1927, 28.25392
263.6748, 28.27616
264.1570, 28.27477
264.6391, 28.15248
265.1212, 27.90876
265.6033, 27.69280
266.0854, 27.66022
266.5675, 27.82358
267.0497, 27.93933
267.5318, 27.92664
268.0139, 27.91660
268.4960, 28.06297
268.9781, 28.36145
269.4602, 28.59590
269.9424, 28.56540
270.4245, 28.30917
270.9066, 28.17341
271.3887, 28.27472
271.8708, 28.41629
272.3529, 28.47757
272.8351, 28.45524
273.3172, 28.32806
273.7993, 28.01072
274.2814, 27.59582
274.7635, 27.36761
275.2456, 27.43284
275.7278, 27.57372
276.2099, 27.64573
276.6920, 27.65726
277.1741, 27.68082
277.6562, 27.76883
278.1383, 27.87594
278.6205, 27.90065
279.1026, 27.78943
279.5847, 27.71165
280.0668, 27.82501
280.5489, 28.09340
281.0310, 28.30005
281.5132, 28.36434
281.9953, 28.32951
282.4774, 28.25564
282.9595, 28.13074
283.4416, 28.03590
283.9237, 28.04387
284.4059, 28.12948
284.8880, 28.18601
285.3701, 28.18044
285.8522, 28.14642
286.3343, 28.09488
286.8164, 28.02797
287.2986, 28.02852
287.7807, 28.22415
288.2628, 28.53297
288.7449, 28.67215
289.2270, 28.54968
289.7091, 28.34568
290.1913, 28.15591
290.6734, 27.99698
291.1555, 27.94315
291.6376, 28.16776
292.1197, 28.51012
292.6018, 28.53931
293.0840, 28.10386
293.5661, 27.66880
294.0482, 27.55388
294.5303, 27.65209
295.0124, 27.78924
295.4945, 27.91232
295.9767, 28.02806
296.4588, 28.16512
296.9409, 28.34798
297.4230, 28.46731
297.9051, 28.40212
298.3872, 28.26038
298.8694, 28.17280
299.3515, 28.20150
299.8336, 28.25470
300.3157, 28.17765
300.7978, 27.93422
301.2799, 27.77866
301.7621, 27.92629
302.2442, 28.14673
302.7263, 28.22140
303.2084, 28.09350
303.6905, 27.92545
304.1726, 27.89087
304.6548, 27.99592
305.1369, 28.08674
305.6190, 28.09040
306.1011, 28.09888
306.5832, 28.23931
307.0653, 28.50934
307.5475, 28.67985
308.0296, 28.44610
308.5117, 27.85926
308.9938, 27.54978
309.4759, 27.72919
309.9580, 28.06692
310.4402, 28.43440
310.9223, 28.78410
311.4044, 28.95579
311.8865, 28.70296
312.3686, 28.15282
312.8507, 27.89811
313.3329, 28.13764
313.8150, 28.34376
314.2971, 28.15283
314.7792, 27.74029
315.2613, 27.42531
315.7434, 27.35985
316.2256, 27.47544
316.7077, 27.64844
317.1898, 27.91583
317.6719, 28.14033
318.1540, 28.25064
318.6361, 28.29219
319.1183, 28.29573
319.6004, 28.25585
320.0825, 28.22172
320.5646, 28.31356
321.0467, 28.57792
321.5288, 28.66551
322.0110, 28.18336
322.4931, 27.65283
322.9752, 27.52801
323.4573, 27.88634
323.9394, 28.35638
324.4215, 28.62697
324.9037, 28.69925
325.3858, 28.66890
325.8679, 28.44709
326.3500, 28.23155
326.8321, 28.18360
327.3142, 28.28213
327.7964, 28.37972
328.2785, 28.29612
328.7606, 28.10432
329.2427, 28.19248
329.7248, 28.73159
330.2069, 29.29463
330.6891, 29.66072
331.1712, 29.86031
331.6533, 29.94097
332.1354, 29.84577
332.6175, 29.68461
333.0996, 29.70527
333.5818, 29.96705
334.0639, 30.21953
334.5460, 30.24973
335.0281, 30.22958
335.5102, 30.37433
335.9923, 30.78532
336.4745, 31.27091
336.9566, 31.59385
337.4387, 31.74098
337.9208, 31.92842
338.4029, 32.25486
338.8850, 32.63466
339.3671, 32.98238
339.8492, 33.29125
340.3314, 33.59352
340.8135, 33.82100
341.2956, 34.02338
341.7777, 34.53064
342.2598, 35.53330
342.7419, 36.67487
343.2241, 37.55167
343.7062, 38.24443
344.1883, 39.16877
344.6704, 40.50349
345.1525, 42.20979
345.6346, 44.22195
346.1168, 46.55119
346.5989, 49.12640
347.0810, 51.85695
347.5631, 54.78830
348.0452, 58.11798
348.5273, 62.09708
349.0095, 66.31286
349.4916, 70.72569
349.9737, 75.35154
350.4558, 78.75998
350.9379, 80.42127
351.4200, 80.19257
351.9022, 78.00152
352.3843, 73.36988
352.8664, 68.10014
353.3485, 62.93112
353.8306, 58.01147
354.3127, 53.98420
354.7949, 51.13260
355.2770, 49.05889
355.7591, 47.42604
356.2412, 46.23271
356.7233, 44.80453
357.2054, 42.67990
357.6876, 40.24043
358.1697, 38.04377
358.6518, 36.15321
359.1339, 34.55469
359.6160, 33.31783
360.0981, 32.39799
360.5803, 31.58297
361.0624, 30.86148
361.5445, 30.22984
362.0266, 29.68502
362.5087, 29.22774
362.9908, 28.87879
363.4730, 28.66650
363.9551, 28.56701
364.4372, 28.48084
364.9193, 28.35060
365.4014, 28.32277
365.8835, 28.56417
366.3657, 28.94024
366.8478, 29.16072
367.3299, 29.11193
367.8120, 28.94728
368.2941, 28.89606
368.7762, 28.96371
369.2584, 29.10437
369.7405, 29.35181
370.2226, 29.64636
370.7047, 29.97565
371.1868, 30.32594
371.6689, 30.58671
372.1511, 30.66906
372.6332, 30.55969
373.1153, 30.28659
373.5974, 29.69340
374.0795, 29.10529
374.5616, 28.68358
375.0438, 28.39328
375.5259, 28.12352
376.0080, 27.81696
376.4901, 27.48619
376.9722, 27.17750
377.4543, 26.80313
377.9365, 26.56228
378.4186, 26.60431
378.9007, 26.73166
379.3828, 26.71725
379.8649, 26.50179
380.3470, 26.19866
380.8292, 25.96312
381.3113, 25.81343
381.7934, 25.68197
382.2755, 25.50092
382.7576, 25.39247
383.2397, 25.48992
383.7219, 25.73833
384.2040, 25.95183
384.6861, 25.97808
385.1682, 25.83085
385.6503, 25.72507
386.1324, 25.66569
386.6146, 25.64719
387.0967, 25.70975
387.5788, 25.80015
388.0609, 25.84785
388.5430, 25.82292
389.0251, 25.76105
389.5073, 25.73668
389.9894, 25.77845
390.4715, 25.79739
390.9536, 25.79390
391.4357, 25.76581
391.9178, 25.72495
392.4000, 25.66355
392.8821, 25.54165
393.3642, 25.26299
393.8463, 24.81462
394.3284, 24.65432
394.8105, 25.03535
395.2927, 25.42706
395.7748, 25.73399
396.2569, 25.91367
396.7390, 25.88309
397.2211, 25.55418
397.7032, 25.09156
398.1854, 24.88694
398.6675, 25.03093
399.1496, 25.15704
399.6317, 25.20231
400.1138, 25.16621
400.5959, 24.99714
401.0781, 24.69195
401.5602, 24.40996
402.0423, 24.32389
402.5244, 24.41510
403.0065, 24.48373
403.4886, 24.53876
403.9708, 24.51565
404.4529, 24.30533
404.9350, 23.98162
405.4171, 23.75590
405.8992, 23.80249
406.3813, 23.95708
406.8635, 23.92323
407.3456, 23.67262
407.8277, 23.49625
408.3098, 23.57149
408.7919, 23.79800
409.2740, 24.00346
409.7562, 24.18223
410.2383, 24.33093
410.7204, 24.48345
411.2025, 24.60770
411.6846, 24.57403
412.1667, 24.29954
412.6489, 24.00363
413.1310, 23.99137
413.6131, 24.25144
414.0952, 24.47586
414.5773, 24.61197
415.0594, 24.69037
415.5416, 24.72135
416.0237, 24.71211
416.5058, 24.70483
416.9879, 24.73893
417.4700, 24.79365
417.9521, 24.75600
418.4343, 24.48935
418.9164, 24.30892
419.3985, 24.36247
419.8806, 24.53580
420.3627, 24.67669
420.8448, 24.73584
421.3270, 24.72163
421.8091, 24.63662
422.2912, 24.43434
422.7733, 24.29752
423.2554, 24.27541
423.7375, 24.27056
424.2197, 24.21111
424.7018, 24.11420
425.1839, 24.05444
425.6660, 24.09153
426.1481, 24.20622
426.6302, 24.26496
427.1124, 24.13512
427.5945, 24.11642
428.0766, 24.36683
428.5587, 24.68200
429.0408, 24.84655
429.5229, 24.79977
430.0051, 24.65779
430.4872, 24.58026
430.9693, 24.58425
431.4514, 24.58274
431.9335, 24.60463
432.4156, 24.59147
432.8978, 24.41998
433.3799, 24.18827
433.8620, 24.13268
434.3441, 24.42570
434.8262, 24.97458
435.3083, 25.55880
435.7905, 26.25528
436.2726, 26.76551
436.7547, 26.80249
437.2368, 26.70133
437.7189, 26.74847
438.2010, 27.00095
438.6832, 27.33540
439.1653, 27.66504
439.6474, 27.99067
440.1295, 28.34985
440.6116, 28.82113
441.0938, 29.18031
441.5759, 29.15917
442.0580, 28.86126
442.5401, 28.57898
443.0222, 28.43559
443.5043, 28.31502
443.9865, 28.08227
444.4686, 27.75065
444.9507, 27.42451
445.4328, 27.12442
445.9149, 26.89037
446.3970, 26.84283
446.8792, 27.06555
447.3613, 27.20135
447.8434, 27.04694
448.3255, 26.80240
448.8076, 26.72934
449.2897, 26.86658
449.7719, 27.05916
450.2540, 27.16043
450.7361, 27.16449
451.2182, 27.21115
451.7003, 27.34812
452.1824, 27.46902
452.6646, 27.50918
453.1467, 27.51312
453.6288, 27.51680
454.1109, 27.53570
454.5930, 27.65844
455.0751, 28.08689
455.5573, 29.05364
456.0394, 29.87663
456.5215, 30.37153
457.0036, 30.90210
457.4857, 31.58517
457.9678, 32.48841
458.4500, 33.77002
458.9321, 35.67811
459.4142, 38.02044
459.8963, 39.68173
460.3784, 40.50159
460.8605, 40.87462
461.3427, 41.08287
461.8248, 40.87703
462.3069, 39.82147
462.7890, 37.81140
463.2711, 35.66186
463.7532, 34.23660
464.2354, 33.48363
464.7175, 32.77448
465.1996, 31.94279
465.6817, 31.31365
466.1638, 31.09319
466.6459, 31.22952
467.1281, 31.63596
467.6102, 32.36607
468.0923, 33.27943
468.5744, 34.24417
469.0565, 35.26548
469.5386, 36.31777
470.0208, 37.38660
470.5029, 38.48895
470.9850, 39.58236
471.4671, 40.58805
471.9492, 41.95282
472.4313, 43.76319
472.9135, 46.00952
473.3956, 48.55306
473.8777, 51.43302
474.3598, 55.06941
474.8419, 59.78636
475.3240, 65.54710
475.8062, 71.91208
476.2883, 79.25617
476.7704, 86.68430
477.2525, 94.53737
477.7346, 102.1408
478.2167, 109.2564
478.6989, 115.6302
479.1810, 119.9229
479.6631, 120.4240
480.1452, 116.8266
480.6273, 110.8827
481.1094, 100.7563
481.5916, 90.16010
482.0737, 79.33815
482.5558, 69.05167
483.0379, 60.35587
483.5200, 53.75148
484.0021, 48.79079
484.4843, 44.68911
484.9664, 41.47041
485.4485, 38.94025
485.9306, 37.44557
486.4127, 36.34641
486.8948, 35.27660
487.3770, 34.22144
487.8591, 33.26209
488.3412, 32.44575
488.8233, 31.75820
489.3054, 31.19967
489.7875, 30.78341
490.2697, 30.39130
490.7518, 29.95603
491.2339, 29.51847
491.7160, 29.16459
492.1981, 28.94480
492.6802, 28.66691
493.1624, 28.13824
493.6445, 27.54529
494.1266, 27.21037
494.6087, 27.18069
495.0908, 27.18868
495.5729, 26.97592
496.0551, 26.54814
496.5372, 26.31489
497.0193, 26.46333
497.5014, 26.55798
497.9835, 26.43011
498.4656, 26.18022
498.9478, 25.91407
499.4299, 25.67705
499.9120, 25.54161
500.3941, 25.67071
500.8762, 26.23718
501.3583, 26.37675
501.8405, 25.61783
502.3226, 24.91071
502.8047, 24.57344
503.2868, 24.53770
503.7689, 24.67488
504.2510, 24.94841
504.7331, 25.25051
505.2152, 25.37839
505.6974, 25.31185
506.1795, 25.19140
506.6616, 24.94077
507.1437, 24.74821
507.6258, 24.81790
508.1079, 25.09614
508.5901, 25.28130
509.0722, 25.09486
509.5543, 24.79694
510.0364, 24.76744
510.5185, 25.00646
511.0006, 25.38196
511.4828, 25.91616
511.9649, 26.47341
512.4470, 26.72309
512.9291, 26.55132
513.4113, 26.51582
513.8934, 26.81663
514.3755, 27.28670
514.8576, 27.80716
515.3397, 28.34131
515.8218, 28.79718
516.3040, 29.09379
516.7861, 29.26198
517.2682, 29.52085
517.7503, 29.71712
518.2324, 30.20818
518.7145, 31.17730
519.1967, 32.37067
519.6788, 33.57687
520.1609, 34.74734
520.6430, 35.92947
521.1251, 37.16080
521.6072, 38.44897
522.0894, 39.82241
522.5715, 41.40998
523.0536, 42.87901
523.5357, 44.36254
524.0178, 45.57625
524.4999, 46.18490
524.9821, 46.09666
525.4642, 45.47834
525.9463, 44.43315
526.4284, 42.98309
526.9105, 41.11493
527.3926, 38.72779
527.8748, 36.24294
528.3569, 33.82095
528.8390, 31.55826
529.3211, 29.75849
529.8032, 28.62897
530.2853, 27.77723
530.7675, 27.06552
531.2496, 26.47362
531.7317, 25.97799
532.2138, 25.57039
532.6959, 25.21032
533.1780, 24.84751
533.6602, 24.47257
534.1423, 24.15335
534.6244, 23.84594
535.1065, 23.62886
535.5886, 23.57340
536.0707, 23.61555
536.5529, 23.67998
537.0350, 23.73369
537.5171, 23.74538
537.9992, 23.63314
538.4813, 23.34968
538.9634, 23.18950
539.4456, 23.25547
539.9277, 23.35168
540.4098, 23.37879
540.8919, 23.37072
541.3740, 23.41727
541.8561, 23.59772
542.3383, 23.75220
542.8204, 23.61697
543.3025, 23.23125
543.7846, 22.99269
544.2667, 23.04878
544.7488, 23.18042
545.2310, 23.09725
545.7131, 22.83255
546.1952, 22.73231
546.6773, 23.02215
547.1594, 23.33035
547.6415, 23.39972
548.1237, 23.29384
548.6058, 23.16612
549.0879, 23.07409
549.5700, 23.05478
550.0521, 23.19677
550.5342, 23.63842
551.0164, 23.80630
551.4985, 23.38918
551.9806, 23.05779
552.4627, 23.17009
552.9448, 23.57333
553.4269, 23.97017
553.9091, 24.22532
554.3912, 24.35346
554.8733, 24.31413
555.3554, 24.05075
555.8375, 24.02687
556.3196, 24.52833
556.8018, 25.02073
557.2839, 25.08419
557.7660, 24.86684
558.2481, 24.78083
558.7302, 24.94576
559.2123, 25.33402
559.6945, 26.01371
560.1766, 26.91959
560.6587, 27.72308
561.1408, 28.28813
561.6229, 28.84300
562.1050, 29.65975
562.5872, 30.76484
563.0693, 32.05634
563.5514, 33.69011
564.0335, 35.34845
564.5156, 37.10239
564.9977, 38.70885
565.4799, 39.74883
565.9620, 40.05438
566.4441, 39.85469
566.9262, 39.53141
567.4083, 39.17327
567.8904, 38.32804
568.3726, 36.66436
568.8547, 34.82527
569.3368, 32.78267
569.8189, 30.76956
570.3010, 29.18368
570.7831, 28.19438
571.2653, 27.46361
571.7474, 26.54213
572.2295, 25.48320
572.7116, 24.70911
573.1937, 24.33682
573.6758, 24.14499
574.1580, 24.01846
574.6401, 23.93308
575.1222, 23.79159
575.6043, 23.49348
576.0864, 23.24143
576.5685, 23.16009
577.0507, 23.18541
577.5328, 23.21992
578.0149, 23.23745
578.4970, 23.25441
578.9791, 23.30149
579.4612, 23.38526
579.9434, 23.33412
580.4255, 22.88963
580.9076, 22.61584
581.3897, 22.78797
581.8718, 23.09165
582.3539, 23.14590
582.8361, 22.88315
583.3182, 22.59033
583.8003, 22.61276
584.2824, 22.88817
584.7645, 22.91870
585.2466, 22.60121
585.7288, 22.32682
586.2108, 22.27884
586.6929, 22.39667
587.1750, 22.64111
587.6572, 23.06892
588.1393, 23.36150
588.6214, 23.24531
589.1035, 22.97577
589.5856, 22.91140
590.0677, 23.06718
590.5499, 23.21768
591.0320, 23.20821
591.5141, 23.09609
591.9962, 23.09466
592.4783, 23.33481
592.9604, 23.50396
593.4426, 23.57847
593.9247, 23.59940
594.4068, 23.58975
594.8889, 23.55268
595.3710, 23.47819
595.8531, 23.35049
596.3353, 23.20172
596.8174, 23.10476
597.2995, 23.06386
597.7816, 23.05401
598.2637, 23.06570
598.7458, 23.11382
599.2280, 23.23975
599.7101, 23.42175
600.1922, 23.54196
600.6743, 23.51048
601.1564, 23.44815
601.6385, 23.50876
602.1207, 23.62483
602.6028, 23.54387
603.0849, 23.16617
603.5670, 22.76910
604.0491, 22.74916
604.5313, 23.21765
605.0134, 23.36236
605.4955, 22.93149
605.9776, 22.51216
606.4597, 22.33239
606.9418, 22.25229
607.4240, 22.03503
607.9061, 21.63117
608.3882, 21.28320
608.8703, 21.35475
609.3524, 21.80028
609.8345, 21.96042
610.3167, 21.67826
610.7988, 21.48628
611.2809, 21.80364
611.7630, 22.29563
612.2451, 22.47881
612.7272, 22.24734
613.2094, 22.02506
613.6915, 22.02210
614.1736, 22.12432
614.6557, 22.20993
615.1378, 22.26327
615.6199, 22.27015
616.1021, 22.21096
616.5842, 22.12758
617.0663, 22.14447
617.5484, 22.37691
618.0305, 22.51387
618.5126, 22.51029
618.9948, 22.46235
619.4769, 22.36038
619.9590, 22.26295
620.4411, 22.31617
620.9232, 22.63127
621.4053, 22.98105
621.8875, 22.96440
622.3696, 22.58842
622.8517, 22.25030
623.3338, 21.98676
623.8159, 21.83187
624.2980, 21.86272
624.7802, 22.03168
625.2623, 22.19044
625.7444, 22.37471
626.2265, 22.47937
626.7086, 22.40357
627.1907, 22.24165
627.6729, 22.10548
628.1550, 22.02500
628.6371, 22.02395
629.1192, 22.13909
629.6013, 22.34642
630.0834, 22.44081
630.5656, 22.34599
631.0477, 22.26274
631.5298, 22.14033
632.0119, 22.09938
632.4940, 22.30974
632.9761, 22.71668
633.4583, 23.02766
633.9404, 23.01304
634.4225, 22.84997
634.9046, 22.83944
635.3867, 22.96596
635.8688, 22.99804
636.3510, 22.80941
636.8331, 22.63464
637.3152, 22.78345
637.7973, 23.29785
638.2794, 23.72833
638.7615, 24.14883
639.2437, 24.39863
639.7258, 24.28592
640.2079, 24.01469
640.6900, 23.88338
641.1721, 23.95838
641.6542, 24.06613
642.1364, 24.01086
642.6185, 23.80874
643.1006, 23.66978
643.5827, 23.59646
644.0648, 23.58255
644.5469, 23.73615
645.0291, 23.87913
645.5112, 23.79524
645.9933, 23.47425
646.4754, 23.24665
646.9575, 23.30551
647.4396, 23.49883
647.9218, 23.68481
648.4039, 23.86123
648.8860, 24.04767
649.3681, 24.25328
649.8502, 24.47047
650.3323, 24.69045
650.8145, 24.91535
651.2966, 25.13346
651.7787, 25.38313
652.2608, 25.58174
652.7429, 25.63418
653.2250, 25.65241
653.7072, 25.82184
654.1893, 26.17690
654.6714, 26.47410
655.1535, 26.39157
655.6356, 26.06859
656.1177, 25.98096
656.5999, 26.15662
657.0820, 26.47120
657.5641, 26.98260
658.0462, 27.49392
658.5283, 27.58029
659.0104, 27.16358
659.4926, 26.82877
659.9747, 26.65346
660.4568, 26.58628
660.9389, 26.62406
661.4210, 26.74020
661.9031, 26.90497
662.3853, 27.10461
662.8674, 27.30011
663.3495, 27.41732
663.8316, 27.44554
664.3137, 27.57976
664.7958, 27.89334
665.2780, 28.17862
665.7601, 28.33517
666.2422, 28.41846
666.7243, 28.46445
667.2064, 28.46674
667.6885, 28.53205
668.1707, 28.65249
668.6528, 28.90000
669.1349, 29.42777
669.6170, 30.17794
670.0991, 30.88034
670.5812, 31.39871
671.0634, 31.87491
671.5455, 32.56303
672.0276, 33.50307
672.5097, 34.48904
672.9918, 35.37411
673.4739, 36.47157
673.9561, 37.92011
674.4382, 39.60903
674.9203, 41.50668
675.4024, 43.59361
675.8845, 45.48713
676.3666, 46.85854
676.8488, 47.80941
677.3309, 48.58923
677.8130, 49.20402
678.2951, 49.52777
678.7772, 49.58728
679.2593, 49.15321
679.7415, 47.72962
680.2236, 44.90411
680.7057, 42.31441
681.1878, 39.84809
681.6699, 37.71687
682.1520, 36.15818
682.6342, 34.92791
683.1163, 33.64800
683.5984, 32.20250
684.0805, 30.86317
684.5626, 29.92224
685.0447, 29.33709
685.5269, 28.91235
686.0090, 28.68631
686.4911, 28.38410
686.9732, 27.81833
687.4553, 27.17630
687.9374, 26.78283
688.4196, 26.66112
688.9017, 26.51196
689.3838, 26.22737
689.8659, 25.96734
690.3480, 25.81433
690.8301, 25.75715
691.3123, 25.79634
691.7944, 25.92128
692.2765, 26.03798
692.7586, 26.01255
693.2407, 25.86289
693.7228, 25.86199
694.2050, 26.07961
694.6871, 26.25263
695.1692, 26.17801
695.6513, 26.10183
696.1334, 26.34308
696.6155, 26.90054
697.0977, 27.33999
697.5798, 27.48907
698.0619, 27.51911
698.5440, 27.48842
699.0261, 27.44840
699.5082, 27.47430
699.9904, 27.59272
700.4725, 27.83492
700.9546, 28.26472
701.4367, 28.86071
701.9188, 29.28714
702.4009, 29.40874
702.8831, 29.62899
703.3652, 30.08927
703.8473, 30.65784
704.3294, 31.23353
704.8115, 31.82471
705.2936, 32.51725
705.7758, 33.33927
706.2579, 34.27466
706.7400, 35.28385
707.2221, 36.40574
707.7042, 37.72056
708.1863, 39.24937
708.6685, 41.04720
709.1506, 43.18017
709.6327, 45.61815
710.1148, 48.14732
710.5969, 51.02958
711.0790, 53.49819
711.5612, 55.73238
712.0433, 57.31135
712.5254, 57.97572
713.0075, 57.73580
713.4896, 56.65697
713.9717, 54.67916
714.4539, 52.03197
714.9360, 48.51433
715.4181, 44.55159
715.9002, 41.11415
716.3823, 38.34820
716.8644, 35.96992
717.3466, 33.76089
717.8287, 31.79647
718.3108, 30.34492
718.7929, 29.68575
719.2750, 29.02835
719.7571, 28.35845
720.2393, 27.67747
720.7214, 26.90992
721.2035, 26.15260
721.6856, 25.58867
722.1677, 25.29665
722.6498, 25.11623
723.1320, 24.93552
723.6141, 24.76382
724.0962, 24.64423
724.5783, 24.57093
725.0604, 24.43132
725.5425, 24.14507
726.0247, 23.81501
726.5068, 23.65690
726.9889, 23.74016
727.4710, 23.78507
727.9531, 23.73615
728.4352, 23.71301
728.9174, 23.81754
729.3995, 23.94103
729.8816, 23.90124
730.3637, 23.66772
730.8458, 23.49505
731.3279, 23.63909
731.8101, 23.91684
732.2922, 24.05269
732.7743, 24.04615
733.2564, 23.90025
733.7385, 23.58972
734.2206, 23.33496
734.7028, 23.46798
735.1849, 24.03814
735.6670, 24.24584
736.1491, 23.66390
736.6312, 23.26288
737.1133, 23.27072
737.5955, 23.46523
738.0776, 23.67016
738.5597, 23.87017
739.0418, 24.11906
739.5239, 24.46204
740.0060, 24.84988
740.4882, 25.27148
740.9703, 25.69281
741.4524, 25.95316
741.9345, 26.02050
742.4166, 26.16617
742.8987, 26.65271
743.3809, 27.37335
743.8630, 27.78195
744.3451, 27.64196
744.8272, 27.61788
745.3093, 27.94510
745.7914, 28.19525
746.2736, 28.14180
746.7557, 27.83981
747.2378, 27.40378
747.7199, 26.84070
748.2020, 26.27583
748.6841, 25.75472
749.1663, 25.31308
749.6484, 25.06825
750.1305, 24.99354
750.6126, 24.85762
751.0947, 24.53207
751.5768, 24.15155
752.0590, 23.96436
752.5411, 24.01501
753.0232, 24.05158
753.5053, 24.10749
753.9874, 24.10192
754.4695, 23.94626
754.9517, 23.75960
755.4338, 23.63612
755.9159, 23.59362
756.3980, 23.70285
756.8801, 24.20467
757.3622, 24.69829
757.8444, 24.68818
758.3265, 24.37747
758.8086, 24.27897
759.2907, 24.51777
759.7728, 24.83173
760.2549, 24.96019
760.7371, 24.94519
761.2192, 25.06519
761.7013, 25.41845
762.1834, 25.63559
762.6655, 25.46202
763.1476, 25.33571
763.6298, 25.57259
764.1119, 26.08295
764.5940, 26.62720
765.0761, 27.21080
765.5582, 27.70987
766.0403, 27.97477
766.5225, 28.18269
767.0046, 28.54160
767.4867, 29.04009
767.9688, 29.53538
768.4509, 29.95376
768.9330, 30.39682
769.4152, 31.04590
769.8973, 31.91203
770.3794, 32.74547
770.8615, 33.44311
771.3436, 34.38247
771.8257, 35.89807
772.3079, 37.61657
772.7900, 38.90705
773.2721, 39.70992
773.7542, 40.83213
774.2363, 42.67060
774.7184, 44.56566
775.2006, 46.16206
775.6827, 47.62207
776.1648, 49.24120
776.6469, 51.01728
777.1290, 52.64133
777.6111, 53.85144
778.0933, 54.76686
778.5754, 55.71761
779.0575, 56.68983
779.5396, 57.22709
780.0217, 57.23234
780.5038, 56.82095
780.9860, 56.04493
781.4681, 54.93350
781.9502, 53.59367
782.4323, 52.03003
782.9144, 50.22789
783.3965, 47.94724
783.8787, 45.67400
784.3608, 43.69796
784.8429, 41.91203
785.3250, 40.08308
785.8071, 38.13576
786.2892, 36.26909
786.7714, 34.60963
787.2535, 33.16644
787.7356, 31.98186
788.2177, 31.03879
788.6998, 30.20804
789.1819, 29.44471
789.6641, 28.76440
790.1462, 28.20101
790.6283, 27.75382
791.1104, 27.24711
791.5925, 26.65824
792.0746, 26.05150
792.5568, 25.31073
793.0389, 24.66403
793.5210, 24.33666
794.0031, 24.24722
794.4852, 24.11207
794.9673, 23.83451
795.4495, 23.51710
795.9316, 23.18832
796.4137, 22.87872
796.8958, 22.62828
797.3779, 22.43622
797.8600, 22.27895
798.3422, 22.14442
798.8243, 22.03471
799.3064, 21.92271
799.7885, 21.80162
800.2706, 21.93979
800.7527, 22.50754
801.2349, 22.79720
801.7170, 22.36770
802.1991, 21.66493
802.6812, 21.29968
803.1633, 21.26996
803.6454, 21.23574
804.1276, 21.12585
804.6097, 21.05702
805.0918, 21.09928
805.5739, 21.18625
806.0560, 21.27368
806.5381, 21.33898
807.0203, 21.34505
807.5024, 21.26238
807.9845, 21.13482
808.4666, 20.99615
808.9487, 20.86250
809.4308, 20.81165
809.9130, 20.85349
810.3951, 20.89025
810.8772, 20.85127
811.3593, 20.81032
811.8414, 20.93866
812.3235, 21.33243
812.8057, 21.53360
813.2878, 21.35136
813.7699, 21.21278
814.2520, 21.30909
814.7341, 21.45188
815.2162, 21.42128
815.6984, 21.21872
816.1805, 21.06377
816.6626, 21.07229
817.1447, 21.13185
817.6268, 21.19079
818.1089, 21.23281
818.5911, 21.21941
819.0732, 21.15594
819.5553, 21.09637
820.0374, 21.07641
820.5195, 21.07782
821.0016, 21.02888
821.4838, 20.92345
821.9659, 21.02947
822.4480, 21.44677
822.9301, 21.81059
823.4122, 21.95181
823.8943, 21.91828
824.3765, 21.76263
824.8586, 21.44629
825.3407, 21.21111
825.8228, 21.01331
826.3049, 20.96147
826.7870, 21.27852
827.2692, 21.63648
827.7513, 21.56030
828.2334, 21.13513
828.7155, 21.02427
829.1976, 21.80000
829.6797, 22.63442
830.1619, 22.44748
830.6440, 21.63343
831.1261, 21.11126
831.6082, 20.98490
832.0903, 20.98706
832.5724, 20.97103
833.0546, 20.95249
833.5367, 20.97760
834.0188, 21.06863
834.5009, 21.03549
834.9830, 20.80038
835.4651, 20.59702
835.9473, 20.50538
836.4294, 20.49133
836.9115, 20.54352
837.3936, 20.65543
837.8757, 20.70173
838.3578, 20.56631
838.8400, 20.48340
839.3221, 20.63667
839.8042, 20.81417
840.2863, 20.75982
840.7684, 20.52720
841.2505, 20.38114
841.7327, 20.46685
842.2148, 20.55674
842.6969, 20.26639
843.1790, 19.78237
843.6611, 19.69465
844.1432, 20.00746
844.6254, 20.26706
845.1075, 20.27961
845.5896, 20.18293
846.0717, 20.15276
846.5538, 20.18919
847.0359, 20.26705
847.5181, 20.46540
848.0002, 20.54695
848.4823, 20.36307
848.9644, 20.14248
849.4465, 20.02788
849.9286, 20.00342
850.4108, 20.02439
850.8929, 20.13816
851.3750, 20.17231
851.8571, 19.98362
852.3392, 19.76404
852.8214, 19.67449
853.3035, 19.67791
853.7856, 19.68039
854.2677, 19.65046
854.7498, 19.60783
855.2319, 19.55813
855.7141, 19.51585
856.1962, 19.50692
856.6783, 19.53333
857.1604, 19.62126
857.6425, 19.78027
858.1246, 19.95954
858.6068, 20.13564
859.0889, 20.27452
859.5710, 20.23254
860.0531, 19.91838
860.5352, 19.66425
861.0173, 19.51516
861.4995, 19.38409
861.9816, 19.23821
862.4637, 19.08360
862.9458, 18.88574
863.4279, 18.63103
863.9100, 18.56205
864.3922, 18.94373
864.8743, 19.29362
865.3564, 19.32525
865.8385, 19.20164
866.3206, 19.09119
866.8027, 19.03043
867.2849, 19.02252
867.7670, 19.08533
868.2491, 19.13828
868.7312, 19.04552
869.2133, 18.86344
869.6954, 18.76856
870.1776, 18.76602
870.6597, 18.72162
871.1418, 18.56804
871.6239, 18.39987
872.1060, 18.34318
872.5881, 18.39812
873.0703, 18.55216
873.5524, 18.88823
874.0345, 19.11223
874.5166, 19.15541
874.9987, 19.07380
875.4808, 18.81502
875.9630, 18.46633
876.4451, 18.29724
876.9272, 18.38496
877.4093, 18.51974
877.8914, 18.77353
878.3735, 18.94669
878.8557, 18.82288
879.3378, 18.57845
879.8199, 18.52264
880.3020, 18.70274
880.7841, 18.84591
881.2662, 18.66474
881.7484, 18.44542
882.2305, 18.63347
882.7126, 19.04265
883.1947, 19.21144
883.6768, 19.08538
884.1589, 18.89827
884.6411, 18.79423
885.1232, 18.75653
885.6053, 18.76718
886.0874, 18.82819
886.5695, 18.86267
887.0516, 18.87455
887.5338, 18.82442
888.0159, 18.65368
888.4980, 18.48644
888.9801, 18.48871
889.4622, 18.66000
889.9443, 18.76752
890.4265, 18.71505
890.9086, 18.73807
891.3907, 18.97930
891.8728, 19.18427
892.3549, 19.13978
892.8370, 18.95992
893.3192, 18.89066
893.8013, 19.00060
894.2834, 19.08805
894.7655, 18.96586
895.2476, 18.86506
895.7297, 19.05797
896.2119, 19.37768
896.6940, 19.51833
897.1761, 19.44216
897.6582, 19.33962
898.1403, 19.34569
898.6224, 19.38806
899.1046, 19.28046
899.5867, 19.09697
900.0688, 19.24062
900.5509, 19.73704
901.0330, 20.07595
901.5151, 19.98905
901.9973, 19.79328
902.4794, 19.99305
902.9615, 19.99640
903.4436, 20.02111
903.9257, 20.44385
904.4078, 20.35065
904.8900, 20.91922
905.3721, 21.56803
905.8542, 21.83316
906.3363, 21.82782
906.8184, 21.90300
907.3005, 22.12885
907.7827, 22.27467
908.2648, 22.19918
908.7469, 22.16452
909.2290, 22.24279
909.7111, 22.46643
910.1932, 22.96324
910.6754, 23.68074
911.1575, 24.23120
911.6396, 24.24862
912.1217, 24.29791
912.6038, 24.92993
913.0859, 25.82349
913.5681, 26.55370
914.0502, 27.10183
914.5323, 27.58207
915.0144, 28.04812
915.4965, 28.59519
915.9786, 29.37135
916.4607, 30.13544
916.9428, 31.20707
917.4249, 32.04789
917.9070, 33.04092
918.3892, 34.23117
918.8713, 35.64282
919.3534, 37.32893
919.8355, 39.17977
920.3176, 40.77660
920.7997, 41.93653
921.2819, 43.61718
921.7640, 46.12463
922.2461, 48.56565
922.7282, 50.38334
923.2103, 52.12391
923.6924, 54.42270
924.1746, 57.25967
924.6567, 60.38403
925.1388, 64.09359
925.6209, 67.65031
926.1030, 70.61883
926.5851, 73.67616
927.0673, 77.22872
927.5494, 81.19851
928.0315, 85.48315
928.5136, 90.04220
928.9957, 94.54423
929.4778, 98.91778
929.9600, 103.0495
930.4421, 107.0539
930.9242, 110.7022
931.4063, 113.6679
931.8884, 115.9407
932.3705, 117.7587
932.8527, 119.3186
933.3348, 120.1100
933.8169, 119.3585
934.2990, 117.3484
934.7811, 114.7330
935.2632, 111.5875
935.7454, 108.1047
936.2275, 104.3469
936.7096, 100.3978
937.1917, 96.32392
937.6738, 92.15364
938.1559, 87.93679
938.6381, 83.68904
939.1202, 79.40649
939.6023, 75.01055
940.0844, 70.89821
940.5665, 67.29168
941.0486, 64.05534
941.5308, 61.00589
942.0129, 58.13076
942.4950, 55.46669
942.9771, 53.09641
943.4592, 50.79729
943.9413, 48.45510
944.4235, 46.25331
944.9056, 44.29657
945.3877, 42.55573
945.8698, 40.98437
946.3519, 39.60492
946.8340, 38.29506
947.3162, 36.97987
947.7983, 35.77836
948.2804, 34.79177
948.7625, 33.93425
949.2446, 33.14098
949.7267, 32.37519
950.2089, 31.56923
950.6910, 30.68955
951.1731, 29.77011
951.6552, 28.72563
952.1373, 27.73693
952.6194, 27.05730
953.1016, 26.62527
953.5837, 26.29800
954.0658, 26.00969
954.5479, 25.62868
955.0300, 24.98530
955.5121, 24.30137
955.9943, 24.06781
956.4764, 24.15405
956.9585, 24.03328
957.4406, 23.65751
957.9227, 23.21259
958.4048, 22.77617
958.8870, 22.39792
959.3691, 22.15984
959.8512, 22.03955
960.3333, 21.84435
960.8154, 21.55802
961.2975, 21.32032
961.7797, 21.15608
962.2618, 21.05267
962.7439, 21.02873
963.2260, 21.03105
963.7081, 20.94526
964.1902, 20.75927
964.6724, 20.54593
965.1545, 20.26665
965.6366, 20.02584
966.1187, 19.87215
966.6008, 19.74224
967.0829, 19.61279
967.5651, 19.46659
968.0472, 19.23170
968.5293, 18.80573
969.0114, 18.55193
969.4935, 18.65604
969.9756, 18.77985
970.4578, 18.81562
970.9399, 18.76478
971.4220, 18.56081
971.9041, 18.26441
972.3862, 18.15406
972.8683, 18.45361
973.3505, 18.66195
973.8326, 18.38170
974.3147, 18.02625
974.7968, 18.02519
975.2789, 18.20053
975.7610, 18.17756
976.2432, 17.89598
976.7253, 17.59183
977.2074, 17.38330
977.6895, 17.28210
978.1716, 17.36167
978.6537, 17.52670
979.1359, 17.63521
979.6180, 17.67180
980.1001, 17.64556
980.5822, 17.56209
981.0643, 17.43929
981.5464, 17.28032
982.0286, 17.11168
982.5107, 16.98606
982.9928, 16.90748
983.4749, 16.92225
983.9570, 17.02815
984.4391, 17.08391
984.9213, 17.01022
985.4034, 16.90616
985.8855, 16.93032
986.3676, 17.05908
986.8497, 17.08219
987.3318, 16.99288
987.8140, 16.85880
988.2961, 16.67089
988.7782, 16.54980
989.2603, 16.59373
989.7424, 16.72068
990.2245, 16.76062
990.7067, 16.70350
991.1888, 16.64269
991.6709, 16.59089
992.1530, 16.49532
992.6351, 16.28170
993.1172, 16.11437
993.5994, 16.15236
994.0815, 16.32492
994.5636, 16.41111
995.0457, 16.36433
995.5278, 16.36242
996.0099, 16.45703
996.4921, 16.52858
996.9742, 16.54005
997.4563, 16.52230
997.9384, 16.47445
998.4205, 16.41850
998.9026, 16.44211
999.3848, 16.64042
999.8669, 16.69912
1000.349, 16.40554
1000.831, 16.13702
1001.313, 16.07557
1001.795, 16.13270
1002.277, 16.23868
1002.760, 16.36388
1003.242, 16.44573
1003.724, 16.45037
1004.206, 16.44402
1004.688, 16.46566
1005.170, 16.47975
1005.652, 16.48231
1006.134, 16.44687
1006.617, 16.30388
1007.099, 16.07301
1007.581, 15.89027
1008.063, 15.80960
1008.545, 15.83006
1009.027, 16.06327
1009.509, 16.31002
1009.991, 16.27078
1010.473, 16.07076
1010.956, 16.04396
1011.438, 16.23890
1011.920, 16.37801
1012.402, 16.24837
1012.884, 16.29739
1013.366, 16.00425
1013.848, 16.03929
1014.330, 15.82812
1014.813, 15.47983
1015.295, 15.52043
1015.777, 16.06457
1016.259, 16.51978
1016.741, 16.33985
1017.223, 15.84347
1017.705, 15.55967
1018.187, 15.46652
1018.669, 15.54787
1019.152, 15.76980
1019.634, 15.94839
1020.116, 16.01353
1020.598, 15.92168
1021.080, 15.58838
1021.562, 15.13495
1022.044, 14.92984
1022.526, 14.94874
1023.008, 14.93859
1023.491, 14.87464
1023.973, 14.82686
1024.455, 14.81782
1024.937, 14.91248
1025.419, 15.23034
1025.901, 15.67249
1026.383, 15.74053
1026.865, 15.40384
1027.348, 15.15203
1027.830, 15.03150
1028.312, 15.01698
1028.794, 15.12516
1029.276, 15.23706
1029.758, 15.18385
1030.240, 15.00134
1030.722, 15.00914
1031.204, 15.29435
1031.687, 15.35917
1032.169, 15.08903
1032.651, 14.79087
1033.133, 14.59450
1033.615, 14.46286
1034.097, 14.35115
1034.579, 14.26000
1035.061, 14.20033
1035.544, 14.15924
1036.026, 14.18192
1036.508, 14.25963
1036.990, 14.43438
1037.472, 14.82633
1037.954, 15.21925
1038.436, 15.30421
1038.918, 15.09305
1039.401, 14.93720
1039.883, 14.90132
1040.365, 14.79884
1040.847, 14.51962
1041.329, 14.30414
1041.811, 14.25888
1042.293, 14.33308
1042.775, 14.53914
1043.257, 14.86674
1043.740, 14.92271
1044.222, 14.38139
1044.704, 14.07245
1045.186, 14.25169
1045.668, 14.42106
1046.150, 14.32144
1046.632, 14.12083
1047.114, 14.02340
1047.596, 14.02798
1048.079, 14.02178
1048.561, 13.89344
1049.043, 13.90879
1049.525, 14.35993
1050.007, 14.66142
1050.489, 14.35837
1050.971, 13.86720
1051.453, 13.69952
1051.936, 13.85032
1052.418, 13.98845
1052.900, 14.07997
1053.382, 14.12208
1053.864, 14.12877
1054.346, 14.07021
1054.828, 13.86145
1055.310, 13.62532
1055.792, 13.51055
1056.275, 13.51300
1056.757, 13.52670
1057.239, 13.49721
1057.721, 13.54241
1058.203, 13.81141
1058.685, 14.03018
1059.167, 14.04772
1059.649, 13.93109
1060.131, 13.72171
1060.614, 13.45615
1061.096, 13.23816
1061.578, 13.08970
1062.060, 13.00809
1062.542, 13.02950
1063.024, 13.07597
1063.506, 13.13908
1063.988, 13.17774
1064.471, 13.08858
1064.953, 12.93092
1065.435, 12.96730
1065.917, 13.37804
1066.399, 13.58775
1066.881, 13.09072
1067.363, 12.65044
1067.845, 12.82043
1068.328, 13.20126
1068.810, 13.36090
1069.292, 13.31056
1069.774, 13.25915
1070.256, 13.26780
1070.738, 13.25401
1071.220, 13.18283
1071.702, 13.07877
1072.184, 12.91139
1072.667, 12.75368
1073.149, 12.67696
1073.631, 12.67718
1074.113, 12.68720
1074.595, 12.67128
1075.077, 12.88460
1075.559, 13.79382
1076.041, 14.53507
1076.523, 14.58601
1077.006, 14.27032
1077.488, 13.76555
1077.970, 13.20325
1078.452, 12.75695
1078.934, 12.46797
1079.416, 12.30791
1079.898, 12.31172
1080.380, 12.37999
1080.862, 12.52669
1081.345, 12.65555
1081.827, 12.67568
1082.309, 12.61474
1082.791, 12.49994
1083.273, 12.34987
1083.755, 12.30281
1084.237, 12.51689
1084.719, 12.70513
1085.202, 12.75592
1085.684, 12.70217
1086.166, 12.47380
1086.648, 12.20901
1087.130, 12.15573
1087.612, 12.31062
1088.094, 12.35746
1088.576, 12.07957
1089.058, 11.87434
1089.541, 12.03787
1090.023, 12.20215
1090.505, 12.03697
1090.987, 11.75924
1091.469, 11.69108
1091.951, 11.81798
1092.433, 11.86992
1092.915, 11.70863
1093.397, 11.63105
1093.880, 11.84476
1094.362, 12.07023
1094.844, 12.10349
1095.326, 12.09058
1095.808, 12.25898
1096.290, 12.52828
1096.772, 12.58686
1097.254, 12.31061
1097.737, 12.07369
1098.219, 11.99095
1098.701, 11.98919
1099.183, 12.10771
1099.665, 12.22906
1100.147, 12.24364
1100.629, 12.18140
1101.111, 12.12127
1101.594, 12.07610
1102.076, 12.03323
1102.558, 12.01689
1103.040, 11.96424
1103.522, 11.81195
1104.004, 11.65939
1104.486, 11.58512
1104.968, 11.55371
1105.450, 11.46708
1105.932, 11.32424
1106.415, 11.34911
1106.897, 11.77214
1107.379, 12.08475
1107.861, 12.14841
1108.343, 12.12593
1108.825, 12.10569
1109.307, 12.04313
1109.789, 11.84507
1110.272, 11.53633
1110.754, 11.29299
1111.236, 11.06603
1111.718, 11.03802
1112.200, 11.44585
1112.682, 11.77197
1113.164, 11.79333
1113.646, 11.69716
1114.129, 11.61834
1114.611, 11.56415
1115.093, 11.56223
1115.575, 11.66507
1116.057, 11.65380
1116.539, 11.41574
1117.021, 11.23302
1117.503, 11.14110
1117.985, 11.14549
1118.468, 11.33662
1118.950, 11.57570
1119.432, 11.55631
1119.914, 11.23751
1120.396, 11.17299
1120.878, 11.54757
1121.360, 11.77461
1121.842, 11.73209
1122.324, 11.62837
1122.807, 11.52730
1123.289, 11.46500
1123.771, 11.49202
1124.253, 11.60091
1124.735, 11.74221
1125.217, 11.96461
1125.699, 12.03044
1126.181, 11.85669
1126.664, 11.77064
1127.146, 11.94121
1127.628, 12.07408
1128.110, 11.86307
1128.592, 11.45772
1129.074, 11.30683
1129.556, 11.43567
1130.038, 11.57437
1130.521, 11.73812
1131.003, 11.78205
1131.485, 11.65504
1131.967, 11.52078
1132.449, 11.47788
1132.931, 11.51830
1133.413, 11.66858
1133.895, 11.88529
1134.377, 11.82748
1134.859, 11.50502
1135.342, 11.21305
1135.824, 10.99245
1136.306, 10.89834
1136.788, 10.95624
1137.270, 11.11272
1137.752, 11.34733
1138.234, 11.56312
1138.716, 11.41878
1139.199, 11.04343
1139.681, 11.04142
1140.163, 11.38519
1140.645, 11.73382
1141.127, 11.97107
1141.609, 11.97804
1142.091, 11.64195
1142.573, 11.25311
1143.056, 11.26066
1143.538, 11.48378
1144.020, 11.60024
1144.502, 11.61255
1144.984, 11.52717
1145.466, 11.36864
1145.948, 11.19333
1146.430, 11.02769
1146.912, 10.94873
1147.395, 11.06108
1147.877, 11.25180
1148.359, 11.44848
1148.841, 11.60487
1149.323, 11.63787
1149.805, 11.58234
1150.287, 11.53282
1150.769, 11.50420
1151.251, 11.41211
1151.734, 11.14184
1152.216, 10.97912
1152.698, 11.24857
1153.180, 11.56319
1153.662, 11.58217
1154.144, 11.46273
1154.626, 11.41977
1155.108, 11.45404
1155.591, 11.47065
1156.073, 11.44628
1156.555, 11.39219
1157.037, 11.26959
1157.519, 11.17508
1158.001, 11.10790
1158.483, 11.12315
1158.965, 11.39264
1159.448, 11.71102
1159.930, 11.65440
1160.412, 11.20003
1160.894, 10.99832
1161.376, 11.47036
1161.858, 11.64454
1162.340, 11.04875
1162.822, 10.64661
1163.304, 10.94797
1163.786, 11.43967
1164.269, 11.70701
1164.751, 11.76090
1165.233, 11.60300
1165.715, 11.11496
1166.197, 10.96523
1166.679, 11.30084
1167.161, 11.56702
1167.643, 11.66113
1168.126, 11.64526
1168.608, 11.53938
1169.090, 11.37703
1169.572, 11.18946
1170.054, 10.99480
1170.536, 10.95303
1171.018, 11.07112
1171.500, 11.18628
1171.983, 11.28597
1172.465, 11.37165
1172.947, 11.44693
1173.429, 11.41619
1173.911, 11.17529
1174.393, 10.88793
1174.875, 10.86700
1175.357, 11.06410
1175.839, 11.37921
1176.322, 11.74073
1176.804, 11.82936
1177.286, 11.63445
1177.768, 11.42604
1178.250, 11.32812
1178.732, 11.26797
1179.214, 11.16237
1179.696, 11.07469
1180.178, 11.10211
1180.661, 11.19478
1181.143, 11.31243
1181.625, 11.41730
1182.107, 11.43444
1182.589, 11.36151
1183.071, 11.25815
1183.553, 11.12479
1184.035, 11.08042
1184.518, 11.25991
1185.000, 11.48671
1185.482, 11.76284
1185.964, 11.91692
1186.446, 11.61873
1186.928, 11.10060
1187.410, 10.94327
1187.892, 11.25431
1188.375, 11.46004
1188.857, 11.33080
1189.339, 11.22758
1189.821, 11.27991
1190.303, 11.30961
1190.785, 11.18459
1191.267, 11.02948
1191.749, 10.97443
1192.231, 11.00360
1192.714, 11.06413
1193.196, 11.18713
1193.678, 11.20598
1194.160, 11.03601
1194.642, 11.01871
1195.124, 11.30688
1195.606, 11.48795
1196.088, 11.27638
1196.570, 10.97021
1197.053, 11.00674
1197.535, 11.29603
1198.017, 11.38732
1198.499, 11.28430
1198.981, 11.12019
1199.463, 10.91396
1199.945, 10.90609
1200.427, 11.15828
1200.910, 11.45802
1201.392, 11.66984
1201.874, 11.76492
1202.356, 11.52153
1202.838, 11.23864
1203.320, 11.81657
1203.802, 12.76664
1204.284, 12.90470
1204.766, 12.32043
1205.249, 11.73532
1205.731, 11.39412
1206.213, 11.20949
1206.695, 11.15622
1207.177, 11.16838
1207.659, 11.25532
1208.141, 11.32461
1208.623, 11.22141
1209.105, 11.10442
1209.588, 11.24770
1210.070, 11.55136
1210.552, 11.64782
1211.034, 11.43733
1211.516, 11.25713
1211.998, 11.13418
1212.480, 11.12564
1212.962, 11.43971
1213.445, 11.64442
1213.927, 11.32003
1214.409, 10.93025
1214.891, 11.04863
1215.373, 11.52899
1215.855, 11.70086
1216.337, 11.47211
1216.819, 11.33177
1217.302, 11.28678
1217.784, 11.32191
1218.266, 11.46012
1218.748, 11.55269
1219.230, 11.51441
1219.712, 11.40153
1220.194, 11.26647
1220.676, 11.14513
1221.158, 11.17200
1221.641, 11.31984
1222.123, 11.47072
1222.605, 11.60216
1223.087, 11.61133
1223.569, 11.50482
1224.051, 11.49108
1224.533, 11.68826
1225.015, 11.97655
1225.497, 12.30785
1225.980, 12.59404
1226.462, 12.66501
1226.944, 12.67968
1227.426, 12.81005
1227.908, 13.07113
1228.390, 13.52423
1228.872, 14.11707
1229.354, 14.51507
1229.837, 14.55911
1230.319, 14.53537
1230.801, 14.54546
1231.283, 14.50179
1231.765, 14.33243
1232.247, 14.12947
1232.729, 13.96064
1233.211, 13.80994
1233.693, 13.64759
1234.176, 13.47339
1234.658, 13.26251
1235.140, 12.92349
1235.622, 12.83574
1236.104, 13.06106
1236.586, 13.40234
1237.068, 13.84481
1237.550, 14.17350
1238.032, 14.20196
1238.515, 14.15251
1238.997, 14.43896
1239.479, 14.47906
1239.961, 15.06441
1240.443, 14.94607
1240.925, 15.19821
1241.407, 15.79897
1241.889, 16.38301
1242.372, 16.83479
1242.854, 17.22207
1243.336, 17.61609
1243.818, 17.77947
1244.300, 17.29409
1244.782, 16.67844
1245.264, 16.48095
1245.746, 16.41442
1246.229, 16.10684
1246.711, 15.64829
1247.193, 15.28255
1247.675, 15.04700
1248.157, 14.84074
1248.639, 14.69932
1249.121, 14.46313
1249.603, 13.92876
1250.085, 13.54184
1250.568, 13.54320
1251.050, 13.60913
1251.532, 13.54322
1252.014, 13.39432
1252.496, 13.25174
1252.978, 13.10536
1253.460, 12.79247
1253.942, 12.27041
1254.424, 12.07883
1254.907, 12.26082
1255.389, 12.48610
1255.871, 12.66110
1256.353, 12.74264
1256.835, 12.69731
1257.317, 12.61484
1257.799, 12.63877
1258.281, 12.67399
1258.764, 12.45004
1259.246, 12.17170
1259.728, 12.29616
1260.210, 12.65323
1260.692, 12.77505
1261.174, 12.61140
1261.656, 12.44819
1262.138, 12.41009
1262.620, 12.31405
1263.103, 11.92366
1263.585, 11.66250
1264.067, 11.84890
1264.549, 12.09227
1265.031, 12.06836
1265.513, 11.96607
1265.995, 12.06175
1266.477, 12.32883
1266.959, 12.65970
1267.442, 12.55662
1267.924, 13.16970
1268.406, 12.44636
1268.888, 11.96981
1269.370, 11.94048
1269.852, 12.01487
1270.334, 12.03208
1270.816, 11.97768
1271.299, 11.80151
1271.781, 11.64111
1272.263, 11.87860
1272.745, 12.30347
1273.227, 12.37889
1273.709, 12.21125
1274.191, 12.08872
1274.673, 12.04701
1275.156, 12.01900
1275.638, 11.97970
1276.120, 11.90725
1276.602, 11.74378
1277.084, 11.62504
1277.566, 11.63971
1278.048, 11.69418
1278.530, 11.75945
1279.012, 11.81388
1279.495, 11.86406
1279.977, 11.87721
1280.459, 11.74176
1280.941, 11.82784
1281.423, 11.84328
1281.905, 11.79809
1282.387, 11.93923
1282.869, 11.75034
1283.351, 11.69531
1283.834, 11.92607
1284.316, 12.16591
1284.798, 12.23084
1285.280, 12.17451
1285.762, 12.06306
1286.244, 11.90167
##END=



