##NAMES=Churchite-(Y)
##RRUFFID=R060424
##IDEAL CHEMISTRY=YPO_4_&#183;2H_2_O
##LOCALITY=Indian Mountain, Cherokee County, Alabama, USA
##OWNER=RRUFF
##SOURCE=Michael Scott
##DESCRIPTION=Spray of colorless acicular crystals
##STATUS=The identification of this mineral is confirmed by single-crystal X-ray diffraction and chemical analysis.
##URL=rruff.info/R060424
##MEASURED CHEMISTRY=(Y_0.93_Dy_0.03_Er_0.02_Gd_0.02_Yb_0.01_Ho_0.01_Tm_0.01_Ca_0.01_Fe_0.01_)_Σ=1.05_(P_0.94_Al_0.01_)_Σ=0.95_O_4_·0.57H_2_O
176.4222, 133.3617
176.9043, 133.7628
177.3864, 133.8275
177.8685, 133.8221
178.3506, 134.1189
178.8328, 134.8122
179.3149, 135.4761
179.7970, 135.9925
180.2791, 136.4054
180.7612, 136.6712
181.2433, 136.7341
181.7255, 136.8031
182.2076, 137.3228
182.6897, 138.3805
183.1718, 139.7950
183.6539, 141.8224
184.1360, 143.9978
184.6181, 145.7295
185.1003, 146.6987
185.5824, 147.2492
186.0645, 148.6493
186.5466, 152.6536
187.0287, 155.3210
187.5108, 155.4026
187.9930, 154.0770
188.4751, 152.8297
188.9572, 152.5065
189.4393, 152.8882
189.9214, 152.7495
190.4035, 151.7937
190.8857, 150.6529
191.3678, 149.4958
191.8499, 148.2304
192.3320, 146.6164
192.8141, 144.4558
193.2962, 141.8642
193.7784, 139.7269
194.2605, 138.2675
194.7426, 136.8996
195.2247, 135.1957
195.7068, 133.3750
196.1889, 132.1185
196.6711, 131.9756
197.1532, 132.7008
197.6353, 132.9191
198.1174, 132.0709
198.5995, 131.2795
199.0816, 131.2667
199.5638, 131.9323
200.0459, 132.5772
200.5280, 132.7084
201.0101, 132.5568
201.4922, 132.7930
201.9743, 133.6500
202.4565, 134.6911
202.9386, 135.4702
203.4207, 135.9754
203.9028, 136.7407
204.3849, 138.5519
204.8670, 140.6218
205.3492, 141.7250
205.8313, 141.2395
206.3134, 140.2330
206.7955, 140.1991
207.2776, 141.4417
207.7597, 142.2367
208.2419, 141.5326
208.7240, 140.0713
209.2061, 138.5259
209.6882, 137.1884
210.1703, 135.6967
210.6524, 133.2204
211.1346, 129.1998
211.6167, 125.6920
212.0988, 123.7036
212.5809, 122.3396
213.0630, 120.6997
213.5451, 118.3938
214.0273, 115.8126
214.5094, 113.8848
214.9915, 112.9981
215.4736, 112.1008
215.9557, 110.9007
216.4378, 109.6186
216.9200, 108.4383
217.4021, 107.4451
217.8842, 106.6368
218.3663, 106.0091
218.8484, 105.4542
219.3305, 105.2967
219.8127, 105.8711
220.2948, 106.7031
220.7769, 107.2345
221.2590, 107.2104
221.7411, 106.8991
222.2232, 107.1042
222.7054, 108.6954
223.1875, 109.7690
223.6696, 109.8810
224.1517, 109.5411
224.6338, 109.1815
225.1159, 108.9867
225.5980, 109.1377
226.0802, 110.1889
226.5623, 113.7852
227.0444, 116.3217
227.5265, 116.6937
228.0086, 116.0990
228.4907, 116.0785
228.9729, 117.2942
229.4550, 119.2840
229.9371, 120.8594
230.4192, 121.8898
230.9013, 122.7514
231.3834, 123.2147
231.8656, 123.6007
232.3477, 124.4802
232.8298, 126.1310
233.3119, 128.1248
233.7940, 129.4614
234.2761, 129.8205
234.7583, 130.4542
235.2404, 131.9966
235.7225, 133.9662
236.2046, 135.4997
236.6867, 136.2655
237.1688, 136.6306
237.6510, 137.1187
238.1331, 137.6110
238.6152, 138.5959
239.0973, 140.7559
239.5794, 143.4991
240.0615, 145.4583
240.5437, 146.0925
241.0258, 146.2227
241.5079, 146.8676
241.9900, 147.9892
242.4721, 149.3940
242.9542, 151.3658
243.4364, 153.5681
243.9185, 155.0602
244.4006, 155.4491
244.8827, 155.4639
245.3648, 156.0294
245.8469, 157.0401
246.3290, 157.5452
246.8112, 156.6748
247.2933, 154.9048
247.7754, 153.7412
248.2575, 153.6769
248.7396, 153.7323
249.2217, 153.2543
249.7039, 152.2996
250.1860, 150.9990
250.6681, 149.3504
251.1502, 147.4023
251.6323, 145.2259
252.1144, 142.5469
252.5966, 140.1339
253.0787, 138.5395
253.5608, 137.5177
254.0429, 136.5087
254.5250, 135.2617
255.0071, 133.7925
255.4893, 132.0422
255.9714, 129.5415
256.4535, 127.5743
256.9356, 126.7973
257.4177, 126.8208
257.8998, 127.0267
258.3820, 127.1163
258.8641, 127.1307
259.3462, 127.2379
259.8283, 127.5818
260.3104, 127.7692
260.7925, 127.7530
261.2747, 127.5152
261.7568, 126.9473
262.2389, 125.8933
262.7210, 124.6582
263.2031, 124.2536
263.6852, 125.6093
264.1674, 126.1694
264.6495, 124.9178
265.1316, 122.8732
265.6137, 121.1196
266.0958, 120.1338
266.5779, 119.5907
267.0601, 118.7127
267.5422, 117.2621
268.0243, 115.8988
268.5064, 114.8675
268.9885, 113.8769
269.4706, 112.6335
269.9528, 111.0403
270.4349, 109.2939
270.9170, 107.7266
271.3991, 106.2267
271.8812, 105.1971
272.3633, 105.0337
272.8455, 105.0299
273.3276, 104.6864
273.8097, 103.8695
274.2918, 102.7324
274.7739, 101.3969
275.2560, 99.35618
275.7382, 98.26662
276.2202, 98.78016
276.7024, 99.54424
277.1845, 99.71192
277.6666, 99.17195
278.1487, 98.34084
278.6308, 97.67396
279.1129, 97.10573
279.5951, 96.97179
280.0772, 97.77728
280.5593, 98.50510
281.0414, 98.57539
281.5235, 98.02026
282.0056, 97.22771
282.4878, 96.52803
282.9699, 95.88306
283.4520, 95.61987
283.9341, 96.08514
284.4162, 96.53703
284.8983, 96.68886
285.3805, 96.57150
285.8626, 96.30505
286.3447, 95.93290
286.8268, 95.46617
287.3089, 95.54508
287.7910, 96.81614
288.2732, 97.89409
288.7553, 98.33094
289.2374, 98.28517
289.7195, 98.03416
290.2016, 97.71120
290.6837, 97.38929
291.1659, 97.49891
291.6480, 98.59938
292.1301, 99.47242
292.6122, 99.82839
293.0943, 99.86060
293.5764, 99.81686
294.0586, 99.80643
294.5407, 99.83951
295.0228, 99.94476
295.5049, 100.2666
295.9870, 100.4839
296.4691, 100.5477
296.9513, 100.5180
297.4334, 100.4771
297.9155, 100.4487
298.3976, 100.3635
298.8797, 100.1094
299.3618, 99.68156
299.8440, 99.04102
300.3261, 97.69187
300.8082, 96.44604
301.2903, 96.11317
301.7724, 96.78029
302.2545, 97.74023
302.7367, 98.18860
303.2188, 98.01143
303.7009, 97.63177
304.1830, 97.02489
304.6651, 96.25744
305.1472, 95.16939
305.6294, 93.87716
306.1115, 92.87230
306.5936, 92.64357
307.0757, 93.25298
307.5578, 93.40499
308.0399, 92.72561
308.5221, 92.04749
309.0042, 91.71067
309.4863, 91.67178
309.9684, 91.80173
310.4505, 92.05753
310.9326, 92.38245
311.4148, 92.35177
311.8969, 91.83077
312.3790, 91.17452
312.8611, 90.16024
313.3432, 89.12029
313.8253, 88.64581
314.3075, 89.03719
314.7896, 89.95511
315.2717, 90.54467
315.7538, 90.86938
316.2359, 90.76482
316.7180, 89.78794
317.2001, 88.56162
317.6823, 87.80508
318.1644, 87.71711
318.6465, 87.92798
319.1286, 87.84785
319.6107, 87.10196
320.0928, 87.04542
320.5750, 88.45951
321.0571, 90.00396
321.5392, 90.54542
322.0213, 90.02026
322.5034, 89.22675
322.9855, 88.94402
323.4677, 89.24283
323.9498, 89.61727
324.4319, 90.48129
324.9140, 91.03376
325.3961, 90.66116
325.8782, 89.58868
326.3604, 88.52772
326.8425, 87.96801
327.3246, 87.87404
327.8067, 87.84041
328.2888, 87.82278
328.7709, 87.90588
329.2531, 88.07534
329.7352, 88.36784
330.2173, 88.91581
330.6994, 89.80165
331.1815, 90.81913
331.6636, 91.41067
332.1458, 90.95668
332.6279, 90.83318
333.1100, 91.38313
333.5921, 92.13205
334.0742, 92.58955
334.5563, 92.62432
335.0385, 92.48418
335.5206, 92.51127
336.0027, 92.70444
336.4848, 93.11336
336.9669, 93.80824
337.4490, 94.63957
337.9312, 95.65858
338.4133, 96.77774
338.8954, 97.64330
339.3775, 97.82886
339.8596, 97.20576
340.3417, 97.55407
340.8239, 99.75632
341.3060, 101.8713
341.7881, 103.1600
342.2702, 103.8397
342.7523, 104.4131
343.2344, 105.1739
343.7166, 106.1082
344.1987, 107.1430
344.6808, 108.1379
345.1629, 109.4258
345.6450, 111.3465
346.1271, 113.4432
346.6093, 115.2466
347.0914, 116.5684
347.5735, 117.5105
348.0556, 118.2264
348.5377, 118.6499
349.0198, 118.9473
349.5020, 118.5171
349.9841, 118.4137
350.4662, 119.5247
350.9483, 121.8297
351.4304, 124.5802
351.9125, 127.0343
352.3947, 129.2157
352.8768, 130.9082
353.3589, 131.1055
353.8410, 131.8097
354.3231, 134.2432
354.8052, 137.7302
355.2874, 140.8156
355.7695, 142.4735
356.2516, 142.9397
356.7337, 143.6009
357.2158, 144.6814
357.6979, 145.6550
358.1800, 146.3869
358.6621, 146.9894
359.1443, 147.7042
359.6264, 148.6242
360.1085, 149.3566
360.5906, 149.0952
361.0727, 147.3891
361.5548, 145.8520
362.0370, 145.0561
362.5191, 144.1665
363.0012, 142.4756
363.4833, 140.0198
363.9654, 137.5802
364.4475, 135.8737
364.9297, 134.9154
365.4118, 134.4790
365.8939, 135.3874
366.3760, 135.9060
366.8581, 135.1068
367.3402, 133.4249
367.8224, 131.7466
368.3045, 130.5148
368.7866, 129.7115
369.2687, 129.3754
369.7508, 129.7766
370.2329, 130.0493
370.7151, 129.9888
371.1972, 129.6298
371.6793, 128.9514
372.1614, 127.9360
372.6435, 126.7148
373.1256, 125.4112
373.6078, 124.0205
374.0899, 122.6477
374.5720, 121.2398
375.0541, 119.9326
375.5362, 118.7691
376.0183, 117.7615
376.5005, 117.0078
376.9826, 116.7253
377.4647, 116.7676
377.9468, 116.5626
378.4289, 115.9760
378.9110, 115.3622
379.3932, 114.9011
379.8753, 114.5827
380.3574, 114.4395
380.8395, 114.6995
381.3216, 114.9367
381.8037, 114.5802
382.2859, 113.6203
382.7680, 112.5059
383.2501, 111.2003
383.7322, 110.0233
384.2143, 109.4536
384.6964, 109.6350
385.1786, 109.9593
385.6607, 110.2074
386.1428, 110.3380
386.6249, 110.1933
387.1070, 109.6762
387.5891, 109.0501
388.0713, 108.5588
388.5534, 108.1923
389.0355, 108.0482
389.5176, 108.3410
389.9997, 108.7448
390.4818, 109.0334
390.9640, 109.1728
391.4461, 108.9431
391.9282, 108.0205
392.4103, 106.6202
392.8924, 105.8856
393.3745, 106.4222
393.8567, 106.8986
394.3388, 106.7943
394.8209, 106.2622
395.3030, 105.6077
395.7851, 104.9429
396.2672, 104.1556
396.7494, 102.9466
397.2315, 100.7837
397.7136, 99.54096
398.1957, 100.0026
398.6778, 100.9325
399.1599, 101.3418
399.6420, 101.1329
400.1241, 100.7491
400.6063, 100.6159
401.0884, 100.7546
401.5705, 100.3704
402.0526, 98.85967
402.5347, 97.57110
403.0168, 97.07336
403.4990, 97.03902
403.9811, 96.96386
404.4632, 96.61075
404.9453, 96.00121
405.4274, 95.15495
405.9095, 93.78706
406.3917, 92.68006
406.8738, 91.84560
407.3559, 91.25970
407.8380, 91.10417
408.3201, 91.27273
408.8022, 91.24738
409.2844, 90.36341
409.7665, 88.52576
410.2486, 87.42464
410.7307, 87.62034
411.2128, 87.99966
411.6949, 88.45300
412.1771, 88.82620
412.6592, 88.92188
413.1413, 88.63870
413.6234, 88.03913
414.1055, 87.20712
414.5876, 86.04266
415.0698, 84.93794
415.5519, 83.89087
416.0340, 83.00551
416.5161, 82.40234
416.9982, 82.08118
417.4803, 81.88834
417.9625, 81.71593
418.4446, 81.56479
418.9267, 81.47513
419.4088, 81.59066
419.8909, 81.50454
420.3730, 80.74690
420.8552, 79.62537
421.3373, 78.77794
421.8194, 78.50639
422.3015, 78.50759
422.7836, 78.39561
423.2657, 78.17449
423.7479, 78.20448
424.2300, 78.96980
424.7121, 79.73830
425.1942, 79.16442
425.6763, 76.86552
426.1584, 75.21571
426.6406, 76.00182
427.1227, 77.87881
427.6048, 78.35960
428.0869, 76.94926
428.5690, 75.31749
429.0511, 75.07639
429.5333, 76.23582
430.0154, 76.78449
430.4975, 76.27512
430.9796, 75.56837
431.4617, 75.06055
431.9438, 74.73927
432.4260, 74.47382
432.9081, 74.17674
433.3902, 74.01302
433.8723, 74.41916
434.3544, 76.21108
434.8365, 77.19922
435.3187, 76.68100
435.8008, 75.75191
436.2829, 75.30341
436.7650, 75.42805
437.2471, 75.70812
437.7292, 75.76746
438.2114, 75.60221
438.6935, 75.37107
439.1756, 74.90179
439.6577, 74.55910
440.1398, 74.44563
440.6219, 74.50376
441.1040, 74.73387
441.5862, 75.13313
442.0683, 75.48406
442.5504, 75.28342
443.0325, 74.20323
443.5146, 73.58262
443.9967, 73.97733
444.4789, 74.49171
444.9610, 74.66566
445.4431, 74.53055
445.9252, 74.38051
446.4073, 74.47678
446.8894, 74.71672
447.3716, 74.59973
447.8537, 73.82883
448.3358, 73.44714
448.8179, 74.50405
449.3000, 75.93611
449.7821, 76.47644
450.2643, 75.70268
450.7464, 74.80657
451.2285, 74.91904
451.7106, 75.83924
452.1927, 76.59249
452.6748, 77.02370
453.1570, 77.16407
453.6391, 76.94643
454.1212, 76.43505
454.6033, 75.85121
455.0854, 74.80138
455.5675, 74.03043
456.0497, 74.57590
456.5318, 76.19558
457.0139, 77.33756
457.4960, 77.07165
457.9781, 75.99632
458.4602, 75.77475
458.9424, 76.77263
459.4245, 77.68983
459.9066, 78.37292
460.3887, 78.82602
460.8708, 78.89003
461.3529, 78.62063
461.8351, 78.51446
462.3172, 79.12310
462.7993, 80.48666
463.2814, 81.17495
463.7635, 80.62197
464.2456, 80.09415
464.7278, 79.85595
465.2099, 79.84827
465.6920, 79.94318
466.1741, 80.09342
466.6562, 80.37964
467.1383, 80.99704
467.6205, 82.13779
468.1026, 83.02551
468.5847, 83.70818
469.0668, 84.06015
469.5489, 83.69668
470.0310, 82.91836
470.5132, 82.49522
470.9953, 82.97999
471.4774, 84.05710
471.9595, 84.97092
472.4416, 85.73753
472.9237, 86.27648
473.4059, 86.35131
473.8880, 86.30081
474.3701, 86.36108
474.8522, 86.55012
475.3343, 87.01266
475.8164, 87.94522
476.2986, 89.20974
476.7807, 90.58157
477.2628, 92.10262
477.7449, 93.33495
478.2270, 93.85099
478.7091, 93.77217
479.1913, 93.69212
479.6734, 93.40356
480.1555, 93.38077
480.6376, 94.03239
481.1197, 95.11061
481.6018, 96.11936
482.0839, 96.90079
482.5660, 97.53188
483.0482, 98.11201
483.5303, 98.62024
484.0124, 99.14414
484.4945, 99.72177
484.9766, 100.2770
485.4587, 100.7642
485.9409, 101.1976
486.4230, 101.6382
486.9051, 102.1299
487.3872, 102.6036
487.8693, 102.8284
488.3514, 102.5542
488.8336, 102.5091
489.3157, 102.9864
489.7978, 103.4838
490.2799, 103.5305
490.7620, 103.2147
491.2441, 103.1068
491.7263, 103.8724
492.2084, 105.2130
492.6905, 105.5846
493.1726, 104.5990
493.6547, 103.5786
494.1368, 102.8980
494.6190, 102.5434
495.1011, 102.7042
495.5832, 103.5095
496.0653, 104.0615
496.5474, 103.4756
497.0295, 102.0889
497.5117, 100.9632
497.9938, 100.3173
498.4759, 99.64391
498.9580, 98.32474
499.4401, 96.56498
499.9222, 95.45422
500.4044, 96.02358
500.8865, 96.25774
501.3686, 94.63206
501.8507, 91.97900
502.3328, 90.09581
502.8149, 89.61967
503.2971, 89.63900
503.7792, 88.82729
504.2613, 86.78822
504.7434, 85.32494
505.2255, 85.08347
505.7076, 84.71803
506.1898, 83.26344
506.6719, 81.22465
507.1540, 79.74898
507.6361, 79.45655
508.1182, 79.84309
508.6003, 79.78964
509.0825, 79.27348
509.5646, 78.37244
510.0467, 76.53102
510.5288, 74.78992
511.0109, 73.76234
511.4930, 73.36062
511.9752, 73.10767
512.4573, 72.72964
512.9394, 72.28703
513.4215, 72.01723
513.9036, 72.00610
514.3857, 71.57777
514.8679, 70.05750
515.3500, 68.29079
515.8321, 67.36770
516.3142, 67.37271
516.7963, 67.63725
517.2784, 68.23260
517.7606, 68.75274
518.2427, 68.56068
518.7248, 67.62364
519.2069, 66.39593
519.6890, 65.07455
520.1711, 63.74061
520.6533, 62.86123
521.1354, 62.40433
521.6175, 62.35004
522.0996, 63.02600
522.5817, 63.91467
523.0638, 64.48332
523.5460, 64.65685
524.0281, 64.71911
524.5102, 64.96378
524.9923, 65.37784
525.4744, 65.48502
525.9565, 65.10867
526.4387, 64.63251
526.9208, 63.88663
527.4029, 63.21186
527.8850, 63.17734
528.3671, 63.87104
528.8492, 64.37927
529.3314, 63.23733
529.8135, 60.73598
530.2956, 59.97340
530.7777, 61.92633
531.2598, 63.95266
531.7419, 64.24025
532.2241, 63.54820
532.7062, 62.99063
533.1883, 62.65500
533.6704, 62.71342
534.1525, 63.65963
534.6346, 65.05139
535.1168, 65.78214
535.5989, 65.56753
536.0810, 65.03928
536.5631, 64.80447
537.0452, 64.87930
537.5273, 64.92583
538.0095, 64.83042
538.4916, 64.83523
538.9737, 65.17825
539.4558, 65.62871
539.9379, 65.82818
540.4200, 65.66718
540.9022, 65.32925
541.3843, 65.02250
541.8664, 64.69733
542.3485, 64.69032
542.8306, 65.33652
543.3127, 65.94964
543.7948, 66.38615
544.2769, 66.63023
544.7590, 66.49890
545.2411, 65.82768
545.7233, 65.45493
546.2054, 66.77837
546.6875, 69.65360
547.1696, 71.85197
547.6517, 72.94422
548.1339, 73.47746
548.6160, 73.79968
549.0981, 73.91820
549.5802, 73.79090
550.0623, 73.08836
550.5444, 72.47916
551.0266, 72.41959
551.5087, 72.77492
551.9908, 73.32941
552.4729, 74.03330
552.9550, 74.61349
553.4371, 74.67603
553.9193, 74.07652
554.4014, 73.84659
554.8835, 74.16299
555.3656, 74.59561
555.8477, 75.11702
556.3298, 75.61558
556.8120, 75.90809
557.2941, 75.93773
557.7762, 75.88111
558.2583, 75.96404
558.7404, 76.18382
559.2225, 76.57587
559.7047, 77.33194
560.1868, 78.00391
560.6689, 78.12602
561.1510, 78.09353
561.6331, 78.76556
562.1152, 80.78453
562.5974, 82.46033
563.0795, 82.01123
563.5616, 79.88622
564.0437, 77.67151
564.5258, 75.65385
565.0079, 73.65198
565.4901, 71.44825
565.9722, 69.06976
566.4543, 66.94812
566.9364, 65.09818
567.4185, 63.48526
567.9006, 62.23941
568.3828, 61.17042
568.8649, 59.93073
569.3470, 58.46846
569.8291, 57.10891
570.3112, 56.27592
570.7933, 56.00060
571.2755, 55.62998
571.7576, 54.89647
572.2397, 54.41347
572.7218, 54.59820
573.2039, 54.96394
573.6860, 54.86372
574.1682, 54.15199
574.6503, 53.47321
575.1324, 53.57463
575.6145, 54.25386
576.0966, 54.62001
576.5787, 54.60129
577.0609, 54.32524
577.5430, 53.71494
578.0251, 52.94383
578.5072, 52.45992
578.9893, 52.46621
579.4714, 52.32134
579.9536, 51.53638
580.4357, 50.59446
580.9178, 50.09986
581.3999, 50.10691
581.8820, 50.32597
582.3641, 50.57240
582.8463, 50.81435
583.3284, 50.85029
583.8105, 50.16520
584.2926, 50.04393
584.7747, 51.25747
585.2568, 52.53044
585.7390, 52.87126
586.2211, 52.28148
586.7032, 51.36001
587.1853, 50.40563
587.6674, 49.51688
588.1495, 48.94157
588.6317, 48.66646
589.1138, 48.84563
589.5959, 49.96365
590.0780, 51.14331
590.5601, 51.22669
591.0422, 50.23660
591.5244, 49.44855
592.0065, 49.50202
592.4886, 49.72562
592.9707, 49.49704
593.4528, 48.90441
593.9349, 48.30531
594.4171, 47.85041
594.8992, 47.52470
595.3813, 47.29924
595.8634, 47.16339
596.3455, 47.16960
596.8276, 47.57194
597.3098, 47.83041
597.7919, 47.48289
598.2740, 46.89695
598.7561, 46.79792
599.2382, 47.50513
599.7203, 48.32821
600.2025, 48.18895
600.6846, 47.12285
601.1667, 46.48421
601.6488, 46.47908
602.1309, 46.77277
602.6130, 47.39876
603.0952, 48.12940
603.5773, 48.44191
604.0594, 48.06195
604.5415, 47.65678
605.0236, 47.56668
605.5057, 47.66774
605.9879, 47.81754
606.4700, 47.97576
606.9521, 48.04779
607.4342, 47.93029
607.9163, 47.66518
608.3984, 47.57535
608.8806, 47.85744
609.3627, 48.04765
609.8448, 48.14021
610.3269, 48.10495
610.8090, 47.93023
611.2911, 47.60805
611.7733, 47.08025
612.2554, 46.11126
612.7375, 45.08555
613.2196, 45.02617
613.7017, 46.03131
614.1838, 47.00695
614.6660, 47.79087
615.1481, 48.21527
615.6302, 47.82843
616.1123, 46.70245
616.5944, 46.09565
617.0765, 46.75871
617.5587, 47.55153
618.0408, 47.57770
618.5229, 47.16055
619.0050, 47.13115
619.4871, 47.77114
619.9692, 48.55643
620.4514, 48.76816
620.9335, 48.32847
621.4156, 47.90704
621.8977, 47.31796
622.3798, 46.98136
622.8619, 47.17399
623.3441, 47.58855
623.8262, 47.90856
624.3083, 48.05376
624.7904, 48.05654
625.2725, 47.87419
625.7546, 47.57717
626.2367, 47.33019
626.7188, 47.13292
627.2009, 47.08825
627.6830, 47.27256
628.1652, 47.62453
628.6473, 48.04435
629.1294, 48.59768
629.6115, 49.00067
630.0936, 49.30532
630.5757, 49.36864
631.0579, 48.93607
631.5400, 48.17677
632.0221, 47.45672
632.5042, 46.95628
632.9863, 46.73935
633.4684, 47.06271
633.9506, 48.13830
634.4327, 48.66575
634.9148, 47.97123
635.3969, 47.49731
635.8790, 48.37586
636.3611, 49.82585
636.8433, 50.38338
637.3254, 49.40866
637.8075, 48.38780
638.2896, 48.77356
638.7717, 49.76068
639.2538, 49.46798
639.7360, 47.69984
640.2181, 46.37814
640.7002, 47.01192
641.1823, 49.02144
641.6644, 50.04847
642.1465, 49.25484
642.6287, 48.58045
643.1108, 48.09792
643.5929, 47.69852
644.0750, 47.29769
644.5571, 46.91376
645.0392, 46.64350
645.5214, 46.57685
646.0035, 46.53398
646.4856, 46.02488
646.9677, 45.05405
647.4498, 44.83928
647.9319, 45.93420
648.4141, 47.12464
648.8962, 47.51379
649.3783, 47.17560
649.8604, 46.34615
650.3425, 44.45147
650.8246, 42.87250
651.3068, 42.21974
651.7889, 42.14947
652.2710, 42.29919
652.7531, 42.59303
653.2352, 43.13372
653.7173, 44.07762
654.1995, 45.20494
654.6816, 45.53097
655.1637, 44.67168
655.6458, 43.92736
656.1279, 43.45949
656.6100, 43.20367
657.0922, 43.27228
657.5743, 43.54736
658.0564, 43.63057
658.5385, 43.13526
659.0206, 42.71727
659.5027, 43.33836
659.9849, 44.53561
660.4670, 44.86213
660.9491, 43.96337
661.4312, 42.82437
661.9133, 42.30021
662.3954, 42.36202
662.8776, 42.59946
663.3597, 43.64299
663.8418, 44.02343
664.3239, 42.85789
664.8060, 41.53326
665.2881, 41.35469
665.7703, 42.16918
666.2524, 42.79010
666.7345, 42.36127
667.2166, 41.47252
667.6987, 41.29177
668.1808, 41.79491
668.6630, 42.04206
669.1451, 41.72737
669.6272, 41.30541
670.1093, 41.20880
670.5914, 41.41950
671.0735, 41.61650
671.5557, 42.03719
672.0378, 42.14655
672.5199, 41.34135
673.0020, 40.38713
673.4841, 40.25610
673.9662, 40.95318
674.4484, 41.66872
674.9305, 41.76676
675.4126, 41.43494
675.8947, 41.31152
676.3768, 41.45904
676.8589, 41.51072
677.3411, 41.10009
677.8232, 40.91540
678.3053, 41.88567
678.7874, 43.58920
679.2695, 44.43528
679.7516, 43.37618
680.2338, 42.24249
680.7159, 42.31735
681.1980, 42.93530
681.6801, 42.92439
682.1622, 42.15873
682.6443, 41.52542
683.1265, 41.81263
683.6086, 42.75516
684.0907, 43.00648
684.5728, 42.09405
685.0549, 41.52367
685.5370, 41.82866
686.0192, 42.23638
686.5013, 42.34974
686.9834, 42.20049
687.4655, 41.92581
687.9476, 41.43969
688.4297, 41.09408
688.9119, 41.39450
689.3940, 42.04221
689.8761, 42.21777
690.3582, 41.79581
690.8403, 41.59902
691.3224, 42.39463
691.8046, 43.83009
692.2867, 44.20844
692.7688, 42.55780
693.2509, 41.39731
693.7330, 41.14035
694.2151, 41.08594
694.6973, 40.87648
695.1794, 40.51984
695.6615, 40.08967
696.1436, 39.55202
696.6257, 39.18003
697.1078, 39.38887
697.5900, 40.02021
698.0721, 40.52749
698.5542, 40.82764
699.0363, 41.06838
699.5184, 41.34835
700.0005, 41.64476
700.4827, 41.88018
700.9648, 42.20175
701.4469, 42.20452
701.9290, 41.62373
702.4111, 40.96681
702.8932, 40.43609
703.3754, 40.08382
703.8575, 39.97596
704.3396, 40.15194
704.8217, 40.42269
705.3038, 40.52594
705.7859, 40.51721
706.2681, 40.75568
706.7502, 41.33754
707.2323, 41.63020
707.7144, 41.09212
708.1965, 40.20029
708.6786, 40.14845
709.1607, 41.41055
709.6428, 42.07633
710.1249, 41.63500
710.6071, 40.95240
711.0892, 40.32635
711.5713, 39.86159
712.0534, 39.67298
712.5355, 39.79408
713.0176, 40.11493
713.4998, 40.62670
713.9819, 41.25694
714.4640, 41.67366
714.9461, 41.90436
715.4282, 41.64984
715.9103, 40.49364
716.3925, 39.10733
716.8746, 38.60242
717.3567, 39.07837
717.8388, 39.42406
718.3209, 39.47734
718.8030, 39.45873
719.2852, 39.44842
719.7673, 39.44017
720.2494, 39.34227
720.7315, 39.17718
721.2136, 39.22376
721.6957, 39.92397
722.1779, 40.95229
722.6600, 40.99741
723.1421, 39.92491
723.6242, 39.05044
724.1063, 38.79006
724.5884, 38.79248
725.0706, 38.71456
725.5527, 38.56490
726.0348, 38.46792
726.5169, 38.42417
726.9990, 38.44115
727.4811, 38.54909
727.9633, 38.70166
728.4454, 38.89936
728.9275, 39.10258
729.4096, 39.14876
729.8917, 38.85950
730.3738, 38.52238
730.8560, 39.00666
731.3381, 40.35832
731.8202, 40.66637
732.3023, 39.16140
732.7844, 37.71145
733.2665, 37.89778
733.7487, 39.23771
734.2308, 39.82073
734.7129, 39.18744
735.1950, 38.67033
735.6771, 38.63333
736.1592, 38.72866
736.6414, 38.73696
737.1235, 38.63834
737.6056, 38.40659
738.0877, 38.02103
738.5698, 37.72529
739.0519, 38.00415
739.5341, 38.75862
740.0162, 39.03090
740.4983, 38.67522
740.9804, 38.31486
741.4625, 38.32263
741.9446, 37.84464
742.4268, 38.12725
742.9089, 37.22838
743.3910, 36.67899
743.8731, 36.56910
744.3552, 36.80822
744.8373, 37.53680
745.3195, 38.50525
745.8016, 39.51447
746.2837, 40.44624
746.7658, 41.01371
747.2479, 40.86379
747.7300, 40.20751
748.2122, 39.58227
748.6943, 38.98732
749.1764, 38.40504
749.6585, 37.81654
750.1406, 37.25952
750.6227, 36.63794
751.1049, 35.98544
751.5870, 36.14191
752.0691, 38.06198
752.5512, 39.43400
753.0333, 39.44008
753.5154, 39.06432
753.9976, 39.20145
754.4797, 39.72768
754.9618, 39.90419
755.4439, 39.26973
755.9260, 38.43220
756.4081, 38.21557
756.8903, 38.48895
757.3724, 38.68329
757.8545, 38.71695
758.3366, 38.94777
758.8187, 39.71168
759.3008, 40.66381
759.7830, 40.91485
760.2651, 40.03291
760.7472, 39.46499
761.2293, 39.47748
761.7114, 39.48639
762.1935, 39.12611
762.6757, 38.68067
763.1578, 38.63908
763.6399, 39.08863
764.1220, 39.41010
764.6041, 38.94572
765.0862, 38.20844
765.5684, 37.96303
766.0505, 38.16208
766.5326, 38.57261
767.0147, 39.13526
767.4968, 39.62280
767.9789, 39.74469
768.4611, 39.52623
768.9432, 39.58678
769.4253, 40.44189
769.9074, 40.68169
770.3895, 39.35374
770.8716, 38.01532
771.3538, 37.82020
771.8359, 38.51173
772.3180, 39.11460
772.8001, 39.32554
773.2822, 39.36567
773.7643, 39.32201
774.2465, 39.23083
774.7286, 39.04778
775.2107, 38.84126
775.6928, 38.95671
776.1749, 39.61237
776.6570, 40.46782
777.1392, 40.85292
777.6213, 40.71032
778.1034, 40.50190
778.5855, 40.14737
779.0676, 39.89278
779.5497, 39.91590
780.0319, 40.05861
780.5140, 40.10013
780.9961, 40.02419
781.4782, 40.03520
781.9603, 40.36476
782.4424, 40.59982
782.9246, 40.34038
783.4067, 39.90628
783.8888, 39.88122
784.3709, 40.29110
784.8530, 40.52602
785.3351, 40.01966
785.8173, 39.13023
786.2994, 38.78152
786.7815, 38.97574
787.2636, 39.16955
787.7457, 39.28525
788.2278, 39.30935
788.7100, 39.15177
789.1921, 38.91080
789.6742, 38.99116
790.1563, 39.61610
790.6384, 40.13741
791.1205, 40.80383
791.6026, 41.07427
792.0847, 40.27273
792.5668, 38.99861
793.0490, 38.24353
793.5311, 38.29788
794.0132, 38.64809
794.4953, 38.90508
794.9774, 39.16511
795.4595, 39.72310
795.9417, 40.49079
796.4238, 40.88874
796.9059, 40.71561
797.3880, 40.31447
797.8701, 40.03042
798.3522, 39.86523
798.8344, 39.88013
799.3165, 40.18386
799.7986, 40.45708
800.2807, 40.89500
800.7628, 41.05981
801.2449, 40.46583
801.7271, 39.39187
802.2092, 38.57014
802.6913, 38.11929
803.1734, 38.06561
803.6555, 38.68964
804.1376, 39.53304
804.6198, 40.09205
805.1019, 40.41686
805.5840, 40.91163
806.0661, 41.73503
806.5482, 42.32520
807.0303, 41.64806
807.5125, 39.91934
807.9946, 39.34587
808.4767, 40.14652
808.9588, 40.87633
809.4409, 41.08031
809.9230, 40.98537
810.4052, 40.86159
810.8873, 40.70182
811.3694, 40.21594
811.8515, 38.65325
812.3336, 37.78823
812.8157, 38.46149
813.2979, 39.55653
813.7800, 40.42870
814.2621, 40.92305
814.7442, 40.86119
815.2263, 40.07245
815.7084, 39.21814
816.1906, 39.07857
816.6727, 39.29635
817.1548, 39.01889
817.6369, 38.28682
818.1190, 37.85667
818.6011, 38.07659
819.0833, 38.62149
819.5654, 39.03886
820.0475, 39.32446
820.5296, 39.65156
821.0117, 40.24141
821.4938, 40.41337
821.9760, 39.59055
822.4581, 38.63029
822.9402, 38.26966
823.4223, 38.40319
823.9044, 38.49947
824.3865, 38.29327
824.8687, 38.28794
825.3508, 39.04132
825.8329, 39.80999
826.3150, 39.68662
826.7971, 38.93401
827.2792, 38.45666
827.7614, 38.65532
828.2435, 39.11015
828.7256, 39.42242
829.2077, 39.56118
829.6898, 39.22517
830.1719, 38.41324
830.6541, 38.17508
831.1362, 39.05519
831.6183, 40.05740
832.1004, 39.89168
832.5825, 38.58435
833.0646, 38.04813
833.5468, 38.93847
834.0289, 39.59138
834.5110, 39.71986
834.9931, 39.64875
835.4752, 39.51439
835.9573, 39.35233
836.4395, 39.22192
836.9216, 39.15919
837.4037, 39.05884
837.8858, 38.77531
838.3679, 38.49529
838.8500, 38.33136
839.3322, 38.34849
839.8143, 38.85013
840.2964, 39.87165
840.7785, 40.61432
841.2606, 40.01698
841.7427, 38.49064
842.2249, 37.60005
842.7070, 37.35409
843.1891, 37.74800
843.6712, 39.03526
844.1533, 40.11340
844.6354, 39.91261
845.1176, 38.73293
845.5997, 38.04601
846.0818, 38.06391
846.5639, 38.26003
847.0460, 38.97528
847.5281, 39.49636
848.0103, 39.38797
848.4924, 38.91725
848.9745, 38.38898
849.4566, 37.86446
849.9387, 37.68795
850.4208, 38.39091
850.9030, 39.19826
851.3851, 39.45388
851.8672, 39.27554
852.3493, 38.77401
852.8314, 38.06716
853.3135, 37.56904
853.7957, 37.63477
854.2778, 37.99812
854.7599, 37.95503
855.2420, 37.52250
855.7241, 37.74675
856.2062, 38.95769
856.6884, 39.70625
857.1705, 39.09095
857.6526, 37.68716
858.1347, 36.43282
858.6168, 35.16813
859.0989, 34.81099
859.5811, 36.52984
860.0632, 37.62180
860.5453, 36.90239
861.0274, 35.73622
861.5095, 35.30940
861.9916, 35.59443
862.4738, 35.97184
862.9559, 36.31902
863.4380, 36.53120
863.9201, 36.53477
864.4022, 36.36980
864.8843, 35.91725
865.3665, 35.33949
865.8486, 35.14643
866.3307, 35.54315
866.8128, 36.11725
867.2949, 36.36997
867.7770, 36.36807
868.2592, 36.41459
868.7413, 36.51114
869.2234, 36.52684
869.7055, 36.41628
870.1876, 36.26524
870.6697, 36.19196
871.1519, 36.13760
871.6340, 35.73243
872.1161, 34.47788
872.5981, 33.83077
873.0803, 34.35204
873.5624, 34.96178
874.0445, 35.31194
874.5266, 35.43363
875.0087, 35.32410
875.4908, 34.96486
875.9730, 34.72503
876.4551, 34.77877
876.9372, 34.93788
877.4193, 35.18941
877.9014, 35.41927
878.3835, 35.53336
878.8657, 35.48480
879.3478, 35.11833
879.8299, 34.23611
880.3120, 33.41813
880.7941, 33.56791
881.2762, 34.43413
881.7584, 35.34858
882.2405, 36.22033
882.7226, 36.65895
883.2047, 36.46081
883.6868, 35.98125
884.1689, 35.73182
884.6511, 35.69402
885.1332, 35.20254
885.6153, 33.95419
886.0974, 33.08448
886.5795, 32.83598
887.0616, 33.00285
887.5438, 33.91920
888.0259, 35.10233
888.5080, 34.98702
888.9901, 32.67971
889.4722, 31.13879
889.9543, 31.14657
890.4365, 31.61736
890.9186, 32.29963
891.4007, 32.93080
891.8828, 33.17274
892.3649, 33.01295
892.8470, 32.78494
893.3292, 32.54195
893.8113, 32.48154
894.2934, 32.94637
894.7755, 33.66011
895.2576, 34.27103
895.7397, 34.65360
896.2219, 34.47008
896.7040, 33.52395
897.1861, 32.47737
897.6682, 32.56372
898.1503, 31.89635
898.6324, 31.39412
899.1146, 31.79887
899.5967, 30.98669
900.0788, 31.68083
900.5609, 32.75062
901.0430, 33.09935
901.5251, 32.85393
902.0073, 32.82762
902.4894, 33.31409
902.9715, 33.40685
903.4536, 32.52885
903.9357, 31.87478
904.4178, 32.16974
904.9000, 32.89626
905.3821, 33.43048
905.8642, 33.72832
906.3463, 33.66184
906.8284, 32.72104
907.3105, 31.98594
907.7927, 32.45358
908.2748, 33.01970
908.7569, 32.12180
909.2390, 30.21777
909.7211, 29.23015
910.2032, 30.14168
910.6854, 31.38851
911.1675, 31.46762
911.6496, 30.99014
912.1317, 30.88716
912.6138, 31.14144
913.0959, 31.62053
913.5781, 32.23772
914.0602, 32.47841
914.5423, 31.71257
915.0244, 30.45662
915.5065, 30.47226
915.9886, 31.77423
916.4708, 32.43836
916.9529, 32.17404
917.4350, 31.51536
917.9171, 30.57274
918.3992, 29.74131
918.8813, 29.80294
919.3635, 30.94359
919.8456, 31.54530
920.3277, 31.31280
920.8098, 31.02680
921.2919, 30.70201
921.7740, 30.51188
922.2562, 30.65961
922.7383, 31.03998
923.2204, 31.33664
923.7025, 31.48148
924.1846, 31.62304
924.6667, 31.86580
925.1489, 32.04222
925.6310, 32.03754
926.1131, 31.91009
926.5952, 31.74414
927.0773, 31.55126
927.5594, 31.27297
928.0416, 30.74793
928.5237, 30.34066
929.0058, 30.53035
929.4879, 30.97639
929.9700, 31.10059
930.4521, 30.94521
930.9343, 30.94122
931.4164, 31.26197
931.8985, 31.54727
932.3806, 31.21356
932.8627, 31.67336
933.3448, 30.84638
933.8270, 31.91766
934.3091, 32.42570
934.7912, 32.06133
935.2733, 31.34107
935.7554, 30.52866
936.2375, 29.86541
936.7197, 30.02633
937.2018, 31.21388
937.6839, 32.07760
938.1660, 32.57835
938.6481, 32.85014
939.1302, 32.85256
939.6124, 32.74766
940.0945, 32.65969
940.5766, 32.59900
941.0587, 32.66871
941.5408, 33.18688
942.0229, 33.34412
942.5051, 32.67017
942.9872, 32.10235
943.4693, 32.24615
943.9514, 32.69441
944.4335, 32.84774
944.9156, 32.64431
945.3978, 32.52622
945.8799, 32.47962
946.3620, 32.75649
946.8441, 34.00074
947.3262, 35.23759
947.8083, 35.23458
948.2905, 34.36602
948.7726, 33.82292
949.2547, 34.04410
949.7368, 34.53396
950.2189, 35.02214
950.7010, 35.43413
951.1832, 35.54712
951.6653, 35.53136
952.1474, 35.88048
952.6295, 36.61671
953.1116, 37.27435
953.5938, 37.56319
954.0759, 37.56745
954.5580, 37.22190
955.0400, 36.68254
955.5222, 36.92904
956.0043, 37.97308
956.4864, 38.87291
956.9685, 39.34238
957.4506, 39.38478
957.9327, 38.93366
958.4149, 38.14162
958.8970, 37.70676
959.3791, 37.73259
959.8612, 37.51959
960.3433, 36.78347
960.8254, 36.45489
961.3076, 37.08739
961.7897, 38.20240
962.2718, 39.25531
962.7539, 40.25236
963.2360, 40.79964
963.7181, 40.21772
964.2003, 40.23832
964.6824, 41.12330
965.1645, 42.51300
965.6466, 44.26004
966.1287, 46.37742
966.6108, 48.91419
967.0930, 51.89582
967.5751, 55.11104
968.0572, 58.03848
968.5393, 61.80040
969.0214, 66.58933
969.5035, 72.59978
969.9857, 80.62741
970.4678, 89.90148
970.9499, 98.67002
971.4320, 106.4166
971.9141, 113.2281
972.3962, 119.5050
972.8784, 124.5333
973.3605, 126.6946
973.8426, 127.6266
974.3247, 129.5290
974.8068, 132.8853
975.2889, 137.6542
975.7711, 143.9311
976.2532, 150.8900
976.7353, 157.1919
977.2174, 165.6234
977.6995, 172.5946
978.1816, 183.3285
978.6638, 193.9548
979.1459, 204.0506
979.6280, 214.7944
980.1101, 227.1375
980.5922, 240.6797
981.0743, 256.0499
981.5565, 272.0846
982.0386, 282.9659
982.5207, 288.0928
983.0028, 282.9690
983.4849, 265.4994
983.9670, 240.1221
984.4492, 210.5964
984.9313, 178.4098
985.4134, 149.9973
985.8955, 125.3711
986.3776, 104.7679
986.8597, 88.30640
987.3419, 75.39722
987.8240, 66.09627
988.3061, 59.65129
988.7882, 55.34367
989.2703, 53.17443
989.7524, 50.46325
990.2346, 46.59966
990.7167, 43.56704
991.1988, 41.97424
991.6809, 40.71603
992.1630, 39.11298
992.6451, 37.47846
993.1273, 36.42003
993.6094, 36.01785
994.0915, 35.60919
994.5736, 34.92135
995.0557, 34.59078
995.5378, 35.13375
996.0200, 35.68605
996.5021, 35.59418
996.9842, 35.11524
997.4663, 34.84119
997.9484, 34.90694
998.4305, 34.74532
998.9127, 34.07964
999.3948, 33.32954
999.8769, 32.42889
1000.359, 31.72859
1000.841, 31.80694
1001.323, 32.32573
1001.805, 32.31702
1002.287, 31.42645
1002.770, 30.60895
1003.252, 30.37972
1003.734, 30.37234
1004.216, 30.31636
1004.698, 30.31959
1005.180, 30.63642
1005.662, 31.17204
1006.144, 31.51988
1006.627, 31.48812
1007.109, 31.37310
1007.591, 31.58210
1008.073, 31.70587
1008.555, 30.98271
1009.037, 29.90576
1009.519, 29.55815
1010.001, 29.98906
1010.483, 30.33758
1010.966, 30.07986
1011.448, 29.78098
1011.930, 30.18054
1012.412, 30.97972
1012.894, 31.77239
1013.376, 32.42782
1013.858, 32.50856
1014.340, 31.98318
1014.823, 31.38973
1015.305, 31.08648
1015.787, 31.01984
1016.269, 31.14925
1016.751, 31.43737
1017.233, 31.80416
1017.715, 32.21385
1018.197, 32.40968
1018.679, 32.32402
1019.162, 32.20065
1019.644, 32.22798
1020.126, 32.38740
1020.608, 32.74952
1021.090, 33.26962
1021.572, 33.22227
1022.054, 32.55725
1022.536, 32.17550
1023.018, 32.38206
1023.501, 32.81093
1023.983, 33.17523
1024.465, 33.43408
1024.947, 33.39322
1025.429, 33.00700
1025.911, 32.89293
1026.393, 33.12215
1026.875, 33.39217
1027.358, 33.66991
1027.840, 33.69789
1028.322, 33.12558
1028.804, 32.18061
1029.286, 31.87541
1029.768, 32.43502
1030.250, 32.69276
1030.732, 32.57010
1031.214, 32.26966
1031.697, 31.76908
1032.179, 31.27325
1032.661, 30.95501
1033.143, 30.82399
1033.625, 30.96486
1034.107, 31.63936
1034.589, 31.92710
1035.071, 31.76258
1035.553, 31.27743
1036.036, 30.02973
1036.518, 29.05124
1037.000, 29.70601
1037.482, 31.60970
1037.964, 32.48938
1038.446, 31.50685
1038.928, 31.13921
1039.410, 31.68738
1039.893, 32.44644
1040.375, 33.61636
1040.857, 34.55133
1041.339, 34.36860
1041.821, 33.32390
1042.303, 32.81863
1042.785, 33.16476
1043.267, 33.48532
1043.750, 33.75418
1044.232, 33.98073
1044.714, 34.08213
1045.196, 34.20784
1045.678, 34.56615
1046.160, 35.08833
1046.642, 35.42980
1047.124, 35.38356
1047.606, 35.55209
1048.089, 36.11539
1048.571, 36.78108
1049.053, 37.58950
1049.535, 38.32317
1050.017, 38.50111
1050.499, 38.39836
1050.981, 39.16721
1051.463, 41.35588
1051.945, 43.41375
1052.428, 44.98190
1052.910, 46.39655
1053.392, 48.08236
1053.874, 49.47776
1054.356, 49.48957
1054.838, 48.70826
1055.320, 49.32172
1055.802, 52.26781
1056.285, 54.87415
1056.767, 56.12847
1057.249, 57.17720
1057.731, 58.49780
1058.213, 59.93543
1058.695, 61.39596
1059.177, 62.81250
1059.659, 64.01917
1060.141, 64.91370
1060.624, 65.91431
1061.106, 67.44156
1061.588, 68.78355
1062.070, 69.26608
1062.552, 69.64511
1063.034, 70.97488
1063.516, 72.81026
1063.998, 73.76077
1064.480, 73.39439
1064.963, 72.97021
1065.445, 73.33580
1065.927, 73.34289
1066.409, 72.40535
1066.891, 70.81120
1067.373, 68.65990
1067.855, 66.15293
1068.337, 63.59569
1068.820, 61.05716
1069.302, 58.56923
1069.784, 56.16216
1070.266, 53.78748
1070.748, 51.31614
1071.230, 48.94674
1071.712, 46.80658
1072.194, 44.90773
1072.677, 43.25574
1073.159, 41.84904
1073.641, 40.50156
1074.123, 38.95231
1074.605, 37.67265
1075.087, 37.08967
1075.569, 36.70799
1076.051, 36.18448
1076.533, 35.49477
1077.016, 34.60303
1077.498, 33.53425
1077.980, 32.61427
1078.462, 31.74938
1078.944, 31.39286
1079.426, 32.24195
1079.908, 33.21717
1080.390, 33.55578
1080.872, 33.36100
1081.354, 32.69249
1081.837, 31.69474
1082.319, 31.10000
1082.801, 31.37089
1083.283, 31.72220
1083.765, 32.06958
1084.247, 32.07262
1084.729, 31.04418
1085.211, 29.78422
1085.694, 29.51173
1086.176, 30.14289
1086.658, 30.49388
1087.140, 30.09979
1087.622, 29.60505
1088.104, 29.12423
1088.586, 28.80064
1089.068, 28.95895
1089.551, 29.15852
1090.033, 28.56811
1090.515, 27.54420
1090.997, 27.65817
1091.479, 29.78839
1091.961, 30.95300
1092.443, 28.99043
1092.925, 27.04541
1093.407, 26.81512
1093.890, 27.34070
1094.372, 27.90774
1094.854, 28.33764
1095.336, 28.40142
1095.818, 27.99768
1096.300, 27.77892
1096.782, 28.28846
1097.264, 28.57599
1097.746, 27.82870
1098.229, 27.13104
1098.711, 27.88828
1099.193, 29.11000
1099.675, 28.57095
1100.157, 25.96724
1100.639, 24.41217
1101.121, 25.38562
1101.603, 26.49123
1102.086, 27.31054
1102.568, 27.82913
1103.050, 27.97027
1103.532, 27.84641
1104.014, 27.51533
1104.496, 27.02330
1104.978, 26.71038
1105.460, 26.63891
1105.943, 26.74167
1106.425, 27.18611
1106.907, 27.58763
1107.389, 27.68093
1107.871, 27.71834
1108.353, 28.14221
1108.835, 28.78324
1109.317, 28.77634
1109.799, 27.63843
1110.281, 26.89445
1110.764, 26.97029
1111.246, 27.03253
1111.728, 26.76141
1112.210, 26.46356
1112.692, 26.33402
1113.174, 26.37305
1113.656, 26.63285
1114.138, 27.23561
1114.621, 27.49709
1115.103, 27.22898
1115.585, 26.91760
1116.067, 26.49046
1116.549, 26.23983
1117.031, 26.43885
1117.513, 26.83982
1117.995, 27.06734
1118.478, 27.12065
1118.960, 27.01968
1119.442, 26.65364
1119.924, 26.38357
1120.406, 26.16822
1120.888, 26.22442
1121.370, 26.80071
1121.852, 27.45059
1122.334, 27.66689
1122.817, 27.50468
1123.299, 27.23833
1123.781, 26.80953
1124.263, 26.53576
1124.745, 26.48799
1125.227, 26.32797
1125.709, 25.86960
1126.191, 25.53913
1126.673, 25.70391
1127.156, 26.22660
1127.638, 26.87179
1128.120, 27.66074
1128.602, 27.73853
1129.084, 27.01886
1129.566, 26.48999
1130.048, 26.37354
1130.530, 26.21853
1131.013, 25.73752
1131.495, 25.24011
1131.977, 25.25736
1132.459, 25.61796
1132.941, 25.24025
1133.423, 24.23811
1133.905, 24.53908
1134.387, 26.26494
1134.870, 27.21295
1135.352, 26.51466
1135.834, 25.45597
1136.316, 25.22249
1136.798, 25.57704
1137.280, 26.25727
1137.762, 27.06416
1138.244, 27.19291
1138.726, 26.74121
1139.208, 26.34820
1139.691, 26.16711
1140.173, 26.00734
1140.655, 25.74323
1141.137, 25.48639
1141.619, 25.32589
1142.101, 25.30175
1142.583, 25.51016
1143.065, 25.90482
1143.548, 26.49613
1144.030, 27.17175
1144.512, 27.58807
1144.994, 27.61754
1145.476, 27.45326
1145.958, 27.16161
1146.440, 26.86288
1146.922, 26.74815
1147.405, 26.64448
1147.887, 26.10679
1148.369, 25.48591
1148.851, 25.78718
1149.333, 26.95765
1149.815, 27.36044
1150.297, 25.71695
1150.779, 24.56182
1151.261, 26.22128
1151.744, 27.99324
1152.226, 27.55603
1152.708, 26.34599
1153.190, 26.12569
1153.672, 26.80514
1154.154, 27.55751
1154.636, 28.27917
1155.118, 28.51970
1155.600, 27.82372
1156.083, 27.06967
1156.565, 26.27434
1157.047, 25.81583
1157.529, 26.27295
1158.011, 27.06971
1158.493, 27.19160
1158.975, 26.60691
1159.457, 26.36407
1159.940, 27.32636
1160.422, 27.29392
1160.904, 24.97987
1161.386, 23.45898
1161.868, 24.29597
1162.350, 25.73013
1162.832, 26.21038
1163.314, 26.01780
1163.796, 26.04346
1164.279, 26.38557
1164.761, 26.34256
1165.243, 25.72688
1165.725, 25.38402
1166.207, 25.48817
1166.689, 25.90108
1167.171, 26.66134
1167.653, 27.32222
1168.135, 27.17225
1168.618, 26.40284
1169.100, 26.11560
1169.582, 26.30445
1170.064, 26.50158
1170.546, 26.66354
1171.028, 26.54781
1171.510, 26.07369
1171.992, 25.67051
1172.474, 25.68400
1172.957, 25.96664
1173.439, 26.31159
1173.921, 26.70358
1174.403, 27.21834
1174.885, 27.72834
1175.367, 27.62707
1175.849, 27.01486
1176.331, 26.92301
1176.814, 27.77451
1177.296, 28.59251
1177.778, 28.45361
1178.260, 27.91658
1178.742, 27.54776
1179.224, 27.24228
1179.706, 26.77799
1180.188, 26.29060
1180.671, 26.12539
1181.153, 26.28520
1181.635, 26.39810
1182.117, 26.24491
1182.599, 26.23701
1183.081, 26.68338
1183.563, 27.23938
1184.045, 27.79316
1184.527, 28.26272
1185.010, 28.59156
1185.492, 28.77784
1185.974, 28.79552
1186.456, 28.63006
1186.938, 28.53355
1187.420, 28.71529
1187.902, 28.71169
1188.384, 28.16566
1188.866, 27.77434
1189.349, 27.98594
1189.831, 28.34608
1190.313, 28.32052
1190.795, 28.64537
1191.277, 28.22696
1191.759, 28.99124
1192.241, 29.38062
1192.723, 29.33488
1193.206, 29.06845
1193.688, 28.52825
1194.170, 28.17333
1194.652, 28.30264
1195.134, 28.66272
1195.616, 28.96139
1196.098, 29.12128
1196.580, 28.60908
1197.063, 27.54572
1197.545, 27.14476
1198.027, 27.46568
1198.509, 28.27239
1198.991, 29.43139
1199.473, 30.29743
1199.955, 30.41828
1200.437, 30.08619
1200.919, 29.41862
1201.401, 28.74118
1201.884, 28.80051
1202.366, 29.19085
1202.848, 29.05507
1203.330, 28.48521
1203.812, 28.00629
1204.294, 27.80354
1204.776, 27.94407
1205.258, 28.58358
1205.741, 29.34372
1206.223, 30.45421
1206.705, 31.08192
1207.187, 29.84643
1207.669, 28.29799
1208.151, 28.63730
1208.633, 30.35883
1209.115, 31.26712
1209.598, 30.86924
1210.080, 30.42465
1210.562, 29.98529
1211.044, 29.71620
1211.526, 29.72535
1212.008, 29.82120
1212.490, 29.93067
1212.972, 30.07914
1213.454, 30.38150
1213.937, 30.73023
1214.419, 30.52419
1214.901, 29.55384
1215.383, 29.08056
1215.865, 29.13043
1216.347, 29.66503
1216.829, 30.76206
1217.311, 31.53823
1217.793, 31.44416
1218.276, 31.03368
1218.758, 31.01506
1219.240, 31.29109
1219.722, 31.69032
1220.204, 32.13224
1220.686, 32.23100
1221.168, 32.08544
1221.650, 32.29631
1222.133, 32.89872
1222.615, 33.06964
1223.097, 32.27538
1223.579, 31.60472
1224.061, 32.35480
1224.543, 33.37009
1225.025, 33.53455
1225.507, 33.30422
1225.990, 33.00762
1226.472, 32.86675
1226.954, 33.41007
1227.436, 34.56947
1227.918, 35.00645
1228.400, 33.78231
1228.882, 32.98468
1229.364, 33.58981
1229.846, 34.06013
1230.328, 33.66941
1230.811, 33.04956
1231.293, 32.60242
1231.775, 32.30783
1232.257, 32.07848
1232.739, 31.91786
1233.221, 32.40500
1233.703, 33.79556
1234.185, 34.67247
1234.668, 34.85459
1235.150, 34.93207
1235.632, 35.08316
1236.114, 35.33706
1236.596, 35.74658
1237.078, 36.11658
1237.560, 36.05080
1238.042, 35.69197
1238.525, 35.46472
1239.007, 35.36164
1239.489, 35.36365
1239.971, 35.46169
1240.453, 35.63421
1240.935, 35.87790
1241.417, 36.22649
1241.899, 36.72945
1242.381, 37.24497
1242.864, 37.74951
1243.346, 38.12794
1243.828, 38.26841
1244.310, 38.24363
1244.792, 38.09732
1245.274, 37.86991
1245.756, 37.54346
1246.238, 37.12232
1246.720, 37.05784
1247.203, 37.56883
1247.685, 38.20652
1248.167, 39.19939
1248.649, 39.91313
1249.131, 40.19751
1249.613, 40.03213
1250.095, 39.18620
1250.577, 38.18246
1251.059, 38.05487
1251.542, 38.74871
1252.024, 39.72521
1252.506, 40.98308
1252.988, 41.82990
1253.470, 42.21468
1253.952, 42.42925
1254.434, 42.56984
1254.916, 42.56276
1255.399, 42.30947
1255.881, 42.28651
1256.363, 43.55929
1256.845, 43.21533
1257.327, 44.74348
1257.809, 43.77641
1258.291, 43.82397
1258.773, 44.56014
1259.255, 44.78429
1259.738, 44.37264
1260.220, 44.33610
1260.702, 45.14888
1261.184, 46.03948
1261.666, 46.95570
1262.148, 47.64820
1262.630, 47.94798
1263.112, 48.05697
1263.594, 47.82106
1264.077, 47.72532
1264.559, 48.63821
1265.041, 50.38115
1265.523, 51.27884
1266.005, 51.00501
1266.487, 52.09911
1266.969, 54.90501
1267.451, 56.14537
1267.934, 54.99528
1268.416, 54.03688
1268.898, 54.72371
1269.380, 56.15232
1269.862, 57.35562
1270.344, 58.43241
1270.826, 59.60266
1271.308, 60.76453
1271.791, 61.79745
1272.273, 62.63049
1272.755, 62.80473
1273.237, 62.64388
1273.719, 63.67504
1274.201, 66.52492
1274.683, 68.74617
1275.165, 68.51775
1275.647, 68.52103
1276.130, 70.13181
1276.612, 71.83425
1277.094, 72.43389
1277.576, 72.95023
1278.058, 74.70145
1278.540, 75.73085
1279.022, 77.13168
1279.504, 78.94130
1279.986, 80.00146
1280.469, 81.91728
1280.951, 83.10390
1281.433, 83.26774
1281.915, 84.86762
1282.397, 88.81725
1282.879, 92.63992
1283.361, 94.34122
1283.843, 95.17030
1284.326, 96.60368
1284.808, 98.63945
##END=



