##NAMES=Cinnabar
##RRUFFID=R050072
##IDEAL CHEMISTRY=HgS
##LOCALITY=Gui Zhu, Hunan Province, China
##OWNER=RRUFF
##SOURCE=Rock Currier
##DESCRIPTION=Red single crystal associated with calcite
##STATUS=The identification of this mineral has been confirmed by X-ray diffraction and chemical analysis
##URL=rruff.info/R050072
##MEASURED CHEMISTRY=Hg_1.00_S_1.00_
130.7339, 929.5419
131.2160, 940.3792
131.6981, 936.1833
132.1802, 919.0203
132.6623, 904.9902
133.1445, 901.0302
133.6266, 905.5417
134.1087, 907.2147
134.5908, 904.2366
135.0729, 902.5097
135.5550, 916.2781
136.0372, 948.3274
136.5193, 973.4824
137.0014, 972.8944
137.4835, 943.3657
137.9656, 930.1068
138.4477, 942.2891
138.9299, 970.8675
139.4120, 981.8638
139.8941, 968.1305
140.3762, 952.5530
140.8583, 955.1733
141.3404, 984.0042
141.8225, 1005.236
142.3047, 1009.677
142.7868, 996.5660
143.2689, 994.9168
143.7510, 1011.989
144.2331, 1034.252
144.7152, 1043.894
145.1974, 1034.239
145.6795, 1022.732
146.1616, 1014.935
146.6437, 1014.961
147.1258, 1008.087
147.6079, 986.8871
148.0901, 958.9168
148.5722, 945.8030
149.0543, 964.6339
149.5364, 983.0144
150.0185, 986.7271
150.5006, 956.4869
150.9828, 934.4069
151.4649, 926.6334
151.9470, 931.5034
152.4291, 930.0425
152.9112, 909.6136
153.3933, 889.0547
153.8755, 881.4689
154.3576, 907.5219
154.8397, 927.7805
155.3218, 931.4644
155.8039, 915.4480
156.2860, 901.8963
156.7682, 895.4591
157.2503, 893.4805
157.7324, 892.6608
158.2145, 895.1977
158.6966, 896.4796
159.1787, 894.4273
159.6609, 887.8502
160.1430, 880.0927
160.6251, 870.1729
161.1072, 859.7282
161.5893, 852.5292
162.0714, 852.2164
162.5536, 854.4388
163.0357, 856.0967
163.5178, 853.2467
163.9999, 853.2930
164.4820, 864.0368
164.9641, 883.1937
165.4463, 895.7513
165.9284, 890.9296
166.4105, 876.7310
166.8926, 861.7717
167.3747, 842.4312
167.8568, 827.9881
168.3390, 827.6190
168.8211, 842.4166
169.3032, 857.3154
169.7853, 864.0640
170.2674, 864.1269
170.7495, 860.0571
171.2317, 848.2695
171.7138, 835.1602
172.1959, 827.4726
172.6780, 826.6639
173.1601, 828.7063
173.6422, 832.4088
174.1244, 836.7631
174.6065, 838.4094
175.0886, 831.7284
175.5707, 822.0108
176.0528, 817.7797
176.5349, 823.7698
177.0171, 831.5376
177.4992, 829.3758
177.9813, 818.4500
178.4634, 808.7080
178.9455, 809.3729
179.4276, 816.9940
179.9098, 823.7670
180.3919, 827.6796
180.8740, 829.0854
181.3561, 827.4505
181.8382, 822.5880
182.3203, 818.5414
182.8025, 818.6680
183.2846, 822.8409
183.7667, 830.6016
184.2488, 848.6485
184.7309, 870.4979
185.2130, 873.5328
185.6951, 854.0584
186.1773, 829.5767
186.6594, 825.9073
187.1415, 841.1711
187.6236, 854.4737
188.1057, 851.1292
188.5878, 835.1456
189.0700, 826.0708
189.5521, 826.9102
190.0342, 833.4875
190.5163, 839.1774
190.9984, 843.9091
191.4805, 847.6944
191.9627, 850.0945
192.4448, 851.2044
192.9269, 852.2380
193.4090, 852.7468
193.8911, 853.6448
194.3732, 859.2861
194.8554, 870.8239
195.3375, 880.9213
195.8196, 881.1415
196.3017, 871.2604
196.7838, 863.1553
197.2659, 860.1607
197.7481, 861.6052
198.2302, 863.2440
198.7123, 865.2857
199.1944, 867.0280
199.6765, 867.4061
200.1586, 866.2540
200.6408, 865.1456
201.1229, 864.7031
201.6050, 864.9405
202.0871, 864.9775
202.5692, 864.9594
203.0513, 864.4843
203.5335, 861.6075
204.0156, 854.8898
204.4977, 851.7037
204.9798, 858.1816
205.4619, 876.7740
205.9440, 885.4382
206.4262, 879.5897
206.9083, 866.2570
207.3904, 864.8627
207.8725, 879.7435
208.3546, 894.6022
208.8367, 898.0598
209.3189, 885.9274
209.8010, 880.5568
210.2831, 885.9974
210.7652, 899.3629
211.2473, 907.5532
211.7294, 908.8109
212.2116, 908.4246
212.6937, 910.0699
213.1758, 913.8375
213.6579, 919.8013
214.1400, 929.7059
214.6221, 942.9625
215.1043, 948.7857
215.5864, 943.2669
216.0685, 936.1187
216.5506, 938.6778
217.0327, 957.1889
217.5148, 969.2051
217.9970, 966.7885
218.4791, 948.5182
218.9612, 940.9638
219.4433, 948.7547
219.9254, 962.5748
220.4075, 969.7903
220.8897, 966.4274
221.3718, 964.5095
221.8539, 968.6247
222.3360, 981.0367
222.8181, 988.1011
223.3002, 986.5099
223.7824, 981.5762
224.2645, 983.1678
224.7466, 994.1471
225.2287, 1006.805
225.7108, 1018.940
226.1929, 1031.978
226.6750, 1039.897
227.1572, 1038.823
227.6393, 1033.727
228.1214, 1038.142
228.6035, 1056.780
229.0856, 1077.863
229.5677, 1095.571
230.0499, 1107.605
230.5320, 1120.987
231.0141, 1135.959
231.4962, 1152.336
231.9783, 1169.606
232.4604, 1186.445
232.9426, 1205.600
233.4247, 1229.354
233.9068, 1259.308
234.3889, 1289.932
234.8710, 1321.806
235.3531, 1354.633
235.8353, 1382.317
236.3174, 1400.101
236.7995, 1418.172
237.2816, 1444.209
237.7637, 1480.476
238.2458, 1520.634
238.7280, 1565.765
239.2101, 1615.732
239.6922, 1659.711
240.1743, 1691.653
240.6564, 1723.599
241.1385, 1767.163
241.6207, 1829.598
242.1028, 1891.825
242.5849, 1950.659
243.0670, 2005.825
243.5491, 2060.643
244.0313, 2113.349
244.5134, 2167.171
244.9955, 2226.476
245.4776, 2295.631
245.9597, 2362.618
246.4418, 2421.773
246.9240, 2468.798
247.4061, 2533.914
247.8882, 2621.558
248.3703, 2723.369
248.8524, 2827.826
249.3345, 2937.746
249.8167, 3045.906
250.2988, 3151.923
250.7809, 3257.407
251.2630, 3355.177
251.7451, 3446.352
252.2272, 3528.249
252.7094, 3597.433
253.1915, 3662.437
253.6736, 3700.028
254.1557, 3700.569
254.6378, 3658.109
255.1199, 3597.335
255.6021, 3519.141
256.0842, 3422.857
256.5663, 3304.646
257.0484, 3152.800
257.5305, 2998.478
258.0126, 2855.151
258.4948, 2723.846
258.9769, 2596.933
259.4590, 2471.244
259.9411, 2350.593
260.4232, 2242.261
260.9053, 2147.587
261.3875, 2062.485
261.8696, 1985.478
262.3517, 1922.086
262.8338, 1852.042
263.3159, 1768.002
263.7980, 1678.294
264.2802, 1617.360
264.7623, 1596.195
265.2444, 1580.710
265.7265, 1547.002
266.2086, 1486.514
266.6907, 1441.933
267.1729, 1420.715
267.6550, 1417.615
268.1371, 1414.565
268.6192, 1414.562
269.1013, 1407.869
269.5834, 1383.517
270.0656, 1335.486
270.5477, 1299.589
271.0298, 1282.460
271.5119, 1280.583
271.9940, 1279.749
272.4761, 1280.691
272.9583, 1280.885
273.4404, 1278.147
273.9225, 1271.992
274.4046, 1265.573
274.8867, 1258.970
275.3688, 1252.519
275.8510, 1247.237
276.3331, 1242.807
276.8152, 1240.641
277.2973, 1242.593
277.7794, 1249.083
278.2615, 1255.645
278.7437, 1261.411
279.2258, 1266.605
279.7079, 1273.017
280.1900, 1281.453
280.6721, 1288.039
281.1542, 1287.898
281.6364, 1280.675
282.1185, 1275.300
282.6006, 1274.114
283.0827, 1276.153
283.5648, 1277.363
284.0469, 1277.501
284.5291, 1278.117
285.0112, 1280.067
285.4933, 1283.393
285.9754, 1289.976
286.4575, 1301.990
286.9396, 1317.118
287.4217, 1327.438
287.9038, 1332.774
288.3860, 1334.369
288.8681, 1331.758
289.3502, 1325.484
289.8323, 1320.497
290.3144, 1318.726
290.7965, 1319.065
291.2787, 1320.813
291.7608, 1324.573
292.2429, 1322.823
292.7250, 1303.976
293.2071, 1271.524
293.6892, 1242.568
294.1714, 1222.772
294.6535, 1210.234
295.1356, 1202.798
295.6177, 1200.742
296.0998, 1197.705
296.5819, 1186.719
297.0641, 1169.539
297.5462, 1152.068
298.0283, 1135.092
298.5104, 1119.673
298.9925, 1107.558
299.4746, 1098.712
299.9568, 1092.146
300.4389, 1085.295
300.9210, 1079.906
301.4031, 1080.153
301.8852, 1093.996
302.3673, 1110.454
302.8495, 1112.789
303.3316, 1101.256
303.8137, 1089.960
304.2958, 1095.490
304.7779, 1108.856
305.2600, 1113.850
305.7422, 1095.133
306.2243, 1071.300
306.7064, 1061.338
307.1885, 1064.652
307.6706, 1071.197
308.1527, 1076.801
308.6349, 1080.575
309.1170, 1081.186
309.5991, 1077.340
310.0812, 1070.786
310.5633, 1060.414
311.0454, 1046.594
311.5276, 1036.855
312.0097, 1037.747
312.4918, 1044.441
312.9739, 1051.590
313.4560, 1063.563
313.9381, 1070.301
314.4203, 1061.973
314.9024, 1039.910
315.3845, 1021.932
315.8666, 1016.422
316.3487, 1018.915
316.8308, 1025.194
317.3130, 1040.083
317.7951, 1052.898
318.2772, 1058.838
318.7593, 1058.309
319.2414, 1055.798
319.7235, 1051.145
320.2057, 1045.952
320.6878, 1041.491
321.1699, 1035.532
321.6520, 1032.913
322.1341, 1036.978
322.6162, 1046.923
323.0984, 1054.432
323.5805, 1056.236
324.0626, 1056.104
324.5447, 1056.581
325.0268, 1063.165
325.5089, 1064.722
325.9911, 1054.229
326.4732, 1033.774
326.9553, 1024.523
327.4374, 1039.159
327.9195, 1057.673
328.4016, 1068.523
328.8838, 1060.651
329.3659, 1058.953
329.8480, 1068.972
330.3301, 1088.016
330.8122, 1099.121
331.2943, 1094.839
331.7765, 1090.064
332.2586, 1093.967
332.7407, 1116.149
333.2228, 1129.427
333.7049, 1129.358
334.1870, 1119.160
334.6692, 1111.784
335.1513, 1106.998
335.6334, 1105.336
336.1155, 1107.504
336.5976, 1114.562
337.0797, 1122.347
337.5619, 1131.227
338.0440, 1140.390
338.5261, 1146.044
339.0082, 1145.975
339.4903, 1148.888
339.9724, 1161.047
340.4546, 1183.943
340.9367, 1204.298
341.4188, 1222.410
341.9009, 1236.745
342.3830, 1244.067
342.8651, 1244.196
343.3473, 1239.417
343.8294, 1227.484
344.3115, 1209.394
344.7936, 1200.705
345.2757, 1204.535
345.7578, 1212.203
346.2400, 1209.042
346.7221, 1195.695
347.2042, 1182.353
347.6863, 1173.543
348.1684, 1168.678
348.6505, 1165.760
349.1327, 1164.647
349.6148, 1165.442
350.0969, 1170.177
350.5790, 1177.491
351.0611, 1182.217
351.5432, 1182.962
352.0254, 1179.209
352.5075, 1166.365
352.9896, 1143.029
353.4717, 1124.126
353.9538, 1134.253
354.4359, 1158.552
354.9181, 1167.462
355.4002, 1132.752
355.8823, 1086.601
356.3644, 1056.695
356.8465, 1043.708
357.3286, 1041.854
357.8108, 1057.453
358.2929, 1079.194
358.7750, 1092.595
359.2571, 1087.375
359.7392, 1076.590
360.2213, 1064.677
360.7035, 1052.094
361.1856, 1043.866
361.6677, 1047.111
362.1498, 1053.325
362.6319, 1055.164
363.1140, 1048.988
363.5962, 1039.904
364.0783, 1028.365
364.5604, 1014.690
365.0425, 1001.064
365.5246, 977.0005
366.0067, 960.1447
366.4889, 961.2478
366.9710, 1014.723
367.4531, 1047.502
367.9352, 1038.191
368.4173, 998.4541
368.8994, 980.1374
369.3815, 1005.805
369.8636, 1034.232
370.3458, 1047.245
370.8279, 1033.853
371.3100, 1023.874
371.7921, 1017.010
372.2742, 1013.542
372.7563, 1015.157
373.2385, 1026.652
373.7206, 1035.251
374.2027, 1034.444
374.6848, 1020.765
375.1669, 1011.883
375.6490, 1007.927
376.1312, 1008.640
376.6133, 1016.239
377.0954, 1034.149
377.5775, 1044.910
378.0596, 1037.114
378.5417, 1011.829
379.0239, 1003.806
379.5060, 1017.096
379.9881, 1035.760
380.4702, 1037.180
380.9523, 1022.127
381.4344, 1012.441
381.9166, 1018.165
382.3987, 1034.013
382.8808, 1046.114
383.3629, 1054.533
383.8450, 1056.416
384.3271, 1041.017
384.8093, 1015.471
385.2914, 1003.172
385.7735, 1018.102
386.2556, 1042.931
386.7377, 1052.720
387.2198, 1049.172
387.7020, 1045.506
388.1841, 1056.492
388.6662, 1071.425
389.1483, 1074.780
389.6304, 1056.200
390.1125, 1035.898
390.5947, 1028.424
391.0768, 1031.453
391.5589, 1037.979
392.0410, 1050.533
392.5231, 1061.458
393.0052, 1064.264
393.4874, 1054.406
393.9695, 1044.836
394.4516, 1039.631
394.9337, 1038.135
395.4158, 1039.163
395.8979, 1047.579
396.3801, 1054.009
396.8622, 1053.133
397.3443, 1041.221
397.8264, 1033.939
398.3085, 1034.766
398.7906, 1040.791
399.2728, 1048.718
399.7549, 1067.652
400.2370, 1078.054
400.7191, 1073.687
401.2012, 1053.329
401.6833, 1036.386
402.1655, 1021.567
402.6476, 1011.644
403.1297, 1010.086
403.6118, 1020.957
404.0939, 1030.385
404.5760, 1036.172
405.0582, 1038.861
405.5403, 1040.720
406.0224, 1041.162
406.5045, 1042.404
406.9866, 1046.683
407.4688, 1054.266
407.9509, 1060.626
408.4330, 1066.092
408.9151, 1069.068
409.3972, 1063.713
409.8793, 1050.032
410.3615, 1038.802
410.8436, 1038.219
411.3257, 1045.195
411.8078, 1049.584
412.2899, 1050.787
412.7720, 1049.268
413.2542, 1043.785
413.7363, 1035.743
414.2184, 1029.184
414.7005, 1024.980
415.1826, 1023.839
415.6647, 1027.671
416.1469, 1036.544
416.6290, 1046.298
417.1111, 1055.999
417.5932, 1064.177
418.0753, 1068.645
418.5574, 1063.249
419.0396, 1058.910
419.5217, 1062.546
420.0038, 1072.970
420.4859, 1082.492
420.9680, 1092.650
421.4501, 1098.083
421.9323, 1094.365
422.4144, 1068.507
422.8965, 1050.366
423.3786, 1049.963
423.8607, 1061.513
424.3428, 1068.267
424.8250, 1065.650
425.3071, 1060.959
425.7892, 1055.726
426.2713, 1046.714
426.7534, 1046.302
427.2355, 1060.877
427.7177, 1080.088
428.1998, 1087.727
428.6819, 1078.249
429.1640, 1069.332
429.6461, 1064.777
430.1282, 1064.645
430.6104, 1071.399
431.0925, 1087.581
431.5746, 1103.949
432.0567, 1111.168
432.5388, 1109.068
433.0209, 1102.164
433.5031, 1087.941
433.9852, 1072.324
434.4673, 1072.673
434.9494, 1088.618
435.4315, 1104.599
435.9136, 1108.338
436.3958, 1103.507
436.8779, 1098.549
437.3600, 1093.746
437.8421, 1091.938
438.3242, 1100.698
438.8063, 1115.745
439.2885, 1125.040
439.7706, 1115.276
440.2527, 1101.127
440.7348, 1096.130
441.2169, 1101.854
441.6990, 1110.915
442.1812, 1123.919
442.6633, 1136.309
443.1454, 1142.854
443.6275, 1137.012
444.1096, 1129.746
444.5917, 1124.844
445.0739, 1122.161
445.5560, 1118.869
446.0381, 1109.795
446.5202, 1103.034
447.0023, 1103.417
447.4844, 1120.546
447.9666, 1132.883
448.4487, 1138.287
448.9308, 1139.002
449.4129, 1141.572
449.8950, 1149.378
450.3771, 1153.399
450.8592, 1148.229
451.3413, 1131.109
451.8235, 1121.991
452.3056, 1123.346
452.7877, 1128.792
453.2698, 1129.011
453.7519, 1123.342
454.2340, 1120.269
454.7162, 1123.856
455.1983, 1131.577
455.6804, 1133.931
456.1625, 1130.663
456.6446, 1126.425
457.1267, 1123.088
457.6089, 1121.775
458.0910, 1126.410
458.5731, 1140.339
459.0552, 1155.791
459.5373, 1161.779
460.0194, 1160.949
460.5016, 1139.277
460.9837, 1168.072
461.4658, 1184.530
461.9479, 1189.314
462.4300, 1147.462
462.9121, 1165.832
463.3943, 1160.067
463.8764, 1153.313
464.3585, 1180.158
464.8406, 1145.089
465.3227, 1171.402
465.8048, 1173.212
466.2870, 1186.237
466.7691, 1174.978
467.2512, 1171.219
467.7333, 1191.752
468.2154, 1198.834
468.6975, 1184.780
469.1797, 1198.517
469.6618, 1162.600
470.1439, 1170.255
470.6260, 1196.710
471.1081, 1183.877
471.5902, 1198.058
472.0724, 1201.950
472.5545, 1159.086
473.0366, 1197.537
473.5187, 1200.821
474.0008, 1167.998
474.4829, 1203.662
474.9651, 1175.817
475.4472, 1170.641
475.9293, 1182.524
476.4114, 1176.624
476.8935, 1198.762
477.3756, 1193.888
477.8578, 1186.601
478.3399, 1189.846
478.8220, 1186.978
479.3041, 1187.503
479.7862, 1179.803
480.2683, 1174.858
480.7505, 1187.037
481.2326, 1207.986
481.7147, 1220.165
482.1968, 1207.948
482.6789, 1192.067
483.1610, 1181.331
483.6432, 1176.161
484.1253, 1178.751
484.6074, 1199.870
485.0895, 1223.726
485.5716, 1236.757
486.0537, 1225.936
486.5359, 1218.165
487.0180, 1215.540
487.5001, 1217.603
487.9822, 1223.391
488.4643, 1237.921
488.9464, 1247.886
489.4286, 1245.425
489.9107, 1227.837
490.3928, 1212.003
490.8749, 1197.254
491.3570, 1185.682
491.8391, 1181.130
492.3213, 1183.617
492.8034, 1187.421
493.2855, 1190.127
493.7676, 1192.917
494.2497, 1199.238
494.7318, 1209.001
495.2140, 1219.961
495.6961, 1233.581
496.1782, 1246.473
496.6603, 1251.948
497.1424, 1247.305
497.6245, 1238.217
498.1067, 1222.639
498.5888, 1205.756
499.0709, 1199.430
499.5530, 1223.471
500.0351, 1247.523
500.5172, 1252.108
500.9994, 1232.276
501.4815, 1218.508
501.9636, 1222.672
502.4457, 1233.341
502.9278, 1240.212
503.4099, 1240.009
503.8921, 1239.342
504.3742, 1239.699
504.8563, 1240.168
505.3384, 1236.517
505.8205, 1227.167
506.3026, 1216.877
506.7848, 1206.426
507.2669, 1194.632
507.7490, 1192.721
508.2311, 1203.724
508.7132, 1217.700
509.1953, 1218.943
509.6775, 1208.899
510.1596, 1204.504
510.6417, 1214.430
511.1238, 1231.315
511.6059, 1241.865
512.0880, 1246.225
512.5701, 1246.188
513.0522, 1238.236
513.5344, 1228.504
514.0165, 1224.960
514.4986, 1229.867
514.9807, 1238.456
515.4628, 1254.443
515.9449, 1271.187
516.4271, 1277.253
516.9092, 1254.017
517.3913, 1233.598
517.8734, 1231.297
518.3555, 1248.532
518.8376, 1259.577
519.3198, 1260.445
519.8019, 1255.068
520.2840, 1244.371
520.7661, 1219.061
521.2482, 1207.658
521.7303, 1216.372
522.2125, 1236.856
522.6946, 1251.053
523.1767, 1258.676
523.6588, 1261.510
524.1409, 1258.097
524.6230, 1249.719
525.1052, 1246.488
525.5873, 1248.968
526.0694, 1252.111
526.5515, 1248.611
527.0336, 1241.620
527.5157, 1240.873
527.9979, 1250.844
528.4800, 1264.074
528.9621, 1274.729
529.4442, 1282.398
529.9263, 1286.194
530.4084, 1282.833
530.8906, 1277.359
531.3727, 1272.012
531.8548, 1266.457
532.3369, 1265.385
532.8190, 1276.468
533.3011, 1289.706
533.7833, 1295.834
534.2654, 1282.929
534.7475, 1275.951
535.2296, 1280.870
535.7117, 1293.554
536.1938, 1299.438
536.6760, 1296.565
537.1581, 1290.759
537.6402, 1283.073
538.1223, 1273.037
538.6044, 1269.067
539.0865, 1272.881
539.5687, 1277.664
540.0508, 1273.854
540.5329, 1262.853
541.0150, 1255.067
541.4971, 1252.995
541.9792, 1255.635
542.4614, 1265.081
542.9435, 1279.314
543.4256, 1288.890
543.9077, 1282.915
544.3898, 1272.570
544.8719, 1268.401
545.3541, 1271.841
545.8362, 1278.797
546.3183, 1294.737
546.8004, 1310.189
547.2825, 1314.949
547.7646, 1290.737
548.2468, 1273.324
548.7289, 1271.987
549.2110, 1283.588
549.6931, 1294.936
550.1752, 1308.545
550.6573, 1318.417
551.1395, 1321.213
551.6216, 1315.355
552.1037, 1311.490
552.5858, 1309.488
553.0679, 1309.691
553.5500, 1313.616
554.0322, 1321.041
554.5143, 1327.422
554.9964, 1332.654
555.4785, 1335.085
555.9606, 1327.942
556.4427, 1313.464
556.9249, 1303.998
557.4070, 1315.070
557.8891, 1331.048
558.3712, 1332.255
558.8533, 1315.333
559.3354, 1299.105
559.8176, 1291.626
560.2997, 1291.036
560.7818, 1295.444
561.2639, 1313.415
561.7460, 1326.072
562.2281, 1325.640
562.7103, 1316.074
563.1924, 1312.655
563.6745, 1319.734
564.1566, 1327.277
564.6387, 1330.639
565.1208, 1328.726
565.6030, 1335.469
566.0851, 1354.828
566.5672, 1373.608
567.0493, 1376.804
567.5314, 1365.102
568.0135, 1352.964
568.4957, 1341.052
568.9778, 1333.684
569.4599, 1345.172
569.9420, 1370.132
570.4241, 1385.197
570.9063, 1367.916
571.3884, 1340.853
571.8705, 1324.806
572.3526, 1320.905
572.8347, 1324.723
573.3168, 1342.250
573.7990, 1362.016
574.2811, 1373.964
574.7632, 1370.480
575.2453, 1367.236
575.7274, 1368.164
576.2095, 1370.618
576.6917, 1368.938
577.1738, 1358.566
577.6559, 1351.435
578.1380, 1350.311
578.6201, 1355.160
579.1022, 1368.087
579.5844, 1392.130
580.0665, 1412.938
580.5486, 1416.940
581.0307, 1406.563
581.5128, 1398.148
581.9949, 1393.147
582.4771, 1391.779
582.9592, 1398.758
583.4413, 1409.800
583.9234, 1414.298
584.4055, 1396.081
584.8876, 1378.944
585.3698, 1385.197
585.8519, 1410.491
586.3340, 1431.145
586.8161, 1438.275
587.2982, 1436.945
587.7803, 1428.049
588.2625, 1405.689
588.7446, 1391.625
589.2267, 1388.377
589.7088, 1392.526
590.1909, 1402.046
590.6730, 1421.222
591.1552, 1433.273
591.6373, 1433.222
592.1194, 1425.591
592.6015, 1423.829
593.0836, 1428.222
593.5657, 1433.701
594.0479, 1438.099
594.5300, 1441.474
595.0121, 1443.710
595.4942, 1444.780
595.9763, 1445.579
596.4584, 1445.842
596.9406, 1446.620
597.4227, 1436.278
597.9048, 1451.224
598.3869, 1460.001
598.8690, 1462.943
599.3511, 1442.565
599.8333, 1452.299
600.3154, 1449.965
600.7975, 1447.137
601.2796, 1461.108
601.7617, 1444.123
602.2438, 1457.828
602.7260, 1459.282
603.2081, 1466.343
603.6902, 1461.262
604.1723, 1459.931
604.6544, 1470.746
605.1365, 1474.836
605.6187, 1468.358
606.1008, 1475.775
606.5829, 1458.365
607.0650, 1462.741
607.5471, 1463.755
608.0292, 1457.974
608.5114, 1457.564
608.9935, 1461.577
609.4756, 1466.748
609.9577, 1473.695
610.4398, 1479.355
610.9219, 1479.933
611.4041, 1473.693
611.8862, 1473.158
612.3683, 1488.360
612.8504, 1505.312
613.3325, 1513.348
613.8146, 1508.624
614.2968, 1501.624
614.7789, 1489.301
615.2610, 1477.933
615.7431, 1483.849
616.2252, 1509.405
616.7073, 1527.982
617.1895, 1527.009
617.6716, 1513.434
618.1537, 1503.387
618.6358, 1497.035
619.1179, 1498.512
619.6000, 1521.002
620.0822, 1548.253
620.5643, 1558.379
621.0464, 1546.231
621.5285, 1532.059
622.0106, 1524.116
622.4927, 1521.223
622.9749, 1522.190
623.4570, 1523.157
623.9391, 1532.648
624.4212, 1565.102
624.9033, 1605.684
625.3854, 1612.720
625.8676, 1568.483
626.3497, 1529.844
626.8318, 1519.079
627.3139, 1532.727
627.7960, 1535.958
628.2781, 1527.436
628.7603, 1519.412
629.2424, 1524.973
629.7245, 1538.626
630.2066, 1544.625
630.6887, 1539.159
631.1708, 1534.500
631.6530, 1546.149
632.1351, 1564.640
632.6172, 1575.689
633.0993, 1564.296
633.5814, 1554.750
634.0635, 1560.061
634.5457, 1575.215
635.0278, 1580.696
635.5099, 1563.322
635.9920, 1548.625
636.4741, 1544.490
636.9562, 1551.422
637.4384, 1562.436
637.9205, 1580.475
638.4026, 1594.946
638.8847, 1592.564
639.3668, 1575.894
639.8489, 1570.524
640.3311, 1581.212
640.8132, 1596.275
641.2953, 1601.005
641.7774, 1599.689
642.2595, 1601.980
642.7416, 1616.233
643.2238, 1630.419
643.7059, 1640.436
644.1880, 1644.732
644.6701, 1638.344
645.1522, 1599.673
645.6343, 1568.443
646.1165, 1564.693
646.5986, 1591.457
647.0807, 1613.024
647.5628, 1631.548
648.0449, 1642.081
648.5270, 1635.868
649.0092, 1610.411
649.4913, 1604.079
649.9734, 1624.210
650.4555, 1650.225
650.9376, 1652.813
651.4197, 1637.223
651.9019, 1621.193
652.3840, 1606.563
652.8661, 1599.102
653.3482, 1611.031
653.8303, 1635.711
654.3124, 1652.901
654.7946, 1642.461
655.2767, 1632.795
655.7588, 1642.537
656.2408, 1675.736
656.7230, 1690.522
657.2051, 1671.714
657.6872, 1649.088
658.1693, 1641.269
658.6514, 1652.786
659.1335, 1658.945
659.6157, 1658.828
660.0978, 1654.278
660.5799, 1644.665
661.0620, 1631.641
661.5441, 1625.092
662.0262, 1629.353
662.5084, 1638.474
662.9905, 1648.535
663.4726, 1657.931
663.9547, 1662.276
664.4368, 1650.446
664.9189, 1640.892
665.4011, 1646.302
665.8832, 1666.335
666.3653, 1681.351
666.8474, 1687.102
667.3295, 1687.727
667.8116, 1682.473
668.2938, 1666.889
668.7759, 1667.134
669.2580, 1688.625
669.7401, 1713.911
670.2222, 1725.589
670.7043, 1724.278
671.1865, 1713.201
671.6686, 1688.488
672.1507, 1665.944
672.6328, 1670.951
673.1149, 1693.661
673.5970, 1710.416
674.0792, 1707.311
674.5613, 1698.917
675.0434, 1689.698
675.5255, 1681.086
676.0076, 1679.512
676.4897, 1691.840
676.9719, 1706.256
677.4540, 1719.327
677.9361, 1731.293
678.4182, 1739.058
678.9003, 1741.750
679.3824, 1742.104
679.8646, 1742.019
680.3467, 1741.470
680.8288, 1739.744
681.3109, 1736.126
681.7930, 1734.109
682.2751, 1740.025
682.7573, 1750.226
683.2394, 1757.418
683.7215, 1757.408
684.2036, 1756.013
684.6857, 1755.908
685.1678, 1756.935
685.6500, 1758.693
686.1321, 1763.585
686.6142, 1766.492
687.0963, 1765.265
687.5784, 1760.476
688.0605, 1757.277
688.5427, 1755.771
689.0248, 1755.639
689.5069, 1758.646
689.9890, 1763.973
690.4711, 1758.897
690.9532, 1741.879
691.4354, 1730.751
691.9175, 1753.126
692.3996, 1789.075
692.8817, 1803.630
693.3638, 1782.391
693.8459, 1762.596
694.3281, 1769.062
694.8102, 1788.482
695.2923, 1803.072
695.7744, 1806.688
696.2565, 1808.487
696.7386, 1809.240
697.2208, 1809.085
697.7029, 1807.602
698.1850, 1803.456
698.6671, 1802.917
699.1492, 1809.593
699.6313, 1821.126
700.1135, 1830.647
700.5956, 1837.992
701.0777, 1840.516
701.5598, 1831.483
702.0419, 1819.075
702.5240, 1813.976
703.0062, 1817.349
703.4883, 1821.510
703.9704, 1824.614
704.4525, 1825.829
704.9346, 1823.741
705.4167, 1808.580
705.8989, 1808.536
706.3810, 1834.978
706.8631, 1866.867
707.3452, 1877.016
707.8273, 1861.938
708.3094, 1847.759
708.7916, 1837.654
709.2737, 1832.979
709.7558, 1839.225
710.2379, 1853.906
710.7200, 1867.387
711.2021, 1876.742
711.6843, 1881.824
712.1664, 1879.191
712.6485, 1871.096
713.1306, 1867.185
713.6127, 1877.019
714.0948, 1886.450
714.5770, 1887.443
715.0591, 1879.141
715.5412, 1876.436
716.0233, 1882.835
716.5054, 1888.595
716.9875, 1884.828
717.4697, 1871.677
717.9518, 1867.284
718.4339, 1872.979
718.9160, 1884.071
719.3981, 1898.203
719.8802, 1913.743
720.3624, 1927.753
720.8445, 1941.091
721.3266, 1949.553
721.8087, 1947.442
722.2908, 1939.741
722.7729, 1933.645
723.2551, 1928.165
723.7372, 1927.866
724.2193, 1926.572
724.7014, 1943.283
725.1835, 1953.825
725.6656, 1958.530
726.1478, 1939.918
726.6299, 1951.416
727.1120, 1950.847
727.5941, 1949.783
728.0762, 1965.519
728.5583, 1950.298
729.0405, 1965.768
729.5226, 1968.986
730.0047, 1977.812
730.4868, 1974.495
730.9689, 1981.806
731.4510, 1977.872
731.9332, 1970.513
732.4153, 1965.747
732.8974, 1962.470
733.3795, 1967.130
733.8616, 1986.177
734.3438, 2003.290
734.8259, 1996.324
735.3080, 1966.105
735.7901, 1953.565
736.2722, 1967.461
736.7543, 1989.494
737.2365, 2000.017
737.7186, 2001.007
738.2007, 1995.501
738.6828, 1972.977
739.1649, 1959.149
739.6470, 1976.002
740.1292, 2010.847
740.6113, 2034.740
741.0934, 2039.099
741.5755, 2035.484
742.0576, 2021.578
742.5397, 2001.370
743.0219, 1994.241
743.5040, 2002.180
743.9861, 2010.942
744.4682, 2010.824
744.9503, 2006.764
745.4324, 2015.111
745.9146, 2034.542
746.3967, 2051.418
746.8788, 2055.863
747.3609, 2053.984
747.8430, 2048.124
748.3251, 2037.113
748.8073, 2034.260
749.2894, 2057.432
749.7715, 2078.133
750.2536, 2076.243
750.7357, 2039.076
751.2178, 2019.625
751.7000, 2020.672
752.1821, 2032.562
752.6642, 2049.412
753.1463, 2068.813
753.6284, 2077.234
754.1105, 2070.155
754.5927, 2058.541
755.0748, 2047.532
755.5569, 2040.656
756.0390, 2043.331
756.5211, 2070.049
757.0032, 2092.213
757.4854, 2100.497
757.9675, 2098.786
758.4496, 2095.748
758.9317, 2090.331
759.4138, 2085.877
759.8959, 2083.159
760.3781, 2081.981
760.8602, 2080.830
761.3423, 2079.932
761.8244, 2082.771
762.3065, 2094.479
762.7886, 2109.000
763.2708, 2119.332
763.7529, 2125.630
764.2350, 2129.539
764.7171, 2130.704
765.1992, 2130.675
765.6813, 2130.050
766.1635, 2128.781
766.6456, 2127.090
767.1277, 2123.905
767.6098, 2121.952
768.0919, 2122.844
768.5740, 2126.556
769.0562, 2132.247
769.5383, 2139.882
770.0204, 2149.703
770.5025, 2167.618
770.9846, 2186.057
771.4667, 2190.876
771.9489, 2177.147
772.4310, 2162.838
772.9131, 2151.760
773.3952, 2147.338
773.8773, 2153.555
774.3594, 2183.866
774.8416, 2204.279
775.3237, 2213.740
775.8058, 2213.653
776.2879, 2201.963
776.7700, 2178.563
777.2521, 2164.615
777.7343, 2166.484
778.2164, 2175.339
778.6985, 2179.335
779.1806, 2180.733
779.6627, 2184.754
780.1448, 2195.078
780.6270, 2206.874
781.1091, 2219.650
781.5912, 2232.367
782.0733, 2241.801
782.5554, 2249.716
783.0375, 2250.813
783.5197, 2239.063
784.0018, 2220.904
784.4839, 2225.288
784.9660, 2253.070
785.4481, 2273.632
785.9302, 2267.040
786.4124, 2245.839
786.8945, 2227.039
787.3766, 2211.294
787.8587, 2203.000
788.3408, 2206.403
788.8229, 2216.457
789.3051, 2234.058
789.7872, 2260.170
790.2693, 2274.787
790.7514, 2271.507
791.2335, 2266.157
791.7156, 2267.710
792.1978, 2275.990
792.6799, 2277.858
793.1620, 2272.713
793.6441, 2269.823
794.1262, 2284.701
794.6083, 2303.631
795.0905, 2300.805
795.5726, 2270.195
796.0547, 2250.657
796.5368, 2272.842
797.0189, 2306.219
797.5010, 2326.105
797.9832, 2325.091
798.4653, 2325.155
798.9474, 2325.915
799.4295, 2328.292
799.9116, 2334.798
800.3937, 2344.900
800.8759, 2350.764
801.3580, 2351.039
801.8401, 2348.931
802.3222, 2348.823
802.8043, 2348.328
803.2864, 2342.817
803.7686, 2324.074
804.2507, 2313.261
804.7328, 2323.835
805.2149, 2343.778
805.6970, 2356.299
806.1791, 2359.421
806.6613, 2358.528
807.1434, 2351.521
807.6255, 2344.717
808.1076, 2351.454
808.5897, 2369.440
809.0718, 2385.620
809.5540, 2396.666
810.0361, 2402.607
810.5182, 2401.547
811.0003, 2395.573
811.4824, 2388.776
811.9645, 2376.993
812.4467, 2371.098
812.9288, 2377.809
813.4109, 2391.510
813.8930, 2397.674
814.3751, 2394.202
814.8572, 2392.042
815.3394, 2393.771
815.8215, 2399.567
816.3036, 2414.522
816.7857, 2435.627
817.2678, 2448.140
817.7499, 2436.279
818.2321, 2421.058
818.7142, 2415.335
819.1963, 2418.390
819.6784, 2425.922
820.1605, 2447.293
820.6426, 2460.511
821.1247, 2454.738
821.6068, 2435.220
822.0889, 2436.318
822.5710, 2459.786
823.0532, 2482.715
823.5353, 2490.908
824.0174, 2491.071
824.4995, 2495.185
824.9816, 2502.673
825.4637, 2510.538
825.9459, 2517.084
826.4280, 2523.551
826.9101, 2531.205
827.3922, 2540.092
827.8743, 2546.901
828.3564, 2552.106
828.8386, 2554.255
829.3207, 2551.538
829.8028, 2544.845
830.2849, 2540.448
830.7670, 2538.378
831.2491, 2538.487
831.7313, 2543.590
832.2134, 2549.092
832.6955, 2546.140
833.1776, 2534.489
833.6597, 2533.574
834.1418, 2566.639
834.6240, 2597.040
835.1061, 2602.558
835.5882, 2579.058
836.0703, 2577.764
836.5524, 2605.785
837.0345, 2629.275
837.5167, 2615.117
837.9988, 2577.557
838.4809, 2560.004
838.9630, 2564.459
839.4451, 2572.478
839.9272, 2571.824
840.4094, 2569.155
840.8915, 2569.125
841.3736, 2572.039
841.8557, 2579.452
842.3378, 2594.617
842.8199, 2609.739
843.3021, 2618.166
843.7842, 2619.498
844.2663, 2630.284
844.7484, 2651.018
845.2305, 2668.908
845.7126, 2680.629
846.1948, 2686.515
846.6769, 2669.082
847.1590, 2681.760
847.6411, 2682.370
848.1232, 2682.486
848.6053, 2699.401
849.0875, 2685.361
849.5696, 2702.010
850.0517, 2706.408
850.5338, 2716.413
851.0159, 2714.277
851.4980, 2715.890
851.9802, 2729.650
852.4623, 2736.684
852.9444, 2733.150
853.4265, 2713.366
853.9086, 2691.557
854.3907, 2670.539
854.8729, 2670.631
855.3550, 2705.092
855.8371, 2729.368
856.3192, 2738.337
856.8013, 2739.933
857.2834, 2738.081
857.7656, 2732.603
858.2477, 2731.656
858.7298, 2735.598
859.2119, 2744.198
859.6940, 2763.601
860.1761, 2784.722
860.6583, 2792.602
861.1404, 2781.612
861.6225, 2775.951
862.1046, 2795.832
862.5867, 2816.038
863.0688, 2816.295
863.5510, 2788.295
864.0331, 2772.752
864.5152, 2771.510
864.9973, 2776.023
865.4794, 2779.539
865.9615, 2782.354
866.4437, 2783.716
866.9258, 2782.989
867.4079, 2788.146
867.8900, 2813.250
868.3721, 2840.884
868.8542, 2856.732
869.3364, 2857.031
869.8185, 2848.655
870.3006, 2823.987
870.7827, 2803.533
871.2648, 2806.978
871.7469, 2831.877
872.2291, 2854.253
872.7112, 2873.281
873.1933, 2883.393
873.6754, 2875.753
874.1575, 2858.970
874.6396, 2837.275
875.1218, 2807.182
875.6039, 2796.946
876.0860, 2832.206
876.5681, 2872.463
877.0502, 2895.613
877.5323, 2899.802
878.0145, 2902.794
878.4966, 2904.452
878.9787, 2905.534
879.4608, 2905.754
879.9429, 2906.158
880.4250, 2908.123
880.9072, 2911.759
881.3893, 2918.115
881.8714, 2929.695
882.3535, 2942.509
882.8356, 2954.413
883.3177, 2965.493
883.7999, 2975.753
884.2820, 2987.197
884.7641, 2991.657
885.2462, 2976.265
885.7283, 2950.137
886.2104, 2941.241
886.6926, 2949.792
887.1747, 2965.046
887.6568, 2992.703
888.1389, 3014.481
888.6210, 3012.566
889.1031, 2982.911
889.5853, 2969.879
890.0674, 2980.502
890.5495, 2996.888
891.0316, 3014.281
891.5137, 3030.746
891.9958, 3029.222
892.4780, 3010.962
892.9601, 2995.841
893.4422, 2999.740
893.9243, 3010.456
894.4064, 3016.518
894.8885, 3018.290
895.3707, 3026.159
895.8528, 3053.170
896.3349, 3072.713
896.8170, 3072.967
897.2991, 3058.302
897.7813, 3054.365
898.2634, 3061.162
898.7455, 3069.214
899.2276, 3069.326
899.7097, 3070.479
900.1918, 3090.132
900.6740, 3121.854
901.1561, 3141.511
901.6382, 3129.503
902.1203, 3116.310
902.6024, 3109.876
903.0845, 3109.487
903.5667, 3114.098
904.0488, 3124.573
904.5309, 3132.219
905.0130, 3131.858
905.4951, 3129.512
905.9772, 3135.125
906.4594, 3146.519
906.9415, 3158.002
907.4236, 3168.629
907.9057, 3177.379
908.3878, 3182.758
908.8699, 3186.295
909.3521, 3191.532
909.8342, 3199.843
910.3163, 3203.582
910.7984, 3199.066
911.2805, 3193.514
911.7626, 3203.396
912.2448, 3221.576
912.7269, 3230.189
913.2090, 3216.693
913.6911, 3203.426
914.1732, 3201.726
914.6553, 3206.300
915.1375, 3208.826
915.6196, 3204.953
916.1017, 3211.285
916.5838, 3232.093
917.0659, 3256.342
917.5480, 3270.345
918.0302, 3275.822
918.5123, 3277.592
918.9944, 3276.220
919.4765, 3272.616
919.9586, 3261.942
920.4407, 3252.428
920.9229, 3253.136
921.4050, 3270.860
921.8871, 3281.535
922.3692, 3282.357
922.8513, 3282.274
923.3334, 3290.318
923.8156, 3304.446
924.2977, 3318.045
924.7798, 3330.683
925.2619, 3340.181
925.7440, 3342.151
926.2261, 3342.314
926.7083, 3345.845
927.1904, 3354.425
927.6725, 3357.422
928.1546, 3350.109
928.6367, 3346.739
929.1188, 3360.420
929.6010, 3385.727
930.0831, 3390.448
930.5652, 3376.528
931.0473, 3365.394
931.5294, 3374.336
932.0115, 3388.321
932.4937, 3396.268
932.9758, 3398.534
933.4579, 3403.558
933.9400, 3412.131
934.4221, 3423.198
934.9042, 3438.191
935.3864, 3454.422
935.8685, 3463.832
936.3506, 3466.917
936.8327, 3467.369
937.3148, 3461.800
937.7969, 3459.363
938.2791, 3471.918
938.7612, 3492.135
939.2433, 3502.341
939.7254, 3491.925
940.2075, 3486.222
940.6896, 3489.672
941.1718, 3498.295
941.6539, 3507.290
942.1360, 3515.680
942.6181, 3516.399
943.1002, 3503.681
943.5823, 3493.783
944.0645, 3499.840
944.5466, 3516.050
945.0287, 3535.774
945.5108, 3567.512
945.9929, 3584.397
946.4750, 3581.213
946.9572, 3571.875
947.4393, 3569.525
947.9214, 3573.548
948.4035, 3583.265
948.8856, 3599.345
949.3677, 3610.342
949.8499, 3601.690
950.3320, 3588.462
950.8141, 3583.204
951.2962, 3588.777
951.7783, 3596.804
952.2604, 3610.129
952.7426, 3619.942
953.2247, 3617.833
953.7068, 3607.673
954.1889, 3606.839
954.6710, 3614.967
955.1531, 3628.907
955.6353, 3657.208
956.1174, 3681.369
956.5995, 3685.150
957.0816, 3671.305
957.5637, 3663.564
958.0458, 3664.942
958.5280, 3666.855
959.0101, 3665.988
959.4922, 3665.053
959.9743, 3669.491
960.4564, 3679.360
960.9385, 3695.709
961.4207, 3730.656
961.9028, 3756.566
962.3849, 3751.084
962.8670, 3728.848
963.3491, 3715.321
963.8312, 3712.285
964.3134, 3716.407
964.7955, 3729.330
965.2776, 3744.278
965.7597, 3751.967
966.2418, 3754.481
966.7239, 3756.564
967.2061, 3758.375
967.6882, 3763.330
968.1703, 3775.542
968.6524, 3789.999
969.1345, 3802.928
969.6166, 3814.585
970.0988, 3822.636
970.5809, 3826.367
971.0630, 3829.701
971.5451, 3837.311
972.0272, 3845.999
972.5093, 3849.573
972.9915, 3848.162
973.4736, 3845.132
973.9557, 3839.593
974.4378, 3835.426
974.9199, 3835.220
975.4020, 3837.968
975.8842, 3835.922
976.3663, 3827.259
976.8484, 3832.926
977.3305, 3869.802
977.8126, 3913.614
978.2947, 3927.240
978.7769, 3920.458
979.2590, 3914.539
979.7411, 3921.026
980.2232, 3923.508
980.7053, 3912.693
981.1874, 3901.049
981.6696, 3908.089
982.1517, 3934.272
982.6338, 3955.647
983.1159, 3968.430
983.5980, 3977.260
984.0801, 3990.662
984.5623, 4000.505
985.0444, 3993.501
985.5264, 3958.526
986.0085, 3943.401
986.4907, 3964.058
986.9728, 3989.414
987.4549, 4000.026
987.9370, 3997.711
988.4191, 4001.313
988.9012, 4010.554
989.3834, 4020.681
989.8655, 4035.166
990.3476, 4043.708
990.8297, 4030.726
991.3118, 4001.876
991.7939, 3994.231
992.2761, 4020.124
992.7582, 4043.441
993.2403, 4052.952
993.7224, 4056.670
994.2045, 4075.333
994.6866, 4103.256
995.1688, 4121.472
995.6509, 4120.172
996.1330, 4113.383
996.6151, 4099.593
997.0972, 4088.950
997.5793, 4096.038
998.0615, 4131.150
998.5436, 4145.865
999.0257, 4134.119
999.5078, 4118.318
999.9899, 4119.351
1000.472, 4132.757
1000.954, 4153.944
1001.436, 4182.173
1001.918, 4206.885
1002.401, 4229.870
1002.883, 4240.633
1003.365, 4229.271
1003.847, 4199.598
1004.329, 4190.000
1004.811, 4200.812
1005.293, 4217.698
1005.775, 4240.260
1006.257, 4259.372
1006.740, 4262.912
1007.222, 4255.627
1007.704, 4249.071
1008.186, 4249.609
1008.668, 4245.569
1009.150, 4230.753
1009.632, 4217.078
1010.114, 4228.102
1010.596, 4258.384
1011.079, 4275.719
1011.561, 4271.379
1012.043, 4269.057
1012.525, 4293.902
1013.007, 4324.123
1013.489, 4338.351
1013.971, 4331.276
1014.453, 4329.801
1014.936, 4336.421
1015.418, 4340.553
1015.900, 4325.622
1016.382, 4306.222
1016.864, 4326.584
1017.346, 4377.820
1017.828, 4412.943
1018.310, 4390.881
1018.792, 4369.573
1019.275, 4373.193
1019.757, 4392.200
1020.239, 4405.042
1020.721, 4411.799
1021.203, 4410.496
1021.685, 4396.568
1022.167, 4386.289
1022.649, 4404.012
1023.132, 4434.822
1023.614, 4458.611
1024.096, 4472.676
1024.578, 4474.546
1025.060, 4458.689
1025.542, 4440.241
1026.024, 4426.630
1026.506, 4419.584
1026.989, 4436.094
1027.471, 4474.512
1027.953, 4508.813
1028.435, 4518.412
1028.917, 4521.936
1029.399, 4532.724
1029.881, 4548.362
1030.363, 4551.025
1030.845, 4534.206
1031.328, 4530.393
1031.810, 4553.047
1032.292, 4584.708
1032.774, 4600.833
1033.256, 4604.112
1033.738, 4599.053
1034.220, 4577.368
1034.702, 4566.225
1035.184, 4579.805
1035.667, 4598.777
1036.149, 4608.434
1036.631, 4608.777
1037.113, 4602.563
1037.595, 4589.507
1038.077, 4584.526
1038.559, 4607.721
1039.041, 4637.151
1039.524, 4653.841
1040.006, 4657.624
1040.488, 4666.134
1040.970, 4684.823
1041.452, 4696.605
1041.934, 4694.115
1042.416, 4684.334
1042.898, 4677.670
1043.380, 4675.439
1043.863, 4681.951
1044.345, 4705.807
1044.827, 4725.745
1045.309, 4733.473
1045.791, 4733.364
1046.273, 4725.456
1046.755, 4707.076
1047.237, 4713.295
1047.719, 4747.206
1048.202, 4779.120
1048.684, 4778.199
1049.166, 4767.326
1049.648, 4773.106
1050.130, 4795.095
1050.612, 4803.785
1051.094, 4786.512
1051.576, 4775.333
1052.059, 4781.025
1052.541, 4796.263
1053.023, 4800.820
1053.505, 4800.019
1053.987, 4812.646
1054.469, 4854.449
1054.951, 4891.214
1055.433, 4907.662
1055.916, 4910.314
1056.398, 4902.985
1056.880, 4881.090
1057.362, 4881.063
1057.844, 4905.529
1058.326, 4927.249
1058.808, 4913.854
1059.290, 4893.097
1059.772, 4896.995
1060.255, 4924.591
1060.737, 4951.744
1061.219, 4976.728
1061.701, 4997.939
1062.183, 5016.312
1062.665, 5028.962
1063.147, 5026.180
1063.629, 5012.163
1064.111, 4999.267
1064.594, 4986.689
1065.076, 4986.805
1065.558, 5021.861
1066.040, 5060.618
1066.522, 5073.450
1067.004, 5054.582
1067.486, 5054.603
1067.968, 5074.910
1068.450, 5095.498
1068.933, 5101.160
1069.415, 5100.337
1069.897, 5101.147
1070.379, 5103.308
1070.861, 5103.588
1071.343, 5097.659
1071.825, 5097.399
1072.307, 5105.670
1072.790, 5119.380
1073.272, 5135.346
1073.754, 5152.175
1074.236, 5166.605
1074.718, 5179.204
1075.200, 5183.995
1075.682, 5168.354
1076.164, 5152.297
1076.646, 5148.028
1077.129, 5155.435
1077.611, 5170.545
1078.093, 5193.421
1078.575, 5218.013
1079.057, 5243.020
1079.539, 5265.704
1080.021, 5284.992
1080.503, 5299.691
1080.985, 5305.865
1081.468, 5299.336
1081.950, 5294.614
1082.432, 5292.899
1082.914, 5294.844
1083.396, 5303.230
1083.878, 5315.317
1084.360, 5325.496
1084.842, 5332.831
1085.325, 5340.854
1085.807, 5351.938
1086.289, 5363.037
1086.771, 5374.502
1087.253, 5384.656
1087.735, 5380.555
1088.217, 5364.600
1088.699, 5356.852
1089.182, 5369.834
1089.664, 5388.345
1090.146, 5406.079
1090.628, 5421.054
1091.110, 5429.901
1091.592, 5430.081
1092.074, 5433.955
1092.556, 5442.371
1093.038, 5452.374
1093.521, 5463.126
1094.003, 5472.694
1094.485, 5477.026
1094.967, 5476.674
1095.449, 5479.032
1095.931, 5483.773
1096.413, 5495.964
1096.895, 5523.094
1097.377, 5551.045
1097.860, 5533.905
1098.342, 5491.036
1098.824, 5491.503
1099.306, 5573.267
1099.788, 5636.640
1100.270, 5614.460
1100.752, 5571.463
1101.234, 5554.385
1101.717, 5563.569
1102.199, 5578.976
1102.681, 5600.546
1103.163, 5619.639
1103.645, 5629.649
1104.127, 5635.793
1104.609, 5638.612
1105.091, 5641.201
1105.573, 5651.747
1106.056, 5672.394
1106.538, 5696.663
1107.020, 5726.167
1107.502, 5750.668
1107.984, 5752.366
1108.466, 5743.040
1108.948, 5741.227
1109.430, 5749.473
1109.912, 5755.739
1110.395, 5749.409
1110.877, 5752.092
1111.359, 5773.487
1111.841, 5807.931
1112.323, 5841.675
1112.805, 5872.991
1113.287, 5896.055
1113.769, 5908.490
1114.252, 5912.093
1114.734, 5896.633
1115.216, 5880.873
1115.698, 5883.991
1116.180, 5908.015
1116.662, 5924.840
1117.144, 5934.277
1117.626, 5938.573
1118.109, 5934.193
1118.591, 5930.074
1119.073, 5937.271
1119.555, 5951.119
1120.037, 5950.508
1120.519, 5924.930
1121.001, 5926.608
1121.483, 5971.768
1121.965, 6021.177
1122.448, 6014.742
1122.930, 5985.171
1123.412, 5982.828
1123.894, 6019.718
1124.376, 6042.514
1124.858, 6036.831
1125.340, 6031.104
1125.822, 6036.836
1126.304, 6051.494
1126.787, 6072.440
1127.269, 6096.360
1127.751, 6113.128
1128.233, 6116.700
1128.715, 6115.376
1129.197, 6098.289
1129.679, 6089.371
1130.161, 6119.874
1130.644, 6185.862
1131.126, 6210.599
1131.608, 6193.751
1132.090, 6177.469
1132.572, 6192.573
1133.054, 6213.762
1133.536, 6226.589
1134.018, 6233.161
1134.500, 6240.890
1134.983, 6250.240
1135.465, 6254.994
1135.947, 6252.583
1136.429, 6252.802
1136.911, 6270.295
1137.393, 6292.953
1137.875, 6308.952
1138.357, 6316.333
1138.839, 6316.513
1139.322, 6306.045
1139.804, 6301.058
1140.286, 6310.117
1140.768, 6326.642
1141.250, 6338.138
1141.732, 6348.935
1142.214, 6368.306
1142.696, 6414.552
1143.179, 6438.880
1143.661, 6428.474
1144.143, 6413.730
1144.625, 6420.730
1145.107, 6442.886
1145.589, 6461.655
1146.071, 6476.044
1146.553, 6483.620
1147.036, 6473.593
1147.518, 6468.405
1148.000, 6473.284
1148.482, 6486.858
1148.964, 6515.207
1149.446, 6552.847
1149.928, 6557.512
1150.410, 6520.202
1150.892, 6491.228
1151.375, 6506.655
1151.857, 6539.419
1152.339, 6581.360
1152.821, 6626.197
1153.303, 6637.372
1153.785, 6615.434
1154.267, 6603.702
1154.749, 6621.626
1155.231, 6642.947
1155.714, 6638.844
1156.196, 6628.108
1156.678, 6634.503
1157.160, 6662.344
1157.642, 6684.519
1158.124, 6700.220
1158.606, 6715.474
1159.088, 6738.542
1159.571, 6759.553
1160.053, 6760.552
1160.535, 6751.444
1161.017, 6758.380
1161.499, 6801.694
1161.981, 6820.378
1162.463, 6804.184
1162.945, 6782.751
1163.427, 6792.049
1163.910, 6814.627
1164.392, 6819.758
1164.874, 6808.090
1165.356, 6809.537
1165.838, 6841.329
1166.320, 6870.818
1166.802, 6891.827
1167.284, 6906.059
1167.766, 6915.421
1168.249, 6920.774
1168.731, 6924.379
1169.213, 6926.684
1169.695, 6926.439
1170.177, 6912.378
1170.659, 6909.685
1171.141, 6934.843
1171.623, 6977.112
1172.106, 6993.936
1172.588, 6992.579
1173.070, 7002.727
1173.552, 7048.143
1174.034, 7085.195
1174.516, 7091.518
1174.998, 7085.995
1175.480, 7082.826
1175.963, 7081.508
1176.445, 7059.333
1176.927, 7020.411
1177.409, 7007.197
1177.891, 7078.722
1178.373, 7146.121
1178.855, 7160.206
1179.337, 7143.965
1179.819, 7122.803
1180.302, 7096.116
1180.784, 7111.072
1181.266, 7174.963
1181.748, 7237.349
1182.230, 7257.037
1182.712, 7263.178
1183.194, 7277.639
1183.676, 7296.615
1184.158, 7298.822
1184.641, 7282.414
1185.123, 7271.380
1185.605, 7270.942
1186.087, 7279.067
1186.569, 7297.479
1187.051, 7320.959
1187.533, 7345.411
1188.015, 7370.429
1188.498, 7392.291
1188.980, 7410.889
1189.462, 7424.075
1189.944, 7427.789
1190.426, 7430.675
1190.908, 7442.077
1191.390, 7459.579
1191.872, 7480.469
1192.354, 7507.403
1192.837, 7531.144
1193.319, 7554.406
1193.801, 7563.010
1194.283, 7530.513
1194.765, 7489.889
1195.247, 7487.554
1195.729, 7513.016
1196.211, 7538.896
1196.693, 7561.993
1197.176, 7583.322
1197.658, 7603.965
1198.140, 7619.148
1198.622, 7620.731
1199.104, 7615.569
1199.586, 7609.081
1200.068, 7603.704
1200.550, 7614.372
1201.033, 7653.648
1201.515, 7687.834
1201.997, 7712.174
1202.479, 7726.902
1202.961, 7724.207
1203.443, 7715.451
1203.925, 7723.347
1204.407, 7752.353
1204.890, 7767.340
1205.372, 7754.149
1205.854, 7744.163
1206.336, 7747.205
1206.818, 7759.881
1207.300, 7778.789
1207.782, 7801.025
1208.264, 7821.296
1208.746, 7840.502
1209.229, 7848.025
1209.711, 7829.720
1210.193, 7825.625
1210.675, 7868.629
1211.157, 7932.574
1211.639, 7952.941
1212.121, 7940.439
1212.603, 7922.794
1213.085, 7892.214
1213.568, 7889.399
1214.050, 7931.634
1214.532, 7977.269
1215.014, 7990.973
1215.496, 7983.090
1215.978, 7978.699
1216.460, 7979.548
1216.942, 7991.179
1217.425, 8023.753
1217.907, 8058.284
1218.389, 8098.507
1218.871, 8127.250
1219.353, 8105.000
1219.835, 8058.463
1220.317, 8077.325
1220.799, 8158.207
1221.281, 8213.050
1221.764, 8174.058
1222.246, 8146.804
1222.728, 8158.909
1223.210, 8189.066
1223.692, 8201.745
1224.174, 8204.486
1224.656, 8219.642
1225.138, 8250.799
1225.620, 8277.512
1226.103, 8293.075
1226.585, 8299.871
1227.067, 8294.163
1227.549, 8284.639
1228.031, 8295.807
1228.513, 8318.642
1228.995, 8325.884
1229.477, 8306.266
1229.960, 8297.374
1230.442, 8317.870
1230.924, 8341.729
1231.406, 8359.111
1231.888, 8370.862
1232.370, 8369.868
1232.852, 8365.345
1233.334, 8386.639
1233.816, 8468.744
1234.299, 8514.326
1234.781, 8485.648
1235.263, 8447.590
1235.745, 8440.182
1236.227, 8456.092
1236.709, 8477.461
1237.191, 8502.341
1237.673, 8524.361
1238.156, 8536.394
1238.638, 8552.864
1239.120, 8579.006
1239.602, 8603.158
1240.084, 8612.625
1240.566, 8612.250
1241.048, 8611.021
1241.530, 8611.089
1242.012, 8620.185
1242.495, 8648.177
1242.977, 8676.968
1243.459, 8705.816
1243.941, 8730.331
1244.423, 8739.941
1244.905, 8742.961
1245.387, 8757.605
1245.869, 8784.008
1246.351, 8814.236
1246.834, 8862.394
1247.316, 8885.977
1247.798, 8871.870
1248.280, 8843.668
1248.762, 8828.262
1249.244, 8824.082
1249.726, 8825.747
1250.208, 8833.004
1250.691, 8862.297
1251.173, 8936.235
1251.655, 8987.822
1252.137, 8995.932
1252.619, 8984.646
1253.101, 8992.681
1253.583, 9006.812
1254.065, 8999.917
1254.547, 8964.065
1255.030, 8958.000
1255.512, 8996.931
1255.994, 9033.693
1256.476, 9051.730
1256.958, 9059.422
1257.440, 9059.018
1257.922, 9061.563
1258.404, 9089.447
1258.886, 9159.387
1259.369, 9186.437
1259.851, 9157.175
1260.333, 9137.281
1260.815, 9166.973
1261.297, 9205.877
##END=



