##NAMES=Cinnabar
##RRUFFID=R070532
##IDEAL CHEMISTRY=HgS
##LOCALITY=Charcas, San Luis Potosi, Mexico
##OWNER=RRUFF
##SOURCE=James Shigley
##DESCRIPTION=Red prismatic crystals associated with calcite
##STATUS=The identification of this mineral is confirmed by single-crystal X-ray diffraction and chemical analysis.
##URL=rruff.info/R070532
##MEASURED CHEMISTRY=Hg_1.00_S_1.00_
151.1196, 1153.748
151.6017, 1134.500
152.0838, 1120.244
152.5659, 1114.408
153.0481, 1117.325
153.5302, 1125.245
154.0123, 1146.256
154.4944, 1169.083
154.9765, 1182.280
155.4586, 1167.468
155.9408, 1158.359
156.4229, 1167.101
156.9050, 1196.360
157.3871, 1214.211
157.8692, 1218.256
158.3513, 1213.667
158.8335, 1207.391
159.3156, 1199.406
159.7977, 1191.566
160.2798, 1183.959
160.7619, 1173.837
161.2440, 1169.514
161.7262, 1179.185
162.2083, 1197.179
162.6904, 1208.930
163.1725, 1203.390
163.6546, 1193.137
164.1367, 1186.537
164.6189, 1187.085
165.1010, 1189.430
165.5831, 1191.669
166.0652, 1193.733
166.5473, 1195.412
167.0294, 1195.246
167.5116, 1195.059
167.9937, 1196.629
168.4758, 1201.861
168.9579, 1207.942
169.4400, 1213.940
169.9221, 1219.750
170.4043, 1223.412
170.8864, 1224.621
171.3685, 1222.722
171.8506, 1216.742
172.3327, 1197.583
172.8148, 1179.137
173.2970, 1177.395
173.7791, 1194.337
174.2612, 1212.146
174.7433, 1216.049
175.2254, 1209.653
175.7076, 1200.724
176.1897, 1190.239
176.6718, 1180.456
177.1539, 1175.081
177.6360, 1175.457
178.1181, 1176.377
178.6003, 1169.087
179.0824, 1156.368
179.5645, 1149.468
180.0466, 1156.337
180.5287, 1173.151
181.0108, 1194.991
181.4930, 1225.443
181.9751, 1252.094
182.4572, 1252.181
182.9393, 1228.621
183.4214, 1204.739
183.9035, 1200.680
184.3857, 1209.589
184.8678, 1210.706
185.3499, 1196.114
185.8320, 1175.652
186.3141, 1168.703
186.7962, 1175.163
187.2784, 1185.542
187.7605, 1192.186
188.2426, 1195.816
188.7247, 1200.698
189.2068, 1210.241
189.6889, 1220.722
190.1711, 1219.990
190.6532, 1206.936
191.1353, 1192.295
191.6174, 1187.372
192.0995, 1191.573
192.5816, 1197.684
193.0638, 1204.656
193.5459, 1211.865
194.0280, 1215.850
194.5101, 1216.202
194.9922, 1215.151
195.4743, 1216.204
195.9565, 1219.431
196.4386, 1220.397
196.9207, 1215.632
197.4028, 1205.869
197.8849, 1200.909
198.3671, 1201.188
198.8492, 1205.216
199.3313, 1212.193
199.8134, 1222.819
200.2955, 1231.061
200.7776, 1233.497
201.2598, 1229.884
201.7419, 1227.014
202.2240, 1224.938
202.7061, 1223.556
203.1882, 1222.615
203.6703, 1222.022
204.1525, 1222.125
204.6346, 1223.525
205.1167, 1226.509
205.5988, 1227.639
206.0809, 1225.211
206.5630, 1222.000
207.0452, 1226.751
207.5273, 1242.623
208.0094, 1257.054
208.4915, 1261.287
208.9736, 1252.560
209.4557, 1248.800
209.9379, 1253.234
210.4200, 1263.036
210.9021, 1267.394
211.3842, 1263.826
211.8663, 1260.516
212.3484, 1264.279
212.8306, 1278.089
213.3127, 1286.818
213.7948, 1286.222
214.2769, 1278.884
214.7590, 1280.226
215.2411, 1293.241
215.7233, 1309.528
216.2054, 1322.563
216.6875, 1331.305
217.1696, 1340.153
217.6517, 1351.201
218.1338, 1363.698
218.6160, 1366.956
219.0981, 1354.198
219.5802, 1341.903
220.0623, 1346.974
220.5444, 1378.757
221.0265, 1403.883
221.5087, 1414.473
221.9908, 1410.743
222.4729, 1411.624
222.9550, 1417.619
223.4371, 1427.635
223.9192, 1441.364
224.4014, 1460.282
224.8835, 1478.937
225.3656, 1494.768
225.8477, 1507.389
226.3298, 1527.699
226.8119, 1562.572
227.2941, 1598.461
227.7762, 1617.708
228.2583, 1605.297
228.7404, 1605.711
229.2225, 1633.927
229.7046, 1694.438
230.1868, 1741.473
230.6689, 1768.005
231.1510, 1786.348
231.6331, 1812.512
232.1152, 1849.988
232.5974, 1888.446
233.0795, 1923.657
233.5616, 1952.433
234.0437, 1995.569
234.5258, 2056.264
235.0079, 2129.606
235.4901, 2209.810
235.9722, 2300.893
236.4543, 2392.261
236.9364, 2481.233
237.4185, 2567.894
237.9006, 2651.479
238.3828, 2727.218
238.8649, 2802.554
239.3470, 2890.870
239.8291, 2995.185
240.3112, 3107.214
240.7933, 3224.823
241.2755, 3351.563
241.7576, 3472.236
242.2397, 3581.918
242.7218, 3688.014
243.2039, 3802.704
243.6860, 3922.612
244.1682, 4057.298
244.6503, 4213.547
245.1324, 4405.291
245.6145, 4573.328
246.0966, 4705.805
246.5787, 4820.632
247.0609, 4952.032
247.5430, 5104.505
248.0251, 5266.483
248.5072, 5439.898
248.9893, 5637.713
249.4714, 5801.239
249.9536, 5922.515
250.4357, 6013.223
250.9178, 6102.093
251.3999, 6209.921
251.8820, 6279.488
252.3641, 6286.625
252.8463, 6221.283
253.3284, 6124.018
253.8105, 5999.562
254.2926, 5842.205
254.7747, 5635.427
255.2568, 5357.749
255.7390, 5067.667
256.2211, 4783.480
256.7032, 4507.204
257.1853, 4236.405
257.6674, 3966.572
258.1495, 3706.619
258.6317, 3479.671
259.1138, 3294.476
259.5959, 3128.885
260.0780, 2975.738
260.5601, 2832.198
261.0422, 2705.750
261.5244, 2599.379
262.0065, 2508.071
262.4886, 2423.443
262.9707, 2344.162
263.4528, 2272.839
263.9349, 2209.318
264.4171, 2151.927
264.8992, 2108.734
265.3813, 2084.646
265.8634, 2070.580
266.3455, 2045.458
266.8276, 2004.740
267.3098, 1963.833
267.7919, 1927.734
268.2740, 1895.643
268.7561, 1874.284
269.2382, 1867.637
269.7203, 1868.836
270.2025, 1863.466
270.6846, 1849.620
271.1667, 1835.053
271.6488, 1822.471
272.1309, 1811.682
272.6130, 1804.451
273.0952, 1800.876
273.5773, 1800.792
274.0594, 1803.802
274.5415, 1809.771
275.0236, 1819.291
275.5057, 1835.362
275.9879, 1859.540
276.4700, 1873.655
276.9521, 1875.054
277.4342, 1869.703
277.9163, 1866.565
278.3984, 1864.905
278.8806, 1869.821
279.3627, 1887.116
279.8448, 1917.164
280.3269, 1938.777
280.8090, 1948.389
281.2911, 1954.854
281.7733, 1976.949
282.2554, 2016.637
282.7375, 2049.989
283.2196, 2059.451
283.7017, 2046.811
284.1838, 2052.074
284.6660, 2078.740
285.1481, 2116.374
285.6302, 2155.559
286.1123, 2196.447
286.5944, 2224.383
287.0765, 2228.727
287.5587, 2212.353
288.0408, 2195.526
288.5229, 2178.531
289.0050, 2160.674
289.4871, 2141.576
289.9692, 2121.087
290.4514, 2097.864
290.9335, 2072.375
291.4156, 2043.778
291.8977, 2007.624
292.3798, 1962.582
292.8619, 1915.829
293.3441, 1876.593
293.8262, 1843.698
294.3083, 1812.717
294.7904, 1781.869
295.2726, 1751.325
295.7547, 1720.553
296.2368, 1689.505
296.7189, 1661.003
297.2010, 1639.169
297.6831, 1622.991
298.1653, 1608.720
298.6474, 1593.370
299.1295, 1579.567
299.6116, 1572.923
300.0937, 1573.674
300.5758, 1576.128
301.0580, 1577.652
301.5401, 1576.993
302.0222, 1571.038
302.5043, 1553.499
302.9864, 1532.976
303.4685, 1521.176
303.9507, 1517.780
304.4328, 1517.706
304.9149, 1519.465
305.3970, 1521.417
305.8791, 1520.751
306.3612, 1514.291
306.8434, 1506.629
307.3255, 1502.514
307.8076, 1501.634
308.2897, 1501.146
308.7718, 1498.833
309.2539, 1495.870
309.7361, 1493.950
310.2182, 1496.312
310.7003, 1496.849
311.1824, 1488.692
311.6645, 1473.627
312.1466, 1460.831
312.6288, 1453.006
313.1109, 1450.871
313.5930, 1455.952
314.0751, 1476.571
314.5572, 1493.452
315.0393, 1493.217
315.5215, 1479.999
316.0036, 1468.211
316.4857, 1463.279
316.9678, 1462.555
317.4499, 1464.316
317.9320, 1469.274
318.4142, 1474.863
318.8963, 1481.572
319.3784, 1488.313
319.8605, 1492.551
320.3426, 1494.409
320.8247, 1492.760
321.3069, 1485.462
321.7890, 1466.208
322.2711, 1454.383
322.7532, 1458.305
323.2353, 1472.086
323.7174, 1484.701
324.1996, 1492.589
324.6817, 1500.206
325.1638, 1509.654
325.6459, 1522.901
326.1280, 1532.966
326.6101, 1540.978
327.0923, 1545.078
327.5744, 1542.517
328.0565, 1518.113
328.5386, 1501.894
329.0207, 1504.155
329.5028, 1531.112
329.9850, 1549.119
330.4671, 1552.859
330.9492, 1550.568
331.4313, 1550.909
331.9134, 1552.411
332.3955, 1558.831
332.8777, 1573.324
333.3598, 1596.229
333.8419, 1612.778
334.3240, 1619.847
334.8061, 1623.709
335.2882, 1630.064
335.7704, 1640.118
336.2525, 1649.828
336.7346, 1658.497
337.2167, 1666.204
337.6988, 1674.306
338.1809, 1683.365
338.6631, 1691.744
339.1452, 1698.014
339.6273, 1701.954
340.1094, 1705.098
340.5915, 1707.719
341.0736, 1709.710
341.5558, 1710.652
342.0379, 1710.597
342.5200, 1709.492
343.0021, 1706.479
343.4842, 1701.604
343.9663, 1699.526
344.4485, 1702.089
344.9306, 1705.503
345.4127, 1700.123
345.8948, 1686.042
346.3769, 1674.444
346.8590, 1674.141
347.3412, 1682.431
347.8233, 1686.024
348.3054, 1683.187
348.7875, 1679.315
349.2696, 1684.522
349.7517, 1696.324
350.2339, 1702.969
350.7160, 1697.458
351.1981, 1683.199
351.6802, 1664.329
352.1623, 1640.417
352.6444, 1618.238
353.1266, 1606.257
353.6087, 1600.978
354.0908, 1595.316
354.5729, 1584.729
355.0550, 1573.306
355.5371, 1566.688
356.0193, 1564.463
356.5014, 1560.815
356.9835, 1551.131
357.4656, 1537.898
357.9477, 1524.055
358.4298, 1508.837
358.9120, 1495.211
359.3941, 1485.024
359.8762, 1478.118
360.3583, 1473.550
360.8404, 1471.823
361.3225, 1471.810
361.8047, 1472.873
362.2868, 1476.230
362.7689, 1478.287
363.2510, 1478.672
363.7331, 1476.795
364.2152, 1471.242
364.6974, 1454.603
365.1795, 1439.720
365.6616, 1432.957
366.1437, 1437.974
366.6258, 1443.178
367.1079, 1445.025
367.5901, 1446.472
368.0722, 1451.958
368.5543, 1471.528
369.0364, 1485.860
369.5185, 1488.542
370.0006, 1477.038
370.4828, 1468.391
370.9649, 1464.124
371.4470, 1461.801
371.9291, 1458.879
372.4112, 1453.389
372.8933, 1450.648
373.3755, 1452.798
373.8576, 1459.272
374.3397, 1461.974
374.8218, 1458.536
375.3039, 1454.880
375.7860, 1455.613
376.2682, 1461.841
376.7503, 1467.982
377.2324, 1473.535
377.7145, 1478.472
378.1967, 1482.712
378.6788, 1486.122
379.1609, 1489.350
379.6430, 1493.946
380.1251, 1499.798
380.6072, 1500.252
381.0894, 1493.477
381.5715, 1484.737
382.0536, 1482.884
382.5357, 1487.517
383.0178, 1492.421
383.4999, 1493.966
383.9821, 1493.601
384.4642, 1496.429
384.9463, 1502.875
385.4284, 1508.954
385.9105, 1509.065
386.3926, 1505.530
386.8748, 1504.828
387.3569, 1512.890
387.8390, 1522.184
388.3211, 1521.252
388.8032, 1511.194
389.2853, 1502.863
389.7675, 1508.529
390.2496, 1518.348
390.7317, 1519.370
391.2138, 1502.280
391.6959, 1485.855
392.1780, 1484.424
392.6602, 1493.682
393.1423, 1500.830
393.6244, 1493.895
394.1065, 1487.546
394.5886, 1493.478
395.0707, 1519.800
395.5529, 1538.255
396.0350, 1532.563
396.5171, 1515.231
396.9992, 1504.558
397.4813, 1512.147
397.9634, 1519.664
398.4456, 1520.480
398.9277, 1512.805
399.4098, 1509.394
399.8919, 1518.609
400.3740, 1528.149
400.8561, 1527.856
401.3383, 1508.159
401.8204, 1492.329
402.3025, 1481.469
402.7846, 1476.123
403.2667, 1481.336
403.7488, 1504.011
404.2310, 1526.593
404.7131, 1538.757
405.1952, 1538.320
405.6773, 1534.633
406.1594, 1525.793
406.6415, 1516.188
407.1237, 1517.033
407.6058, 1530.511
408.0879, 1541.224
408.5700, 1539.168
409.0521, 1525.876
409.5342, 1525.110
410.0164, 1539.524
410.4985, 1554.244
410.9806, 1547.176
411.4627, 1522.296
411.9448, 1505.914
412.4269, 1511.020
412.9091, 1526.665
413.3912, 1530.936
413.8733, 1524.727
414.3554, 1517.517
414.8375, 1517.229
415.3196, 1520.633
415.8018, 1522.345
416.2839, 1520.316
416.7660, 1518.300
417.2481, 1519.026
417.7302, 1522.312
418.2123, 1527.789
418.6945, 1539.899
419.1766, 1551.013
419.6587, 1554.198
420.1408, 1547.313
420.6229, 1541.369
421.1050, 1541.559
421.5872, 1545.140
422.0693, 1548.946
422.5514, 1554.185
423.0335, 1557.468
423.5156, 1556.129
423.9977, 1550.360
424.4799, 1548.074
424.9620, 1554.233
425.4441, 1561.357
425.9262, 1565.060
426.4083, 1561.092
426.8904, 1559.856
427.3726, 1562.532
427.8547, 1567.941
428.3368, 1572.763
428.8189, 1575.692
429.3010, 1580.614
429.7831, 1591.136
430.2653, 1609.255
430.7474, 1616.505
431.2295, 1610.040
431.7116, 1597.762
432.1937, 1587.877
432.6758, 1580.187
433.1580, 1578.235
433.6401, 1585.045
434.1222, 1597.545
434.6043, 1605.775
435.0864, 1609.630
435.5685, 1611.209
436.0507, 1612.876
436.5328, 1613.582
437.0149, 1608.690
437.4970, 1594.776
437.9791, 1581.712
438.4612, 1585.336
438.9434, 1600.838
439.4255, 1613.051
439.9076, 1607.265
440.3897, 1597.932
440.8718, 1602.203
441.3539, 1622.008
441.8361, 1640.194
442.3182, 1647.353
442.8003, 1647.061
443.2824, 1643.384
443.7645, 1633.680
444.2466, 1624.763
444.7288, 1618.214
445.2109, 1614.250
445.6930, 1614.251
446.1751, 1621.234
446.6572, 1630.123
447.1393, 1638.484
447.6215, 1646.547
448.1036, 1653.321
448.5857, 1661.448
449.0678, 1667.428
449.5499, 1664.764
450.0320, 1646.055
450.5142, 1631.083
450.9963, 1625.983
451.4784, 1631.031
451.9605, 1634.017
452.4426, 1633.780
452.9247, 1633.891
453.4069, 1638.378
453.8890, 1647.857
454.3711, 1655.170
454.8532, 1659.291
455.3353, 1660.618
455.8174, 1657.959
456.2996, 1651.373
456.7817, 1648.336
457.2638, 1659.099
457.7459, 1676.270
458.2280, 1677.897
458.7102, 1661.046
459.1923, 1642.322
459.6744, 1638.286
460.1565, 1644.787
460.6386, 1653.485
461.1208, 1666.594
461.6029, 1676.481
462.0850, 1671.960
462.5671, 1656.378
463.0492, 1647.910
463.5313, 1663.564
464.0135, 1685.294
464.4956, 1699.714
464.9777, 1704.551
465.4598, 1702.731
465.9419, 1687.404
466.4240, 1667.327
466.9062, 1656.994
467.3883, 1667.431
467.8704, 1678.871
468.3525, 1686.016
468.8346, 1688.234
469.3167, 1692.665
469.7989, 1701.601
470.2810, 1710.190
470.7631, 1715.339
471.2452, 1717.615
471.7273, 1713.635
472.2094, 1699.427
472.6916, 1681.489
473.1737, 1676.761
473.6558, 1687.031
474.1379, 1699.253
474.6200, 1708.065
475.1021, 1713.718
475.5843, 1718.330
476.0664, 1722.035
476.5485, 1724.249
477.0306, 1721.513
477.5127, 1716.350
477.9948, 1717.529
478.4770, 1732.534
478.9591, 1748.898
479.4412, 1748.279
479.9233, 1734.362
480.4054, 1723.310
480.8875, 1725.321
481.3697, 1733.880
481.8518, 1744.332
482.3339, 1756.581
482.8160, 1768.075
483.2981, 1781.276
483.7802, 1791.962
484.2624, 1794.541
484.7445, 1771.758
485.2266, 1757.606
485.7087, 1768.048
486.1908, 1800.511
486.6729, 1817.506
487.1551, 1804.174
487.6372, 1788.508
488.1193, 1784.419
488.6014, 1797.654
489.0835, 1808.941
489.5656, 1819.263
490.0478, 1826.785
490.5299, 1827.793
491.0120, 1820.902
491.4941, 1813.979
491.9762, 1808.717
492.4583, 1805.379
492.9405, 1806.155
493.4226, 1811.429
493.9047, 1816.207
494.3868, 1814.937
494.8689, 1809.811
495.3510, 1807.652
495.8332, 1809.673
496.3153, 1814.310
496.7974, 1821.353
497.2795, 1829.718
497.7616, 1836.631
498.2437, 1841.167
498.7259, 1843.487
499.2080, 1843.385
499.6901, 1840.908
500.1722, 1837.393
500.6543, 1828.974
501.1364, 1822.469
501.6186, 1823.674
502.1007, 1844.473
502.5828, 1857.163
503.0649, 1848.623
503.5470, 1829.689
504.0291, 1824.745
504.5113, 1850.448
504.9934, 1869.403
505.4755, 1869.904
505.9576, 1851.154
506.4397, 1836.048
506.9218, 1822.244
507.4040, 1816.442
507.8861, 1828.827
508.3682, 1862.156
508.8503, 1883.651
509.3324, 1887.410
509.8145, 1880.876
510.2967, 1875.478
510.7788, 1871.392
511.2609, 1870.960
511.7430, 1880.210
512.2252, 1892.506
512.7073, 1893.493
513.1894, 1883.200
513.6715, 1871.493
514.1536, 1863.936
514.6357, 1860.281
515.1179, 1861.172
515.6000, 1870.913
516.0821, 1877.524
516.5642, 1866.710
517.0463, 1848.626
517.5284, 1844.137
518.0106, 1878.130
518.4927, 1909.890
518.9748, 1921.349
519.4569, 1909.285
519.9390, 1902.475
520.4211, 1907.076
520.9033, 1912.940
521.3854, 1912.723
521.8675, 1901.455
522.3496, 1895.447
522.8317, 1895.590
523.3138, 1901.480
523.7960, 1916.070
524.2781, 1942.499
524.7602, 1957.847
525.2423, 1947.119
525.7244, 1918.011
526.2065, 1905.856
526.6887, 1911.229
527.1708, 1923.319
527.6529, 1937.844
528.1350, 1951.594
528.6171, 1956.131
529.0992, 1946.472
529.5814, 1936.664
530.0635, 1941.883
530.5456, 1956.058
531.0277, 1967.281
531.5098, 1967.234
531.9919, 1965.328
532.4741, 1967.420
532.9562, 1973.285
533.4383, 1975.800
533.9204, 1966.240
534.4025, 1957.467
534.8846, 1957.688
535.3668, 1974.193
535.8489, 1988.294
536.3310, 2002.996
536.8131, 2013.859
537.2952, 2011.859
537.7773, 1989.594
538.2595, 1975.794
538.7416, 1980.450
539.2237, 1999.289
539.7058, 2008.727
540.1879, 2008.017
540.6700, 2006.219
541.1522, 2013.370
541.6343, 2025.229
542.1164, 2022.475
542.5985, 2000.734
543.0806, 1979.844
543.5627, 1981.955
544.0449, 1999.847
544.5270, 2019.677
545.0091, 2044.338
545.4912, 2061.526
545.9733, 2055.937
546.4554, 2033.860
546.9376, 2019.027
547.4197, 2031.185
547.9018, 2044.683
548.3839, 2044.472
548.8660, 2023.350
549.3481, 2010.111
549.8303, 2009.247
550.3124, 2015.677
550.7945, 2026.573
551.2766, 2048.244
551.7587, 2059.496
552.2408, 2054.438
552.7230, 2039.568
553.2051, 2031.151
553.6872, 2029.163
554.1693, 2033.872
554.6514, 2052.249
555.1335, 2078.510
555.6157, 2079.307
556.0978, 2053.583
556.5799, 2031.451
557.0620, 2046.607
557.5441, 2082.623
558.0262, 2110.590
558.5084, 2125.475
558.9905, 2127.510
559.4726, 2103.901
559.9547, 2069.308
560.4368, 2049.927
560.9189, 2073.320
561.4011, 2097.276
561.8832, 2102.779
562.3653, 2090.413
562.8474, 2082.353
563.3295, 2085.937
563.8116, 2091.105
564.2938, 2093.177
564.7759, 2090.320
565.2580, 2089.361
565.7401, 2089.895
566.2222, 2092.818
566.7043, 2100.016
567.1865, 2111.899
567.6686, 2124.604
568.1507, 2139.775
568.6328, 2152.767
569.1149, 2146.307
569.5970, 2122.979
570.0792, 2110.034
570.5613, 2139.947
571.0434, 2183.153
571.5255, 2191.591
572.0076, 2162.053
572.4897, 2134.503
572.9719, 2142.924
573.4540, 2163.922
573.9361, 2173.014
574.4182, 2153.820
574.9003, 2139.182
575.3824, 2143.151
575.8646, 2157.227
576.3467, 2164.655
576.8288, 2153.083
577.3109, 2148.639
577.7930, 2160.655
578.2751, 2187.217
578.7573, 2201.988
579.2394, 2201.626
579.7215, 2197.918
580.2036, 2200.053
580.6857, 2207.868
581.1678, 2203.510
581.6500, 2183.755
582.1321, 2163.289
582.6142, 2162.416
583.0963, 2175.823
583.5784, 2187.405
584.0605, 2192.516
584.5427, 2193.820
585.0248, 2191.569
585.5069, 2187.317
585.9890, 2185.477
586.4711, 2189.743
586.9532, 2195.659
587.4354, 2201.099
587.9175, 2205.890
588.3996, 2210.305
588.8817, 2214.681
589.3638, 2218.409
589.8459, 2220.926
590.3281, 2219.976
590.8102, 2222.500
591.2923, 2230.427
591.7744, 2239.766
592.2565, 2242.505
592.7386, 2237.040
593.2208, 2238.631
593.7029, 2254.541
594.1850, 2277.597
594.6671, 2289.877
595.1492, 2292.036
595.6313, 2289.251
596.1135, 2277.298
596.5956, 2265.747
597.0777, 2271.185
597.5598, 2295.138
598.0419, 2316.423
598.5240, 2319.566
599.0062, 2315.271
599.4883, 2313.442
599.9704, 2316.504
600.4525, 2321.768
600.9346, 2334.112
601.4167, 2346.954
601.8989, 2348.261
602.3810, 2327.325
602.8631, 2312.222
603.3452, 2310.450
603.8273, 2319.272
604.3094, 2322.475
604.7916, 2318.326
605.2737, 2315.897
605.7558, 2321.575
606.2379, 2333.800
606.7200, 2345.678
607.2021, 2357.274
607.6843, 2366.517
608.1664, 2369.636
608.6485, 2369.646
609.1306, 2371.621
609.6127, 2376.611
610.0948, 2384.200
610.5770, 2400.594
611.0591, 2418.359
611.5412, 2424.432
612.0233, 2403.805
612.5054, 2382.519
612.9875, 2363.311
613.4697, 2347.860
613.9518, 2351.514
614.4339, 2389.907
614.9160, 2424.114
615.3981, 2433.993
615.8802, 2417.089
616.3624, 2407.683
616.8445, 2406.660
617.3266, 2410.398
617.8087, 2418.087
618.2908, 2428.238
618.7729, 2432.366
619.2551, 2427.293
619.7372, 2421.147
620.2193, 2427.075
620.7014, 2438.700
621.1835, 2442.393
621.6656, 2415.178
622.1478, 2394.284
622.6299, 2407.515
623.1120, 2446.984
623.5941, 2476.884
624.0762, 2483.075
624.5583, 2482.308
625.0405, 2479.460
625.5226, 2473.632
626.0047, 2474.129
626.4868, 2483.916
626.9689, 2495.415
627.4510, 2503.326
627.9332, 2507.623
628.4153, 2507.998
628.8974, 2504.157
629.3795, 2496.918
629.8616, 2482.413
630.3438, 2464.359
630.8259, 2456.806
631.3080, 2468.369
631.7901, 2487.609
632.2722, 2508.003
632.7543, 2527.184
633.2365, 2538.337
633.7186, 2535.588
634.2007, 2526.885
634.6828, 2511.744
635.1649, 2489.484
635.6470, 2480.559
636.1292, 2497.019
636.6113, 2517.817
637.0934, 2532.100
637.5755, 2538.169
638.0576, 2543.763
638.5397, 2549.097
639.0219, 2553.555
639.5040, 2557.492
639.9861, 2560.608
640.4682, 2557.130
640.9503, 2541.871
641.4324, 2527.694
641.9146, 2537.697
642.3967, 2563.913
642.8788, 2584.832
643.3609, 2585.363
643.8430, 2580.779
644.3251, 2579.825
644.8073, 2582.504
645.2894, 2587.622
645.7715, 2595.803
646.2536, 2605.549
646.7357, 2618.829
647.2178, 2638.416
647.7000, 2643.089
648.1821, 2622.225
648.6642, 2601.650
649.1463, 2606.615
649.6284, 2640.286
650.1105, 2659.275
650.5927, 2658.371
651.0748, 2647.052
651.5569, 2630.490
652.0390, 2613.226
652.5211, 2612.455
653.0032, 2645.006
653.4854, 2679.820
653.9675, 2685.652
654.4496, 2670.905
654.9317, 2657.620
655.4138, 2652.897
655.8959, 2653.339
656.3781, 2659.396
656.8602, 2670.831
657.3423, 2680.801
657.8244, 2692.360
658.3065, 2698.276
658.7886, 2691.871
659.2708, 2669.734
659.7529, 2663.475
660.2350, 2676.349
660.7171, 2694.632
661.1992, 2705.507
661.6813, 2710.371
662.1635, 2715.093
662.6456, 2720.510
663.1277, 2726.330
663.6098, 2734.001
664.0919, 2741.550
664.5741, 2745.663
665.0562, 2743.539
665.5383, 2739.415
666.0204, 2730.539
666.5026, 2720.730
666.9847, 2720.678
667.4668, 2740.011
667.9489, 2761.132
668.4310, 2783.112
668.9131, 2805.001
669.3953, 2814.052
669.8774, 2807.827
670.3595, 2796.823
670.8416, 2784.537
671.3237, 2772.143
671.8058, 2766.526
672.2880, 2767.948
672.7701, 2774.384
673.2522, 2788.853
673.7343, 2805.515
674.2164, 2814.769
674.6985, 2811.953
675.1807, 2810.891
675.6628, 2822.588
676.1449, 2838.821
676.6270, 2849.828
677.1091, 2846.291
677.5912, 2846.700
678.0734, 2854.711
678.5555, 2867.044
679.0376, 2877.216
679.5197, 2885.528
680.0018, 2889.847
680.4839, 2887.308
680.9661, 2881.462
681.4482, 2885.571
681.9303, 2898.788
682.4124, 2910.336
682.8945, 2913.264
683.3766, 2910.730
683.8588, 2904.968
684.3409, 2896.361
684.8230, 2890.276
685.3051, 2891.105
685.7872, 2894.394
686.2693, 2896.871
686.7515, 2897.270
687.2336, 2899.647
687.7157, 2905.345
688.1978, 2912.109
688.6799, 2917.438
689.1620, 2920.215
689.6442, 2927.541
690.1263, 2941.826
690.6084, 2956.943
691.0905, 2960.886
691.5726, 2956.041
692.0547, 2955.165
692.5369, 2964.458
693.0190, 2976.008
693.5011, 2978.996
693.9832, 2977.323
694.4653, 2980.664
694.9474, 3006.435
695.4296, 3025.276
695.9117, 3016.552
696.3938, 2984.059
696.8759, 2971.053
697.3580, 2992.823
697.8401, 3015.102
698.3223, 3023.102
698.8044, 3016.523
699.2865, 3020.311
699.7686, 3036.061
700.2507, 3053.178
700.7328, 3062.944
701.2150, 3067.352
701.6971, 3072.410
702.1792, 3078.727
702.6613, 3084.130
703.1434, 3088.065
703.6255, 3089.527
704.1077, 3086.795
704.5898, 3076.037
705.0719, 3067.862
705.5540, 3063.532
706.0361, 3064.181
706.5182, 3071.977
707.0004, 3094.417
707.4825, 3107.856
707.9646, 3106.171
708.4467, 3096.955
708.9288, 3097.349
709.4109, 3107.346
709.8931, 3115.759
710.3752, 3117.029
710.8573, 3115.802
711.3394, 3119.268
711.8215, 3126.794
712.3036, 3135.731
712.7858, 3148.333
713.2679, 3158.847
713.7500, 3159.995
714.2321, 3152.480
714.7142, 3153.224
715.1964, 3178.725
715.6785, 3200.012
716.1606, 3203.005
716.6427, 3184.640
717.1248, 3177.727
717.6069, 3184.959
718.0891, 3195.266
718.5712, 3199.583
719.0533, 3199.007
719.5354, 3197.292
720.0175, 3194.534
720.4996, 3193.333
720.9818, 3198.188
721.4639, 3205.360
721.9460, 3209.767
722.4281, 3209.015
722.9102, 3208.316
723.3923, 3205.375
723.8745, 3205.191
724.3566, 3215.100
724.8387, 3243.723
725.3208, 3266.344
725.8029, 3279.120
726.2850, 3285.651
726.7672, 3295.057
727.2493, 3307.423
727.7314, 3311.551
728.2135, 3297.225
728.6956, 3280.156
729.1777, 3293.013
729.6599, 3326.597
730.1420, 3349.766
730.6241, 3335.131
731.1062, 3315.516
731.5883, 3309.967
732.0704, 3317.726
732.5526, 3327.472
733.0347, 3342.039
733.5168, 3353.453
733.9989, 3358.814
734.4810, 3358.280
734.9631, 3355.760
735.4453, 3349.589
735.9274, 3348.984
736.4095, 3365.841
736.8916, 3393.763
737.3737, 3409.333
737.8558, 3411.553
738.3380, 3409.355
738.8201, 3406.623
739.3022, 3404.663
739.7843, 3404.254
740.2664, 3404.615
740.7485, 3409.787
741.2307, 3426.828
741.7128, 3445.259
742.1949, 3455.961
742.6770, 3454.931
743.1591, 3457.166
743.6412, 3465.451
744.1234, 3473.264
744.6055, 3467.886
745.0876, 3451.798
745.5697, 3445.616
746.0518, 3455.390
746.5339, 3471.704
747.0161, 3487.762
747.4982, 3501.844
747.9803, 3510.785
748.4624, 3508.069
748.9445, 3505.717
749.4266, 3508.456
749.9088, 3514.511
750.3909, 3519.179
750.8730, 3520.050
751.3551, 3524.405
751.8372, 3535.591
752.3193, 3550.801
752.8015, 3560.791
753.2836, 3565.819
753.7657, 3565.526
754.2478, 3551.707
754.7299, 3537.765
755.2120, 3553.265
755.6942, 3590.713
756.1763, 3615.779
756.6584, 3595.757
757.1405, 3570.950
757.6226, 3563.087
758.1047, 3573.428
758.5869, 3584.553
759.0690, 3597.264
759.5511, 3607.570
760.0332, 3611.311
760.5153, 3608.716
760.9974, 3622.354
761.4796, 3654.910
761.9617, 3680.985
762.4438, 3672.592
762.9259, 3646.709
763.4080, 3636.690
763.8901, 3645.433
764.3723, 3658.790
764.8544, 3671.545
765.3365, 3682.957
765.8186, 3692.357
766.3007, 3699.519
766.7828, 3705.119
767.2650, 3708.938
767.7471, 3711.366
768.2292, 3711.818
768.7113, 3709.610
769.1934, 3710.865
769.6755, 3716.335
770.1577, 3723.323
770.6398, 3725.459
771.1219, 3727.091
771.6040, 3740.915
772.0861, 3774.897
772.5682, 3804.083
773.0504, 3810.660
773.5325, 3803.972
774.0146, 3795.073
774.4967, 3778.321
774.9788, 3770.477
775.4609, 3774.614
775.9431, 3786.248
776.4252, 3800.922
776.9073, 3819.648
777.3894, 3831.303
777.8715, 3830.904
778.3536, 3828.498
778.8358, 3845.666
779.3179, 3874.199
779.8000, 3891.205
780.2821, 3880.084
780.7642, 3865.546
781.2463, 3861.763
781.7285, 3865.339
782.2106, 3868.963
782.6927, 3868.343
783.1748, 3871.417
783.6569, 3879.873
784.1390, 3892.421
784.6212, 3907.382
785.1033, 3925.383
785.5854, 3938.043
786.0675, 3940.281
786.5496, 3937.423
787.0317, 3936.904
787.5139, 3939.392
787.9960, 3947.508
788.4781, 3970.017
788.9602, 3991.481
789.4423, 4004.030
789.9244, 4008.025
790.4066, 4006.799
790.8887, 3996.826
791.3708, 3987.656
791.8529, 3980.668
792.3350, 3976.833
792.8171, 3984.850
793.2993, 4005.625
793.7814, 4022.844
794.2635, 4022.604
794.7456, 4015.539
795.2277, 4021.165
795.7098, 4037.421
796.1920, 4052.077
796.6741, 4057.133
797.1562, 4060.407
797.6383, 4068.485
798.1204, 4081.790
798.6025, 4083.131
799.0847, 4060.108
799.5668, 4046.479
800.0489, 4063.445
800.5310, 4106.585
801.0131, 4130.180
801.4952, 4134.079
801.9774, 4132.882
802.4595, 4136.621
802.9416, 4141.612
803.4237, 4142.757
803.9058, 4139.914
804.3879, 4137.202
804.8701, 4132.496
805.3522, 4131.793
805.8343, 4140.202
806.3164, 4158.338
806.7985, 4176.063
807.2806, 4194.772
807.7628, 4209.891
808.2449, 4216.620
808.7270, 4216.524
809.2091, 4218.111
809.6912, 4221.529
810.1733, 4230.176
810.6555, 4253.981
811.1376, 4279.812
811.6197, 4291.894
812.1018, 4286.883
812.5839, 4286.320
813.0660, 4305.574
813.5482, 4322.858
814.0303, 4323.050
814.5124, 4301.493
814.9945, 4299.542
815.4766, 4322.929
815.9587, 4343.915
816.4409, 4331.677
816.9230, 4299.498
817.4051, 4287.409
817.8872, 4298.310
818.3693, 4315.030
818.8514, 4328.951
819.3336, 4341.467
819.8157, 4353.662
820.2978, 4365.453
820.7799, 4378.008
821.2620, 4391.900
821.7441, 4405.511
822.2263, 4418.438
822.7084, 4430.613
823.1905, 4436.540
823.6726, 4434.821
824.1547, 4435.541
824.6368, 4453.266
825.1190, 4477.238
825.6011, 4489.290
826.0832, 4485.982
826.5653, 4484.623
827.0474, 4497.005
827.5295, 4512.204
828.0117, 4521.879
828.4938, 4524.040
828.9760, 4528.846
829.4581, 4539.104
829.9402, 4546.479
830.4223, 4539.749
830.9044, 4522.788
831.3865, 4519.228
831.8687, 4531.013
832.3508, 4544.483
832.8329, 4544.288
833.3150, 4541.990
833.7971, 4551.356
834.2792, 4577.734
834.7614, 4597.077
835.2435, 4598.050
835.7256, 4595.625
836.2077, 4597.569
836.6898, 4604.179
837.1719, 4614.213
837.6541, 4628.487
838.1362, 4641.905
838.6183, 4645.440
839.1004, 4646.189
839.5825, 4663.284
840.0646, 4699.335
840.5468, 4727.449
841.0289, 4730.243
841.5110, 4720.874
841.9931, 4704.842
842.4752, 4677.557
842.9573, 4667.502
843.4395, 4675.957
843.9216, 4699.273
844.4037, 4745.823
844.8858, 4810.126
845.3679, 4835.302
845.8500, 4819.819
846.3322, 4800.017
846.8143, 4809.656
847.2964, 4826.700
847.7785, 4824.849
848.2606, 4799.917
848.7427, 4783.760
849.2249, 4794.632
849.7070, 4807.370
850.1891, 4807.014
850.6712, 4792.210
851.1533, 4800.558
851.6354, 4836.316
852.1176, 4869.775
852.5997, 4876.183
853.0818, 4867.148
853.5639, 4864.476
854.0460, 4868.726
854.5281, 4875.568
855.0103, 4881.563
855.4924, 4890.277
855.9745, 4904.350
856.4566, 4924.105
856.9387, 4945.680
857.4208, 4971.741
857.9030, 4992.959
858.3851, 5003.644
858.8672, 5005.400
859.3493, 5007.045
859.8314, 5008.172
860.3135, 5004.563
860.7957, 4979.487
861.2778, 4959.482
861.7599, 4974.531
862.2420, 5020.122
862.7241, 5054.348
863.2062, 5055.317
863.6884, 5057.476
864.1705, 5072.397
864.6526, 5096.670
865.1347, 5109.515
865.6168, 5110.163
866.0989, 5114.336
866.5811, 5137.259
867.0632, 5162.788
867.5453, 5164.224
868.0274, 5148.058
868.5095, 5136.431
868.9916, 5139.378
869.4738, 5147.882
869.9559, 5163.045
870.4380, 5181.467
870.9201, 5190.788
871.4022, 5188.029
871.8843, 5190.044
872.3665, 5204.180
872.8486, 5223.213
873.3307, 5231.716
873.8128, 5232.386
874.2949, 5233.808
874.7770, 5238.060
875.2592, 5245.662
875.7413, 5259.278
876.2234, 5275.930
876.7055, 5288.830
877.1876, 5294.559
877.6697, 5302.631
878.1519, 5316.089
878.6340, 5330.015
879.1161, 5331.430
879.5982, 5323.843
880.0803, 5329.657
880.5624, 5360.236
881.0446, 5392.091
881.5267, 5402.367
882.0088, 5401.637
882.4909, 5404.411
882.9730, 5419.416
883.4551, 5430.324
883.9373, 5433.105
884.4194, 5434.912
884.9015, 5447.258
885.3836, 5470.396
885.8657, 5476.263
886.3478, 5458.259
886.8300, 5442.920
887.3121, 5468.300
887.7942, 5508.983
888.2763, 5529.133
888.7584, 5516.290
889.2405, 5504.935
889.7227, 5499.660
890.2048, 5504.063
890.6869, 5523.467
891.1690, 5562.126
891.6511, 5589.234
892.1332, 5604.111
892.6154, 5608.744
893.0975, 5592.972
893.5796, 5572.429
894.0617, 5581.285
894.5438, 5621.104
895.0259, 5647.121
895.5081, 5617.758
895.9902, 5586.431
896.4723, 5587.943
896.9544, 5622.870
897.4365, 5648.179
897.9186, 5663.950
898.4008, 5672.659
898.8829, 5671.820
899.3650, 5666.651
899.8471, 5670.869
900.3292, 5683.254
900.8113, 5697.137
901.2935, 5711.418
901.7756, 5723.563
902.2577, 5729.030
902.7398, 5729.925
903.2219, 5737.436
903.7040, 5751.345
904.1862, 5772.778
904.6683, 5806.757
905.1504, 5842.688
905.6325, 5854.039
906.1146, 5845.783
906.5967, 5838.874
907.0789, 5840.208
907.5610, 5847.583
908.0431, 5864.883
908.5252, 5885.893
909.0073, 5899.811
909.4894, 5900.877
909.9716, 5903.915
910.4537, 5911.127
910.9358, 5919.472
911.4179, 5924.604
911.9000, 5926.951
912.3821, 5929.359
912.8643, 5932.991
913.3464, 5933.820
913.8285, 5921.944
914.3106, 5909.068
914.7927, 5907.188
915.2748, 5919.800
915.7570, 5942.246
916.2391, 5980.344
916.7212, 6018.308
917.2033, 6045.140
917.6854, 6061.039
918.1675, 6062.546
918.6497, 6049.409
919.1318, 6043.031
919.6139, 6067.822
920.0960, 6101.054
920.5781, 6122.619
921.0602, 6130.758
921.5424, 6138.980
922.0245, 6150.929
922.5066, 6160.242
922.9887, 6161.971
923.4708, 6158.934
923.9529, 6169.373
924.4351, 6192.079
924.9172, 6211.833
925.3993, 6219.160
925.8814, 6220.782
926.3635, 6220.012
926.8456, 6218.557
927.3278, 6221.166
927.8099, 6233.809
928.2920, 6244.161
928.7741, 6248.336
929.2562, 6250.958
929.7383, 6261.960
930.2205, 6280.943
930.7026, 6302.082
931.1847, 6325.564
931.6668, 6345.812
932.1489, 6357.267
932.6310, 6362.314
933.1132, 6363.667
933.5953, 6358.077
934.0774, 6355.618
934.5595, 6353.285
935.0416, 6358.604
935.5237, 6386.958
936.0059, 6435.951
936.4880, 6449.903
936.9701, 6423.482
937.4522, 6399.211
937.9343, 6411.800
938.4164, 6444.881
938.8986, 6491.926
939.3807, 6553.770
939.8628, 6586.576
940.3449, 6563.982
940.8270, 6541.189
941.3091, 6541.682
941.7913, 6561.266
942.2734, 6576.239
942.7555, 6586.540
943.2376, 6595.068
943.7197, 6604.153
944.2018, 6611.092
944.6840, 6610.503
945.1661, 6605.721
945.6482, 6606.200
946.1303, 6618.666
946.6124, 6629.343
947.0945, 6634.022
947.5767, 6638.697
948.0588, 6658.123
948.5409, 6689.802
949.0230, 6712.985
949.5051, 6721.342
949.9872, 6725.203
950.4694, 6729.771
950.9515, 6736.770
951.4336, 6748.384
951.9157, 6767.486
952.3978, 6786.779
952.8799, 6807.510
953.3621, 6826.196
953.8442, 6841.173
954.3263, 6851.749
954.8084, 6848.716
955.2905, 6832.436
955.7726, 6824.076
956.2548, 6848.335
956.7369, 6877.959
957.2190, 6890.745
957.7011, 6886.532
958.1832, 6889.539
958.6653, 6901.313
959.1475, 6918.886
959.6296, 6944.670
960.1117, 6972.453
960.5938, 6980.923
961.0759, 6975.664
961.5580, 6978.925
962.0402, 7007.724
962.5223, 7038.249
963.0044, 7057.770
963.4865, 7070.564
963.9686, 7084.340
964.4507, 7100.686
964.9329, 7116.277
965.4150, 7132.928
965.8971, 7143.628
966.3792, 7129.715
966.8613, 7104.730
967.3434, 7106.169
967.8256, 7142.164
968.3077, 7172.127
968.7898, 7166.021
969.2719, 7154.277
969.7540, 7155.467
970.2361, 7169.771
970.7183, 7199.249
971.2004, 7247.979
971.6825, 7290.814
972.1646, 7309.374
972.6467, 7315.077
973.1288, 7325.213
973.6110, 7339.732
974.0931, 7358.038
974.5752, 7390.108
975.0573, 7413.659
975.5394, 7418.282
976.0215, 7412.019
976.5037, 7408.061
976.9858, 7406.236
977.4679, 7409.004
977.9500, 7416.322
978.4321, 7430.311
978.9142, 7464.551
979.3964, 7502.205
979.8785, 7517.044
980.3606, 7492.171
980.8427, 7483.095
981.3248, 7506.025
981.8069, 7536.810
982.2891, 7566.887
982.7712, 7595.173
983.2533, 7583.425
983.7354, 7533.947
984.2175, 7504.049
984.6996, 7550.756
985.1818, 7617.815
985.6639, 7667.925
986.1460, 7698.927
986.6281, 7706.979
987.1102, 7677.944
987.5923, 7654.087
988.0745, 7641.485
988.5566, 7642.188
989.0387, 7669.070
989.5208, 7714.005
990.0029, 7746.962
990.4850, 7755.309
990.9672, 7760.947
991.4493, 7776.131
991.9314, 7796.274
992.4135, 7819.158
992.8956, 7851.860
993.3778, 7856.572
993.8599, 7825.315
994.3420, 7798.856
994.8242, 7822.175
995.3063, 7868.709
995.7884, 7884.797
996.2705, 7872.760
996.7526, 7867.827
997.2347, 7894.230
997.7169, 7921.700
998.1990, 7939.248
998.6811, 7949.006
999.1632, 7956.700
999.6453, 7962.072
1000.127, 7971.809
1000.610, 7987.305
1001.092, 8009.315
1001.574, 8046.112
1002.056, 8086.986
1002.538, 8115.811
1003.020, 8120.356
1003.502, 8130.207
1003.984, 8149.038
1004.466, 8171.087
1004.949, 8194.949
1005.431, 8219.059
1005.913, 8226.295
1006.395, 8217.184
1006.877, 8209.423
1007.359, 8213.612
1007.841, 8224.567
1008.323, 8235.702
1008.806, 8249.753
1009.288, 8284.172
1009.770, 8348.479
1010.252, 8398.684
1010.734, 8416.048
1011.216, 8424.757
1011.698, 8486.414
1012.180, 8569.284
1012.662, 8597.135
1013.145, 8521.765
1013.627, 8451.958
1014.109, 8419.499
1014.591, 8415.176
1015.073, 8438.660
1015.555, 8495.771
1016.037, 8529.433
1016.519, 8538.904
1017.002, 8542.036
1017.484, 8554.561
1017.966, 8566.051
1018.448, 8562.378
1018.930, 8546.420
1019.412, 8536.993
1019.894, 8542.739
1020.376, 8546.121
1020.858, 8538.829
1021.341, 8533.231
1021.823, 8562.219
1022.305, 8616.270
1022.787, 8656.239
1023.269, 8669.261
1023.751, 8677.226
1024.233, 8688.493
1024.715, 8704.843
1025.198, 8728.820
1025.680, 8761.527
1026.162, 8794.324
1026.644, 8827.612
1027.126, 8855.401
1027.608, 8864.730
1028.090, 8869.935
1028.572, 8899.383
1029.054, 8946.235
1029.536, 8983.543
1030.019, 8992.999
1030.501, 9002.810
1030.983, 9023.795
1031.465, 9044.697
1031.947, 9041.339
1032.429, 9017.201
1032.911, 8998.685
1033.393, 8989.133
1033.876, 8998.870
1034.358, 9064.461
1034.840, 9135.015
1035.322, 9158.920
1035.804, 9122.960
1036.286, 9107.382
1036.768, 9116.360
1037.250, 9133.114
1037.733, 9152.482
1038.215, 9171.062
1038.697, 9179.415
1039.179, 9180.579
1039.661, 9184.696
1040.143, 9192.609
1040.625, 9207.953
1041.107, 9236.901
1041.589, 9269.084
1042.072, 9289.063
1042.554, 9297.006
1043.036, 9316.559
1043.518, 9350.716
1044.000, 9384.300
1044.482, 9406.311
1044.964, 9419.797
1045.446, 9424.323
1045.928, 9419.960
1046.411, 9423.042
1046.893, 9435.758
1047.375, 9450.592
1047.857, 9463.083
1048.339, 9478.118
1048.821, 9509.545
1049.303, 9551.304
1049.785, 9589.187
1050.268, 9621.971
1050.750, 9642.585
1051.232, 9635.923
1051.714, 9625.457
1052.196, 9629.441
1052.678, 9648.479
1053.160, 9675.922
1053.642, 9712.200
1054.125, 9738.665
1054.607, 9731.630
1055.089, 9718.588
1055.571, 9721.240
1056.053, 9739.051
1056.535, 9764.611
1057.017, 9800.380
1057.499, 9837.257
1057.981, 9877.186
1058.464, 9908.752
1058.946, 9898.517
1059.428, 9869.412
1059.910, 9878.020
1060.392, 9945.420
1060.874, 9998.067
1061.356, 9991.562
1061.838, 9977.545
1062.320, 9982.810
1062.803, 10005.43
1063.285, 10022.79
1063.767, 10035.82
1064.249, 10057.83
1064.731, 10100.26
1065.213, 10149.52
1065.695, 10202.77
1066.177, 10253.27
1066.660, 10288.12
1067.142, 10307.18
1067.624, 10307.09
1068.106, 10281.47
1068.588, 10258.25
1069.070, 10273.71
1069.552, 10308.10
1070.034, 10322.24
1070.516, 10315.98
1070.999, 10327.45
1071.481, 10402.58
1071.963, 10457.09
1072.445, 10457.54
1072.927, 10427.88
1073.409, 10435.69
1073.891, 10473.20
1074.373, 10491.35
1074.855, 10470.23
1075.338, 10449.18
1075.820, 10456.18
1076.302, 10475.42
1076.784, 10489.91
1077.266, 10495.68
1077.748, 10531.82
1078.230, 10605.00
1078.713, 10658.69
1079.195, 10635.62
1079.677, 10589.63
1080.159, 10594.50
1080.641, 10634.48
1081.123, 10671.10
1081.605, 10683.05
1082.087, 10708.96
1082.569, 10759.47
1083.052, 10811.09
1083.534, 10830.00
1084.016, 10827.04
1084.498, 10838.79
1084.980, 10868.15
1085.462, 10890.17
1085.944, 10875.31
1086.426, 10867.51
1086.908, 10890.20
1087.391, 10935.07
1087.873, 10982.08
1088.355, 11030.43
1088.837, 11035.81
1089.319, 10966.76
1089.801, 10905.74
1090.283, 10940.66
1090.765, 11018.26
1091.248, 11084.43
1091.730, 11139.17
1092.212, 11147.92
1092.694, 11095.46
1093.176, 11057.70
1093.658, 11094.00
1094.140, 11166.72
1094.622, 11214.02
1095.104, 11241.70
1095.587, 11263.93
1096.069, 11288.63
1096.551, 11302.09
1097.033, 11296.12
1097.515, 11288.29
1097.997, 11295.85
1098.479, 11318.62
1098.961, 11364.38
1099.443, 11431.94
1099.926, 11485.60
1100.408, 11497.34
1100.890, 11495.08
1101.372, 11479.80
1101.854, 11464.02
1102.336, 11497.13
1102.818, 11579.50
1103.300, 11625.77
1103.783, 11607.33
1104.265, 11577.06
1104.747, 11580.00
1105.229, 11601.17
1105.711, 11630.73
1106.193, 11671.59
1106.675, 11685.06
1107.157, 11661.82
1107.640, 11652.18
1108.122, 11695.11
1108.604, 11753.65
1109.086, 11750.96
1109.568, 11716.97
1110.050, 11715.16
1110.532, 11796.91
1111.014, 11864.46
1111.496, 11906.60
1111.979, 11939.89
1112.461, 11980.85
1112.943, 12025.45
1113.425, 12056.88
1113.907, 12075.39
1114.389, 12089.13
1114.871, 12093.15
1115.353, 12103.78
1115.835, 12134.61
1116.318, 12171.38
1116.800, 12186.85
1117.282, 12182.49
1117.764, 12177.09
1118.246, 12172.54
1118.728, 12180.42
1119.210, 12232.17
1119.692, 12282.70
1120.175, 12285.93
1120.657, 12247.43
1121.139, 12236.36
1121.621, 12255.45
1122.103, 12282.02
1122.585, 12310.65
1123.067, 12338.41
1123.549, 12359.16
1124.031, 12378.01
1124.514, 12402.04
1124.996, 12435.60
1125.478, 12465.66
1125.960, 12489.13
1126.442, 12516.86
1126.924, 12566.59
1127.406, 12618.69
1127.888, 12616.67
1128.370, 12581.20
1128.853, 12569.44
1129.335, 12634.15
1129.817, 12675.95
1130.299, 12663.07
1130.781, 12650.94
1131.263, 12719.07
1131.745, 12838.18
1132.227, 12881.46
1132.710, 12849.14
1133.192, 12818.31
1133.674, 12831.83
1134.156, 12856.59
1134.638, 12883.79
1135.120, 12910.92
1135.602, 12927.41
1136.084, 12935.52
1136.567, 12969.27
1137.049, 13038.61
1137.531, 13094.24
1138.013, 13080.68
1138.495, 13052.37
1138.977, 13047.65
1139.459, 13065.93
1139.941, 13108.81
1140.423, 13179.59
1140.906, 13231.29
1141.388, 13245.92
1141.870, 13242.84
1142.352, 13225.79
1142.834, 13212.60
1143.316, 13228.43
1143.798, 13285.16
1144.280, 13333.12
1144.762, 13373.83
1145.245, 13398.42
1145.727, 13390.03
1146.209, 13373.26
1146.691, 13387.99
1147.173, 13422.73
1147.655, 13452.86
1148.137, 13468.60
1148.619, 13483.79
1149.102, 13498.27
1149.584, 13512.66
1150.066, 13522.59
1150.548, 13533.94
1151.030, 13564.85
1151.512, 13611.40
1151.994, 13652.43
1152.476, 13673.98
1152.958, 13696.19
1153.441, 13721.99
1153.923, 13752.01
1154.405, 13795.67
1154.887, 13844.91
1155.369, 13866.78
1155.851, 13858.38
1156.333, 13849.02
1156.815, 13841.71
1157.297, 13852.49
1157.780, 13897.58
1158.262, 13956.42
1158.744, 13964.36
1159.226, 13932.21
1159.708, 13937.18
1160.190, 14002.56
1160.672, 14070.33
1161.154, 14109.19
1161.637, 14128.66
1162.119, 14128.34
1162.601, 14113.75
1163.083, 14128.50
1163.565, 14171.22
1164.047, 14209.68
1164.529, 14231.56
1165.011, 14245.84
1165.494, 14254.96
1165.976, 14263.01
1166.458, 14274.50
1166.940, 14289.75
1167.422, 14303.23
1167.904, 14314.26
1168.386, 14335.11
1168.868, 14375.72
1169.350, 14426.49
1169.833, 14488.07
1170.315, 14549.69
1170.797, 14589.53
1171.279, 14595.38
1171.761, 14616.92
1172.243, 14656.71
1172.725, 14701.90
1173.207, 14752.30
1173.689, 14795.82
1174.172, 14810.85
1174.654, 14806.44
1175.136, 14813.42
1175.618, 14837.59
1176.100, 14867.03
1176.582, 14902.42
1177.064, 14937.31
1177.546, 14963.78
1178.029, 14986.71
1178.511, 15015.01
1178.993, 15048.21
1179.475, 15074.64
1179.957, 15090.68
1180.439, 15103.96
1180.921, 15112.64
1181.403, 15126.99
1181.885, 15168.83
1182.368, 15223.94
1182.850, 15266.65
1183.332, 15293.06
1183.814, 15315.37
1184.296, 15334.30
1184.778, 15351.56
1185.260, 15365.24
1185.742, 15381.45
1186.224, 15415.67
1186.707, 15460.43
1187.189, 15502.61
1187.671, 15543.04
1188.153, 15562.20
1188.635, 15538.81
1189.117, 15522.34
1189.599, 15538.53
1190.081, 15575.29
1190.564, 15601.89
1191.046, 15620.28
1191.528, 15632.87
1192.010, 15626.94
1192.492, 15649.29
1192.974, 15741.27
1193.456, 15818.33
1193.938, 15808.85
1194.421, 15744.53
1194.903, 15753.63
1195.385, 15818.68
1195.867, 15877.07
1196.349, 15897.29
1196.831, 15914.25
1197.313, 15936.98
1197.795, 15958.36
1198.277, 15966.33
1198.760, 15966.89
1199.242, 15998.45
1199.724, 16055.20
1200.206, 16102.13
1200.688, 16109.87
1201.170, 16119.83
1201.652, 16146.02
1202.134, 16176.81
1202.616, 16198.16
1203.099, 16211.84
1203.581, 16228.74
1204.063, 16249.38
1204.545, 16269.21
1205.027, 16280.86
1205.509, 16299.22
1205.991, 16332.15
1206.473, 16371.72
1206.956, 16406.21
1207.438, 16436.18
1207.920, 16466.21
1208.402, 16496.30
1208.884, 16522.01
1209.366, 16531.38
1209.848, 16546.94
1210.330, 16579.88
1210.813, 16622.03
1211.295, 16656.32
1211.777, 16683.85
1212.259, 16708.12
1212.741, 16730.17
1213.223, 16748.62
1213.705, 16745.51
1214.187, 16759.57
1214.669, 16810.44
1215.151, 16888.35
1215.634, 16974.74
1216.116, 17062.25
1216.598, 17113.37
1217.080, 17109.08
1217.562, 17118.31
1218.044, 17204.11
1218.526, 17283.68
1219.008, 17306.36
1219.491, 17290.22
1219.973, 17304.60
1220.455, 17344.72
1220.937, 17392.44
1221.419, 17448.41
1221.901, 17489.50
1222.383, 17482.26
1222.865, 17479.60
1223.348, 17516.14
1223.830, 17581.89
1224.312, 17633.21
1224.794, 17670.10
1225.276, 17690.00
1225.758, 17687.74
1226.240, 17680.01
1226.722, 17664.97
1227.204, 17657.38
1227.687, 17671.22
1228.169, 17700.90
1228.651, 17707.09
1229.133, 17697.85
1229.615, 17707.66
1230.097, 17765.86
1230.579, 17821.96
1231.061, 17868.49
1231.543, 17898.75
1232.026, 17895.65
1232.508, 17869.69
1232.990, 17887.22
1233.472, 17938.90
1233.954, 17982.08
1234.436, 17979.11
1234.918, 17993.32
1235.400, 18050.90
1235.883, 18111.91
1236.365, 18135.51
1236.847, 18133.62
1237.329, 18160.80
1237.811, 18209.57
1238.293, 18243.97
1238.775, 18211.84
1239.257, 18219.73
1239.740, 18305.77
1240.222, 18401.56
1240.704, 18430.30
1241.186, 18415.27
1241.668, 18426.37
1242.150, 18460.30
1242.632, 18484.70
1243.114, 18458.55
1243.596, 18468.59
1244.079, 18540.49
1244.561, 18625.89
1245.043, 18667.18
1245.525, 18682.70
1246.007, 18710.85
1246.489, 18751.81
1246.971, 18791.64
1247.453, 18818.01
1247.936, 18861.06
1248.418, 18935.82
1248.900, 18999.45
1249.382, 18980.81
1249.864, 18926.35
1250.346, 18910.76
1250.828, 18936.70
1251.310, 18983.64
1251.792, 19071.24
1252.275, 19121.87
1252.757, 19115.26
1253.239, 19096.44
1253.721, 19123.38
1254.203, 19168.69
1254.685, 19194.41
1255.167, 19200.44
1255.649, 19211.81
1256.131, 19223.14
1256.614, 19273.38
1257.096, 19381.30
1257.578, 19483.82
1258.060, 19492.89
1258.542, 19469.05
1259.024, 19476.28
1259.506, 19518.36
1259.988, 19559.70
1260.471, 19596.79
1260.953, 19651.48
1261.435, 19732.15
1261.917, 19809.63
1262.399, 19849.12
1262.881, 19875.11
1263.363, 19905.81
1263.845, 19943.83
1264.328, 20006.54
1264.810, 20096.75
1265.292, 20132.43
1265.774, 20083.08
1266.256, 20042.26
1266.738, 20113.29
1267.220, 20201.44
1267.702, 20222.16
1268.184, 20198.74
1268.667, 20234.21
1269.149, 20323.34
1269.631, 20382.62
1270.113, 20388.03
1270.595, 20388.08
1271.077, 20416.94
1271.559, 20448.04
1272.041, 20466.82
1272.523, 20476.31
1273.006, 20480.18
1273.488, 20483.13
1273.970, 20510.41
1274.452, 20573.54
1274.934, 20630.19
1275.416, 20652.99
1275.898, 20674.70
1276.380, 20709.96
1276.863, 20752.49
1277.345, 20783.46
1277.827, 20807.59
1278.309, 20837.44
1278.791, 20875.38
1279.273, 20919.61
1279.755, 20974.47
1280.237, 21025.05
1280.719, 21063.38
1281.202, 21096.86
1281.684, 21143.84
1282.166, 21195.98
1282.648, 21239.54
1283.130, 21271.14
1283.612, 21294.57
1284.094, 21305.58
1284.576, 21324.10
1285.058, 21355.69
1285.541, 21402.58
1286.023, 21491.43
1286.505, 21584.77
1286.987, 21621.28
1287.469, 21583.12
1287.951, 21590.24
1288.433, 21648.28
1288.915, 21703.57
##END=



