##NAMES=Claringbullite
##RRUFFID=R090016
##IDEAL CHEMISTRY=Cu^2+^_4_FCl(OH)_6_
##LOCALITY=Copper Queen Mine, Bisbee, Arizona
##OWNER=RRUFF
##SOURCE=William W. Pinch
##DESCRIPTION=Blue green crystal plates and cleavages on cuprite with connellite, atacamite, clinoatacamite R090062. Note that this is the same sample used in the Burns et al (1995) structural study.
##STATUS=The identification of this mineral has been confirmed by single-crystal X-ray diffraction.
##URL=rruff.info/R090016
90.92609, 0.0000000E+00
91.40820, 7.630930
91.89032, 7.938954
92.37244, 7.805036
92.85455, 7.293149
93.33667, 6.786079
93.81879, 6.528374
94.30090, 6.488601
94.78302, 6.592660
95.26514, 6.910222
95.74725, 7.291084
96.22937, 7.370674
96.71149, 7.131054
97.19360, 6.786527
97.67572, 6.456478
98.15784, 6.149052
98.63995, 6.055368
99.12207, 6.325840
99.60419, 6.897985
100.0863, 7.204479
100.5684, 7.172168
101.0505, 7.020721
101.5327, 7.056032
102.0148, 7.350424
102.4969, 7.582790
102.9790, 7.582248
103.4611, 7.247797
103.9432, 7.269924
104.4253, 7.820983
104.9075, 8.636112
105.3896, 9.143760
105.8717, 9.052862
106.3538, 9.056349
106.8359, 9.433823
107.3180, 10.42747
107.8002, 11.36457
108.2823, 12.12339
108.7644, 12.80039
109.2465, 13.78596
109.7286, 15.36990
110.2107, 17.04137
110.6929, 18.60890
111.1750, 19.44751
111.6571, 20.85135
112.1392, 23.15482
112.6213, 26.24547
113.1034, 29.30196
113.5856, 32.10199
114.0677, 34.91493
114.5498, 37.90755
115.0319, 41.34532
115.5140, 44.77803
115.9961, 47.99372
116.4783, 50.99379
116.9604, 54.08262
117.4425, 57.71984
117.9246, 61.43761
118.4067, 64.69027
118.8888, 67.03156
119.3710, 69.07966
119.8531, 71.08959
120.3352, 73.04929
120.8173, 75.19431
121.2994, 77.50788
121.7815, 80.09858
122.2637, 83.16901
122.7458, 87.23584
123.2279, 91.59298
123.7100, 95.42306
124.1921, 98.50063
124.6742, 101.6354
125.1564, 105.6961
125.6385, 110.4685
126.1206, 115.2952
126.6027, 119.7022
127.0848, 123.8817
127.5669, 128.2054
128.0491, 132.8585
128.5312, 137.4027
129.0133, 141.2391
129.4954, 144.3651
129.9775, 147.0784
130.4596, 149.5045
130.9418, 151.6498
131.4239, 153.6163
131.9060, 155.3866
132.3881, 157.0268
132.8702, 158.5952
133.3523, 160.0855
133.8345, 161.6791
134.3166, 163.5845
134.7987, 165.8167
135.2808, 168.0098
135.7629, 170.0995
136.2450, 172.1214
136.7272, 174.1084
137.2093, 175.9842
137.6914, 178.0884
138.1735, 181.0792
138.6556, 185.2572
139.1377, 188.6029
139.6199, 190.3004
140.1020, 190.3471
140.5841, 191.4844
141.0662, 194.0777
141.5483, 197.2503
142.0304, 199.8884
142.5126, 201.7474
142.9947, 203.4842
143.4768, 204.6142
143.9589, 204.6500
144.4410, 204.8661
144.9231, 205.2125
145.4053, 205.7603
145.8874, 206.7277
146.3695, 208.8618
146.8516, 210.3740
147.3337, 210.6186
147.8158, 209.0478
148.2980, 207.6997
148.7801, 206.5870
149.2622, 205.6820
149.7443, 204.9598
150.2264, 204.5647
150.7085, 204.2069
151.1907, 203.8210
151.6728, 203.6077
152.1549, 203.0319
152.6370, 201.7463
153.1191, 200.0659
153.6012, 198.8081
154.0834, 198.3739
154.5655, 198.0992
155.0476, 197.6859
155.5297, 196.8651
156.0118, 196.2292
156.4939, 195.9334
156.9761, 195.8941
157.4582, 195.8508
157.9403, 195.8087
158.4224, 195.7059
158.9045, 195.4969
159.3866, 194.9005
159.8688, 194.5171
160.3509, 194.7191
160.8330, 195.3583
161.3151, 195.7379
161.7972, 195.2042
162.2793, 194.5296
162.7615, 194.3090
163.2436, 195.3997
163.7257, 196.3174
164.2078, 196.1379
164.6899, 195.0457
165.1720, 194.3555
165.6541, 195.1234
166.1363, 196.4378
166.6184, 197.3992
167.1005, 197.4474
167.5826, 197.2537
168.0647, 197.1429
168.5468, 197.1192
169.0290, 197.2376
169.5111, 197.4774
169.9932, 197.8900
170.4753, 198.5471
170.9574, 199.8369
171.4395, 201.1441
171.9217, 201.9396
172.4038, 202.2245
172.8859, 202.3132
173.3680, 202.2052
173.8501, 202.0864
174.3322, 202.2810
174.8144, 203.1589
175.2965, 204.3206
175.7786, 205.3395
176.2607, 206.2245
176.7428, 206.8681
177.2249, 207.1333
177.7071, 207.0753
178.1892, 206.8377
178.6713, 206.2583
179.1534, 205.5989
179.6355, 205.4558
180.1176, 205.9166
180.5998, 206.2348
181.0819, 205.2856
181.5640, 203.4299
182.0461, 201.9281
182.5282, 201.8670
183.0103, 202.5489
183.4925, 202.3277
183.9746, 201.0657
184.4567, 199.3150
184.9388, 197.7822
185.4209, 196.3852
185.9030, 194.7113
186.3852, 192.2244
186.8673, 189.2556
187.3494, 186.9840
187.8315, 185.5950
188.3136, 184.4654
188.7957, 182.7042
189.2779, 180.3601
189.7600, 177.8482
190.2421, 175.2541
190.7242, 172.6452
191.2063, 170.3690
191.6884, 168.4919
192.1706, 166.8484
192.6527, 165.1023
193.1348, 163.2554
193.6169, 161.5253
194.0990, 160.1479
194.5811, 159.0811
195.0633, 157.5224
195.5454, 155.2755
196.0275, 152.8342
196.5096, 151.3141
196.9917, 150.7915
197.4738, 150.2337
197.9560, 149.0156
198.4381, 147.1432
198.9202, 145.5199
199.4023, 144.2199
199.8844, 143.1529
200.3665, 142.1696
200.8487, 141.2654
201.3308, 140.4532
201.8129, 139.8078
202.2950, 139.3575
202.7771, 138.6951
203.2592, 137.7402
203.7414, 136.6277
204.2235, 135.5881
204.7056, 134.5942
205.1877, 133.8040
205.6698, 133.3600
206.1519, 133.3249
206.6341, 133.2447
207.1162, 133.1806
207.5983, 132.9951
208.0804, 132.2509
208.5625, 130.7293
209.0446, 129.3405
209.5268, 128.6119
210.0089, 128.7232
210.4910, 128.6232
210.9731, 128.2034
211.4552, 127.6159
211.9373, 127.2685
212.4195, 127.2878
212.9016, 127.2355
213.3837, 126.8488
213.8658, 125.9786
214.3479, 125.3371
214.8300, 125.0214
215.3121, 124.8892
215.7943, 124.5456
216.2764, 123.8236
216.7585, 123.2431
217.2406, 123.1158
217.7227, 123.6954
218.2048, 123.9055
218.6870, 123.6842
219.1691, 123.1145
219.6512, 122.3098
220.1333, 121.0249
220.6154, 119.9514
221.0975, 119.4577
221.5797, 119.8885
222.0618, 119.8792
222.5439, 119.2175
223.0260, 118.2199
223.5081, 117.5993
223.9902, 117.5453
224.4724, 117.5527
224.9545, 117.4201
225.4366, 117.1007
225.9187, 116.7758
226.4008, 116.4284
226.8829, 116.0829
227.3651, 115.7809
227.8472, 115.4974
228.3293, 115.2948
228.8114, 115.2444
229.2935, 115.4896
229.7757, 115.4115
230.2578, 114.7930
230.7399, 113.9549
231.2220, 113.5639
231.7041, 113.9392
232.1862, 114.2490
232.6684, 114.1580
233.1505, 113.4882
233.6326, 112.9819
234.1147, 112.6407
234.5968, 112.4602
235.0789, 112.4771
235.5611, 112.8914
236.0432, 113.1764
236.5253, 113.1076
237.0074, 112.5293
237.4895, 112.2055
237.9716, 112.3774
238.4538, 112.6580
238.9359, 112.3456
239.4180, 110.8676
239.9001, 109.7298
240.3822, 109.5033
240.8643, 110.4624
241.3465, 111.0495
241.8286, 111.0921
242.3107, 110.8843
242.7928, 110.8530
243.2749, 111.1285
243.7570, 111.3568
244.2392, 111.4680
244.7213, 111.4768
245.2034, 111.2458
245.6855, 110.6100
246.1676, 109.8710
246.6497, 109.4135
247.1319, 109.3530
247.6140, 109.3698
248.0961, 109.4078
248.5782, 109.4743
249.0603, 109.5097
249.5424, 109.5255
250.0246, 109.5023
250.5067, 109.3999
250.9888, 109.1322
251.4709, 108.9603
251.9530, 108.9815
252.4351, 109.2105
252.9173, 109.3053
253.3994, 109.2358
253.8815, 109.0651
254.3636, 108.8353
254.8457, 108.4940
255.3278, 108.2064
255.8100, 108.0031
256.2921, 107.8817
256.7742, 107.8249
257.2563, 107.9302
257.7384, 107.9693
258.2205, 107.7079
258.7026, 106.9705
259.1848, 106.3775
259.6669, 106.0693
260.1490, 106.0077
260.6311, 105.8757
261.1132, 105.6513
261.5953, 105.3977
262.0775, 105.1527
262.5596, 104.8923
263.0417, 104.7087
263.5238, 104.6208
264.0059, 104.6164
264.4880, 104.6562
264.9702, 104.7926
265.4523, 104.8657
265.9344, 104.7296
266.4165, 104.2809
266.8986, 104.0018
267.3807, 103.9729
267.8629, 104.1217
268.3450, 104.2426
268.8271, 104.3844
269.3092, 104.3838
269.7913, 104.0769
270.2734, 103.3556
270.7556, 102.8920
271.2377, 102.7757
271.7198, 102.8860
272.2019, 102.9434
272.6840, 102.9338
273.1661, 102.9286
273.6483, 103.0107
274.1304, 103.2180
274.6125, 103.1665
275.0946, 102.7598
275.5767, 102.2109
276.0588, 101.9174
276.5410, 101.9241
277.0231, 101.9383
277.5052, 101.7898
277.9873, 101.4696
278.4694, 101.3848
278.9515, 101.5937
279.4337, 101.9061
279.9158, 102.0416
280.3979, 101.9805
280.8800, 101.9360
281.3621, 102.0023
281.8442, 102.1634
282.3264, 102.3006
282.8085, 102.4483
283.2906, 102.4614
283.7727, 102.0453
284.2548, 101.1950
284.7369, 100.5711
285.2191, 100.4520
285.7012, 100.7000
286.1833, 100.7453
286.6654, 100.5724
287.1475, 100.3033
287.6296, 100.0085
288.1118, 99.69631
288.5939, 99.48230
289.0760, 99.42822
289.5581, 99.46102
290.0402, 99.40778
290.5223, 99.26647
291.0045, 99.06187
291.4866, 98.71901
291.9687, 98.29636
292.4508, 98.12931
292.9329, 98.40004
293.4150, 98.76044
293.8972, 98.52509
294.3793, 97.74092
294.8614, 96.94170
295.3435, 96.57455
295.8256, 96.47685
296.3077, 96.14800
296.7899, 95.45837
297.2720, 94.74157
297.7541, 94.54160
298.2362, 94.75600
298.7183, 94.92152
299.2004, 94.72240
299.6826, 94.31293
300.1647, 93.98868
300.6468, 93.78636
301.1289, 93.57484
301.6110, 93.13818
302.0931, 92.57342
302.5753, 92.12536
303.0574, 91.99890
303.5395, 92.01649
304.0216, 92.00478
304.5037, 91.96200
304.9858, 91.77310
305.4680, 91.15008
305.9501, 90.34077
306.4322, 89.77469
306.9143, 89.81499
307.3964, 90.01122
307.8785, 89.88628
308.3607, 89.48129
308.8428, 89.17739
309.3249, 89.39070
309.8070, 89.78871
310.2891, 89.97151
310.7712, 89.71604
311.2534, 89.35888
311.7355, 89.07653
312.2176, 88.86925
312.6997, 88.75127
313.1818, 88.80666
313.6639, 88.91039
314.1461, 88.98466
314.6282, 89.06767
315.1103, 88.99670
315.5924, 88.52578
316.0745, 87.84405
316.5566, 87.33872
317.0388, 87.22765
317.5209, 87.30045
318.0030, 87.48955
318.4851, 87.84325
318.9672, 88.07775
319.4493, 88.04411
319.9315, 87.85027
320.4136, 87.63775
320.8957, 87.39477
321.3778, 87.18792
321.8599, 86.96983
322.3420, 86.71486
322.8242, 86.75480
323.3063, 87.60195
323.7884, 88.56158
324.2705, 89.02770
324.7526, 88.39066
325.2347, 87.79785
325.7169, 87.45043
326.1990, 87.33981
326.6811, 87.37800
327.1632, 87.73722
327.6453, 88.12203
328.1274, 88.36862
328.6096, 88.39212
329.0917, 88.37796
329.5738, 88.29732
330.0559, 88.17878
330.5380, 88.10929
331.0201, 88.04589
331.5023, 88.07915
331.9844, 88.26562
332.4665, 88.69993
332.9486, 89.05018
333.4307, 89.28981
333.9128, 89.45695
334.3950, 89.61181
334.8771, 89.76582
335.3592, 89.88780
335.8413, 89.96387
336.3234, 89.99120
336.8055, 89.98876
337.2877, 89.90983
337.7698, 89.86507
338.2519, 90.00134
338.7340, 90.36974
339.2161, 90.72089
339.6982, 91.01795
340.1803, 91.25565
340.6624, 91.33379
341.1446, 91.18688
341.6267, 91.10202
342.1088, 91.42359
342.5909, 92.17403
343.0730, 92.54865
343.5551, 92.33788
344.0373, 91.80759
344.5194, 91.55667
345.0015, 91.59045
345.4836, 91.73842
345.9657, 92.02348
346.4478, 92.37804
346.9300, 92.37748
347.4121, 91.93765
347.8942, 91.35989
348.3763, 90.96620
348.8584, 90.76328
349.3405, 90.77147
349.8227, 91.15681
350.3048, 91.72916
350.7869, 92.10098
351.2690, 92.27132
351.7511, 92.30424
352.2332, 92.14816
352.7154, 91.89988
353.1975, 91.77312
353.6796, 91.89310
354.1617, 92.10252
354.6438, 92.27374
355.1259, 92.39539
355.6081, 92.41230
356.0902, 92.11681
356.5723, 91.76369
357.0544, 91.68273
357.5365, 92.05103
358.0186, 92.42919
358.5008, 92.46793
358.9829, 92.29173
359.4650, 92.16927
359.9471, 92.29492
360.4292, 92.46191
360.9113, 92.53081
361.3935, 92.47466
361.8756, 92.42370
362.3577, 92.41476
362.8398, 92.44733
363.3219, 92.52068
363.8040, 92.71520
364.2862, 92.87527
364.7683, 92.90268
365.2504, 92.80962
365.7325, 92.82383
366.2146, 93.24233
366.6967, 93.62148
367.1789, 93.68575
367.6610, 92.84459
368.1431, 92.35562
368.6252, 92.48219
369.1073, 93.04741
369.5894, 93.47680
370.0716, 93.59834
370.5537, 93.76578
371.0358, 94.15792
371.5179, 94.96666
372.0000, 95.38735
372.4821, 95.15210
372.9643, 94.70832
373.4464, 94.70937
373.9285, 95.47268
374.4106, 95.99223
374.8927, 95.93108
375.3748, 95.31858
375.8570, 95.04764
376.3391, 95.19850
376.8212, 95.51473
377.3033, 95.83975
377.7854, 96.19554
378.2675, 96.35654
378.7497, 96.23359
379.2318, 95.95573
379.7139, 95.88177
380.1960, 96.03372
380.6781, 96.14577
381.1602, 96.01598
381.6424, 95.69129
382.1245, 95.49285
382.6066, 95.46208
383.0887, 95.44376
383.5708, 95.24346
384.0529, 94.88280
384.5351, 94.44631
385.0172, 93.85464
385.4993, 93.26884
385.9814, 93.04811
386.4635, 93.17505
386.9456, 93.24305
387.4278, 92.82487
387.9099, 92.15202
388.3920, 91.59777
388.8741, 91.30204
389.3562, 91.07600
389.8383, 90.77504
390.3205, 90.40785
390.8026, 90.00825
391.2847, 89.41285
391.7668, 88.90841
392.2489, 88.82796
392.7310, 89.33016
393.2132, 89.60743
393.6953, 89.07769
394.1774, 88.16240
394.6595, 87.36462
395.1416, 86.84878
395.6237, 86.47391
396.1059, 86.27821
396.5880, 86.24124
397.0701, 86.07169
397.5522, 85.53663
398.0343, 84.97066
398.5164, 84.57335
398.9986, 84.52460
399.4807, 84.43434
399.9628, 84.24036
400.4449, 84.00117
400.9270, 83.85987
401.4091, 83.95089
401.8913, 83.96738
402.3734, 83.79012
402.8555, 83.37511
403.3376, 82.99866
403.8197, 82.60634
404.3018, 82.31496
404.7840, 82.27307
405.2661, 82.54167
405.7482, 82.86145
406.2303, 83.23900
406.7124, 83.61856
407.1945, 83.72546
407.6767, 83.50240
408.1588, 83.28374
408.6409, 83.33607
409.1230, 83.63670
409.6051, 83.84975
410.0872, 83.94478
410.5694, 83.96335
411.0515, 83.86230
411.5336, 83.68814
412.0157, 83.73879
412.4978, 84.31228
412.9799, 85.15359
413.4621, 85.74421
413.9442, 86.09431
414.4263, 86.38662
414.9084, 86.62949
415.3905, 86.94912
415.8727, 87.59473
416.3548, 88.80962
416.8369, 90.07478
417.3190, 90.88041
417.8011, 91.37765
418.2832, 91.98293
418.7654, 92.92281
419.2475, 94.02199
419.7296, 95.19563
420.2117, 96.47177
420.6938, 97.64053
421.1759, 98.43522
421.6581, 99.14991
422.1402, 100.1075
422.6223, 101.5398
423.1044, 103.0475
423.5865, 104.5589
424.0686, 106.0617
424.5508, 107.5399
425.0329, 108.8925
425.5150, 110.2893
425.9971, 111.8040
426.4792, 113.4537
426.9613, 115.1875
427.4435, 117.0569
427.9256, 118.9727
428.4077, 120.7662
428.8898, 122.3674
429.3719, 124.0577
429.8540, 125.9478
430.3362, 128.0143
430.8183, 130.0521
431.3004, 132.0405
431.7825, 134.0275
432.2646, 136.0657
432.7467, 138.1468
433.2289, 140.1948
433.7110, 142.1487
434.1931, 144.0836
434.6752, 146.2363
435.1573, 148.5658
435.6394, 150.6327
436.1216, 151.9841
436.6036, 152.9543
437.0858, 154.3559
437.5679, 156.2228
438.0500, 158.0069
438.5321, 159.2761
439.0142, 160.1262
439.4963, 160.7145
439.9785, 161.0698
440.4606, 161.2063
440.9427, 161.0226
441.4248, 160.6111
441.9069, 160.2433
442.3890, 160.4980
442.8712, 160.5236
443.3533, 159.6548
443.8354, 157.6487
444.3175, 155.6121
444.7996, 153.9548
445.2817, 152.4529
445.7639, 150.8575
446.2460, 149.2284
446.7281, 147.3796
447.2102, 145.1298
447.6923, 142.5521
448.1744, 140.2546
448.6566, 138.2888
449.1387, 136.5404
449.6208, 135.0242
450.1029, 133.9275
450.5850, 132.4348
451.0671, 130.4009
451.5493, 128.1405
452.0314, 126.0246
452.5135, 124.0099
452.9956, 122.4456
453.4777, 121.6100
453.9598, 121.2825
454.4420, 120.4122
454.9241, 118.9556
455.4062, 117.4306
455.8883, 116.2269
456.3704, 115.2913
456.8525, 114.4006
457.3347, 113.5429
457.8168, 112.7471
458.2989, 112.1030
458.7810, 111.5681
459.2631, 111.0374
459.7452, 110.4523
460.2274, 109.8467
460.7095, 109.1843
461.1916, 108.4874
461.6737, 107.9992
462.1558, 108.0692
462.6379, 108.3010
463.1201, 108.3044
463.6022, 107.8790
464.0843, 107.5142
464.5664, 107.4352
465.0485, 107.5369
465.5306, 107.6516
466.0128, 107.6985
466.4949, 107.7931
466.9770, 108.0168
467.4591, 108.3774
467.9412, 108.6049
468.4233, 108.6097
468.9055, 108.5573
469.3876, 108.5301
469.8697, 108.4829
470.3518, 108.5669
470.8339, 108.8107
471.3160, 109.1732
471.7982, 109.6140
472.2803, 110.1792
472.7624, 110.6440
473.2445, 110.9311
473.7266, 111.0527
474.2087, 111.0254
474.6909, 110.8298
475.1730, 110.6439
475.6551, 110.6064
476.1372, 110.7036
476.6193, 110.9411
477.1014, 111.3890
477.5836, 111.7466
478.0657, 111.4572
478.5478, 110.7434
479.0299, 110.2502
479.5120, 110.5393
479.9941, 111.0090
480.4763, 111.0797
480.9584, 110.7769
481.4405, 110.4213
481.9226, 110.1849
482.4047, 109.9725
482.8868, 109.7020
483.3690, 109.3310
483.8511, 108.9641
484.3332, 108.6508
484.8153, 108.3582
485.2974, 108.0249
485.7795, 107.5034
486.2617, 107.0956
486.7438, 106.9058
487.2259, 106.9293
487.7080, 106.8906
488.1901, 106.7365
488.6722, 106.5897
489.1544, 106.5386
489.6365, 106.6275
490.1186, 106.6314
490.6007, 106.5108
491.0828, 106.3522
491.5649, 106.2549
492.0471, 106.2148
492.5292, 106.3404
493.0113, 106.7116
493.4934, 107.2466
493.9755, 107.7602
494.4576, 108.2464
494.9398, 108.6925
495.4219, 108.8996
495.9040, 109.1008
496.3861, 109.7658
496.8682, 111.0151
497.3503, 112.3977
497.8325, 113.6299
498.3146, 114.7381
498.7967, 115.7891
499.2788, 116.5333
499.7609, 117.4741
500.2430, 118.8986
500.7252, 120.7405
501.2073, 122.7403
501.6894, 125.0188
502.1715, 127.2555
502.6536, 129.2701
503.1357, 130.8543
503.6179, 132.7426
504.1000, 134.9800
504.5821, 137.5060
505.0642, 140.2944
505.5463, 143.4800
506.0284, 146.6109
506.5106, 149.5919
506.9927, 152.4606
507.4748, 155.3195
507.9569, 158.1489
508.4390, 161.0520
508.9211, 164.0497
509.4033, 167.1509
509.8854, 170.4620
510.3675, 173.9926
510.8496, 177.6414
511.3317, 181.4194
511.8138, 185.2549
512.2960, 188.8654
512.7781, 192.2252
513.2602, 195.4129
513.7423, 198.4857
514.2244, 201.4623
514.7065, 204.3871
515.1887, 207.4966
515.6708, 210.4048
516.1529, 212.7737
516.6350, 214.6171
517.1171, 216.3279
517.5992, 218.1227
518.0814, 219.7596
518.5635, 221.0941
519.0456, 222.2770
519.5277, 222.8641
520.0098, 222.5950
520.4919, 221.8323
520.9741, 221.1357
521.4562, 220.7766
521.9383, 219.9369
522.4204, 218.3249
522.9025, 216.0605
523.3846, 213.9413
523.8668, 212.0496
524.3489, 210.0003
524.8310, 207.4791
525.3131, 204.5232
525.7952, 201.6047
526.2773, 198.7506
526.7595, 195.7972
527.2416, 192.4743
527.7237, 188.9398
528.2058, 185.5472
528.6879, 182.5187
529.1700, 179.5789
529.6522, 176.2582
530.1343, 172.8018
530.6164, 169.8125
531.0985, 168.1690
531.5806, 166.6686
532.0627, 164.4661
532.5449, 161.4566
533.0270, 158.7535
533.5091, 156.7810
533.9912, 155.1673
534.4733, 153.6856
534.9554, 152.5946
535.4376, 151.1855
535.9197, 149.2281
536.4018, 147.0705
536.8839, 145.4055
537.3660, 144.3938
537.8481, 143.4042
538.3303, 142.2664
538.8124, 141.0064
539.2945, 139.6933
539.7766, 138.3066
540.2587, 137.0415
540.7408, 136.2140
541.2230, 135.6384
541.7051, 134.5641
542.1872, 132.8875
542.6693, 131.1580
543.1514, 130.0029
543.6335, 129.1642
544.1157, 128.1145
544.5978, 126.5401
545.0799, 124.9296
545.5620, 123.6441
546.0441, 122.5970
546.5262, 121.5747
547.0084, 120.5526
547.4905, 119.4920
547.9726, 118.3632
548.4547, 117.1694
548.9368, 115.8940
549.4189, 114.4045
549.9011, 112.9362
550.3832, 111.6670
550.8653, 110.8813
551.3474, 109.5692
551.8295, 107.5138
552.3116, 105.1879
552.7938, 103.2905
553.2759, 101.8515
553.7580, 100.5602
554.2401, 99.36298
554.7222, 98.23792
555.2043, 97.19752
555.6865, 96.23107
556.1686, 95.11304
556.6507, 93.55379
557.1328, 91.82346
557.6149, 90.29007
558.0970, 88.97548
558.5792, 87.78985
559.0613, 86.67878
559.5434, 85.67442
560.0255, 84.84448
560.5076, 84.41393
560.9897, 83.79443
561.4719, 82.65068
561.9540, 81.22170
562.4361, 79.92311
562.9182, 78.91281
563.4003, 77.90299
563.8824, 76.78847
564.3646, 75.61106
564.8467, 74.62302
565.3288, 73.89300
565.8109, 73.20373
566.2930, 72.42239
566.7751, 71.54588
567.2573, 70.73857
567.7394, 69.99548
568.2215, 69.31128
568.7036, 68.72310
569.1857, 68.19363
569.6678, 67.54821
570.1500, 66.73099
570.6321, 65.85249
571.1142, 65.05206
571.5963, 64.29681
572.0784, 63.51544
572.5605, 62.58649
573.0427, 61.69408
573.5248, 60.95960
574.0069, 60.37016
574.4890, 59.77784
574.9711, 59.20703
575.4532, 58.57945
575.9354, 57.80424
576.4175, 56.74358
576.8996, 56.03813
577.3817, 55.92194
577.8638, 55.93904
578.3459, 55.66764
578.8281, 55.03829
579.3102, 54.41115
579.7923, 53.82109
580.2744, 53.25661
580.7565, 52.66936
581.2386, 52.06782
581.7208, 51.61950
582.2029, 51.48121
582.6850, 51.46553
583.1671, 51.24020
583.6492, 50.82276
584.1313, 50.31920
584.6134, 49.63519
585.0955, 48.98943
585.5776, 48.62069
586.0598, 48.57452
586.5419, 48.55971
587.0240, 48.46677
587.5061, 48.34381
587.9882, 48.23328
588.4703, 48.27937
588.9525, 48.13753
589.4346, 47.65022
589.9167, 47.03302
590.3988, 46.65513
590.8809, 46.64054
591.3630, 46.54146
591.8452, 46.20956
592.3273, 45.73219
592.8094, 45.47257
593.2915, 45.44362
593.7736, 45.42076
594.2557, 45.24694
594.7379, 44.98405
595.2200, 44.80437
595.7021, 44.71275
596.1842, 44.61804
596.6663, 44.45335
597.1484, 44.24252
597.6306, 43.98815
598.1127, 43.64715
598.5948, 43.41426
599.0769, 43.47421
599.5590, 43.66357
600.0411, 43.77724
600.5233, 43.81989
601.0054, 43.72435
601.4875, 43.38515
601.9696, 42.90343
602.4517, 42.59920
602.9338, 42.57634
603.4160, 42.49870
603.8981, 42.21835
604.3802, 41.76191
604.8623, 41.40385
605.3444, 41.13978
605.8265, 40.98397
606.3087, 40.99786
606.7908, 41.12549
607.2729, 41.21216
607.7550, 41.24234
608.2371, 41.24854
608.7192, 41.29765
609.2014, 41.32915
609.6835, 41.25299
610.1656, 40.99556
610.6477, 40.70989
611.1298, 40.37615
611.6119, 40.07274
612.0941, 39.93280
612.5762, 40.14704
613.0583, 40.34755
613.5404, 40.48402
614.0225, 40.55034
614.5046, 40.50299
614.9868, 40.27816
615.4689, 40.08873
615.9510, 40.09256
616.4331, 40.26869
616.9152, 40.12433
617.3973, 39.62753
617.8795, 39.09950
618.3616, 38.81075
618.8437, 38.71678
619.3258, 38.77431
619.8079, 39.02241
620.2900, 39.17431
620.7722, 38.88429
621.2543, 38.37188
621.7364, 37.94661
622.2185, 37.66342
622.7006, 37.52956
623.1827, 37.68954
623.6649, 37.99604
624.1470, 38.09483
624.6291, 37.73248
625.1112, 37.42611
625.5933, 37.30920
626.0754, 37.35160
626.5576, 37.34893
627.0397, 37.30745
627.5218, 37.19905
628.0039, 36.92334
628.4860, 36.52456
628.9681, 36.47849
629.4503, 36.81499
629.9324, 37.10236
630.4145, 36.81959
630.8966, 36.26316
631.3787, 35.96842
631.8608, 36.07702
632.3430, 36.26007
632.8251, 36.37263
633.3072, 36.40445
633.7893, 36.34473
634.2714, 36.08758
634.7535, 35.85865
635.2357, 35.70837
635.7178, 35.61560
636.1999, 35.53212
636.6820, 35.45834
637.1641, 35.39280
637.6462, 35.33268
638.1284, 35.27999
638.6105, 35.25994
639.0926, 35.27726
639.5747, 35.27755
640.0568, 35.19225
640.5389, 35.06714
641.0211, 35.04768
641.5032, 35.13422
641.9853, 35.25552
642.4674, 35.49375
642.9495, 35.66816
643.4316, 35.50171
643.9138, 34.83528
644.3959, 34.31409
644.8780, 34.36768
645.3601, 34.63396
645.8422, 34.75550
646.3243, 34.58119
646.8065, 34.39540
647.2886, 34.18592
647.7707, 33.98074
648.2528, 33.82854
648.7349, 33.73876
649.2170, 33.66264
649.6992, 33.57705
650.1813, 33.50448
650.6634, 33.52733
651.1455, 33.63453
651.6276, 33.71539
652.1097, 33.63663
652.5919, 33.53695
653.0740, 33.66427
653.5561, 33.98281
654.0382, 34.19369
654.5203, 34.07574
655.0024, 33.83168
655.4846, 33.55547
655.9667, 33.22668
656.4488, 33.03370
656.9309, 33.11812
657.4130, 33.25698
657.8951, 33.30658
658.3773, 33.24286
658.8594, 33.15617
659.3415, 33.04726
659.8236, 32.91941
660.3057, 32.74443
660.7878, 32.53524
661.2700, 32.43424
661.7521, 32.51114
662.2342, 32.62809
662.7163, 32.58982
663.1984, 32.44530
663.6805, 32.31699
664.1627, 32.27298
664.6448, 32.25185
665.1269, 32.26917
665.6090, 32.29152
666.0911, 32.19494
666.5732, 31.71653
667.0554, 31.35635
667.5375, 31.33028
668.0196, 31.63271
668.5017, 31.77338
668.9838, 31.69444
669.4659, 31.59197
669.9481, 31.59841
670.4302, 31.70335
670.9123, 31.74591
671.3944, 31.72647
671.8765, 31.62246
672.3586, 31.30419
672.8408, 30.91759
673.3229, 30.73293
673.8050, 30.82330
674.2871, 30.97780
674.7692, 31.11890
675.2513, 31.22138
675.7335, 31.25630
676.2156, 31.18153
676.6977, 31.08313
677.1798, 30.94506
677.6619, 30.80062
678.1440, 30.70814
678.6262, 30.70840
679.1083, 30.64002
679.5904, 30.42587
680.0725, 30.16229
680.5546, 30.11774
681.0367, 30.28060
681.5189, 30.41867
682.0010, 30.43279
682.4831, 30.35386
682.9652, 30.17231
683.4473, 29.92125
683.9294, 29.74220
684.4116, 29.75538
684.8937, 29.83472
685.3758, 29.93672
685.8579, 30.05956
686.3400, 30.08621
686.8221, 29.88441
687.3043, 29.68021
687.7864, 29.59059
688.2685, 29.64938
688.7506, 29.61646
689.2327, 29.44535
689.7148, 29.30515
690.1970, 29.42083
690.6791, 29.73644
691.1612, 29.87801
691.6433, 29.78798
692.1254, 29.60112
692.6075, 29.29059
693.0897, 29.01719
693.5718, 29.07827
694.0539, 29.82688
694.5360, 30.41180
695.0181, 30.32132
695.5002, 29.86689
695.9824, 29.53492
696.4645, 29.42822
696.9466, 29.40535
697.4287, 29.51619
697.9108, 29.67427
698.3929, 29.62927
698.8751, 29.33507
699.3572, 29.10399
699.8393, 29.03978
700.3214, 29.10226
700.8035, 29.25097
701.2856, 29.46219
701.7678, 29.59837
702.2499, 29.57739
702.7320, 29.44585
703.2141, 29.18003
703.6962, 28.80917
704.1783, 28.54353
704.6605, 28.57786
705.1426, 28.63494
705.6247, 28.54608
706.1068, 28.27858
706.5889, 28.16120
707.0710, 28.26462
707.5532, 28.39715
708.0353, 28.42487
708.5174, 28.34780
708.9995, 28.32038
709.4816, 28.34525
709.9637, 28.42863
710.4459, 28.63142
710.9280, 28.88440
711.4101, 29.07839
711.8922, 29.21621
712.3743, 29.19932
712.8564, 28.73855
713.3386, 28.19845
713.8207, 27.96639
714.3028, 28.52026
714.7849, 28.79849
715.2670, 28.53195
715.7491, 28.08252
716.2313, 27.93635
716.7134, 28.18782
717.1955, 28.35205
717.6776, 28.34627
718.1597, 28.22153
718.6418, 27.99903
719.1240, 27.71937
719.6061, 27.58545
720.0882, 27.77045
720.5703, 28.01373
721.0524, 28.06426
721.5345, 27.96474
722.0167, 27.81787
722.4988, 27.51367
722.9809, 27.32414
723.4630, 27.44598
723.9451, 27.79816
724.4272, 27.96173
724.9094, 27.84352
725.3915, 27.71473
725.8736, 27.66895
726.3557, 27.69228
726.8378, 27.69333
727.3199, 27.67135
727.8021, 27.69250
728.2842, 27.90008
728.7663, 28.13432
729.2484, 28.07718
729.7305, 27.74835
730.2126, 27.44486
730.6948, 27.31807
731.1769, 27.28612
731.6590, 27.32703
732.1411, 27.46024
732.6232, 27.50609
733.1053, 27.38835
733.5875, 27.25669
734.0696, 27.21160
734.5517, 27.27244
735.0338, 27.26579
735.5159, 27.18451
735.9980, 27.06871
736.4802, 26.88951
736.9623, 26.71019
737.4444, 26.74828
737.9265, 27.05795
738.4086, 27.35977
738.8907, 27.43899
739.3729, 27.39708
739.8550, 27.34129
740.3371, 27.30220
740.8192, 27.23213
741.3013, 27.02969
741.7834, 26.85122
742.2656, 26.87692
742.7477, 27.20133
743.2298, 27.39846
743.7119, 27.40656
744.1940, 27.31148
744.6761, 27.21484
745.1583, 27.12048
745.6404, 27.04532
746.1225, 26.98391
746.6046, 26.96640
747.0867, 27.09585
747.5688, 27.27572
748.0510, 27.33992
748.5331, 27.07279
749.0152, 26.86859
749.4973, 26.90620
749.9794, 27.06173
750.4615, 27.08655
750.9437, 26.93539
751.4258, 26.76118
751.9079, 26.57828
752.3900, 26.40907
752.8721, 26.31401
753.3542, 26.28851
753.8364, 26.27325
754.3185, 26.22101
754.8006, 26.18934
755.2827, 26.27250
755.7648, 26.43571
756.2469, 26.57712
756.7291, 26.62026
757.2112, 26.66660
757.6933, 26.78412
758.1754, 26.94935
758.6575, 27.02851
759.1396, 26.98215
759.6218, 26.92654
760.1039, 26.90085
760.5860, 26.89748
761.0681, 26.85859
761.5502, 26.78727
762.0323, 26.77682
762.5145, 26.98030
762.9966, 27.22131
763.4787, 27.22573
763.9608, 27.02722
764.4429, 26.85336
764.9250, 26.86753
765.4072, 26.88584
765.8893, 26.79381
766.3714, 26.58066
766.8535, 26.42262
767.3356, 26.26464
767.8177, 26.26547
768.2999, 26.58610
768.7820, 27.17474
769.2641, 27.47337
769.7462, 27.47356
770.2283, 27.40611
770.7104, 27.45596
771.1926, 27.53440
771.6747, 27.51334
772.1568, 27.38707
772.6389, 27.22870
773.1210, 26.99868
773.6031, 26.80761
774.0853, 26.72505
774.5674, 26.76312
775.0495, 26.88539
775.5316, 27.18411
776.0137, 27.40812
776.4958, 27.35015
776.9780, 27.02744
777.4601, 26.79662
777.9422, 26.66061
778.4243, 26.63526
778.9064, 26.85138
779.3885, 27.12920
779.8707, 27.18481
780.3528, 26.96482
780.8349, 26.82242
781.3170, 27.01052
781.7991, 27.26804
782.2812, 27.41077
782.7633, 27.41271
783.2454, 27.37023
783.7275, 27.26871
784.2097, 27.15240
784.6918, 27.01700
785.1739, 26.87985
785.6560, 26.96902
786.1381, 27.32388
786.6202, 27.60699
787.1024, 27.35625
787.5845, 26.92394
788.0666, 26.80139
788.5487, 27.14057
789.0308, 27.39540
789.5129, 27.28195
789.9951, 27.06794
790.4772, 26.96447
790.9593, 27.01077
791.4414, 27.05819
791.9235, 27.10339
792.4056, 27.15795
792.8878, 27.24469
793.3699, 27.35416
793.8520, 27.43876
794.3341, 27.49376
794.8162, 27.52903
795.2983, 27.55547
795.7805, 27.56734
796.2626, 27.54807
796.7447, 27.46990
797.2268, 27.44223
797.7089, 27.53612
798.1910, 27.66022
798.6732, 27.75336
799.1553, 27.82723
799.6374, 27.81665
800.1195, 27.69613
800.6016, 27.56970
801.0837, 27.60099
801.5659, 27.71636
802.0480, 27.61942
802.5301, 27.22677
803.0122, 26.97190
803.4943, 27.38992
803.9764, 27.98687
804.4586, 28.25824
804.9407, 27.96401
805.4228, 27.71202
805.9049, 27.51413
806.3870, 27.41870
806.8691, 27.50558
807.3513, 27.80944
807.8334, 27.98905
808.3155, 28.02641
808.7976, 27.94271
809.2797, 27.67912
809.7618, 27.32917
810.2440, 27.05776
810.7261, 26.87901
811.2082, 26.84944
811.6903, 27.15326
812.1724, 27.52681
812.6545, 27.73194
813.1367, 27.67178
813.6188, 27.63702
814.1009, 27.64318
814.5830, 27.65050
815.0651, 27.60862
815.5472, 27.52433
816.0294, 27.50536
816.5115, 27.56400
816.9936, 27.63551
817.4757, 27.70321
817.9578, 27.72733
818.4399, 27.62011
818.9221, 27.32954
819.4042, 27.14236
819.8863, 27.27509
820.3684, 27.45473
820.8505, 27.47656
821.3326, 27.26962
821.8148, 27.22157
822.2969, 27.37927
822.7790, 27.54126
823.2611, 27.48594
823.7432, 27.29132
824.2253, 27.21881
824.7075, 27.28964
825.1896, 27.37885
825.6717, 27.39142
826.1538, 27.38516
826.6359, 27.41474
827.1180, 27.49833
827.6002, 27.54915
828.0823, 27.55882
828.5644, 27.53590
829.0465, 27.47001
829.5286, 27.36006
830.0107, 27.30586
830.4929, 27.31004
830.9750, 27.34886
831.4571, 27.47593
831.9392, 27.59365
832.4213, 27.50439
832.9034, 27.20865
833.3856, 26.96422
833.8677, 26.94470
834.3498, 26.97067
834.8319, 26.92359
835.3140, 26.79498
835.7961, 26.76769
836.2783, 26.88224
836.7604, 26.98769
837.2425, 26.98795
837.7246, 26.91042
838.2067, 26.89310
838.6888, 26.92361
839.1710, 26.88286
839.6531, 26.55672
840.1352, 26.23258
840.6173, 26.18626
841.0994, 26.39737
841.5815, 26.55656
842.0637, 26.59066
842.5458, 26.58006
843.0279, 26.52253
843.5100, 26.43676
843.9921, 26.45847
844.4742, 26.59234
844.9564, 26.71619
845.4385, 26.76262
845.9206, 26.76701
846.4027, 26.78852
846.8848, 26.81585
847.3669, 26.80899
847.8491, 26.70931
848.3312, 26.61553
848.8133, 26.61246
849.2954, 26.64792
849.7775, 26.52229
850.2596, 26.14124
850.7418, 25.89972
851.2239, 25.92566
851.7060, 26.13503
852.1881, 26.45137
852.6702, 26.81010
853.1523, 26.93573
853.6345, 26.52573
854.1166, 26.08648
854.5987, 26.02610
855.0808, 26.16888
855.5629, 26.17252
856.0450, 25.73258
856.5272, 25.52349
857.0093, 25.70070
857.4914, 26.05186
857.9735, 26.24292
858.4556, 26.27569
858.9377, 26.17180
859.4199, 25.89400
859.9020, 25.62762
860.3841, 25.58024
860.8662, 25.67713
861.3483, 25.81856
861.8304, 26.04706
862.3126, 26.18752
862.7947, 26.12869
863.2768, 26.00625
863.7589, 25.94555
864.2410, 25.96882
864.7231, 25.91385
865.2053, 25.75289
865.6874, 25.58255
866.1695, 25.53072
866.6516, 25.53846
867.1337, 25.44738
867.6158, 25.20713
868.0980, 25.09872
868.5801, 25.50939
869.0622, 25.94020
869.5443, 25.93934
870.0264, 25.35950
870.5085, 25.06216
870.9907, 25.12146
871.4728, 25.27728
871.9549, 25.37287
872.4370, 25.41095
872.9191, 25.37918
873.4012, 25.28253
873.8834, 25.20259
874.3655, 25.17616
874.8476, 25.20353
875.3297, 25.31585
875.8118, 25.50942
876.2939, 25.63154
876.7761, 25.65115
877.2582, 25.62948
877.7403, 25.57244
878.2224, 25.49333
878.7045, 25.48622
879.1866, 25.54182
879.6688, 25.53727
880.1509, 25.30126
880.6330, 25.06102
881.1151, 25.08423
881.5972, 25.29257
882.0793, 25.46047
882.5615, 25.53683
883.0436, 25.54329
883.5257, 25.46833
884.0078, 25.33952
884.4899, 25.18120
884.9720, 24.98423
885.4542, 24.96424
885.9363, 25.24232
886.4184, 25.56396
886.9005, 25.53122
887.3826, 25.31682
887.8647, 25.22829
888.3469, 25.45465
888.8290, 25.65185
889.3111, 25.68309
889.7932, 25.65395
890.2753, 25.67656
890.7574, 25.77613
891.2396, 25.79153
891.7217, 25.68891
892.2038, 25.60069
892.6859, 25.73167
893.1680, 25.96641
893.6501, 26.04434
894.1323, 25.91305
894.6144, 25.83579
895.0965, 26.11002
895.5786, 26.35875
896.0607, 26.25220
896.5428, 25.72203
897.0250, 25.46258
897.5071, 25.53159
897.9892, 25.67847
898.4713, 25.78327
898.9534, 25.83791
899.4355, 25.77610
899.9177, 25.62203
900.3998, 25.53258
900.8819, 25.68656
901.3640, 25.85229
901.8461, 25.86641
902.3282, 25.75829
902.8104, 25.74424
903.2925, 25.84731
903.7746, 26.00279
904.2567, 26.23047
904.7388, 26.45594
905.2209, 26.48044
905.7031, 26.34239
906.1852, 26.19320
906.6673, 26.06833
907.1494, 25.98293
907.6315, 25.98101
908.1136, 26.01490
908.5958, 26.00552
909.0779, 25.88293
909.5600, 25.84901
910.0421, 25.97211
910.5242, 26.09121
911.0063, 25.91783
911.4885, 25.53761
911.9706, 25.42550
912.4527, 25.67429
912.9348, 25.95930
913.4169, 25.98727
913.8990, 25.95716
914.3812, 26.06944
914.8633, 26.40573
915.3454, 26.63045
915.8275, 26.73078
916.3096, 26.72028
916.7917, 26.54762
917.2739, 26.25570
917.7560, 26.16870
918.2381, 26.26935
918.7202, 26.34993
919.2023, 26.24372
919.6844, 26.09030
920.1666, 25.95121
920.6487, 25.84869
921.1308, 25.88267
921.6129, 26.14463
922.0950, 26.41517
922.5771, 26.65896
923.0593, 26.86567
923.5414, 27.04587
924.0235, 27.17921
924.5056, 27.10713
924.9877, 26.68336
925.4698, 26.23828
925.9520, 25.98562
926.4341, 25.91716
926.9162, 26.02459
927.3983, 26.57231
927.8804, 26.88546
928.3625, 26.87725
928.8447, 26.74797
929.3268, 26.68425
929.8089, 26.68149
930.2910, 26.71592
930.7731, 26.78854
931.2552, 26.83781
931.7374, 26.72819
932.2195, 26.63556
932.7016, 26.77687
933.1837, 27.20093
933.6658, 27.39178
934.1479, 27.21965
934.6301, 26.97408
935.1122, 26.73075
935.5943, 26.52366
936.0764, 26.56497
936.5585, 26.81722
937.0406, 26.99687
937.5228, 26.87428
938.0049, 26.69683
938.4870, 26.63174
938.9691, 26.65464
939.4512, 26.70922
939.9333, 26.80767
940.4155, 26.91049
940.8976, 27.04225
941.3797, 27.13305
941.8618, 27.00916
942.3439, 26.72804
942.8260, 26.60179
943.3082, 26.71577
943.7903, 26.81944
944.2724, 26.60929
944.7545, 26.36704
945.2366, 26.38353
945.7188, 26.82110
946.2009, 27.07606
946.6830, 27.11895
947.1651, 27.05012
947.6472, 26.86963
948.1293, 26.62932
948.6115, 26.55081
949.0936, 26.62325
949.5757, 26.75350
950.0578, 26.86411
950.5399, 27.03440
951.0220, 27.41678
951.5042, 27.91457
951.9863, 28.13926
952.4684, 28.04134
952.9505, 27.75786
953.4326, 27.22042
953.9147, 26.68176
954.3969, 26.63840
954.8790, 26.95669
955.3611, 27.29822
955.8432, 27.62947
956.3253, 27.79300
956.8074, 27.54104
957.2896, 27.18229
957.7717, 27.01257
958.2538, 27.07269
958.7359, 27.21799
959.2180, 27.48095
959.7001, 27.68605
960.1823, 27.60086
960.6644, 27.38457
961.1465, 27.37347
961.6286, 27.56082
962.1107, 27.78580
962.5928, 28.15135
963.0750, 28.34436
963.5571, 28.11554
964.0392, 27.61422
964.5213, 27.41406
965.0034, 27.54777
965.4855, 27.67466
965.9677, 27.65668
966.4498, 27.66015
966.9319, 28.01287
967.4140, 28.53039
967.8961, 28.87848
968.3782, 28.89863
968.8604, 28.86490
969.3425, 28.76183
969.8246, 28.69566
970.3067, 28.75437
970.7888, 28.93901
971.2709, 29.22462
971.7531, 29.61539
972.2352, 29.97076
972.7173, 30.19780
973.1994, 30.31787
973.6815, 30.31820
974.1636, 30.21014
974.6458, 30.10166
975.1279, 29.84583
975.6100, 29.86404
976.0921, 30.39961
976.5742, 31.19514
977.0563, 31.50204
977.5385, 31.38927
978.0206, 31.25876
978.5027, 31.25235
978.9848, 31.26583
979.4669, 31.18807
979.9490, 31.09788
980.4311, 31.10598
980.9132, 31.32409
981.3953, 31.40294
981.8774, 31.29078
982.3596, 31.17050
982.8417, 31.28968
983.3238, 31.52268
983.8059, 31.43873
984.2880, 31.04535
984.7701, 30.69066
985.2523, 30.60503
985.7344, 30.57902
986.2165, 30.47358
986.6986, 30.32763
987.1807, 30.34820
987.6628, 30.57303
988.1450, 30.73635
988.6271, 30.74799
989.1092, 30.68501
989.5913, 30.63241
990.0734, 30.59556
990.5555, 30.58613
991.0377, 30.62058
991.5198, 30.65659
992.0019, 30.69928
992.4840, 30.72589
992.9661, 30.72947
993.4482, 30.71193
993.9304, 30.57572
994.4125, 30.31468
994.8946, 30.10974
995.3767, 30.10591
995.8588, 30.20294
996.3409, 30.37635
996.8231, 30.58803
997.3052, 30.63305
997.7873, 30.32582
998.2694, 30.13623
998.7515, 30.17837
999.2336, 30.37485
999.7158, 30.62752
1000.198, 30.90543
1000.680, 31.09673
1001.162, 31.17784
1001.644, 31.14067
1002.126, 30.83445
1002.608, 30.50492
1003.091, 30.40882
1003.573, 30.61162
1004.055, 30.64456
1004.537, 30.46438
1005.019, 30.32421
1005.501, 30.47095
1005.983, 30.73096
1006.465, 30.83662
1006.948, 30.79208
1007.430, 30.62859
1007.912, 30.14017
1008.394, 29.81543
1008.876, 29.87962
1009.358, 30.09943
1009.840, 30.02991
1010.322, 29.68189
1010.804, 29.42661
1011.287, 29.32367
1011.769, 29.32389
1012.251, 29.43233
1012.733, 29.58649
1013.215, 29.75456
1013.697, 29.95540
1014.179, 29.95960
1014.661, 29.65529
1015.143, 29.39798
1015.626, 29.40957
1016.108, 29.57236
1016.590, 29.50368
1017.072, 29.26369
1017.554, 29.07369
1018.036, 29.03832
1018.518, 29.07266
1019.000, 29.20382
1019.483, 29.35552
1019.965, 29.43699
1020.447, 29.45547
1020.929, 29.33661
1021.411, 29.05836
1021.893, 28.75418
1022.375, 28.44401
1022.857, 28.24645
1023.339, 28.43450
1023.822, 29.00075
1024.304, 29.28937
1024.786, 28.88633
1025.268, 28.54028
1025.750, 28.48251
1026.232, 28.61558
1026.714, 28.68543
1027.196, 28.70496
1027.679, 28.74927
1028.161, 28.87957
1028.643, 28.95204
1029.125, 28.82712
1029.607, 28.62127
1030.089, 28.46240
1030.571, 28.37434
1031.053, 28.24298
1031.536, 28.04816
1032.018, 27.89889
1032.500, 27.88821
1032.982, 27.96599
1033.464, 28.10269
1033.946, 28.26533
1034.428, 28.33208
1034.910, 28.19833
1035.392, 28.02820
1035.875, 27.81568
1036.357, 27.62940
1036.839, 27.63112
1037.321, 27.79453
1037.803, 27.88718
1038.285, 27.87270
1038.767, 27.77297
1039.249, 27.49521
1039.731, 27.22268
1040.214, 27.13329
1040.696, 27.25073
1041.178, 27.31088
1041.660, 27.31380
1042.142, 27.25315
1042.624, 27.10415
1043.106, 26.91406
1043.588, 26.73664
1044.071, 26.58459
1044.553, 26.48460
1045.035, 26.43454
1045.517, 26.46321
1045.999, 26.69715
1046.481, 26.88236
1046.963, 26.72707
1047.445, 26.25894
1047.927, 25.91769
1048.410, 25.71536
1048.892, 25.61444
1049.374, 25.62932
1049.856, 25.69751
1050.338, 25.80023
1050.820, 25.92118
1051.302, 26.00013
1051.784, 26.03846
1052.266, 26.03032
1052.749, 25.97716
1053.231, 25.86968
1053.713, 25.61638
1054.195, 25.33022
1054.677, 25.22984
1055.159, 25.40667
1055.641, 25.46442
1056.123, 25.12158
1056.606, 24.84623
1057.088, 24.91875
1057.570, 25.23414
1058.052, 25.14191
1058.534, 24.71243
1059.016, 24.39814
1059.498, 24.49338
1059.980, 24.65447
1060.463, 24.68243
1060.945, 24.63954
1061.427, 24.60831
1061.909, 24.57595
1062.391, 24.63995
1062.873, 24.82754
1063.355, 24.96588
1063.837, 24.83966
1064.319, 24.61075
1064.802, 24.52433
1065.284, 24.56045
1065.766, 24.52958
1066.248, 24.26380
1066.730, 24.09591
1067.212, 24.11550
1067.694, 24.22312
1068.176, 24.25196
1068.658, 24.21165
1069.141, 24.10062
1069.623, 23.89373
1070.105, 23.80826
1070.587, 24.13579
1071.069, 24.48203
1071.551, 24.57563
1072.033, 24.43400
1072.515, 24.29896
1072.998, 24.17162
1073.480, 24.08211
1073.962, 24.06958
1074.444, 24.06417
1074.926, 24.01779
1075.408, 23.91903
1075.890, 23.74410
1076.372, 23.38972
1076.854, 23.14624
1077.337, 23.00591
1077.819, 22.99705
1078.301, 23.25294
1078.783, 23.62503
1079.265, 23.73115
1079.747, 23.60676
1080.229, 23.48067
1080.711, 23.43782
1081.193, 23.42940
1081.676, 23.46862
1082.158, 23.50758
1082.640, 23.45708
1083.122, 23.32553
1083.604, 23.19126
1084.086, 23.06403
1084.568, 22.94898
1085.050, 22.82753
1085.532, 22.73844
1086.015, 22.74385
1086.497, 22.82544
1086.979, 22.78178
1087.461, 22.57379
1087.943, 22.52920
1088.425, 22.83012
1088.907, 23.17731
1089.389, 23.17263
1089.872, 22.96518
1090.354, 22.77115
1090.836, 22.66294
1091.318, 22.46929
1091.800, 22.11088
1092.282, 21.81698
1092.764, 21.75387
1093.246, 21.85365
1093.729, 21.97805
1094.211, 22.09433
1094.693, 22.08093
1095.175, 21.61551
1095.657, 21.37075
1096.139, 21.78151
1096.621, 22.27564
1097.103, 22.10732
1097.585, 21.32134
1098.068, 21.14116
1098.550, 21.62166
1099.032, 21.97048
1099.514, 21.34900
1099.996, 20.65765
1100.478, 20.56365
1100.960, 20.91645
1101.442, 21.08270
1101.924, 21.04341
1102.407, 20.91784
1102.889, 20.70786
1103.371, 20.50023
1103.853, 20.38777
1104.335, 20.33370
1104.817, 20.30447
1105.299, 20.29940
1105.781, 20.26273
1106.264, 20.16993
1106.746, 20.10065
1107.228, 20.10486
1107.710, 20.12331
1108.192, 20.01658
1108.674, 19.83106
1109.156, 19.66043
1109.638, 19.50528
1110.120, 19.45005
1110.603, 19.64186
1111.085, 19.78921
1111.567, 19.67670
1112.049, 19.35051
1112.531, 19.13221
1113.013, 19.01010
1113.495, 18.89185
1113.977, 18.71202
1114.459, 18.54245
1114.942, 18.40288
1115.424, 18.30268
1115.906, 18.24853
1116.388, 18.23755
1116.870, 18.35323
1117.352, 18.60873
1117.834, 18.76450
1118.316, 18.53847
1118.799, 18.21409
1119.281, 18.00803
1119.763, 17.91160
1120.245, 17.84599
1120.727, 17.82259
1121.209, 17.77389
1121.691, 17.68575
1122.173, 17.58068
1122.656, 17.44645
1123.138, 17.33252
1123.620, 17.34456
1124.102, 17.49956
1124.584, 17.52001
1125.066, 17.29738
1125.548, 17.10668
1126.030, 17.03597
1126.512, 17.04210
1126.995, 17.06875
1127.477, 17.09916
1127.959, 17.09963
1128.441, 17.07159
1128.923, 16.97652
1129.405, 16.70460
1129.887, 16.47971
1130.369, 16.44903
1130.851, 16.55332
1131.334, 16.49269
1131.816, 16.30074
1132.298, 16.13534
1132.780, 16.08635
1133.262, 16.04163
1133.744, 15.93063
1134.226, 15.81270
1134.708, 15.72478
1135.191, 15.66183
1135.673, 15.78910
1136.155, 16.09801
1136.637, 16.28973
1137.119, 16.05096
1137.601, 15.75241
1138.083, 15.67673
1138.565, 15.72086
1139.047, 15.64292
1139.530, 15.39232
1140.012, 15.31512
1140.494, 15.46052
1140.976, 15.57891
1141.458, 15.37285
1141.940, 15.08365
1142.422, 14.95883
1142.904, 14.98480
1143.386, 15.00543
1143.869, 15.01971
1144.351, 14.99457
1144.833, 14.91605
1145.315, 14.82366
1145.797, 14.74249
1146.279, 14.69372
1146.761, 14.74590
1147.243, 14.91063
1147.726, 14.93942
1148.208, 14.73170
1148.690, 14.53837
1149.172, 14.44559
1149.654, 14.38768
1150.136, 14.18904
1150.618, 13.94307
1151.100, 13.87199
1151.583, 14.08592
1152.065, 14.19086
1152.547, 13.95844
1153.029, 13.78632
1153.511, 13.90692
1153.993, 14.19661
1154.475, 14.25962
1154.957, 14.13859
1155.439, 13.96877
1155.922, 13.76168
1156.404, 13.58886
1156.886, 13.46085
1157.368, 13.39437
1157.850, 13.44089
1158.332, 13.57548
1158.814, 13.50929
1159.296, 13.27891
1159.778, 13.12224
1160.261, 13.28322
1160.743, 13.40840
1161.225, 13.22563
1161.707, 12.99499
1162.189, 13.03437
1162.671, 13.35438
1163.153, 13.42183
1163.635, 13.23100
1164.118, 13.02708
1164.600, 12.95639
1165.082, 12.94741
1165.564, 12.98892
1166.046, 13.05125
1166.528, 13.10001
1167.010, 13.14653
1167.492, 13.02909
1167.974, 12.72033
1168.457, 12.44649
1168.939, 12.40831
1169.421, 12.46616
1169.903, 12.55510
1170.385, 12.64445
1170.867, 12.62980
1171.349, 12.48665
1171.831, 12.38743
1172.313, 12.36580
1172.796, 12.37083
1173.278, 12.35548
1173.760, 12.33853
1174.242, 12.34327
1174.724, 12.36959
1175.206, 12.36874
1175.688, 12.31872
1176.170, 12.35059
1176.653, 12.52410
1177.135, 12.70899
1177.617, 12.75803
1178.099, 12.71095
1178.581, 12.57999
1179.063, 12.35104
1179.545, 12.27305
1180.027, 12.40578
1180.510, 12.49142
1180.992, 12.41439
1181.474, 12.28267
1181.956, 12.27502
1182.438, 12.31429
1182.920, 12.26866
1183.402, 12.07397
1183.884, 11.95463
1184.366, 11.93293
1184.849, 11.94709
1185.331, 11.96633
1185.813, 12.00430
1186.295, 12.13468
1186.777, 12.28924
1187.259, 12.32747
1187.741, 12.10935
1188.223, 12.02720
1188.705, 12.15338
1189.188, 12.28555
1189.670, 12.29791
1190.152, 12.22321
1190.634, 12.07906
1191.116, 11.91038
1191.598, 11.82617
1192.080, 12.03976
1192.562, 12.03237
1193.045, 11.68097
1193.527, 11.31883
1194.009, 11.20677
1194.491, 11.29013
1194.973, 11.56067
1195.455, 11.92652
1195.937, 12.08942
1196.419, 11.67672
1196.901, 11.46636
1197.384, 11.65068
1197.866, 11.84353
1198.348, 11.54583
1198.830, 11.01203
1199.312, 10.89052
1199.794, 11.13722
1200.276, 11.40720
1200.758, 11.72573
1201.240, 11.79794
1201.723, 11.50121
1202.205, 11.10273
1202.687, 10.90667
1203.169, 10.86729
1203.651, 10.90417
1204.133, 11.00224
1204.615, 11.09368
1205.097, 11.19661
1205.580, 11.21434
1206.062, 11.08150
1206.544, 10.93772
1207.026, 11.02667
1207.508, 11.25503
1207.990, 11.41156
1208.472, 11.47277
1208.954, 11.43535
1209.437, 11.16287
1209.919, 10.97396
1210.401, 10.95576
1210.883, 11.03032
1211.365, 11.08900
1211.847, 11.13094
1212.329, 11.14122
1212.811, 11.11639
1213.293, 11.14244
1213.776, 11.35883
1214.258, 11.47300
1214.740, 11.38359
1215.222, 11.18255
1215.704, 11.00340
1216.186, 10.86295
1216.668, 10.81410
1217.150, 10.87380
1217.632, 10.93128
1218.115, 10.98091
1218.597, 10.97570
1219.079, 10.86006
1219.561, 10.73461
1220.043, 10.85060
1220.525, 11.10389
1221.007, 11.27148
1221.489, 11.30536
1221.972, 11.26173
1222.454, 11.11378
1222.936, 10.96451
1223.418, 10.84773
1223.900, 10.75654
1224.382, 10.65163
1224.864, 10.56575
1225.346, 10.57509
1225.828, 10.71646
1226.311, 10.88354
1226.793, 11.11517
1227.275, 11.24745
1227.757, 11.17885
1228.239, 10.99722
1228.721, 10.84059
1229.203, 10.72158
1229.685, 10.67253
1230.167, 10.72208
1230.650, 10.78891
1231.132, 10.90909
1231.614, 10.92637
1232.096, 10.67277
1232.578, 10.36603
1233.060, 10.55968
1233.542, 10.98129
1234.024, 11.08496
1234.507, 10.53474
1234.989, 10.21362
1235.471, 10.19349
1235.953, 10.29107
1236.435, 10.46643
1236.917, 10.63181
1237.399, 10.54560
1237.881, 10.37101
1238.364, 10.42854
1238.846, 11.00878
1239.328, 11.23820
1239.810, 11.04469
1240.292, 10.78350
1240.774, 10.69570
1241.256, 10.63966
1241.738, 10.30970
1242.220, 9.901700
1242.703, 9.789959
1243.185, 10.16612
1243.667, 10.42448
1244.149, 10.56308
1244.631, 10.58004
1245.113, 10.33950
1245.595, 10.10361
1246.077, 10.27538
1246.559, 10.61882
1247.042, 10.69057
1247.524, 10.34114
1248.006, 10.23777
1248.488, 10.40330
1248.970, 10.52681
1249.452, 10.28296
1249.934, 10.02769
1250.416, 10.10416
1250.899, 10.36006
1251.381, 10.56595
1251.863, 10.73011
1252.345, 10.72431
1252.827, 10.54877
1253.309, 10.36970
1253.791, 10.28560
1254.273, 10.24868
1254.755, 10.22063
1255.238, 10.22748
1255.720, 10.33239
1256.202, 10.54619
1256.684, 10.54010
1257.166, 10.32313
1257.648, 10.15829
1258.130, 10.30087
1258.612, 10.42849
1259.094, 10.29303
1259.577, 10.11666
1260.059, 10.17690
1260.541, 10.44438
1261.023, 10.48749
1261.505, 10.32662
1261.987, 10.20722
1262.469, 10.31006
1262.951, 10.41977
1263.434, 10.49644
1263.916, 10.51519
1264.398, 10.40576
1264.880, 10.21366
1265.362, 10.14830
1265.844, 10.20056
1266.326, 10.28839
1266.808, 10.46478
1267.291, 10.52944
1267.773, 10.40222
1268.255, 10.25035
1268.737, 10.26063
1269.219, 10.36753
1269.701, 10.40861
1270.183, 10.39425
1270.665, 10.38677
1271.147, 10.48968
1271.630, 10.42886
1272.112, 10.10011
1272.594, 9.851083
1273.076, 10.21154
1273.558, 10.73281
1274.040, 10.61337
1274.522, 10.04845
1275.004, 9.726276
1275.486, 9.866351
1275.969, 9.950660
1276.451, 9.943509
1276.933, 9.909247
1277.415, 9.848829
1277.897, 9.835002
1278.379, 10.02707
1278.861, 10.31040
1279.343, 10.38493
1279.825, 10.17903
1280.308, 10.09628
1280.790, 10.16176
1281.272, 10.23658
1281.754, 10.19791
1282.236, 10.15049
1282.718, 10.13930
1283.200, 10.18700
1283.682, 10.37910
1284.165, 10.73072
1284.647, 10.69982
1285.129, 10.29034
1285.611, 9.906382
1286.093, 9.799074
1286.575, 9.769216
1287.057, 9.763297
1287.539, 9.756425
1288.021, 9.689936
1288.504, 9.593685
1288.986, 9.659925
1289.468, 9.873548
1289.950, 10.10569
1290.432, 10.39833
1290.914, 10.54344
1291.396, 10.47748
1291.878, 10.32228
1292.360, 10.13992
1292.843, 9.976541
1293.325, 9.997808
1293.807, 10.14649
1294.289, 10.21524
1294.771, 10.04731
1295.253, 9.933938
1295.735, 9.886418
1296.217, 9.894632
1296.700, 9.992741
1297.182, 10.11024
1297.664, 10.15167
1298.146, 10.13214
1298.628, 10.07879
1299.110, 9.935087
1299.592, 10.02943
1300.074, 10.40253
1300.557, 10.67486
1301.039, 10.46800
1301.521, 10.16390
1302.003, 10.03164
1302.485, 10.03724
1302.967, 10.10039
1303.449, 10.22696
##END=



