##NAMES=Claudetite
##RRUFFID=R050313
##IDEAL CHEMISTRY=As^3+^_2_O_3_
##LOCALITY=JÃ¡chymov, Erzgebirge Region, Czech Republic
##OWNER=RRUFF
##SOURCE=University of Arizona Mineral Museum
##DESCRIPTION=Colorless prismatic crystals scattered on the matrix
##STATUS=The identification of this mineral is confirmed by single-crystal X-ray diffraction and chemical analysis.
##URL=rruff.info/R050313
##MEASURED CHEMISTRY=As_2.00_O_3_ ; trace amounts of Al, gray phase
92.52344, 215.2464
93.00555, 216.0506
93.48767, 216.0327
93.96979, 217.5505
94.45190, 220.6142
94.93402, 225.0185
95.41614, 227.1225
95.89825, 227.6771
96.38037, 228.3781
96.86249, 228.8144
97.34460, 227.6575
97.82672, 223.1366
98.30884, 219.9060
98.79095, 219.4141
99.27307, 220.4558
99.75519, 220.9164
100.2373, 220.0337
100.7194, 218.5199
101.2015, 218.7764
101.6837, 222.1931
102.1658, 226.0193
102.6479, 227.9192
103.1300, 227.6859
103.6121, 227.5090
104.0942, 229.0966
104.5764, 231.8100
105.0585, 234.8879
105.5406, 238.2352
106.0227, 241.7642
106.5048, 245.2882
106.9869, 249.2976
107.4691, 252.3727
107.9512, 253.6434
108.4333, 253.5430
108.9154, 253.1526
109.3975, 253.6126
109.8796, 255.2647
110.3618, 255.4522
110.8439, 254.1142
111.3260, 251.4372
111.8081, 247.4991
112.2902, 242.2865
112.7723, 235.6239
113.2544, 227.1808
113.7366, 215.8698
114.2187, 204.5553
114.7008, 192.7433
115.1829, 181.1286
115.6650, 170.2961
116.1471, 160.4071
116.6293, 151.4758
117.1114, 143.6864
117.5935, 137.0362
118.0756, 131.2536
118.5577, 126.6868
119.0398, 122.9812
119.5220, 119.1301
120.0041, 114.4235
120.4862, 109.6135
120.9683, 106.1857
121.4504, 104.4373
121.9325, 103.5021
122.4147, 103.0394
122.8968, 103.1184
123.3789, 102.8147
123.8610, 101.1453
124.3431, 99.00710
124.8252, 97.28883
125.3074, 96.42686
125.7895, 95.93153
126.2716, 94.58439
126.7537, 91.36526
127.2358, 89.20950
127.7179, 89.54491
128.2001, 91.17699
128.6822, 92.52504
129.1643, 92.54935
129.6464, 91.38149
130.1285, 90.70349
130.6107, 90.67451
131.0928, 91.03373
131.5749, 92.21613
132.0570, 93.80721
132.5391, 94.91344
133.0212, 94.62691
133.5034, 92.58412
133.9855, 91.71260
134.4676, 92.64659
134.9497, 93.97295
135.4318, 94.96458
135.9139, 95.53116
136.3960, 95.95268
136.8782, 96.49235
137.3603, 97.14694
137.8424, 98.07492
138.3245, 99.35028
138.8066, 100.8773
139.2887, 102.5707
139.7709, 104.4264
140.2530, 106.3663
140.7351, 108.3492
141.2172, 110.3618
141.6993, 112.2741
142.1814, 113.6736
142.6636, 114.8237
143.1457, 116.7506
143.6278, 119.8763
144.1099, 123.6879
144.5920, 127.4310
145.0741, 131.1150
145.5563, 135.6123
146.0384, 141.6055
146.5205, 149.0964
147.0026, 157.9378
147.4847, 168.2277
147.9668, 179.8977
148.4490, 192.8402
148.9311, 207.0435
149.4132, 223.0501
149.8953, 241.2544
150.3774, 260.4131
150.8595, 285.3732
151.3417, 317.7817
151.8238, 353.9833
152.3059, 392.0936
152.7880, 430.9749
153.2701, 469.8764
153.7522, 506.3327
154.2344, 542.4097
154.7165, 572.5948
155.1986, 595.1915
155.6807, 612.2865
156.1628, 625.7607
156.6449, 636.2256
157.1271, 644.6262
157.6092, 654.8379
158.0913, 664.8668
158.5734, 678.3995
159.0555, 698.1083
159.5376, 722.3752
160.0198, 746.8920
160.5019, 768.9860
160.9840, 789.8116
161.4661, 813.1458
161.9482, 840.4274
162.4303, 868.5838
162.9125, 895.4803
163.3946, 921.1647
163.8767, 946.8519
164.3588, 973.3752
164.8409, 1000.156
165.3230, 1026.447
165.8052, 1051.812
166.2873, 1076.808
166.7694, 1101.944
167.2515, 1127.642
167.7336, 1152.314
168.2157, 1175.284
168.6979, 1196.922
169.1800, 1217.741
169.6621, 1238.185
170.1442, 1257.785
170.6263, 1275.742
171.1084, 1293.907
171.5906, 1306.707
172.0727, 1321.010
172.5548, 1328.454
173.0369, 1317.925
173.5190, 1282.699
174.0011, 1223.595
174.4833, 1147.411
174.9654, 1033.767
175.4475, 921.2140
175.9296, 812.3901
176.4117, 710.9320
176.8938, 620.1677
177.3760, 542.7489
177.8581, 478.7384
178.3402, 426.7241
178.8223, 390.9826
179.3044, 361.4136
179.7865, 335.7067
180.2687, 313.4604
180.7508, 295.1419
181.2329, 281.5193
181.7150, 273.0201
182.1971, 265.4543
182.6792, 259.1555
183.1614, 253.3633
183.6435, 247.5505
184.1256, 241.7466
184.6077, 236.4482
185.0898, 232.1930
185.5719, 229.0936
186.0541, 225.9552
186.5362, 222.2019
187.0183, 218.7260
187.5004, 216.5831
187.9825, 215.9302
188.4646, 215.6320
188.9468, 214.9242
189.4289, 213.7837
189.9110, 211.9191
190.3931, 209.5946
190.8752, 206.4064
191.3573, 201.6212
191.8395, 195.0045
192.3216, 187.2268
192.8037, 177.9350
193.2858, 167.8726
193.7679, 158.7748
194.2500, 151.4305
194.7322, 145.6704
195.2143, 140.9221
195.6964, 137.5050
196.1785, 134.7322
196.6606, 132.3638
197.1427, 130.2406
197.6249, 128.0213
198.1070, 125.2836
198.5891, 122.1382
199.0712, 119.7457
199.5533, 118.7103
200.0354, 117.8266
200.5176, 116.5034
200.9997, 114.9529
201.4818, 113.6830
201.9639, 113.0855
202.4460, 113.1640
202.9281, 113.6363
203.4103, 114.7766
203.8924, 116.0919
204.3745, 117.6482
204.8566, 119.2956
205.3387, 120.6832
205.8208, 121.4396
206.3030, 121.4474
206.7851, 121.9741
207.2672, 123.0526
207.7493, 124.5448
208.2314, 126.7528
208.7135, 129.4203
209.1957, 131.8491
209.6778, 133.3618
210.1599, 133.7952
210.6420, 134.5162
211.1241, 135.3552
211.6062, 136.5501
212.0884, 138.3492
212.5705, 140.6749
213.0526, 143.1461
213.5347, 145.3675
214.0168, 147.2782
214.4989, 149.9749
214.9811, 155.1328
215.4632, 159.7382
215.9453, 161.9547
216.4274, 161.6517
216.9095, 159.5088
217.3916, 155.8693
217.8737, 150.5791
218.3559, 144.8855
218.8380, 137.3070
219.3201, 130.2477
219.8022, 126.0152
220.2843, 124.7785
220.7664, 124.5708
221.2486, 123.7208
221.7307, 122.6075
222.2128, 122.8322
222.6949, 125.2008
223.1770, 128.7248
223.6591, 132.2522
224.1413, 135.6769
224.6234, 139.6149
225.1055, 144.7377
225.5876, 150.6763
226.0697, 156.8619
226.5518, 163.0636
227.0340, 169.4503
227.5161, 176.3026
227.9982, 183.7040
228.4803, 191.2967
228.9624, 199.2283
229.4445, 207.0980
229.9267, 214.3052
230.4088, 220.0163
230.8909, 225.3729
231.3730, 232.6156
231.8551, 242.2942
232.3372, 252.4941
232.8194, 262.0666
233.3015, 271.8262
233.7836, 282.8268
234.2657, 295.5421
234.7478, 309.6783
235.2299, 324.5820
235.7121, 340.3519
236.1942, 356.9459
236.6763, 374.4867
237.1584, 392.6297
237.6405, 411.2029
238.1227, 430.2607
238.6048, 449.5785
239.0869, 468.6223
239.5690, 487.9283
240.0511, 506.0077
240.5332, 521.9055
241.0154, 536.9426
241.4975, 552.3605
241.9796, 568.7019
242.4617, 585.3483
242.9438, 600.3591
243.4259, 611.7618
243.9081, 624.7795
244.3902, 641.8116
244.8723, 659.6371
245.3544, 675.2495
245.8365, 687.5441
246.3186, 697.3160
246.8008, 706.5286
247.2829, 715.6130
247.7650, 723.2452
248.2471, 729.4558
248.7292, 734.2818
249.2113, 737.2697
249.6935, 738.3772
250.1756, 738.7038
250.6577, 740.4022
251.1398, 744.2958
251.6219, 748.5301
252.1040, 752.8713
252.5862, 757.6172
253.0683, 763.6337
253.5504, 770.9889
254.0325, 778.1664
254.5146, 782.6872
254.9967, 783.5907
255.4789, 783.0004
255.9610, 782.8028
256.4431, 780.1281
256.9252, 772.9503
257.4073, 760.6605
257.8894, 743.0609
258.3716, 719.6388
258.8537, 688.4518
259.3358, 655.0217
259.8179, 617.9755
260.3000, 579.3954
260.7821, 540.3273
261.2643, 501.0300
261.7464, 462.6896
262.2285, 426.0817
262.7106, 390.9910
263.1927, 360.0681
263.6748, 334.3572
264.1570, 312.2806
264.6391, 293.3180
265.1212, 277.2466
265.6033, 262.7851
266.0854, 248.9530
266.5675, 235.8892
267.0497, 224.1736
267.5318, 213.7899
268.0139, 204.8359
268.4960, 197.8604
268.9781, 192.8039
269.4602, 188.1490
269.9424, 182.5992
270.4245, 176.4521
270.9066, 171.5190
271.3887, 168.1467
271.8708, 165.7623
272.3529, 164.1725
272.8351, 163.3184
273.3172, 162.6991
273.7993, 161.9723
274.2814, 161.2992
274.7635, 161.0577
275.2456, 161.2541
275.7278, 161.8866
276.2099, 163.3021
276.6920, 165.3672
277.1741, 166.9280
277.6562, 167.1666
278.1383, 166.7144
278.6205, 166.9595
279.1026, 168.1908
279.5847, 169.4981
280.0668, 170.1688
280.5489, 170.3287
281.0310, 170.7507
281.5132, 171.8834
281.9953, 173.2196
282.4774, 174.4799
282.9595, 175.9593
283.4416, 175.7523
283.9237, 172.3017
284.4059, 166.1003
284.8880, 159.1128
285.3701, 151.7583
285.8522, 143.7700
286.3343, 134.4972
286.8164, 124.0245
287.2986, 114.2618
287.7807, 106.1594
288.2628, 99.54433
288.7449, 93.93364
289.2270, 89.25433
289.7091, 85.63647
290.1913, 83.55846
290.6734, 82.63303
291.1555, 81.42661
291.6376, 78.97334
292.1197, 75.80930
292.6018, 73.06917
293.0840, 70.70716
293.5661, 69.07084
294.0482, 68.95575
294.5303, 69.65065
295.0124, 69.84341
295.4945, 68.76390
295.9767, 67.02782
296.4588, 65.70781
296.9409, 64.86141
297.4230, 64.23656
297.9051, 63.80012
298.3872, 63.47396
298.8694, 63.21282
299.3515, 63.08601
299.8336, 62.87609
300.3157, 62.08897
300.7978, 60.53804
301.2799, 59.52245
301.7621, 60.02217
302.2442, 61.05677
302.7263, 61.79905
303.2084, 62.08102
303.6905, 62.19727
304.1726, 62.46011
304.6548, 62.87882
305.1369, 63.21030
305.6190, 63.43924
306.1011, 63.51033
306.5832, 63.35999
307.0653, 62.98922
307.5475, 62.52262
308.0296, 61.86320
308.5117, 61.06894
308.9938, 60.89595
309.4759, 61.86229
309.9580, 63.00046
310.4402, 63.58067
310.9223, 63.73322
311.4044, 63.98967
311.8865, 64.95271
312.3686, 66.35765
312.8507, 66.98280
313.3329, 66.42513
313.8150, 65.73071
314.2971, 65.20821
314.7792, 64.97435
315.2613, 65.33139
315.7434, 66.80073
316.2256, 68.69483
316.7077, 69.38361
317.1898, 68.40923
317.6719, 67.51167
318.1540, 67.39970
318.6361, 67.79062
319.1183, 68.51424
319.6004, 69.63108
320.0825, 70.76218
320.5646, 71.26781
321.0467, 71.00661
321.5288, 71.03362
322.0110, 72.25993
322.4931, 73.54711
322.9752, 73.84956
323.4573, 72.98497
323.9394, 71.95570
324.4215, 71.69616
324.9037, 72.19283
325.3858, 72.75301
325.8679, 73.23845
326.3500, 73.79042
326.8321, 74.61952
327.3142, 75.66070
327.7964, 76.51579
328.2785, 76.85374
328.7606, 76.76134
329.2427, 76.68407
329.7248, 76.73938
330.2069, 76.63396
330.6891, 76.03017
331.1712, 75.15567
331.6533, 74.49764
332.1354, 74.36110
332.6175, 74.53463
333.0996, 74.58678
333.5818, 74.47424
334.0639, 74.38092
334.5460, 74.37709
335.0281, 74.45192
335.5102, 74.58865
335.9923, 74.75386
336.4745, 75.04933
336.9566, 75.68888
337.4387, 76.69814
337.9208, 77.55400
338.4029, 77.84274
338.8850, 78.08577
339.3671, 78.91022
339.8492, 80.41747
340.3314, 81.79478
340.8135, 82.22804
341.2956, 81.90364
341.7777, 81.99721
342.2598, 82.89031
342.7419, 84.01074
343.2241, 84.85073
343.7062, 85.46416
344.1883, 86.09969
344.6704, 87.00581
345.1525, 87.99630
345.6346, 88.50935
346.1168, 88.27802
346.5989, 88.33705
347.0810, 89.87154
347.5631, 92.18253
348.0452, 94.10362
348.5273, 95.43540
349.0095, 96.16715
349.4916, 96.01604
349.9737, 94.95897
350.4558, 94.11208
350.9379, 94.03090
351.4200, 94.47005
351.9022, 94.97488
352.3843, 95.50771
352.8664, 96.15518
353.3485, 97.22021
353.8306, 98.51015
354.3127, 99.17980
354.7949, 98.79099
355.2770, 98.04198
355.7591, 98.00916
356.2412, 98.69376
356.7233, 98.80025
357.2054, 97.74287
357.6876, 95.85950
358.1697, 93.50385
358.6518, 90.64246
359.1339, 87.84879
359.6160, 85.56512
360.0981, 83.77926
360.5803, 82.47506
361.0624, 82.06396
361.5445, 81.83215
362.0266, 81.11751
362.5087, 79.98262
362.9908, 78.98714
363.4730, 78.39714
363.9551, 78.20945
364.4372, 78.34278
364.9193, 78.93297
365.4014, 79.58152
365.8835, 80.40405
366.3657, 81.14156
366.8478, 81.03257
367.3299, 79.65193
367.8120, 78.06831
368.2941, 78.15641
368.7762, 80.35863
369.2584, 82.12508
369.7405, 82.86251
370.2226, 83.15213
370.7047, 83.51662
371.1868, 84.03289
371.6689, 84.53981
372.1511, 84.86984
372.6332, 85.01460
373.1153, 85.35952
373.5974, 86.24461
374.0795, 86.98194
374.5616, 86.97676
375.0438, 86.54081
375.5259, 86.51579
376.0080, 87.39814
376.4901, 88.92516
376.9722, 90.17162
377.4543, 91.24239
377.9365, 91.90573
378.4186, 91.82253
378.9007, 91.46046
379.3828, 91.32312
379.8649, 91.55058
380.3470, 91.95095
380.8292, 92.21477
381.3113, 92.09209
381.7934, 92.65839
382.2755, 94.82777
382.7576, 96.80587
383.2397, 97.31177
383.7219, 96.62090
384.2040, 95.87383
384.6861, 95.93960
385.1682, 96.78786
385.6503, 97.95885
386.1324, 100.3048
386.6146, 102.0151
387.0967, 102.4246
387.5788, 102.1241
388.0609, 101.7003
388.5430, 101.4115
389.0251, 101.4957
389.5073, 102.5255
389.9894, 105.0769
390.4715, 107.3963
390.9536, 109.7577
391.4357, 111.6166
391.9178, 112.3387
392.4000, 112.0550
392.8821, 111.6710
393.3642, 112.1297
393.8463, 113.4669
394.3284, 114.4302
394.8105, 114.3831
395.2927, 114.7188
395.7748, 116.1684
396.2569, 118.2533
396.7390, 120.2386
397.2211, 121.8192
397.7032, 122.9577
398.1854, 123.3404
398.6675, 122.4887
399.1496, 122.3487
399.6317, 124.2252
400.1138, 126.5646
400.5959, 128.2083
401.0781, 128.9592
401.5602, 129.4109
402.0423, 129.9137
402.5244, 130.4991
403.0065, 131.5607
403.4886, 133.2404
403.9708, 135.2923
404.4529, 137.7769
404.9350, 140.4845
405.4171, 142.8270
405.8992, 144.3304
406.3813, 145.4243
406.8635, 146.6968
407.3456, 148.1313
407.8277, 149.9424
408.3098, 152.4963
408.7919, 155.4073
409.2740, 158.0730
409.7562, 160.5641
410.2383, 162.5564
410.7204, 163.3897
411.2025, 163.5479
411.6846, 164.5722
412.1667, 167.0364
412.6489, 169.9364
413.1310, 171.8269
413.6131, 172.7386
414.0952, 174.4801
414.5773, 178.1315
415.0594, 182.2285
415.5416, 185.5316
416.0237, 187.9752
416.5058, 189.7474
416.9879, 190.6652
417.4700, 191.1057
417.9521, 193.1315
418.4343, 198.1519
418.9164, 202.7785
419.3985, 205.7233
419.8806, 207.8300
420.3627, 210.2850
420.8448, 213.4778
421.3270, 217.0766
421.8091, 220.5690
422.2912, 223.7062
422.7733, 227.4869
423.2554, 232.2904
423.7375, 237.3340
424.2197, 242.0225
424.7018, 246.4758
425.1839, 251.3244
425.6660, 257.1344
426.1481, 263.6059
426.6302, 268.8034
427.1124, 270.4150
427.5945, 273.5717
428.0766, 279.5612
428.5587, 287.0002
429.0408, 294.6013
429.5229, 301.9401
430.0051, 309.3928
430.4872, 317.3083
430.9693, 325.4016
431.4514, 334.9821
431.9335, 347.5322
432.4156, 360.4354
432.8978, 372.2312
433.3799, 383.5327
433.8620, 396.1725
434.3441, 411.3548
434.8262, 428.4914
435.3083, 445.5022
435.7905, 461.3976
436.2726, 479.7935
436.7547, 502.2097
437.2368, 527.7618
437.7189, 556.1884
438.2010, 587.5231
438.6832, 620.6453
439.1653, 653.6157
439.6474, 687.1093
440.1295, 725.6823
440.6116, 770.9791
441.0938, 819.5261
441.5759, 868.5480
442.0580, 918.1315
442.5401, 969.1266
443.0222, 1023.742
443.5043, 1078.261
443.9865, 1129.168
444.4686, 1176.519
444.9507, 1222.818
445.4328, 1269.232
445.9149, 1315.268
446.3970, 1359.266
446.8792, 1400.137
447.3613, 1442.148
447.8434, 1486.104
448.3255, 1532.012
448.8076, 1580.879
449.2897, 1632.815
449.7719, 1684.479
450.2540, 1732.539
450.7361, 1776.937
451.2182, 1822.363
451.7003, 1868.666
452.1824, 1915.960
452.6646, 1966.186
453.1467, 2017.272
453.6288, 2065.777
454.1109, 2110.320
454.5930, 2151.032
455.0751, 2188.543
455.5573, 2222.627
456.0394, 2253.537
456.5215, 2286.588
457.0036, 2312.583
457.4857, 2327.196
457.9678, 2329.900
458.4500, 2321.796
458.9321, 2303.516
459.4142, 2275.104
459.8963, 2237.092
460.3784, 2191.167
460.8605, 2131.706
461.3427, 2054.454
461.8248, 1965.959
462.3069, 1869.878
462.7890, 1767.173
463.2711, 1663.541
463.7532, 1563.992
464.2354, 1468.154
464.7175, 1379.264
465.1996, 1298.325
465.6817, 1223.758
466.1638, 1155.030
466.6459, 1091.225
467.1281, 1030.254
467.6102, 970.3363
468.0923, 914.2160
468.5744, 866.4242
469.0565, 826.0708
469.5386, 788.1432
470.0208, 751.0623
470.5029, 714.8691
470.9850, 679.7265
471.4671, 645.1002
471.9492, 612.9141
472.4313, 583.9596
472.9135, 557.3436
473.3956, 532.3038
473.8777, 508.7157
474.3598, 486.2585
474.8419, 464.9300
475.3240, 444.5945
475.8062, 424.3850
476.2883, 402.5259
476.7704, 382.8393
477.2525, 367.1806
477.7346, 353.6763
478.2167, 340.1460
478.6989, 325.9550
479.1810, 312.2237
479.6631, 300.3557
480.1452, 290.9109
480.6273, 280.8279
481.1094, 268.2161
481.5916, 256.9646
482.0737, 248.8795
482.5558, 242.9621
483.0379, 237.4879
483.5200, 231.6521
484.0021, 225.5783
484.4843, 219.3723
484.9664, 212.8692
485.4485, 206.8709
485.9306, 201.4971
486.4127, 196.7555
486.8948, 192.9642
487.3770, 189.9274
487.8591, 186.7227
488.3412, 182.6038
488.8233, 178.0456
489.3054, 174.0082
489.7875, 170.5639
490.2697, 167.1595
490.7518, 163.1403
491.2339, 159.2739
491.7160, 157.0743
492.1981, 157.2324
492.6802, 157.0635
493.1624, 154.9825
493.6445, 152.0556
494.1266, 149.9832
494.6087, 149.0287
495.0908, 148.1974
495.5729, 146.5751
496.0551, 144.1740
496.5372, 142.0372
497.0193, 140.3537
497.5014, 138.6764
497.9835, 136.9263
498.4656, 135.0732
498.9478, 132.9815
499.4299, 130.6336
499.9120, 128.3467
500.3941, 126.7203
500.8762, 126.1502
501.3583, 124.6036
501.8405, 120.9166
502.3226, 117.4402
502.8047, 115.0990
503.2868, 113.5665
503.7689, 112.2649
504.2510, 110.9478
504.7331, 109.5189
505.2152, 107.6485
505.6974, 105.1768
506.1795, 103.2498
506.6616, 102.5486
507.1437, 102.0593
507.6258, 101.0267
508.1079, 99.50824
508.5901, 97.96304
509.0722, 96.38887
509.5543, 95.02662
510.0364, 94.53098
510.5185, 94.88078
511.0006, 94.55654
511.4828, 92.47299
511.9649, 89.62621
512.4470, 88.26774
512.9291, 88.85746
513.4113, 89.06584
513.8934, 87.82387
514.3755, 86.20470
514.8576, 85.45360
515.3397, 85.58101
515.8218, 85.62067
516.3040, 84.76766
516.7861, 83.23716
517.2682, 82.59969
517.7503, 83.58543
518.2324, 84.58299
518.7145, 85.46674
519.1967, 86.29536
519.6788, 87.07220
520.1609, 87.83470
520.6430, 88.73203
521.1251, 89.97194
521.6072, 91.54525
522.0894, 92.86435
522.5715, 93.76958
523.0536, 94.67435
523.5357, 95.46510
524.0178, 96.44524
524.4999, 98.07573
524.9821, 100.5231
525.4642, 103.1166
525.9463, 105.1881
526.4284, 106.8640
526.9105, 108.9279
527.3926, 111.7214
527.8748, 114.1457
528.3569, 114.9465
528.8390, 114.6384
529.3211, 115.0213
529.8032, 116.2591
530.2853, 118.2327
530.7675, 121.3845
531.2496, 125.1375
531.7317, 128.3353
532.2138, 130.6509
532.6959, 132.5482
533.1780, 134.6316
533.6602, 137.0443
534.1423, 138.7234
534.6244, 138.8239
535.1065, 139.2402
535.5886, 140.8578
536.0707, 143.1999
536.5529, 145.5848
537.0350, 147.7149
537.5171, 149.5666
537.9992, 151.1371
538.4813, 152.5092
538.9634, 153.1488
539.4456, 152.4816
539.9277, 151.6523
540.4098, 151.5476
540.8919, 151.6285
541.3740, 150.7674
541.8561, 148.3791
542.3383, 145.1930
542.8204, 142.1757
543.3025, 139.2467
543.7846, 135.5520
544.2667, 130.6844
544.7488, 125.3873
545.2310, 120.3545
545.7131, 115.5693
546.1952, 110.9300
546.6773, 106.1839
547.1594, 101.8328
547.6415, 98.34789
548.1237, 95.51692
548.6058, 92.68033
549.0879, 89.57659
549.5700, 86.58369
550.0521, 84.36892
550.5342, 83.24457
551.0164, 81.99329
551.4985, 80.48463
551.9806, 79.01240
552.4627, 77.71531
552.9448, 76.53886
553.4269, 75.38287
553.9091, 74.20744
554.3912, 72.95077
554.8733, 71.36287
555.3554, 69.30195
555.8375, 67.87832
556.3196, 67.68307
556.8018, 67.65260
557.2839, 67.11379
557.7660, 66.18658
558.2481, 65.21091
558.7302, 64.22760
559.2123, 63.34480
559.6945, 62.56168
560.1766, 61.94569
560.6587, 62.01402
561.1408, 63.15430
561.6229, 64.24460
562.1050, 63.78991
562.5872, 61.50209
563.0693, 59.49348
563.5514, 57.64693
564.0335, 56.23120
564.5156, 55.54041
564.9977, 55.35343
565.4799, 55.36053
565.9620, 55.42879
566.4441, 55.40504
566.9262, 55.00530
567.4083, 54.10420
567.8904, 53.33308
568.3726, 52.55201
568.8547, 52.06788
569.3368, 52.34299
569.8189, 52.89647
570.3010, 52.88084
570.7831, 51.90413
571.2653, 50.69796
571.7474, 50.12322
572.2295, 50.11428
572.7116, 50.12580
573.1937, 50.07352
573.6758, 50.02774
574.1580, 50.09520
574.6401, 50.22548
575.1222, 50.21979
575.6043, 50.14533
576.0864, 49.83450
576.5685, 48.84966
577.0507, 47.67734
577.5328, 47.17923
578.0149, 47.55375
578.4970, 48.34536
578.9791, 49.13288
579.4612, 49.93209
579.9434, 50.33022
580.4255, 50.18094
580.9076, 49.78282
581.3897, 48.94445
581.8718, 48.00741
582.3539, 47.36559
582.8361, 47.08954
583.3182, 46.90830
583.8003, 46.41383
584.2824, 45.71001
584.7645, 45.71735
585.2466, 46.79256
585.7288, 47.55173
586.2108, 46.88344
586.6929, 45.69187
587.1750, 45.39403
587.6572, 46.34008
588.1393, 47.06701
588.6214, 46.70151
589.1035, 45.84010
589.5856, 45.19556
590.0677, 44.85027
590.5499, 44.71107
591.0320, 44.72362
591.5141, 44.88369
591.9962, 45.17970
592.4783, 45.85647
592.9604, 46.31816
593.4426, 46.43660
593.9247, 46.44291
594.4068, 46.45229
594.8889, 46.49421
595.3710, 46.61355
595.8531, 46.88998
596.3353, 47.15671
596.8174, 46.88369
597.2995, 45.90577
597.7816, 45.36194
598.2637, 45.68391
598.7458, 46.34368
599.2280, 47.03100
599.7101, 47.68938
600.1922, 48.01475
600.6743, 47.45171
601.1564, 46.91408
601.6385, 47.27448
602.1207, 48.29703
602.6028, 49.34844
603.0849, 50.23319
603.5670, 50.84711
604.0491, 50.97298
604.5313, 50.44831
605.0134, 50.46131
605.4955, 51.13927
605.9776, 52.12978
606.4597, 53.55578
606.9418, 55.13131
607.4240, 56.44013
607.9061, 57.38345
608.3882, 58.30285
608.8703, 59.48439
609.3524, 60.93764
609.8345, 62.94147
610.3167, 65.76405
610.7988, 68.46251
611.2809, 70.20272
611.7630, 71.71319
612.2451, 74.04704
612.7272, 77.41432
613.2094, 80.98425
613.6915, 84.61855
614.1736, 88.12198
614.6557, 91.05199
615.1378, 93.50674
615.6199, 96.19740
616.1021, 99.59275
616.5842, 103.3903
617.0663, 106.6427
617.5484, 108.5598
618.0305, 111.3440
618.5126, 115.6510
618.9948, 120.1294
619.4769, 123.9675
619.9590, 127.3447
620.4411, 130.8272
620.9232, 134.7626
621.4053, 138.7689
621.8875, 142.1217
622.3696, 144.8309
622.8517, 147.9642
623.3338, 151.9478
623.8159, 155.8990
624.2980, 159.3406
624.7802, 162.1662
625.2623, 163.8808
625.7444, 163.5208
626.2265, 163.1930
626.7086, 164.2631
627.1907, 165.7917
627.6729, 166.5467
628.1550, 166.2641
628.6371, 165.1813
629.1192, 163.5088
629.6013, 161.2242
630.0834, 158.1832
630.5656, 154.0792
631.0477, 149.6706
631.5298, 144.7992
632.0119, 139.9361
632.4940, 135.5009
632.9761, 131.4373
633.4583, 127.2691
633.9404, 122.7486
634.4225, 117.9316
634.9046, 112.9589
635.3867, 107.7962
635.8688, 102.1180
636.3510, 95.59169
636.8331, 89.03477
637.3152, 83.23820
637.7973, 78.19798
638.2794, 74.38753
638.7615, 72.87167
639.2437, 71.38802
639.7258, 68.87968
640.2079, 65.86411
640.6900, 63.00788
641.1721, 60.52385
641.6542, 58.46394
642.1364, 56.91732
642.6185, 55.85679
643.1006, 55.05869
643.5827, 54.82508
644.0648, 54.18560
644.5469, 52.37154
645.0291, 50.26009
645.5112, 48.53130
645.9933, 47.24511
646.4754, 46.37015
646.9575, 46.13139
647.4396, 46.13246
647.9218, 46.07845
648.4039, 45.90280
648.8860, 45.29001
649.3681, 44.05087
649.8502, 42.79966
650.3323, 42.53243
650.8145, 43.56327
651.2966, 44.13769
651.7787, 43.93689
652.2608, 43.66725
652.7429, 43.49467
653.2250, 43.39348
653.7072, 43.32789
654.1893, 43.28506
654.6714, 43.24239
655.1535, 43.29492
655.6356, 43.33096
656.1177, 42.86466
656.5999, 41.81355
657.0820, 40.86363
657.5641, 40.34344
658.0462, 40.09598
658.5283, 39.80766
659.0104, 39.41890
659.4926, 39.27127
659.9747, 39.51640
660.4568, 39.91805
660.9389, 40.55391
661.4210, 41.19052
661.9031, 41.29431
662.3853, 40.67683
662.8674, 39.89238
663.3495, 39.83543
663.8316, 40.58681
664.3137, 40.69760
664.7958, 39.67867
665.2780, 38.90962
665.7601, 39.23516
666.2422, 40.02955
666.7243, 40.71898
667.2064, 41.28421
667.6885, 41.32047
668.1707, 39.98208
668.6528, 38.45152
669.1349, 38.24715
669.6170, 39.17365
670.0991, 40.10433
670.5812, 40.52762
671.0634, 40.57125
671.5455, 40.39783
672.0276, 39.85763
672.5097, 39.67730
672.9918, 40.30991
673.4739, 40.80979
673.9561, 40.73317
674.4382, 40.43066
674.9203, 40.46093
675.4024, 40.95971
675.8845, 41.28425
676.3666, 40.65675
676.8488, 39.55575
677.3309, 39.12790
677.8130, 39.41209
678.2951, 39.49580
678.7772, 38.82264
679.2593, 37.94982
679.7415, 37.95205
680.2236, 39.27918
680.7057, 40.10403
681.1878, 39.85259
681.6699, 39.72868
682.1520, 40.73453
682.6342, 42.05141
683.1163, 42.19173
683.5984, 40.78719
684.0805, 39.27633
684.5626, 39.43771
685.0447, 40.89996
685.5269, 41.53298
686.0090, 41.14137
686.4911, 40.91203
686.9732, 41.52882
687.4553, 42.42894
687.9374, 42.66587
688.4196, 42.19219
688.9017, 41.70334
689.3838, 41.02795
689.8659, 40.64136
690.3480, 41.26198
690.8301, 42.24326
691.3123, 42.23968
691.7944, 40.91688
692.2765, 39.58812
692.7586, 39.97224
693.2407, 41.89307
693.7228, 42.80344
694.2050, 42.46708
694.6871, 41.74612
695.1692, 40.42147
695.6513, 39.24474
696.1334, 39.17425
696.6155, 40.20501
697.0977, 41.01555
697.5798, 40.84901
698.0619, 40.67408
698.5440, 41.55750
699.0261, 42.89660
699.5082, 43.31194
699.9904, 42.45653
700.4725, 41.26331
700.9546, 40.73289
701.4367, 40.82219
701.9188, 40.86694
702.4009, 40.80721
702.8831, 40.82306
703.3652, 41.06115
703.8473, 41.31536
704.3294, 41.50488
704.8115, 41.59338
705.2936, 41.43052
705.7758, 40.89939
706.2579, 40.15273
706.7400, 39.03933
707.2221, 37.84885
707.7042, 37.28378
708.1863, 37.48882
708.6685, 37.97847
709.1506, 38.35506
709.6327, 38.60263
710.1148, 38.54893
710.5969, 37.80184
711.0790, 37.48085
711.5612, 38.27782
712.0433, 39.04213
712.5254, 38.91084
713.0075, 38.11058
713.4896, 37.45139
713.9717, 37.23751
714.4539, 37.27824
714.9360, 37.66268
715.4181, 38.12522
715.9002, 37.84882
716.3823, 36.76081
716.8644, 35.93919
717.3466, 36.22022
717.8287, 37.29876
718.3108, 38.08277
718.7929, 38.70221
719.2750, 38.75330
719.7571, 37.64892
720.2393, 36.58666
720.7214, 36.32236
721.2035, 36.50001
721.6856, 36.30231
722.1677, 35.36443
722.6498, 34.56105
723.1320, 34.89522
723.6141, 35.80270
724.0962, 35.96576
724.5783, 35.35698
725.0604, 35.17636
725.5425, 36.19675
726.0247, 37.64462
726.5068, 37.87384
726.9889, 36.29795
727.4710, 35.28909
727.9531, 35.11072
728.4352, 35.18845
728.9174, 35.56480
729.3995, 35.98323
729.8816, 36.14736
730.3637, 35.99246
730.8458, 35.62640
731.3279, 34.89122
731.8101, 34.10980
732.2922, 33.85140
732.7743, 34.06887
733.2564, 34.39034
733.7385, 34.68288
734.2206, 35.03039
734.7028, 35.58995
735.1849, 36.40184
735.6670, 36.81294
736.1491, 36.43916
736.6312, 36.14681
737.1133, 36.23363
737.5955, 36.34031
738.0776, 36.10801
738.5597, 35.56402
739.0418, 35.03010
739.5239, 34.60190
740.0060, 34.34226
740.4882, 34.33408
740.9703, 34.55206
741.4524, 35.07275
741.9345, 35.90624
742.4166, 36.36108
742.8987, 35.73098
743.3809, 34.34584
743.8630, 33.88711
744.3451, 35.00219
744.8272, 35.87318
745.3093, 36.27188
745.7914, 36.54172
746.2736, 36.76147
746.7557, 37.00742
747.2378, 37.50520
747.7199, 38.45806
748.2020, 39.08037
748.6841, 38.41298
749.1663, 37.17388
749.6484, 36.53584
750.1305, 36.56962
750.6126, 37.00801
751.0947, 37.74441
751.5768, 38.63551
752.0590, 39.43539
752.5411, 40.13711
753.0232, 40.78301
753.5053, 41.29353
753.9874, 41.85610
754.4695, 42.70575
754.9517, 43.52648
755.4338, 43.85564
755.9159, 43.67466
756.3980, 43.69637
756.8801, 44.57388
757.3622, 45.53661
757.8444, 45.58423
758.3265, 45.16082
758.8086, 45.40792
759.2907, 46.59333
759.7728, 48.10659
760.2549, 49.41394
760.7371, 50.48360
761.2192, 51.01104
761.7013, 50.69426
762.1834, 50.65536
762.6655, 51.20632
763.1476, 51.96836
763.6298, 52.74015
764.1119, 53.51116
764.5940, 54.30604
765.0761, 55.32730
765.5582, 55.96143
766.0403, 55.49653
766.5225, 54.76447
767.0046, 54.79131
767.4867, 55.47154
767.9688, 56.02997
768.4509, 56.06898
768.9330, 55.90262
769.4152, 56.08946
769.8973, 56.65051
770.3794, 57.05175
770.8615, 57.36233
771.3436, 57.28624
771.8257, 56.57539
772.3079, 55.48580
772.7900, 54.44330
773.2721, 53.48340
773.7542, 52.17715
774.2363, 49.85413
774.7184, 47.82890
775.2006, 46.95194
775.6827, 46.68192
776.1648, 46.37681
776.6469, 45.86988
777.1290, 45.19736
777.6111, 44.35854
778.0933, 43.41801
778.5754, 42.44669
779.0575, 41.45437
779.5396, 40.86395
780.0217, 40.88153
780.5038, 40.81356
780.9860, 39.96558
781.4681, 38.62173
781.9502, 38.03603
782.4323, 38.95925
782.9144, 39.37936
783.3965, 38.70844
783.8787, 38.01411
784.3608, 37.97421
784.8429, 38.32166
785.3250, 38.54236
785.8071, 38.47477
786.2892, 38.24940
786.7714, 37.87862
787.2535, 37.46855
787.7356, 37.17606
788.2177, 37.01944
788.6998, 37.15349
789.1819, 37.67487
789.6641, 38.09882
790.1462, 37.70596
790.6283, 36.50407
791.1104, 36.36366
791.5925, 38.17210
792.0746, 39.54462
792.5568, 40.04910
793.0389, 40.02243
793.5210, 39.32046
794.0031, 38.25187
794.4852, 37.74809
794.9673, 38.13550
795.4495, 39.03792
795.9316, 40.92855
796.4137, 42.78293
796.8958, 42.88310
797.3779, 41.53213
797.8600, 40.54509
798.3422, 40.86367
798.8243, 41.90466
799.3064, 42.74114
799.7885, 43.36359
800.2706, 44.18946
800.7527, 45.31818
801.2349, 46.35349
801.7170, 47.24033
802.1991, 47.86399
802.6812, 47.81263
803.1633, 47.06866
803.6454, 47.07300
804.1276, 48.55684
804.6097, 50.07642
805.0918, 50.99725
805.5739, 51.75610
806.0560, 52.87478
806.5381, 54.32167
807.0203, 55.72367
807.5024, 56.88633
807.9845, 57.82069
808.4666, 58.41591
808.9487, 58.78483
809.4308, 59.40320
809.9130, 60.33286
810.3951, 61.29799
810.8772, 62.18413
811.3593, 62.90746
811.8414, 63.27125
812.3235, 63.13741
812.8057, 63.16825
813.2878, 63.45488
813.7699, 63.79708
814.2520, 64.19873
814.7341, 64.59222
815.2162, 64.98783
815.6984, 65.34958
816.1805, 65.42072
816.6626, 64.85680
817.1447, 64.21432
817.6268, 63.98646
818.1089, 63.91560
818.5911, 63.72240
819.0732, 63.28503
819.5553, 62.26044
820.0374, 60.33483
820.5195, 58.14039
821.0016, 57.18161
821.4838, 57.51031
821.9659, 57.05566
822.4480, 55.38219
822.9301, 53.92778
823.4122, 53.66285
823.8943, 53.82805
824.3765, 52.94904
824.8586, 50.69211
825.3407, 49.15468
825.8228, 48.89873
826.3049, 48.77946
826.7870, 48.35094
827.2692, 47.89944
827.7513, 47.85479
828.2334, 48.14741
828.7155, 48.27675
829.1976, 48.08889
829.6797, 47.40641
830.1619, 45.51977
830.6440, 43.09357
831.1261, 41.87072
831.6082, 41.95578
832.0903, 42.16428
832.5724, 41.80767
833.0546, 41.21495
833.5367, 41.04559
834.0188, 41.36539
834.5009, 41.66951
834.9830, 42.07172
835.4651, 42.22284
835.9473, 41.86003
836.4294, 41.28656
836.9115, 40.77538
837.3936, 40.33575
837.8757, 40.08555
838.3578, 40.19389
838.8400, 40.30454
839.3221, 40.15521
839.8042, 40.03902
840.2863, 40.48014
840.7684, 41.23830
841.2505, 41.45254
841.7327, 40.65387
842.2148, 39.54821
842.6969, 38.96134
843.1790, 38.73934
843.6611, 38.28867
844.1432, 37.63308
844.6254, 37.68324
845.1075, 38.90922
845.5896, 40.46878
846.0717, 41.25636
846.5538, 41.26632
847.0359, 41.14584
847.5181, 40.87811
848.0002, 40.50807
848.4823, 39.77367
848.9644, 39.19535
849.4465, 39.12405
849.9286, 39.49308
850.4108, 40.14239
850.8929, 41.33014
851.3750, 42.14685
851.8571, 41.90273
852.3392, 41.48993
852.8214, 41.57840
853.3035, 42.09520
853.7856, 42.88644
854.2677, 43.85759
854.7498, 44.64233
855.2319, 44.83033
855.7141, 44.61552
856.1962, 44.24142
856.6783, 43.79963
857.1604, 44.11962
857.6425, 45.46188
858.1246, 46.67429
858.6068, 46.71651
859.0889, 45.96862
859.5710, 45.89926
860.0531, 46.85606
860.5352, 47.57365
861.0173, 47.88575
861.4995, 48.11199
861.9816, 48.69267
862.4637, 49.12396
862.9458, 48.43538
863.4279, 46.45614
863.9100, 45.34771
864.3922, 46.30075
864.8743, 47.51480
865.3564, 48.41436
865.8385, 48.81093
866.3206, 48.28383
866.8027, 47.01978
867.2849, 45.81955
867.7670, 45.14640
868.2491, 44.71645
868.7312, 44.22464
869.2133, 43.67803
869.6954, 43.02699
870.1776, 42.29225
870.6597, 41.79633
871.1418, 41.71091
871.6239, 41.72020
872.1060, 41.40636
872.5881, 40.76969
873.0703, 39.74871
873.5524, 37.90963
874.0345, 36.82771
874.5166, 37.30479
874.9987, 38.11667
875.4808, 38.30587
875.9630, 38.04522
876.4451, 37.83706
876.9272, 37.80945
877.4093, 37.62046
877.8914, 37.06756
878.3735, 36.47226
878.8557, 35.94250
879.3378, 35.53681
879.8199, 35.38874
880.3020, 35.48862
880.7841, 35.50597
881.2662, 35.07466
881.7484, 34.57517
882.2305, 34.61589
882.7126, 34.92942
883.1947, 34.82029
883.6768, 34.22475
884.1589, 33.62863
884.6411, 33.35493
885.1232, 33.20199
885.6053, 32.62370
886.0874, 31.58876
886.5695, 31.46124
887.0516, 32.55965
887.5338, 33.31630
888.0159, 32.93095
888.4980, 32.29111
888.9801, 32.61927
889.4622, 33.90998
889.9443, 34.22552
890.4265, 32.24490
890.9086, 31.20269
891.3907, 32.45635
891.8728, 33.69662
892.3549, 33.12635
892.8370, 31.60094
893.3192, 30.99730
893.8013, 31.83603
894.2834, 32.60482
894.7655, 32.43121
895.2476, 32.01224
895.7297, 31.91133
896.2119, 31.98747
896.6940, 32.02756
897.1761, 31.94737
897.6582, 31.57836
898.1403, 30.67654
898.6224, 29.80104
899.1046, 30.19170
899.5867, 31.44818
900.0688, 31.60422
900.5509, 30.51011
901.0330, 29.72134
901.5151, 30.01307
901.9973, 30.72532
902.4794, 30.88041
902.9615, 30.47758
903.4436, 30.17684
903.9257, 29.85012
904.4078, 30.01514
904.8900, 31.35162
905.3721, 32.46648
905.8542, 31.81963
906.3363, 30.13868
906.8184, 29.78066
907.3005, 31.66818
907.7827, 32.69349
908.2648, 31.79680
908.7469, 30.72008
909.2290, 30.15273
909.7111, 29.97750
910.1932, 30.08973
910.6754, 30.40875
911.1575, 30.64930
911.6396, 30.62323
912.1217, 30.54264
912.6038, 30.39981
913.0859, 30.41252
913.5681, 31.31444
914.0502, 32.70557
914.5323, 32.95335
915.0144, 31.36743
915.4965, 29.43765
915.9786, 29.00942
916.4607, 29.68368
916.9428, 30.06307
917.4249, 30.17040
917.9070, 30.33127
918.3892, 30.63792
918.8713, 30.87596
919.3534, 30.89749
919.8355, 30.68485
920.3176, 30.06387
920.7997, 28.67972
921.2819, 28.28968
921.7640, 29.56075
922.2461, 30.55317
922.7282, 30.21409
923.2103, 29.46387
923.6924, 29.48378
924.1746, 30.22365
924.6567, 30.77620
925.1388, 31.27548
925.6209, 31.34092
926.1030, 30.66476
926.5851, 29.75994
927.0673, 28.61120
927.5494, 27.61153
928.0315, 27.54104
928.5136, 28.61549
928.9957, 29.61722
929.4778, 29.76455
929.9600, 29.72766
930.4421, 30.28690
930.9242, 30.91449
931.4063, 30.53649
931.8884, 29.28527
932.3705, 28.35866
932.8527, 28.43066
933.3348, 29.04870
933.8169, 29.96232
934.2990, 30.88094
934.7811, 30.77373
935.2632, 29.77185
935.7454, 29.07170
936.2275, 29.06621
936.7096, 29.38382
937.1917, 29.71520
937.6738, 29.99601
938.1559, 29.94066
938.6381, 29.50616
939.1202, 29.04075
939.6023, 28.48489
940.0844, 28.24822
940.5665, 28.69371
941.0486, 29.36708
941.5308, 29.52530
942.0129, 29.10958
942.4950, 28.83069
942.9771, 28.75596
943.4592, 28.71607
943.9413, 28.81400
944.4235, 28.81544
944.9056, 28.32844
945.3877, 27.69297
945.8698, 27.75249
946.3519, 28.84233
946.8340, 29.56446
947.3162, 29.22203
947.7983, 28.81732
948.2804, 28.86567
948.7625, 29.13978
949.2446, 29.50968
949.7267, 29.83571
950.2089, 29.69637
950.6910, 28.68280
951.1731, 27.90703
951.6552, 28.61182
952.1373, 29.77670
952.6194, 30.21241
953.1016, 30.00194
953.5837, 29.41835
954.0658, 28.63260
954.5479, 28.12616
955.0300, 28.34257
955.5121, 28.97458
955.9943, 29.60939
956.4764, 30.17094
956.9585, 30.32040
957.4406, 30.03861
957.9227, 29.53112
958.4048, 28.87390
958.8870, 28.27344
959.3691, 28.05734
959.8512, 27.55299
960.3333, 27.82132
960.8154, 26.98366
961.2975, 26.44802
961.7797, 26.34462
962.2618, 26.65989
962.7439, 27.58549
963.2260, 28.68102
963.7081, 28.94692
964.1902, 28.16479
964.6724, 27.72199
965.1545, 27.76630
965.6366, 27.90883
966.1187, 28.12785
966.6008, 28.35175
967.0829, 28.68990
967.5651, 28.98592
968.0472, 28.66318
968.5293, 27.18157
969.0114, 26.43413
969.4935, 27.36487
969.9756, 28.26693
970.4578, 28.21625
970.9399, 27.86606
971.4220, 28.17044
971.9041, 28.95823
972.3862, 28.97478
972.8683, 27.27596
973.3505, 25.91324
973.8326, 26.22383
974.3147, 27.06310
974.7968, 27.54167
975.2789, 27.73622
975.7610, 27.90825
976.2432, 28.12535
976.7253, 28.34263
977.2074, 28.52132
977.6895, 28.70316
978.1716, 28.98358
978.6537, 29.27288
979.1359, 29.47935
979.6180, 29.55103
980.1001, 29.33180
980.5822, 28.77902
981.0643, 28.11493
981.5464, 27.48551
982.0286, 26.99143
982.5107, 27.03303
982.9928, 27.46027
983.4749, 27.44284
983.9570, 26.90349
984.4391, 26.58006
984.9213, 26.87491
985.4034, 27.42566
985.8855, 27.77479
986.3676, 27.90037
986.8497, 27.45169
987.3318, 26.33984
987.8140, 25.74415
988.2961, 25.96395
988.7782, 26.39288
989.2603, 26.66035
989.7424, 26.84370
990.2245, 27.13784
990.7067, 27.59573
991.1888, 27.70819
991.6709, 27.33178
992.1530, 26.95519
992.6351, 26.65728
993.1172, 26.42832
993.5994, 26.12290
994.0815, 25.91904
994.5636, 26.45366
995.0457, 28.28479
995.5278, 29.27417
996.0099, 29.02811
996.4921, 28.46602
996.9742, 27.50733
997.4563, 26.58315
997.9384, 26.11807
998.4205, 25.99514
998.9026, 25.72099
999.3848, 24.92733
999.8669, 24.78623
1000.349, 26.18269
1000.831, 27.51090
1001.313, 28.03376
1001.795, 28.06503
1002.277, 27.84709
1002.760, 27.49694
1003.242, 27.29471
1003.724, 27.43106
1004.206, 27.46749
1004.688, 27.03260
1005.170, 26.58967
1005.652, 26.40494
1006.134, 26.49695
1006.617, 27.01628
1007.099, 27.84987
1007.581, 28.41294
1008.063, 28.36176
1008.545, 28.09354
1009.027, 27.94487
1009.509, 27.74015
1009.991, 27.02312
1010.473, 26.14752
1010.956, 25.97071
1011.438, 26.61696
1011.920, 27.44596
1012.402, 28.16246
1012.884, 28.52100
1013.366, 27.96219
1013.848, 26.94944
1014.330, 26.32209
1014.813, 26.07693
1015.295, 25.91859
1015.777, 25.76293
1016.259, 25.79815
1016.741, 26.21379
1017.223, 26.85548
1017.705, 27.62335
1018.187, 28.36231
1018.669, 28.42196
1019.152, 27.82812
1019.634, 27.07543
1020.116, 26.35977
1020.598, 26.03777
1021.080, 26.60237
1021.562, 26.30505
1022.044, 26.51923
1022.526, 26.90219
1023.008, 26.86544
1023.491, 27.71847
1023.973, 28.06552
1024.455, 27.26353
1024.937, 26.32221
1025.419, 26.50274
1025.901, 25.80373
1026.383, 25.38588
1026.865, 25.59279
1027.348, 24.97607
1027.830, 25.67539
1028.312, 26.59569
1028.794, 27.32990
1029.276, 27.78102
1029.758, 27.78581
1030.240, 27.40279
1030.722, 27.04129
1031.204, 26.62233
1031.687, 26.62780
1032.169, 27.23811
1032.651, 27.93156
1033.133, 28.64587
1033.615, 28.98582
1034.097, 28.27299
1034.579, 26.61449
1035.061, 25.72514
1035.544, 25.95231
1036.026, 26.03972
1036.508, 25.75145
1036.990, 25.56414
1037.472, 25.68389
1037.954, 26.04637
1038.436, 26.71453
1038.918, 27.65636
1039.401, 27.89467
1039.883, 26.83171
1040.365, 26.18092
1040.847, 26.22703
1041.329, 26.46019
1041.811, 26.91017
1042.293, 27.25479
1042.775, 26.81333
1043.257, 27.32018
1043.740, 27.73843
1044.222, 27.39968
1044.704, 28.49221
1045.186, 27.91487
1045.668, 27.16718
1046.150, 26.15823
1046.632, 25.80659
1047.114, 28.25488
1047.596, 33.11285
1048.079, 34.76627
1048.561, 29.67168
1049.043, 26.01998
1049.525, 25.71868
1050.007, 25.95494
1050.489, 25.39191
1050.971, 24.61295
1051.453, 24.41357
1051.936, 24.77120
1052.418, 25.06231
1052.900, 25.01871
1053.382, 25.19200
1053.864, 26.11696
1054.346, 26.79788
1054.828, 26.47268
1055.310, 25.78124
1055.792, 25.51447
1056.275, 25.65754
1056.757, 25.65954
1057.239, 25.12523
1057.721, 25.01452
1058.203, 26.06085
1058.685, 27.05982
1059.167, 27.32010
1059.649, 27.18434
1060.131, 27.04142
1060.614, 26.92378
1061.096, 26.69468
1061.578, 26.12641
1062.060, 25.96400
1062.542, 26.92998
1063.024, 27.83589
1063.506, 27.94893
1063.988, 27.67448
1064.471, 27.61947
1064.953, 27.65700
1065.435, 26.96967
1065.917, 24.91832
1066.399, 23.63988
1066.881, 24.46871
1067.363, 25.74028
1067.845, 27.12125
1068.328, 27.96054
1068.810, 27.01653
1069.292, 24.96711
1069.774, 24.12360
1070.256, 25.36651
1070.738, 26.39202
1071.220, 26.02798
1071.702, 25.37485
1072.184, 24.74801
1072.667, 24.40952
1073.149, 24.75417
1073.631, 25.57923
1074.113, 26.43528
1074.595, 27.24661
1075.077, 27.54408
1075.559, 26.62729
1076.041, 25.72441
1076.523, 25.53888
1077.006, 25.68256
1077.488, 25.75724
1077.970, 25.83834
1078.452, 26.31039
1078.934, 27.26087
1079.416, 27.81028
1079.898, 27.15022
1080.380, 26.52449
1080.862, 26.63044
1081.345, 27.01166
1081.827, 27.37413
1082.309, 27.64667
1082.791, 27.54620
1083.273, 27.11228
1083.755, 27.48280
1084.237, 30.54413
1084.719, 32.53074
1085.202, 30.78061
1085.684, 28.08868
1086.166, 26.21596
1086.648, 25.19738
1087.130, 25.01191
1087.612, 25.51682
1088.094, 25.91916
1088.576, 25.70404
1089.058, 25.77955
1089.541, 27.11277
1090.023, 28.26831
1090.505, 27.97881
1090.987, 27.05761
1091.469, 26.63925
1091.951, 26.73428
1092.433, 26.58358
1092.915, 25.68535
1093.397, 25.32471
1093.880, 26.67685
1094.362, 27.93754
1094.844, 27.97688
1095.326, 27.40956
1095.808, 26.68982
1096.290, 26.04200
1096.772, 25.96802
1097.254, 26.79770
1097.737, 27.13784
1098.219, 25.68005
1098.701, 24.69258
1099.183, 25.79556
1099.665, 27.29870
1100.147, 27.61692
1100.629, 27.13090
1101.111, 26.99519
1101.594, 27.44806
1102.076, 27.57348
1102.558, 26.85440
1103.040, 26.15383
1103.522, 25.70566
1104.004, 25.41718
1104.486, 25.17905
1104.968, 25.07498
1105.450, 25.39770
1105.932, 26.13978
1106.415, 26.42059
1106.897, 25.32017
1107.379, 24.87190
1107.861, 26.22895
1108.343, 27.45387
1108.825, 27.51520
1109.307, 26.91507
1109.789, 26.05391
1110.272, 25.07316
1110.754, 24.65181
1111.236, 25.33328
1111.718, 25.63296
1112.200, 24.97283
1112.682, 24.48348
1113.164, 24.43614
1113.646, 24.82405
1114.129, 26.24220
1114.611, 28.07258
1115.093, 28.03412
1115.575, 24.98921
1116.057, 23.56942
1116.539, 25.07957
1117.021, 26.23672
1117.503, 26.15540
1117.985, 25.84455
1118.468, 25.94681
1118.950, 26.26011
1119.432, 26.39918
1119.914, 26.34771
1120.396, 26.32185
1120.878, 26.36811
1121.360, 26.34351
1121.842, 26.26047
1122.324, 26.02883
1122.807, 25.44212
1123.289, 24.91215
1123.771, 25.06060
1124.253, 25.76395
1124.735, 25.93233
1125.217, 25.32419
1125.699, 25.03399
1126.181, 25.14367
1126.664, 25.53209
1127.146, 26.32807
1127.628, 26.91606
1128.110, 26.65874
1128.592, 25.85567
1129.074, 25.29247
1129.556, 24.92378
1130.038, 25.50588
1130.521, 27.27593
1131.003, 28.20610
1131.485, 27.73426
1131.967, 27.05899
1132.449, 26.94043
1132.931, 27.08628
1133.413, 27.02459
1133.895, 26.78497
1134.377, 26.57857
1134.859, 26.40172
1135.342, 26.18350
1135.824, 25.91483
1136.306, 25.60569
1136.788, 25.25655
1137.270, 25.01551
1137.752, 25.07640
1138.234, 24.87751
1138.716, 25.19663
1139.199, 24.91619
1139.681, 24.95395
1140.163, 25.25918
1140.645, 25.30583
1141.127, 24.98161
1141.609, 24.68351
1142.091, 24.67903
1142.573, 24.87156
1143.056, 25.17510
1143.538, 25.55028
1144.020, 26.09548
1144.502, 26.59626
1144.984, 26.25960
1145.466, 25.26813
1145.948, 24.92900
1146.430, 25.78044
1146.912, 26.65785
1147.395, 26.48331
1147.877, 25.87184
1148.359, 25.27651
1148.841, 24.85175
1149.323, 24.94933
1149.805, 25.35614
1150.287, 25.55381
1150.769, 25.45212
1151.251, 25.37866
1151.734, 25.50664
1152.216, 25.69877
1152.698, 25.88068
1153.180, 26.07215
1153.662, 26.37900
1154.144, 26.64229
1154.626, 26.62238
1155.108, 26.36885
1155.591, 26.09301
1156.073, 25.82911
1156.555, 25.69009
1157.037, 25.86386
1157.519, 25.97327
1158.001, 25.67051
1158.483, 25.43603
1158.965, 25.78612
1159.448, 26.38954
1159.930, 26.67851
1160.412, 26.60707
1160.894, 26.39147
1161.376, 25.83238
1161.858, 25.48211
1162.340, 25.67375
1162.822, 25.70588
1163.304, 24.88313
1163.786, 24.23934
1164.269, 25.02925
1164.751, 26.71540
1165.233, 27.40121
1165.715, 26.78604
1166.197, 26.52233
1166.679, 26.83420
1167.161, 26.81234
1167.643, 26.06716
1168.126, 25.56630
1168.608, 26.00278
1169.090, 26.71561
1169.572, 26.66893
1170.054, 26.00155
1170.536, 25.84063
1171.018, 26.22187
1171.500, 26.20990
1171.983, 25.70958
1172.465, 25.27906
1172.947, 25.10402
1173.429, 25.24693
1173.911, 25.81121
1174.393, 26.49030
1174.875, 26.70319
1175.357, 26.53643
1175.839, 26.25120
1176.322, 25.89868
1176.804, 25.62436
1177.286, 25.47318
1177.768, 25.53825
1178.250, 25.85726
1178.732, 26.29758
1179.214, 26.88671
1179.696, 27.31976
1180.178, 26.93619
1180.661, 26.29891
1181.143, 26.46920
1181.625, 27.06467
1182.107, 26.88155
1182.589, 25.90926
1183.071, 25.57634
1183.553, 26.81266
1184.035, 27.75657
1184.518, 26.80077
1185.000, 25.63618
1185.482, 25.36468
1185.964, 25.58345
1186.446, 25.97024
1186.928, 26.40830
1187.410, 26.82680
1187.892, 27.21826
1188.375, 27.28421
1188.857, 26.45754
1189.339, 26.04546
1189.821, 26.90001
1190.303, 27.53412
1190.785, 27.06744
1191.267, 26.14203
1191.749, 25.24736
1192.231, 24.50862
1192.714, 24.46818
1193.196, 25.41253
1193.678, 25.92724
1194.160, 25.83095
1194.642, 25.77956
1195.124, 25.84587
1195.606, 26.19997
1196.088, 27.09981
1196.570, 27.88440
1197.053, 27.53747
1197.535, 26.34184
1198.017, 25.67745
1198.499, 25.53795
1198.981, 25.67245
1199.463, 26.04369
1199.945, 26.24146
1200.427, 26.14965
1200.910, 25.83584
1201.392, 25.30977
1201.874, 24.91073
1202.356, 25.40716
1202.838, 26.21333
1203.320, 25.94811
1203.802, 25.03582
1204.284, 24.27572
1204.766, 23.84382
1205.249, 23.95260
1205.731, 24.60620
1206.213, 25.31014
1206.695, 25.83741
1207.177, 26.13342
1207.659, 25.86197
1208.141, 25.64164
1208.623, 26.39698
1209.105, 27.25623
1209.588, 26.86469
1210.070, 25.59151
1210.552, 24.85793
1211.034, 24.99317
1211.516, 25.31864
1211.998, 25.87574
1212.480, 26.31188
1212.962, 26.70595
1213.445, 26.76791
1213.927, 25.94893
1214.409, 25.04551
1214.891, 25.03543
1215.373, 25.67244
1215.855, 25.78475
1216.337, 25.07522
1216.819, 25.26527
1217.302, 26.74954
1217.784, 27.53418
1218.266, 27.09362
1218.748, 26.42517
1219.230, 26.01733
1219.712, 25.97412
1220.194, 26.54973
1220.676, 27.41153
1221.158, 27.35691
1221.641, 26.59368
1222.123, 26.24250
1222.605, 26.28933
1223.087, 26.31260
1223.569, 26.18578
1224.051, 25.81235
1224.533, 25.12099
1225.015, 24.51563
1225.497, 24.37892
1225.980, 24.57110
1226.462, 25.33905
1226.944, 26.02069
1227.426, 25.41126
1227.908, 24.15432
1228.390, 23.75423
1228.872, 24.32755
1229.354, 24.64766
1229.837, 24.03927
1230.319, 23.89629
1230.801, 25.35121
1231.283, 26.50841
1231.765, 26.34994
1232.247, 25.79071
1232.729, 25.37618
1233.211, 25.14961
1233.693, 25.18200
1234.176, 25.46131
1234.658, 25.63769
1235.140, 25.75736
1235.622, 25.57383
1236.104, 24.89734
1236.586, 24.57925
1237.068, 24.90401
1237.550, 25.50673
1238.032, 26.16997
1238.515, 26.75172
1238.997, 27.00667
1239.479, 26.97967
1239.961, 26.87624
1240.443, 26.66116
1240.925, 25.96575
1241.407, 24.96987
1241.889, 24.66820
1242.372, 25.26024
1242.854, 26.01545
1243.336, 26.55946
1243.818, 26.64855
1244.300, 25.73794
1244.782, 24.59674
1245.264, 23.71530
1245.746, 23.25095
1246.229, 23.51583
1246.711, 24.26280
1247.193, 25.11324
1247.675, 25.95522
1248.157, 26.48416
1248.639, 26.30399
1249.121, 26.45960
1249.603, 28.01067
1250.085, 28.68263
1250.568, 26.85942
1251.050, 25.07753
1251.532, 24.99213
1252.014, 26.02238
1252.496, 27.41922
1252.978, 29.05074
1253.460, 29.28489
1253.942, 27.96336
1254.424, 27.01282
1254.907, 26.56549
1255.389, 26.08396
1255.871, 25.42470
1256.353, 24.71898
1256.835, 24.02564
1257.317, 23.71774
1257.799, 24.37551
1258.281, 25.63028
1258.764, 27.31722
1259.246, 28.81605
1259.728, 28.67055
1260.210, 27.50231
1260.692, 26.94564
1261.174, 27.19064
1261.656, 27.31251
1262.138, 26.94313
1262.620, 26.45807
1263.103, 25.78972
1263.585, 25.37034
1264.067, 25.51488
1264.549, 25.84517
1265.031, 26.38794
1265.513, 26.75599
1265.995, 26.22919
1266.477, 25.05050
1266.959, 24.49891
1267.442, 24.70606
1267.924, 24.98751
1268.406, 25.31173
1268.888, 25.97558
1269.370, 27.13680
1269.852, 27.77385
1270.334, 27.33416
1270.816, 26.56916
1271.299, 26.26422
1271.781, 26.21848
1272.263, 26.05780
1272.745, 25.81816
1273.227, 25.51256
1273.709, 25.22902
1274.191, 25.16690
1274.673, 25.33088
1275.156, 25.71521
1275.638, 26.28266
1276.120, 26.51911
1276.602, 25.78757
1277.084, 25.28660
1277.566, 25.90047
1278.048, 26.57732
1278.530, 26.47028
1279.012, 26.30879
1279.495, 27.07526
1279.977, 27.12481
1280.459, 27.48960
1280.941, 28.08804
1281.423, 28.04650
1281.905, 28.83376
1282.387, 28.80782
1282.869, 27.70618
1283.351, 26.65910
1283.834, 25.97303
1284.316, 25.71196
1284.798, 25.95717
1285.280, 26.31520
1285.762, 26.31323
1286.244, 25.96333
##END=



