##NAMES=Claudetite
##RRUFFID=R050313
##IDEAL CHEMISTRY=As^3+^_2_O_3_
##LOCALITY=JÃ¡chymov, Erzgebirge Region, Czech Republic
##OWNER=RRUFF
##SOURCE=University of Arizona Mineral Museum
##DESCRIPTION=Colorless prismatic crystals scattered on the matrix
##STATUS=The identification of this mineral is confirmed by single-crystal X-ray diffraction and chemical analysis.
##URL=rruff.info/R050313
##MEASURED CHEMISTRY=As_2.00_O_3_ ; trace amounts of Al, gray phase
92.35352, 33.51683
92.83563, 33.51856
93.31775, 33.52029
93.79987, 33.33302
94.28198, 33.12093
94.76410, 33.36306
95.24622, 34.16619
95.72833, 35.45586
96.21045, 37.24400
96.69257, 39.57393
97.17468, 41.85347
97.65680, 43.27380
98.13892, 43.86713
98.62103, 44.99496
99.10315, 46.93874
99.58527, 49.68149
100.0674, 53.24291
100.5495, 57.83995
101.0316, 62.71148
101.5137, 66.83949
101.9958, 70.10625
102.4780, 73.11650
102.9601, 75.74578
103.4422, 77.71780
103.9243, 81.16357
104.4064, 86.41997
104.8885, 92.94840
105.3707, 99.88122
105.8528, 106.7939
106.3349, 114.6277
106.8170, 123.7331
107.2991, 134.6188
107.7813, 145.8013
108.2634, 156.9045
108.7455, 168.3075
109.2276, 180.8481
109.7097, 197.0119
110.1918, 212.6229
110.6740, 225.9730
111.1561, 237.0271
111.6382, 245.8102
112.1203, 252.1616
112.6024, 256.2123
113.0845, 258.3409
113.5667, 257.5600
114.0488, 255.4626
114.5309, 253.1070
115.0130, 249.9060
115.4951, 247.2592
115.9772, 245.9499
116.4594, 245.9245
116.9415, 245.4619
117.4236, 242.6743
117.9057, 239.5224
118.3878, 238.1094
118.8699, 241.4133
119.3521, 245.0054
119.8342, 245.8321
120.3163, 243.4136
120.7984, 241.4820
121.2805, 242.3127
121.7626, 245.1695
122.2448, 248.7941
122.7269, 254.6103
123.2090, 259.9363
123.6911, 261.5880
124.1732, 258.5919
124.6553, 254.5959
125.1375, 252.7911
125.6196, 252.7370
126.1017, 253.0390
126.5838, 252.0254
127.0659, 250.9511
127.5480, 252.2774
128.0302, 256.8297
128.5123, 262.8848
128.9944, 268.5643
129.4765, 273.8345
129.9586, 278.3837
130.4407, 281.2472
130.9229, 282.9806
131.4050, 286.0107
131.8871, 291.1544
132.3692, 297.4563
132.8513, 302.5517
133.3334, 305.8650
133.8156, 307.6876
134.2977, 309.1664
134.7798, 311.3600
135.2619, 314.5972
135.7440, 319.4187
136.2261, 325.2792
136.7083, 329.7355
137.1904, 332.4310
137.6725, 334.9700
138.1546, 339.3193
138.6367, 345.9144
139.1188, 351.9586
139.6010, 356.5987
140.0831, 359.8193
140.5652, 363.7455
141.0473, 368.5956
141.5294, 373.8864
142.0115, 378.8625
142.4937, 383.2924
142.9758, 388.0100
143.4579, 393.0966
143.9400, 398.2430
144.4221, 405.0345
144.9042, 413.5501
145.3864, 423.6107
145.8685, 434.5509
146.3506, 445.1427
146.8327, 458.2996
147.3148, 475.1323
147.7969, 496.0266
148.2791, 519.3231
148.7612, 543.6223
149.2433, 570.2358
149.7254, 602.7657
150.2075, 637.8824
150.6896, 681.4640
151.1718, 735.2775
151.6539, 800.9873
152.1360, 874.2035
152.6181, 954.4736
153.1002, 1042.041
153.5823, 1137.320
154.0645, 1252.006
154.5466, 1366.951
155.0287, 1473.304
155.5108, 1575.964
155.9929, 1665.200
156.4750, 1733.156
156.9572, 1784.405
157.4393, 1835.805
157.9214, 1890.682
158.4035, 1947.501
158.8856, 2005.445
159.3677, 2065.046
159.8499, 2125.294
160.3320, 2183.173
160.8141, 2239.748
161.2962, 2302.281
161.7783, 2372.330
162.2604, 2449.367
162.7426, 2532.955
163.2247, 2620.308
163.7068, 2716.442
164.1889, 2822.431
164.6710, 2937.651
165.1531, 3066.339
165.6353, 3206.118
166.1174, 3361.625
166.5995, 3537.860
167.0816, 3730.801
167.5637, 3949.053
168.0458, 4196.101
168.5280, 4469.887
169.0101, 4780.400
169.4922, 5141.593
169.9743, 5538.708
170.4564, 5949.260
170.9385, 6404.163
171.4207, 6844.767
171.9028, 7260.900
172.3849, 7655.490
172.8670, 7902.228
173.3491, 7917.745
173.8312, 7719.509
174.3134, 7338.180
174.7955, 6681.286
175.2776, 5900.298
175.7597, 5149.737
176.2418, 4425.156
176.7239, 3783.160
177.2061, 3263.748
177.6882, 2852.210
178.1703, 2517.655
178.6524, 2258.701
179.1345, 2058.528
179.6166, 1897.066
180.0988, 1773.693
180.5809, 1676.673
181.0630, 1598.283
181.5451, 1535.768
182.0272, 1481.518
182.5093, 1430.291
182.9915, 1383.738
183.4736, 1347.333
183.9557, 1321.770
184.4378, 1303.712
184.9199, 1287.745
185.4020, 1274.623
185.8842, 1267.782
186.3663, 1269.307
186.8484, 1278.763
187.3305, 1295.110
187.8126, 1319.059
188.2947, 1348.215
188.7769, 1382.247
189.2590, 1420.723
189.7411, 1454.237
190.2232, 1483.038
190.7053, 1504.715
191.1874, 1505.231
191.6696, 1483.698
192.1517, 1440.294
192.6338, 1369.541
193.1159, 1270.682
193.5980, 1165.547
194.0801, 1062.467
194.5623, 962.4272
195.0444, 873.6618
195.5265, 797.4359
196.0086, 733.1237
196.4907, 680.8193
196.9728, 641.0700
197.4550, 608.4932
197.9371, 580.4625
198.4192, 556.9753
198.9013, 537.9254
199.3834, 524.2065
199.8655, 514.0235
200.3477, 502.5365
200.8298, 489.2386
201.3119, 477.0725
201.7940, 467.5618
202.2761, 460.7482
202.7582, 456.2885
203.2404, 454.6916
203.7225, 455.0325
204.2046, 454.6037
204.6867, 453.0392
205.1688, 451.9685
205.6509, 452.5428
206.1331, 454.9821
206.6152, 457.4896
207.0973, 459.5425
207.5794, 461.7548
208.0615, 466.1429
208.5436, 473.0709
209.0258, 481.2432
209.5079, 489.5979
209.9900, 497.6978
210.4721, 507.5497
210.9542, 518.5331
211.4363, 531.6266
211.9185, 550.4582
212.4006, 576.0248
212.8827, 605.4075
213.3648, 636.5513
213.8469, 670.0907
214.3290, 704.9131
214.8112, 743.7750
215.2933, 783.1237
215.7754, 813.1897
216.2575, 837.5521
216.7396, 845.8758
217.2217, 828.7015
217.7038, 776.8976
218.1860, 727.3068
218.6681, 680.8799
219.1502, 638.8671
219.6323, 606.9489
220.1144, 587.1084
220.5965, 574.4227
221.0787, 566.8049
221.5608, 565.2253
222.0429, 566.0151
222.5250, 568.6645
223.0071, 573.5817
223.4892, 582.2439
223.9714, 595.4861
224.4535, 611.2616
224.9356, 628.4415
225.4177, 645.8482
225.8998, 667.4307
226.3819, 694.0665
226.8641, 725.0188
227.3462, 756.5404
227.8283, 786.8157
228.3104, 820.3288
228.7925, 859.8330
229.2746, 910.5189
229.7568, 956.4025
230.2389, 995.3451
230.7210, 1029.774
231.2031, 1065.833
231.6852, 1102.499
232.1673, 1142.192
232.6495, 1186.198
233.1316, 1236.632
233.6137, 1286.567
234.0958, 1334.808
234.5779, 1382.113
235.0600, 1430.201
235.5422, 1481.719
236.0243, 1530.989
236.5064, 1574.689
236.9885, 1607.431
237.4706, 1646.153
237.9527, 1688.849
238.4349, 1737.635
238.9170, 1797.471
239.3991, 1869.332
239.8812, 1950.770
240.3633, 2041.310
240.8454, 2142.425
241.3276, 2248.592
241.8097, 2357.118
242.2918, 2470.294
242.7739, 2593.045
243.2560, 2730.589
243.7381, 2869.724
244.2203, 3006.907
244.7024, 3145.469
245.1845, 3274.192
245.6666, 3401.879
246.1487, 3515.271
246.6308, 3591.590
247.1130, 3628.218
247.5951, 3631.580
248.0772, 3597.535
248.5593, 3511.881
249.0414, 3438.484
249.5235, 3370.719
250.0057, 3319.479
250.4878, 3301.303
250.9699, 3317.684
251.4520, 3364.901
251.9341, 3443.588
252.4162, 3557.376
252.8984, 3686.619
253.3805, 3834.204
253.8626, 3996.368
254.3447, 4165.607
254.8268, 4352.700
255.3089, 4530.784
255.7911, 4696.358
256.2732, 4854.111
256.7553, 4969.950
257.2374, 5050.761
257.7195, 5082.720
258.2017, 5048.678
258.6838, 4941.479
259.1659, 4783.429
259.6480, 4571.764
260.1301, 4307.050
260.6122, 4022.678
261.0944, 3704.861
261.5765, 3382.956
262.0586, 3084.491
262.5407, 2809.775
263.0228, 2559.365
263.5049, 2336.264
263.9871, 2138.489
264.4692, 1965.758
264.9513, 1819.337
265.4334, 1693.393
265.9155, 1581.275
266.3976, 1486.314
266.8798, 1400.614
267.3619, 1323.896
267.8440, 1255.548
268.3261, 1196.744
268.8082, 1148.918
269.2903, 1107.773
269.7725, 1070.734
270.2546, 1038.454
270.7367, 1009.197
271.2188, 982.7726
271.7009, 959.4787
272.1830, 940.0803
272.6652, 924.7880
273.1473, 913.2208
273.6294, 904.8709
274.1115, 899.6349
274.5936, 898.6867
275.0757, 902.3009
275.5579, 910.1014
276.0400, 920.5005
276.5221, 932.9891
277.0042, 950.0892
277.4863, 973.2939
277.9684, 1002.676
278.4506, 1037.220
278.9327, 1077.277
279.4148, 1121.910
279.8969, 1169.460
280.3790, 1220.008
280.8611, 1272.885
281.3433, 1332.936
281.8254, 1400.188
282.3075, 1450.542
282.7896, 1484.765
283.2717, 1499.744
283.7538, 1490.778
284.2360, 1457.855
284.7181, 1402.286
285.2002, 1317.894
285.6823, 1207.725
286.1644, 1095.880
286.6465, 981.2863
287.1287, 872.6627
287.6108, 781.8115
288.0929, 708.3588
288.5750, 645.8901
289.0571, 593.2079
289.5392, 549.4637
290.0214, 512.9278
290.5035, 483.9315
290.9856, 460.2858
291.4677, 440.7726
291.9498, 425.0657
292.4319, 411.7529
292.9141, 400.5775
293.3962, 391.2662
293.8783, 383.4439
294.3604, 377.1620
294.8425, 371.6472
295.3246, 366.6147
295.8068, 361.8223
296.2889, 356.3625
296.7710, 349.2693
297.2531, 342.2122
297.7352, 338.3501
298.2173, 337.4441
298.6995, 337.3594
299.1816, 336.8433
299.6637, 336.0209
300.1458, 335.1563
300.6279, 334.2721
301.1100, 333.3845
301.5922, 332.4321
302.0743, 331.4643
302.5564, 330.6957
303.0385, 330.0225
303.5206, 329.6874
304.0027, 330.1875
304.4849, 331.7427
304.9670, 333.4564
305.4491, 334.2477
305.9312, 334.5048
306.4133, 335.1589
306.8954, 337.3741
307.3776, 339.8487
307.8597, 340.8688
308.3418, 340.1833
308.8239, 339.9293
309.3060, 342.0921
309.7881, 345.6870
310.2703, 349.0821
310.7524, 350.7240
311.2345, 352.6214
311.7166, 356.5510
312.1987, 362.4632
312.6808, 368.2936
313.1630, 372.7816
313.6451, 376.6599
314.1272, 380.7579
314.6093, 385.7257
315.0914, 390.5518
315.5735, 394.3376
316.0557, 397.3369
316.5378, 400.9112
317.0199, 405.8912
317.5020, 411.4984
317.9841, 417.2646
318.4662, 423.0140
318.9484, 428.8416
319.4305, 434.0430
319.9126, 439.2647
320.3947, 446.2054
320.8768, 456.9343
321.3589, 468.3136
321.8411, 478.7569
322.3232, 487.4345
322.8053, 496.4500
323.2874, 506.3874
323.7695, 516.8630
324.2516, 527.2692
324.7338, 536.0765
325.2159, 546.1174
325.6980, 559.3180
326.1801, 577.3281
326.6622, 591.5023
327.1443, 598.9178
327.6265, 603.3518
328.1086, 608.6321
328.5907, 618.3971
329.0728, 624.9599
329.5549, 626.8128
330.0370, 623.9171
330.5192, 619.3204
331.0013, 612.3602
331.4834, 604.2414
331.9655, 595.6624
332.4476, 586.3572
332.9297, 576.8609
333.4119, 566.1361
333.8940, 555.1498
334.3761, 548.4805
334.8582, 547.1697
335.3403, 548.6840
335.8224, 551.7926
336.3046, 556.3096
336.7867, 563.1936
337.2688, 573.2275
337.7509, 585.0794
338.2330, 595.9352
338.7151, 604.8535
339.1973, 615.5403
339.6794, 630.4056
340.1615, 649.6169
340.6436, 666.3778
341.1257, 679.9655
341.6078, 692.3436
342.0899, 706.0013
342.5721, 720.7953
343.0542, 735.6793
343.5363, 749.5884
344.0184, 763.2366
344.5005, 780.5896
344.9826, 801.8111
345.4648, 824.5306
345.9469, 845.8276
346.4290, 866.3666
346.9111, 888.7183
347.3932, 913.0361
347.8753, 940.1079
348.3575, 971.6839
348.8396, 1007.362
349.3217, 1044.636
349.8038, 1080.537
350.2859, 1116.498
350.7680, 1156.640
351.2502, 1202.099
351.7323, 1249.127
352.2144, 1294.934
352.6965, 1339.281
353.1786, 1380.086
353.6607, 1420.595
354.1429, 1455.130
354.6250, 1478.408
355.1071, 1490.353
355.5892, 1486.950
356.0713, 1464.873
356.5534, 1425.569
357.0356, 1371.004
357.5177, 1294.135
357.9998, 1208.484
358.4819, 1120.436
358.9640, 1031.132
359.4461, 949.2829
359.9283, 878.4001
360.4104, 817.4528
360.8925, 765.9410
361.3746, 725.5682
361.8567, 691.4174
362.3388, 662.1971
362.8210, 637.8759
363.3031, 617.6735
363.7852, 603.2710
364.2673, 591.4227
364.7494, 580.6937
365.2315, 570.8372
365.7137, 562.4108
366.1958, 555.6791
366.6779, 550.4708
367.1600, 546.5252
367.6421, 543.1691
368.1242, 541.7432
368.6064, 543.3625
369.0885, 548.2346
369.5706, 551.7816
370.0527, 552.3291
370.5348, 552.8734
371.0169, 555.5067
371.4991, 562.0706
371.9812, 567.5195
372.4633, 571.0073
372.9454, 573.1866
373.4275, 576.2966
373.9096, 580.7526
374.3918, 585.4849
374.8739, 589.6266
375.3560, 592.6376
375.8381, 597.9272
376.3202, 606.2473
376.8023, 615.7819
377.2845, 623.5035
377.7666, 628.9066
378.2487, 634.9212
378.7308, 642.4365
379.2129, 651.3525
379.6950, 660.3044
380.1772, 669.3097
380.6593, 678.6249
381.1414, 688.5878
381.6235, 699.1135
382.1056, 710.3741
382.5877, 722.5369
383.0699, 735.1321
383.5520, 747.5104
384.0341, 759.7244
384.5162, 771.1395
384.9983, 780.5444
385.4804, 789.0809
385.9626, 799.4195
386.4447, 811.9736
386.9268, 825.5095
387.4089, 839.0635
387.8910, 852.6985
388.3731, 866.2474
388.8553, 878.9214
389.3374, 891.9609
389.8195, 906.9866
390.3016, 923.6737
390.7837, 939.9242
391.2658, 953.4901
391.7480, 966.1337
392.2301, 979.7290
392.7122, 995.3557
393.1943, 1011.237
393.6764, 1026.354
394.1585, 1041.029
394.6407, 1055.848
395.1228, 1070.226
395.6049, 1085.527
396.0870, 1102.596
396.5691, 1121.572
397.0512, 1141.898
397.5334, 1164.810
398.0155, 1188.683
398.4976, 1211.168
398.9797, 1230.399
399.4618, 1250.163
399.9439, 1271.318
400.4261, 1293.834
400.9082, 1316.255
401.3903, 1337.922
401.8724, 1360.079
402.3545, 1383.626
402.8366, 1408.632
403.3188, 1434.346
403.8009, 1460.889
404.2830, 1488.034
404.7651, 1515.047
405.2472, 1541.076
405.7293, 1568.677
406.2115, 1599.624
406.6936, 1633.795
407.1757, 1665.898
407.6578, 1695.154
408.1399, 1724.716
408.6220, 1759.781
409.1042, 1800.201
409.5863, 1838.578
410.0684, 1871.731
410.5505, 1902.504
411.0326, 1939.805
411.5147, 1983.655
411.9969, 2029.095
412.4790, 2073.771
412.9611, 2117.910
413.4432, 2161.162
413.9253, 2203.823
414.4074, 2246.105
414.8896, 2287.819
415.3717, 2329.460
415.8538, 2371.960
416.3359, 2415.281
416.8180, 2459.648
417.3001, 2504.501
417.7823, 2550.405
418.2644, 2596.874
418.7465, 2643.636
419.2286, 2691.958
419.7107, 2742.713
420.1928, 2799.885
420.6750, 2855.281
421.1571, 2903.443
421.6392, 2947.519
422.1213, 2994.471
422.6034, 3046.541
423.0855, 3101.331
423.5677, 3158.927
424.0498, 3219.895
424.5319, 3280.251
425.0140, 3338.149
425.4961, 3396.642
425.9782, 3459.073
426.4604, 3528.416
426.9425, 3597.234
427.4246, 3661.678
427.9067, 3724.137
428.3888, 3797.104
428.8709, 3882.043
429.3531, 3974.534
429.8352, 4073.448
430.3173, 4177.116
430.7994, 4288.313
431.2815, 4405.978
431.7636, 4532.521
432.2458, 4669.275
432.7279, 4816.125
433.2100, 4973.915
433.6921, 5141.469
434.1742, 5321.074
434.6563, 5514.870
435.1385, 5725.041
435.6206, 5953.494
436.1027, 6200.607
436.5848, 6467.671
437.0669, 6756.986
437.5490, 7068.163
438.0312, 7405.901
438.5133, 7774.712
438.9954, 8177.379
439.4775, 8621.633
439.9596, 9114.420
440.4417, 9648.836
440.9239, 10218.01
441.4060, 10821.64
441.8881, 11468.47
442.3702, 12168.72
442.8523, 12904.36
443.3344, 13664.31
443.8166, 14459.86
444.2987, 15261.69
444.7808, 16066.96
445.2629, 16872.39
445.7450, 17675.13
446.2271, 18444.71
446.7093, 19217.61
447.1914, 20003.22
447.6735, 20801.92
448.1556, 21618.40
448.6377, 22423.83
449.1198, 23258.04
449.6020, 24166.71
450.0841, 25147.24
450.5662, 26165.41
451.0483, 27202.21
451.5304, 28277.29
452.0125, 29447.38
452.4947, 30726.89
452.9768, 32086.81
453.4589, 33534.54
453.9410, 35083.99
454.4231, 36659.94
454.9052, 38290.29
455.3874, 39920.06
455.8695, 41543.17
456.3516, 43150.61
456.8337, 44629.50
457.3158, 46006.52
457.7979, 47202.43
458.2801, 48145.08
458.7622, 48816.13
459.2443, 49100.09
459.7264, 48944.52
460.2085, 48338.84
460.6906, 47242.93
461.1728, 45632.27
461.6549, 43646.46
462.1370, 41277.96
462.6191, 38646.59
463.1012, 35978.73
463.5833, 33239.46
464.0655, 30586.79
464.5476, 28079.50
465.0297, 25735.40
465.5118, 23579.55
465.9939, 21673.74
466.4760, 19964.54
466.9582, 18438.41
467.4403, 17111.03
467.9224, 15910.53
468.4045, 14854.69
468.8866, 13918.01
469.3687, 13050.50
469.8509, 12270.08
470.3330, 11554.12
470.8151, 10902.78
471.2972, 10314.22
471.7793, 9773.611
472.2614, 9280.640
472.7436, 8822.268
473.2257, 8389.327
473.7078, 7980.169
474.1899, 7598.646
474.6720, 7243.930
475.1541, 6912.557
475.6363, 6600.993
476.1184, 6308.812
476.6005, 6033.778
477.0826, 5776.860
477.5647, 5535.861
478.0468, 5301.272
478.5290, 5073.803
479.0111, 4859.974
479.4932, 4670.187
479.9753, 4494.122
480.4574, 4318.858
480.9395, 4140.090
481.4217, 3967.326
481.9038, 3810.301
482.3859, 3664.840
482.8680, 3526.930
483.3501, 3397.692
483.8322, 3273.352
484.3144, 3151.533
484.7965, 3033.410
485.2786, 2920.977
485.7607, 2816.406
486.2428, 2717.614
486.7249, 2622.982
487.2071, 2532.186
487.6892, 2448.721
488.1713, 2374.835
488.6534, 2306.874
489.1355, 2237.670
489.6176, 2164.303
490.0998, 2097.600
490.5819, 2040.181
491.0640, 1990.461
491.5461, 1942.059
492.0282, 1894.697
492.5103, 1848.910
492.9925, 1805.535
493.4746, 1763.995
493.9567, 1724.653
494.4388, 1686.911
494.9209, 1651.434
495.4030, 1618.623
495.8852, 1588.354
496.3673, 1559.433
496.8494, 1531.734
497.3315, 1505.204
497.8136, 1480.012
498.2957, 1455.862
498.7779, 1432.650
499.2600, 1411.431
499.7421, 1390.023
500.2242, 1366.663
500.7063, 1340.439
501.1884, 1314.404
501.6706, 1290.869
502.1527, 1267.538
502.6348, 1242.479
503.1169, 1211.008
503.5990, 1183.231
504.0811, 1162.168
504.5633, 1145.990
505.0454, 1127.229
505.5275, 1104.718
506.0096, 1082.150
506.4917, 1060.757
506.9738, 1040.265
507.4560, 1022.315
507.9381, 1007.444
508.4202, 993.6479
508.9023, 978.5939
509.3844, 962.4170
509.8665, 947.7158
510.3487, 935.4103
510.8308, 923.9878
511.3129, 910.5649
511.7950, 895.6199
512.2772, 881.3711
512.7593, 868.9471
513.2414, 857.9128
513.7235, 847.7115
514.2056, 838.3088
514.6877, 829.4386
515.1699, 821.2979
515.6520, 813.4112
516.1341, 805.1752
516.6162, 795.5783
517.0983, 787.3085
517.5804, 781.8240
518.0626, 778.0375
518.5447, 774.1698
519.0268, 767.4039
519.5089, 763.2850
519.9910, 763.7516
520.4731, 768.4952
520.9553, 772.8835
521.4374, 776.4816
521.9195, 780.3070
522.4016, 784.5734
522.8837, 788.8221
523.3658, 795.7234
523.8480, 805.3674
524.3301, 817.5943
524.8122, 832.6448
525.2943, 850.3252
525.7764, 868.6442
526.2585, 887.3470
526.7407, 906.0645
527.2228, 924.1310
527.7049, 941.8334
528.1870, 960.2130
528.6691, 980.6663
529.1512, 1002.000
529.6334, 1022.595
530.1155, 1042.465
530.5976, 1062.972
531.0797, 1083.512
531.5618, 1106.048
532.0439, 1132.401
532.5261, 1166.101
533.0082, 1199.603
533.4903, 1229.958
533.9724, 1259.127
534.4545, 1292.097
534.9366, 1329.199
535.4188, 1370.053
535.9009, 1415.399
536.3830, 1465.117
536.8651, 1513.745
537.3472, 1561.132
537.8293, 1607.602
538.3115, 1653.507
538.7936, 1698.935
539.2757, 1741.633
539.7578, 1782.453
540.2399, 1816.974
540.7220, 1841.147
541.2042, 1854.353
541.6863, 1855.286
542.1684, 1843.915
542.6505, 1819.519
543.1326, 1780.293
543.6147, 1727.146
544.0969, 1662.031
544.5790, 1580.972
545.0611, 1493.212
545.5432, 1404.194
546.0253, 1314.455
546.5074, 1230.191
546.9896, 1154.162
547.4717, 1085.520
547.9538, 1023.623
548.4359, 969.7433
548.9180, 920.7975
549.4001, 876.6025
549.8823, 836.7278
550.3644, 800.6879
550.8465, 768.3260
551.3286, 739.5294
551.8107, 714.8785
552.2928, 693.8130
552.7750, 672.5353
553.2571, 650.3415
553.7392, 630.8027
554.2213, 617.5109
554.7034, 609.4286
555.1855, 599.8532
555.6677, 588.3676
556.1498, 576.0795
556.6319, 563.4629
557.1140, 551.0754
557.5961, 540.3207
558.0782, 532.2521
558.5604, 524.7900
559.0425, 515.8609
559.5246, 506.3118
560.0067, 498.0903
560.4888, 494.5654
560.9709, 490.2873
561.4531, 482.2133
561.9352, 470.2385
562.4173, 459.1542
562.8994, 450.7300
563.3815, 442.4430
563.8636, 432.7350
564.3458, 420.4988
564.8279, 410.2098
565.3100, 402.7009
565.7921, 395.9561
566.2742, 387.1725
566.7563, 376.0047
567.2385, 365.7649
567.7206, 357.2605
568.2027, 350.0348
568.6848, 343.5244
569.1669, 337.6483
569.6490, 332.4844
570.1312, 327.9978
570.6133, 324.2029
571.0954, 321.7613
571.5775, 320.5076
572.0596, 318.3758
572.5417, 313.0788
573.0239, 306.8381
573.5060, 301.4998
573.9881, 297.1460
574.4702, 294.2400
574.9523, 294.2009
575.4344, 295.1864
575.9166, 294.8648
576.3987, 291.8868
576.8808, 289.1363
577.3629, 286.7026
577.8450, 284.7226
578.3271, 283.7234
578.8093, 283.9858
579.2914, 284.4102
579.7735, 284.7437
580.2556, 284.9026
580.7377, 284.1511
581.2198, 282.4402
581.7020, 280.3152
582.1841, 278.1044
582.6662, 275.8397
583.1483, 273.3848
583.6304, 270.6314
584.1125, 268.4124
584.5947, 268.2256
585.0768, 268.8605
585.5589, 268.5345
586.0410, 265.9341
586.5231, 263.0641
587.0052, 260.7809
587.4873, 258.8751
587.9694, 256.8188
588.4515, 253.7454
588.9337, 251.3088
589.4158, 250.3093
589.8979, 250.7609
590.3800, 250.1692
590.8621, 248.0412
591.3442, 245.7278
591.8264, 244.3670
592.3085, 244.0898
592.7906, 242.2363
593.2727, 238.3447
593.7548, 234.2011
594.2369, 232.1066
594.7191, 231.5566
595.2012, 230.5887
595.6833, 228.4547
596.1654, 226.2203
596.6475, 225.3211
597.1296, 225.2408
597.6118, 224.7615
598.0939, 222.5504
598.5760, 220.4954
599.0581, 219.6611
599.5402, 220.0070
600.0223, 220.6912
600.5045, 222.0789
600.9866, 223.2921
601.4687, 223.9770
601.9508, 224.1147
602.4329, 223.6646
602.9150, 221.9165
603.3972, 220.5753
603.8793, 221.3999
604.3614, 224.6044
604.8435, 227.6976
605.3256, 230.3740
605.8077, 232.8166
606.2899, 235.1050
606.7720, 237.3282
607.2541, 239.7721
607.7362, 242.1334
608.2183, 245.1893
608.7004, 249.9890
609.1826, 256.2970
609.6647, 263.1205
610.1468, 269.8696
610.6289, 277.1783
611.1110, 285.3455
611.5931, 294.4986
612.0753, 304.2503
612.5574, 314.9941
613.0395, 326.0825
613.5216, 337.0532
614.0037, 347.6746
614.4858, 359.0286
614.9680, 371.0550
615.4501, 383.8906
615.9322, 397.8164
616.4143, 412.8054
616.8964, 428.1047
617.3785, 443.2313
617.8607, 459.0081
618.3428, 477.2869
618.8249, 497.6077
619.3070, 518.0539
619.7891, 536.6323
620.2712, 555.6897
620.7534, 577.4915
621.2355, 601.9667
621.7176, 627.8759
622.1997, 656.8753
622.6818, 685.3522
623.1639, 710.6001
623.6461, 731.5117
624.1282, 755.6682
624.6103, 786.7366
625.0924, 818.7748
625.5745, 848.5295
626.0566, 877.3688
626.5388, 900.7702
627.0209, 918.1111
627.5030, 930.4865
627.9851, 939.3737
628.4672, 944.6398
628.9493, 945.0547
629.4315, 940.0011
629.9136, 930.4777
630.3957, 918.4017
630.8778, 903.2870
631.3599, 883.7521
631.8420, 856.3698
632.3242, 826.5697
632.8063, 798.1632
633.2884, 771.1027
633.7705, 743.3356
634.2526, 714.3895
634.7347, 684.4285
635.2169, 652.8277
635.6990, 619.4481
636.1811, 586.7559
636.6632, 554.5637
637.1453, 523.1593
637.6274, 493.0124
638.1096, 463.8313
638.5917, 435.9676
639.0738, 408.9063
639.5559, 384.0087
640.0380, 362.5981
640.5201, 344.4334
641.0023, 329.1154
641.4844, 316.8293
641.9665, 306.3482
642.4486, 296.3268
642.9307, 286.7860
643.4128, 277.9303
643.8950, 269.5324
644.3771, 262.0316
644.8592, 255.4626
645.3413, 249.9088
645.8234, 245.4312
646.3055, 243.3266
646.7877, 241.0851
647.2698, 237.8492
647.7519, 233.5443
648.2340, 229.5812
648.7161, 225.8907
649.1982, 222.7441
649.6804, 220.6675
650.1625, 219.5088
650.6446, 217.6930
651.1267, 215.0584
651.6088, 212.4648
652.0909, 211.1252
652.5731, 210.4122
653.0552, 209.1325
653.5373, 206.7701
654.0194, 204.3782
654.5015, 202.4684
654.9836, 200.9496
655.4658, 199.6728
655.9479, 199.0910
656.4300, 198.1872
656.9121, 196.1874
657.3942, 193.7343
657.8763, 192.6968
658.3585, 193.6742
658.8406, 194.6903
659.3227, 195.3541
659.8048, 195.5386
660.2869, 194.1170
660.7690, 191.0089
661.2512, 188.3480
661.7333, 187.7935
662.2154, 188.5611
662.6975, 189.3164
663.1796, 189.9995
663.6617, 190.5543
664.1439, 191.2794
664.6260, 191.6582
665.1081, 191.1110
665.5902, 189.2677
666.0723, 187.4988
666.5544, 185.9167
667.0366, 184.7008
667.5187, 183.9782
668.0008, 183.7607
668.4829, 184.0908
668.9650, 185.1984
669.4471, 186.5894
669.9293, 187.6219
670.4114, 188.3008
670.8935, 188.2065
671.3756, 186.7939
671.8577, 185.2232
672.3398, 186.0696
672.8220, 188.5328
673.3041, 189.8757
673.7862, 187.3719
674.2683, 184.4062
674.7504, 183.2107
675.2325, 183.6574
675.7147, 184.8958
676.1968, 188.3616
676.6789, 190.9905
677.1610, 190.7796
677.6431, 187.5373
678.1252, 186.5112
678.6074, 188.8120
679.0895, 191.2724
679.5716, 191.4945
680.0537, 189.4818
680.5358, 189.2352
681.0179, 191.0194
681.5001, 193.1047
681.9822, 193.5835
682.4643, 193.1399
682.9464, 193.1637
683.4285, 193.9673
683.9106, 194.9894
684.3928, 195.3574
684.8749, 195.9102
685.3570, 197.6599
685.8391, 203.0356
686.3212, 206.9689
686.8033, 207.8247
687.2855, 207.0745
687.7676, 206.8715
688.2497, 207.1068
688.7318, 208.2687
689.2139, 210.7588
689.6960, 213.9952
690.1782, 216.4333
690.6603, 218.0908
691.1424, 219.2701
691.6245, 220.1237
692.1066, 220.5880
692.5887, 220.0446
693.0709, 218.8473
693.5530, 218.5548
694.0351, 220.9661
694.5172, 223.7854
694.9993, 225.4017
695.4814, 225.6730
695.9636, 226.6079
696.4457, 229.9244
696.9278, 232.5599
697.4099, 232.8126
697.8920, 230.1649
698.3741, 228.5973
698.8563, 228.2263
699.3384, 228.5776
699.8205, 229.7574
700.3026, 231.4160
700.7847, 231.7625
701.2668, 230.4830
701.7490, 228.8719
702.2311, 228.3882
702.7132, 228.2657
703.1953, 227.3745
703.6774, 225.0294
704.1595, 222.7301
704.6417, 221.6233
705.1238, 220.6790
705.6059, 218.3773
706.0880, 212.8429
706.5701, 209.0108
707.0522, 208.0217
707.5344, 208.4778
708.0165, 207.5401
708.4986, 205.1539
708.9807, 202.3629
709.4628, 199.5081
709.9449, 196.3885
710.4271, 192.0034
710.9092, 186.8894
711.3913, 182.8749
711.8734, 181.9232
712.3555, 181.6122
712.8376, 180.3919
713.3198, 178.3277
713.8019, 175.9555
714.2840, 172.7670
714.7661, 169.9404
715.2482, 168.1408
715.7303, 167.3134
716.2125, 165.6302
716.6946, 162.6470
717.1767, 159.9922
717.6588, 158.9818
718.1409, 159.3051
718.6230, 158.5110
719.1052, 156.5637
719.5873, 154.5175
720.0694, 153.3239
720.5515, 152.4443
721.0336, 150.9963
721.5157, 148.7771
721.9979, 147.0171
722.4800, 146.8659
722.9621, 147.0270
723.4442, 146.4123
723.9263, 144.3765
724.4084, 142.7709
724.8906, 141.8340
725.3727, 141.0247
725.8548, 139.6557
726.3369, 137.6410
726.8190, 136.3109
727.3011, 135.9771
727.7833, 135.8338
728.2654, 134.5039
728.7475, 132.5824
729.2296, 131.6242
729.7117, 132.6435
730.1938, 133.5150
730.6760, 132.5146
731.1581, 130.5041
731.6402, 128.7979
732.1223, 127.5328
732.6044, 126.8494
733.0865, 127.1045
733.5687, 127.8052
734.0508, 127.9343
734.5329, 127.4311
735.0150, 126.5395
735.4971, 125.1079
735.9792, 123.5645
736.4614, 123.0515
736.9435, 123.3824
737.4256, 123.5956
737.9077, 122.7872
738.3898, 121.9757
738.8719, 122.2630
739.3541, 123.3766
739.8362, 124.3579
740.3183, 124.4883
740.8004, 124.7987
741.2825, 126.0376
741.7646, 128.0022
742.2468, 128.7632
742.7289, 127.7187
743.2110, 126.9963
743.6931, 127.8971
744.1752, 129.9939
744.6573, 130.4314
745.1395, 129.2687
745.6216, 128.6630
746.1037, 130.9153
746.5858, 134.1490
747.0679, 135.9491
747.5500, 136.2508
748.0322, 136.5128
748.5143, 136.9424
748.9964, 137.9012
749.4785, 139.7502
749.9606, 142.7310
750.4427, 145.5217
750.9249, 148.1514
751.4070, 150.6145
751.8891, 152.8383
752.3712, 154.8444
752.8533, 156.6905
753.3354, 158.3253
753.8176, 160.4756
754.2997, 164.0121
754.7818, 168.4315
755.2639, 173.0797
755.7460, 177.8382
756.2281, 182.6740
756.7103, 187.7717
757.1924, 192.7785
757.6745, 197.2113
758.1566, 199.8269
758.6387, 204.3661
759.1208, 211.7211
759.6030, 219.9891
760.0851, 227.2147
760.5672, 233.4204
761.0493, 239.5833
761.5314, 245.7406
762.0135, 252.1735
762.4957, 259.2748
762.9778, 266.8499
763.4599, 274.5862
763.9420, 282.1573
764.4241, 290.3583
764.9063, 300.4378
765.3884, 311.0666
765.8705, 320.5994
766.3526, 327.8357
766.8347, 335.3604
767.3168, 343.4956
767.7990, 351.8629
768.2811, 360.1845
768.7632, 368.5139
769.2453, 375.9721
769.7274, 382.6917
770.2095, 387.5161
770.6917, 388.3183
771.1738, 385.9711
771.6559, 382.3961
772.1380, 378.6684
772.6201, 373.3130
773.1022, 365.1295
773.5844, 354.9209
774.0665, 344.1393
774.5486, 333.4864
775.0307, 321.4277
775.5128, 307.2314
775.9949, 291.8325
776.4771, 277.2868
776.9592, 263.4693
777.4413, 250.8711
777.9234, 239.7286
778.4055, 229.5169
778.8876, 219.0925
779.3698, 208.9319
779.8519, 200.2286
780.3340, 194.5328
780.8161, 189.4924
781.2982, 183.6023
781.7803, 177.4945
782.2625, 173.0115
782.7446, 171.5522
783.2267, 169.5475
783.7088, 166.0382
784.1909, 161.6573
784.6730, 158.0909
785.1552, 155.3198
785.6373, 153.2153
786.1194, 152.0572
786.6015, 151.1936
787.0836, 149.5394
787.5657, 147.3960
788.0479, 145.6073
788.5300, 144.4531
789.0121, 143.8945
789.4942, 144.4484
789.9763, 145.6833
790.4584, 145.9021
790.9406, 144.5293
791.4227, 143.1622
791.9048, 142.0435
792.3869, 141.3438
792.8690, 141.7152
793.3511, 143.1214
793.8333, 144.9781
794.3154, 147.5390
794.7975, 149.9581
795.2796, 150.4971
795.7617, 149.9045
796.2438, 150.5347
796.7260, 154.6723
797.2081, 158.8342
797.6902, 161.3688
798.1723, 162.7567
798.6544, 165.0181
799.1365, 168.4393
799.6187, 171.9081
800.1008, 174.8641
800.5829, 177.7384
801.0650, 181.9990
801.5471, 187.4621
802.0292, 193.1055
802.5114, 198.0166
802.9935, 203.1113
803.4756, 209.1857
803.9577, 216.1123
804.4398, 223.3565
804.9219, 230.5768
805.4041, 238.4403
805.8862, 247.6015
806.3683, 257.5532
806.8504, 265.8962
807.3325, 272.1723
807.8146, 279.2600
808.2968, 288.6316
808.7789, 299.2666
809.2610, 308.8567
809.7431, 317.6534
810.2252, 326.6828
810.7073, 335.9175
811.1895, 346.0862
811.6716, 358.9279
812.1537, 373.3763
812.6358, 385.4876
813.1179, 393.0876
813.6000, 400.5081
814.0822, 408.7713
814.5643, 417.5617
815.0464, 426.0659
815.5285, 434.2946
816.0106, 440.4047
816.4927, 443.4438
816.9749, 444.1240
817.4570, 443.2834
817.9391, 440.9605
818.4212, 437.2371
818.9033, 431.8554
819.3854, 425.4063
819.8676, 418.3911
820.3497, 410.4806
820.8318, 400.6281
821.3139, 387.6560
821.7960, 375.8227
822.2781, 366.5299
822.7603, 358.6965
823.2424, 349.4444
823.7245, 338.8121
824.2066, 327.3282
824.6887, 314.4059
825.1708, 301.5663
825.6530, 289.6384
826.1351, 278.6866
826.6172, 269.2139
827.0993, 262.0209
827.5814, 255.3137
828.0635, 248.8647
828.5457, 242.5441
829.0278, 235.7439
829.5099, 228.3197
829.9920, 221.6227
830.4741, 216.0269
830.9562, 211.2427
831.4384, 206.7316
831.9205, 202.6122
832.4026, 199.2002
832.8847, 197.2112
833.3668, 195.0231
833.8489, 191.5789
834.3311, 187.4420
834.8132, 183.5517
835.2953, 179.8099
835.7774, 176.5928
836.2595, 173.9566
836.7416, 171.8728
837.2238, 170.5109
837.7059, 169.7635
838.1880, 168.8397
838.6701, 167.5931
839.1522, 165.9968
839.6343, 163.4770
840.1165, 160.7724
840.5986, 158.9748
841.0807, 158.5583
841.5628, 158.7954
842.0449, 160.4248
842.5270, 162.0380
843.0092, 161.9471
843.4913, 159.6621
843.9734, 158.5258
844.4555, 158.9732
844.9376, 160.0789
845.4197, 160.8328
845.9019, 161.4055
846.3840, 162.2149
846.8661, 163.4030
847.3482, 164.5196
847.8303, 165.3386
848.3124, 165.9553
848.7946, 166.3204
849.2767, 165.8059
849.7588, 166.8100
850.2409, 169.7584
850.7230, 173.4201
851.2051, 176.8525
851.6873, 180.0509
852.1694, 183.2546
852.6515, 186.5000
853.1336, 189.4078
853.6157, 191.1409
854.0978, 192.7524
854.5800, 195.3023
855.0621, 198.9771
855.5442, 203.0746
856.0263, 208.2239
856.5084, 212.9118
856.9905, 216.1987
857.4727, 218.0745
857.9548, 220.3853
858.4369, 223.1674
858.9190, 226.1216
859.4011, 228.7129
859.8832, 231.5451
860.3654, 236.0052
860.8475, 241.8719
861.3296, 247.0860
861.8117, 250.6967
862.2938, 253.4846
862.7759, 255.8589
863.2581, 257.7975
863.7402, 258.8134
864.2223, 258.6922
864.7044, 258.3381
865.1865, 258.1317
865.6686, 257.9445
866.1508, 257.9677
866.6329, 257.8708
867.1150, 256.2289
867.5971, 251.1522
868.0792, 245.4125
868.5613, 240.7971
869.0435, 236.8295
869.5256, 232.0379
870.0077, 225.6427
870.4898, 219.6495
870.9719, 214.3174
871.4540, 209.6254
871.9362, 206.0550
872.4183, 203.3294
872.9004, 199.0219
873.3825, 191.6127
873.8646, 184.0085
874.3467, 179.3005
874.8289, 176.1571
875.3110, 172.6272
875.7931, 167.9541
876.2752, 163.1488
876.7573, 157.8524
877.2394, 152.8969
877.7216, 149.4221
878.2037, 147.5418
878.6858, 145.4283
879.1679, 142.8528
879.6500, 140.0660
880.1321, 137.0510
880.6143, 134.0804
881.0964, 131.6316
881.5785, 129.9185
882.0606, 128.1284
882.5427, 125.5241
883.0248, 123.1131
883.5070, 121.7497
883.9891, 121.7409
884.4712, 120.6658
884.9533, 118.3042
885.4354, 116.0441
885.9175, 115.1253
886.3997, 115.0473
886.8818, 114.9373
887.3639, 114.7316
887.8460, 114.2747
888.3281, 113.3156
888.8102, 112.2367
889.2924, 111.2916
889.7745, 110.4633
890.2566, 109.3160
890.7387, 107.6561
891.2208, 106.3155
891.7029, 105.8261
892.1851, 105.7609
892.6672, 104.7452
893.1493, 103.0511
893.6314, 101.8703
894.1135, 101.9577
894.5956, 102.5671
895.0778, 103.8596
895.5599, 105.3187
896.0420, 105.5068
896.5241, 103.4597
897.0062, 102.0993
897.4883, 102.0338
897.9705, 102.6810
898.4526, 103.0835
898.9347, 103.2803
899.4168, 103.4646
899.8989, 103.7222
900.3810, 103.8719
900.8632, 103.6327
901.3453, 103.2719
901.8274, 103.1139
902.3095, 103.5754
902.7916, 103.5005
903.2737, 102.4426
903.7559, 101.4979
904.2380, 102.0189
904.7201, 103.7650
905.2022, 104.2095
905.6843, 103.1771
906.1664, 101.9748
906.6486, 101.5244
907.1307, 101.5023
907.6128, 101.5174
908.0949, 101.5067
908.5770, 102.2549
909.0591, 104.7690
909.5413, 106.7564
910.0234, 107.0728
910.5055, 106.0462
910.9876, 105.6814
911.4697, 105.9550
911.9518, 106.4124
912.4340, 107.2555
912.9161, 107.8019
913.3982, 106.8243
913.8803, 104.9562
914.3624, 103.9690
914.8445, 105.6268
915.3267, 106.5201
915.8088, 105.6061
916.2909, 103.9552
916.7730, 103.8374
917.2551, 105.2167
917.7372, 106.5021
918.2194, 107.4163
918.7015, 107.8705
919.1836, 107.3912
919.6657, 106.5402
920.1478, 106.0932
920.6299, 106.3639
921.1121, 106.7989
921.5942, 107.8105
922.0763, 108.4319
922.5584, 107.5108
923.0405, 104.9511
923.5226, 104.0343
924.0048, 104.9330
924.4869, 106.1114
924.9690, 106.6205
925.4511, 106.5444
925.9332, 105.5887
926.4153, 103.8329
926.8975, 102.8916
927.3796, 104.5042
927.8617, 105.5205
928.3438, 104.5023
928.8259, 102.0428
929.3080, 101.5054
929.7902, 102.8461
930.2723, 103.8107
930.7544, 103.2413
931.2365, 101.9860
931.7186, 100.5817
932.2007, 99.29624
932.6829, 98.68079
933.1650, 99.65227
933.6471, 100.3162
934.1292, 100.5129
934.6113, 100.2217
935.0934, 99.11241
935.5756, 97.19341
936.0577, 96.32464
936.5398, 96.90998
937.0219, 97.61771
937.5040, 96.75691
937.9861, 95.48321
938.4683, 95.35101
938.9504, 96.96502
939.4325, 97.75945
939.9146, 96.67860
940.3967, 95.52346
940.8788, 95.29486
941.3610, 95.90254
941.8431, 96.24213
942.3252, 96.31096
942.8073, 95.96068
943.2894, 94.53853
943.7715, 93.11866
944.2537, 92.94772
944.7358, 93.66929
945.2179, 93.89935
945.7000, 92.87775
946.1821, 91.95928
946.6642, 91.33072
947.1464, 90.95469
947.6285, 90.79379
948.1106, 90.82897
948.5927, 90.94931
949.0748, 91.16859
949.5569, 91.32854
950.0391, 91.28447
950.5212, 91.10410
951.0033, 90.85841
951.4854, 90.52110
951.9675, 90.20605
952.4496, 89.93541
952.9318, 89.64989
953.4139, 89.08541
953.8960, 88.40788
954.3781, 88.99584
954.8602, 90.75309
955.3423, 91.89825
955.8245, 90.41964
956.3066, 88.61800
956.7887, 88.12670
957.2708, 88.87688
957.7529, 89.64948
958.2350, 90.69604
958.7172, 90.95702
959.1993, 89.78277
959.6814, 88.14161
960.1635, 88.54713
960.6456, 90.30396
961.1277, 91.09816
961.6099, 89.63028
962.0920, 88.14706
962.5741, 87.77962
963.0562, 88.16005
963.5383, 88.93565
964.0204, 90.40184
964.5026, 91.30986
964.9847, 91.57512
965.4668, 91.53122
965.9489, 91.48286
966.4310, 91.34413
966.9131, 90.73045
967.3953, 89.69250
967.8774, 89.08745
968.3595, 89.80272
968.8416, 90.61092
969.3237, 91.03159
969.8058, 91.05916
970.2880, 90.46501
970.7701, 89.11104
971.2522, 88.32785
971.7343, 88.82522
972.2164, 89.65285
972.6985, 89.32803
973.1807, 88.34421
973.6628, 87.65538
974.1449, 87.59389
974.6270, 87.77092
975.1091, 88.23115
975.5912, 88.78510
976.0734, 89.39369
976.5555, 90.07100
977.0376, 89.90322
977.5197, 88.80237
978.0018, 87.80765
978.4839, 87.90491
978.9661, 88.42877
979.4482, 88.78163
979.9303, 88.92180
980.4124, 88.95048
980.8945, 89.02099
981.3766, 88.74173
981.8588, 87.82132
982.3409, 86.60519
982.8230, 86.05901
983.3051, 86.10993
983.7872, 86.44362
984.2693, 87.24106
984.7515, 87.71223
985.2336, 86.78981
985.7157, 85.43889
986.1978, 84.98698
986.6799, 86.07529
987.1620, 86.78127
987.6442, 87.13520
988.1263, 87.01274
988.6084, 85.97885
989.0905, 84.45594
989.5726, 83.42741
990.0547, 82.93710
990.5369, 82.89076
991.0190, 83.83685
991.5011, 84.60942
991.9832, 84.55663
992.4653, 83.88673
992.9474, 83.28796
993.4296, 82.78901
993.9117, 82.09629
994.3938, 80.99971
994.8759, 79.94969
995.3580, 79.64180
995.8401, 79.76900
996.3223, 79.82168
996.8044, 79.59992
997.2865, 79.47047
997.7686, 79.66055
998.2507, 79.74864
998.7328, 79.39529
999.2150, 78.61871
999.6971, 77.61674
1000.179, 76.42642
1000.661, 75.54225
1001.143, 75.49178
1001.626, 75.73036
1002.108, 75.82899
1002.590, 75.83449
1003.072, 76.09447
1003.554, 76.82542
1004.036, 77.29541
1004.518, 77.29121
1005.000, 77.07203
1005.482, 77.15963
1005.965, 77.38219
1006.447, 77.22684
1006.929, 76.46580
1007.411, 75.76757
1007.893, 75.77042
1008.375, 75.68307
1008.857, 74.70565
1009.339, 72.67161
1009.822, 72.23735
1010.304, 73.53812
1010.786, 74.94130
1011.268, 75.45450
1011.750, 75.44113
1012.232, 75.06255
1012.714, 74.52961
1013.196, 74.43538
1013.678, 75.80226
1014.161, 76.40040
1014.643, 75.50174
1015.125, 74.19885
1015.607, 74.39709
1016.089, 75.75276
1016.571, 75.94771
1017.053, 74.54240
1017.535, 73.14460
1018.018, 73.01332
1018.500, 73.36000
1018.982, 73.67710
1019.464, 73.92541
1019.946, 73.76563
1020.428, 73.00723
1020.910, 72.55193
1021.392, 72.84962
1021.874, 73.61790
1022.357, 74.64442
1022.839, 75.67356
1023.321, 76.07421
1023.803, 74.89053
1024.285, 74.10448
1024.767, 74.60486
1025.249, 75.35447
1025.731, 75.32779
1026.214, 74.51631
1026.696, 73.76680
1027.178, 73.10503
1027.660, 72.89163
1028.142, 73.84871
1028.624, 75.02042
1029.106, 75.64867
1029.588, 75.70525
1030.070, 75.38919
1030.553, 74.44221
1031.035, 73.79015
1031.517, 73.61341
1031.999, 73.91354
1032.481, 75.14951
1032.963, 76.81917
1033.445, 77.56902
1033.927, 76.85885
1034.410, 76.02194
1034.892, 75.43957
1035.374, 75.13887
1035.856, 75.24203
1036.338, 75.76800
1036.820, 75.62845
1037.302, 74.80751
1037.784, 74.26233
1038.266, 74.86436
1038.749, 75.78681
1039.231, 76.12981
1039.713, 76.14407
1040.195, 76.45103
1040.677, 77.67188
1041.159, 78.20816
1041.641, 77.68154
1042.123, 76.93111
1042.605, 76.98534
1043.088, 77.64421
1043.570, 78.63799
1044.052, 79.93296
1044.534, 80.29774
1045.016, 78.08910
1045.498, 75.74916
1045.980, 74.40909
1046.462, 73.99703
1046.945, 74.56170
1047.427, 76.17277
1047.909, 76.71034
1048.391, 75.00569
1048.873, 73.06633
1049.355, 73.12817
1049.837, 74.23927
1050.319, 75.12599
1050.802, 75.42864
1051.284, 75.79426
1051.766, 76.37978
1052.248, 76.68943
1052.730, 76.08991
1053.212, 74.97426
1053.694, 74.52934
1054.176, 74.70042
1054.658, 75.21238
1055.141, 76.58431
1055.623, 77.49878
1056.105, 77.11263
1056.587, 76.21153
1057.069, 76.04643
1057.551, 76.65211
1058.033, 76.60215
1058.515, 75.63017
1058.997, 74.80377
1059.480, 75.20479
1059.962, 76.11564
1060.444, 77.19381
1060.926, 78.35094
1061.408, 78.09521
1061.890, 75.61960
1062.372, 73.87301
1062.854, 74.02547
1063.337, 75.21274
1063.819, 76.06596
1064.301, 76.63094
1064.783, 76.95728
1065.265, 76.90081
1065.747, 77.00367
1066.229, 77.70358
1066.711, 78.35332
1067.193, 78.51182
1067.676, 78.20345
1068.158, 77.89449
1068.640, 77.58887
1069.122, 77.36406
1069.604, 77.21242
1070.086, 77.20852
1070.568, 77.39362
1071.050, 77.77121
1071.532, 78.35210
1072.015, 79.24071
1072.497, 80.00680
1072.979, 80.65547
1073.461, 81.00369
1073.943, 80.78751
1074.425, 80.19313
1074.907, 79.29014
1075.389, 78.13278
1075.872, 77.44826
1076.354, 78.03114
1076.836, 78.18008
1077.318, 77.14949
1077.800, 75.70680
1078.282, 75.66518
1078.764, 76.71886
1079.246, 77.83776
1079.729, 78.92937
1080.211, 79.43623
1080.693, 78.26992
1081.175, 77.06355
1081.657, 77.23805
1082.139, 78.79197
1082.621, 79.18202
1083.103, 78.39081
1083.585, 77.62401
1084.068, 77.43542
1084.550, 77.67503
1085.032, 78.36427
1085.514, 79.33398
1085.996, 80.31676
1086.478, 81.76442
1086.960, 82.00882
1087.442, 80.69295
1087.924, 79.13390
1088.406, 78.39617
1088.889, 78.34703
1089.371, 78.82718
1089.853, 79.78433
1090.335, 80.96683
1090.817, 83.38709
1091.299, 84.44238
1091.781, 82.90961
1092.263, 80.40345
1092.746, 80.10341
1093.228, 81.53484
1093.710, 82.47096
1094.192, 82.51447
1094.674, 82.19173
1095.156, 81.22974
1095.638, 80.57477
1096.120, 81.18337
1096.603, 82.77113
1097.085, 83.15706
1097.567, 82.28839
1098.049, 81.59493
1098.531, 81.75694
1099.013, 81.96201
1099.495, 81.14148
1099.977, 79.95243
1100.459, 79.19490
1100.942, 78.94521
1101.424, 79.45527
1101.906, 81.02081
1102.388, 82.39050
1102.870, 82.62513
1103.352, 82.19621
1103.834, 81.89720
1104.316, 81.70942
1104.798, 81.58836
1105.281, 81.35109
1105.763, 81.45267
1106.245, 82.07281
1106.727, 82.84480
1107.209, 83.59892
1107.691, 84.16716
1108.173, 83.36018
1108.655, 81.25336
1109.138, 79.85796
1109.620, 81.09348
1110.102, 82.43484
1110.584, 82.37984
1111.066, 81.75980
1111.548, 82.73940
1112.030, 85.27279
1112.512, 86.41013
1112.995, 85.50809
1113.477, 83.98770
1113.959, 82.54632
1114.441, 81.44154
1114.923, 80.97597
1115.405, 81.14259
1115.887, 81.51482
1116.369, 82.18741
1116.851, 82.50512
1117.333, 82.10104
1117.816, 81.52181
1118.298, 81.63055
1118.780, 81.98088
1119.262, 81.85608
1119.744, 80.78035
1120.226, 80.29726
1120.708, 80.64417
1121.190, 81.12517
1121.673, 81.45953
1122.155, 81.56303
1122.637, 80.95054
1123.119, 79.94600
1123.601, 79.44376
1124.083, 80.50616
1124.565, 81.08556
1125.047, 80.74931
1125.530, 80.02144
1126.012, 79.23999
1126.494, 78.46434
1126.976, 78.10993
1127.458, 78.13910
1127.940, 78.13233
1128.422, 77.54346
1128.904, 77.22380
1129.386, 77.98483
1129.869, 78.98982
1130.351, 78.78431
1130.833, 77.39436
1131.315, 76.28704
1131.797, 75.61389
1132.279, 75.50002
1132.761, 76.64371
1133.243, 77.84714
1133.725, 78.19626
1134.208, 77.79121
1134.690, 77.31346
1135.172, 76.76553
1135.654, 76.03660
1136.136, 74.98640
1136.618, 74.15345
1137.100, 74.51038
1137.582, 75.16970
1138.065, 75.02317
1138.547, 73.76521
1139.029, 73.21801
1139.511, 73.53535
1139.993, 74.13255
1140.475, 74.91956
1140.957, 75.63352
1141.439, 75.78288
1141.922, 75.58997
1142.404, 75.39998
1142.886, 75.15598
1143.368, 75.39402
1143.850, 76.43005
1144.332, 77.29707
1144.814, 77.30205
1145.296, 76.74819
1145.778, 76.24355
1146.260, 75.84973
1146.743, 75.73277
1147.225, 76.32384
1147.707, 76.68924
1148.189, 76.69193
1148.671, 76.45235
1149.153, 76.08929
1149.635, 75.58043
1150.117, 74.55968
1150.600, 73.15578
1151.082, 72.27791
1151.564, 72.88908
1152.046, 73.50566
1152.528, 73.61958
1153.010, 73.43922
1153.492, 73.16109
1153.974, 72.80582
1154.457, 72.62532
1154.939, 72.64182
1155.421, 72.66782
1155.903, 72.35771
1156.385, 72.23778
1156.867, 72.76607
1157.349, 73.68020
1157.831, 74.53197
1158.313, 75.32790
1158.796, 75.49351
1159.278, 74.83520
1159.760, 74.38063
1160.242, 75.80208
1160.724, 77.13134
1161.206, 76.18235
1161.688, 73.38910
1162.170, 72.53365
1162.652, 73.80888
1163.135, 74.90736
1163.617, 75.14944
1164.099, 75.13136
1164.581, 75.60731
1165.063, 76.07963
1165.545, 75.81020
1166.027, 76.08565
1166.509, 76.43118
1166.992, 75.82875
1167.474, 76.67476
1167.956, 76.17743
1168.438, 75.12904
1168.920, 74.17311
1169.402, 73.50235
1169.884, 73.45648
1170.366, 74.40868
1170.849, 74.97843
1171.331, 75.09038
1171.813, 75.09244
1172.295, 75.23862
1172.777, 75.34239
1173.259, 75.09135
1173.741, 74.56964
1174.223, 73.94065
1174.705, 72.97829
1175.188, 72.41460
1175.670, 72.35011
1176.152, 72.42635
1176.634, 72.49054
1177.116, 72.44806
1177.598, 71.90916
1178.080, 71.09439
1178.562, 70.66676
1179.044, 71.26302
1179.527, 71.60753
1180.009, 71.51493
1180.491, 71.33543
1180.973, 71.41618
1181.455, 71.66197
1181.937, 71.92738
1182.419, 72.16866
1182.901, 72.22079
1183.384, 71.96602
1183.866, 71.54845
1184.348, 70.88755
1184.830, 70.26366
1185.312, 70.01389
1185.794, 70.08360
1186.276, 70.54671
1186.758, 71.32498
1187.240, 71.56249
1187.723, 69.89105
1188.205, 69.03979
1188.687, 70.01563
1189.169, 71.61259
1189.651, 71.80651
1190.133, 70.97506
1190.615, 70.13286
1191.097, 69.41203
1191.579, 69.10795
1192.062, 70.02441
1192.544, 70.49738
1193.026, 69.76029
1193.508, 68.49953
1193.990, 68.38441
1194.472, 69.04369
1194.954, 69.06813
1195.436, 68.11360
1195.919, 67.37865
1196.401, 67.51026
1196.883, 67.88548
1197.365, 68.29650
1197.847, 68.72377
1198.329, 69.31799
1198.811, 69.89794
1199.293, 69.57219
1199.776, 67.80347
1200.258, 66.61464
1200.740, 67.61647
1201.222, 68.72475
1201.704, 68.78784
1202.186, 69.50767
1202.668, 68.56334
1203.150, 69.62556
1203.632, 69.97939
1204.115, 68.92579
1204.597, 67.87829
1205.079, 67.37764
1205.561, 67.21447
1206.043, 67.33410
1206.525, 67.68616
1207.007, 68.13034
1207.489, 68.59483
1207.971, 68.73531
1208.454, 68.15105
1208.936, 67.75660
1209.418, 68.36796
1209.900, 68.88048
1210.382, 68.32411
1210.864, 66.98473
1211.346, 67.19353
1211.828, 68.58978
1212.311, 69.38429
1212.793, 68.16904
1213.275, 67.15681
1213.757, 67.40736
1214.239, 67.93178
1214.721, 68.10332
1215.203, 67.92657
1215.685, 67.20203
1216.167, 66.07563
1216.650, 65.30791
1217.132, 65.55093
1217.614, 65.86305
1218.096, 66.04758
1218.578, 66.08258
1219.060, 65.86008
1219.542, 65.44183
1220.024, 65.15958
1220.506, 65.05324
1220.989, 65.29565
1221.471, 66.68522
1221.953, 67.46550
1222.435, 66.77952
1222.917, 65.73851
1223.399, 65.56314
1223.881, 66.03490
1224.363, 66.06682
1224.846, 65.67578
1225.328, 65.20296
1225.810, 64.33162
1226.292, 64.11317
1226.774, 65.07858
1227.256, 66.33702
1227.738, 66.87089
1228.220, 66.81129
1228.703, 66.54581
1229.185, 66.13490
1229.667, 65.81251
1230.149, 65.46800
1230.631, 65.58763
1231.113, 66.49160
1231.595, 67.52737
1232.077, 67.81363
1232.559, 67.57244
1233.042, 67.46236
1233.524, 67.48230
1234.006, 67.23012
1234.488, 65.99373
1234.970, 65.26385
1235.452, 65.40401
1235.934, 65.99828
1236.416, 66.66466
1236.898, 67.30376
1237.381, 67.64037
1237.863, 67.67990
1238.345, 67.71737
1238.827, 67.69318
1239.309, 68.01213
1239.791, 68.99722
1240.273, 69.80481
1240.755, 68.84679
1241.238, 67.10664
1241.720, 66.48844
1242.202, 67.07322
1242.684, 67.61401
1243.166, 67.90556
1243.648, 68.04461
1244.130, 68.03286
1244.612, 67.91780
1245.094, 67.67723
1245.577, 67.41725
1246.059, 67.24873
1246.541, 67.19318
1247.023, 67.47294
1247.505, 68.34897
1247.987, 68.78961
1248.469, 68.51876
1248.951, 67.96248
1249.433, 67.36889
1249.916, 66.98836
1250.398, 67.24796
1250.880, 68.13773
1251.362, 68.83265
1251.844, 69.30965
1252.326, 69.49648
1252.808, 69.27713
1253.290, 69.18642
1253.773, 70.24685
1254.255, 71.39271
1254.737, 71.30141
1255.219, 70.09563
1255.701, 69.90843
1256.183, 70.90224
1256.665, 71.48551
1257.147, 71.26839
1257.630, 70.72859
1258.112, 69.96661
1258.594, 69.35517
1259.076, 69.39826
1259.558, 69.89090
1260.040, 69.97316
1260.522, 69.64766
1261.004, 69.07915
1261.486, 68.24654
1261.969, 67.57125
1262.451, 67.45614
1262.933, 67.52703
1263.415, 67.41151
1263.897, 67.30739
1264.379, 68.15065
1264.861, 69.76160
1265.343, 70.66736
1265.825, 70.43718
1266.308, 70.37836
1266.790, 72.14034
1267.272, 73.18493
1267.754, 71.97017
1268.236, 69.53658
1268.718, 68.52177
1269.200, 68.64366
1269.682, 68.96583
1270.165, 69.32912
1270.647, 69.65531
1271.129, 69.99162
1271.611, 70.17283
1272.093, 70.14503
1272.575, 69.93602
1273.057, 69.34084
1273.539, 68.67378
1274.021, 68.81017
1274.504, 69.99498
1274.986, 70.63956
1275.468, 70.01085
1275.950, 69.87222
1276.432, 70.99203
1276.914, 72.32142
1277.396, 71.91655
1277.878, 70.80144
1278.360, 70.63463
1278.843, 71.69333
1279.325, 72.34064
1279.807, 72.48845
1280.289, 72.15923
1280.771, 71.19807
1281.253, 70.27907
1281.735, 70.35103
1282.217, 70.80004
1282.700, 71.03912
1283.182, 70.99768
1283.664, 70.47616
1284.146, 69.38890
1284.628, 68.87431
1285.110, 69.30641
1285.592, 69.89967
1286.074, 69.82112
1286.557, 69.74294
1287.039, 70.36047
1287.521, 71.41444
1288.003, 71.95293
1288.485, 71.99981
1288.967, 71.79833
1289.449, 71.37511
1289.931, 70.94161
1290.413, 70.45226
1290.896, 70.22550
1291.378, 70.56281
1291.860, 71.11330
1292.342, 69.71859
1292.824, 67.78487
1293.306, 72.00451
1293.788, 84.17897
1294.270, 91.11537
1294.752, 82.17113
1295.235, 74.07503
1295.717, 71.27638
1296.199, 71.41382
1296.681, 71.09662
1297.163, 70.57970
1297.645, 70.30568
1298.127, 70.33279
1298.609, 70.58836
1299.092, 71.26679
1299.574, 71.47491
1300.056, 70.85447
1300.538, 70.23302
1301.020, 70.87425
1301.502, 71.90111
1301.984, 72.34325
1302.466, 72.12753
1302.948, 71.67989
1303.431, 70.95390
1303.913, 70.37482
1304.395, 70.01920
1304.877, 69.84812
##END=



