##NAMES=Clinoptilolite-Ca
##RRUFFID=R060662
##IDEAL CHEMISTRY=Ca_3_(Si_30_Al_6_)O_72_&#183;20H_2_O
##LOCALITY=Succor Creek, Malheur County, Oregon, USA
##OWNER=RRUFF
##SOURCE=Michael Scott
##DESCRIPTION=Group of colorless platy prismatic crystals
##STATUS=The identification of this mineral has been confirmed by X-ray diffraction and chemical analysis
##URL=rruff.info/R060662
##MEASURED CHEMISTRY=(Ca_1.02_Na_0.97_K_0.59_)_Σ=2.58_(Si_14.40_Al_3.60_)_Σ=18_O_36_·10.96H_2_O
112.368, 1723.652
112.850, 2001.730
113.332, 2387.258
113.814, 2884.536
114.296, 3462.899
114.778, 4106.918
115.260, 4845.311
115.743, 5542.214
116.225, 6285.500
116.707, 6920.199
117.189, 7339.887
117.671, 7515.903
118.153, 7474.262
118.635, 7235.205
119.117, 6704.252
119.600, 6160.548
120.082, 5589.621
120.564, 5054.038
121.046, 4602.173
121.528, 4253.842
122.010, 4006.803
122.492, 3852.071
122.974, 3783.560
123.456, 3840.454
123.939, 4020.709
124.421, 4317.942
124.903, 4723.964
125.385, 5230.036
125.867, 5845.172
126.349, 6603.496
126.831, 7571.499
127.313, 8630.460
127.796, 9762.970
128.278, 10975.140
128.760, 12277.270
129.242, 13659.410
129.724, 15138.050
130.206, 16863.330
130.688, 19023.051
131.170, 21215.439
131.652, 23533.359
132.135, 25821.051
132.617, 27784.820
133.099, 29270.070
133.581, 30264.070
134.063, 30188.859
134.545, 28710.660
135.027, 26718.109
135.509, 24356.330
135.992, 21769.881
136.474, 19310.670
136.956, 17250.820
137.438, 15641.490
137.920, 14368.750
138.402, 13562.830
138.884, 12959.990
139.366, 12444.370
139.848, 11994.900
140.331, 11541.460
140.813, 10976.340
141.295, 10289.310
141.777, 9909.979
142.259, 9965.980
142.741, 10264.860
143.223, 10676.690
143.705, 11186.070
144.188, 11745.340
144.670, 12309.140
145.152, 12878.490
145.634, 13510.930
146.116, 14259.250
146.598, 15055.350
147.080, 15858.390
147.562, 16685.711
148.044, 17409.859
148.527, 17888.631
149.009, 18152.750
149.491, 18232.850
149.973, 18129.051
150.455, 17849.301
150.937, 17392.260
151.419, 16735.471
151.901, 15957.540
152.383, 15074.070
152.866, 14106.130
153.348, 13193.000
153.830, 12377.140
154.312, 11657.930
154.794, 11032.120
155.276, 10509.110
155.758, 10073.380
156.240, 9714.975
156.723, 9427.109
157.205, 9184.586
157.687, 8973.050
158.169, 8797.573
158.651, 8671.484
159.133, 8587.271
159.615, 8576.539
160.097, 8666.197
160.579, 8847.944
161.062, 9060.225
161.544, 9285.151
162.026, 9515.626
162.508, 9718.028
162.990, 9893.188
163.472, 10026.070
163.954, 10125.170
164.436, 10186.930
164.919, 10185.520
165.401, 10093.310
165.883, 9914.349
166.365, 9693.672
166.847, 9409.565
167.329, 9110.613
167.811, 8819.594
168.293, 8540.830
168.775, 8289.264
169.258, 8086.209
169.740, 7931.158
170.222, 7780.287
170.704, 7633.289
171.186, 7485.924
171.668, 7330.030
172.150, 7167.828
172.632, 7014.613
173.115, 6886.981
173.597, 6785.919
174.079, 6685.163
174.561, 6569.484
175.043, 6464.057
175.525, 6394.205
176.007, 6355.494
176.489, 6310.954
176.971, 6218.521
177.454, 6072.462
177.936, 5940.974
178.418, 5848.041
178.900, 5757.688
179.382, 5652.927
179.864, 5532.634
180.346, 5405.374
180.828, 5276.868
181.311, 5146.436
181.793, 5021.326
182.275, 4901.373
182.757, 4788.411
183.239, 4684.684
183.721, 4589.866
184.203, 4502.436
184.685, 4419.995
185.167, 4342.200
185.650, 4272.399
186.132, 4218.681
186.614, 4167.594
187.096, 4108.770
187.578, 4044.254
188.060, 3987.910
188.542, 3959.543
189.024, 3967.227
189.507, 3955.083
189.989, 3893.554
190.471, 3834.087
190.953, 3799.752
191.435, 3789.973
191.917, 3788.719
192.399, 3778.353
192.881, 3755.280
193.363, 3746.409
193.846, 3764.953
194.328, 3787.735
194.810, 3806.244
195.292, 3820.450
195.774, 3834.649
196.256, 3851.228
196.738, 3869.386
197.220, 3897.081
197.702, 3941.448
198.185, 3990.171
198.667, 4044.558
199.149, 4101.227
199.631, 4150.459
200.113, 4180.589
200.595, 4189.136
201.077, 4207.930
201.559, 4255.257
202.042, 4297.575
202.524, 4325.567
203.006, 4338.814
203.488, 4340.011
203.970, 4332.558
204.452, 4316.737
204.934, 4282.258
205.416, 4208.169
205.898, 4133.531
206.380, 4076.681
206.863, 4030.018
207.345, 3973.829
207.827, 3889.619
208.309, 3778.402
208.791, 3678.082
209.273, 3590.124
209.755, 3513.199
210.238, 3451.738
210.720, 3401.333
211.202, 3353.822
211.684, 3303.228
212.166, 3250.526
212.648, 3205.467
213.130, 3177.448
213.612, 3146.901
214.094, 3102.708
214.577, 3053.154
215.059, 3012.130
215.541, 2990.410
216.023, 2983.823
216.505, 2969.735
216.987, 2940.787
217.469, 2914.200
217.951, 2896.036
218.434, 2882.542
218.916, 2868.558
219.398, 2851.610
219.880, 2831.859
220.362, 2809.487
220.844, 2782.194
221.326, 2755.774
221.808, 2726.798
222.290, 2700.888
222.773, 2685.615
223.255, 2685.026
223.737, 2694.438
224.219, 2703.039
224.701, 2712.566
225.183, 2717.435
225.665, 2712.691
226.147, 2705.069
226.629, 2700.056
227.112, 2699.437
227.594, 2704.161
228.076, 2716.590
228.558, 2738.414
229.040, 2763.606
229.522, 2795.435
230.004, 2827.205
230.486, 2852.758
230.969, 2870.263
231.451, 2884.126
231.933, 2900.348
232.415, 2919.419
232.897, 2938.781
233.379, 2954.124
233.861, 2972.016
234.343, 2998.992
234.825, 3035.943
235.307, 3074.090
235.790, 3102.842
236.272, 3120.873
236.754, 3142.072
237.236, 3173.357
237.718, 3204.854
238.200, 3229.337
238.682, 3246.860
239.165, 3265.313
239.647, 3297.069
240.129, 3341.446
240.611, 3367.029
241.093, 3359.379
241.575, 3343.177
242.057, 3335.042
242.539, 3333.453
243.021, 3328.574
243.503, 3311.333
243.986, 3284.261
244.468, 3261.114
244.950, 3244.439
245.432, 3229.190
245.914, 3214.366
246.396, 3198.800
246.878, 3178.707
247.361, 3150.004
247.843, 3115.555
248.325, 3081.167
248.807, 3044.322
249.289, 3013.934
249.771, 2998.725
250.253, 2993.213
250.735, 2988.270
251.217, 2984.975
251.699, 2978.156
252.182, 2955.205
252.664, 2912.063
253.146, 2876.024
253.628, 2869.332
254.110, 2878.502
254.592, 2882.311
255.074, 2874.230
255.556, 2862.778
256.039, 2855.594
256.521, 2852.630
257.003, 2851.708
257.485, 2851.025
257.967, 2852.657
258.449, 2860.494
258.931, 2878.948
259.413, 2895.190
259.896, 2895.338
260.378, 2884.441
260.860, 2885.792
261.342, 2912.074
261.824, 2949.160
262.306, 2973.557
262.788, 2983.851
263.270, 2989.650
263.752, 2994.147
264.234, 2996.885
264.717, 2995.159
265.199, 2986.634
265.681, 2979.133
266.163, 2985.272
266.645, 3006.136
267.127, 3027.458
267.609, 3049.932
268.091, 3069.938
268.574, 3083.297
269.056, 3089.302
269.538, 3089.426
270.020, 3083.531
270.502, 3070.026
270.984, 3062.414
271.466, 3066.752
271.948, 3072.510
272.431, 3072.879
272.913, 3067.474
273.395, 3058.466
273.877, 3047.125
274.359, 3033.465
274.841, 3019.103
275.323, 2993.404
275.805, 2989.440
276.287, 2980.199
276.770, 2965.964
277.252, 2931.786
277.734, 2923.364
278.216, 2904.619
278.698, 2885.453
279.180, 2880.654
279.662, 2849.375
280.144, 2842.939
280.626, 2804.251
281.109, 2773.364
281.591, 2733.040
282.073, 2689.442
282.555, 2657.110
283.037, 2651.408
283.519, 2632.794
284.001, 2587.516
284.483, 2538.408
284.966, 2504.824
285.448, 2490.170
285.930, 2482.448
286.412, 2467.300
286.894, 2444.698
287.376, 2414.001
287.858, 2361.754
288.340, 2313.582
288.823, 2282.681
289.305, 2268.231
289.787, 2262.153
290.269, 2259.846
290.751, 2261.197
291.233, 2254.965
291.715, 2229.110
292.197, 2209.667
292.679, 2207.660
293.161, 2217.617
293.644, 2229.062
294.126, 2235.091
294.608, 2239.598
295.090, 2255.336
295.572, 2288.192
296.054, 2319.299
296.536, 2319.687
297.018, 2324.108
297.501, 2339.615
297.983, 2381.107
298.465, 2416.292
298.947, 2445.507
299.429, 2450.875
299.911, 2487.043
300.393, 2510.865
300.875, 2534.179
301.358, 2574.677
301.840, 2594.966
302.322, 2622.267
302.804, 2656.697
303.286, 2694.898
303.768, 2722.363
304.250, 2733.303
304.732, 2738.967
305.214, 2751.274
305.697, 2769.226
306.179, 2784.964
306.661, 2794.688
307.143, 2801.503
307.625, 2811.484
308.107, 2825.528
308.589, 2834.667
309.071, 2830.395
309.553, 2813.851
310.036, 2799.502
310.518, 2789.089
311.000, 2779.702
311.482, 2771.042
311.964, 2762.231
312.446, 2750.609
312.928, 2734.997
313.410, 2715.401
313.892, 2691.253
314.375, 2649.708
314.857, 2620.552
315.339, 2622.798
315.821, 2636.666
316.303, 2634.094
316.785, 2606.054
317.267, 2566.620
317.750, 2538.403
318.232, 2530.464
318.714, 2515.147
319.196, 2482.829
319.678, 2451.076
320.160, 2434.947
320.642, 2433.289
321.124, 2431.210
321.606, 2413.499
322.089, 2378.387
322.571, 2350.056
323.053, 2329.765
323.535, 2315.046
324.017, 2306.920
324.499, 2303.827
324.981, 2303.975
325.463, 2306.969
325.945, 2311.124
326.428, 2310.379
326.910, 2301.351
327.392, 2293.853
327.874, 2288.367
328.356, 2286.087
328.838, 2289.797
329.320, 2300.450
329.802, 2311.872
330.284, 2315.319
330.767, 2310.101
331.249, 2306.324
331.731, 2310.872
332.213, 2339.760
332.695, 2362.737
333.177, 2380.124
333.659, 2375.173
334.141, 2399.066
334.624, 2411.404
335.106, 2423.264
335.588, 2451.217
336.070, 2449.515
336.552, 2475.635
337.034, 2512.450
337.516, 2545.925
337.998, 2557.015
338.480, 2566.014
338.963, 2594.230
339.445, 2637.943
339.927, 2673.528
340.409, 2687.611
340.891, 2687.575
341.373, 2694.180
341.855, 2709.095
342.337, 2726.139
342.819, 2746.654
343.302, 2767.325
343.784, 2782.101
344.266, 2789.521
344.748, 2795.576
345.230, 2809.616
345.712, 2838.202
346.194, 2852.587
346.677, 2836.549
347.159, 2821.224
347.641, 2830.567
348.123, 2859.088
348.605, 2882.245
349.087, 2880.002
349.569, 2855.148
350.051, 2841.392
350.533, 2845.088
351.016, 2853.560
351.498, 2873.218
351.980, 2893.151
352.462, 2897.540
352.944, 2879.700
353.426, 2854.146
353.908, 2848.227
354.390, 2868.921
354.872, 2883.036
355.355, 2879.026
355.837, 2871.124
356.319, 2866.362
356.801, 2865.390
357.283, 2866.172
357.765, 2867.908
358.247, 2870.295
358.729, 2872.507
359.211, 2875.541
359.694, 2876.038
360.176, 2867.138
360.658, 2854.175
361.140, 2848.749
361.622, 2860.291
362.104, 2874.924
362.586, 2877.971
363.069, 2870.912
363.551, 2864.783
364.033, 2862.712
364.515, 2866.364
364.997, 2880.271
365.479, 2906.963
365.961, 2935.469
366.443, 2963.136
366.925, 2990.720
367.408, 3019.091
367.890, 3048.413
368.372, 3077.991
368.854, 3106.555
369.336, 3133.528
369.818, 3162.601
370.300, 3191.777
370.782, 3224.402
371.264, 3268.312
371.747, 3316.776
372.229, 3353.088
372.711, 3365.531
373.193, 3364.043
373.675, 3386.448
374.157, 3451.292
374.639, 3510.767
375.121, 3556.831
375.603, 3596.635
376.086, 3636.025
376.568, 3676.312
377.050, 3716.027
377.532, 3753.093
378.014, 3787.516
378.496, 3821.147
378.978, 3850.313
379.460, 3883.866
379.943, 3931.456
380.425, 3987.464
380.907, 4035.739
381.389, 4068.924
381.871, 4091.138
382.353, 4104.509
382.835, 4108.387
383.317, 4119.582
383.799, 4148.135
384.282, 4188.205
384.764, 4225.181
385.246, 4255.736
385.728, 4291.020
386.210, 4336.547
386.692, 4389.645
387.174, 4447.872
387.656, 4510.876
388.138, 4571.504
388.621, 4618.572
389.103, 4645.652
389.585, 4697.610
390.067, 4796.068
390.549, 4896.935
391.031, 4976.957
391.513, 5041.232
391.996, 5104.561
392.478, 5174.691
392.960, 5252.410
393.442, 5340.495
393.924, 5449.430
394.406, 5551.216
394.888, 5637.888
395.370, 5719.559
395.852, 5804.234
396.335, 5893.155
396.817, 5982.776
397.299, 6069.002
397.781, 6151.888
398.263, 6237.147
398.745, 6330.117
399.227, 6417.489
399.709, 6493.875
400.191, 6560.198
400.674, 6618.001
401.156, 6664.415
401.638, 6705.803
402.120, 6752.316
402.602, 6802.781
403.084, 6841.939
403.566, 6862.687
404.048, 6870.222
404.530, 6873.695
405.013, 6874.851
405.495, 6867.570
405.977, 6845.909
406.459, 6817.553
406.941, 6792.708
407.423, 6771.753
407.905, 6745.679
408.387, 6706.755
408.870, 6655.079
409.352, 6598.645
409.834, 6550.136
410.316, 6482.893
410.798, 6370.636
411.280, 6242.610
411.762, 6139.982
412.244, 6078.196
412.727, 6035.778
413.209, 5978.451
413.691, 5903.683
414.173, 5822.188
414.655, 5729.089
415.137, 5633.361
415.619, 5537.415
416.101, 5441.899
416.583, 5345.806
417.065, 5248.874
417.548, 5151.261
418.030, 5051.451
418.512, 4946.949
418.994, 4851.821
419.476, 4784.065
419.958, 4723.118
420.440, 4632.021
420.922, 4496.654
421.405, 4367.370
421.887, 4273.491
422.369, 4199.647
422.851, 4122.289
423.333, 4037.275
423.815, 3943.903
424.297, 3838.318
424.779, 3718.530
425.262, 3620.956
425.744, 3560.495
426.226, 3503.537
426.708, 3436.307
427.190, 3363.610
427.672, 3295.338
428.154, 3236.315
428.636, 3180.884
429.118, 3116.390
429.601, 3037.062
430.083, 2963.263
430.565, 2896.973
431.047, 2835.908
431.529, 2778.682
432.011, 2725.522
432.493, 2677.483
432.975, 2638.267
433.457, 2603.719
433.940, 2562.018
434.422, 2511.859
434.904, 2460.888
435.386, 2410.456
435.868, 2362.836
436.350, 2321.620
436.832, 2289.204
437.314, 2257.414
437.797, 2217.549
438.279, 2177.253
438.761, 2153.771
439.243, 2150.035
439.725, 2145.344
440.207, 2117.261
440.689, 2063.530
441.171, 2032.225
441.654, 2040.367
442.136, 2048.262
442.618, 2039.784
443.100, 2023.108
443.582, 2011.905
444.064, 2011.492
444.546, 2015.887
445.028, 2014.356
445.510, 2003.984
445.992, 1998.012
446.475, 1998.284
446.957, 2002.282
447.439, 2009.157
447.921, 2018.910
448.403, 2032.084
448.885, 2051.895
449.367, 2072.750
449.849, 2082.345
450.332, 2079.860
450.814, 2085.144
451.296, 2108.822
451.778, 2141.446
452.260, 2168.478
452.742, 2189.224
453.224, 2208.250
453.706, 2220.468
454.189, 2235.449
454.671, 2266.277
455.153, 2312.287
455.635, 2360.483
456.117, 2401.416
456.599, 2436.055
457.081, 2471.749
457.563, 2508.924
458.045, 2547.056
458.527, 2588.192
459.010, 2628.889
459.492, 2664.210
459.974, 2693.866
460.456, 2724.116
460.938, 2763.855
461.420, 2812.967
461.902, 2852.639
462.384, 2875.795
462.867, 2901.688
463.349, 2943.877
463.831, 2993.903
464.313, 3038.393
464.795, 3073.372
465.277, 3103.715
465.759, 3131.490
466.241, 3157.543
466.724, 3184.954
467.206, 3214.883
467.688, 3244.342
468.170, 3270.370
468.652, 3292.545
469.134, 3312.276
469.616, 3323.343
470.098, 3338.136
470.580, 3359.497
471.063, 3389.402
471.545, 3432.753
472.027, 3491.618
472.509, 3559.175
472.991, 3621.317
473.473, 3675.073
473.955, 3733.781
474.437, 3791.284
474.919, 3860.939
475.402, 3955.723
475.884, 4069.003
476.366, 4181.229
476.848, 4286.212
477.330, 4381.882
477.812, 4457.464
478.294, 4513.608
478.776, 4588.992
479.259, 4708.164
479.741, 4839.073
480.223, 4929.960
480.705, 4979.334
481.187, 5020.435
481.669, 5060.252
482.151, 5093.848
482.633, 5120.841
483.116, 5138.466
483.598, 5138.322
484.080, 5114.278
484.562, 5071.271
485.044, 5026.943
485.526, 4990.551
486.008, 4935.695
486.490, 4859.919
486.972, 4768.343
487.454, 4659.105
487.937, 4535.665
488.419, 4410.851
488.901, 4297.979
489.383, 4189.705
489.865, 4061.548
490.347, 3909.013
490.829, 3763.836
491.311, 3644.567
491.794, 3537.260
492.276, 3415.573
492.758, 3273.433
493.240, 3141.192
493.722, 3033.512
494.204, 2936.905
494.686, 2836.237
495.168, 2730.538
495.651, 2628.538
496.133, 2536.834
496.615, 2453.354
497.097, 2370.727
497.579, 2284.175
498.061, 2205.192
498.543, 2133.382
499.025, 2070.032
499.507, 2019.315
499.990, 1979.931
500.472, 1943.183
500.954, 1901.056
501.436, 1855.931
501.918, 1816.509
502.400, 1783.584
502.882, 1753.523
503.364, 1724.900
503.846, 1698.333
504.329, 1675.155
504.811, 1657.562
505.293, 1636.115
505.775, 1602.225
506.257, 1565.262
506.739, 1536.143
507.221, 1515.865
507.703, 1500.762
508.185, 1489.709
508.668, 1480.464
509.150, 1459.573
509.632, 1410.522
510.114, 1373.117
510.596, 1356.668
511.078, 1348.758
511.560, 1341.784
512.042, 1333.605
512.525, 1322.606
513.007, 1305.342
513.489, 1284.535
513.971, 1269.506
514.453, 1261.039
514.935, 1253.835
515.417, 1243.777
515.899, 1235.042
516.381, 1224.758
516.864, 1219.036
517.346, 1219.076
517.828, 1217.718
518.310, 1215.036
518.792, 1207.066
519.274, 1205.925
519.756, 1202.047
520.239, 1198.056
520.721, 1197.876
521.203, 1190.675
521.685, 1190.434
522.167, 1186.907
522.649, 1184.871
523.131, 1184.448
523.613, 1178.897
524.095, 1168.480
524.578, 1157.674
525.060, 1146.330
525.542, 1138.161
526.024, 1145.567
526.506, 1168.994
526.988, 1180.752
527.470, 1164.990
527.952, 1138.178
528.434, 1129.163
528.917, 1141.280
529.399, 1149.962
529.881, 1148.113
530.363, 1144.933
530.845, 1148.755
531.327, 1156.950
531.809, 1160.565
532.291, 1154.585
532.773, 1144.291
533.256, 1142.763
533.738, 1154.653
534.220, 1159.997
534.702, 1154.269
535.184, 1144.010
535.666, 1127.847
536.148, 1109.712
536.630, 1100.272
537.112, 1107.546
537.595, 1120.508
538.077, 1129.862
538.559, 1135.438
539.041, 1135.443
539.523, 1128.576
540.005, 1120.084
540.487, 1115.916
540.969, 1116.551
541.452, 1118.996
541.934, 1127.913
542.416, 1133.245
542.898, 1129.480
543.380, 1120.679
543.862, 1112.470
544.344, 1106.737
544.826, 1101.916
545.308, 1094.620
545.791, 1085.146
546.273, 1083.935
546.755, 1096.447
547.237, 1105.986
547.719, 1096.806
548.201, 1079.773
548.683, 1076.201
549.166, 1097.367
549.648, 1111.794
550.130, 1096.335
550.612, 1070.058
551.094, 1059.118
551.576, 1066.125
552.058, 1077.749
552.540, 1083.895
553.022, 1085.366
553.505, 1086.876
553.987, 1087.910
554.469, 1089.865
554.951, 1095.196
555.433, 1099.688
555.915, 1100.117
556.397, 1096.456
556.879, 1090.837
557.362, 1080.983
557.844, 1071.865
558.326, 1074.993
558.808, 1089.407
559.290, 1098.529
559.772, 1095.458
560.254, 1085.474
560.736, 1075.928
561.218, 1066.043
561.701, 1059.843
562.183, 1054.292
562.665, 1055.526
563.147, 1073.969
563.629, 1099.943
564.111, 1115.643
564.593, 1113.718
565.075, 1102.798
565.557, 1093.678
566.040, 1086.261
566.522, 1083.674
567.004, 1088.384
567.486, 1093.799
567.968, 1096.296
568.450, 1096.431
568.932, 1094.985
569.414, 1091.989
569.896, 1087.549
570.379, 1075.577
570.861, 1065.062
571.343, 1072.850
571.825, 1098.443
572.307, 1121.577
572.789, 1125.294
573.271, 1113.413
573.753, 1107.786
574.235, 1113.677
574.718, 1115.972
575.200, 1107.144
575.682, 1098.109
576.164, 1096.357
576.646, 1101.904
577.128, 1110.247
577.610, 1121.052
578.093, 1132.033
578.575, 1140.227
579.057, 1146.005
579.539, 1150.890
580.021, 1155.153
580.503, 1160.059
580.985, 1168.311
581.467, 1182.478
581.949, 1187.017
582.432, 1172.805
582.914, 1160.624
583.396, 1157.831
583.878, 1161.061
584.360, 1165.437
584.842, 1169.512
585.324, 1175.124
585.806, 1185.708
586.289, 1199.662
586.771, 1209.659
587.253, 1214.653
587.735, 1219.670
588.217, 1227.094
588.699, 1236.573
589.181, 1247.966
589.663, 1264.100
590.145, 1275.208
590.628, 1272.432
591.110, 1270.130
591.592, 1280.759
592.074, 1301.572
592.556, 1322.489
593.038, 1338.062
593.520, 1350.262
594.002, 1362.359
594.484, 1374.219
594.967, 1388.196
595.449, 1405.835
595.931, 1423.827
596.413, 1439.441
596.895, 1453.456
597.377, 1467.667
597.859, 1479.923
598.341, 1495.669
598.823, 1523.505
599.306, 1553.540
599.788, 1570.982
600.270, 1574.630
600.752, 1574.072
601.234, 1576.180
601.716, 1581.685
602.198, 1595.918
602.680, 1625.045
603.162, 1647.780
603.645, 1654.360
604.127, 1657.263
604.609, 1666.279
605.091, 1680.363
605.573, 1690.672
606.055, 1692.922
606.537, 1690.889
607.019, 1683.514
607.502, 1674.620
607.984, 1675.497
608.466, 1689.323
608.948, 1705.479
609.430, 1711.200
609.912, 1705.929
610.394, 1706.279
610.876, 1716.094
611.359, 1726.141
611.841, 1734.905
612.323, 1742.526
612.805, 1750.472
613.287, 1758.551
613.769, 1761.540
614.251, 1751.925
614.733, 1738.108
615.216, 1735.580
615.698, 1741.133
616.180, 1733.494
616.662, 1702.383
617.144, 1665.681
617.626, 1653.393
618.108, 1675.008
618.590, 1678.770
619.072, 1651.422
619.555, 1621.269
620.037, 1592.857
620.519, 1567.824
621.001, 1547.826
621.483, 1533.308
621.965, 1522.136
622.447, 1518.909
622.929, 1516.002
623.411, 1492.979
623.894, 1450.410
624.376, 1415.278
624.858, 1402.057
625.340, 1401.081
625.822, 1392.952
626.304, 1376.035
626.786, 1355.794
627.268, 1325.209
627.750, 1299.086
628.233, 1284.786
628.715, 1278.935
629.197, 1263.777
629.679, 1229.830
630.161, 1210.563
630.643, 1206.493
631.125, 1198.734
631.607, 1187.483
632.089, 1162.286
632.572, 1155.095
633.054, 1140.691
633.536, 1125.989
634.018, 1121.337
634.500, 1104.865
634.982, 1103.903
635.464, 1093.350
635.946, 1082.613
636.429, 1077.813
636.911, 1076.127
637.393, 1071.939
637.875, 1063.140
638.357, 1050.994
638.839, 1034.508
639.321, 1015.810
639.803, 1002.284
640.286, 994.851
640.768, 989.046
641.250, 982.151
641.732, 974.942
642.214, 969.610
642.696, 965.994
643.178, 964.741
643.660, 969.583
644.143, 973.129
644.625, 969.899
645.107, 962.520
645.589, 957.698
646.071, 959.005
646.553, 958.586
647.035, 944.429
647.517, 921.953
647.999, 908.692
648.482, 906.936
648.964, 907.379
649.446, 904.667
649.928, 899.370
650.410, 892.941
650.892, 877.378
651.374, 874.675
651.856, 864.516
652.338, 867.805
652.821, 867.828
653.303, 864.764
653.785, 849.360
654.267, 849.889
654.749, 844.034
655.231, 837.917
655.713, 840.688
656.195, 827.079
656.677, 828.839
657.160, 817.308
657.642, 812.469
658.124, 813.539
658.606, 818.867
659.088, 834.825
659.570, 842.539
660.052, 835.382
660.534, 827.514
661.016, 826.479
661.499, 829.244
661.981, 829.278
662.463, 823.969
662.945, 818.675
663.427, 820.727
663.909, 824.691
664.391, 817.613
664.873, 800.021
665.356, 786.134
665.838, 784.377
666.320, 790.548
666.802, 795.171
667.284, 797.059
667.766, 800.655
668.248, 810.484
668.730, 816.992
669.213, 813.369
669.695, 805.274
670.177, 801.633
670.659, 804.969
671.141, 809.342
671.623, 811.899
672.105, 813.086
672.587, 814.086
673.070, 814.401
673.552, 810.226
674.034, 799.271
674.516, 788.593
674.998, 792.426
675.480, 814.796
675.962, 827.105
676.444, 825.296
676.926, 819.687
677.409, 811.883
677.891, 804.080
678.373, 799.069
678.855, 797.244
679.337, 797.084
679.819, 799.732
680.301, 802.386
680.783, 801.914
681.265, 799.644
681.748, 798.625
682.230, 799.989
682.712, 803.140
683.194, 808.912
683.676, 816.716
684.158, 816.572
684.640, 805.996
685.122, 796.084
685.604, 790.851
686.087, 788.351
686.569, 786.759
687.051, 786.335
687.533, 783.162
688.015, 774.404
688.497, 765.391
688.979, 757.211
689.461, 751.002
689.943, 748.994
690.426, 751.089
690.908, 753.538
691.390, 752.502
691.872, 749.872
692.354, 751.846
692.836, 758.304
693.318, 760.391
693.800, 754.675
694.283, 746.613
694.765, 741.854
695.247, 740.387
695.729, 738.834
696.211, 733.338
696.693, 732.834
697.175, 743.330
697.657, 755.869
698.140, 764.358
698.622, 767.905
699.104, 766.240
699.586, 755.207
700.068, 745.401
700.550, 753.711
701.032, 772.260
701.514, 778.128
701.997, 767.743
702.479, 753.989
702.961, 745.688
703.443, 742.917
703.925, 746.311
704.407, 758.569
704.889, 770.431
705.371, 784.134
705.853, 794.165
706.336, 796.248
706.818, 792.937
707.300, 789.823
707.782, 788.912
708.264, 785.676
708.746, 773.942
709.228, 761.640
709.710, 757.519
710.192, 760.673
710.675, 766.178
711.157, 771.711
711.639, 777.250
712.121, 783.351
712.603, 789.929
713.085, 793.393
713.567, 793.012
714.049, 791.594
714.531, 789.160
715.014, 787.515
715.496, 791.252
715.978, 803.063
716.460, 807.440
716.942, 796.586
717.424, 785.909
717.906, 780.702
718.388, 780.051
718.870, 783.539
719.353, 790.438
719.835, 796.826
720.317, 799.939
720.799, 800.581
721.281, 799.448
721.763, 796.905
722.245, 794.649
722.727, 793.119
723.210, 792.609
723.692, 793.717
724.174, 785.216
724.656, 794.387
725.138, 799.268
725.620, 800.091
726.102, 784.695
726.584, 790.241
727.067, 787.395
727.549, 784.205
728.031, 792.698
728.513, 779.661
728.995, 787.969
729.477, 786.197
729.959, 786.787
730.441, 788.049
730.924, 788.454
731.406, 790.704
731.888, 796.646
732.370, 801.534
732.852, 795.218
733.334, 778.633
733.816, 768.522
734.298, 766.435
734.780, 768.836
735.263, 776.372
735.745, 784.785
736.227, 785.858
736.709, 777.621
737.191, 767.670
737.673, 748.016
738.155, 735.802
738.637, 744.741
739.119, 760.534
739.602, 765.434
740.084, 756.989
740.566, 746.566
741.048, 738.324
741.530, 733.938
742.012, 738.567
742.494, 748.335
742.976, 751.684
743.458, 746.283
743.941, 741.979
744.423, 748.529
744.905, 762.489
745.387, 768.598
745.869, 765.145
746.351, 760.517
746.833, 754.168
747.315, 749.780
747.797, 751.290
748.280, 756.993
748.762, 760.968
749.244, 761.083
749.726, 763.146
750.208, 770.557
750.690, 778.217
751.172, 783.590
751.654, 786.128
752.137, 784.542
752.619, 778.228
753.101, 772.267
753.583, 771.004
754.065, 773.661
754.547, 779.925
755.029, 789.088
755.511, 797.567
755.994, 804.141
756.476, 807.502
756.958, 805.362
757.440, 797.735
757.922, 792.585
758.404, 791.078
758.886, 789.446
759.368, 784.712
759.851, 781.453
760.333, 786.149
760.815, 796.693
761.297, 800.813
761.779, 787.958
762.261, 779.479
762.743, 786.751
763.225, 798.367
763.707, 804.082
764.190, 803.928
764.672, 802.128
765.154, 800.554
765.636, 799.096
766.118, 796.879
766.600, 794.738
767.082, 796.306
767.564, 801.437
768.046, 803.397
768.529, 798.175
769.011, 792.148
769.493, 797.095
769.975, 815.374
770.457, 821.422
770.939, 805.782
771.421, 794.935
771.903, 800.172
772.385, 811.257
772.868, 819.478
773.350, 824.745
773.832, 828.480
774.314, 831.885
774.796, 832.660
775.278, 824.156
775.760, 816.585
776.242, 825.944
776.724, 847.055
777.207, 856.200
777.689, 837.468
778.171, 815.799
778.653, 826.698
779.135, 858.351
779.617, 878.697
780.099, 885.190
780.581, 886.262
781.064, 885.466
781.546, 885.334
782.028, 890.626
782.510, 902.135
782.992, 912.385
783.474, 923.118
783.956, 928.531
784.438, 921.393
784.920, 912.491
785.403, 914.601
785.885, 927.137
786.367, 939.209
786.849, 952.913
787.331, 961.795
787.813, 959.620
788.295, 954.820
788.778, 954.034
789.260, 957.893
789.742, 965.801
790.224, 978.863
790.706, 990.766
791.188, 993.823
791.670, 992.098
792.152, 993.583
792.634, 998.233
793.117, 999.566
793.599, 994.279
794.081, 991.851
794.563, 997.281
795.045, 991.190
795.527, 1004.877
796.009, 1013.764
796.491, 1018.107
796.973, 1004.300
797.456, 1013.931
797.938, 1016.335
798.420, 1027.641
798.902, 1030.151
799.384, 1011.975
799.866, 1002.332
800.348, 1009.645
800.830, 1022.232
801.312, 1034.316
801.795, 1044.881
802.277, 1052.807
802.759, 1056.689
803.241, 1062.498
803.723, 1067.094
804.205, 1080.539
804.687, 1122.951
805.169, 1182.363
805.652, 1229.991
806.134, 1255.940
806.616, 1266.592
807.098, 1259.583
807.580, 1246.757
808.062, 1270.234
808.544, 1327.991
809.026, 1383.085
809.508, 1426.969
809.991, 1465.043
810.473, 1501.661
810.955, 1536.400
811.437, 1568.011
811.919, 1601.620
812.401, 1619.752
812.883, 1623.589
813.365, 1608.780
813.847, 1567.717
814.330, 1509.360
814.812, 1444.901
815.294, 1374.301
815.776, 1303.111
816.258, 1226.408
816.740, 1156.362
817.222, 1099.477
817.705, 1052.179
818.187, 1010.103
818.669, 972.648
819.151, 940.530
819.633, 915.213
820.115, 894.117
820.597, 874.671
821.079, 857.423
821.561, 844.563
822.044, 835.552
822.526, 826.557
823.008, 815.285
823.490, 804.319
823.972, 799.715
824.454, 800.794
824.936, 792.945
825.418, 774.338
825.900, 759.136
826.383, 753.709
826.865, 750.492
827.347, 739.051
827.829, 719.598
828.311, 711.765
828.793, 728.062
829.275, 735.099
829.757, 720.687
830.239, 703.358
830.722, 692.170
831.204, 686.809
831.686, 686.353
832.168, 692.394
832.650, 698.250
833.132, 705.321
833.614, 708.149
834.096, 698.520
834.578, 684.077
835.061, 677.094
835.543, 679.994
836.025, 685.799
836.507, 692.443
836.989, 696.773
837.471, 693.272
837.953, 684.817
838.435, 675.975
838.917, 668.569
839.400, 668.092
839.882, 678.817
840.364, 693.790
840.846, 699.735
841.328, 697.193
841.810, 689.176
842.292, 672.560
842.774, 659.894
843.257, 670.832
843.739, 676.039
844.221, 675.826
844.703, 653.952
845.185, 660.048
845.667, 654.935
846.149, 649.362
846.631, 659.394
847.114, 640.671
847.596, 650.456
848.078, 648.860
848.560, 652.474
849.042, 644.809
849.524, 640.627
850.006, 647.727
850.488, 648.581
850.971, 639.617
851.453, 643.562
851.935, 624.445
852.417, 625.564
852.899, 635.415
853.381, 623.141
853.863, 625.338
854.345, 624.076
854.827, 621.919
855.310, 624.903
855.792, 631.594
856.274, 632.281
856.756, 620.930
857.238, 608.001
857.720, 610.214
858.202, 622.264
858.684, 625.855
859.166, 621.141
859.649, 618.692
860.131, 622.390
860.613, 627.387
861.095, 628.489
861.577, 626.164
862.059, 623.049
862.541, 618.865
863.023, 615.716
863.505, 614.714
863.988, 612.555
864.470, 605.682
864.952, 597.203
865.434, 595.092
865.916, 602.073
866.398, 607.128
866.880, 608.669
867.362, 610.256
867.844, 614.114
868.327, 617.486
868.809, 616.972
869.291, 613.083
869.773, 610.429
870.255, 608.439
870.737, 609.910
871.219, 619.682
871.701, 629.699
872.184, 632.664
872.666, 631.191
873.148, 632.917
873.630, 640.208
874.112, 642.387
874.594, 624.538
875.076, 605.255
875.558, 605.663
876.041, 617.606
876.523, 625.491
877.005, 626.804
877.487, 627.391
877.969, 631.112
878.451, 635.646
878.933, 638.485
879.415, 639.114
879.898, 633.958
880.380, 623.827
880.862, 618.051
881.344, 620.573
881.826, 625.041
882.308, 623.340
882.790, 616.927
883.272, 615.375
883.754, 619.471
884.237, 619.993
884.719, 614.218
885.201, 608.715
885.683, 608.088
886.165, 610.856
886.647, 613.993
887.129, 619.918
887.611, 616.106
888.093, 591.574
888.576, 576.524
889.058, 588.411
889.540, 607.534
890.022, 612.722
890.504, 605.669
890.986, 601.151
891.468, 601.047
891.950, 601.436
892.432, 604.513
892.915, 605.216
893.397, 596.167
893.879, 584.560
894.361, 583.521
894.843, 595.689
895.325, 606.266
895.807, 607.441
896.289, 608.288
896.771, 613.835
897.254, 621.801
897.736, 633.112
898.218, 644.375
898.700, 644.714
899.182, 626.895
899.664, 609.426
900.146, 610.367
900.628, 617.667
901.111, 615.003
901.593, 606.271
902.075, 603.186
902.557, 608.215
903.039, 613.973
903.521, 614.875
904.003, 612.531
904.485, 608.159
904.968, 602.901
905.450, 601.322
905.932, 603.257
906.414, 600.496
906.896, 593.187
907.378, 606.368
907.860, 614.576
908.342, 618.076
908.825, 602.775
909.307, 611.752
909.789, 611.000
910.271, 609.849
910.753, 622.244
911.235, 609.677
911.717, 621.858
912.199, 622.350
912.681, 618.669
913.164, 618.540
913.646, 624.193
914.128, 625.774
914.610, 616.593
915.092, 608.064
915.574, 614.833
916.056, 634.033
916.538, 639.102
917.020, 618.078
917.503, 606.765
917.985, 615.238
918.467, 623.237
918.949, 617.304
919.431, 607.135
919.913, 608.203
920.395, 621.971
920.877, 630.677
921.359, 633.580
921.842, 630.830
922.324, 615.577
922.806, 601.019
923.288, 597.988
923.770, 602.742
924.252, 606.003
924.734, 606.210
925.216, 604.673
925.698, 599.865
926.181, 587.135
926.663, 607.237
927.145, 619.369
927.627, 623.960
928.109, 598.421
928.591, 611.789
929.073, 609.565
929.555, 606.701
930.038, 625.544
930.520, 604.388
931.002, 622.887
931.484, 625.556
931.966, 635.471
932.448, 629.696
932.930, 628.768
933.412, 630.255
933.894, 629.046
934.377, 637.080
934.859, 648.154
935.341, 653.654
935.823, 653.019
936.305, 645.686
936.787, 632.135
937.269, 622.098
937.752, 628.756
938.234, 641.879
938.716, 643.412
939.198, 636.814
939.680, 630.678
940.162, 626.562
940.644, 623.506
941.126, 620.930
941.608, 620.369
942.091, 624.364
942.573, 632.113
943.055, 642.708
943.537, 655.145
944.019, 661.289
944.501, 659.412
944.983, 655.727
945.465, 654.951
945.947, 654.738
946.430, 647.534
946.912, 634.590
947.394, 635.852
947.876, 652.503
948.358, 662.257
948.840, 656.950
949.322, 649.473
949.804, 652.781
950.286, 663.242
950.769, 665.689
951.251, 658.294
951.733, 664.053
952.215, 688.854
952.697, 704.379
953.179, 695.967
953.661, 680.811
954.143, 680.750
954.625, 694.027
955.108, 702.602
955.590, 706.419
956.072, 704.759
956.554, 694.050
957.036, 686.775
957.518, 690.907
958.000, 700.377
958.482, 705.889
958.965, 707.431
959.447, 704.617
959.929, 690.340
960.411, 688.423
960.893, 710.758
961.375, 734.044
961.857, 743.693
962.339, 744.210
962.821, 744.580
963.304, 744.262
963.786, 746.455
964.268, 754.858
964.750, 759.890
965.232, 756.928
965.714, 752.641
966.196, 752.331
966.679, 754.466
967.161, 754.303
967.643, 750.330
968.125, 748.313
968.607, 747.257
969.089, 749.609
969.571, 758.712
970.053, 769.299
970.535, 779.894
971.018, 788.338
971.500, 786.031
971.982, 764.232
972.464, 749.964
972.946, 750.909
973.428, 754.351
973.910, 757.630
974.392, 759.234
974.875, 756.369
975.357, 750.141
975.839, 747.295
976.321, 753.037
976.803, 754.318
977.285, 738.508
977.767, 729.076
978.249, 744.732
978.731, 769.435
979.214, 783.481
979.696, 786.256
980.178, 788.437
980.660, 793.305
981.142, 796.641
981.624, 795.897
982.106, 794.769
982.588, 795.294
983.070, 797.043
983.553, 801.266
984.035, 807.200
984.517, 806.093
984.999, 785.096
985.481, 770.751
985.963, 776.481
986.445, 787.572
986.927, 796.735
987.409, 802.422
987.892, 801.995
988.374, 795.591
988.856, 792.140
989.338, 798.535
989.820, 803.676
990.302, 800.263
990.784, 796.299
991.266, 798.995
991.748, 805.588
992.231, 812.478
992.713, 818.580
993.195, 815.789
993.677, 792.451
994.159, 770.196
994.641, 757.759
995.123, 752.136
995.606, 753.623
996.088, 758.814
996.570, 761.597
997.052, 760.634
997.534, 760.954
998.016, 768.092
998.498, 772.840
998.980, 769.711
999.462, 762.599
999.945, 755.081
1000.427, 746.608
1000.909, 733.480
1001.391, 714.680
1001.873, 701.216
1002.355, 702.561
1002.837, 704.948
1003.319, 702.690
1003.801, 696.507
1004.284, 683.927
1004.766, 669.008
1005.248, 660.684
1005.730, 661.323
1006.212, 661.520
1006.694, 653.467
1007.176, 648.275
1007.658, 635.296
1008.141, 651.217
1008.623, 660.123
1009.105, 662.390
1009.587, 638.137
1010.069, 648.130
1010.551, 644.398
1011.033, 640.104
1011.515, 647.360
1011.997, 645.910
1012.480, 646.870
1012.962, 646.407
1013.444, 643.971
1013.926, 638.651
1014.408, 629.922
1014.890, 624.144
1015.372, 626.324
1015.854, 628.937
1016.336, 627.546
1016.819, 625.581
1017.301, 626.844
1017.783, 629.922
1018.265, 629.641
1018.747, 624.244
1019.229, 626.292
1019.711, 654.914
1020.193, 672.915
1020.676, 652.797
1021.158, 625.512
1021.640, 617.251
1022.122, 622.444
1022.604, 624.261
1023.086, 618.997
1023.568, 621.692
1024.050, 648.404
1024.532, 668.274
1025.015, 665.957
1025.497, 656.107
1025.979, 638.502
1026.461, 626.078
1026.943, 624.863
1027.425, 630.642
1027.907, 610.780
1028.389, 640.214
1028.872, 657.686
1029.354, 663.832
1029.836, 624.739
1030.318, 644.061
1030.800, 639.973
1031.282, 634.925
1031.764, 662.469
1032.246, 629.956
1032.729, 656.987
1033.211, 660.247
1033.693, 657.998
1034.175, 659.202
1034.657, 661.020
1035.139, 664.956
1035.621, 675.344
1036.103, 692.954
1036.585, 701.755
1037.068, 696.984
1037.550, 689.146
1038.032, 675.199
1038.514, 663.184
1038.996, 655.758
1039.478, 653.305
1039.960, 658.195
1040.442, 670.334
1040.924, 678.017
1041.407, 681.887
1041.889, 679.695
1042.371, 662.776
1042.853, 652.810
1043.335, 664.093
1043.817, 681.920
1044.299, 689.068
1044.781, 686.262
1045.264, 680.581
1045.746, 668.107
1046.228, 663.391
1046.710, 670.000
1047.192, 678.836
1047.674, 689.890
1048.156, 695.257
1048.638, 683.615
1049.120, 660.062
1049.603, 650.915
1050.085, 658.564
1050.567, 672.586
1051.049, 698.166
1051.531, 707.600
1052.013, 687.034
1052.495, 662.677
1052.977, 658.248
1053.459, 668.216
1053.942, 677.424
1054.424, 686.277
1054.906, 686.309
1055.388, 676.266
1055.870, 669.403
1056.352, 669.449
1056.834, 673.200
1057.316, 678.820
1057.799, 684.477
1058.281, 685.722
1058.763, 683.092
1059.245, 682.933
1059.727, 685.088
1060.209, 686.205
1060.691, 685.632
1061.173, 686.250
1061.656, 690.132
1062.138, 693.144
1062.620, 686.510
1063.102, 674.700
1063.584, 674.690
1064.066, 683.056
1064.548, 685.369
1065.030, 680.278
1065.512, 675.194
1065.995, 673.617
1066.477, 673.574
1066.959, 672.927
1067.441, 672.415
1067.923, 674.965
1068.405, 677.982
1068.887, 673.488
1069.369, 664.049
1069.851, 662.069
1070.334, 671.053
1070.816, 678.224
1071.298, 673.028
1071.780, 662.861
1072.262, 650.768
1072.744, 641.791
1073.226, 644.490
1073.708, 655.044
1074.190, 667.636
1074.673, 679.111
1075.155, 681.035
1075.637, 663.961
1076.119, 647.492
1076.601, 643.524
1077.083, 645.536
1077.565, 651.020
1078.047, 657.269
1078.530, 661.809
1079.012, 664.078
1079.494, 663.216
1079.976, 657.256
1080.458, 653.281
1080.940, 650.387
1081.422, 653.922
1081.904, 677.187
1082.386, 699.110
1082.869, 694.321
1083.351, 672.022
1083.833, 661.965
1084.315, 669.958
1084.797, 678.426
1085.279, 674.455
1085.761, 686.928
1086.243, 687.344
1086.725, 677.070
1087.208, 704.715
1087.690, 723.144
1088.172, 732.869
1088.654, 707.811
1089.136, 727.666
1089.618, 729.523
1090.100, 730.640
1090.582, 756.818
1091.065, 736.831
1091.547, 760.154
1092.029, 762.416
1092.511, 769.499
1092.993, 779.604
1093.475, 780.911
1093.957, 771.890
1094.439, 779.859
1094.922, 807.975
1095.404, 828.336
1095.886, 831.586
1096.368, 827.746
1096.850, 824.421
1097.332, 822.527
1097.814, 825.198
1098.296, 830.924
1098.778, 830.617
1099.260, 826.461
1099.743, 832.735
1100.225, 850.418
1100.707, 865.484
1101.189, 870.223
1101.671, 867.137
1102.153, 852.173
1102.635, 836.549
1103.117, 840.170
1103.600, 855.061
1104.082, 869.452
1104.564, 880.290
1105.046, 883.277
1105.528, 877.681
1106.010, 873.393
1106.492, 877.237
1106.974, 884.152
1107.457, 895.234
1107.939, 903.208
1108.421, 896.785
1108.903, 884.643
1109.385, 880.845
1109.867, 886.694
1110.349, 895.198
1110.831, 908.558
1111.313, 914.760
1111.796, 905.370
1112.278, 894.332
1112.760, 881.851
1113.242, 875.820
1113.724, 889.182
1114.206, 914.737
1114.688, 928.391
1115.170, 927.624
1115.652, 923.666
1116.135, 910.663
1116.617, 906.943
1117.099, 922.423
1117.581, 934.436
1118.063, 927.042
1118.545, 914.162
1119.027, 918.680
1119.509, 937.546
1119.992, 937.289
1120.474, 915.425
1120.956, 902.351
1121.438, 900.913
1121.920, 906.250
1122.402, 916.922
1122.884, 929.263
1123.366, 940.947
1123.849, 948.541
1124.331, 941.785
1124.813, 925.302
1125.295, 914.563
1125.777, 909.218
1126.259, 904.976
1126.741, 901.512
1127.223, 903.855
1127.705, 914.978
1128.188, 923.152
1128.670, 913.763
1129.152, 898.539
1129.634, 887.135
1130.116, 880.747
1130.598, 881.468
1131.080, 888.194
1131.562, 900.506
1132.044, 917.261
1132.527, 928.297
1133.009, 929.076
1133.491, 923.596
1133.973, 906.382
1134.455, 891.446
1134.937, 877.006
1135.419, 877.143
1135.901, 858.104
1136.384, 852.438
1136.866, 866.220
1137.348, 875.280
1137.830, 879.871
1138.312, 866.609
1138.794, 876.400
1139.276, 876.953
1139.758, 877.127
1140.240, 890.163
1140.723, 888.079
1141.205, 888.695
1141.687, 900.948
1142.169, 904.420
1142.651, 898.461
1143.133, 899.977
1143.615, 910.632
1144.097, 920.167
1144.579, 924.951
1145.062, 925.919
1145.544, 923.405
1146.026, 919.395
1146.508, 916.117
1146.990, 914.507
1147.472, 918.605
1147.954, 925.757
1148.436, 929.880
1148.919, 929.671
1149.401, 923.381
1149.883, 910.152
1150.365, 902.342
1150.847, 917.041
1151.329, 930.650
1151.811, 921.437
1152.293, 907.006
1152.776, 902.063
1153.258, 905.214
1153.740, 914.003
1154.222, 926.914
1154.704, 936.933
1155.186, 945.333
1155.668, 945.308
1156.150, 925.812
1156.632, 911.655
1157.115, 912.117
1157.597, 918.430
1158.079, 927.398
1158.561, 935.027
1159.043, 931.951
1159.525, 917.919
1160.007, 905.140
1160.489, 892.768
1160.971, 890.510
1161.454, 900.906
1161.936, 903.888
1162.418, 890.650
1162.900, 875.375
1163.382, 870.478
1163.864, 876.292
1164.346, 863.722
1164.828, 874.550
1165.311, 879.694
1165.793, 879.468
1166.275, 857.769
1166.757, 863.798
1167.239, 858.714
1167.721, 853.176
1168.203, 856.988
1168.685, 855.049
1169.167, 857.113
1169.650, 864.380
1170.132, 868.990
1170.614, 861.642
1171.096, 847.781
1171.578, 833.921
1172.060, 822.112
1172.542, 819.930
1173.024, 836.263
1173.506, 846.121
1173.989, 845.804
1174.471, 842.544
1174.953, 837.911
1175.435, 830.345
1175.917, 815.487
1176.399, 802.465
1176.881, 810.309
1177.363, 835.633
1177.846, 839.107
1178.328, 820.932
1178.810, 810.953
1179.292, 811.535
1179.774, 810.807
1180.256, 804.818
1180.738, 796.144
1181.220, 785.555
1181.703, 779.267
1182.185, 790.711
1182.667, 807.810
1183.149, 814.762
1183.631, 812.632
1184.113, 800.631
1184.595, 782.778
1185.077, 767.920
1185.559, 758.517
1186.042, 752.302
1186.524, 748.489
1187.006, 747.510
1187.488, 751.997
1187.970, 756.395
1188.452, 758.179
1188.934, 757.993
1189.416, 757.247
1189.898, 755.057
1190.381, 748.249
1190.863, 735.916
1191.345, 725.245
1191.827, 716.174
1192.309, 709.145
1192.791, 704.183
1193.273, 702.478
1193.755, 704.940
1194.238, 707.142
1194.720, 704.564
1195.202, 698.625
1195.684, 690.258
1196.166, 681.625
1196.648, 677.934
1197.130, 678.619
1197.612, 683.741
1198.094, 691.144
1198.577, 694.442
1199.059, 691.194
1199.541, 683.384
1200.023, 666.782
1200.505, 653.194
1200.987, 650.549
1201.469, 651.380
1201.951, 653.892
1202.433, 654.241
1202.916, 646.378
1203.398, 631.870
1203.880, 620.127
1204.362, 611.106
1204.844, 605.407
1205.326, 604.172
1205.808, 602.328
1206.290, 598.591
1206.773, 597.009
1207.255, 600.346
1207.737, 601.212
1208.219, 589.639
1208.701, 573.333
1209.183, 571.612
1209.665, 579.452
1210.147, 584.449
1210.630, 585.846
1211.112, 582.244
1211.594, 575.155
1212.076, 569.737
1212.558, 567.910
1213.040, 572.477
1213.522, 595.143
1214.004, 611.106
1214.486, 603.198
1214.969, 588.309
1215.451, 573.906
1215.933, 562.683
1216.415, 558.295
1216.897, 559.340
1217.379, 559.229
1217.861, 557.041
1218.343, 559.562
1218.825, 569.812
1219.308, 570.560
1219.790, 557.310
1220.272, 547.685
1220.754, 549.844
1221.236, 556.383
1221.718, 561.008
1222.200, 561.691
1222.682, 549.174
1223.165, 532.951
1223.647, 537.445
1224.129, 553.187
1224.611, 560.140
1225.093, 556.145
1225.575, 542.537
1226.057, 520.340
1226.539, 510.423
1227.021, 534.327
1227.504, 554.433
1227.986, 558.032
1228.468, 554.446
1228.950, 540.439
1229.432, 529.165
1229.914, 533.956
1230.396, 548.476
1230.878, 558.885
1231.360, 565.190
1231.843, 563.857
1232.325, 554.381
1232.807, 545.553
1233.289, 538.453
1233.771, 537.940
1234.253, 545.193
1234.735, 552.490
1235.217, 554.243
1235.700, 553.726
1236.182, 553.563
1236.664, 554.492
1237.146, 560.853
1237.628, 566.139
1238.110, 559.167
1238.592, 545.688
1239.074, 538.487
1239.557, 539.000
1240.039, 538.930
1240.521, 534.799
1241.003, 534.311
1241.485, 540.272
1241.967, 545.216
1242.449, 547.238
1242.931, 548.474
1243.413, 549.741
1243.896, 552.268
1244.378, 558.236
1244.860, 565.797
1245.342, 569.130
1245.824, 569.076
1246.306, 567.936
1246.788, 566.516
1247.270, 568.570
1247.752, 572.706
1248.235, 570.479
1248.717, 558.606
1249.199, 545.745
1249.681, 536.173
1250.163, 528.069
1250.645, 518.079
1251.127, 512.163
1251.609, 518.964
1252.092, 527.154
1252.574, 521.525
1253.056, 510.291
1253.538, 514.777
1254.020, 535.204
1254.502, 543.311
1254.984, 538.299
1255.466, 532.672
1255.948, 527.779
1256.431, 526.418
1256.913, 529.018
1257.395, 528.532
1257.877, 519.851
1258.359, 510.859
1258.841, 510.330
1259.323, 513.570
1259.805, 517.456
1260.287, 520.866
1260.770, 522.851
##END=



