##NAMES=Clinohumite
##RRUFFID=R040122
##IDEAL CHEMISTRY=Mg_9_(SiO_4_)_4_F_2_
##LOCALITY=Anzahamazonono,  Madagascar
##OWNER=RRUFF
##SOURCE=University of Arizona Mineral Museum
##DESCRIPTION=Orange-brown blebs embedded in calcite matrix
##STATUS=The identification of this mineral has been confirmed by X-ray diffraction and chemical analysis
##URL=rruff.info/R040122
##MEASURED CHEMISTRY=(Mg_0.96_Fe_0.02_Ti_0.01_Ca_0.01_)_9_(SiO_4_)_4_(F_0.59_(OH)_0.41_)_2_
146.5716, 801.2299
147.0537, 823.0355
147.5358, 841.9917
148.0179, 867.5177
148.5001, 907.4562
148.9822, 948.0387
149.4643, 979.5266
149.9464, 1001.652
150.4285, 1019.333
150.9106, 1036.525
151.3928, 1052.646
151.8749, 1064.859
152.3570, 1071.837
152.8391, 1075.514
153.3212, 1078.321
153.8033, 1080.499
154.2855, 1078.975
154.7676, 1070.108
155.2497, 1054.961
155.7318, 1038.339
156.2139, 1016.773
156.6960, 996.1332
157.1782, 984.2660
157.6603, 982.4589
158.1424, 983.1517
158.6245, 978.5781
159.1066, 971.8848
159.5887, 971.5817
160.0709, 983.2484
160.5530, 1001.237
161.0351, 1017.767
161.5172, 1032.396
161.9993, 1046.302
162.4814, 1061.646
162.9636, 1076.852
163.4457, 1088.688
163.9278, 1093.833
164.4099, 1095.441
164.8920, 1099.470
165.3741, 1106.950
165.8563, 1113.916
166.3384, 1115.872
166.8205, 1115.775
167.3026, 1118.998
167.7847, 1130.500
168.2668, 1145.835
168.7490, 1154.594
169.2311, 1153.944
169.7132, 1153.141
170.1953, 1157.787
170.6774, 1165.419
171.1595, 1172.111
171.6417, 1174.790
172.1238, 1175.910
172.6059, 1182.686
173.0880, 1199.213
173.5701, 1213.083
174.0522, 1217.961
174.5344, 1217.292
175.0165, 1215.271
175.4986, 1212.426
175.9807, 1210.459
176.4628, 1215.087
176.9449, 1231.095
177.4271, 1244.898
177.9092, 1248.091
178.3913, 1246.969
178.8734, 1250.106
179.3555, 1262.209
179.8376, 1280.865
180.3197, 1299.561
180.8019, 1319.668
181.2840, 1337.111
181.7661, 1350.284
182.2482, 1360.718
182.7303, 1369.638
183.2124, 1376.980
183.6946, 1384.259
184.1767, 1397.104
184.6588, 1422.681
185.1409, 1440.678
185.6230, 1445.901
186.1051, 1441.968
186.5873, 1432.305
187.0694, 1417.944
187.5515, 1400.283
188.0336, 1382.394
188.5157, 1363.502
188.9978, 1346.099
189.4800, 1329.002
189.9621, 1314.152
190.4442, 1303.936
190.9263, 1299.740
191.4084, 1299.408
191.8905, 1297.894
192.3727, 1295.037
192.8548, 1291.095
193.3369, 1281.083
193.8190, 1272.437
194.3011, 1274.144
194.7832, 1289.939
195.2654, 1312.408
195.7475, 1324.805
196.2296, 1319.818
196.7117, 1318.397
197.1938, 1325.734
197.6759, 1335.848
198.1581, 1343.324
198.6402, 1346.393
199.1223, 1347.534
199.6044, 1352.039
200.0865, 1364.454
200.5686, 1370.784
201.0508, 1367.282
201.5329, 1360.051
202.0150, 1353.257
202.4971, 1348.170
202.9792, 1344.067
203.4613, 1339.117
203.9435, 1330.326
204.4256, 1327.903
204.9077, 1336.610
205.3898, 1347.758
205.8719, 1355.212
206.3540, 1357.906
206.8362, 1359.299
207.3183, 1364.708
207.8004, 1377.094
208.2825, 1385.732
208.7646, 1391.219
209.2467, 1393.057
209.7289, 1389.027
210.2110, 1379.910
210.6931, 1370.032
211.1752, 1365.252
211.6573, 1368.490
212.1395, 1366.011
212.6216, 1351.847
213.1037, 1337.493
213.5858, 1327.139
214.0679, 1321.693
214.5500, 1320.973
215.0322, 1325.498
215.5143, 1336.145
215.9964, 1346.216
216.4785, 1362.241
216.9606, 1371.745
217.4427, 1364.289
217.9249, 1344.997
218.4070, 1328.372
218.8891, 1327.376
219.3712, 1342.551
219.8533, 1353.710
220.3354, 1357.423
220.8176, 1360.202
221.2997, 1363.157
221.7818, 1366.507
222.2639, 1370.626
222.7460, 1376.221
223.2281, 1382.821
223.7103, 1384.749
224.1924, 1373.085
224.6745, 1366.516
225.1566, 1373.167
225.6387, 1386.494
226.1208, 1396.532
226.6030, 1397.284
227.0851, 1390.993
227.5672, 1387.038
228.0493, 1386.749
228.5314, 1387.240
229.0135, 1388.792
229.4957, 1390.516
229.9778, 1391.064
230.4599, 1389.761
230.9420, 1387.890
231.4241, 1388.760
231.9062, 1394.013
232.3884, 1399.369
232.8705, 1408.242
233.3526, 1414.888
233.8347, 1412.507
234.3168, 1399.187
234.7989, 1381.772
235.2811, 1371.934
235.7632, 1371.591
236.2453, 1374.706
236.7274, 1381.089
237.2095, 1390.006
237.6916, 1403.768
238.1738, 1421.626
238.6559, 1437.022
239.1380, 1440.480
239.6201, 1428.094
240.1022, 1418.148
240.5843, 1412.591
241.0665, 1408.519
241.5486, 1403.367
242.0307, 1397.825
242.5128, 1395.659
242.9949, 1403.483
243.4770, 1423.077
243.9592, 1431.051
244.4413, 1414.980
244.9234, 1398.365
245.4055, 1388.035
245.8876, 1384.183
246.3697, 1385.671
246.8519, 1393.618
247.3340, 1406.841
247.8161, 1414.102
248.2982, 1412.228
248.7803, 1408.123
249.2624, 1403.619
249.7446, 1398.844
250.2267, 1393.271
250.7088, 1385.313
251.1909, 1377.750
251.6730, 1379.852
252.1551, 1397.660
252.6373, 1412.934
253.1194, 1419.643
253.6015, 1421.202
254.0836, 1420.804
254.5657, 1419.431
255.0478, 1417.157
255.5300, 1413.437
256.0121, 1407.351
256.4942, 1403.385
256.9763, 1402.466
257.4584, 1404.453
257.9406, 1411.088
258.4227, 1422.948
258.9048, 1434.122
259.3869, 1438.091
259.8690, 1434.593
260.3511, 1429.731
260.8333, 1422.349
261.3154, 1415.977
261.7975, 1413.119
262.2796, 1413.791
262.7617, 1416.159
263.2438, 1419.366
263.7260, 1423.320
264.2081, 1427.998
264.6902, 1435.559
265.1723, 1440.264
265.6544, 1435.197
266.1365, 1423.460
266.6187, 1415.568
267.1008, 1418.661
267.5829, 1428.546
268.0650, 1436.699
268.5471, 1442.779
269.0292, 1447.559
269.5114, 1453.223
269.9935, 1457.786
270.4756, 1456.776
270.9577, 1444.584
271.4398, 1429.996
271.9219, 1424.095
272.4041, 1427.157
272.8862, 1428.800
273.3683, 1420.986
273.8504, 1410.034
274.3325, 1408.405
274.8146, 1421.421
275.2968, 1435.152
275.7789, 1438.854
276.2610, 1434.965
276.7431, 1433.326
277.2252, 1437.043
277.7073, 1445.188
278.1895, 1458.228
278.6716, 1478.682
279.1537, 1492.235
279.6358, 1489.029
280.1179, 1476.570
280.6000, 1467.287
281.0822, 1463.867
281.5643, 1463.910
282.0464, 1465.435
282.5285, 1468.631
283.0106, 1470.797
283.4927, 1469.853
283.9749, 1468.877
284.4570, 1472.066
284.9391, 1479.250
285.4212, 1484.731
285.9033, 1483.518
286.3854, 1475.592
286.8676, 1468.677
287.3497, 1460.601
287.8318, 1455.483
288.3139, 1457.372
288.7960, 1464.047
289.2781, 1469.927
289.7603, 1472.113
290.2424, 1470.877
290.7245, 1467.127
291.2066, 1454.528
291.6887, 1447.342
292.1708, 1452.322
292.6530, 1462.249
293.1351, 1467.493
293.6172, 1464.752
294.0993, 1458.793
294.5814, 1458.202
295.0635, 1467.300
295.5457, 1473.802
296.0278, 1477.604
296.5099, 1479.092
296.9920, 1476.755
297.4741, 1471.485
297.9562, 1467.254
298.4384, 1467.926
298.9205, 1473.618
299.4026, 1483.842
299.8847, 1505.699
300.3668, 1524.865
300.8489, 1533.217
301.3311, 1535.067
301.8131, 1540.150
302.2953, 1555.355
302.7774, 1578.457
303.2595, 1597.855
303.7416, 1609.707
304.2237, 1623.482
304.7058, 1643.461
305.1880, 1665.131
305.6701, 1683.848
306.1522, 1697.896
306.6343, 1708.421
307.1164, 1718.093
307.5985, 1728.422
308.0807, 1732.046
308.5628, 1723.827
309.0449, 1710.889
309.5270, 1694.772
310.0091, 1676.481
310.4912, 1660.976
310.9734, 1654.536
311.4555, 1656.104
311.9376, 1653.315
312.4197, 1640.264
312.9018, 1630.372
313.3839, 1632.313
313.8661, 1643.474
314.3482, 1657.375
314.8303, 1673.012
315.3124, 1688.774
315.7945, 1701.771
316.2766, 1711.787
316.7588, 1720.007
317.2409, 1723.297
317.7230, 1726.483
318.2051, 1738.321
318.6872, 1764.174
319.1693, 1791.064
319.6515, 1811.904
320.1336, 1826.218
320.6157, 1831.458
321.0978, 1825.034
321.5799, 1811.687
322.0620, 1798.775
322.5442, 1787.065
323.0263, 1772.299
323.5084, 1751.056
323.9905, 1726.964
324.4726, 1702.929
324.9547, 1679.395
325.4369, 1660.994
325.9190, 1653.708
326.4011, 1658.971
326.8832, 1658.324
327.3653, 1647.816
327.8474, 1635.287
328.3296, 1625.185
328.8117, 1616.779
329.2938, 1607.030
329.7759, 1593.957
330.2580, 1578.406
330.7401, 1564.640
331.2223, 1548.704
331.7044, 1539.463
332.1865, 1543.844
332.6686, 1552.611
333.1507, 1555.049
333.6328, 1548.185
334.1150, 1538.115
334.5971, 1534.376
335.0792, 1540.956
335.5613, 1543.049
336.0434, 1536.556
336.5255, 1529.756
337.0077, 1527.729
337.4898, 1529.465
337.9719, 1530.150
338.4540, 1524.989
338.9361, 1515.218
339.4182, 1512.030
339.9004, 1517.483
340.3825, 1527.127
340.8646, 1545.546
341.3467, 1564.804
341.8288, 1573.479
342.3109, 1566.064
342.7931, 1552.818
343.2752, 1549.596
343.7573, 1557.951
344.2394, 1565.304
344.7215, 1567.704
345.2036, 1568.829
345.6858, 1571.981
346.1679, 1577.254
346.6500, 1581.777
347.1321, 1582.489
347.6142, 1581.083
348.0963, 1582.289
348.5785, 1586.816
349.0606, 1593.222
349.5427, 1601.240
350.0248, 1610.361
350.5069, 1619.070
350.9890, 1627.177
351.4712, 1634.759
351.9533, 1644.417
352.4354, 1654.697
352.9175, 1657.247
353.3996, 1646.449
353.8817, 1627.435
354.3639, 1614.179
354.8460, 1611.759
355.3281, 1603.515
355.8102, 1579.624
356.2923, 1550.741
356.7744, 1530.200
357.2566, 1520.569
357.7387, 1515.470
358.2208, 1508.147
358.7029, 1498.431
359.1850, 1486.954
359.6671, 1470.302
360.1493, 1455.555
360.6314, 1447.491
361.1135, 1443.765
361.5956, 1438.697
362.0777, 1428.653
362.5598, 1415.670
363.0420, 1407.151
363.5241, 1404.916
364.0062, 1404.625
364.4883, 1408.878
364.9704, 1412.695
365.4525, 1410.556
365.9347, 1401.871
366.4168, 1392.556
366.8989, 1389.188
367.3810, 1391.996
367.8631, 1396.925
368.3452, 1407.119
368.8274, 1415.407
369.3095, 1416.864
369.7916, 1413.800
370.2737, 1411.780
370.7558, 1413.588
371.2379, 1417.775
371.7201, 1423.126
372.2022, 1430.123
372.6843, 1433.398
373.1664, 1428.250
373.6485, 1419.409
374.1306, 1413.862
374.6128, 1411.986
375.0949, 1412.790
375.5770, 1416.063
376.0591, 1421.617
376.5412, 1430.279
377.0233, 1442.752
377.5055, 1454.246
377.9876, 1460.118
378.4697, 1459.699
378.9518, 1455.941
379.4339, 1447.770
379.9160, 1437.249
380.3982, 1422.737
380.8803, 1406.660
381.3624, 1395.469
381.8445, 1392.865
382.3266, 1396.706
382.8087, 1400.630
383.2909, 1408.916
383.7730, 1411.178
384.2551, 1400.735
384.7372, 1388.483
385.2193, 1383.778
385.7014, 1387.729
386.1836, 1394.625
386.6657, 1398.235
387.1478, 1398.196
387.6299, 1401.763
388.1120, 1414.791
388.5941, 1424.598
389.0763, 1425.747
389.5584, 1421.413
390.0405, 1416.008
390.5226, 1410.647
391.0047, 1407.194
391.4868, 1410.604
391.9690, 1422.106
392.4511, 1428.320
392.9332, 1422.143
393.4153, 1412.369
393.8974, 1407.636
394.3795, 1408.005
394.8617, 1408.424
395.3438, 1406.862
395.8259, 1403.634
396.3080, 1398.878
396.7901, 1392.540
397.2722, 1385.861
397.7544, 1379.274
398.2365, 1373.118
398.7186, 1368.586
399.2007, 1367.147
399.6828, 1365.692
400.1649, 1363.525
400.6471, 1360.445
401.1292, 1354.968
401.6113, 1346.552
402.0934, 1339.054
402.5755, 1338.339
403.0576, 1346.842
403.5398, 1355.157
404.0219, 1366.063
404.5040, 1374.352
404.9861, 1375.048
405.4682, 1370.834
405.9503, 1368.728
406.4325, 1373.606
406.9146, 1382.878
407.3967, 1386.481
407.8788, 1379.172
408.3609, 1377.091
408.8430, 1390.382
409.3252, 1405.073
409.8073, 1407.161
410.2894, 1395.525
410.7715, 1386.040
411.2536, 1397.516
411.7357, 1424.505
412.2179, 1437.014
412.7000, 1428.252
413.1821, 1416.612
413.6642, 1413.875
414.1463, 1417.382
414.6284, 1423.040
415.1106, 1433.678
415.5927, 1441.914
416.0748, 1439.675
416.5569, 1430.308
417.0390, 1424.352
417.5211, 1425.623
418.0033, 1430.775
418.4854, 1435.090
418.9675, 1438.333
419.4496, 1441.424
419.9317, 1442.733
420.4138, 1445.247
420.8960, 1452.494
421.3781, 1463.010
421.8602, 1471.792
422.3423, 1475.435
422.8244, 1475.313
423.3065, 1477.414
423.7887, 1483.609
424.2708, 1489.192
424.7529, 1491.019
425.2350, 1493.845
425.7171, 1502.410
426.1992, 1516.918
426.6814, 1532.712
427.1635, 1545.422
427.6456, 1555.389
428.1277, 1565.550
428.6098, 1576.068
429.0919, 1586.437
429.5741, 1599.142
430.0562, 1610.912
430.5383, 1616.145
431.0204, 1612.243
431.5025, 1604.356
431.9846, 1593.794
432.4668, 1582.278
432.9489, 1577.785
433.4310, 1584.404
433.9131, 1591.444
434.3952, 1584.802
434.8773, 1562.724
435.3595, 1545.493
435.8416, 1536.901
436.3237, 1531.033
436.8058, 1524.142
437.2879, 1516.944
437.7701, 1511.656
438.2522, 1509.406
438.7343, 1509.881
439.2164, 1512.562
439.6985, 1519.977
440.1806, 1525.031
440.6628, 1528.593
441.1449, 1529.319
441.6270, 1526.451
442.1091, 1519.966
442.5912, 1509.664
443.0733, 1493.427
443.5555, 1474.060
444.0376, 1464.352
444.5197, 1469.531
445.0018, 1469.657
445.4839, 1450.033
445.9660, 1425.140
446.4482, 1410.453
446.9303, 1409.332
447.4124, 1407.045
447.8945, 1391.400
448.3766, 1368.812
448.8587, 1354.296
449.3409, 1350.386
449.8230, 1345.754
450.3051, 1330.949
450.7872, 1306.935
451.2693, 1285.593
451.7514, 1260.062
452.2336, 1244.828
452.7157, 1253.275
453.1978, 1271.840
453.6799, 1281.690
454.1620, 1277.451
454.6441, 1266.304
455.1263, 1256.537
455.6084, 1247.412
456.0905, 1243.911
456.5726, 1254.820
457.0547, 1262.479
457.5368, 1258.639
458.0190, 1248.681
458.5011, 1241.833
458.9832, 1242.372
459.4653, 1245.421
459.9474, 1242.703
460.4295, 1234.076
460.9117, 1230.607
461.3938, 1237.224
461.8759, 1245.779
462.3580, 1248.193
462.8401, 1245.750
463.3222, 1245.252
463.8044, 1252.778
464.2865, 1259.704
464.7686, 1256.799
465.2507, 1246.147
465.7328, 1235.963
466.2149, 1229.526
466.6971, 1226.477
467.1792, 1226.599
467.6613, 1233.502
468.1434, 1235.754
468.6255, 1230.253
469.1076, 1222.902
469.5898, 1214.667
470.0719, 1207.678
470.5540, 1206.702
471.0361, 1215.435
471.5182, 1230.282
472.0003, 1241.521
472.4825, 1249.515
472.9646, 1252.660
473.4467, 1245.549
473.9288, 1236.967
474.4109, 1232.516
474.8930, 1232.320
475.3752, 1233.064
475.8573, 1232.939
476.3394, 1232.515
476.8215, 1233.338
477.3036, 1235.455
477.7857, 1235.770
478.2679, 1231.716
478.7500, 1225.723
479.2321, 1224.478
479.7142, 1231.583
480.1963, 1233.882
480.6784, 1220.425
481.1606, 1206.769
481.6427, 1211.271
482.1248, 1231.815
482.6069, 1249.765
483.0890, 1250.994
483.5711, 1238.269
484.0533, 1226.366
484.5354, 1211.229
485.0175, 1204.103
485.4996, 1211.515
485.9817, 1222.993
486.4638, 1230.967
486.9460, 1234.356
487.4281, 1235.431
487.9102, 1237.030
488.3923, 1237.643
488.8744, 1231.046
489.3565, 1215.665
489.8387, 1201.984
490.3208, 1195.135
490.8029, 1193.631
491.2850, 1193.745
491.7671, 1195.592
492.2492, 1198.650
492.7314, 1203.182
493.2135, 1208.573
493.6956, 1215.378
494.1777, 1222.938
494.6598, 1227.503
495.1419, 1225.659
495.6241, 1218.729
496.1062, 1215.482
496.5883, 1223.068
497.0704, 1224.095
497.5525, 1209.295
498.0346, 1192.767
498.5168, 1185.954
498.9989, 1190.095
499.4810, 1199.630
499.9631, 1214.264
500.4452, 1230.491
500.9273, 1232.182
501.4095, 1215.210
501.8916, 1200.842
502.3737, 1195.947
502.8558, 1200.865
503.3379, 1218.782
503.8200, 1255.751
504.3022, 1279.897
504.7843, 1270.265
505.2664, 1246.642
505.7485, 1229.798
506.2306, 1221.775
506.7127, 1218.570
507.1949, 1217.920
507.6770, 1219.288
508.1591, 1220.428
508.6412, 1223.446
509.1233, 1222.924
509.6054, 1214.853
510.0876, 1206.192
510.5697, 1202.381
511.0518, 1203.224
511.5339, 1204.925
512.0161, 1205.261
512.4982, 1204.181
512.9803, 1200.578
513.4624, 1193.633
513.9445, 1189.523
514.4266, 1192.418
514.9088, 1197.486
515.3909, 1197.880
515.8730, 1193.153
516.3551, 1189.777
516.8372, 1189.282
517.3193, 1191.292
517.8015, 1197.110
518.2836, 1205.481
518.7657, 1212.442
519.2478, 1216.050
519.7299, 1216.130
520.2120, 1211.657
520.6942, 1196.842
521.1763, 1188.656
521.6584, 1189.196
522.1405, 1193.528
522.6226, 1202.129
523.1047, 1212.305
523.5869, 1217.721
524.0690, 1213.485
524.5511, 1206.433
525.0332, 1209.228
525.5153, 1221.789
525.9974, 1230.794
526.4796, 1232.161
526.9617, 1230.536
527.4438, 1229.166
527.9259, 1228.273
528.4080, 1231.773
528.8901, 1246.199
529.3723, 1259.266
529.8544, 1261.973
530.3365, 1258.418
530.8186, 1255.916
531.3007, 1257.079
531.7828, 1262.029
532.2650, 1272.034
532.7471, 1288.992
533.2292, 1299.191
533.7113, 1292.367
534.1934, 1290.660
534.6755, 1304.146
535.1577, 1325.324
535.6398, 1344.690
536.1219, 1359.777
536.6040, 1371.130
537.0861, 1376.264
537.5682, 1377.951
538.0504, 1385.298
538.5325, 1399.538
539.0146, 1418.095
539.4967, 1441.252
539.9788, 1467.023
540.4609, 1485.185
540.9431, 1486.742
541.4252, 1494.089
541.9073, 1515.742
542.3894, 1542.576
542.8715, 1565.366
543.3536, 1583.868
543.8358, 1604.663
544.3179, 1634.096
544.8000, 1669.031
545.2821, 1694.407
545.7642, 1705.226
546.2463, 1720.253
546.7285, 1753.345
547.2106, 1785.312
547.6927, 1801.988
548.1748, 1803.228
548.6569, 1796.089
549.1390, 1782.712
549.6211, 1763.058
550.1032, 1735.974
550.5853, 1702.267
551.0674, 1663.906
551.5496, 1620.106
552.0317, 1578.415
552.5138, 1552.322
552.9959, 1550.096
553.4780, 1535.016
553.9601, 1496.127
554.4423, 1457.954
554.9244, 1429.677
555.4065, 1408.795
555.8886, 1391.445
556.3707, 1376.252
556.8528, 1360.728
557.3350, 1338.130
557.8171, 1310.597
558.2992, 1296.650
558.7813, 1300.249
559.2634, 1310.571
559.7455, 1324.100
560.2277, 1338.534
560.7098, 1347.165
561.1919, 1349.848
561.6740, 1346.971
562.1561, 1331.274
562.6382, 1314.562
563.1204, 1312.821
563.6025, 1324.670
564.0846, 1333.496
564.5667, 1326.443
565.0488, 1308.291
565.5309, 1297.651
566.0131, 1295.948
566.4952, 1298.187
566.9773, 1310.730
567.4594, 1321.114
567.9415, 1318.818
568.4236, 1306.367
568.9058, 1296.677
569.3879, 1296.116
569.8700, 1299.811
570.3521, 1303.813
570.8342, 1307.996
571.3163, 1311.967
571.7985, 1315.615
572.2806, 1318.926
572.7627, 1321.793
573.2448, 1324.145
573.7269, 1326.826
574.2090, 1326.562
574.6912, 1330.546
575.1733, 1344.305
575.6554, 1361.289
576.1375, 1373.675
576.6196, 1380.031
577.1017, 1385.922
577.5839, 1396.547
578.0660, 1410.752
578.5481, 1425.413
579.0302, 1440.787
579.5123, 1453.357
579.9944, 1459.730
580.4766, 1463.882
580.9587, 1474.741
581.4408, 1495.088
581.9229, 1509.620
582.4050, 1511.852
582.8871, 1511.505
583.3693, 1515.345
583.8514, 1521.696
584.3335, 1525.953
584.8156, 1525.977
585.2977, 1523.303
585.7798, 1520.225
586.2620, 1516.795
586.7441, 1512.181
587.2262, 1505.094
587.7083, 1498.821
588.1904, 1495.194
588.6725, 1493.599
589.1547, 1494.075
589.6368, 1499.114
590.1189, 1499.581
590.6010, 1484.823
591.0831, 1466.398
591.5652, 1458.936
592.0474, 1463.204
592.5295, 1473.877
593.0116, 1488.440
593.4937, 1503.989
593.9758, 1509.973
594.4579, 1496.908
594.9401, 1496.789
595.4222, 1521.703
595.9043, 1551.761
596.3864, 1579.954
596.8685, 1605.356
597.3506, 1626.877
597.8328, 1642.792
598.3149, 1657.098
598.7970, 1669.373
599.2791, 1683.255
599.7612, 1711.013
600.2433, 1755.172
600.7255, 1800.297
601.2076, 1832.752
601.6897, 1854.593
602.1718, 1882.648
602.6539, 1923.140
603.1360, 1961.518
603.6182, 1997.939
604.1003, 2030.909
604.5824, 2057.830
605.0645, 2079.990
605.5466, 2102.415
606.0287, 2129.752
606.5109, 2156.736
606.9930, 2177.937
607.4751, 2192.710
607.9572, 2195.751
608.4393, 2185.580
608.9214, 2164.001
609.4036, 2132.730
609.8857, 2091.592
610.3678, 2039.825
610.8499, 1962.839
611.3320, 1894.965
611.8141, 1851.491
612.2963, 1816.149
612.7784, 1773.904
613.2605, 1722.639
613.7426, 1668.012
614.2247, 1611.698
614.7068, 1557.192
615.1890, 1515.198
615.6711, 1486.329
616.1532, 1455.439
616.6353, 1416.317
617.1174, 1377.308
617.5995, 1348.457
618.0817, 1329.953
618.5638, 1311.673
619.0459, 1293.410
619.5280, 1275.147
620.0101, 1255.111
620.4922, 1235.947
620.9744, 1221.479
621.4565, 1212.013
621.9386, 1204.047
622.4207, 1194.304
622.9028, 1183.586
623.3849, 1174.877
623.8671, 1168.016
624.3492, 1164.953
624.8313, 1170.862
625.3134, 1175.596
625.7955, 1162.780
626.2776, 1133.612
626.7598, 1114.263
627.2419, 1117.907
627.7240, 1121.860
628.2061, 1112.527
628.6882, 1097.210
629.1703, 1086.160
629.6525, 1082.136
630.1346, 1083.522
630.6167, 1091.103
631.0988, 1102.377
631.5809, 1101.711
632.0630, 1085.353
632.5452, 1071.672
633.0273, 1066.570
633.5094, 1066.145
633.9915, 1067.986
634.4736, 1071.815
634.9557, 1070.463
635.4379, 1056.381
635.9200, 1043.221
636.4021, 1040.274
636.8842, 1042.675
637.3663, 1042.813
637.8484, 1038.812
638.3306, 1033.184
638.8127, 1028.050
639.2948, 1023.542
639.7769, 1020.802
640.2590, 1020.305
640.7411, 1019.875
641.2233, 1018.956
641.7054, 1017.803
642.1875, 1016.815
642.6696, 1015.940
643.1517, 1014.479
643.6339, 1013.838
644.1160, 1010.921
644.5981, 999.7450
645.0802, 986.8792
645.5623, 984.5160
646.0444, 993.9016
646.5266, 1002.961
647.0087, 999.1597
647.4908, 986.4176
647.9729, 985.2352
648.4550, 1000.089
648.9371, 1008.234
649.4193, 1000.234
649.9014, 987.4639
650.3835, 980.2002
650.8656, 977.8711
651.3477, 976.6318
651.8298, 977.1631
652.3120, 977.1369
652.7941, 973.6526
653.2762, 969.8358
653.7583, 971.1867
654.2404, 977.6087
654.7225, 982.6508
655.2047, 980.2719
655.6868, 973.6651
656.1689, 975.0936
656.6510, 986.8578
657.1331, 991.7503
657.6152, 982.1528
658.0974, 970.5306
658.5795, 968.9370
659.0616, 975.1982
659.5437, 979.9238
660.0258, 983.4721
660.5079, 983.8919
660.9901, 975.7750
661.4722, 967.2231
661.9543, 969.2139
662.4364, 980.2438
662.9185, 988.1790
663.4006, 983.8624
663.8828, 974.7219
664.3649, 979.6577
664.8470, 999.3919
665.3291, 1008.438
665.8112, 999.8563
666.2933, 987.2016
666.7755, 979.2552
667.2576, 975.5277
667.7397, 973.3113
668.2218, 974.9734
668.7039, 974.3156
669.1860, 965.8147
669.6682, 958.1151
670.1503, 958.1707
670.6324, 965.0671
671.1145, 975.9775
671.5966, 990.4530
672.0787, 1001.560
672.5609, 995.5116
673.0430, 975.5093
673.5251, 966.0551
674.0072, 971.1573
674.4893, 976.3654
674.9714, 972.0895
675.4536, 962.9128
675.9357, 961.1260
676.4178, 971.8521
676.8999, 978.7639
677.3820, 979.4172
677.8641, 978.2476
678.3463, 976.4599
678.8284, 974.8047
679.3105, 974.2615
679.7926, 975.1411
680.2747, 976.4307
680.7568, 977.3715
681.2390, 977.9664
681.7211, 977.5538
682.2032, 976.2744
682.6853, 977.6751
683.1674, 984.1974
683.6495, 990.9827
684.1317, 989.4490
684.6138, 976.4801
685.0959, 971.7737
685.5780, 984.4907
686.0601, 994.4926
686.5422, 995.3485
687.0244, 992.1195
687.5065, 989.4263
687.9886, 988.1172
688.4707, 988.1996
688.9528, 993.3124
689.4349, 997.0423
689.9171, 987.8351
690.3992, 971.1614
690.8813, 965.1027
691.3634, 974.3170
691.8455, 984.9490
692.3276, 982.1877
692.8098, 968.2562
693.2919, 963.6705
693.7740, 974.4474
694.2561, 981.1835
694.7382, 975.8431
695.2203, 969.4029
695.7025, 970.7079
696.1846, 977.5229
696.6667, 980.9498
697.1488, 977.7285
697.6309, 972.2829
698.1130, 962.5085
698.5952, 954.3774
699.0773, 958.3914
699.5594, 972.6474
700.0415, 984.4413
700.5236, 985.8214
701.0057, 981.0559
701.4879, 978.0615
701.9700, 976.7802
702.4521, 978.8264
702.9342, 985.8747
703.4163, 992.3375
703.8984, 994.8125
704.3806, 994.4714
704.8627, 993.8690
705.3448, 992.0887
705.8269, 992.6464
706.3090, 999.2896
706.7911, 1005.143
707.2733, 1003.890
707.7554, 999.7424
708.2375, 1001.353
708.7196, 1010.962
709.2017, 1019.635
709.6838, 1016.744
710.1660, 1007.015
710.6481, 1001.704
711.1302, 1000.938
711.6123, 1004.962
712.0944, 1014.913
712.5765, 1025.225
713.0587, 1028.718
713.5408, 1025.028
714.0229, 1022.182
714.5050, 1018.580
714.9871, 1018.161
715.4692, 1026.905
715.9514, 1034.803
716.4335, 1028.557
716.9156, 1012.533
717.3977, 1008.803
717.8798, 1034.803
718.3619, 1063.723
718.8441, 1074.817
719.3262, 1074.119
719.8083, 1070.048
720.2904, 1064.674
720.7725, 1058.764
721.2546, 1052.193
721.7368, 1048.262
722.2189, 1058.091
722.7010, 1085.423
723.1831, 1099.457
723.6652, 1091.712
724.1473, 1082.595
724.6295, 1081.514
725.1116, 1087.575
725.5937, 1100.041
726.0758, 1122.941
726.5579, 1137.799
727.0400, 1134.278
727.5222, 1128.974
728.0043, 1130.677
728.4864, 1137.763
728.9685, 1147.269
729.4506, 1158.082
729.9327, 1169.142
730.4149, 1179.102
730.8970, 1188.729
731.3791, 1199.816
731.8612, 1212.275
732.3433, 1225.663
732.8254, 1240.182
733.3076, 1253.568
733.7897, 1262.840
734.2718, 1268.570
734.7539, 1278.785
735.2360, 1294.261
735.7181, 1313.171
736.2003, 1338.052
736.6824, 1363.700
737.1645, 1387.930
737.6466, 1410.406
738.1287, 1430.323
738.6108, 1446.591
739.0930, 1462.698
739.5751, 1481.344
740.0572, 1500.415
740.5393, 1516.893
741.0214, 1531.315
741.5035, 1545.990
741.9857, 1561.869
742.4678, 1579.514
742.9499, 1603.165
743.4320, 1631.492
743.9141, 1642.801
744.3962, 1632.257
744.8784, 1630.850
745.3605, 1654.073
745.8426, 1687.001
746.3247, 1710.256
746.8068, 1723.125
747.2889, 1732.628
747.7711, 1740.238
748.2532, 1742.912
748.7353, 1733.627
749.2174, 1723.823
749.6995, 1726.739
750.1816, 1739.603
750.6638, 1746.828
751.1459, 1739.119
751.6280, 1726.909
752.1101, 1716.199
752.5922, 1709.094
753.0743, 1713.745
753.5565, 1728.332
754.0386, 1737.457
754.5207, 1732.194
755.0028, 1715.709
755.4849, 1691.047
755.9670, 1656.323
756.4492, 1632.622
756.9313, 1624.805
757.4134, 1616.316
757.8955, 1597.217
758.3776, 1575.457
758.8597, 1565.259
759.3419, 1568.376
759.8240, 1563.474
760.3061, 1541.367
760.7882, 1519.907
761.2703, 1506.620
761.7524, 1496.815
762.2346, 1485.517
762.7167, 1472.222
763.1988, 1458.687
763.6809, 1445.173
764.1630, 1433.187
764.6451, 1424.813
765.1273, 1419.219
765.6094, 1413.895
766.0915, 1408.723
766.5736, 1405.616
767.0557, 1405.539
767.5378, 1409.292
768.0200, 1419.636
768.5021, 1437.986
768.9842, 1454.240
769.4663, 1468.130
769.9484, 1479.915
770.4305, 1487.284
770.9127, 1494.239
771.3948, 1506.728
771.8769, 1524.934
772.3590, 1544.591
772.8411, 1560.986
773.3232, 1583.712
773.8054, 1619.332
774.2875, 1661.242
774.7696, 1703.882
775.2517, 1745.840
775.7338, 1786.600
776.2159, 1826.015
776.6981, 1863.831
777.1802, 1899.302
777.6623, 1933.071
778.1444, 1964.883
778.6265, 1995.524
779.1086, 2031.770
779.5908, 2077.545
780.0729, 2128.598
780.5550, 2178.401
781.0371, 2227.482
781.5192, 2268.407
782.0013, 2299.523
782.4835, 2327.447
782.9656, 2356.652
783.4477, 2381.876
783.9298, 2396.306
784.4119, 2399.943
784.8940, 2396.503
785.3762, 2388.622
785.8583, 2370.396
786.3404, 2333.688
786.8225, 2291.217
787.3046, 2253.761
787.7867, 2220.355
788.2689, 2183.471
788.7510, 2138.460
789.2331, 2093.549
789.7152, 2054.941
790.1973, 2020.884
790.6794, 1986.529
791.1616, 1953.273
791.6437, 1929.077
792.1258, 1917.181
792.6079, 1909.428
793.0900, 1891.935
793.5721, 1867.246
794.0543, 1864.796
794.5364, 1889.478
795.0185, 1903.574
795.5006, 1890.190
795.9827, 1876.099
796.4648, 1889.642
796.9470, 1927.749
797.4291, 1956.780
797.9112, 1963.082
798.3933, 1979.801
798.8754, 2016.795
799.3575, 2056.214
799.8397, 2081.015
800.3218, 2102.775
800.8039, 2148.104
801.2860, 2226.964
801.7681, 2299.874
802.2502, 2338.284
802.7324, 2369.833
803.2145, 2418.388
803.6966, 2479.402
804.1787, 2544.254
804.6608, 2609.498
805.1429, 2671.809
805.6251, 2727.198
806.1072, 2779.431
806.5893, 2842.973
807.0714, 2913.889
807.5535, 2956.651
808.0356, 2963.932
808.5178, 2965.286
808.9999, 2980.287
809.4820, 3002.849
809.9641, 3016.493
810.4462, 3016.689
810.9283, 3025.124
811.4105, 3047.151
811.8926, 3068.669
812.3747, 3078.323
812.8568, 3088.706
813.3389, 3116.896
813.8210, 3162.830
814.3032, 3203.424
814.7853, 3216.508
815.2674, 3247.588
815.7495, 3316.834
816.2316, 3407.000
816.7137, 3507.419
817.1959, 3614.207
817.6780, 3721.583
818.1601, 3824.857
818.6422, 3939.762
819.1243, 4085.950
819.6064, 4250.463
820.0886, 4406.795
820.5707, 4562.205
821.0528, 4745.036
821.5349, 4966.654
822.0170, 5208.943
822.4991, 5451.546
822.9813, 5700.858
823.4634, 5988.146
823.9455, 6316.855
824.4276, 6656.385
824.9097, 7001.245
825.3918, 7354.060
825.8740, 7717.163
826.3561, 8089.729
826.8382, 8467.479
827.3203, 8877.875
827.8024, 9230.700
828.2845, 9548.223
828.7667, 9778.209
829.2488, 9893.833
829.7309, 9919.353
830.2130, 9881.289
830.6951, 9781.639
831.1772, 9613.882
831.6594, 9349.193
832.1415, 9049.221
832.6236, 8723.609
833.1057, 8387.116
833.5878, 8039.685
834.0699, 7692.485
834.5521, 7369.643
835.0342, 7078.469
835.5163, 6832.322
835.9984, 6646.119
836.4805, 6510.366
836.9626, 6411.402
837.4448, 6347.808
837.9269, 6322.355
838.4090, 6335.020
838.8911, 6371.692
839.3732, 6416.803
839.8553, 6474.663
840.3375, 6564.227
840.8196, 6685.873
841.3017, 6824.314
841.7838, 6982.011
842.2659, 7133.003
842.7480, 7262.969
843.2302, 7371.372
843.7123, 7459.288
844.1944, 7531.441
844.6765, 7567.455
845.1586, 7567.137
845.6407, 7531.049
846.1229, 7452.138
846.6050, 7341.625
847.0871, 7204.893
847.5692, 7043.524
848.0513, 6873.614
848.5334, 6691.088
849.0156, 6507.618
849.4977, 6310.285
849.9798, 6127.456
850.4619, 5978.051
850.9440, 5859.994
851.4261, 5765.809
851.9083, 5692.278
852.3904, 5648.113
852.8725, 5641.281
853.3546, 5664.082
853.8367, 5714.977
854.3188, 5787.060
854.8010, 5863.853
855.2831, 5944.876
855.7652, 6050.827
856.2473, 6200.866
856.7294, 6371.542
857.2115, 6531.665
857.6937, 6676.996
858.1758, 6788.695
858.6579, 6865.114
859.1400, 6924.045
859.6221, 6977.949
860.1042, 6990.703
860.5864, 6906.396
861.0685, 6727.902
861.5506, 6522.323
862.0327, 6286.075
862.5148, 6034.681
862.9969, 5764.692
863.4791, 5487.724
863.9612, 5207.009
864.4433, 4926.892
864.9254, 4667.826
865.4075, 4436.262
865.8896, 4210.743
866.3718, 3972.120
866.8539, 3760.499
867.3360, 3602.543
867.8181, 3470.441
868.3002, 3332.684
868.7823, 3188.495
869.2645, 3060.860
869.7466, 2957.954
870.2287, 2870.477
870.7108, 2804.394
871.1929, 2744.885
871.6750, 2678.485
872.1572, 2607.980
872.6393, 2541.761
873.1214, 2482.354
873.6035, 2431.543
874.0856, 2395.032
874.5677, 2363.769
875.0499, 2327.738
875.5320, 2288.634
876.0141, 2252.160
876.4962, 2218.296
876.9783, 2179.993
877.4604, 2131.971
877.9426, 2079.410
878.4247, 2030.669
878.9068, 1984.822
879.3889, 1938.553
879.8710, 1891.716
880.3531, 1844.275
880.8353, 1796.484
881.3174, 1749.354
881.7995, 1703.917
882.2816, 1660.396
882.7637, 1619.648
883.2458, 1581.377
883.7280, 1550.176
884.2101, 1529.145
884.6922, 1507.817
885.1743, 1478.660
885.6564, 1446.120
886.1385, 1419.375
886.6207, 1398.463
887.1028, 1384.171
887.5849, 1384.962
888.0670, 1378.720
888.5491, 1356.908
889.0313, 1328.193
889.5134, 1292.517
889.9955, 1254.927
890.4776, 1239.132
890.9597, 1265.070
891.4418, 1279.656
891.9240, 1268.832
892.4061, 1252.478
892.8882, 1237.885
893.3703, 1225.868
893.8524, 1217.584
894.3345, 1212.757
894.8167, 1207.078
895.2988, 1194.375
895.7809, 1185.854
896.2630, 1192.124
896.7451, 1202.012
897.2272, 1202.814
897.7094, 1197.053
898.1915, 1194.997
898.6736, 1200.354
899.1557, 1204.670
899.6378, 1197.292
900.1199, 1188.238
900.6021, 1192.133
901.0842, 1203.329
901.5663, 1209.232
902.0484, 1208.269
902.5305, 1206.204
903.0126, 1206.184
903.4948, 1209.515
903.9769, 1219.175
904.4590, 1233.603
904.9411, 1247.709
905.4232, 1261.486
905.9053, 1276.707
906.3875, 1293.917
906.8696, 1311.630
907.3517, 1328.499
907.8338, 1344.612
908.3159, 1360.909
908.7980, 1377.392
909.2802, 1389.723
909.7623, 1396.751
910.2444, 1405.512
910.7265, 1420.657
911.2086, 1435.278
911.6907, 1439.330
912.1729, 1432.869
912.6550, 1423.023
913.1371, 1409.725
913.6192, 1393.035
914.1013, 1372.021
914.5834, 1349.330
915.0656, 1326.508
915.5477, 1303.197
916.0298, 1277.939
916.5119, 1249.215
916.9940, 1224.070
917.4761, 1201.937
917.9583, 1184.253
918.4404, 1171.539
918.9225, 1163.088
919.4046, 1160.097
919.8867, 1161.030
920.3688, 1160.185
920.8510, 1155.329
921.3331, 1152.712
921.8152, 1154.374
922.2973, 1157.130
922.7794, 1156.864
923.2615, 1158.614
923.7437, 1171.198
924.2258, 1193.008
924.7079, 1208.855
925.1900, 1212.738
925.6721, 1212.456
926.1542, 1203.864
926.6364, 1199.178
927.1185, 1211.062
927.6006, 1232.760
928.0827, 1252.558
928.5648, 1267.730
929.0469, 1281.636
929.5291, 1299.529
930.0112, 1312.909
930.4933, 1313.891
930.9754, 1307.783
931.4575, 1302.013
931.9396, 1295.205
932.4218, 1281.225
932.9039, 1257.813
933.3860, 1229.432
933.8681, 1198.067
934.3502, 1165.460
934.8323, 1132.849
935.3145, 1101.222
935.7966, 1072.682
936.2787, 1047.791
936.7608, 1026.497
937.2429, 1008.787
937.7250, 996.0176
938.2072, 992.0320
938.6893, 993.2807
939.1714, 990.6251
939.6535, 985.6024
940.1356, 985.9509
940.6177, 992.8311
941.0999, 999.6858
941.5820, 1002.164
942.0641, 1000.548
942.5462, 992.7242
943.0283, 980.8725
943.5104, 977.6401
943.9926, 982.8582
944.4747, 987.5337
944.9568, 988.9363
945.4389, 987.6121
945.9210, 983.6048
946.4031, 978.2837
946.8853, 974.8573
947.3674, 973.3400
947.8495, 976.8858
948.3316, 986.2449
948.8137, 993.6056
949.2958, 995.2979
949.7780, 997.2026
950.2601, 1006.098
950.7422, 1020.715
951.2243, 1034.257
951.7064, 1046.367
952.1885, 1059.731
952.6707, 1074.808
953.1528, 1090.246
953.6349, 1105.999
954.1170, 1120.273
954.5991, 1129.369
955.0812, 1133.918
955.5634, 1149.688
956.0455, 1180.355
956.5276, 1210.486
957.0097, 1236.604
957.4918, 1266.030
957.9739, 1303.507
958.4561, 1345.795
958.9382, 1387.232
959.4203, 1427.564
959.9024, 1472.806
960.3845, 1522.865
960.8666, 1578.086
961.3488, 1639.255
961.8309, 1704.609
962.3130, 1774.050
962.7951, 1846.164
963.2772, 1920.317
963.7593, 1999.002
964.2415, 2066.388
964.7236, 2121.333
965.2057, 2166.639
965.6878, 2203.164
966.1699, 2229.988
966.6520, 2248.947
967.1342, 2257.389
967.6163, 2250.338
968.0984, 2229.619
968.5805, 2185.573
969.0626, 2103.411
969.5447, 2016.813
970.0269, 1927.012
970.5090, 1842.265
970.9911, 1771.375
971.4732, 1709.921
971.9553, 1645.999
972.4374, 1575.535
972.9196, 1513.128
973.4017, 1465.067
973.8838, 1419.102
974.3659, 1365.587
974.8480, 1316.984
975.3301, 1287.507
975.8123, 1272.310
976.2944, 1256.120
976.7765, 1236.634
977.2586, 1215.794
977.7407, 1195.352
978.2228, 1172.132
978.7050, 1138.963
979.1871, 1106.947
979.6692, 1090.466
980.1513, 1085.092
980.6334, 1071.245
981.1155, 1038.791
981.5977, 1016.699
982.0798, 1027.246
982.5619, 1034.238
983.0440, 1011.380
983.5261, 980.8455
984.0082, 969.5465
984.4904, 974.3199
984.9725, 972.9433
985.4546, 956.7422
985.9367, 942.5769
986.4188, 936.7277
986.9009, 934.3149
987.3831, 934.4791
987.8652, 935.0985
988.3473, 934.4729
988.8294, 932.1924
989.3115, 927.5655
989.7936, 919.2673
990.2758, 911.9515
990.7579, 907.5095
991.2400, 904.7171
991.7221, 904.5488
992.2042, 904.4168
992.6863, 901.4032
993.1685, 895.4047
993.6506, 886.5498
994.1327, 870.6472
994.6148, 864.4766
995.0969, 888.6100
995.5790, 910.9434
996.0612, 905.4340
996.5433, 887.8234
997.0254, 875.7471
997.5075, 872.2792
997.9896, 878.3527
998.4717, 900.4330
998.9539, 913.3078
999.4360, 894.7183
999.9181, 874.2676
1000.400, 874.2475
1000.882, 883.6795
1001.364, 889.3863
1001.847, 889.5588
1002.329, 885.6720
1002.811, 875.9006
1003.293, 869.4850
1003.775, 874.0648
1004.257, 879.8759
1004.739, 881.2327
1005.221, 879.1724
1005.703, 872.3729
1006.186, 863.6252
1006.668, 863.3097
1007.150, 878.7178
1007.632, 889.8141
1008.114, 883.5597
1008.596, 874.3159
1009.078, 869.2712
1009.560, 868.0515
1010.043, 870.9714
1010.525, 876.7062
1011.007, 882.1182
1011.489, 887.9722
1011.971, 887.0273
1012.453, 867.0717
1012.935, 849.7642
1013.417, 849.5757
1013.899, 858.3128
1014.382, 871.0517
1014.864, 883.5121
1015.346, 885.0280
1015.828, 868.9161
1016.310, 858.1729
1016.792, 867.7549
1017.274, 877.7471
1017.756, 874.6958
1018.239, 868.6722
1018.721, 872.4315
1019.203, 882.5737
1019.685, 885.6732
1020.167, 877.1151
1020.649, 869.3222
1021.131, 865.6489
1021.613, 864.4559
1022.095, 867.5856
1022.578, 870.6098
1023.060, 866.8885
1023.542, 860.2278
1024.024, 862.1766
1024.506, 877.0131
1024.988, 886.0221
1025.470, 877.7251
1025.952, 871.4495
1026.435, 877.7570
1026.917, 885.7651
1027.399, 885.8925
1027.881, 881.0922
1028.363, 879.6608
1028.845, 883.6481
1029.327, 882.2489
1029.809, 864.5935
1030.292, 853.6957
1030.774, 861.9268
1031.256, 872.6103
1031.738, 872.8340
1032.220, 868.2365
1032.702, 871.5103
1033.184, 884.7133
1033.666, 888.6305
1034.148, 872.4924
1034.630, 859.8896
1035.113, 854.0931
1035.595, 853.3263
1036.077, 859.1798
1036.559, 868.1164
1037.041, 875.9618
1037.523, 882.7413
1038.005, 884.9762
1038.487, 878.6202
1038.970, 874.3276
1039.452, 876.3534
1039.934, 875.5829
1040.416, 862.8241
1040.898, 849.7596
1041.380, 852.8539
1041.862, 870.0894
1042.344, 878.8840
1042.826, 875.6118
1043.309, 871.7229
1043.791, 867.9721
1044.273, 862.6250
1044.755, 852.8682
1045.237, 844.2760
1045.719, 842.8682
1046.201, 847.3169
1046.683, 851.7103
1047.166, 856.7647
1047.648, 859.6018
1048.130, 860.7008
1048.612, 857.4846
1049.094, 847.3126
1049.576, 837.2183
1050.058, 832.8096
1050.540, 833.3828
1051.022, 838.3134
1051.505, 848.7574
1051.987, 850.7897
1052.469, 842.5714
1052.951, 837.9919
1053.433, 841.0869
1053.915, 844.0629
1054.397, 841.8714
1054.879, 835.6285
1055.361, 825.3729
1055.844, 812.3130
1056.326, 812.6675
1056.808, 826.3727
1057.290, 837.3898
1057.772, 843.0352
1058.254, 840.9614
1058.736, 829.4960
1059.218, 814.6116
1059.701, 802.1085
1060.183, 794.3398
1060.665, 805.2089
1061.147, 829.3177
1061.629, 833.1852
1062.111, 816.0993
1062.593, 805.5240
1063.075, 811.9003
1063.557, 821.1403
1064.040, 819.1868
1064.522, 812.6777
1065.004, 815.6656
1065.486, 822.9648
1065.968, 819.5674
1066.450, 808.3940
1066.932, 803.8776
1067.414, 809.0413
1067.896, 814.8618
1068.379, 815.5226
1068.861, 813.0655
1069.343, 807.5558
1069.825, 802.0570
1070.307, 801.6081
1070.789, 804.2092
1071.271, 805.6430
1071.753, 805.4484
1072.236, 806.4720
1072.718, 810.8303
1073.200, 810.4192
1073.682, 791.8403
1074.164, 774.1017
1074.646, 777.5068
1075.128, 787.7806
1075.610, 784.6470
1076.093, 772.7868
1076.575, 771.4858
1077.057, 786.2675
1077.539, 796.7982
1078.021, 788.6695
1078.503, 781.7394
1078.985, 790.2608
1079.467, 798.2352
1079.949, 788.8879
1080.432, 772.4706
1080.914, 768.2997
1081.396, 777.7758
1081.878, 782.7067
1082.360, 774.8607
1082.842, 769.9260
1083.324, 772.6315
1083.806, 775.8754
1084.288, 776.0125
1084.771, 775.4406
1085.253, 777.3355
1085.735, 780.9354
1086.217, 782.1890
1086.699, 778.6116
1087.181, 779.5586
1087.663, 788.1111
1088.145, 794.8522
1088.628, 796.5968
1089.110, 797.5287
1089.592, 801.6564
1090.074, 805.8361
1090.556, 802.2505
1091.038, 790.4079
1091.520, 785.8959
1092.002, 790.2230
1092.484, 791.8969
1092.967, 788.4867
1093.449, 786.5099
1093.931, 789.4718
1094.413, 794.4647
1094.895, 798.3963
1095.377, 800.6052
1095.859, 797.0324
1096.341, 788.8395
1096.823, 785.7133
1097.306, 787.9208
1097.788, 789.8749
1098.270, 789.7508
1098.752, 789.1871
1099.234, 789.8024
1099.716, 789.3047
1100.198, 781.2240
1100.680, 771.0573
1101.163, 771.4929
1101.645, 779.1012
1102.127, 785.8527
1102.609, 789.3292
1103.091, 786.5753
1103.573, 775.7233
1104.055, 767.3601
1104.537, 774.8849
1105.020, 783.9146
1105.502, 777.9706
1105.984, 768.3080
1106.466, 771.1451
1106.948, 781.2224
1107.430, 783.3531
1107.912, 774.7222
1108.394, 767.3189
1108.876, 766.0104
1109.359, 766.8105
1109.841, 770.7340
1110.323, 773.5323
1110.805, 772.8225
1111.287, 769.3419
1111.769, 762.7683
1112.251, 754.1526
1112.733, 747.8158
1113.215, 741.7045
1113.698, 744.3522
1114.180, 767.8226
1114.662, 780.7355
1115.144, 768.1972
1115.626, 754.5253
1116.108, 756.1235
1116.590, 767.2771
1117.072, 778.8746
1117.555, 790.9630
1118.037, 791.8777
1118.519, 778.8242
1119.001, 770.5999
1119.483, 769.9434
1119.965, 770.8282
1120.447, 771.0108
1120.929, 769.7140
1121.411, 765.7828
1121.894, 760.6705
1122.376, 758.5626
1122.858, 758.7818
1123.340, 758.0460
1123.822, 756.1871
1124.304, 752.2585
1124.786, 746.6544
1125.268, 743.5645
1125.750, 745.4448
1126.233, 749.4113
1126.715, 752.6199
1127.197, 755.6397
1127.679, 760.5136
1128.161, 764.9720
1128.643, 765.5962
1129.125, 762.4737
1129.607, 754.5494
1130.090, 742.7940
1130.572, 738.6884
1131.054, 753.6031
1131.536, 767.4844
1132.018, 769.0336
1132.500, 767.0159
1132.982, 769.0050
1133.464, 769.7598
1133.947, 759.3137
1134.429, 741.3768
1134.911, 732.5504
1135.393, 737.6638
1135.875, 742.0933
1136.357, 744.1099
1136.839, 746.2733
1137.321, 748.5991
1137.803, 751.9561
1138.286, 758.3942
1138.768, 764.2239
1139.250, 763.3491
1139.732, 756.6954
1140.214, 753.0607
1140.696, 752.7543
1141.178, 753.7620
1141.660, 756.3906
1142.142, 753.7532
1142.625, 743.0775
1143.107, 737.3962
1143.589, 747.8774
1144.071, 763.9172
1144.553, 766.4083
1145.035, 759.6854
1145.517, 756.0717
1145.999, 754.8413
1146.482, 754.1287
1146.964, 753.0212
1147.446, 748.6605
1147.928, 740.3579
1148.410, 733.9776
1148.892, 734.6249
1149.374, 737.6241
1149.856, 741.7222
1150.339, 743.4429
1150.821, 734.6685
1151.303, 723.9669
1151.785, 726.1199
1152.267, 739.2661
1152.749, 747.8749
1153.231, 747.0769
1153.713, 746.0797
1154.195, 747.0872
1154.677, 748.0459
1155.160, 751.4549
1155.642, 750.9915
1156.124, 738.1425
1156.606, 723.0135
1157.088, 721.0259
1157.570, 731.0282
1158.052, 740.5620
1158.534, 751.8900
1159.017, 749.4755
1159.499, 728.4196
1159.981, 720.3218
1160.463, 736.3124
1160.945, 752.3500
1161.427, 750.4478
1161.909, 741.6178
1162.391, 747.0336
1162.874, 759.8569
1163.356, 753.0757
1163.838, 734.4499
1164.320, 730.4354
1164.802, 740.3641
1165.284, 748.8763
1165.766, 750.7146
1166.248, 748.2487
1166.730, 742.1336
1167.213, 734.6475
1167.695, 722.2289
1168.177, 714.9222
1168.659, 728.2101
1169.141, 747.2941
1169.623, 753.8947
1170.105, 749.4235
1170.587, 742.7048
1171.069, 734.4776
1171.552, 730.9529
1172.034, 735.9181
1172.516, 741.5222
1172.998, 750.5856
1173.480, 754.0228
1173.962, 744.1456
1174.444, 732.1203
1174.926, 729.1893
1175.409, 733.8340
1175.891, 742.6986
1176.373, 756.7962
1176.855, 758.3193
1177.337, 746.8630
1177.819, 742.9194
1178.301, 750.0325
1178.783, 753.2440
1179.266, 745.2491
1179.748, 735.3716
1180.230, 733.5842
1180.712, 735.6955
1181.194, 736.1710
1181.676, 735.0119
1182.158, 731.3118
1182.640, 726.3477
1183.122, 721.7224
1183.604, 718.4422
1184.087, 718.9117
1184.569, 724.4796
1185.051, 730.1600
1185.533, 734.0941
1186.015, 737.0836
1186.497, 739.1521
1186.979, 740.7482
1187.461, 746.4600
1187.944, 748.9880
1188.426, 733.8648
1188.908, 705.5271
1189.390, 691.5433
1189.872, 693.9149
1190.354, 705.7188
1190.836, 731.6935
1191.318, 745.3387
1191.801, 739.7043
1192.283, 728.1293
1192.765, 717.4894
1193.247, 709.7327
1193.729, 706.7687
1194.211, 709.2576
1194.693, 724.3310
1195.175, 744.1462
1195.657, 744.0779
1196.140, 730.5891
1196.622, 728.6757
1197.104, 739.3663
1197.586, 739.6996
1198.068, 718.1268
1198.550, 700.4962
1199.032, 706.9570
1199.514, 716.8553
1199.996, 720.0978
1200.479, 720.3885
1200.961, 718.6008
1201.443, 717.1895
1201.925, 721.3338
1202.407, 729.6381
1202.889, 730.4514
1203.371, 720.3901
1203.853, 712.8662
1204.336, 705.8120
1204.818, 709.7886
1205.300, 730.1101
1205.782, 746.8495
1206.264, 749.0179
1206.746, 744.6170
1207.228, 742.2420
1207.710, 742.0867
1208.193, 747.8227
1208.675, 755.0987
1209.157, 747.3528
1209.639, 730.6198
1210.121, 725.9058
1210.603, 733.4399
1211.085, 735.6580
1211.567, 725.4031
1212.049, 719.1254
1212.531, 732.2421
1213.014, 744.8175
1213.496, 748.1094
1213.978, 745.1918
1214.460, 732.2994
1214.942, 718.7438
1215.424, 717.2220
1215.906, 724.7177
1216.388, 728.7569
1216.871, 728.7215
1217.353, 729.0523
1217.835, 730.0827
1218.317, 730.2292
1218.799, 729.4090
1219.281, 725.5113
1219.763, 717.1078
1220.245, 712.8132
1220.728, 721.1115
1221.210, 735.5511
1221.692, 747.1176
1222.174, 755.0374
1222.656, 756.1503
1223.138, 753.1287
1223.620, 752.7613
1224.102, 753.1765
1224.584, 743.7424
1225.067, 723.4274
1225.549, 713.2146
1226.031, 728.4651
1226.513, 742.5595
1226.995, 747.4224
1227.477, 748.2510
1227.959, 743.1611
1228.441, 739.4090
1228.923, 743.8940
1229.406, 751.6262
1229.888, 753.9535
1230.370, 751.3729
1230.852, 748.8957
1231.334, 746.4793
1231.816, 745.8762
1232.298, 747.0179
1232.780, 745.6326
1233.263, 740.8362
1233.745, 734.4650
##END=



