##NAMES=Clinoferrosilite
##RRUFFID=R141085
##IDEAL CHEMISTRY=Fe^2+^SiO_3_
##LOCALITY=Caspar quarry, Bellerberg volcano, Ettringen, Mayen, Eifel, Rhineland-Palatinate, Germany
##OWNER=RRUFF
##SOURCE=Ch. and H. Sch√§fer
##DESCRIPTION=Brown prismatic crystals, associated with pyroxferroite, R141080
##STATUS=The identification of this mineral has been confirmed by single-crystal X-ray diffraction.
##URL=rruff.info/R141085
8.813672e+001, 2.293215e+002
8.861884e+001, 2.332143e+002
8.910095e+001, 2.364837e+002
8.958307e+001, 2.387912e+002
9.006519e+001, 2.415541e+002
9.054730e+001, 2.465395e+002
9.102942e+001, 2.554460e+002
9.151154e+001, 2.638154e+002
9.199365e+001, 2.658300e+002
9.247577e+001, 2.624820e+002
9.295789e+001, 2.586729e+002
9.344000e+001, 2.578021e+002
9.392212e+001, 2.589259e+002
9.440424e+001, 2.600251e+002
9.488635e+001, 2.613871e+002
9.536847e+001, 2.625846e+002
9.585059e+001, 2.621914e+002
9.633270e+001, 2.600916e+002
9.681482e+001, 2.578429e+002
9.729694e+001, 2.564567e+002
9.777905e+001, 2.559138e+002
9.826117e+001, 2.571417e+002
9.874329e+001, 2.611859e+002
9.922540e+001, 2.674261e+002
9.970752e+001, 2.713169e+002
1.001896e+002, 2.724013e+002
1.006718e+002, 2.720785e+002
1.011539e+002, 2.718201e+002
1.016360e+002, 2.714323e+002
1.021181e+002, 2.717897e+002
1.026002e+002, 2.732651e+002
1.030823e+002, 2.760045e+002
1.035645e+002, 2.787670e+002
1.040466e+002, 2.810607e+002
1.045287e+002, 2.837002e+002
1.050108e+002, 2.883604e+002
1.054929e+002, 2.957070e+002
1.059750e+002, 3.040370e+002
1.064572e+002, 3.130890e+002
1.069393e+002, 3.258936e+002
1.074214e+002, 3.339646e+002
1.079035e+002, 3.357177e+002
1.083856e+002, 3.326452e+002
1.088677e+002, 3.298479e+002
1.093499e+002, 3.265101e+002
1.098320e+002, 3.240320e+002
1.103141e+002, 3.230099e+002
1.107962e+002, 3.240646e+002
1.112783e+002, 3.258532e+002
1.117604e+002, 3.284224e+002
1.122426e+002, 3.317311e+002
1.127247e+002, 3.353407e+002
1.132068e+002, 3.388742e+002
1.136889e+002, 3.428613e+002
1.141710e+002, 3.476346e+002
1.146531e+002, 3.551288e+002
1.151353e+002, 3.616386e+002
1.156174e+002, 3.656362e+002
1.160995e+002, 3.670904e+002
1.165816e+002, 3.688517e+002
1.170637e+002, 3.729583e+002
1.175458e+002, 3.775948e+002
1.180280e+002, 3.808367e+002
1.185101e+002, 3.807172e+002
1.189922e+002, 3.798018e+002
1.194743e+002, 3.793714e+002
1.199564e+002, 3.794830e+002
1.204385e+002, 3.802800e+002
1.209207e+002, 3.811599e+002
1.214028e+002, 3.828220e+002
1.218849e+002, 3.864775e+002
1.223670e+002, 3.957215e+002
1.228491e+002, 4.059841e+002
1.233312e+002, 4.123327e+002
1.238134e+002, 4.138407e+002
1.242955e+002, 4.129183e+002
1.247776e+002, 4.105652e+002
1.252597e+002, 4.072869e+002
1.257418e+002, 4.047713e+002
1.262239e+002, 4.041646e+002
1.267061e+002, 4.050360e+002
1.271882e+002, 4.065529e+002
1.276703e+002, 4.085931e+002
1.281524e+002, 4.112774e+002
1.286345e+002, 4.151912e+002
1.291166e+002, 4.202133e+002
1.295988e+002, 4.250827e+002
1.300809e+002, 4.289434e+002
1.305630e+002, 4.318718e+002
1.310451e+002, 4.342199e+002
1.315272e+002, 4.359436e+002
1.320093e+002, 4.371489e+002
1.324915e+002, 4.379714e+002
1.329736e+002, 4.383607e+002
1.334557e+002, 4.387383e+002
1.339378e+002, 4.392994e+002
1.344199e+002, 4.400476e+002
1.349020e+002, 4.414576e+002
1.353842e+002, 4.438481e+002
1.358663e+002, 4.469721e+002
1.363484e+002, 4.496692e+002
1.368305e+002, 4.517090e+002
1.373126e+002, 4.539260e+002
1.377947e+002, 4.574691e+002
1.382769e+002, 4.627099e+002
1.387590e+002, 4.674716e+002
1.392411e+002, 4.714189e+002
1.397232e+002, 4.745905e+002
1.402053e+002, 4.754478e+002
1.406874e+002, 4.733583e+002
1.411696e+002, 4.698123e+002
1.416517e+002, 4.667188e+002
1.421338e+002, 4.640642e+002
1.426159e+002, 4.619118e+002
1.430980e+002, 4.603424e+002
1.435801e+002, 4.594909e+002
1.440623e+002, 4.586905e+002
1.445444e+002, 4.577476e+002
1.450265e+002, 4.569979e+002
1.455086e+002, 4.570731e+002
1.459907e+002, 4.585915e+002
1.464728e+002, 4.601511e+002
1.469550e+002, 4.614448e+002
1.474371e+002, 4.628719e+002
1.479192e+002, 4.630752e+002
1.484013e+002, 4.612148e+002
1.488834e+002, 4.582286e+002
1.493655e+002, 4.561359e+002
1.498477e+002, 4.551606e+002
1.503298e+002, 4.549023e+002
1.508119e+002, 4.552892e+002
1.512940e+002, 4.572160e+002
1.517761e+002, 4.584619e+002
1.522583e+002, 4.584739e+002
1.527404e+002, 4.576842e+002
1.532225e+002, 4.573157e+002
1.537046e+002, 4.574222e+002
1.541867e+002, 4.580031e+002
1.546688e+002, 4.591151e+002
1.551510e+002, 4.625945e+002
1.556331e+002, 4.643786e+002
1.561152e+002, 4.627657e+002
1.565973e+002, 4.586274e+002
1.570794e+002, 4.554196e+002
1.575615e+002, 4.543335e+002
1.580437e+002, 4.541051e+002
1.585258e+002, 4.539494e+002
1.590079e+002, 4.537117e+002
1.594900e+002, 4.535168e+002
1.599721e+002, 4.534168e+002
1.604542e+002, 4.533992e+002
1.609364e+002, 4.533885e+002
1.614185e+002, 4.529449e+002
1.619006e+002, 4.526943e+002
1.623827e+002, 4.531393e+002
1.628648e+002, 4.557995e+002
1.633469e+002, 4.579749e+002
1.638291e+002, 4.581129e+002
1.643112e+002, 4.563922e+002
1.647933e+002, 4.547231e+002
1.652754e+002, 4.543433e+002
1.657575e+002, 4.543900e+002
1.662396e+002, 4.539564e+002
1.667218e+002, 4.517902e+002
1.672039e+002, 4.497387e+002
1.676860e+002, 4.491329e+002
1.681681e+002, 4.499601e+002
1.686502e+002, 4.510544e+002
1.691323e+002, 4.516615e+002
1.696145e+002, 4.520840e+002
1.700966e+002, 4.527314e+002
1.705787e+002, 4.543515e+002
1.710608e+002, 4.559174e+002
1.715429e+002, 4.564232e+002
1.720250e+002, 4.558176e+002
1.725072e+002, 4.549098e+002
1.729893e+002, 4.542425e+002
1.734714e+002, 4.537115e+002
1.739535e+002, 4.531233e+002
1.744356e+002, 4.521475e+002
1.749177e+002, 4.511792e+002
1.753999e+002, 4.506896e+002
1.758820e+002, 4.507118e+002
1.763641e+002, 4.510267e+002
1.768462e+002, 4.514357e+002
1.773283e+002, 4.519712e+002
1.778104e+002, 4.527262e+002
1.782926e+002, 4.542470e+002
1.787747e+002, 4.558689e+002
1.792568e+002, 4.562876e+002
1.797389e+002, 4.553001e+002
1.802210e+002, 4.539826e+002
1.807031e+002, 4.535130e+002
1.811853e+002, 4.537359e+002
1.816674e+002, 4.541261e+002
1.821495e+002, 4.544978e+002
1.826316e+002, 4.548432e+002
1.831137e+002, 4.550789e+002
1.835958e+002, 4.551643e+002
1.840780e+002, 4.553262e+002
1.845601e+002, 4.561040e+002
1.850422e+002, 4.573672e+002
1.855243e+002, 4.582973e+002
1.860064e+002, 4.583112e+002
1.864885e+002, 4.576214e+002
1.869707e+002, 4.569637e+002
1.874528e+002, 4.563977e+002
1.879349e+002, 4.558295e+002
1.884170e+002, 4.549423e+002
1.888991e+002, 4.537719e+002
1.893812e+002, 4.529433e+002
1.898634e+002, 4.529647e+002
1.903455e+002, 4.536941e+002
1.908276e+002, 4.542851e+002
1.913097e+002, 4.547132e+002
1.917918e+002, 4.549198e+002
1.922739e+002, 4.546544e+002
1.927561e+002, 4.538839e+002
1.932382e+002, 4.532583e+002
1.937203e+002, 4.531068e+002
1.942024e+002, 4.534115e+002
1.946845e+002, 4.541580e+002
1.951666e+002, 4.555947e+002
1.956488e+002, 4.570644e+002
1.961309e+002, 4.569979e+002
1.966130e+002, 4.551981e+002
1.970951e+002, 4.534713e+002
1.975772e+002, 4.529517e+002
1.980593e+002, 4.536573e+002
1.985415e+002, 4.541591e+002
1.990236e+002, 4.543092e+002
1.995057e+002, 4.542726e+002
1.999878e+002, 4.544034e+002
2.004699e+002, 4.547163e+002
2.009520e+002, 4.551275e+002
2.014342e+002, 4.556507e+002
2.019163e+002, 4.563136e+002
2.023984e+002, 4.567392e+002
2.028805e+002, 4.567930e+002
2.033626e+002, 4.566908e+002
2.038447e+002, 4.570997e+002
2.043269e+002, 4.582152e+002
2.048090e+002, 4.591353e+002
2.052911e+002, 4.590919e+002
2.057732e+002, 4.578202e+002
2.062553e+002, 4.574433e+002
2.067374e+002, 4.583495e+002
2.072196e+002, 4.600606e+002
2.077017e+002, 4.612480e+002
2.081838e+002, 4.617646e+002
2.086659e+002, 4.621704e+002
2.091480e+002, 4.628249e+002
2.096301e+002, 4.638513e+002
2.101123e+002, 4.645329e+002
2.105944e+002, 4.646214e+002
2.110765e+002, 4.644540e+002
2.115586e+002, 4.650612e+002
2.120407e+002, 4.666900e+002
2.125228e+002, 4.685442e+002
2.130050e+002, 4.702751e+002
2.134871e+002, 4.719904e+002
2.139692e+002, 4.730575e+002
2.144513e+002, 4.730252e+002
2.149334e+002, 4.724689e+002
2.154155e+002, 4.732126e+002
2.158977e+002, 4.756966e+002
2.163798e+002, 4.786122e+002
2.168619e+002, 4.812925e+002
2.173440e+002, 4.837037e+002
2.178261e+002, 4.859044e+002
2.183082e+002, 4.877123e+002
2.187904e+002, 4.893417e+002
2.192725e+002, 4.915260e+002
2.197546e+002, 4.946062e+002
2.202367e+002, 4.975938e+002
2.207188e+002, 5.000827e+002
2.212009e+002, 5.023875e+002
2.216831e+002, 5.033974e+002
2.221652e+002, 5.029339e+002
2.226473e+002, 5.012129e+002
2.231294e+002, 4.988281e+002
2.236115e+002, 4.956168e+002
2.240936e+002, 4.920060e+002
2.245758e+002, 4.880648e+002
2.250579e+002, 4.835117e+002
2.255400e+002, 4.793922e+002
2.260221e+002, 4.757106e+002
2.265042e+002, 4.724726e+002
2.269863e+002, 4.698486e+002
2.274685e+002, 4.680641e+002
2.279506e+002, 4.664972e+002
2.284327e+002, 4.648277e+002
2.289148e+002, 4.627757e+002
2.293969e+002, 4.612221e+002
2.298790e+002, 4.602250e+002
2.303612e+002, 4.597051e+002
2.308433e+002, 4.594975e+002
2.313254e+002, 4.597226e+002
2.318075e+002, 4.600607e+002
2.322896e+002, 4.603993e+002
2.327717e+002, 4.607997e+002
2.332539e+002, 4.610098e+002
2.337360e+002, 4.608864e+002
2.342181e+002, 4.606108e+002
2.347002e+002, 4.606024e+002
2.351823e+002, 4.609110e+002
2.356644e+002, 4.614035e+002
2.361466e+002, 4.620902e+002
2.366287e+002, 4.631747e+002
2.371108e+002, 4.638462e+002
2.375929e+002, 4.638111e+002
2.380750e+002, 4.634754e+002
2.385571e+002, 4.637528e+002
2.390393e+002, 4.652007e+002
2.395214e+002, 4.663894e+002
2.400035e+002, 4.667691e+002
2.404856e+002, 4.661031e+002
2.409677e+002, 4.653740e+002
2.414498e+002, 4.645814e+002
2.419320e+002, 4.637429e+002
2.424141e+002, 4.628934e+002
2.428962e+002, 4.621703e+002
2.433783e+002, 4.612294e+002
2.438604e+002, 4.598557e+002
2.443425e+002, 4.577964e+002
2.448247e+002, 4.562765e+002
2.453068e+002, 4.554517e+002
2.457889e+002, 4.550744e+002
2.462710e+002, 4.547607e+002
2.467531e+002, 4.545568e+002
2.472352e+002, 4.543263e+002
2.477174e+002, 4.539778e+002
2.481995e+002, 4.534361e+002
2.486816e+002, 4.531514e+002
2.491637e+002, 4.531854e+002
2.496458e+002, 4.534203e+002
2.501279e+002, 4.536909e+002
2.506101e+002, 4.539723e+002
2.510922e+002, 4.543340e+002
2.515743e+002, 4.548365e+002
2.520564e+002, 4.555252e+002
2.525385e+002, 4.560179e+002
2.530206e+002, 4.563250e+002
2.535028e+002, 4.564256e+002
2.539849e+002, 4.562329e+002
2.544670e+002, 4.555071e+002
2.549491e+002, 4.549999e+002
2.554312e+002, 4.549203e+002
2.559133e+002, 4.552902e+002
2.563955e+002, 4.557773e+002
2.568776e+002, 4.566192e+002
2.573597e+002, 4.573123e+002
2.578418e+002, 4.571962e+002
2.583239e+002, 4.557363e+002
2.588061e+002, 4.547330e+002
2.592882e+002, 4.546288e+002
2.597703e+002, 4.554107e+002
2.602524e+002, 4.561542e+002
2.607345e+002, 4.569141e+002
2.612166e+002, 4.575689e+002
2.616988e+002, 4.579423e+002
2.621809e+002, 4.578184e+002
2.626630e+002, 4.580298e+002
2.631451e+002, 4.588013e+002
2.636272e+002, 4.600736e+002
2.641093e+002, 4.613022e+002
2.645915e+002, 4.626846e+002
2.650736e+002, 4.637066e+002
2.655557e+002, 4.638164e+002
2.660378e+002, 4.626587e+002
2.665199e+002, 4.618451e+002
2.670020e+002, 4.615799e+002
2.674842e+002, 4.618329e+002
2.679663e+002, 4.625237e+002
2.684484e+002, 4.637781e+002
2.689305e+002, 4.651694e+002
2.694126e+002, 4.663544e+002
2.698947e+002, 4.672565e+002
2.703769e+002, 4.683754e+002
2.708590e+002, 4.698682e+002
2.713411e+002, 4.715654e+002
2.718232e+002, 4.727755e+002
2.723053e+002, 4.732928e+002
2.727874e+002, 4.739371e+002
2.732696e+002, 4.753484e+002
2.737517e+002, 4.777055e+002
2.742338e+002, 4.796122e+002
2.747159e+002, 4.809083e+002
2.751980e+002, 4.818033e+002
2.756801e+002, 4.826449e+002
2.761623e+002, 4.833606e+002
2.766444e+002, 4.843647e+002
2.771265e+002, 4.859222e+002
2.776086e+002, 4.880937e+002
2.780907e+002, 4.903011e+002
2.785728e+002, 4.924636e+002
2.790550e+002, 4.947944e+002
2.795371e+002, 4.980475e+002
2.800192e+002, 5.024416e+002
2.805013e+002, 5.059682e+002
2.809834e+002, 5.069676e+002
2.814655e+002, 5.055506e+002
2.819477e+002, 5.066032e+002
2.824298e+002, 5.106818e+002
2.829119e+002, 5.157205e+002
2.833940e+002, 5.188345e+002
2.838761e+002, 5.199807e+002
2.843582e+002, 5.207155e+002
2.848404e+002, 5.215834e+002
2.853225e+002, 5.225228e+002
2.858046e+002, 5.231458e+002
2.862867e+002, 5.234021e+002
2.867688e+002, 5.235353e+002
2.872509e+002, 5.240273e+002
2.877331e+002, 5.248135e+002
2.882152e+002, 5.249614e+002
2.886973e+002, 5.240953e+002
2.891794e+002, 5.224047e+002
2.896615e+002, 5.204686e+002
2.901436e+002, 5.182726e+002
2.906258e+002, 5.158990e+002
2.911079e+002, 5.131186e+002
2.915900e+002, 5.100945e+002
2.920721e+002, 5.077510e+002
2.925542e+002, 5.066376e+002
2.930363e+002, 5.060923e+002
2.935185e+002, 5.045880e+002
2.940006e+002, 5.021316e+002
2.944827e+002, 4.998389e+002
2.949648e+002, 4.988535e+002
2.954469e+002, 4.987159e+002
2.959290e+002, 4.979834e+002
2.964112e+002, 4.962596e+002
2.968933e+002, 4.940258e+002
2.973754e+002, 4.919836e+002
2.978575e+002, 4.901075e+002
2.983396e+002, 4.881947e+002
2.988217e+002, 4.858955e+002
2.993039e+002, 4.835004e+002
2.997860e+002, 4.817287e+002
3.002681e+002, 4.807819e+002
3.007502e+002, 4.800626e+002
3.012323e+002, 4.789075e+002
3.017144e+002, 4.773900e+002
3.021966e+002, 4.758434e+002
3.026787e+002, 4.742604e+002
3.031608e+002, 4.727973e+002
3.036429e+002, 4.716460e+002
3.041250e+002, 4.708421e+002
3.046071e+002, 4.702794e+002
3.050893e+002, 4.702096e+002
3.055714e+002, 4.703190e+002
3.060535e+002, 4.699578e+002
3.065356e+002, 4.684056e+002
3.070177e+002, 4.665013e+002
3.074998e+002, 4.650276e+002
3.079820e+002, 4.639969e+002
3.084641e+002, 4.632349e+002
3.089462e+002, 4.625522e+002
3.094283e+002, 4.620757e+002
3.099104e+002, 4.619931e+002
3.103925e+002, 4.631803e+002
3.108747e+002, 4.641558e+002
3.113568e+002, 4.635584e+002
3.118389e+002, 4.616068e+002
3.123210e+002, 4.599146e+002
3.128031e+002, 4.596707e+002
3.132852e+002, 4.599613e+002
3.137674e+002, 4.598730e+002
3.142495e+002, 4.587008e+002
3.147316e+002, 4.577015e+002
3.152137e+002, 4.577939e+002
3.156958e+002, 4.586393e+002
3.161779e+002, 4.591050e+002
3.166601e+002, 4.582960e+002
3.171422e+002, 4.572115e+002
3.176243e+002, 4.564552e+002
3.181064e+002, 4.560681e+002
3.185885e+002, 4.561655e+002
3.190706e+002, 4.573463e+002
3.195528e+002, 4.590017e+002
3.200349e+002, 4.599561e+002
3.205170e+002, 4.592396e+002
3.209991e+002, 4.582699e+002
3.214812e+002, 4.576650e+002
3.219633e+002, 4.575888e+002
3.224455e+002, 4.574796e+002
3.229276e+002, 4.571468e+002
3.234097e+002, 4.567462e+002
3.238918e+002, 4.564703e+002
3.243739e+002, 4.562026e+002
3.248560e+002, 4.562121e+002
3.253382e+002, 4.566730e+002
3.258203e+002, 4.576529e+002
3.263024e+002, 4.585106e+002
3.267845e+002, 4.594171e+002
3.272666e+002, 4.600821e+002
3.277487e+002, 4.602698e+002
3.282309e+002, 4.594967e+002
3.287130e+002, 4.588204e+002
3.291951e+002, 4.584560e+002
3.296772e+002, 4.583472e+002
3.301593e+002, 4.579146e+002
3.306414e+002, 4.568667e+002
3.311236e+002, 4.557730e+002
3.316057e+002, 4.548859e+002
3.320878e+002, 4.539067e+002
3.325699e+002, 4.537162e+002
3.330520e+002, 4.548509e+002
3.335341e+002, 4.566910e+002
3.340163e+002, 4.574451e+002
3.344984e+002, 4.565453e+002
3.349805e+002, 4.554893e+002
3.354626e+002, 4.548593e+002
3.359447e+002, 4.547143e+002
3.364268e+002, 4.548157e+002
3.369090e+002, 4.553068e+002
3.373911e+002, 4.559068e+002
3.378732e+002, 4.561504e+002
3.383553e+002, 4.559698e+002
3.388374e+002, 4.556774e+002
3.393195e+002, 4.552809e+002
3.398017e+002, 4.548014e+002
3.402838e+002, 4.548087e+002
3.407659e+002, 4.555109e+002
3.412480e+002, 4.561834e+002
3.417301e+002, 4.558820e+002
3.422122e+002, 4.545181e+002
3.426944e+002, 4.535443e+002
3.431765e+002, 4.533903e+002
3.436586e+002, 4.538016e+002
3.441407e+002, 4.539312e+002
3.446228e+002, 4.537564e+002
3.451049e+002, 4.535374e+002
3.455871e+002, 4.536132e+002
3.460692e+002, 4.538885e+002
3.465513e+002, 4.535810e+002
3.470334e+002, 4.523480e+002
3.475155e+002, 4.509863e+002
3.479977e+002, 4.510677e+002
3.484798e+002, 4.524314e+002
3.489619e+002, 4.537420e+002
3.494440e+002, 4.541400e+002
3.499261e+002, 4.539393e+002
3.504082e+002, 4.538287e+002
3.508904e+002, 4.538544e+002
3.513725e+002, 4.539494e+002
3.518546e+002, 4.540223e+002
3.523367e+002, 4.541077e+002
3.528188e+002, 4.542953e+002
3.533009e+002, 4.548725e+002
3.537831e+002, 4.554417e+002
3.542652e+002, 4.554580e+002
3.547473e+002, 4.549409e+002
3.552294e+002, 4.543284e+002
3.557115e+002, 4.538795e+002
3.561936e+002, 4.535450e+002
3.566758e+002, 4.532678e+002
3.571579e+002, 4.530722e+002
3.576400e+002, 4.528742e+002
3.581221e+002, 4.525386e+002
3.586042e+002, 4.521321e+002
3.590863e+002, 4.518786e+002
3.595685e+002, 4.519725e+002
3.600506e+002, 4.522160e+002
3.605327e+002, 4.525444e+002
3.610148e+002, 4.531180e+002
3.614969e+002, 4.533141e+002
3.619790e+002, 4.523649e+002
3.624612e+002, 4.509424e+002
3.629433e+002, 4.501639e+002
3.634254e+002, 4.510291e+002
3.639075e+002, 4.520195e+002
3.643896e+002, 4.524466e+002
3.648717e+002, 4.521621e+002
3.653539e+002, 4.520844e+002
3.658360e+002, 4.526471e+002
3.663181e+002, 4.533696e+002
3.668002e+002, 4.538235e+002
3.672823e+002, 4.536194e+002
3.677644e+002, 4.535134e+002
3.682466e+002, 4.537773e+002
3.687287e+002, 4.543464e+002
3.692108e+002, 4.544750e+002
3.696929e+002, 4.537082e+002
3.701750e+002, 4.529008e+002
3.706571e+002, 4.524772e+002
3.711393e+002, 4.524627e+002
3.716214e+002, 4.528270e+002
3.721035e+002, 4.538865e+002
3.725856e+002, 4.552307e+002
3.730677e+002, 4.559100e+002
3.735498e+002, 4.557901e+002
3.740320e+002, 4.552670e+002
3.745141e+002, 4.542999e+002
3.749962e+002, 4.527606e+002
3.754783e+002, 4.519966e+002
3.759604e+002, 4.521977e+002
3.764425e+002, 4.528737e+002
3.769247e+002, 4.535189e+002
3.774068e+002, 4.541463e+002
3.778889e+002, 4.546230e+002
3.783710e+002, 4.549023e+002
3.788531e+002, 4.550023e+002
3.793352e+002, 4.549225e+002
3.798174e+002, 4.546214e+002
3.802995e+002, 4.544259e+002
3.807816e+002, 4.546654e+002
3.812637e+002, 4.552896e+002
3.817458e+002, 4.558854e+002
3.822279e+002, 4.564427e+002
3.827101e+002, 4.568683e+002
3.831922e+002, 4.568156e+002
3.836743e+002, 4.563864e+002
3.841564e+002, 4.562847e+002
3.846385e+002, 4.572567e+002
3.851206e+002, 4.587506e+002
3.856028e+002, 4.595469e+002
3.860849e+002, 4.595401e+002
3.865670e+002, 4.594712e+002
3.870491e+002, 4.601830e+002
3.875312e+002, 4.613252e+002
3.880133e+002, 4.621944e+002
3.884955e+002, 4.621686e+002
3.889776e+002, 4.620637e+002
3.894597e+002, 4.627838e+002
3.899418e+002, 4.641899e+002
3.904239e+002, 4.654515e+002
3.909060e+002, 4.655035e+002
3.913882e+002, 4.654769e+002
3.918703e+002, 4.665865e+002
3.923524e+002, 4.698368e+002
3.928345e+002, 4.726584e+002
3.933166e+002, 4.733871e+002
3.937987e+002, 4.728351e+002
3.942809e+002, 4.726243e+002
3.947630e+002, 4.732967e+002
3.952451e+002, 4.744117e+002
3.957272e+002, 4.759180e+002
3.962093e+002, 4.778858e+002
3.966914e+002, 4.796777e+002
3.971736e+002, 4.813366e+002
3.976557e+002, 4.826796e+002
3.981378e+002, 4.835407e+002
3.986199e+002, 4.831842e+002
3.991020e+002, 4.831382e+002
3.995841e+002, 4.837479e+002
4.000663e+002, 4.848953e+002
4.005484e+002, 4.858195e+002
4.010305e+002, 4.866306e+002
4.015126e+002, 4.871019e+002
4.019947e+002, 4.870160e+002
4.024768e+002, 4.858211e+002
4.029590e+002, 4.855078e+002
4.034411e+002, 4.866966e+002
4.039232e+002, 4.883234e+002
4.044053e+002, 4.884256e+002
4.048874e+002, 4.866296e+002
4.053695e+002, 4.844353e+002
4.058517e+002, 4.821499e+002
4.063338e+002, 4.798260e+002
4.068159e+002, 4.779585e+002
4.072980e+002, 4.766176e+002
4.077801e+002, 4.754932e+002
4.082622e+002, 4.743322e+002
4.087444e+002, 4.731301e+002
4.092265e+002, 4.719454e+002
4.097086e+002, 4.707796e+002
4.101907e+002, 4.696293e+002
4.106728e+002, 4.685479e+002
4.111549e+002, 4.675088e+002
4.116371e+002, 4.663060e+002
4.121192e+002, 4.646759e+002
4.126013e+002, 4.628133e+002
4.130834e+002, 4.610643e+002
4.135655e+002, 4.594263e+002
4.140476e+002, 4.581717e+002
4.145298e+002, 4.578619e+002
4.150119e+002, 4.581055e+002
4.154940e+002, 4.581076e+002
4.159761e+002, 4.574594e+002
4.164582e+002, 4.565068e+002
4.169403e+002, 4.554843e+002
4.174225e+002, 4.544020e+002
4.179046e+002, 4.533276e+002
4.183867e+002, 4.523571e+002
4.188688e+002, 4.514058e+002
4.193509e+002, 4.503819e+002
4.198330e+002, 4.491046e+002
4.203152e+002, 4.480965e+002
4.207973e+002, 4.476945e+002
4.212794e+002, 4.476772e+002
4.217615e+002, 4.476342e+002
4.222436e+002, 4.476008e+002
4.227257e+002, 4.474033e+002
4.232079e+002, 4.468658e+002
4.236900e+002, 4.459082e+002
4.241721e+002, 4.452719e+002
4.246542e+002, 4.452241e+002
4.251363e+002, 4.453844e+002
4.256184e+002, 4.454940e+002
4.261006e+002, 4.457532e+002
4.265827e+002, 4.456205e+002
4.270648e+002, 4.448746e+002
4.275469e+002, 4.437040e+002
4.280290e+002, 4.427422e+002
4.285111e+002, 4.418536e+002
4.289933e+002, 4.414238e+002
4.294754e+002, 4.417840e+002
4.299575e+002, 4.430979e+002
4.304396e+002, 4.439805e+002
4.309217e+002, 4.444307e+002
4.314038e+002, 4.444578e+002
4.318860e+002, 4.437881e+002
4.323681e+002, 4.423749e+002
4.328502e+002, 4.416384e+002
4.333323e+002, 4.422557e+002
4.338144e+002, 4.436050e+002
4.342965e+002, 4.439618e+002
4.347787e+002, 4.433447e+002
4.352608e+002, 4.424631e+002
4.357429e+002, 4.417742e+002
4.362250e+002, 4.412137e+002
4.367071e+002, 4.405502e+002
4.371892e+002, 4.397011e+002
4.376714e+002, 4.390140e+002
4.381535e+002, 4.386825e+002
4.386356e+002, 4.387977e+002
4.391177e+002, 4.395695e+002
4.395998e+002, 4.420241e+002
4.400819e+002, 4.445137e+002
4.405641e+002, 4.456465e+002
4.410462e+002, 4.454692e+002
4.415283e+002, 4.446994e+002
4.420104e+002, 4.428469e+002
4.424925e+002, 4.410467e+002
4.429746e+002, 4.403722e+002
4.434568e+002, 4.417683e+002
4.439389e+002, 4.429556e+002
4.444210e+002, 4.429596e+002
4.449031e+002, 4.423017e+002
4.453852e+002, 4.419794e+002
4.458673e+002, 4.425991e+002
4.463495e+002, 4.431956e+002
4.468316e+002, 4.434512e+002
4.473137e+002, 4.433017e+002
4.477958e+002, 4.432555e+002
4.482779e+002, 4.434516e+002
4.487600e+002, 4.436477e+002
4.492422e+002, 4.436617e+002
4.497243e+002, 4.434234e+002
4.502064e+002, 4.431350e+002
4.506885e+002, 4.427057e+002
4.511706e+002, 4.422797e+002
4.516527e+002, 4.423161e+002
4.521349e+002, 4.429381e+002
4.526170e+002, 4.435742e+002
4.530991e+002, 4.439582e+002
4.535812e+002, 4.441006e+002
4.540633e+002, 4.442827e+002
4.545454e+002, 4.445268e+002
4.550276e+002, 4.446915e+002
4.555097e+002, 4.445007e+002
4.559918e+002, 4.440372e+002
4.564739e+002, 4.438414e+002
4.569560e+002, 4.441448e+002
4.574381e+002, 4.446134e+002
4.579203e+002, 4.446230e+002
4.584024e+002, 4.442835e+002
4.588845e+002, 4.441079e+002
4.593666e+002, 4.446574e+002
4.598488e+002, 4.454320e+002
4.603309e+002, 4.456986e+002
4.608130e+002, 4.453459e+002
4.612951e+002, 4.451581e+002
4.617772e+002, 4.459953e+002
4.622593e+002, 4.472003e+002
4.627415e+002, 4.479844e+002
4.632236e+002, 4.478340e+002
4.637057e+002, 4.474832e+002
4.641878e+002, 4.469959e+002
4.646699e+002, 4.464921e+002
4.651520e+002, 4.463871e+002
4.656342e+002, 4.472394e+002
4.661163e+002, 4.481472e+002
4.665984e+002, 4.487268e+002
4.670805e+002, 4.488568e+002
4.675626e+002, 4.489163e+002
4.680447e+002, 4.488529e+002
4.685269e+002, 4.487651e+002
4.690090e+002, 4.487655e+002
4.694911e+002, 4.489626e+002
4.699732e+002, 4.490147e+002
4.704553e+002, 4.487267e+002
4.709374e+002, 4.482597e+002
4.714196e+002, 4.484110e+002
4.719017e+002, 4.493723e+002
4.723838e+002, 4.503422e+002
4.728659e+002, 4.509133e+002
4.733480e+002, 4.510818e+002
4.738301e+002, 4.509015e+002
4.743123e+002, 4.502552e+002
4.747944e+002, 4.497018e+002
4.752765e+002, 4.502176e+002
4.757586e+002, 4.515459e+002
4.762407e+002, 4.522827e+002
4.767228e+002, 4.516483e+002
4.772050e+002, 4.506089e+002
4.776871e+002, 4.508039e+002
4.781692e+002, 4.520153e+002
4.786513e+002, 4.531786e+002
4.791334e+002, 4.538994e+002
4.796155e+002, 4.540966e+002
4.800977e+002, 4.533766e+002
4.805798e+002, 4.515208e+002
4.810619e+002, 4.501521e+002
4.815440e+002, 4.506821e+002
4.820261e+002, 4.520985e+002
4.825082e+002, 4.532300e+002
4.829904e+002, 4.535933e+002
4.834725e+002, 4.537657e+002
4.839546e+002, 4.538403e+002
4.844367e+002, 4.538436e+002
4.849188e+002, 4.538825e+002
4.854009e+002, 4.538315e+002
4.858831e+002, 4.539380e+002
4.863652e+002, 4.543681e+002
4.868473e+002, 4.553041e+002
4.873294e+002, 4.558290e+002
4.878115e+002, 4.556856e+002
4.882936e+002, 4.553541e+002
4.887758e+002, 4.553555e+002
4.892579e+002, 4.558143e+002
4.897400e+002, 4.561867e+002
4.902221e+002, 4.563740e+002
4.907042e+002, 4.564200e+002
4.911863e+002, 4.564976e+002
4.916685e+002, 4.566299e+002
4.921506e+002, 4.565825e+002
4.926327e+002, 4.559493e+002
4.931148e+002, 4.549657e+002
4.935969e+002, 4.549757e+002
4.940790e+002, 4.561006e+002
4.945612e+002, 4.571989e+002
4.950433e+002, 4.566884e+002
4.955254e+002, 4.553525e+002
4.960075e+002, 4.550006e+002
4.964896e+002, 4.567110e+002
4.969717e+002, 4.586834e+002
4.974539e+002, 4.587785e+002
4.979360e+002, 4.577235e+002
4.984181e+002, 4.573957e+002
4.989002e+002, 4.601529e+002
4.993823e+002, 4.627778e+002
4.998644e+002, 4.629113e+002
5.003466e+002, 4.601967e+002
5.008287e+002, 4.578131e+002
5.013108e+002, 4.567452e+002
5.017929e+002, 4.563626e+002
5.022750e+002, 4.561852e+002
5.027571e+002, 4.562414e+002
5.032393e+002, 4.563836e+002
5.037214e+002, 4.566729e+002
5.042035e+002, 4.570200e+002
5.046856e+002, 4.572332e+002
5.051677e+002, 4.572254e+002
5.056498e+002, 4.572495e+002
5.061320e+002, 4.574357e+002
5.066141e+002, 4.577740e+002
5.070962e+002, 4.577657e+002
5.075783e+002, 4.572707e+002
5.080604e+002, 4.569219e+002
5.085425e+002, 4.575083e+002
5.090247e+002, 4.589193e+002
5.095068e+002, 4.595784e+002
5.099889e+002, 4.591739e+002
5.104710e+002, 4.583930e+002
5.109531e+002, 4.582387e+002
5.114352e+002, 4.585463e+002
5.119174e+002, 4.587048e+002
5.123995e+002, 4.583293e+002
5.128816e+002, 4.577493e+002
5.133637e+002, 4.572292e+002
5.138458e+002, 4.567911e+002
5.143279e+002, 4.565869e+002
5.148101e+002, 4.569596e+002
5.152922e+002, 4.574342e+002
5.157743e+002, 4.576000e+002
5.162564e+002, 4.573059e+002
5.167385e+002, 4.569901e+002
5.172206e+002, 4.568871e+002
5.177028e+002, 4.568061e+002
5.181849e+002, 4.565314e+002
5.186670e+002, 4.557311e+002
5.191491e+002, 4.550853e+002
5.196312e+002, 4.547545e+002
5.201133e+002, 4.546745e+002
5.205955e+002, 4.545400e+002
5.210776e+002, 4.542934e+002
5.215597e+002, 4.541216e+002
5.220418e+002, 4.542169e+002
5.225239e+002, 4.546619e+002
5.230060e+002, 4.544132e+002
5.234882e+002, 4.532264e+002
5.239703e+002, 4.520479e+002
5.244524e+002, 4.519996e+002
5.249345e+002, 4.530049e+002
5.254166e+002, 4.539889e+002
5.258987e+002, 4.548747e+002
5.263809e+002, 4.554152e+002
5.268630e+002, 4.548793e+002
5.273451e+002, 4.535448e+002
5.278272e+002, 4.525812e+002
5.283093e+002, 4.526683e+002
5.287914e+002, 4.533590e+002
5.292736e+002, 4.544427e+002
5.297557e+002, 4.558508e+002
5.302378e+002, 4.567914e+002
5.307199e+002, 4.563158e+002
5.312020e+002, 4.554757e+002
5.316841e+002, 4.551992e+002
5.321663e+002, 4.560065e+002
5.326484e+002, 4.565881e+002
5.331305e+002, 4.563179e+002
5.336126e+002, 4.557205e+002
5.340947e+002, 4.555509e+002
5.345768e+002, 4.564447e+002
5.350590e+002, 4.570737e+002
5.355411e+002, 4.571418e+002
5.360232e+002, 4.567582e+002
5.365053e+002, 4.565454e+002
5.369874e+002, 4.565474e+002
5.374695e+002, 4.566484e+002
5.379517e+002, 4.567879e+002
5.384338e+002, 4.569664e+002
5.389159e+002, 4.573130e+002
5.393980e+002, 4.578825e+002
5.398801e+002, 4.583997e+002
5.403622e+002, 4.584366e+002
5.408444e+002, 4.581067e+002
5.413265e+002, 4.579417e+002
5.418086e+002, 4.580413e+002
5.422907e+002, 4.583760e+002
5.427728e+002, 4.591194e+002
5.432549e+002, 4.600953e+002
5.437371e+002, 4.607863e+002
5.442192e+002, 4.606310e+002
5.447013e+002, 4.603107e+002
5.451834e+002, 4.603152e+002
5.456655e+002, 4.606507e+002
5.461476e+002, 4.611269e+002
5.466298e+002, 4.619360e+002
5.471119e+002, 4.626813e+002
5.475940e+002, 4.630858e+002
5.480761e+002, 4.629585e+002
5.485582e+002, 4.628184e+002
5.490403e+002, 4.626389e+002
5.495225e+002, 4.625056e+002
5.500046e+002, 4.625524e+002
5.504867e+002, 4.629679e+002
5.509688e+002, 4.631547e+002
5.514509e+002, 4.628858e+002
5.519330e+002, 4.623456e+002
5.524152e+002, 4.622288e+002
5.528973e+002, 4.625722e+002
5.533794e+002, 4.630742e+002
5.538615e+002, 4.636256e+002
5.543436e+002, 4.642093e+002
5.548257e+002, 4.647667e+002
5.553079e+002, 4.652934e+002
5.557900e+002, 4.657477e+002
5.562721e+002, 4.662111e+002
5.567542e+002, 4.665488e+002
5.572363e+002, 4.664062e+002
5.577184e+002, 4.655109e+002
5.582006e+002, 4.647127e+002
5.586827e+002, 4.648731e+002
5.591648e+002, 4.655571e+002
5.596469e+002, 4.660292e+002
5.601290e+002, 4.656667e+002
5.606111e+002, 4.653893e+002
5.610933e+002, 4.659132e+002
5.615754e+002, 4.670219e+002
5.620575e+002, 4.672314e+002
5.625396e+002, 4.651768e+002
5.630217e+002, 4.632578e+002
5.635038e+002, 4.624564e+002
5.639860e+002, 4.630639e+002
5.644681e+002, 4.633825e+002
5.649502e+002, 4.632197e+002
5.654323e+002, 4.630615e+002
5.659144e+002, 4.634996e+002
5.663965e+002, 4.646147e+002
5.668787e+002, 4.653657e+002
5.673608e+002, 4.655611e+002
5.678429e+002, 4.654213e+002
5.683250e+002, 4.652695e+002
5.688071e+002, 4.651055e+002
5.692892e+002, 4.649272e+002
5.697714e+002, 4.647243e+002
5.702535e+002, 4.645152e+002
5.707356e+002, 4.642354e+002
5.712177e+002, 4.639275e+002
5.716998e+002, 4.638626e+002
5.721819e+002, 4.644157e+002
5.726641e+002, 4.651214e+002
5.731462e+002, 4.655440e+002
5.736283e+002, 4.655330e+002
5.741104e+002, 4.657841e+002
5.745925e+002, 4.670587e+002
5.750746e+002, 4.683924e+002
5.755568e+002, 4.689069e+002
5.760389e+002, 4.673761e+002
5.765210e+002, 4.666510e+002
5.770031e+002, 4.672909e+002
5.774852e+002, 4.686100e+002
5.779673e+002, 4.691333e+002
5.784495e+002, 4.685890e+002
5.789316e+002, 4.681607e+002
5.794137e+002, 4.683144e+002
5.798958e+002, 4.688574e+002
5.803779e+002, 4.688071e+002
5.808600e+002, 4.681358e+002
5.813422e+002, 4.676686e+002
5.818243e+002, 4.681631e+002
5.823064e+002, 4.692506e+002
5.827885e+002, 4.700788e+002
5.832706e+002, 4.705786e+002
5.837527e+002, 4.709776e+002
5.842349e+002, 4.714335e+002
5.847170e+002, 4.719091e+002
5.851991e+002, 4.723387e+002
5.856812e+002, 4.725923e+002
5.861633e+002, 4.729878e+002
5.866454e+002, 4.738102e+002
5.871276e+002, 4.748387e+002
5.876097e+002, 4.756646e+002
5.880918e+002, 4.762412e+002
5.885739e+002, 4.765650e+002
5.890560e+002, 4.764268e+002
5.895381e+002, 4.759519e+002
5.900203e+002, 4.761483e+002
5.905024e+002, 4.774520e+002
5.909845e+002, 4.785658e+002
5.914666e+002, 4.786516e+002
5.919487e+002, 4.776952e+002
5.924308e+002, 4.776294e+002
5.929130e+002, 4.785899e+002
5.933951e+002, 4.797766e+002
5.938772e+002, 4.804106e+002
5.943593e+002, 4.806252e+002
5.948414e+002, 4.808042e+002
5.953235e+002, 4.809847e+002
5.958057e+002, 4.812529e+002
5.962878e+002, 4.817414e+002
5.967699e+002, 4.823750e+002
5.972520e+002, 4.830049e+002
5.977341e+002, 4.837015e+002
5.982162e+002, 4.842530e+002
5.986984e+002, 4.844268e+002
5.991805e+002, 4.843300e+002
5.996626e+002, 4.843883e+002
6.001447e+002, 4.848554e+002
6.006268e+002, 4.853328e+002
6.011089e+002, 4.857646e+002
6.015911e+002, 4.861894e+002
6.020732e+002, 4.860319e+002
6.025553e+002, 4.849120e+002
6.030374e+002, 4.838200e+002
6.035195e+002, 4.835286e+002
6.040016e+002, 4.841038e+002
6.044838e+002, 4.847318e+002
6.049659e+002, 4.854598e+002
6.054480e+002, 4.859325e+002
6.059301e+002, 4.854561e+002
6.064122e+002, 4.842693e+002
6.068943e+002, 4.833245e+002
6.073765e+002, 4.828927e+002
6.078586e+002, 4.827928e+002
6.083407e+002, 4.830753e+002
6.088228e+002, 4.835478e+002
6.093049e+002, 4.837309e+002
6.097870e+002, 4.832384e+002
6.102692e+002, 4.825439e+002
6.107513e+002, 4.818848e+002
6.112334e+002, 4.812603e+002
6.117155e+002, 4.805596e+002
6.121976e+002, 4.796795e+002
6.126797e+002, 4.787824e+002
6.131619e+002, 4.779008e+002
6.136440e+002, 4.769647e+002
6.141261e+002, 4.763732e+002
6.146082e+002, 4.762356e+002
6.150903e+002, 4.762677e+002
6.155724e+002, 4.762271e+002
6.160546e+002, 4.761136e+002
6.165367e+002, 4.759789e+002
6.170188e+002, 4.758281e+002
6.175009e+002, 4.756642e+002
6.179830e+002, 4.754516e+002
6.184651e+002, 4.752210e+002
6.189473e+002, 4.750918e+002
6.194294e+002, 4.752227e+002
6.199115e+002, 4.753331e+002
6.203936e+002, 4.751383e+002
6.208757e+002, 4.746951e+002
6.213578e+002, 4.741766e+002
6.218400e+002, 4.733539e+002
6.223221e+002, 4.727448e+002
6.228042e+002, 4.728114e+002
6.232863e+002, 4.735802e+002
6.237684e+002, 4.738939e+002
6.242505e+002, 4.731373e+002
6.247327e+002, 4.723942e+002
6.252148e+002, 4.722369e+002
6.256969e+002, 4.728526e+002
6.261790e+002, 4.733374e+002
6.266611e+002, 4.737356e+002
6.271432e+002, 4.739083e+002
6.276254e+002, 4.734917e+002
6.281075e+002, 4.725497e+002
6.285896e+002, 4.721618e+002
6.290717e+002, 4.726018e+002
6.295538e+002, 4.733788e+002
6.300359e+002, 4.738570e+002
6.305181e+002, 4.741441e+002
6.310002e+002, 4.745367e+002
6.314823e+002, 4.754893e+002
6.319644e+002, 4.762508e+002
6.324465e+002, 4.760661e+002
6.329286e+002, 4.752155e+002
6.334108e+002, 4.745892e+002
6.338929e+002, 4.746379e+002
6.343750e+002, 4.748177e+002
6.348571e+002, 4.749180e+002
6.353392e+002, 4.749278e+002
6.358214e+002, 4.749834e+002
6.363035e+002, 4.750074e+002
6.367856e+002, 4.751968e+002
6.372677e+002, 4.757798e+002
6.377498e+002, 4.768709e+002
6.382319e+002, 4.774745e+002
6.387141e+002, 4.775509e+002
6.391962e+002, 4.773361e+002
6.396783e+002, 4.768578e+002
6.401604e+002, 4.762597e+002
6.406425e+002, 4.761411e+002
6.411246e+002, 4.766902e+002
6.416068e+002, 4.774789e+002
6.420889e+002, 4.782177e+002
6.425710e+002, 4.788654e+002
6.430531e+002, 4.793357e+002
6.435352e+002, 4.794356e+002
6.440173e+002, 4.795191e+002
6.444995e+002, 4.797534e+002
6.449816e+002, 4.800809e+002
6.454637e+002, 4.803464e+002
6.459458e+002, 4.801722e+002
6.464279e+002, 4.803408e+002
6.469100e+002, 4.812814e+002
6.473922e+002, 4.828840e+002
6.478743e+002, 4.834603e+002
6.483564e+002, 4.826105e+002
6.488385e+002, 4.819344e+002
6.493206e+002, 4.826574e+002
6.498027e+002, 4.845577e+002
6.502849e+002, 4.854500e+002
6.507670e+002, 4.852789e+002
6.512491e+002, 4.848766e+002
6.517312e+002, 4.849477e+002
6.522133e+002, 4.852979e+002
6.526954e+002, 4.856141e+002
6.531776e+002, 4.858245e+002
6.536597e+002, 4.860680e+002
6.541418e+002, 4.865729e+002
6.546239e+002, 4.871066e+002
6.551060e+002, 4.874012e+002
6.555881e+002, 4.870340e+002
6.560703e+002, 4.868615e+002
6.565524e+002, 4.870646e+002
6.570345e+002, 4.875237e+002
6.575166e+002, 4.881160e+002
6.579987e+002, 4.891101e+002
6.584808e+002, 4.895295e+002
6.589630e+002, 4.889535e+002
6.594451e+002, 4.877338e+002
6.599272e+002, 4.870452e+002
6.604093e+002, 4.868888e+002
6.608914e+002, 4.869879e+002
6.613735e+002, 4.874334e+002
6.618557e+002, 4.879510e+002
6.623378e+002, 4.879737e+002
6.628199e+002, 4.875484e+002
6.633020e+002, 4.870875e+002
6.637841e+002, 4.869892e+002
6.642662e+002, 4.868776e+002
6.647484e+002, 4.862532e+002
6.652305e+002, 4.848910e+002
6.657126e+002, 4.842428e+002
6.661947e+002, 4.855508e+002
6.666768e+002, 4.870886e+002
6.671589e+002, 4.875884e+002
6.676411e+002, 4.863531e+002
6.681232e+002, 4.856132e+002
6.686053e+002, 4.855913e+002
6.690874e+002, 4.857451e+002
6.695695e+002, 4.851714e+002
6.700516e+002, 4.838757e+002
6.705338e+002, 4.833834e+002
6.710159e+002, 4.842099e+002
6.714980e+002, 4.854474e+002
6.719801e+002, 4.858545e+002
6.724622e+002, 4.855721e+002
6.729443e+002, 4.849686e+002
6.734265e+002, 4.836771e+002
6.739086e+002, 4.826253e+002
6.743907e+002, 4.827907e+002
6.748728e+002, 4.837515e+002
6.753549e+002, 4.842049e+002
6.758370e+002, 4.831453e+002
6.763192e+002, 4.821468e+002
6.768013e+002, 4.819337e+002
6.772834e+002, 4.824131e+002
6.777655e+002, 4.823169e+002
6.782476e+002, 4.812520e+002
6.787297e+002, 4.804371e+002
6.792119e+002, 4.807374e+002
6.796940e+002, 4.820594e+002
6.801761e+002, 4.823599e+002
6.806582e+002, 4.815458e+002
6.811403e+002, 4.806550e+002
6.816224e+002, 4.806342e+002
6.821046e+002, 4.811332e+002
6.825867e+002, 4.815239e+002
6.830688e+002, 4.817290e+002
6.835509e+002, 4.818184e+002
6.840330e+002, 4.816295e+002
6.845151e+002, 4.814546e+002
6.849973e+002, 4.816120e+002
6.854794e+002, 4.824888e+002
6.859615e+002, 4.831631e+002
6.864436e+002, 4.836369e+002
6.869257e+002, 4.837679e+002
6.874078e+002, 4.832599e+002
6.878900e+002, 4.816508e+002
6.883721e+002, 4.806700e+002
6.888542e+002, 4.806900e+002
6.893363e+002, 4.813255e+002
6.898184e+002, 4.819932e+002
6.903005e+002, 4.826591e+002
6.907827e+002, 4.828545e+002
6.912648e+002, 4.820915e+002
6.917469e+002, 4.810730e+002
6.922290e+002, 4.807652e+002
6.927111e+002, 4.810542e+002
6.931932e+002, 4.815993e+002
6.936754e+002, 4.826208e+002
6.941575e+002, 4.834925e+002
6.946396e+002, 4.837628e+002
6.951217e+002, 4.834668e+002
6.956038e+002, 4.832408e+002
6.960859e+002, 4.833003e+002
6.965681e+002, 4.833122e+002
6.970502e+002, 4.831092e+002
6.975323e+002, 4.826749e+002
6.980144e+002, 4.824439e+002
6.984965e+002, 4.824329e+002
6.989786e+002, 4.825755e+002
6.994608e+002, 4.829774e+002
6.999429e+002, 4.835267e+002
7.004250e+002, 4.836179e+002
7.009071e+002, 4.831989e+002
7.013892e+002, 4.827476e+002
7.018713e+002, 4.827342e+002
7.023535e+002, 4.829131e+002
7.028356e+002, 4.829269e+002
7.033177e+002, 4.825760e+002
7.037998e+002, 4.824785e+002
7.042819e+002, 4.833068e+002
7.047640e+002, 4.842978e+002
7.052462e+002, 4.845877e+002
7.057283e+002, 4.833986e+002
7.062104e+002, 4.827964e+002
7.066925e+002, 4.831246e+002
7.071746e+002, 4.838242e+002
7.076567e+002, 4.838906e+002
7.081389e+002, 4.832586e+002
7.086210e+002, 4.831073e+002
7.091031e+002, 4.838867e+002
7.095852e+002, 4.849470e+002
7.100673e+002, 4.851127e+002
7.105494e+002, 4.846422e+002
7.110316e+002, 4.843220e+002
7.115137e+002, 4.846882e+002
7.119958e+002, 4.851713e+002
7.124779e+002, 4.854385e+002
7.129600e+002, 4.855254e+002
7.134421e+002, 4.855361e+002
7.139243e+002, 4.852196e+002
7.144064e+002, 4.851454e+002
7.148885e+002, 4.857119e+002
7.153706e+002, 4.867657e+002
7.158527e+002, 4.868727e+002
7.163348e+002, 4.855519e+002
7.168170e+002, 4.847493e+002
7.172991e+002, 4.858550e+002
7.177812e+002, 4.883184e+002
7.182633e+002, 4.890374e+002
7.187454e+002, 4.880577e+002
7.192275e+002, 4.869701e+002
7.197097e+002, 4.870581e+002
7.201918e+002, 4.875835e+002
7.206739e+002, 4.875940e+002
7.211560e+002, 4.870124e+002
7.216381e+002, 4.865400e+002
7.221202e+002, 4.863799e+002
7.226024e+002, 4.865438e+002
7.230845e+002, 4.871556e+002
7.235666e+002, 4.885519e+002
7.240487e+002, 4.893074e+002
7.245308e+002, 4.890947e+002
7.250129e+002, 4.886898e+002
7.254951e+002, 4.888047e+002
7.259772e+002, 4.894831e+002
7.264593e+002, 4.898579e+002
7.269414e+002, 4.898373e+002
7.274235e+002, 4.896411e+002
7.279056e+002, 4.893981e+002
7.283878e+002, 4.891815e+002
7.288699e+002, 4.891502e+002
7.293520e+002, 4.893388e+002
7.298341e+002, 4.897118e+002
7.303162e+002, 4.904885e+002
7.307983e+002, 4.913422e+002
7.312805e+002, 4.918734e+002
7.317626e+002, 4.919103e+002
7.322447e+002, 4.916900e+002
7.327268e+002, 4.908047e+002
7.332089e+002, 4.899188e+002
7.336910e+002, 4.902947e+002
7.341732e+002, 4.923017e+002
7.346553e+002, 4.939310e+002
7.351374e+002, 4.947224e+002
7.356195e+002, 4.949661e+002
7.361016e+002, 4.951584e+002
7.365837e+002, 4.952764e+002
7.370659e+002, 4.952201e+002
7.375480e+002, 4.948718e+002
7.380301e+002, 4.944023e+002
7.385122e+002, 4.936582e+002
7.389943e+002, 4.928998e+002
7.394764e+002, 4.928149e+002
7.399586e+002, 4.946202e+002
7.404407e+002, 4.960986e+002
7.409228e+002, 4.962935e+002
7.414049e+002, 4.955009e+002
7.418870e+002, 4.949201e+002
7.423691e+002, 4.944788e+002
7.428513e+002, 4.944995e+002
7.433334e+002, 4.953135e+002
7.438155e+002, 4.966549e+002
7.442976e+002, 4.974022e+002
7.447797e+002, 4.975776e+002
7.452618e+002, 4.974948e+002
7.457440e+002, 4.972720e+002
7.462261e+002, 4.969519e+002
7.467082e+002, 4.964510e+002
7.471903e+002, 4.958240e+002
7.476724e+002, 4.954947e+002
7.481545e+002, 4.958413e+002
7.486367e+002, 4.963724e+002
7.491188e+002, 4.968159e+002
7.496009e+002, 4.971383e+002
7.500830e+002, 4.977002e+002
7.505651e+002, 4.988819e+002
7.510472e+002, 4.996182e+002
7.515294e+002, 4.988499e+002
7.520115e+002, 4.966554e+002
7.524936e+002, 4.961079e+002
7.529757e+002, 4.972774e+002
7.534578e+002, 4.988281e+002
7.539399e+002, 4.997972e+002
7.544221e+002, 5.003279e+002
7.549042e+002, 5.004665e+002
7.553863e+002, 5.001857e+002
7.558684e+002, 5.001097e+002
7.563505e+002, 5.011180e+002
7.568326e+002, 5.020961e+002
7.573148e+002, 5.020526e+002
7.577969e+002, 5.001952e+002
7.582790e+002, 4.992067e+002
7.587611e+002, 4.993489e+002
7.592432e+002, 4.999985e+002
7.597253e+002, 5.007537e+002
7.602075e+002, 5.016281e+002
7.606896e+002, 5.020309e+002
7.611717e+002, 5.018396e+002
7.616538e+002, 5.015794e+002
7.621359e+002, 5.019459e+002
7.626180e+002, 5.026116e+002
7.631002e+002, 5.029690e+002
7.635823e+002, 5.028317e+002
7.640644e+002, 5.025842e+002
7.645465e+002, 5.023573e+002
7.650286e+002, 5.021694e+002
7.655107e+002, 5.020425e+002
7.659929e+002, 5.019364e+002
7.664750e+002, 5.019605e+002
7.669571e+002, 5.020669e+002
7.674392e+002, 5.023664e+002
7.679213e+002, 5.031768e+002
7.684034e+002, 5.045386e+002
7.688856e+002, 5.052343e+002
7.693677e+002, 5.048741e+002
7.698498e+002, 5.044060e+002
7.703319e+002, 5.053944e+002
7.708140e+002, 5.071432e+002
7.712961e+002, 5.081377e+002
7.717783e+002, 5.074584e+002
7.722604e+002, 5.067610e+002
7.727425e+002, 5.070103e+002
7.732246e+002, 5.077577e+002
7.737067e+002, 5.083208e+002
7.741888e+002, 5.083114e+002
7.746710e+002, 5.086112e+002
7.751531e+002, 5.095128e+002
7.756352e+002, 5.105821e+002
7.761173e+002, 5.108271e+002
7.765994e+002, 5.102133e+002
7.770815e+002, 5.103311e+002
7.775637e+002, 5.118844e+002
7.780458e+002, 5.136717e+002
7.785279e+002, 5.137849e+002
7.790100e+002, 5.128007e+002
7.794921e+002, 5.120178e+002
7.799742e+002, 5.119546e+002
7.804564e+002, 5.122160e+002
7.809385e+002, 5.129178e+002
7.814206e+002, 5.137811e+002
7.819027e+002, 5.141807e+002
7.823848e+002, 5.137701e+002
7.828669e+002, 5.134402e+002
7.833491e+002, 5.133787e+002
7.838312e+002, 5.134508e+002
7.843133e+002, 5.133691e+002
7.847954e+002, 5.131383e+002
7.852775e+002, 5.126647e+002
7.857596e+002, 5.117174e+002
7.862418e+002, 5.108220e+002
7.867239e+002, 5.107723e+002
7.872060e+002, 5.113617e+002
7.876881e+002, 5.120839e+002
7.881702e+002, 5.128091e+002
7.886523e+002, 5.135106e+002
7.891345e+002, 5.143754e+002
7.896166e+002, 5.151954e+002
7.900987e+002, 5.153395e+002
7.905808e+002, 5.141625e+002
7.910629e+002, 5.136136e+002
7.915450e+002, 5.142885e+002
7.920272e+002, 5.157739e+002
7.925093e+002, 5.170621e+002
7.929914e+002, 5.181433e+002
7.934735e+002, 5.186870e+002
7.939556e+002, 5.182838e+002
7.944377e+002, 5.175759e+002
7.949199e+002, 5.172016e+002
7.954020e+002, 5.171380e+002
7.958841e+002, 5.173375e+002
7.963662e+002, 5.180912e+002
7.968483e+002, 5.187677e+002
7.973304e+002, 5.192379e+002
7.978126e+002, 5.194617e+002
7.982947e+002, 5.192448e+002
7.987768e+002, 5.184118e+002
7.992589e+002, 5.176251e+002
7.997410e+002, 5.170413e+002
8.002231e+002, 5.166595e+002
8.007053e+002, 5.165132e+002
8.011874e+002, 5.165829e+002
8.016695e+002, 5.167490e+002
8.021516e+002, 5.168336e+002
8.026337e+002, 5.170987e+002
8.031158e+002, 5.178951e+002
8.035980e+002, 5.190596e+002
8.040801e+002, 5.201784e+002
8.045622e+002, 5.214655e+002
8.050443e+002, 5.222618e+002
8.055264e+002, 5.223106e+002
8.060085e+002, 5.217811e+002
8.064907e+002, 5.211434e+002
8.069728e+002, 5.203314e+002
8.074549e+002, 5.197233e+002
8.079370e+002, 5.194284e+002
8.084191e+002, 5.194172e+002
8.089012e+002, 5.197689e+002
8.093834e+002, 5.203823e+002
8.098655e+002, 5.208937e+002
8.103476e+002, 5.210390e+002
8.108297e+002, 5.211119e+002
8.113118e+002, 5.212272e+002
8.117939e+002, 5.214116e+002
8.122761e+002, 5.217455e+002
8.127582e+002, 5.224962e+002
8.132403e+002, 5.230502e+002
8.137224e+002, 5.233024e+002
8.142045e+002, 5.232745e+002
8.146866e+002, 5.228849e+002
8.151688e+002, 5.221322e+002
8.156509e+002, 5.216458e+002
8.161330e+002, 5.215980e+002
8.166151e+002, 5.220095e+002
8.170972e+002, 5.234063e+002
8.175793e+002, 5.252930e+002
8.180615e+002, 5.264324e+002
8.185436e+002, 5.254379e+002
8.190257e+002, 5.244811e+002
8.195078e+002, 5.244398e+002
8.199899e+002, 5.250730e+002
8.204720e+002, 5.256866e+002
8.209542e+002, 5.263533e+002
8.214363e+002, 5.267897e+002
8.219184e+002, 5.268867e+002
8.224005e+002, 5.267698e+002
8.228826e+002, 5.267348e+002
8.233647e+002, 5.267571e+002
8.238469e+002, 5.266757e+002
8.243290e+002, 5.263262e+002
8.248111e+002, 5.260072e+002
8.252932e+002, 5.260848e+002
8.257753e+002, 5.263817e+002
8.262574e+002, 5.265422e+002
8.267396e+002, 5.263740e+002
8.272217e+002, 5.261747e+002
8.277038e+002, 5.258853e+002
8.281859e+002, 5.256547e+002
8.286681e+002, 5.258149e+002
8.291502e+002, 5.264285e+002
8.296323e+002, 5.270020e+002
8.301144e+002, 5.274662e+002
8.305966e+002, 5.277379e+002
8.310787e+002, 5.274562e+002
8.315608e+002, 5.268992e+002
8.320429e+002, 5.267681e+002
8.325250e+002, 5.276648e+002
8.330071e+002, 5.284532e+002
8.334893e+002, 5.284366e+002
8.339714e+002, 5.279891e+002
8.344535e+002, 5.277092e+002
8.349356e+002, 5.277700e+002
8.354177e+002, 5.277038e+002
8.358998e+002, 5.273635e+002
8.363820e+002, 5.270337e+002
8.368641e+002, 5.272338e+002
8.373462e+002, 5.278925e+002
8.378283e+002, 5.283564e+002
8.383104e+002, 5.284189e+002
8.387925e+002, 5.284944e+002
8.392747e+002, 5.291768e+002
8.397568e+002, 5.300580e+002
8.402389e+002, 5.305455e+002
8.407210e+002, 5.300950e+002
8.412031e+002, 5.299719e+002
8.416852e+002, 5.310906e+002
8.421674e+002, 5.321656e+002
8.426495e+002, 5.317142e+002
8.431316e+002, 5.292714e+002
8.436137e+002, 5.281859e+002
8.440958e+002, 5.289117e+002
8.445779e+002, 5.301695e+002
8.450601e+002, 5.306456e+002
8.455422e+002, 5.305189e+002
8.460243e+002, 5.300715e+002
8.465064e+002, 5.292733e+002
8.469885e+002, 5.286185e+002
8.474706e+002, 5.283889e+002
8.479528e+002, 5.284057e+002
8.484349e+002, 5.284695e+002
8.489170e+002, 5.283525e+002
8.493991e+002, 5.290266e+002
8.498812e+002, 5.309767e+002
8.503633e+002, 5.327443e+002
8.508455e+002, 5.328104e+002
8.513276e+002, 5.314767e+002
8.518097e+002, 5.309362e+002
8.522918e+002, 5.313129e+002
8.527739e+002, 5.316759e+002
8.532560e+002, 5.312692e+002
8.537382e+002, 5.305107e+002
8.542203e+002, 5.296980e+002
8.547024e+002, 5.288467e+002
8.551845e+002, 5.282836e+002
8.556666e+002, 5.281381e+002
8.561487e+002, 5.282576e+002
8.566309e+002, 5.286729e+002
8.571130e+002, 5.293722e+002
8.575951e+002, 5.298835e+002
8.580772e+002, 5.302230e+002
8.585593e+002, 5.301654e+002
8.590414e+002, 5.291819e+002
8.595236e+002, 5.278839e+002
8.600057e+002, 5.272265e+002
8.604878e+002, 5.271790e+002
8.609699e+002, 5.273551e+002
8.614520e+002, 5.277040e+002
8.619341e+002, 5.281107e+002
8.624163e+002, 5.286089e+002
8.628984e+002, 5.291563e+002
8.633805e+002, 5.294443e+002
8.638626e+002, 5.294755e+002
8.643447e+002, 5.292166e+002
8.648268e+002, 5.284838e+002
8.653090e+002, 5.275805e+002
8.657911e+002, 5.273829e+002
8.662732e+002, 5.277335e+002
8.667553e+002, 5.279996e+002
8.672374e+002, 5.275706e+002
8.677195e+002, 5.272284e+002
8.682017e+002, 5.277212e+002
8.686838e+002, 5.286730e+002
8.691659e+002, 5.289641e+002
8.696480e+002, 5.282569e+002
8.701301e+002, 5.273530e+002
8.706122e+002, 5.262792e+002
8.710944e+002, 5.252153e+002
8.715765e+002, 5.246497e+002
8.720586e+002, 5.245132e+002
8.725407e+002, 5.242071e+002
8.730228e+002, 5.234387e+002
8.735049e+002, 5.227269e+002
8.739871e+002, 5.228273e+002
8.744692e+002, 5.232412e+002
8.749513e+002, 5.232062e+002
8.754334e+002, 5.219186e+002
8.759155e+002, 5.210180e+002
8.763976e+002, 5.207922e+002
8.768798e+002, 5.208541e+002
8.773619e+002, 5.205936e+002
8.778440e+002, 5.199455e+002
8.783261e+002, 5.204329e+002
8.788082e+002, 5.224757e+002
8.792903e+002, 5.243397e+002
8.797725e+002, 5.238396e+002
8.802546e+002, 5.220994e+002
8.807367e+002, 5.206737e+002
8.812188e+002, 5.198292e+002
8.817009e+002, 5.193322e+002
8.821830e+002, 5.194147e+002
8.826652e+002, 5.195608e+002
8.831473e+002, 5.193965e+002
8.836294e+002, 5.188532e+002
8.841115e+002, 5.184505e+002
8.845936e+002, 5.182070e+002
8.850757e+002, 5.180352e+002
8.855579e+002, 5.179540e+002
8.860400e+002, 5.178746e+002
8.865221e+002, 5.175038e+002
8.870042e+002, 5.168785e+002
8.874863e+002, 5.164816e+002
8.879684e+002, 5.170305e+002
8.884506e+002, 5.174833e+002
8.889327e+002, 5.170786e+002
8.894148e+002, 5.158882e+002
8.898969e+002, 5.151550e+002
8.903790e+002, 5.149430e+002
8.908611e+002, 5.150344e+002
8.913433e+002, 5.155324e+002
8.918254e+002, 5.161318e+002
8.923075e+002, 5.158343e+002
8.927896e+002, 5.148546e+002
8.932717e+002, 5.141544e+002
8.937538e+002, 5.144935e+002
8.942360e+002, 5.149658e+002
8.947181e+002, 5.150288e+002
8.952002e+002, 5.148126e+002
8.956823e+002, 5.146929e+002
8.961644e+002, 5.148978e+002
8.966465e+002, 5.147322e+002
8.971287e+002, 5.139362e+002
8.976108e+002, 5.129360e+002
8.980929e+002, 5.126459e+002
8.985750e+002, 5.128967e+002
8.990571e+002, 5.128479e+002
8.995392e+002, 5.121943e+002
9.000214e+002, 5.114662e+002
9.005035e+002, 5.109736e+002
9.009856e+002, 5.107001e+002
9.014677e+002, 5.106273e+002
9.019498e+002, 5.109220e+002
9.024319e+002, 5.111491e+002
9.029141e+002, 5.113675e+002
9.033962e+002, 5.114292e+002
9.038783e+002, 5.110864e+002
9.043604e+002, 5.103992e+002
9.048425e+002, 5.099276e+002
9.053246e+002, 5.096970e+002
9.058068e+002, 5.097908e+002
9.062889e+002, 5.108470e+002
9.067710e+002, 5.118597e+002
9.072531e+002, 5.115536e+002
9.077352e+002, 5.096742e+002
9.082173e+002, 5.089171e+002
9.086995e+002, 5.108031e+002
9.091816e+002, 5.122347e+002
9.096637e+002, 5.115869e+002
9.101458e+002, 5.092783e+002
9.106279e+002, 5.081422e+002
9.111100e+002, 5.081406e+002
9.115922e+002, 5.084722e+002
9.120743e+002, 5.090371e+002
9.125564e+002, 5.094483e+002
9.130385e+002, 5.091154e+002
9.135206e+002, 5.082882e+002
9.140027e+002, 5.077168e+002
9.144849e+002, 5.076566e+002
9.149670e+002, 5.078582e+002
9.154491e+002, 5.084604e+002
9.159312e+002, 5.091619e+002
9.164133e+002, 5.091781e+002
9.168954e+002, 5.085282e+002
9.173776e+002, 5.083225e+002
9.178597e+002, 5.089682e+002
9.183418e+002, 5.097010e+002
9.188239e+002, 5.096947e+002
9.193060e+002, 5.092303e+002
9.197881e+002, 5.086668e+002
9.202703e+002, 5.078888e+002
9.207524e+002, 5.074477e+002
9.212345e+002, 5.076148e+002
9.217166e+002, 5.079214e+002
9.221987e+002, 5.078624e+002
9.226808e+002, 5.073997e+002
9.231630e+002, 5.078969e+002
9.236451e+002, 5.095091e+002
9.241272e+002, 5.107154e+002
9.246093e+002, 5.096933e+002
9.250914e+002, 5.078738e+002
9.255735e+002, 5.068914e+002
9.260557e+002, 5.068724e+002
9.265378e+002, 5.068680e+002
9.270199e+002, 5.060792e+002
9.275020e+002, 5.059082e+002
9.279841e+002, 5.071783e+002
9.284662e+002, 5.095122e+002
9.289484e+002, 5.104571e+002
9.294305e+002, 5.100365e+002
9.299126e+002, 5.098441e+002
9.303947e+002, 5.112246e+002
9.308768e+002, 5.125797e+002
9.313589e+002, 5.116618e+002
9.318411e+002, 5.092969e+002
9.323232e+002, 5.073159e+002
9.328053e+002, 5.059931e+002
9.332874e+002, 5.056019e+002
9.337695e+002, 5.066944e+002
9.342516e+002, 5.082403e+002
9.347338e+002, 5.085351e+002
9.352159e+002, 5.075886e+002
9.356980e+002, 5.070070e+002
9.361801e+002, 5.070758e+002
9.366622e+002, 5.073653e+002
9.371443e+002, 5.076190e+002
9.376265e+002, 5.077438e+002
9.381086e+002, 5.074746e+002
9.385907e+002, 5.064930e+002
9.390728e+002, 5.062977e+002
9.395549e+002, 5.077184e+002
9.400370e+002, 5.092205e+002
9.405192e+002, 5.099506e+002
9.410013e+002, 5.099315e+002
9.414834e+002, 5.094211e+002
9.419655e+002, 5.084330e+002
9.424476e+002, 5.079738e+002
9.429297e+002, 5.094626e+002
9.434119e+002, 5.112208e+002
9.438940e+002, 5.113661e+002
9.443761e+002, 5.102486e+002
9.448582e+002, 5.096449e+002
9.453403e+002, 5.106190e+002
9.458224e+002, 5.112307e+002
9.463046e+002, 5.110024e+002
9.467867e+002, 5.102621e+002
9.472688e+002, 5.096944e+002
9.477509e+002, 5.093024e+002
9.482330e+002, 5.091740e+002
9.487151e+002, 5.094596e+002
9.491973e+002, 5.096831e+002
9.496794e+002, 5.091430e+002
9.501615e+002, 5.084201e+002
9.506436e+002, 5.082731e+002
9.511257e+002, 5.095328e+002
9.516078e+002, 5.098974e+002
9.520900e+002, 5.087453e+002
9.525721e+002, 5.076942e+002
9.530542e+002, 5.084851e+002
9.535363e+002, 5.107078e+002
9.540184e+002, 5.117462e+002
9.545005e+002, 5.115221e+002
9.549827e+002, 5.110180e+002
9.554648e+002, 5.108154e+002
9.559469e+002, 5.106678e+002
9.564290e+002, 5.102622e+002
9.569111e+002, 5.096410e+002
9.573932e+002, 5.095380e+002
9.578754e+002, 5.100923e+002
9.583575e+002, 5.108837e+002
9.588396e+002, 5.118978e+002
9.593217e+002, 5.129250e+002
9.598038e+002, 5.133320e+002
9.602859e+002, 5.132850e+002
9.607681e+002, 5.133930e+002
9.612502e+002, 5.140948e+002
9.617323e+002, 5.146512e+002
9.622144e+002, 5.145231e+002
9.626965e+002, 5.140692e+002
9.631786e+002, 5.137596e+002
9.636608e+002, 5.137033e+002
9.641429e+002, 5.135635e+002
9.646250e+002, 5.133245e+002
9.651071e+002, 5.130566e+002
9.655892e+002, 5.126932e+002
9.660714e+002, 5.124008e+002
9.665535e+002, 5.126777e+002
9.670356e+002, 5.135428e+002
9.675177e+002, 5.141771e+002
9.679998e+002, 5.139693e+002
9.684819e+002, 5.136029e+002
9.689641e+002, 5.134668e+002
9.694462e+002, 5.135148e+002
9.699283e+002, 5.133309e+002
9.704104e+002, 5.128715e+002
9.708925e+002, 5.124814e+002
9.713746e+002, 5.123364e+002
9.718568e+002, 5.122568e+002
9.723389e+002, 5.116427e+002
9.728210e+002, 5.109167e+002
9.733031e+002, 5.109807e+002
9.737852e+002, 5.132520e+002
9.742673e+002, 5.148221e+002
9.747495e+002, 5.146381e+002
9.752316e+002, 5.139598e+002
9.757137e+002, 5.141796e+002
9.761958e+002, 5.153477e+002
9.766779e+002, 5.161356e+002
9.771600e+002, 5.164320e+002
9.776422e+002, 5.165695e+002
9.781243e+002, 5.168047e+002
9.786064e+002, 5.170764e+002
9.790885e+002, 5.172858e+002
9.795706e+002, 5.174260e+002
9.800527e+002, 5.177442e+002
9.805349e+002, 5.186605e+002
9.810170e+002, 5.191509e+002
9.814991e+002, 5.186481e+002
9.819812e+002, 5.175564e+002
9.824633e+002, 5.172615e+002
9.829454e+002, 5.176858e+002
9.834276e+002, 5.184026e+002
9.839097e+002, 5.195327e+002
9.843918e+002, 5.204659e+002
9.848739e+002, 5.206075e+002
9.853560e+002, 5.203367e+002
9.858381e+002, 5.202459e+002
9.863203e+002, 5.204954e+002
9.868024e+002, 5.206556e+002
9.872845e+002, 5.206509e+002
9.877666e+002, 5.207254e+002
9.882487e+002, 5.212758e+002
9.887308e+002, 5.220833e+002
9.892130e+002, 5.226252e+002
9.896951e+002, 5.228527e+002
9.901772e+002, 5.228014e+002
9.906593e+002, 5.221168e+002
9.911414e+002, 5.215067e+002
9.916235e+002, 5.214041e+002
9.921057e+002, 5.217184e+002
9.925878e+002, 5.220495e+002
9.930699e+002, 5.224374e+002
9.935520e+002, 5.224500e+002
9.940341e+002, 5.217916e+002
9.945162e+002, 5.209083e+002
9.949984e+002, 5.202218e+002
9.954805e+002, 5.198344e+002
9.959626e+002, 5.199606e+002
9.964447e+002, 5.211990e+002
9.969268e+002, 5.220930e+002
9.974089e+002, 5.224871e+002
9.978911e+002, 5.224269e+002
9.983732e+002, 5.217164e+002
9.988553e+002, 5.204081e+002
9.993374e+002, 5.198552e+002
9.998195e+002, 5.201257e+002
1.000302e+003, 5.205135e+002
1.000784e+003, 5.204204e+002
1.001266e+003, 5.202667e+002
1.001748e+003, 5.205603e+002
1.002230e+003, 5.212202e+002
1.002712e+003, 5.212708e+002
1.003194e+003, 5.203503e+002
1.003676e+003, 5.194744e+002
1.004159e+003, 5.188295e+002
1.004641e+003, 5.184612e+002
1.005123e+003, 5.187709e+002
1.005605e+003, 5.194379e+002
1.006087e+003, 5.193456e+002
1.006569e+003, 5.176521e+002
1.007051e+003, 5.165500e+002
1.007533e+003, 5.178131e+002
1.008016e+003, 5.196812e+002
1.008498e+003, 5.206074e+002
1.008980e+003, 5.204828e+002
1.009462e+003, 5.197573e+002
1.009944e+003, 5.182751e+002
1.010426e+003, 5.173291e+002
1.010908e+003, 5.185990e+002
1.011390e+003, 5.205153e+002
1.011872e+003, 5.208061e+002
1.012355e+003, 5.197734e+002
1.012837e+003, 5.190117e+002
1.013319e+003, 5.193842e+002
1.013801e+003, 5.195840e+002
1.014283e+003, 5.192522e+002
1.014765e+003, 5.186788e+002
1.015247e+003, 5.183969e+002
1.015729e+003, 5.183723e+002
1.016211e+003, 5.183723e+002
1.016694e+003, 5.183409e+002
1.017176e+003, 5.183891e+002
1.017658e+003, 5.187620e+002
1.018140e+003, 5.191628e+002
1.018622e+003, 5.192427e+002
1.019104e+003, 5.188777e+002
1.019586e+003, 5.190840e+002
1.020068e+003, 5.201685e+002
1.020551e+003, 5.208156e+002
1.021033e+003, 5.199273e+002
1.021515e+003, 5.183739e+002
1.021997e+003, 5.182029e+002
1.022479e+003, 5.190260e+002
1.022961e+003, 5.197045e+002
1.023443e+003, 5.193735e+002
1.023925e+003, 5.193071e+002
1.024407e+003, 5.202538e+002
1.024890e+003, 5.213746e+002
1.025372e+003, 5.215186e+002
1.025854e+003, 5.206461e+002
1.026336e+003, 5.199828e+002
1.026818e+003, 5.196199e+002
1.027300e+003, 5.196890e+002
1.027782e+003, 5.208821e+002
1.028264e+003, 5.221508e+002
1.028746e+003, 5.222481e+002
1.029229e+003, 5.210862e+002
1.029711e+003, 5.206754e+002
1.030193e+003, 5.216179e+002
1.030675e+003, 5.222150e+002
1.031157e+003, 5.216956e+002
1.031639e+003, 5.207228e+002
1.032121e+003, 5.209998e+002
1.032603e+003, 5.221166e+002
1.033086e+003, 5.227335e+002
1.033568e+003, 5.221141e+002
1.034050e+003, 5.216363e+002
1.034532e+003, 5.221034e+002
1.035014e+003, 5.228709e+002
1.035496e+003, 5.234089e+002
1.035978e+003, 5.237224e+002
1.036460e+003, 5.236910e+002
1.036943e+003, 5.232927e+002
1.037425e+003, 5.229349e+002
1.037907e+003, 5.229623e+002
1.038389e+003, 5.231500e+002
1.038871e+003, 5.233268e+002
1.039353e+003, 5.234582e+002
1.039835e+003, 5.234178e+002
1.040317e+003, 5.227502e+002
1.040799e+003, 5.226932e+002
1.041281e+003, 5.236932e+002
1.041764e+003, 5.249551e+002
1.042246e+003, 5.250626e+002
1.042728e+003, 5.243712e+002
1.043210e+003, 5.240764e+002
1.043692e+003, 5.244310e+002
1.044174e+003, 5.247572e+002
1.044656e+003, 5.245889e+002
1.045138e+003, 5.243419e+002
1.045621e+003, 5.243605e+002
1.046103e+003, 5.246060e+002
1.046585e+003, 5.243038e+002
1.047067e+003, 5.233923e+002
1.047549e+003, 5.228519e+002
1.048031e+003, 5.233188e+002
1.048513e+003, 5.241105e+002
1.048995e+003, 5.244210e+002
1.049478e+003, 5.244826e+002
1.049960e+003, 5.246913e+002
1.050442e+003, 5.257455e+002
1.050924e+003, 5.259138e+002
1.051406e+003, 5.247474e+002
1.051888e+003, 5.234904e+002
1.052370e+003, 5.234554e+002
1.052852e+003, 5.242554e+002
1.053334e+003, 5.244819e+002
1.053817e+003, 5.241507e+002
1.054299e+003, 5.239876e+002
1.054781e+003, 5.249077e+002
1.055263e+003, 5.255334e+002
1.055745e+003, 5.248454e+002
1.056227e+003, 5.235241e+002
1.056709e+003, 5.232907e+002
1.057191e+003, 5.242196e+002
1.057673e+003, 5.247551e+002
1.058156e+003, 5.245585e+002
1.058638e+003, 5.239462e+002
1.059120e+003, 5.225851e+002
1.059602e+003, 5.213738e+002
1.060084e+003, 5.215897e+002
1.060566e+003, 5.238204e+002
1.061048e+003, 5.247394e+002
1.061530e+003, 5.236923e+002
1.062013e+003, 5.226479e+002
1.062495e+003, 5.225180e+002
1.062977e+003, 5.230477e+002
1.063459e+003, 5.239587e+002
1.063941e+003, 5.249969e+002
1.064423e+003, 5.254457e+002
1.064905e+003, 5.246740e+002
1.065387e+003, 5.237573e+002
1.065870e+003, 5.228592e+002
1.066352e+003, 5.220995e+002
1.066834e+003, 5.214823e+002
1.067316e+003, 5.210076e+002
1.067798e+003, 5.215334e+002
1.068280e+003, 5.230936e+002
1.068762e+003, 5.244102e+002
1.069244e+003, 5.243129e+002
1.069726e+003, 5.238165e+002
1.070208e+003, 5.237582e+002
1.070691e+003, 5.240149e+002
1.071173e+003, 5.238939e+002
1.071655e+003, 5.232191e+002
1.072137e+003, 5.226381e+002
1.072619e+003, 5.222085e+002
1.073101e+003, 5.220660e+002
1.073583e+003, 5.226944e+002
1.074065e+003, 5.236046e+002
1.074548e+003, 5.239531e+002
1.075030e+003, 5.235317e+002
1.075512e+003, 5.231376e+002
1.075994e+003, 5.226725e+002
1.076476e+003, 5.227233e+002
1.076958e+003, 5.238554e+002
1.077440e+003, 5.255618e+002
1.077922e+003, 5.257923e+002
1.078405e+003, 5.248096e+002
1.078887e+003, 5.238917e+002
1.079369e+003, 5.236340e+002
1.079851e+003, 5.233796e+002
1.080333e+003, 5.227164e+002
1.080815e+003, 5.218912e+002
1.081297e+003, 5.210839e+002
1.081779e+003, 5.201367e+002
1.082261e+003, 5.203530e+002
1.082744e+003, 5.218435e+002
1.083226e+003, 5.230908e+002
1.083708e+003, 5.224481e+002
1.084190e+003, 5.214267e+002
1.084672e+003, 5.217291e+002
1.085154e+003, 5.230188e+002
1.085636e+003, 5.240706e+002
1.086118e+003, 5.247545e+002
1.086601e+003, 5.251188e+002
1.087083e+003, 5.251760e+002
1.087565e+003, 5.248946e+002
1.088047e+003, 5.239388e+002
1.088529e+003, 5.227010e+002
1.089011e+003, 5.220076e+002
1.089493e+003, 5.219510e+002
1.089975e+003, 5.220891e+002
1.090458e+003, 5.220089e+002
1.090940e+003, 5.224553e+002
1.091422e+003, 5.241226e+002
1.091904e+003, 5.262543e+002
1.092386e+003, 5.261208e+002
1.092868e+003, 5.241023e+002
1.093350e+003, 5.226085e+002
1.093832e+003, 5.224096e+002
1.094314e+003, 5.226379e+002
1.094797e+003, 5.231521e+002
1.095279e+003, 5.234940e+002
1.095761e+003, 5.230835e+002
1.096243e+003, 5.218516e+002
1.096725e+003, 5.212894e+002
1.097207e+003, 5.214276e+002
1.097689e+003, 5.219609e+002
1.098171e+003, 5.231296e+002
1.098653e+003, 5.241981e+002
1.099136e+003, 5.240499e+002
1.099618e+003, 5.232407e+002
1.100100e+003, 5.228697e+002
1.100582e+003, 5.234885e+002
1.101064e+003, 5.239191e+002
1.101546e+003, 5.240887e+002
1.102028e+003, 5.241568e+002
1.102510e+003, 5.242947e+002
1.102993e+003, 5.244277e+002
1.103475e+003, 5.244270e+002
1.103957e+003, 5.242799e+002
1.104439e+003, 5.239542e+002
1.104921e+003, 5.231425e+002
1.105403e+003, 5.225480e+002
1.105885e+003, 5.224110e+002
1.106367e+003, 5.225141e+002
1.106849e+003, 5.224146e+002
1.107332e+003, 5.221998e+002
1.107814e+003, 5.223463e+002
1.108296e+003, 5.229464e+002
1.108778e+003, 5.236786e+002
1.109260e+003, 5.248328e+002
1.109742e+003, 5.255851e+002
1.110224e+003, 5.251118e+002
1.110706e+003, 5.237496e+002
1.111188e+003, 5.232374e+002
1.111671e+003, 5.235803e+002
1.112153e+003, 5.241613e+002
1.112635e+003, 5.248824e+002
1.113117e+003, 5.255043e+002
1.113599e+003, 5.258649e+002
1.114081e+003, 5.259506e+002
1.114563e+003, 5.256942e+002
1.115045e+003, 5.250325e+002
1.115528e+003, 5.242244e+002
1.116010e+003, 5.230887e+002
1.116492e+003, 5.225781e+002
1.116974e+003, 5.236696e+002
1.117456e+003, 5.253263e+002
1.117938e+003, 5.260679e+002
1.118420e+003, 5.260541e+002
1.118902e+003, 5.256216e+002
1.119385e+003, 5.240485e+002
1.119867e+003, 5.234040e+002
1.120349e+003, 5.240931e+002
1.120831e+003, 5.251008e+002
1.121313e+003, 5.255795e+002
1.121795e+003, 5.256234e+002
1.122277e+003, 5.255152e+002
1.122759e+003, 5.252490e+002
1.123241e+003, 5.247407e+002
1.123724e+003, 5.231760e+002
1.124206e+003, 5.223816e+002
1.124688e+003, 5.231455e+002
1.125170e+003, 5.246076e+002
1.125652e+003, 5.254984e+002
1.126134e+003, 5.258733e+002
1.126616e+003, 5.259963e+002
1.127098e+003, 5.258871e+002
1.127580e+003, 5.260020e+002
1.128063e+003, 5.271733e+002
1.128545e+003, 5.281725e+002
1.129027e+003, 5.280480e+002
1.129509e+003, 5.271409e+002
1.129991e+003, 5.264831e+002
1.130473e+003, 5.260781e+002
1.130955e+003, 5.260652e+002
1.131437e+003, 5.266282e+002
1.131920e+003, 5.270237e+002
1.132402e+003, 5.261371e+002
1.132884e+003, 5.250184e+002
1.133366e+003, 5.248157e+002
1.133848e+003, 5.256790e+002
1.134330e+003, 5.261468e+002
1.134812e+003, 5.261132e+002
1.135294e+003, 5.262948e+002
1.135776e+003, 5.272474e+002
1.136259e+003, 5.281589e+002
1.136741e+003, 5.276686e+002
1.137223e+003, 5.264919e+002
1.137705e+003, 5.257150e+002
1.138187e+003, 5.255699e+002
1.138669e+003, 5.260276e+002
1.139151e+003, 5.273883e+002
1.139633e+003, 5.285511e+002
1.140115e+003, 5.286927e+002
1.140598e+003, 5.281674e+002
1.141080e+003, 5.274729e+002
1.141562e+003, 5.267457e+002
1.142044e+003, 5.263466e+002
1.142526e+003, 5.267973e+002
1.143008e+003, 5.270369e+002
1.143490e+003, 5.268906e+002
1.143972e+003, 5.266148e+002
1.144455e+003, 5.263797e+002
1.144937e+003, 5.262382e+002
1.145419e+003, 5.265287e+002
1.145901e+003, 5.271649e+002
1.146383e+003, 5.274647e+002
1.146865e+003, 5.268389e+002
1.147347e+003, 5.261050e+002
1.147829e+003, 5.253513e+002
1.148312e+003, 5.247779e+002
1.148794e+003, 5.247674e+002
1.149276e+003, 5.252465e+002
1.149758e+003, 5.257792e+002
1.150240e+003, 5.263148e+002
1.150722e+003, 5.267314e+002
1.151204e+003, 5.268258e+002
1.151686e+003, 5.269048e+002
1.152168e+003, 5.272313e+002
1.152651e+003, 5.276453e+002
1.153133e+003, 5.275192e+002
1.153615e+003, 5.268920e+002
1.154097e+003, 5.268259e+002
1.154579e+003, 5.276445e+002
1.155061e+003, 5.286085e+002
1.155543e+003, 5.295316e+002
1.156025e+003, 5.300222e+002
1.156507e+003, 5.293494e+002
1.156990e+003, 5.277289e+002
1.157472e+003, 5.273857e+002
1.157954e+003, 5.284257e+002
1.158436e+003, 5.291056e+002
1.158918e+003, 5.287456e+002
1.159400e+003, 5.280096e+002
1.159882e+003, 5.270135e+002
1.160364e+003, 5.263349e+002
1.160847e+003, 5.269470e+002
1.161329e+003, 5.292740e+002
1.161811e+003, 5.301690e+002
1.162293e+003, 5.293793e+002
1.162775e+003, 5.286946e+002
1.163257e+003, 5.291830e+002
1.163739e+003, 5.300645e+002
1.164221e+003, 5.304388e+002
1.164703e+003, 5.304866e+002
1.165186e+003, 5.304973e+002
1.165668e+003, 5.304358e+002
1.166150e+003, 5.305988e+002
1.166632e+003, 5.311025e+002
1.167114e+003, 5.313856e+002
1.167596e+003, 5.307693e+002
1.168078e+003, 5.298401e+002
1.168560e+003, 5.296212e+002
1.169042e+003, 5.298876e+002
1.169525e+003, 5.300345e+002
1.170007e+003, 5.298214e+002
1.170489e+003, 5.296056e+002
1.170971e+003, 5.293629e+002
1.171453e+003, 5.292364e+002
1.171935e+003, 5.295336e+002
1.172417e+003, 5.299719e+002
1.172899e+003, 5.297281e+002
1.173382e+003, 5.290175e+002
1.173864e+003, 5.290098e+002
1.174346e+003, 5.311082e+002
1.174828e+003, 5.324612e+002
1.175310e+003, 5.325486e+002
1.175792e+003, 5.320216e+002
1.176274e+003, 5.314321e+002
1.176756e+003, 5.309553e+002
1.177239e+003, 5.310955e+002
1.177721e+003, 5.318480e+002
1.178203e+003, 5.325660e+002
1.178685e+003, 5.329368e+002
1.179167e+003, 5.333286e+002
1.179649e+003, 5.339536e+002
1.180131e+003, 5.344803e+002
1.180613e+003, 5.340834e+002
1.181095e+003, 5.331232e+002
1.181578e+003, 5.327661e+002
1.182060e+003, 5.332189e+002
1.182542e+003, 5.334564e+002
1.183024e+003, 5.326226e+002
1.183506e+003, 5.319883e+002
1.183988e+003, 5.320219e+002
1.184470e+003, 5.325386e+002
1.184952e+003, 5.332427e+002
1.185434e+003, 5.340280e+002
1.185917e+003, 5.344940e+002
1.186399e+003, 5.345015e+002
1.186881e+003, 5.344254e+002
1.187363e+003, 5.342463e+002
1.187845e+003, 5.342535e+002
1.188327e+003, 5.346280e+002
1.188809e+003, 5.352644e+002
1.189291e+003, 5.358171e+002
1.189774e+003, 5.362857e+002
1.190256e+003, 5.367149e+002
1.190738e+003, 5.371794e+002
1.191220e+003, 5.374148e+002
1.191702e+003, 5.371390e+002
1.192184e+003, 5.367108e+002
1.192666e+003, 5.361937e+002
1.193148e+003, 5.357108e+002
1.193630e+003, 5.364236e+002
1.194113e+003, 5.380742e+002
1.194595e+003, 5.391252e+002
1.195077e+003, 5.386259e+002
1.195559e+003, 5.379789e+002
1.196041e+003, 5.376631e+002
1.196523e+003, 5.376962e+002
1.197005e+003, 5.382936e+002
1.197487e+003, 5.393776e+002
1.197969e+003, 5.393687e+002
1.198452e+003, 5.384093e+002
1.198934e+003, 5.375647e+002
1.199416e+003, 5.374008e+002
1.199898e+003, 5.374777e+002
1.200380e+003, 5.377083e+002
1.200862e+003, 5.380012e+002
1.201344e+003, 5.382455e+002
1.201826e+003, 5.384438e+002
1.202309e+003, 5.388489e+002
1.202791e+003, 5.394355e+002
1.203273e+003, 5.398739e+002
1.203755e+003, 5.399636e+002
1.204237e+003, 5.398692e+002
1.204719e+003, 5.393680e+002
1.205201e+003, 5.389233e+002
1.205683e+003, 5.391635e+002
1.206166e+003, 5.400695e+002
1.206648e+003, 5.410120e+002
1.207130e+003, 5.419225e+002
1.207612e+003, 5.422870e+002
1.208094e+003, 5.409908e+002
1.208576e+003, 5.399018e+002
1.209058e+003, 5.403397e+002
1.209540e+003, 5.414457e+002
1.210022e+003, 5.421113e+002
1.210505e+003, 5.423499e+002
1.210987e+003, 5.422547e+002
1.211469e+003, 5.418480e+002
1.211951e+003, 5.416072e+002
1.212433e+003, 5.419552e+002
1.212915e+003, 5.424557e+002
1.213397e+003, 5.427999e+002
1.213879e+003, 5.431813e+002
1.214361e+003, 5.442309e+002
1.214844e+003, 5.458387e+002
1.215326e+003, 5.459424e+002
1.215808e+003, 5.442944e+002
1.216290e+003, 5.428620e+002
1.216772e+003, 5.431385e+002
1.217254e+003, 5.438495e+002
1.217736e+003, 5.444531e+002
1.218218e+003, 5.449172e+002
1.218701e+003, 5.451448e+002
1.219183e+003, 5.451580e+002
1.219665e+003, 5.452372e+002
1.220147e+003, 5.454164e+002
1.220629e+003, 5.457344e+002
1.221111e+003, 5.462538e+002
1.221593e+003, 5.469024e+002
1.222075e+003, 5.479578e+002
1.222557e+003, 5.489538e+002
1.223040e+003, 5.483065e+002
1.223522e+003, 5.463028e+002
1.224004e+003, 5.452562e+002
1.224486e+003, 5.456398e+002
1.224968e+003, 5.463463e+002
1.225450e+003, 5.469890e+002
1.225932e+003, 5.474601e+002
1.226414e+003, 5.476934e+002
1.226896e+003, 5.477567e+002
1.227379e+003, 5.478470e+002
1.227861e+003, 5.479500e+002
1.228343e+003, 5.479568e+002
1.228825e+003, 5.478243e+002
1.229307e+003, 5.477241e+002
1.229789e+003, 5.476494e+002
1.230271e+003, 5.477501e+002
1.230753e+003, 5.481238e+002
1.231236e+003, 5.486912e+002
1.231718e+003, 5.492631e+002
1.232200e+003, 5.497969e+002
1.232682e+003, 5.500969e+002
1.233164e+003, 5.500922e+002
1.233646e+003, 5.499534e+002
1.234128e+003, 5.492086e+002
1.234610e+003, 5.490591e+002
1.235093e+003, 5.504471e+002
1.235575e+003, 5.525887e+002
1.236057e+003, 5.526789e+002
1.236539e+003, 5.513126e+002
1.237021e+003, 5.504225e+002
1.237503e+003, 5.506051e+002
1.237985e+003, 5.511058e+002
1.238467e+003, 5.519789e+002
1.238949e+003, 5.527042e+002
1.239432e+003, 5.530095e+002
1.239914e+003, 5.530298e+002
1.240396e+003, 5.529746e+002
1.240878e+003, 5.529883e+002
1.241360e+003, 5.536524e+002
1.241842e+003, 5.556949e+002
1.242324e+003, 5.564738e+002
1.242806e+003, 5.542623e+002
1.243288e+003, 5.526682e+002
1.243771e+003, 5.538646e+002
1.244253e+003, 5.565754e+002
1.244735e+003, 5.576694e+002
1.245217e+003, 5.576427e+002
1.245699e+003, 5.576542e+002
1.246181e+003, 5.579826e+002
1.246663e+003, 5.585187e+002
1.247145e+003, 5.593381e+002
1.247628e+003, 5.601445e+002
1.248110e+003, 5.608340e+002
1.248592e+003, 5.613521e+002
1.249074e+003, 5.614130e+002
1.249556e+003, 5.612424e+002
1.250038e+003, 5.612927e+002
1.250520e+003, 5.617758e+002
1.251002e+003, 5.622668e+002
1.251484e+003, 5.627911e+002
1.251967e+003, 5.631711e+002
1.252449e+003, 5.632333e+002
1.252931e+003, 5.631571e+002
1.253413e+003, 5.630801e+002
1.253895e+003, 5.631215e+002
1.254377e+003, 5.635567e+002
1.254859e+003, 5.647748e+002
1.255341e+003, 5.652996e+002
1.255823e+003, 5.649482e+002
1.256306e+003, 5.647712e+002
1.256788e+003, 5.656600e+002
1.257270e+003, 5.667208e+002
1.257752e+003, 5.667574e+002
1.258234e+003, 5.662716e+002
1.258716e+003, 5.660618e+002
1.259198e+003, 5.662469e+002
1.259680e+003, 5.666061e+002
1.260163e+003, 5.671924e+002
1.260645e+003, 5.675149e+002
1.261127e+003, 5.669877e+002
1.261609e+003, 5.664766e+002
1.262091e+003, 5.668663e+002
1.262573e+003, 5.677142e+002
1.263055e+003, 5.683983e+002
1.263537e+003, 5.688612e+002
1.264020e+003, 5.694630e+002
1.264502e+003, 5.701990e+002
1.264984e+003, 5.708298e+002
1.265466e+003, 5.712971e+002
1.265948e+003, 5.714899e+002
1.266430e+003, 5.708781e+002
1.266912e+003, 5.702595e+002
1.267394e+003, 5.706320e+002
1.267876e+003, 5.720071e+002
1.268359e+003, 5.727443e+002
1.268841e+003, 5.729262e+002
1.269323e+003, 5.733113e+002
1.269805e+003, 5.750015e+002
1.270287e+003, 5.760570e+002
1.270769e+003, 5.746365e+002
1.271251e+003, 5.730675e+002
1.271733e+003, 5.733362e+002
1.272215e+003, 5.751956e+002
1.272698e+003, 5.767385e+002
1.273180e+003, 5.779501e+002
1.273662e+003, 5.786771e+002
1.274144e+003, 5.781975e+002
1.274626e+003, 5.782419e+002
1.275108e+003, 5.796349e+002
1.275590e+003, 5.809387e+002
1.276072e+003, 5.808082e+002
1.276555e+003, 5.797170e+002
1.277037e+003, 5.790742e+002
1.277519e+003, 5.788616e+002
1.278001e+003, 5.790280e+002
1.278483e+003, 5.795767e+002
1.278965e+003, 5.806185e+002
1.279447e+003, 5.825004e+002
1.279929e+003, 5.839539e+002
1.280411e+003, 5.834694e+002
1.280894e+003, 5.822051e+002
1.281376e+003, 5.823760e+002
1.281858e+003, 5.834689e+002
1.282340e+003, 5.843043e+002
1.282822e+003, 5.844011e+002
1.283304e+003, 5.847950e+002
1.283786e+003, 5.855807e+002
1.284268e+003, 5.862156e+002
1.284750e+003, 5.859576e+002
1.285233e+003, 5.856890e+002
1.285715e+003, 5.867659e+002
1.286197e+003, 5.884326e+002
1.286679e+003, 5.892839e+002
1.287161e+003, 5.888984e+002
1.287643e+003, 5.893108e+002
1.288125e+003, 5.905488e+002
1.288607e+003, 5.917392e+002
1.289090e+003, 5.922960e+002
1.289572e+003, 5.926220e+002
1.290054e+003, 5.929078e+002
1.290536e+003, 5.931713e+002
1.291018e+003, 5.934927e+002
1.291500e+003, 5.938839e+002
1.291982e+003, 5.936369e+002
1.292464e+003, 5.928849e+002
1.292947e+003, 5.928389e+002
1.293429e+003, 5.950510e+002
1.293911e+003, 5.968529e+002
1.294393e+003, 5.967640e+002
1.294875e+003, 5.961032e+002
1.295357e+003, 5.956853e+002
1.295839e+003, 5.954965e+002
1.296321e+003, 5.954740e+002
1.296803e+003, 5.956724e+002
1.297286e+003, 5.962630e+002
1.297768e+003, 5.979219e+002
1.298250e+003, 5.989024e+002
1.298732e+003, 5.987147e+002
1.299214e+003, 5.983896e+002
1.299696e+003, 5.985655e+002
1.300178e+003, 5.990971e+002
1.300660e+003, 5.999435e+002
##END=



