##NAMES=Clinoatacamite
##RRUFFID=R141083
##IDEAL CHEMISTRY=Cu^2+^_2_Cl(OH)_3_
##LOCALITY=Lily mine, Ica Region, Peru
##OWNER=RRUFF
##SOURCE=Marcus Origlieri
##DESCRIPTION=Dark green crystals
##STATUS=The identification of this mineral has been confirmed by single-crystal X-ray diffraction.
##URL=rruff.info/R141083
89.01367, 1890.431
89.49579, 1902.273
89.97791, 1905.706
90.46002, 1897.325
90.94214, 1888.113
91.42426, 1891.134
91.90637, 1905.612
92.38849, 1918.735
92.87061, 1916.662
93.35272, 1905.420
93.83484, 1901.024
94.31696, 1906.729
94.79907, 1921.064
95.28119, 1943.937
95.76331, 1976.853
96.24542, 2015.896
96.72754, 2065.985
97.20966, 2126.750
97.69177, 2165.363
98.17389, 2169.928
98.65601, 2142.996
99.13812, 2106.652
99.62024, 2056.380
100.1024, 2005.274
100.5845, 1971.925
101.0666, 1957.336
101.5487, 1952.574
102.0308, 1955.108
102.5129, 1965.934
102.9951, 1978.917
103.4772, 1994.077
103.9593, 2011.278
104.4414, 2029.776
104.9235, 2047.706
105.4056, 2069.705
105.8878, 2098.198
106.3699, 2135.127
106.8520, 2174.753
107.3341, 2220.166
107.8162, 2269.406
108.2983, 2310.960
108.7805, 2338.094
109.2626, 2363.016
109.7447, 2392.022
110.2268, 2422.615
110.7089, 2459.886
111.1910, 2503.015
111.6732, 2552.017
112.1553, 2610.708
112.6374, 2676.249
113.1195, 2752.590
113.6016, 2843.810
114.0837, 2942.325
114.5659, 3062.308
115.0480, 3208.480
115.5301, 3383.417
116.0122, 3577.066
116.4943, 3807.907
116.9764, 4051.690
117.4586, 4277.567
117.9407, 4511.882
118.4228, 4700.295
118.9049, 4812.687
119.3870, 4848.026
119.8691, 4800.541
120.3513, 4632.114
120.8334, 4377.561
121.3155, 4107.931
121.7976, 3826.933
122.2797, 3562.495
122.7618, 3344.601
123.2440, 3182.198
123.7261, 3055.224
124.2082, 2954.163
124.6903, 2875.839
125.1724, 2810.611
125.6545, 2753.954
126.1367, 2705.855
126.6188, 2666.656
127.1009, 2637.307
127.5830, 2615.662
128.0651, 2598.931
128.5472, 2587.073
129.0294, 2580.256
129.5115, 2579.286
129.9936, 2583.614
130.4757, 2591.066
130.9578, 2601.555
131.4399, 2614.634
131.9221, 2628.798
132.4042, 2644.052
132.8863, 2661.504
133.3684, 2680.881
133.8505, 2702.293
134.3326, 2731.956
134.8148, 2771.638
135.2969, 2821.079
135.7790, 2876.806
136.2611, 2938.642
136.7432, 3008.143
137.2253, 3088.260
137.7075, 3178.986
138.1896, 3282.441
138.6717, 3402.999
139.1538, 3540.774
139.6359, 3680.874
140.1180, 3828.771
140.6002, 3973.742
141.0823, 4107.061
141.5644, 4246.417
142.0465, 4333.942
142.5286, 4351.425
143.0107, 4301.410
143.4929, 4166.354
143.9750, 3910.862
144.4571, 3580.684
144.9392, 3289.666
145.4213, 3029.572
145.9034, 2812.642
146.3856, 2643.095
146.8677, 2541.341
147.3498, 2455.766
147.8319, 2391.813
148.3140, 2344.837
148.7961, 2296.278
149.2783, 2245.361
149.7604, 2194.586
150.2425, 2144.663
150.7246, 2093.823
151.2067, 2046.457
151.6888, 2002.324
152.1710, 1961.543
152.6531, 1923.680
153.1352, 1887.358
153.6173, 1854.800
154.0994, 1827.217
154.5815, 1806.682
155.0637, 1789.049
155.5458, 1775.285
156.0279, 1764.854
156.5100, 1753.492
156.9921, 1738.803
157.4742, 1723.667
157.9564, 1710.165
158.4385, 1698.554
158.9206, 1688.882
159.4027, 1681.531
159.8848, 1676.445
160.3669, 1672.345
160.8491, 1669.172
161.3312, 1666.638
161.8133, 1664.398
162.2954, 1661.923
162.7775, 1660.072
163.2596, 1659.702
163.7418, 1660.823
164.2239, 1661.404
164.7060, 1660.701
165.1881, 1658.774
165.6702, 1655.729
166.1523, 1651.988
166.6345, 1646.813
167.1166, 1639.978
167.5987, 1631.484
168.0808, 1620.777
168.5629, 1607.927
169.0450, 1592.530
169.5272, 1574.176
170.0093, 1549.607
170.4914, 1523.497
170.9735, 1500.307
171.4556, 1480.332
171.9377, 1462.020
172.4199, 1443.342
172.9020, 1425.200
173.3841, 1410.198
173.8662, 1400.143
174.3483, 1393.323
174.8304, 1387.875
175.3126, 1383.764
175.7947, 1380.665
176.2768, 1378.688
176.7589, 1377.572
177.2410, 1376.552
177.7231, 1374.632
178.2053, 1372.667
178.6874, 1372.459
179.1695, 1374.517
179.6516, 1377.049
180.1337, 1377.509
180.6158, 1376.391
181.0980, 1375.995
181.5801, 1378.037
182.0622, 1381.750
182.5443, 1385.518
183.0264, 1389.213
183.5085, 1392.721
183.9907, 1395.848
184.4728, 1398.613
184.9549, 1400.970
185.4370, 1402.453
185.9191, 1403.413
186.4012, 1405.419
186.8834, 1408.935
187.3655, 1412.881
187.8476, 1415.210
188.3297, 1415.972
188.8118, 1416.493
189.2939, 1417.757
189.7761, 1419.626
190.2582, 1420.996
190.7403, 1421.713
191.2224, 1421.962
191.7045, 1421.899
192.1866, 1421.499
192.6688, 1421.365
193.1509, 1422.014
193.6330, 1423.403
194.1151, 1424.742
194.5972, 1425.862
195.0793, 1426.962
195.5615, 1428.745
196.0436, 1431.336
196.5257, 1433.615
197.0078, 1434.906
197.4899, 1435.189
197.9720, 1434.631
198.4542, 1433.039
198.9363, 1430.807
199.4184, 1429.232
199.9005, 1428.539
200.3826, 1427.473
200.8647, 1425.051
201.3469, 1421.157
201.8290, 1417.186
202.3111, 1413.486
202.7932, 1409.759
203.2753, 1405.113
203.7574, 1399.500
204.2396, 1393.099
204.7217, 1385.830
205.2038, 1377.512
205.6859, 1369.343
206.1680, 1361.388
206.6501, 1353.719
207.1323, 1346.451
207.6144, 1339.815
208.0965, 1332.981
208.5786, 1325.182
209.0607, 1315.940
209.5428, 1307.866
210.0250, 1301.626
210.5071, 1296.749
210.9892, 1290.916
211.4713, 1283.682
211.9534, 1276.408
212.4355, 1270.023
212.9176, 1264.857
213.3998, 1259.388
213.8819, 1253.611
214.3640, 1247.370
214.8461, 1240.167
215.3282, 1231.491
215.8103, 1222.611
216.2925, 1214.244
216.7746, 1206.446
217.2567, 1198.933
217.7388, 1191.800
218.2209, 1184.839
218.7030, 1177.387
219.1852, 1169.057
219.6673, 1160.726
220.1494, 1153.066
220.6315, 1146.201
221.1136, 1139.555
221.5957, 1132.921
222.0779, 1126.484
222.5600, 1120.755
223.0421, 1116.059
223.5242, 1111.771
224.0063, 1107.588
224.4884, 1103.656
224.9706, 1099.494
225.4527, 1094.811
225.9348, 1089.853
226.4169, 1085.470
226.8990, 1081.841
227.3811, 1078.626
227.8633, 1075.673
228.3454, 1072.935
228.8275, 1070.620
229.3096, 1069.010
229.7917, 1067.845
230.2738, 1066.020
230.7560, 1062.930
231.2381, 1060.142
231.7202, 1058.682
232.2023, 1059.486
232.6844, 1059.501
233.1665, 1058.128
233.6487, 1055.932
234.1308, 1054.973
234.6129, 1056.153
235.0950, 1057.283
235.5771, 1057.163
236.0592, 1054.902
236.5414, 1053.313
237.0235, 1052.389
237.5056, 1052.166
237.9877, 1052.911
238.4698, 1055.260
238.9520, 1057.615
239.4341, 1059.276
239.9162, 1060.030
240.3983, 1060.485
240.8804, 1060.457
241.3625, 1060.168
241.8447, 1060.143
242.3268, 1060.137
242.8089, 1060.772
243.2910, 1062.534
243.7731, 1066.424
244.2552, 1068.833
244.7374, 1069.056
245.2195, 1068.100
245.7016, 1068.268
246.1837, 1070.407
246.6658, 1072.294
247.1479, 1072.821
247.6301, 1071.100
248.1122, 1071.078
248.5943, 1073.605
249.0764, 1077.374
249.5585, 1079.898
250.0406, 1080.477
250.5228, 1081.065
251.0049, 1082.365
251.4870, 1084.542
251.9691, 1086.749
252.4512, 1089.157
252.9333, 1091.470
253.4155, 1093.174
253.8976, 1093.875
254.3797, 1094.726
254.8618, 1096.202
255.3439, 1098.475
255.8260, 1100.053
256.3082, 1100.819
256.7903, 1100.943
257.2724, 1100.618
257.7545, 1099.790
258.2366, 1098.606
258.7188, 1097.107
259.2009, 1095.328
259.6830, 1093.065
260.1651, 1090.327
260.6472, 1087.135
261.1293, 1083.547
261.6115, 1079.691
262.0936, 1075.195
262.5757, 1069.884
263.0578, 1063.708
263.5399, 1057.886
264.0220, 1052.585
264.5042, 1047.278
264.9863, 1041.205
265.4684, 1034.013
265.9505, 1027.446
266.4326, 1022.116
266.9147, 1017.820
267.3969, 1012.206
267.8790, 1004.836
268.3611, 997.0607
268.8432, 990.0558
269.3253, 983.9270
269.8074, 978.1141
270.2896, 972.5670
270.7717, 967.2958
271.2538, 962.2311
271.7359, 957.4312
272.2180, 952.8541
272.7001, 948.5356
273.1823, 944.4626
273.6644, 940.4715
274.1465, 936.5970
274.6286, 932.7805
275.1107, 928.5793
275.5928, 923.8709
276.0750, 919.5451
276.5571, 916.4199
277.0392, 914.6117
277.5213, 912.3136
278.0034, 909.2783
278.4855, 905.8141
278.9677, 902.7285
279.4498, 900.0800
279.9319, 897.3845
280.4140, 894.2426
280.8961, 890.6663
281.3782, 887.3702
281.8604, 884.3398
282.3425, 881.6857
282.8246, 879.8937
283.3067, 879.0180
283.7888, 877.7319
284.2709, 875.0792
284.7531, 871.2590
285.2352, 868.0754
285.7173, 865.5397
286.1994, 863.6331
286.6815, 862.7041
287.1636, 862.6841
287.6458, 862.2105
288.1279, 860.6495
288.6100, 858.2080
289.0921, 855.4598
289.5742, 852.3073
290.0563, 849.5099
290.5385, 848.2077
291.0206, 848.1666
291.5027, 847.9220
291.9848, 847.0323
292.4669, 845.6210
292.9490, 843.5413
293.4312, 840.7891
293.9133, 838.7285
294.3954, 839.6981
294.8775, 842.5665
295.3596, 843.4415
295.8417, 840.4807
296.3239, 835.9503
296.8060, 833.4031
297.2881, 832.7054
297.7702, 832.4971
298.2523, 832.2073
298.7344, 831.6426
299.2166, 830.2624
299.6987, 827.6865
300.1808, 824.8626
300.6629, 822.7684
301.1450, 821.3738
301.6271, 820.4444
302.1093, 820.2174
302.5914, 820.2675
303.0735, 820.0411
303.5556, 819.4999
304.0377, 818.5370
304.5198, 816.5439
305.0020, 813.9951
305.4841, 811.9977
305.9662, 811.7281
306.4483, 811.9785
306.9304, 811.4919
307.4125, 810.1102
307.8947, 808.4669
308.3768, 806.7411
308.8589, 805.0980
309.3410, 803.7789
309.8231, 803.3971
310.3052, 803.0217
310.7874, 801.8484
311.2695, 799.8693
311.7516, 797.9672
312.2337, 796.6429
312.7158, 795.6475
313.1979, 794.7362
313.6801, 794.0282
314.1622, 793.2274
314.6443, 792.0629
315.1264, 790.6247
315.6085, 789.3851
316.0906, 788.8242
316.5728, 788.4082
317.0549, 787.7396
317.5370, 786.5427
318.0191, 785.3597
318.5012, 784.2113
318.9833, 783.1932
319.4655, 782.5750
319.9476, 782.9469
320.4297, 783.3490
320.9118, 783.2625
321.3939, 782.3642
321.8760, 781.5335
322.3582, 780.9240
322.8403, 780.4745
323.3224, 780.0875
323.8045, 779.4133
324.2866, 779.1002
324.7687, 779.6205
325.2509, 781.4410
325.7330, 782.2581
326.2151, 780.6580
326.6972, 778.5145
327.1793, 777.8104
327.6614, 780.4745
328.1436, 782.4567
328.6257, 782.8874
329.1078, 781.7244
329.5899, 781.0654
330.0720, 781.1277
330.5541, 781.5214
331.0363, 781.9877
331.5184, 782.5936
332.0005, 783.1533
332.4826, 783.6467
332.9647, 784.0782
333.4468, 784.4666
333.9290, 784.7058
334.4111, 785.0414
334.8932, 785.6223
335.3753, 786.5178
335.8574, 787.3684
336.3395, 788.0034
336.8216, 788.6992
337.3037, 790.2937
337.7859, 793.2457
338.2680, 795.5675
338.7501, 796.1941
339.2322, 794.9998
339.7143, 794.4045
340.1964, 794.4686
340.6786, 795.0224
341.1607, 796.0792
341.6428, 797.7148
342.1249, 798.8775
342.6070, 799.1770
343.0891, 798.7568
343.5713, 798.2031
344.0534, 797.4871
344.5355, 796.8375
345.0176, 796.4766
345.4997, 796.3782
345.9818, 796.3582
346.4640, 796.3679
346.9461, 796.4646
347.4282, 796.6771
347.9103, 797.0287
348.3924, 797.7366
348.8745, 799.2703
349.3567, 801.2596
349.8388, 802.7214
350.3209, 803.4389
350.8030, 804.0568
351.2851, 805.2483
351.7672, 806.9459
352.2494, 808.9473
352.7315, 811.1977
353.2136, 813.6683
353.6957, 816.3363
354.1778, 819.2234
354.6599, 822.2391
355.1421, 825.5026
355.6242, 828.8269
356.1063, 831.8867
356.5884, 834.4384
357.0705, 836.8235
357.5526, 839.0081
358.0348, 841.1172
358.5169, 843.7803
358.9990, 848.0763
359.4811, 852.7014
359.9632, 856.4638
360.4453, 858.7742
360.9275, 860.7918
361.4096, 863.3977
361.8917, 866.0519
362.3738, 867.5229
362.8559, 866.1608
363.3380, 864.5160
363.8202, 863.9437
364.3023, 865.1063
364.7844, 865.5629
365.2665, 864.4160
365.7486, 862.4974
366.2307, 860.8059
366.7129, 859.8868
367.1950, 858.7770
367.6771, 857.4763
368.1592, 856.0413
368.6413, 853.6474
369.1234, 850.2110
369.6056, 845.9093
370.0877, 840.7806
370.5698, 834.3345
371.0519, 828.0187
371.5340, 822.0730
372.0161, 816.3238
372.4983, 810.0886
372.9804, 803.2224
373.4625, 796.0032
373.9446, 788.6412
374.4267, 781.1436
374.9088, 773.1915
375.3910, 764.7015
375.8731, 755.8951
376.3552, 747.2589
376.8373, 738.6087
377.3194, 730.6418
377.8015, 723.6834
378.2837, 717.6301
378.7658, 712.2979
379.2479, 707.7150
379.7300, 703.4820
380.2121, 699.1237
380.6942, 694.7197
381.1764, 690.7276
381.6585, 687.2239
382.1406, 684.2587
382.6227, 682.1302
383.1048, 680.7717
383.5869, 679.7286
384.0691, 679.0356
384.5512, 678.3968
385.0333, 677.0011
385.5154, 674.5744
385.9975, 672.3594
386.4796, 671.8123
386.9618, 672.4499
387.4439, 673.1902
387.9260, 673.4789
388.4081, 673.6882
388.8902, 674.1213
389.3723, 674.7884
389.8545, 675.6678
390.3366, 676.7336
390.8187, 678.0333
391.3008, 679.6154
391.7829, 681.4871
392.2650, 683.6650
392.7472, 686.2254
393.2293, 689.1320
393.7114, 692.3018
394.1935, 695.7865
394.6756, 699.4661
395.1577, 703.2139
395.6399, 706.8656
396.1220, 711.0635
396.6041, 715.8223
397.0862, 721.2152
397.5683, 727.3311
398.0504, 734.9490
398.5326, 742.4510
399.0147, 749.3688
399.4968, 755.6951
399.9789, 762.5668
400.4610, 770.0660
400.9431, 777.9235
401.4253, 785.8857
401.9074, 793.5643
402.3895, 802.2373
402.8716, 812.3978
403.3537, 823.3748
403.8358, 833.7169
404.3180, 843.0510
404.8001, 852.5568
405.2822, 862.7913
405.7643, 873.7866
406.2464, 884.6386
406.7285, 895.2523
407.2107, 905.7363
407.6928, 916.1070
408.1749, 926.4222
408.6570, 936.7859
409.1391, 946.9576
409.6212, 957.4171
410.1034, 969.4402
410.5855, 983.0526
411.0676, 996.9266
411.5497, 1009.971
412.0318, 1022.719
412.5139, 1036.434
412.9961, 1051.346
413.4782, 1067.342
413.9603, 1084.605
414.4424, 1102.828
414.9245, 1120.790
415.4066, 1138.524
415.8888, 1155.551
416.3709, 1171.347
416.8530, 1186.035
417.3351, 1199.968
417.8172, 1214.262
418.2993, 1227.570
418.7815, 1238.843
419.2636, 1247.598
419.7457, 1254.369
420.2278, 1259.301
420.7099, 1262.345
421.1920, 1263.134
421.6742, 1261.836
422.1563, 1258.104
422.6384, 1251.674
423.1205, 1242.170
423.6026, 1231.200
424.0847, 1218.120
424.5669, 1204.026
425.0490, 1190.036
425.5311, 1175.980
426.0132, 1162.053
426.4953, 1148.226
426.9774, 1134.580
427.4596, 1121.072
427.9417, 1107.244
428.4238, 1094.500
428.9059, 1083.521
429.3880, 1074.650
429.8701, 1066.007
430.3523, 1057.442
430.8344, 1049.262
431.3165, 1041.752
431.7986, 1034.910
432.2807, 1029.019
432.7628, 1024.251
433.2450, 1020.452
433.7271, 1017.089
434.2092, 1014.168
434.6913, 1011.765
435.1734, 1009.868
435.6555, 1008.525
436.1377, 1007.952
436.6198, 1008.361
437.1019, 1009.088
437.5840, 1009.363
438.0661, 1009.333
438.5482, 1009.407
439.0304, 1010.037
439.5125, 1010.698
439.9946, 1010.880
440.4767, 1010.544
440.9588, 1010.010
441.4409, 1009.817
441.9231, 1009.319
442.4052, 1007.899
442.8873, 1005.219
443.3694, 1001.764
443.8515, 997.6161
444.3336, 992.7912
444.8158, 987.4684
445.2979, 982.0165
445.7800, 975.7607
446.2621, 968.6447
446.7442, 960.9749
447.2263, 951.2451
447.7085, 938.3942
448.1906, 924.2139
448.6727, 910.1277
449.1548, 896.0818
449.6369, 882.6168
450.1190, 869.9977
450.6012, 858.0642
451.0833, 845.5457
451.5654, 832.1019
452.0475, 818.8486
452.5296, 805.9836
453.0117, 793.4396
453.4939, 781.8419
453.9760, 771.1125
454.4581, 761.2432
454.9402, 752.1324
455.4223, 743.8085
455.9044, 735.8832
456.3866, 728.3546
456.8687, 721.2427
457.3508, 714.9275
457.8329, 709.3006
458.3150, 703.9811
458.7971, 698.4191
459.2793, 693.0678
459.7614, 688.5497
460.2435, 685.0634
460.7256, 681.9769
461.2077, 679.0587
461.6898, 676.2641
462.1720, 673.4848
462.6541, 670.1787
463.1362, 667.3889
463.6183, 665.8262
464.1004, 665.3728
464.5826, 664.6819
465.0647, 663.0741
465.5468, 661.3787
466.0289, 659.9973
466.5110, 658.6916
466.9931, 658.2380
467.4753, 659.3998
467.9574, 661.0927
468.4395, 661.6875
468.9216, 660.1865
469.4037, 659.4384
469.8858, 660.3077
470.3680, 662.5978
470.8501, 664.3400
471.3322, 665.3209
471.8143, 666.3505
472.2964, 668.0727
472.7785, 670.4887
473.2607, 672.7708
473.7428, 674.7281
474.2249, 676.9039
474.7070, 680.3620
475.1891, 684.9130
475.6712, 689.3021
476.1534, 692.6436
476.6355, 695.7250
477.1176, 699.7629
477.5997, 704.7295
478.0818, 710.3139
478.5639, 716.5106
479.0461, 723.1437
479.5282, 729.8776
480.0103, 736.5076
480.4924, 743.6437
480.9745, 751.8542
481.4566, 760.7244
481.9388, 769.6447
482.4209, 777.3455
482.9030, 786.1146
483.3851, 797.2479
483.8672, 810.5156
484.3493, 823.3568
484.8315, 835.1360
485.3136, 846.6417
485.7957, 858.0332
486.2778, 868.6157
486.7599, 880.7891
487.2420, 894.9844
487.7242, 910.3058
488.2063, 925.5975
488.6884, 940.6707
489.1705, 956.4049
489.6526, 973.0982
490.1347, 990.6403
490.6169, 1009.398
491.0990, 1029.545
491.5811, 1050.253
492.0632, 1071.032
492.5453, 1091.852
493.0274, 1113.069
493.5096, 1134.805
493.9917, 1156.810
494.4738, 1179.344
494.9559, 1202.193
495.4380, 1225.004
495.9201, 1247.084
496.4023, 1269.651
496.8844, 1294.188
497.3665, 1320.059
497.8486, 1345.374
498.3307, 1369.164
498.8128, 1391.873
499.2950, 1412.954
499.7771, 1432.345
500.2592, 1451.778
500.7413, 1471.193
501.2234, 1491.196
501.7055, 1512.153
502.1877, 1534.351
502.6698, 1557.202
503.1519, 1580.600
503.6340, 1604.374
504.1161, 1628.443
504.5982, 1652.242
505.0804, 1677.789
505.5625, 1706.156
506.0446, 1737.496
506.5267, 1769.507
507.0088, 1802.781
507.4909, 1836.242
507.9731, 1869.592
508.4552, 1902.788
508.9373, 1935.501
509.4194, 1968.111
509.9015, 1999.259
510.3836, 2026.613
510.8658, 2050.203
511.3479, 2069.611
511.8300, 2085.354
512.3121, 2096.654
512.7943, 2103.623
513.2764, 2106.064
513.7585, 2100.670
514.2406, 2084.339
514.7227, 2059.632
515.2048, 2029.053
515.6870, 1992.618
516.1691, 1951.129
516.6512, 1903.501
517.1333, 1851.271
517.6154, 1796.948
518.0975, 1739.674
518.5797, 1681.621
519.0618, 1621.632
519.5439, 1560.502
520.0260, 1502.276
520.5081, 1447.454
520.9902, 1394.551
521.4724, 1343.142
521.9545, 1292.714
522.4366, 1244.990
522.9187, 1199.715
523.4008, 1157.382
523.8829, 1119.020
524.3651, 1084.326
524.8472, 1050.931
525.3293, 1018.328
525.8114, 987.0471
526.2935, 958.3227
526.7756, 932.1296
527.2578, 907.6546
527.7399, 883.9941
528.2220, 861.8260
528.7041, 841.7992
529.1862, 823.9214
529.6683, 807.2238
530.1505, 790.7982
530.6326, 775.1821
531.1147, 760.8457
531.5968, 748.2274
532.0789, 736.4272
532.5610, 725.4366
533.0432, 715.1246
533.5253, 705.5225
534.0074, 696.9275
534.4895, 688.5392
534.9716, 680.0821
535.4537, 671.6136
535.9359, 663.8024
536.4180, 656.7997
536.9001, 650.3148
537.3822, 644.0591
537.8643, 638.0645
538.3464, 632.6780
538.8286, 627.9865
539.3107, 623.8091
539.7928, 619.7641
540.2749, 615.9056
540.7570, 612.4340
541.2391, 609.4081
541.7213, 606.7957
542.2034, 604.9619
542.6855, 603.6671
543.1676, 601.9082
543.6497, 598.3470
544.1318, 594.5671
544.6140, 591.8571
545.0961, 590.3495
545.5782, 589.3927
546.0603, 589.1707
546.5424, 589.1155
547.0245, 588.7484
547.5067, 587.2863
547.9888, 586.4765
548.4709, 586.9425
548.9530, 587.9812
549.4351, 588.3710
549.9172, 587.7355
550.3994, 587.1770
550.8815, 586.9941
551.3636, 587.1275
551.8457, 586.9846
552.3278, 586.3739
552.8099, 586.4733
553.2921, 588.5850
553.7742, 592.2821
554.2563, 594.8936
554.7384, 596.1736
555.2205, 597.2455
555.7026, 599.3356
556.1848, 602.1083
556.6669, 604.8312
557.1490, 607.1298
557.6311, 609.5858
558.1132, 612.5186
558.5953, 615.9615
559.0775, 620.0602
559.5596, 626.0547
560.0417, 631.6115
560.5238, 635.2864
561.0059, 637.0022
561.4880, 639.5887
561.9702, 643.6984
562.4523, 648.5222
562.9344, 653.7897
563.4165, 659.8384
563.8986, 665.4313
564.3807, 670.3228
564.8629, 675.1559
565.3450, 680.8760
565.8271, 687.6910
566.3092, 693.9727
566.7913, 699.2541
567.2734, 703.9921
567.7556, 709.0164
568.2377, 714.3305
568.7198, 719.5371
569.2019, 724.4121
569.6840, 729.1198
570.1661, 733.8366
570.6483, 738.5599
571.1304, 743.5263
571.6125, 749.9980
572.0946, 756.0895
572.5767, 759.8376
573.0588, 760.1566
573.5410, 760.2444
574.0231, 760.9781
574.5052, 762.0270
574.9873, 762.9847
575.4694, 764.3759
575.9515, 764.9495
576.4337, 764.6508
576.9158, 763.4251
577.3979, 760.9674
577.8800, 756.9652
578.3621, 752.6840
578.8442, 748.9739
579.3264, 745.5797
579.8085, 740.1627
580.2906, 732.5701
580.7727, 724.1641
581.2548, 715.9340
581.7369, 707.7336
582.2190, 699.3497
582.7011, 690.6047
583.1832, 681.7967
583.6653, 673.1927
584.1475, 664.6689
584.6296, 656.0420
585.1117, 647.3251
585.5938, 638.3622
586.0759, 629.1857
586.5580, 619.7147
587.0402, 610.0794
587.5223, 599.1745
588.0044, 589.2756
588.4865, 581.4086
588.9686, 575.6193
589.4507, 568.9252
589.9329, 560.9518
590.4150, 552.8731
590.8971, 545.3411
591.3792, 538.3179
591.8613, 532.2390
592.3434, 527.2645
592.8256, 522.5782
593.3077, 517.0966
593.7898, 511.0171
594.2719, 505.1896
594.7540, 499.7278
595.2361, 494.6940
595.7183, 490.3336
596.2004, 486.4954
596.6825, 482.8692
597.1646, 479.6758
597.6467, 476.3180
598.1288, 472.1583
598.6110, 467.3229
599.0931, 463.1748
599.5752, 460.4975
600.0573, 458.1805
600.5394, 455.7006
601.0215, 453.0218
601.5037, 450.2216
601.9858, 447.1660
602.4679, 444.1794
602.9500, 441.6027
603.4321, 439.4305
603.9142, 437.5479
604.3964, 435.9706
604.8785, 434.5758
605.3606, 433.3412
605.8427, 432.1824
606.3248, 430.6720
606.8069, 428.2390
607.2891, 425.7731
607.7712, 424.4392
608.2533, 423.9818
608.7354, 423.4398
609.2175, 422.3576
609.6996, 421.0090
610.1818, 419.4808
610.6639, 417.7531
611.1460, 416.1279
611.6281, 414.4464
612.1102, 413.0565
612.5923, 412.2290
613.0745, 412.3558
613.5566, 412.1045
614.0387, 411.4892
614.5208, 410.4887
615.0029, 408.9162
615.4850, 406.7231
615.9672, 404.8732
616.4493, 403.5609
616.9314, 402.6338
617.4135, 402.0213
617.8956, 401.6143
618.3777, 400.9586
618.8599, 399.5283
619.3420, 397.9585
619.8241, 396.9250
620.3062, 396.3495
620.7883, 395.8083
621.2704, 395.0315
621.7526, 394.2921
622.2347, 393.7642
622.7168, 393.4966
623.1989, 393.2473
623.6810, 393.0831
624.1631, 392.8506
624.6453, 392.4751
625.1274, 392.0332
625.6095, 391.1496
626.0916, 389.6123
626.5737, 387.9669
627.0558, 386.9283
627.5380, 386.4877
628.0201, 386.5303
628.5022, 387.2212
628.9843, 388.0670
629.4664, 388.3992
629.9485, 388.2430
630.4307, 387.6622
630.9128, 386.1500
631.3949, 384.6505
631.8770, 383.9209
632.3591, 383.8942
632.8412, 384.0804
633.3234, 384.8989
633.8055, 385.3918
634.2876, 384.9174
634.7697, 383.1922
635.2518, 381.8418
635.7339, 380.8030
636.2161, 380.2121
636.6982, 380.3760
637.1803, 381.4843
637.6624, 381.8500
638.1445, 381.1833
638.6266, 380.2792
639.1088, 380.4105
639.5909, 381.2914
640.0730, 381.6358
640.5551, 380.8869
641.0372, 379.8342
641.5193, 379.3246
642.0015, 379.1714
642.4836, 378.9345
642.9657, 377.8971
643.4478, 377.2382
643.9299, 378.0644
644.4120, 380.0379
644.8942, 380.8627
645.3763, 378.8194
645.8584, 376.9814
646.3405, 376.5066
646.8226, 377.5037
647.3047, 377.9023
647.7869, 377.5311
648.2690, 376.9806
648.7511, 376.7109
649.2332, 376.6827
649.7153, 376.5415
650.1974, 376.2345
650.6796, 375.9945
651.1617, 376.2062
651.6438, 376.6399
652.1259, 376.8747
652.6080, 376.8237
653.0901, 376.5259
653.5723, 375.8532
654.0544, 374.9911
654.5365, 374.2341
655.0186, 373.6581
655.5007, 373.2093
655.9828, 372.8559
656.4650, 372.6279
656.9471, 372.6682
657.4292, 373.1768
657.9113, 373.5004
658.3934, 373.3448
658.8755, 372.8135
659.3577, 372.5685
659.8398, 372.6216
660.3219, 372.5977
660.8040, 372.2072
661.2861, 371.5654
661.7682, 370.7334
662.2504, 369.7176
662.7325, 369.1107
663.2146, 369.7616
663.6967, 370.7743
664.1788, 371.2789
664.6609, 370.9640
665.1431, 370.6313
665.6252, 370.5457
666.1073, 370.4976
666.5894, 370.2589
667.0715, 369.6578
667.5536, 369.2548
668.0358, 369.1683
668.5179, 369.2215
669.0000, 369.0994
669.4821, 368.7979
669.9642, 368.5047
670.4464, 368.3393
670.9285, 368.1256
671.4106, 367.3397
671.8927, 366.1901
672.3748, 365.4012
672.8569, 365.7689
673.3391, 366.3097
673.8212, 366.1973
674.3033, 365.5400
674.7854, 365.1325
675.2675, 365.7206
675.7496, 366.1641
676.2318, 365.7718
676.7139, 364.4000
677.1960, 363.8438
677.6781, 364.4531
678.1602, 365.2387
678.6423, 365.5084
679.1245, 365.2582
679.6066, 364.9718
680.0887, 364.6408
680.5708, 364.3828
681.0529, 364.3343
681.5350, 364.4410
682.0172, 364.6490
682.4993, 365.0272
682.9814, 365.2148
683.4635, 364.9217
683.9456, 364.2921
684.4277, 363.5156
684.9099, 362.1452
685.3920, 361.2225
685.8741, 361.0818
686.3562, 361.4671
686.8383, 362.0072
687.3204, 362.8274
687.8026, 363.4474
688.2847, 363.6975
688.7668, 363.6953
689.2489, 363.7894
689.7310, 363.9727
690.2131, 364.1382
690.6953, 364.3164
691.1774, 364.3959
691.6595, 364.1607
692.1416, 363.6503
692.6237, 363.0883
693.1058, 362.4100
693.5880, 361.8680
694.0701, 361.6622
694.5522, 361.8304
695.0343, 362.0584
695.5164, 362.4534
695.9985, 362.7611
696.4807, 362.8095
696.9628, 362.5021
697.4449, 362.4636
697.9270, 362.7617
698.4091, 363.1444
698.8912, 363.4858
699.3734, 363.7252
699.8555, 363.4497
700.3376, 362.5042
700.8197, 361.6092
701.3018, 361.3815
701.7839, 361.6899
702.2661, 362.4240
702.7482, 364.0546
703.2303, 365.2017
703.7124, 364.9061
704.1945, 363.9174
704.6766, 363.3989
705.1588, 363.4619
705.6409, 363.9553
706.1230, 365.1042
706.6051, 366.5356
707.0872, 367.3421
707.5693, 367.4957
708.0515, 367.5032
708.5336, 367.5889
709.0157, 367.5865
709.4978, 366.9824
709.9799, 365.9307
710.4620, 365.0999
710.9442, 364.8949
711.4263, 365.0099
711.9084, 365.4018
712.3905, 365.9947
712.8726, 366.3124
713.3547, 365.8471
713.8369, 365.4449
714.3190, 365.4879
714.8011, 365.9928
715.2832, 366.3459
715.7653, 366.4849
716.2474, 366.6422
716.7296, 366.9527
717.2117, 367.4110
717.6938, 368.0625
718.1759, 368.9193
718.6580, 369.6889
719.1401, 370.1911
719.6223, 370.4250
720.1044, 370.2744
720.5865, 369.6342
721.0686, 369.1704
721.5507, 369.1578
722.0328, 369.4786
722.5150, 370.0511
722.9971, 371.2192
723.4792, 371.9870
723.9613, 372.1797
724.4434, 372.1612
724.9255, 372.3241
725.4077, 372.6694
725.8898, 373.2181
726.3719, 374.0483
726.8540, 374.8457
727.3361, 375.0402
727.8182, 374.8568
728.3004, 374.9142
728.7825, 375.6642
729.2646, 376.3179
729.7467, 376.1818
730.2288, 375.6122
730.7109, 375.2425
731.1931, 375.0645
731.6752, 375.3297
732.1573, 376.3209
732.6394, 377.7169
733.1215, 378.6096
733.6036, 378.9131
734.0858, 379.0202
734.5679, 378.9811
735.0500, 378.8831
735.5321, 378.9282
736.0142, 379.1147
736.4963, 379.4317
736.9785, 380.0998
737.4606, 380.7251
737.9427, 380.5866
738.4248, 379.9492
738.9069, 380.1198
739.3890, 383.0616
739.8712, 385.5086
740.3533, 385.5434
740.8354, 383.3160
741.3175, 382.2390
741.7996, 382.6402
742.2817, 383.4063
742.7639, 383.9962
743.2460, 384.4462
743.7281, 385.0112
744.2102, 385.6938
744.6923, 386.5148
745.1744, 387.7263
745.6566, 388.9528
746.1387, 389.7033
746.6208, 389.9283
747.1029, 389.9834
747.5850, 389.6568
748.0671, 389.4864
748.5493, 389.8323
749.0314, 390.7356
749.5135, 392.1289
749.9956, 394.4363
750.4777, 396.5723
750.9598, 397.5312
751.4420, 397.3241
751.9241, 397.4302
752.4062, 397.9532
752.8883, 398.6906
753.3704, 399.5769
753.8525, 400.4961
754.3347, 401.1782
754.8168, 401.4366
755.2989, 402.0160
755.7810, 403.6823
756.2631, 405.6879
756.7452, 407.2353
757.2274, 407.8063
757.7095, 408.5927
758.1916, 409.5311
758.6737, 410.7492
759.1558, 412.5889
759.6379, 415.1140
760.1201, 416.8613
760.6022, 417.3659
761.0843, 417.7987
761.5664, 420.0297
762.0485, 423.3049
762.5306, 425.9901
763.0128, 427.2394
763.4949, 428.5082
763.9770, 430.6784
764.4591, 433.3428
764.9412, 435.9535
765.4233, 438.4708
765.9055, 440.8371
766.3876, 442.9471
766.8697, 444.9759
767.3518, 447.2566
767.8339, 449.7931
768.3160, 452.5876
768.7982, 455.7202
769.2803, 458.9966
769.7624, 462.0742
770.2445, 465.0474
770.7266, 468.1587
771.2087, 471.1678
771.6909, 474.7134
772.1730, 479.2145
772.6551, 484.4652
773.1372, 489.9785
773.6193, 496.0695
774.1014, 501.8668
774.5836, 507.1358
775.0657, 512.0573
775.5478, 516.9617
776.0299, 521.7742
776.5120, 527.4138
776.9941, 534.3989
777.4763, 542.2004
777.9584, 550.0627
778.4405, 558.0380
778.9226, 566.1151
779.4047, 574.1982
779.8868, 582.5765
780.3690, 591.2415
780.8511, 600.3715
781.3332, 610.5490
781.8153, 622.3940
782.2974, 634.3503
782.7795, 645.8438
783.2617, 657.1908
783.7438, 669.9100
784.2259, 684.1137
784.7080, 698.6586
785.1901, 713.2850
785.6722, 727.9464
786.1544, 741.9249
786.6365, 755.6262
787.1186, 770.4832
787.6007, 787.5424
788.0828, 805.2615
788.5649, 822.9414
789.0471, 840.6208
789.5292, 857.6829
790.0113, 873.6083
790.4934, 890.1308
790.9755, 908.2354
791.4576, 927.3472
791.9398, 946.7743
792.4219, 966.3235
792.9040, 985.0490
793.3861, 1001.579
793.8682, 1017.298
794.3503, 1033.791
794.8325, 1050.708
795.3146, 1067.497
795.7967, 1085.434
796.2788, 1101.500
796.7609, 1113.677
797.2430, 1122.306
797.7252, 1130.557
798.2073, 1139.111
798.6894, 1145.475
799.1715, 1148.373
799.6536, 1148.313
800.1357, 1147.504
800.6179, 1145.737
801.1000, 1140.924
801.5821, 1130.554
802.0642, 1117.313
802.5463, 1103.815
803.0284, 1089.908
803.5106, 1074.546
803.9927, 1057.537
804.4748, 1038.751
804.9569, 1017.816
805.4390, 995.0183
805.9211, 972.9274
806.4033, 951.6603
806.8854, 930.2438
807.3675, 907.8557
807.8496, 884.9146
808.3317, 862.4498
808.8138, 840.4469
809.2960, 818.7985
809.7781, 796.3484
810.2602, 775.2009
810.7423, 756.9276
811.2244, 741.3026
811.7065, 726.2447
812.1887, 711.7703
812.6708, 697.3376
813.1529, 682.3935
813.6350, 667.3777
814.1171, 654.2844
814.5992, 643.2772
815.0814, 632.9999
815.5635, 622.7293
816.0456, 612.7493
816.5277, 603.4896
817.0098, 594.9796
817.4919, 587.4999
817.9741, 581.8582
818.4562, 576.7245
818.9383, 571.4954
819.4204, 566.1672
819.9025, 561.1152
820.3846, 556.4627
820.8668, 551.6955
821.3489, 546.3656
821.8310, 540.9608
822.3131, 536.9812
822.7952, 534.3134
823.2773, 531.7277
823.7595, 528.3881
824.2416, 525.0153
824.7237, 522.2239
825.2058, 519.9486
825.6879, 517.9211
826.1700, 516.4895
826.6522, 514.8067
827.1343, 512.6764
827.6164, 510.1436
828.0985, 507.3202
828.5806, 504.0822
829.0627, 501.1807
829.5449, 499.0759
830.0270, 497.1891
830.5091, 494.4843
830.9912, 491.0502
831.4733, 487.2589
831.9554, 482.5346
832.4376, 478.1956
832.9197, 475.4525
833.4018, 473.6129
833.8839, 470.7787
834.3660, 466.1784
834.8481, 461.8117
835.3303, 457.9978
835.8124, 454.5907
836.2945, 451.2520
836.7766, 447.9852
837.2587, 444.7973
837.7408, 441.5782
838.2230, 438.6431
838.7051, 436.3580
839.1872, 434.6060
839.6693, 433.1561
840.1514, 432.5937
840.6335, 431.5192
841.1157, 429.1520
841.5978, 426.3462
842.0799, 424.3693
842.5620, 423.4197
843.0441, 422.2472
843.5262, 420.5679
844.0084, 418.8139
844.4905, 417.7494
844.9726, 417.1064
845.4547, 416.1229
845.9368, 414.3029
846.4189, 412.8578
846.9011, 413.0092
847.3832, 413.6805
847.8653, 413.5778
848.3474, 411.9644
848.8295, 410.7051
849.3116, 409.8023
849.7938, 409.3177
850.2759, 409.5162
850.7580, 410.2855
851.2401, 410.6645
851.7222, 410.4837
852.2043, 410.2756
852.6865, 410.3432
853.1686, 410.7500
853.6507, 411.6820
854.1328, 413.4336
854.6149, 414.7954
855.0970, 415.0711
855.5792, 415.3087
856.0613, 416.2112
856.5434, 417.8763
857.0255, 419.4193
857.5076, 420.7933
857.9897, 422.2092
858.4719, 423.9590
858.9540, 425.8197
859.4361, 427.2259
859.9182, 428.1367
860.4003, 429.7064
860.8824, 433.0249
861.3646, 436.7506
861.8467, 440.3341
862.3288, 443.7782
862.8109, 446.0743
863.2930, 446.7679
863.7751, 447.6457
864.2573, 449.9803
864.7394, 453.2789
865.2215, 455.5822
865.7036, 457.0443
866.1857, 458.7840
866.6678, 461.7869
867.1500, 465.0432
867.6321, 468.0499
868.1142, 470.7133
868.5963, 472.5471
869.0784, 473.3335
869.5605, 473.5555
870.0427, 472.9560
870.5248, 472.0630
871.0069, 473.2291
871.4890, 476.1874
871.9711, 478.2011
872.4532, 477.3417
872.9354, 475.7812
873.4175, 475.4753
873.8996, 476.2059
874.3817, 477.5044
874.8638, 479.2159
875.3459, 481.5428
875.8281, 484.4669
876.3102, 488.0179
876.7923, 492.2815
877.2744, 497.2767
877.7565, 502.6605
878.2386, 508.3076
878.7208, 514.6912
879.2029, 522.7739
879.6850, 532.0519
880.1671, 541.6287
880.6492, 551.1217
881.1313, 561.1862
881.6135, 571.6968
882.0956, 583.2504
882.5777, 596.2063
883.0598, 611.1122
883.5419, 625.6393
884.0240, 639.4974
884.5062, 653.7970
884.9883, 669.7479
885.4704, 686.9961
885.9525, 704.8080
886.4346, 723.0193
886.9167, 741.8258
887.3989, 761.8192
887.8810, 782.2606
888.3631, 802.6388
888.8452, 822.9918
889.3273, 843.6590
889.8094, 865.4602
890.2916, 885.9116
890.7737, 903.5803
891.2558, 918.7314
891.7379, 932.3746
892.2200, 944.3869
892.7021, 953.4873
893.1843, 960.5090
893.6664, 963.0641
894.1485, 959.1193
894.6306, 949.0153
895.1127, 935.6054
895.5948, 919.3122
896.0770, 899.6055
896.5591, 875.7250
897.0412, 848.7236
897.5233, 819.8544
898.0054, 789.5444
898.4875, 759.7307
898.9697, 731.2332
899.4518, 703.4421
899.9339, 675.7844
900.4160, 648.7242
900.8981, 623.6295
901.3802, 600.1968
901.8624, 579.3732
902.3445, 561.7011
902.8266, 545.8228
903.3087, 530.1000
903.7908, 514.5185
904.2729, 500.7421
904.7551, 489.0986
905.2372, 478.6748
905.7193, 468.4939
906.2014, 459.1176
906.6835, 451.3913
907.1656, 445.8236
907.6478, 440.1985
908.1299, 433.8642
908.6120, 427.7377
909.0941, 422.3079
909.5762, 417.5086
910.0583, 414.0294
910.5405, 411.8858
911.0226, 410.1656
911.5047, 408.0604
911.9868, 406.1207
912.4689, 405.0504
912.9510, 404.7790
913.4332, 404.6219
913.9153, 404.1811
914.3974, 404.0508
914.8795, 404.2709
915.3616, 404.9567
915.8438, 406.7335
916.3259, 409.6310
916.8080, 412.5115
917.2901, 414.6720
917.7722, 417.0914
918.2543, 421.1769
918.7365, 426.4095
919.2186, 431.7109
919.7007, 436.9932
920.1828, 442.0077
920.6649, 446.1572
921.1470, 450.4093
921.6292, 456.0648
922.1113, 463.2290
922.5934, 470.3860
923.0755, 477.3792
923.5576, 484.4764
924.0397, 491.8835
924.5219, 499.5465
925.0040, 507.2911
925.4861, 515.1513
925.9682, 523.0245
926.4503, 532.1551
926.9324, 539.9319
927.4146, 544.8197
927.8967, 546.8017
928.3788, 548.6047
928.8609, 550.2999
929.3430, 550.6002
929.8251, 549.0483
930.3073, 545.4017
930.7894, 538.8271
931.2715, 529.7072
931.7536, 520.0589
932.2357, 510.4668
932.7178, 500.2731
933.2000, 489.0238
933.6821, 477.1979
934.1642, 465.5231
934.6463, 454.0855
935.1284, 443.0815
935.6105, 432.7015
936.0927, 423.0254
936.5748, 414.5446
937.0569, 406.9318
937.5390, 399.6322
938.0211, 392.8132
938.5032, 385.8070
938.9854, 377.8949
939.4675, 370.4448
939.9496, 364.5340
940.4317, 360.2272
940.9138, 356.1097
941.3959, 352.1422
941.8781, 348.4570
942.3602, 345.1220
942.8423, 342.2167
943.3244, 339.9125
943.8065, 338.1731
944.2886, 336.4465
944.7708, 334.5869
945.2529, 332.7431
945.7350, 330.9977
946.2171, 329.3044
946.6992, 327.2622
947.1813, 324.9425
947.6635, 323.0555
948.1456, 322.0256
948.6277, 321.3892
949.1098, 320.9079
949.5919, 320.4547
950.0740, 319.8014
950.5562, 318.6474
951.0383, 317.6114
951.5204, 316.5599
952.0025, 315.8595
952.4846, 316.3997
952.9667, 317.8943
953.4489, 317.8394
953.9310, 315.8140
954.4131, 314.0037
954.8952, 314.5396
955.3773, 315.8239
955.8594, 316.4962
956.3416, 316.3526
956.8237, 316.0532
957.3058, 315.3308
957.7879, 315.0504
958.2700, 315.6468
958.7521, 316.9878
959.2343, 318.9093
959.7164, 321.2679
960.1985, 323.3232
960.6806, 324.3857
961.1627, 325.3059
961.6448, 326.4886
962.1270, 327.8942
962.6091, 329.3773
963.0912, 330.8444
963.5733, 332.6704
964.0554, 335.0249
964.5375, 337.4797
965.0197, 339.0986
965.5018, 340.3728
965.9839, 342.6852
966.4660, 346.3672
966.9481, 350.1976
967.4302, 353.7276
967.9124, 356.9432
968.3945, 359.7467
968.8766, 362.1564
969.3587, 364.5280
969.8408, 366.9145
970.3229, 369.1353
970.8051, 371.2618
971.2872, 373.0823
971.7693, 374.3208
972.2514, 374.9531
972.7335, 374.8602
973.2156, 373.6086
973.6978, 372.0792
974.1799, 370.6929
974.6620, 369.1033
975.1441, 366.5547
975.6262, 362.9916
976.1083, 359.7308
976.5905, 357.0101
977.0726, 354.6429
977.5547, 352.5423
978.0368, 350.5739
978.5189, 348.5587
979.0010, 346.4049
979.4832, 344.5389
979.9653, 343.1047
980.4474, 341.8552
980.9295, 340.8414
981.4116, 339.9550
981.8937, 338.3506
982.3759, 336.0612
982.8580, 333.5005
983.3401, 330.6966
983.8222, 327.8947
984.3043, 325.3845
984.7864, 323.0339
985.2686, 320.4954
985.7507, 317.5278
986.2328, 314.8091
986.7149, 312.4015
987.1970, 310.3230
987.6791, 308.7182
988.1613, 307.4688
988.6434, 306.1418
989.1255, 304.6354
989.6076, 303.3119
990.0897, 302.3421
990.5718, 301.6773
991.0540, 301.4910
991.5361, 301.8295
992.0182, 301.0772
992.5003, 299.0022
992.9824, 297.2261
993.4645, 296.7904
993.9467, 297.0682
994.4288, 297.1085
994.9109, 296.9720
995.3930, 296.8264
995.8751, 296.8166
996.3572, 296.6913
996.8394, 296.3403
997.3215, 295.8976
997.8036, 295.5143
998.2857, 295.1888
998.7678, 295.1609
999.2499, 295.5212
999.7321, 295.6243
1000.214, 294.4535
1000.696, 293.0122
1001.178, 292.3616
1001.661, 292.7054
1002.143, 292.8665
1002.625, 292.9054
1003.107, 292.4510
1003.589, 291.1586
1004.071, 289.3826
1004.553, 288.2226
1005.035, 287.5769
1005.517, 287.0768
1006.000, 286.6379
1006.482, 286.1924
1006.964, 285.6922
1007.446, 285.1753
1007.928, 284.7419
1008.410, 284.4987
1008.892, 283.8269
1009.374, 282.6027
1009.857, 281.4079
1010.339, 280.9684
1010.821, 280.8788
1011.303, 280.6049
1011.785, 280.0961
1012.267, 279.3487
1012.749, 277.8383
1013.231, 276.7329
1013.713, 276.6291
1014.196, 277.1060
1014.678, 276.6450
1015.160, 275.3339
1015.642, 274.1269
1016.124, 273.4252
1016.606, 272.7241
1017.088, 271.5004
1017.570, 270.0643
1018.052, 268.7912
1018.535, 267.6127
1019.017, 266.9934
1019.499, 267.2039
1019.981, 267.2633
1020.463, 266.1884
1020.945, 264.4316
1021.427, 263.1800
1021.909, 262.3994
1022.392, 261.7701
1022.874, 261.2805
1023.356, 260.7439
1023.838, 259.9992
1024.320, 259.1849
1024.802, 258.6543
1025.284, 258.4341
1025.766, 257.9796
1026.249, 257.1573
1026.731, 256.1911
1027.213, 255.4196
1027.695, 254.5823
1028.177, 253.2609
1028.659, 251.2268
1029.141, 249.6866
1029.623, 248.8539
1030.105, 248.2469
1030.588, 247.7429
1031.070, 247.2468
1031.552, 246.3412
1032.034, 245.1259
1032.516, 243.9780
1032.998, 243.0966
1033.480, 242.3284
1033.962, 241.6614
1034.444, 241.0327
1034.927, 240.3740
1035.409, 239.6909
1035.891, 238.9226
1036.373, 238.0662
1036.855, 237.0247
1037.337, 235.4057
1037.819, 233.6964
1038.301, 232.5690
1038.784, 232.0294
1039.266, 231.5380
1039.748, 231.3486
1040.230, 230.5638
1040.712, 228.6826
1041.194, 226.3257
1041.676, 225.1381
1042.158, 224.8594
1042.641, 224.5072
1043.123, 223.8671
1043.605, 222.8968
1044.087, 221.2852
1044.569, 219.5578
1045.051, 218.1593
1045.533, 217.1212
1046.015, 216.3703
1046.497, 215.9654
1046.979, 215.3540
1047.462, 214.0266
1047.944, 212.4015
1048.426, 210.9541
1048.908, 209.6535
1049.390, 208.4379
1049.872, 207.1786
1050.354, 206.1860
1050.836, 205.5668
1051.319, 205.1096
1051.801, 204.6749
1052.283, 204.1723
1052.765, 203.1380
1053.247, 201.4980
1053.729, 200.0056
1054.211, 199.4210
1054.693, 198.8631
1055.176, 197.6863
1055.658, 196.0248
1056.140, 194.7139
1056.622, 193.7897
1057.104, 192.7825
1057.586, 191.4106
1058.068, 190.1497
1058.550, 189.9564
1059.032, 190.1028
1059.515, 189.4666
1059.997, 187.2127
1060.479, 185.6328
1060.961, 185.0512
1061.443, 184.6644
1061.925, 183.9181
1062.407, 182.9007
1062.889, 181.8903
1063.371, 180.8874
1063.854, 179.9173
1064.336, 178.8472
1064.818, 177.9763
1065.300, 177.6615
1065.782, 177.4759
1066.264, 176.6976
1066.746, 175.3002
1067.228, 174.2693
1067.711, 173.7589
1068.193, 173.2980
1068.675, 172.3016
1069.157, 171.2793
1069.639, 170.8525
1070.121, 171.0520
1070.603, 170.5908
1071.085, 169.1160
1071.568, 167.9123
1072.050, 167.4855
1072.532, 167.3596
1073.014, 166.5217
1073.496, 165.3474
1073.978, 164.6770
1074.460, 164.9842
1074.942, 165.0968
1075.424, 164.4425
1075.906, 163.8106
1076.389, 163.8576
1076.871, 164.4387
1077.353, 163.9868
1077.835, 162.5813
1078.317, 160.8988
1078.799, 158.7404
1079.281, 157.0345
1079.763, 156.5059
1080.245, 156.7900
1080.728, 157.2807
1081.210, 158.2075
1081.692, 158.0288
1082.174, 156.4833
1082.656, 154.8460
1083.138, 154.4771
1083.620, 154.6331
1084.102, 154.3781
1084.585, 153.7089
1085.067, 153.3874
1085.549, 153.8958
1086.031, 154.0062
1086.513, 153.3037
1086.995, 152.2563
1087.477, 151.7006
1087.959, 151.4980
1088.442, 151.3539
1088.924, 151.2616
1089.406, 150.9172
1089.888, 149.8518
1090.370, 148.8326
1090.852, 148.3045
1091.334, 148.2000
1091.816, 147.9775
1092.298, 147.6473
1092.781, 147.3604
1093.263, 147.3146
1093.745, 147.1369
1094.227, 146.3902
1094.709, 145.4282
1095.191, 144.7197
1095.673, 144.3284
1096.155, 144.0294
1096.637, 143.8282
1097.120, 143.6643
1097.602, 143.4887
1098.084, 143.3266
1098.566, 143.2444
1099.048, 143.2094
1099.530, 143.0964
1100.012, 142.8537
1100.494, 142.5409
1100.977, 142.0835
1101.459, 141.7269
1101.941, 142.0571
1102.423, 142.6982
1102.905, 142.6383
1103.387, 141.7598
1103.869, 140.8730
1104.351, 140.3609
1104.833, 139.8678
1105.316, 139.2142
1105.798, 138.4928
1106.280, 137.9818
1106.762, 137.6702
1107.244, 137.5574
1107.726, 137.7144
1108.208, 137.7967
1108.690, 137.2784
1109.172, 136.7927
1109.655, 137.0822
1110.137, 138.2109
1110.619, 138.3105
1111.101, 137.3199
1111.583, 136.1345
1112.065, 134.8423
1112.547, 134.0286
1113.029, 134.9614
1113.512, 136.6282
1113.994, 137.3249
1114.476, 136.2138
1114.958, 135.2648
1115.440, 134.4835
1115.922, 133.8686
1116.404, 133.5430
1116.886, 133.3341
1117.369, 132.8745
1117.851, 132.2307
1118.333, 131.7078
1118.815, 131.3425
1119.297, 131.2448
1119.779, 131.5634
1120.261, 131.9386
1120.743, 131.8844
1121.225, 131.4783
1121.708, 130.9285
1122.190, 130.2570
1122.672, 129.6900
1123.154, 129.2211
1123.636, 129.0520
1124.118, 129.4168
1124.600, 130.0427
1125.082, 130.2148
1125.564, 129.9460
1126.047, 129.2971
1126.529, 128.1964
1127.011, 127.1871
1127.493, 126.6455
1127.975, 126.3932
1128.457, 126.3118
1128.939, 126.3843
1129.421, 126.6979
1129.904, 127.2906
1130.386, 127.5496
1130.868, 127.1497
1131.350, 126.4546
1131.832, 125.5898
1132.314, 124.7798
1132.796, 124.4293
1133.278, 124.8316
1133.760, 124.7347
1134.243, 124.0138
1134.725, 123.2896
1135.207, 123.0415
1135.689, 122.9832
1136.171, 122.6078
1136.653, 122.0553
1137.135, 121.6676
1137.617, 121.7942
1138.099, 121.6900
1138.582, 121.2790
1139.064, 120.7225
1139.546, 120.0493
1140.028, 119.3944
1140.510, 119.1959
1140.992, 119.3795
1141.474, 119.4040
1141.956, 118.9790
1142.439, 118.4329
1142.921, 117.7535
1143.403, 117.1033
1143.885, 116.7052
1144.367, 116.5478
1144.849, 116.6913
1145.331, 117.1495
1145.813, 117.2760
1146.296, 116.3837
1146.778, 115.4215
1147.260, 114.7094
1147.742, 114.3054
1148.224, 114.6476
1148.706, 115.5963
1149.188, 115.7648
1149.670, 114.6779
1150.152, 113.5796
1150.635, 113.5247
1151.117, 113.6719
1151.599, 113.3044
1152.081, 112.4982
1152.563, 112.1434
1153.045, 112.2413
1153.527, 112.2905
1154.009, 112.0965
1154.491, 111.8008
1154.974, 111.5297
1155.456, 111.2342
1155.938, 110.8044
1156.420, 110.1760
1156.902, 109.9507
1157.384, 110.1887
1157.866, 110.3086
1158.348, 109.8643
1158.831, 109.2770
1159.313, 109.0364
1159.795, 108.9808
1160.277, 108.8237
1160.759, 108.4668
1161.241, 108.1581
1161.723, 107.9061
1162.205, 107.6703
1162.688, 107.5453
1163.170, 107.3330
1163.652, 106.5496
1164.134, 105.4374
1164.616, 104.7387
1165.098, 104.8437
1165.580, 104.9698
1166.062, 105.0780
1166.544, 105.1430
1167.026, 105.0971
1167.509, 105.0078
1167.991, 105.0295
1168.473, 105.1412
1168.955, 105.1584
1169.437, 105.0450
1169.919, 104.7906
1170.401, 104.3796
1170.883, 103.8575
1171.366, 103.0966
1171.848, 102.3299
1172.330, 102.2663
1172.812, 102.9595
1173.294, 103.2081
1173.776, 101.9267
1174.258, 100.9846
1174.740, 100.9354
1175.223, 101.3959
1175.705, 101.7935
1176.187, 102.0511
1176.669, 101.8153
1177.151, 100.9383
1177.633, 100.3269
1178.115, 100.6954
1178.597, 100.9879
1179.079, 100.6145
1179.562, 99.98172
1180.044, 100.7866
1180.526, 102.4924
1181.008, 102.8791
1181.490, 100.8646
1181.972, 99.23381
1182.454, 99.73768
1182.936, 100.4976
1183.418, 100.4784
1183.901, 99.82652
1184.383, 99.17181
1184.865, 98.58789
1185.347, 98.50295
1185.829, 99.51439
1186.311, 100.1370
1186.793, 99.13979
1187.275, 97.88998
1187.758, 97.46459
1188.240, 97.78493
1188.722, 97.70280
1189.204, 97.28909
1189.686, 97.06765
1190.168, 97.57436
1190.650, 97.96252
1191.132, 97.69341
1191.615, 97.18472
1192.097, 96.85654
1192.579, 96.71333
1193.061, 96.39488
1193.543, 95.92507
1194.025, 95.62288
1194.507, 95.77903
1194.989, 96.04189
1195.471, 96.45142
1195.953, 96.71073
1196.436, 96.33739
1196.918, 95.30624
1197.400, 94.65475
1197.882, 94.42521
1198.364, 94.36526
1198.846, 94.41505
1199.328, 94.47188
1199.810, 94.52001
1200.293, 94.51264
1200.775, 94.34387
1201.257, 94.00735
1201.739, 93.71727
1202.221, 93.49118
1202.703, 93.48454
1203.185, 93.92008
1203.667, 94.50111
1204.150, 95.26156
1204.632, 95.95745
1205.114, 95.97090
1205.596, 95.28402
1206.078, 94.71750
1206.560, 94.37601
1207.042, 94.19619
1207.524, 94.39568
1208.006, 94.48702
1208.489, 93.88879
1208.971, 92.94497
1209.453, 92.74377
1209.935, 93.29478
1210.417, 93.37626
1210.899, 92.71851
1211.381, 92.08057
1211.863, 92.08971
1212.345, 92.33806
1212.828, 92.63089
1213.310, 92.90744
1213.792, 92.93204
1214.274, 92.71186
1214.756, 92.59201
1215.238, 92.69566
1215.720, 92.65816
1216.202, 91.90215
1216.685, 91.14660
1217.167, 91.02290
1217.649, 91.39052
1218.131, 91.52044
1218.613, 91.43058
1219.095, 91.55574
1219.577, 92.08513
1220.059, 92.58616
1220.542, 92.87986
1221.024, 92.86919
1221.506, 92.31876
1221.988, 91.38150
1222.470, 91.26790
1222.952, 91.90712
1223.434, 92.38998
1223.916, 92.42933
1224.398, 92.19720
1224.880, 91.47536
1225.363, 90.83748
1225.845, 90.81034
1226.327, 91.28662
1226.809, 91.17973
1227.291, 90.57510
1227.773, 90.25027
1228.255, 90.65623
1228.737, 91.04248
1229.220, 91.01650
1229.702, 90.72871
1230.184, 90.17528
1230.666, 89.44109
1231.148, 89.53430
1231.630, 90.32224
1232.112, 90.87805
1232.594, 90.62744
1233.077, 90.43638
1233.559, 91.00497
1234.041, 91.52892
1234.523, 91.30964
1235.005, 90.48783
1235.487, 90.27644
1235.969, 90.56001
1236.451, 90.70947
1236.933, 90.28899
1237.416, 89.94831
1237.898, 89.91383
1238.380, 90.08020
1238.862, 90.56361
1239.344, 91.21197
1239.826, 90.90771
1240.308, 89.91129
1240.790, 89.32099
1241.272, 90.24511
1241.755, 90.71223
1242.237, 89.86500
1242.719, 88.94093
1243.201, 89.01249
1243.683, 89.81467
1244.165, 90.32999
1244.647, 90.59047
1245.129, 90.70456
1245.612, 90.77792
1246.094, 90.58099
1246.576, 89.97355
1247.058, 89.34079
1247.540, 88.89591
1248.022, 88.72115
1248.504, 89.12595
1248.986, 90.00747
1249.469, 91.00611
1249.951, 92.76347
1250.433, 93.28726
1250.915, 92.08754
1251.397, 90.52648
1251.879, 89.66716
1252.361, 89.32576
1252.843, 89.28472
1253.325, 89.44181
1253.807, 89.49143
1254.290, 88.89826
1254.772, 89.25127
1255.254, 90.98599
1255.736, 92.44118
1256.218, 91.83546
1256.700, 90.28400
1257.182, 89.08129
1257.664, 88.28391
1258.147, 88.01846
1258.629, 88.48964
1259.111, 88.86516
1259.593, 89.11255
1260.075, 89.18033
1260.557, 88.88548
1261.039, 88.50692
1261.521, 88.29902
1262.004, 88.24680
1262.486, 88.30807
1262.968, 88.54574
1263.450, 88.52033
1263.932, 88.18494
1264.414, 87.84895
1264.896, 87.57874
1265.378, 87.56858
1265.860, 88.35141
1266.343, 89.36809
1266.825, 89.37766
1267.307, 88.28467
1267.789, 87.76249
1268.271, 87.91705
1268.753, 88.12496
1269.235, 88.00018
1269.717, 87.75741
1270.199, 87.34898
1270.682, 87.00269
1271.164, 87.21486
1271.646, 87.89572
1272.128, 87.71034
1272.610, 86.66345
1273.092, 85.84361
1273.574, 85.96233
1274.056, 86.35106
1274.539, 86.94966
1275.021, 87.48190
1275.503, 87.54597
1275.985, 87.25223
1276.467, 86.91954
1276.949, 86.60803
1277.431, 86.54069
1277.913, 87.18324
1278.396, 87.53704
1278.878, 87.32682
1279.360, 86.97283
1279.842, 86.86575
1280.324, 86.99463
1280.806, 87.59891
1281.288, 88.48913
1281.770, 88.68311
1282.252, 87.27184
1282.734, 86.41692
1283.217, 86.39582
1283.699, 86.72986
1284.181, 87.16867
1284.663, 87.51811
1285.145, 87.41806
1285.627, 86.98515
1286.109, 86.71368
1286.591, 86.70767
1287.074, 86.56432
1287.556, 86.21657
1288.038, 86.01139
1288.520, 86.44289
1289.002, 86.96712
1289.484, 87.14454
1289.966, 87.02786
1290.448, 86.77621
1290.931, 86.36311
1291.413, 86.23988
1291.895, 86.43361
1292.377, 86.52073
1292.859, 86.00129
1293.341, 85.51244
1293.823, 85.46542
1294.305, 85.63401
1294.787, 85.82207
1295.270, 86.00557
1295.752, 85.87847
1296.234, 85.48013
1296.716, 85.28987
1297.198, 85.82458
1297.680, 86.27439
1298.162, 86.48717
1298.644, 86.47339
1299.126, 86.09834
1299.609, 85.54398
1300.091, 85.29166
1300.573, 85.34205
1301.055, 85.56768
1301.537, 85.99407
##END=



