##NAMES=Clinohedrite
##RRUFFID=R050416
##IDEAL CHEMISTRY=CaZn^2+^SiO_4_&#183;H_2_O
##LOCALITY=Franklin, Sussex County, New Jersey, USA
##OWNER=RRUFF
##SOURCE=Marcus Origlieri
##DESCRIPTION=Colorless prismatic single crystals
##STATUS=The identification of this mineral has been confirmed by X-ray diffraction and chemical analysis
##URL=rruff.info/R050416
##MEASURED CHEMISTRY=(Ca_0.99_Mn_0.01_)_Σ=1_Zn_1.00_Si_1.00_O_4_·H_2_O
92.52344, 95.62369
93.00555, 91.39810
93.48767, 91.50150
93.96979, 98.53283
94.45190, 108.9299
94.93402, 123.4962
95.41614, 137.8258
95.89825, 151.7924
96.38037, 166.0717
96.86249, 178.4335
97.34460, 180.5977
97.82672, 170.3380
98.30884, 155.9906
98.79095, 135.8566
99.27307, 112.5622
99.75519, 91.53590
100.2373, 76.03218
100.7194, 65.88329
101.2015, 58.12945
101.6837, 53.35130
102.1658, 50.06880
102.6479, 47.26684
103.1300, 44.87524
103.6121, 43.11337
104.0942, 42.46416
104.5764, 42.51966
105.0585, 42.80699
105.5406, 43.13847
106.0227, 43.56798
106.5048, 44.30298
106.9869, 45.57647
107.4691, 46.81152
107.9512, 47.64715
108.4333, 48.21375
108.9154, 48.83202
109.3975, 49.71711
109.8796, 50.84957
110.3618, 52.37560
110.8439, 54.13198
111.3260, 56.38620
111.8081, 59.17327
112.2902, 62.54218
112.7723, 66.62714
113.2544, 71.58297
113.7366, 77.31181
114.2187, 84.41423
114.7008, 92.94831
115.1829, 102.6775
115.6650, 114.2916
116.1471, 128.1302
116.6293, 142.1073
117.1114, 151.1768
117.5935, 156.1768
118.0756, 156.1351
118.5577, 148.5404
119.0398, 135.4972
119.5220, 121.5340
120.0041, 107.8258
120.4862, 95.41129
120.9683, 85.83425
121.4504, 79.47681
121.9325, 75.15625
122.4147, 72.26286
122.8968, 70.84025
123.3789, 70.30766
123.8610, 70.78289
124.3431, 71.91311
124.8252, 73.42771
125.3074, 75.16755
125.7895, 77.34053
126.2716, 80.42663
126.7537, 84.66638
127.2358, 89.47231
127.7179, 94.34107
128.2001, 99.58811
128.6822, 105.5363
129.1643, 112.1666
129.6464, 119.6347
130.1285, 129.6066
130.6107, 141.9922
131.0928, 157.3541
131.5749, 177.1396
132.0570, 200.1879
132.5391, 225.0265
133.0212, 251.1732
133.5034, 280.4598
133.9855, 296.4369
134.4676, 300.3467
134.9497, 293.3922
135.4318, 272.2757
135.9139, 238.3200
136.3960, 200.0952
136.8782, 166.3676
137.3603, 137.4504
137.8424, 114.4544
138.3245, 99.35104
138.8066, 89.54736
139.2887, 82.62733
139.7709, 78.33492
140.2530, 76.08314
140.7351, 75.52441
141.2172, 76.44299
141.6993, 78.28896
142.1814, 80.85551
142.6636, 84.15921
143.1457, 88.22451
143.6278, 92.66579
144.1099, 98.50762
144.5920, 105.8253
145.0741, 114.6647
145.5563, 126.0603
146.0384, 141.1118
146.5205, 159.9619
147.0026, 180.9358
147.4847, 211.7683
147.9668, 239.4232
148.4490, 257.5762
148.9311, 264.5397
149.4132, 261.1945
149.8953, 247.0820
150.3774, 214.5935
150.8595, 186.3976
151.3417, 162.6120
151.8238, 143.8405
152.3059, 131.0014
152.7880, 124.4273
153.2701, 123.0766
153.7522, 124.4984
154.2344, 131.0842
154.7165, 138.0979
155.1986, 147.6404
155.6807, 156.9555
156.1628, 162.9953
156.6449, 164.3140
157.1271, 160.9546
157.6092, 152.3645
158.0913, 135.3006
158.5734, 117.7589
159.0555, 100.8218
159.5376, 84.95705
160.0198, 71.39262
160.5019, 60.96606
160.9840, 53.52680
161.4661, 47.47546
161.9482, 43.14233
162.4303, 39.72803
162.9125, 36.81158
163.3946, 34.38985
163.8767, 32.48735
164.3588, 31.34806
164.8409, 30.72697
165.3230, 30.19146
165.8052, 29.66865
166.2873, 29.21179
166.7694, 28.88656
167.2515, 28.68468
167.7336, 28.64832
168.2157, 28.89026
168.6979, 29.27311
169.1800, 29.64233
169.6621, 29.91288
170.1442, 30.14274
170.6263, 30.50290
171.1084, 31.06010
171.5906, 31.65272
172.0727, 32.13053
172.5548, 32.62140
173.0369, 33.27626
173.5190, 34.15359
174.0011, 35.27880
174.4833, 36.86819
174.9654, 39.35286
175.4475, 41.93819
175.9296, 44.41350
176.4117, 46.86319
176.8938, 49.50663
177.3760, 52.52758
177.8581, 55.93946
178.3402, 59.21038
178.8223, 63.15877
179.3044, 66.21261
179.7865, 68.06781
180.2687, 68.57911
180.7508, 67.44841
181.2329, 64.28786
181.7150, 58.86512
182.1971, 53.43467
182.6792, 47.43892
183.1614, 41.88746
183.6435, 37.33782
184.1256, 33.82794
184.6077, 31.09051
185.0898, 28.97764
185.5719, 27.57140
186.0541, 26.41517
186.5362, 25.58021
187.0183, 24.95129
187.5004, 24.42583
187.9825, 23.98941
188.4646, 23.69575
188.9468, 23.67662
189.4289, 23.86920
189.9110, 24.02894
190.3931, 24.08292
190.8752, 24.07792
191.3573, 24.08125
191.8395, 24.09502
192.3216, 24.12511
192.8037, 24.12517
193.2858, 24.13489
193.7679, 24.26830
194.2500, 24.62450
194.7322, 25.14840
195.2143, 25.67791
195.6964, 26.23339
196.1785, 26.75190
196.6606, 27.13412
197.1427, 27.45551
197.6249, 27.87939
198.1070, 28.52862
198.5891, 29.38582
199.0712, 30.27017
199.5533, 31.10079
200.0354, 32.06610
200.5176, 33.27623
200.9997, 34.66817
201.4818, 36.10040
201.9639, 37.45220
202.4460, 38.72042
202.9281, 40.03981
203.4103, 41.51751
203.8924, 42.94091
204.3745, 44.18032
204.8566, 45.30184
205.3387, 46.43344
205.8208, 47.66839
206.3030, 48.99673
206.7851, 50.59544
207.2672, 52.37416
207.7493, 54.46708
208.2314, 56.86224
208.7135, 59.60132
209.1957, 62.78953
209.6778, 66.54795
210.1599, 70.93169
210.6420, 75.48755
211.1241, 80.35899
211.6062, 85.22383
212.0884, 90.24725
212.5705, 95.22958
213.0526, 99.53873
213.5347, 102.6038
214.0168, 104.2550
214.4989, 105.3355
214.9811, 105.2156
215.4632, 105.0655
215.9453, 105.3321
216.4274, 106.1450
216.9095, 107.9258
217.3916, 110.9793
217.8737, 115.5230
218.3559, 121.3576
218.8380, 128.4281
219.3201, 136.8751
219.8022, 147.4079
220.2843, 160.0744
220.7664, 173.0226
221.2486, 185.9721
221.7307, 198.1414
222.2128, 205.9254
222.6949, 208.2966
223.1770, 206.2851
223.6591, 200.1381
224.1413, 189.4604
224.6234, 177.5820
225.1055, 166.2500
225.5876, 155.4708
226.0697, 145.3884
226.5518, 135.8645
227.0340, 127.1946
227.5161, 119.8133
227.9982, 113.7227
228.4803, 108.9568
228.9624, 105.6423
229.4445, 103.6156
229.9267, 102.9009
230.4088, 103.7006
230.8909, 105.6861
231.3730, 108.4490
231.8551, 112.4019
232.3372, 116.0680
232.8194, 119.0757
233.3015, 121.4417
233.7836, 123.1576
234.2657, 124.2377
234.7478, 124.6398
235.2299, 124.2795
235.7121, 123.1756
236.1942, 121.1507
236.6763, 117.7078
237.1584, 113.6667
237.6405, 109.7287
238.1227, 106.1127
238.6048, 103.0047
239.0869, 100.8465
239.5690, 99.58575
240.0511, 99.53798
240.5332, 100.4078
241.0154, 102.4184
241.4975, 105.7487
241.9796, 110.4607
242.4617, 116.5998
242.9438, 124.2218
243.4259, 133.5714
243.9081, 144.3505
244.3902, 156.8119
244.8723, 170.3130
245.3544, 184.9896
245.8365, 200.8608
246.3186, 216.3319
246.8008, 228.0370
247.2829, 235.8577
247.7650, 239.1412
248.2471, 237.0092
248.7292, 231.2033
249.2113, 222.5904
249.6935, 211.6324
250.1756, 199.3992
250.6577, 187.9116
251.1398, 177.1118
251.6219, 167.4264
252.1040, 158.8550
252.5862, 151.3989
253.0683, 145.0661
253.5504, 139.8867
254.0325, 135.8530
254.5146, 133.0081
254.9967, 131.9425
255.4789, 131.2084
255.9610, 131.4243
256.4431, 131.6229
256.9252, 131.0338
257.4073, 129.4589
257.8894, 127.0683
258.3716, 124.0516
258.8537, 120.2044
259.3358, 116.1025
259.8179, 111.2575
260.3000, 106.4332
260.7821, 102.1451
261.2643, 98.50505
261.7464, 95.60828
262.2285, 93.56796
262.7106, 92.53263
263.1927, 92.07209
263.6748, 92.09376
264.1570, 92.74742
264.6391, 94.34908
265.1212, 96.88280
265.6033, 99.78947
266.0854, 102.7861
266.5675, 105.8140
267.0497, 107.6535
267.5318, 108.5736
268.0139, 108.0828
268.4960, 105.6299
268.9781, 101.2250
269.4602, 95.45329
269.9424, 88.29858
270.4245, 79.98876
270.9066, 72.38229
271.3887, 65.47409
271.8708, 59.29606
272.3529, 53.88039
272.8351, 49.21627
273.3172, 45.36803
273.7993, 42.52661
274.2814, 40.56782
274.7635, 38.76583
275.2456, 37.05674
275.7278, 35.57208
276.2099, 34.47284
276.6920, 33.72634
277.1741, 33.06084
277.6562, 32.33526
278.1383, 31.63937
278.6205, 31.13334
279.1026, 30.85703
279.5847, 30.67274
280.0668, 30.45961
280.5489, 30.24190
281.0310, 30.17472
281.5132, 30.33643
281.9953, 30.66467
282.4774, 31.04797
282.9595, 31.48923
283.4416, 31.96289
283.9237, 32.39120
284.4059, 32.81936
284.8880, 33.45860
285.3701, 34.40963
285.8522, 35.52958
286.3343, 36.62647
286.8164, 37.70345
287.2986, 38.91471
287.7807, 40.37264
288.2628, 42.03639
288.7449, 43.79783
289.2270, 45.75459
289.7091, 47.60618
290.1913, 49.22027
290.6734, 50.58056
291.1555, 51.59894
291.6376, 52.35658
292.1197, 52.72823
292.6018, 52.37709
293.0840, 51.18682
293.5661, 49.48224
294.0482, 47.25533
294.5303, 44.71993
295.0124, 42.19823
295.4945, 39.70853
295.9767, 37.38352
296.4588, 35.52667
296.9409, 34.24843
297.4230, 33.05805
297.9051, 31.54011
298.3872, 29.99791
298.8694, 28.83150
299.3515, 28.23516
299.8336, 27.91557
300.3157, 27.45722
300.7978, 26.80778
301.2799, 26.32460
301.7621, 26.32898
302.2442, 26.47051
302.7263, 26.40476
303.2084, 26.03546
303.6905, 25.66681
304.1726, 25.66079
304.6548, 26.03588
305.1369, 26.32683
305.6190, 26.32026
306.1011, 26.27445
306.5832, 26.35682
307.0653, 26.58208
307.5475, 26.94085
308.0296, 27.46631
308.5117, 28.14455
308.9938, 28.81897
309.4759, 29.43416
309.9580, 30.08841
310.4402, 30.80636
310.9223, 31.59896
311.4044, 32.50731
311.8865, 33.62186
312.3686, 34.88449
312.8507, 36.03374
313.3329, 36.94616
313.8150, 37.95910
314.2971, 39.34227
314.7792, 40.93938
315.2613, 42.48259
315.7434, 43.89357
316.2256, 45.15494
316.7077, 46.27119
317.1898, 47.32312
317.6719, 48.01434
318.1540, 48.13125
318.6361, 47.86704
319.1183, 47.34037
319.6004, 46.51880
320.0825, 45.62888
320.5646, 44.98136
321.0467, 44.60627
321.5288, 44.28462
322.0110, 44.04226
322.4931, 43.76715
322.9752, 43.37218
323.4573, 42.84483
323.9394, 42.22243
324.4215, 41.52742
324.9037, 40.76459
325.3858, 39.95416
325.8679, 39.10408
326.3500, 38.19698
326.8321, 37.17081
327.3142, 36.05368
327.7964, 35.01744
328.2785, 34.18049
328.7606, 33.52318
329.2427, 32.93734
329.7248, 32.40121
330.2069, 31.97673
330.6891, 31.71235
331.1712, 31.57180
331.6533, 31.48218
332.1354, 31.39946
332.6175, 31.35275
333.0996, 31.41353
333.5818, 31.60702
334.0639, 31.82824
334.5460, 32.01937
335.0281, 32.21008
335.5102, 32.42392
335.9923, 32.64991
336.4745, 32.94328
336.9566, 33.33479
337.4387, 33.81544
337.9208, 34.53238
338.4029, 35.75436
338.8850, 37.08387
339.3671, 38.06868
339.8492, 38.65146
340.3314, 39.27543
340.8135, 40.24896
341.2956, 41.55298
341.7777, 43.03451
342.2598, 44.72640
342.7419, 46.51516
343.2241, 48.25556
343.7062, 49.98087
344.1883, 51.84447
344.6704, 54.04629
345.1525, 56.41828
345.6346, 58.61629
346.1168, 60.62568
346.5989, 62.44283
347.0810, 63.95415
347.5631, 65.26798
348.0452, 66.57806
348.5273, 68.08282
349.0095, 69.46947
349.4916, 70.40170
349.9737, 70.87389
350.4558, 71.00780
350.9379, 70.82433
351.4200, 70.31524
351.9022, 69.49498
352.3843, 68.29019
352.8664, 66.98576
353.3485, 65.73808
353.8306, 64.54268
354.3127, 63.37772
354.7949, 62.21630
355.2770, 61.11274
355.7591, 60.02071
356.2412, 58.92260
356.7233, 58.24176
357.2054, 58.38037
357.6876, 58.95078
358.1697, 59.34434
358.6518, 59.46957
359.1339, 59.52332
359.6160, 59.67345
360.0981, 59.89974
360.5803, 60.08560
361.0624, 60.33411
361.5445, 60.44861
362.0266, 60.24059
362.5087, 59.72978
362.9908, 59.12572
363.4730, 58.65399
363.9551, 58.08075
364.4372, 56.71964
364.9193, 54.15338
365.4014, 51.58276
365.8835, 49.48533
366.3657, 47.74233
366.8478, 46.10429
367.3299, 44.49477
367.8120, 42.97088
368.2941, 41.60865
368.7762, 40.38873
369.2584, 39.39154
369.7405, 38.79684
370.2226, 38.33753
370.7047, 37.71342
371.1868, 36.89765
371.6689, 36.14599
372.1511, 35.68374
372.6332, 35.52987
373.1153, 35.44635
373.5974, 35.38514
374.0795, 35.43091
374.5616, 35.67815
375.0438, 36.06823
375.5259, 36.43938
376.0080, 36.68698
376.4901, 36.88611
376.9722, 37.30916
377.4543, 37.94081
377.9365, 38.80579
378.4186, 40.11636
378.9007, 41.56897
379.3828, 42.77655
379.8649, 43.64670
380.3470, 44.43793
380.8292, 45.50032
381.3113, 46.88337
381.7934, 48.45068
382.2755, 50.30383
382.7576, 52.22828
383.2397, 54.10538
383.7219, 55.94171
384.2040, 57.74471
384.6861, 59.47636
385.1682, 61.16957
385.6503, 63.31462
386.1324, 66.22591
386.6146, 69.26537
387.0967, 72.27678
387.5788, 75.35336
388.0609, 78.61391
388.5430, 82.09973
389.0251, 85.83628
389.5073, 89.87550
389.9894, 94.13156
390.4715, 98.94113
390.9536, 104.4340
391.4357, 110.2973
391.9178, 116.3685
392.4000, 122.6218
392.8821, 129.1620
393.3642, 136.1614
393.8463, 143.6500
394.3284, 151.0076
394.8105, 158.5185
395.2927, 165.6005
395.7748, 172.3709
396.2569, 178.5376
396.7390, 183.8085
397.2211, 188.1503
397.7032, 191.2542
398.1854, 192.4686
398.6675, 191.8259
399.1496, 189.1626
399.6317, 183.6964
400.1138, 176.6030
400.5959, 168.3779
401.0781, 159.1546
401.5602, 149.5235
402.0423, 139.8876
402.5244, 130.2952
403.0065, 121.0188
403.4886, 111.9647
403.9708, 103.5209
404.4529, 95.86174
404.9350, 88.94263
405.4171, 82.61695
405.8992, 76.86567
406.3813, 71.68983
406.8635, 67.11443
407.3456, 63.16338
407.8277, 59.53983
408.3098, 56.08848
408.7919, 52.86855
409.2740, 49.97239
409.7562, 47.44637
410.2383, 45.10942
410.7204, 42.81144
411.2025, 40.59893
411.6846, 38.57371
412.1667, 36.74352
412.6489, 35.13146
413.1310, 33.84423
413.6131, 32.86229
414.0952, 31.87368
414.5773, 30.75836
415.0594, 29.65764
415.5416, 28.71392
416.0237, 27.92600
416.5058, 27.20691
416.9879, 26.50530
417.4700, 25.82526
417.9521, 25.18628
418.4343, 24.57957
418.9164, 24.01584
419.3985, 23.48747
419.8806, 23.00599
420.3627, 22.61587
420.8448, 22.32848
421.3270, 22.06185
421.8091, 21.68629
422.2912, 21.13748
422.7733, 20.66914
423.2554, 20.28085
423.7375, 19.96648
424.2197, 19.78015
424.7018, 19.67691
425.1839, 19.53232
425.6660, 19.25287
426.1481, 18.86009
426.6302, 18.48809
427.1124, 18.07094
427.5945, 17.76983
428.0766, 17.66269
428.5587, 17.64952
429.0408, 17.65401
429.5229, 17.64556
430.0051, 17.59287
430.4872, 17.42715
430.9693, 17.10244
431.4514, 16.86089
431.9335, 16.81634
432.4156, 16.76073
432.8978, 16.58181
433.3799, 16.32150
433.8620, 16.09778
434.3441, 15.99905
434.8262, 15.97647
435.3083, 15.87197
435.7905, 15.63134
436.2726, 15.46076
436.7547, 15.48433
437.2368, 15.58473
437.7189, 15.67609
438.2010, 15.74435
438.6832, 15.77968
439.1653, 15.75181
439.6474, 15.67582
440.1295, 15.63984
440.6116, 15.67653
441.0938, 15.71794
441.5759, 15.67116
442.0580, 15.57413
442.5401, 15.55383
443.0222, 15.74883
443.5043, 15.96490
443.9865, 15.98311
444.4686, 15.82270
444.9507, 15.66402
445.4328, 15.59048
445.9149, 15.57087
446.3970, 15.53348
446.8792, 15.47008
447.3613, 15.41599
447.8434, 15.36065
448.3255, 15.32918
448.8076, 15.35017
449.2897, 15.42895
449.7719, 15.56864
450.2540, 15.79811
450.7361, 16.12835
451.2182, 16.27271
451.7003, 16.07835
452.1824, 15.89555
452.6646, 15.84053
453.1467, 15.88514
453.6288, 15.98532
454.1109, 16.12217
454.5930, 16.27103
455.0751, 16.37735
455.5573, 16.37872
456.0394, 16.46309
456.5215, 16.74639
457.0036, 17.00046
457.4857, 17.06113
457.9678, 16.96045
458.4500, 16.84402
458.9321, 16.81036
459.4142, 16.85929
459.8963, 16.99175
460.3784, 17.22875
460.8605, 17.51653
461.3427, 17.92502
461.8248, 18.32832
462.3069, 18.56996
462.7890, 18.61165
463.2711, 18.64052
463.7532, 18.85443
464.2354, 19.24348
464.7175, 19.64981
465.1996, 20.04225
465.6817, 20.47443
466.1638, 21.05327
466.6459, 21.70270
467.1281, 22.21636
467.6102, 22.37674
468.0923, 22.50517
468.5744, 23.01559
469.0565, 23.86939
469.5386, 24.61858
470.0208, 25.03785
470.5029, 25.32689
470.9850, 25.84703
471.4671, 26.62801
471.9492, 27.40603
472.4313, 28.13570
472.9135, 28.82116
473.3956, 29.44584
473.8777, 30.01718
474.3598, 30.61478
474.8419, 31.31796
475.3240, 32.10220
475.8062, 32.70290
476.2883, 32.95417
476.7704, 33.25592
477.2525, 33.81604
477.7346, 34.41238
478.2167, 34.82499
478.6989, 34.97929
479.1810, 34.84661
479.6631, 34.34460
480.1452, 33.38293
480.6273, 32.52850
481.1094, 31.97480
481.5916, 31.33299
482.0737, 30.44511
482.5558, 29.38511
483.0379, 28.26731
483.5200, 27.12771
484.0021, 26.02607
484.4843, 25.08077
484.9664, 24.30882
485.4485, 23.59889
485.9306, 22.96547
486.4127, 22.36137
486.8948, 21.72791
487.3770, 21.08114
487.8591, 20.52438
488.3412, 20.17767
488.8233, 19.94303
489.3054, 19.59090
489.7875, 19.09770
490.2697, 18.73223
490.7518, 18.69735
491.2339, 18.84847
491.7160, 18.87185
492.1981, 18.72153
492.6802, 18.57837
493.1624, 18.49532
493.6445, 18.47529
494.1266, 18.55039
494.6087, 18.72277
495.0908, 18.88528
495.5729, 18.92295
496.0551, 18.83973
496.5372, 18.91288
497.0193, 19.14943
497.5014, 19.50538
497.9835, 20.09791
498.4656, 20.75755
498.9478, 21.21386
499.4299, 21.38963
499.9120, 21.49226
500.3941, 21.82012
500.8762, 22.42286
501.3583, 23.06525
501.8405, 23.64710
502.3226, 24.36944
502.8047, 25.34011
503.2868, 26.50095
503.7689, 27.71872
504.2510, 28.93016
504.7331, 30.19381
505.2152, 31.63037
505.6974, 33.26236
506.1795, 34.95007
506.6616, 36.67848
507.1437, 38.43959
507.6258, 40.29561
508.1079, 42.21455
508.5901, 43.95257
509.0722, 45.59131
509.5543, 46.88523
510.0364, 47.45581
510.5185, 47.30583
511.0006, 46.69004
511.4828, 45.67319
511.9649, 44.29608
512.4470, 42.62951
512.9291, 40.63128
513.4113, 38.55370
513.8934, 36.39148
514.3755, 34.23492
514.8576, 32.14910
515.3397, 30.15430
515.8218, 28.34008
516.3040, 26.76761
516.7861, 25.42120
517.2682, 24.21034
517.7503, 23.13096
518.2324, 22.20482
518.7145, 21.46988
519.1967, 20.86039
519.6788, 20.31914
520.1609, 19.83253
520.6430, 19.41174
521.1251, 19.06730
521.6072, 18.79759
522.0894, 18.62032
522.5715, 18.65173
523.0536, 18.58642
523.5357, 18.21702
524.0178, 17.75398
524.4999, 17.46231
524.9821, 17.42123
525.4642, 17.41581
525.9463, 17.21610
526.4284, 16.87524
526.9105, 16.64514
527.3926, 16.59555
527.8748, 16.55510
528.3569, 16.36312
528.8390, 16.06870
529.3211, 15.83976
529.8032, 15.68997
530.2853, 15.61292
530.7675, 15.61238
531.2496, 15.68160
531.7317, 15.83153
532.2138, 16.06729
532.6959, 16.30310
533.1780, 16.42050
533.6602, 16.38395
534.1423, 16.45439
534.6244, 16.70931
535.1065, 16.96909
535.5886, 17.16569
536.0707, 17.32269
536.5529, 17.47160
537.0350, 17.62539
537.5171, 17.80504
537.9992, 18.04797
538.4813, 18.36569
538.9634, 18.68807
539.4456, 19.06078
539.9277, 19.37987
540.4098, 19.52112
540.8919, 19.58364
541.3740, 19.77758
541.8561, 20.22820
542.3383, 20.74927
542.8204, 21.10886
543.3025, 21.32174
543.7846, 21.50849
544.2667, 21.65152
544.7488, 21.86876
545.2310, 22.33485
545.7131, 23.02145
546.1952, 23.71325
546.6773, 24.31757
547.1594, 24.96906
547.6415, 25.79162
548.1237, 26.73097
548.6058, 27.65816
549.0879, 28.51573
549.5700, 29.35666
550.0521, 30.26208
550.5342, 31.22025
551.0164, 32.27654
551.4985, 33.39968
551.9806, 34.62675
552.4627, 35.98396
552.9448, 37.46359
553.4269, 39.09040
553.9091, 40.88665
554.3912, 42.72528
554.8733, 44.36486
555.3554, 45.77994
555.8375, 47.22361
556.3196, 48.84139
556.8018, 50.35520
557.2839, 51.59690
557.7660, 52.61369
558.2481, 53.54110
558.7302, 54.56162
559.2123, 55.34734
559.6945, 55.55315
560.1766, 55.22660
560.6587, 54.55706
561.1408, 53.58417
561.6229, 52.33914
562.1050, 50.83066
562.5872, 49.03025
563.0693, 47.09156
563.5514, 44.82426
564.0335, 42.61891
564.5156, 40.67071
564.9977, 38.93846
565.4799, 37.31597
565.9620, 35.76686
566.4441, 34.31878
566.9262, 33.01136
567.4083, 31.84068
567.8904, 30.82608
568.3726, 29.96797
568.8547, 29.28186
569.3368, 28.82659
569.8189, 28.53498
570.3010, 28.29023
570.7831, 28.03404
571.2653, 27.87895
571.7474, 28.00527
572.2295, 28.37833
572.7116, 28.70712
573.1937, 28.91123
573.6758, 29.14530
574.1580, 29.51724
574.6401, 30.02591
575.1222, 30.67225
575.6043, 31.50570
576.0864, 32.42046
576.5685, 33.44332
577.0507, 34.48420
577.5328, 35.35938
578.0149, 36.03228
578.4970, 36.68617
578.9791, 37.55127
579.4612, 38.64903
579.9434, 39.41785
580.4255, 39.47055
580.9076, 39.64398
581.3897, 40.36468
581.8718, 41.14260
582.3539, 41.42137
582.8361, 41.08946
583.3182, 40.47432
583.8003, 39.88766
584.2824, 39.30421
584.7645, 38.54580
585.2466, 37.59002
585.7288, 36.50817
586.2108, 35.28551
586.6929, 33.97210
587.1750, 32.63873
587.6572, 31.26813
588.1393, 29.97308
588.6214, 28.88076
589.1035, 27.85386
589.5856, 26.66311
590.0677, 25.31588
590.5499, 24.08548
591.0320, 23.15636
591.5141, 22.45587
591.9962, 21.72675
592.4783, 20.83519
592.9604, 20.11741
593.4426, 19.72779
593.9247, 19.38655
594.4068, 18.85509
594.8889, 18.18728
595.3710, 17.61759
595.8531, 17.31942
596.3353, 17.17687
596.8174, 16.90208
597.2995, 16.46772
597.7816, 16.06452
598.2637, 15.74353
598.7458, 15.45960
599.2280, 15.15016
599.7101, 14.83100
600.1922, 14.58576
600.6743, 14.50095
601.1564, 14.44849
601.6385, 14.29603
602.1207, 14.08564
602.6028, 13.95893
603.0849, 13.96869
603.5670, 14.01070
604.0491, 13.94590
604.5313, 13.74986
605.0134, 13.59852
605.4955, 13.52591
605.9776, 13.45209
606.4597, 13.38970
606.9418, 13.29502
607.4240, 13.07090
607.9061, 12.70656
608.3882, 12.37433
608.8703, 12.31168
609.3524, 12.49382
609.8345, 12.57873
610.3167, 12.52771
610.7988, 12.46767
611.2809, 12.48471
611.7630, 12.51809
612.2451, 12.47336
612.7272, 12.32310
613.2094, 12.18921
613.6915, 12.12920
614.1736, 12.11470
614.6557, 12.13901
615.1378, 12.18605
615.6199, 12.17108
616.1021, 12.03323
616.5842, 11.82349
617.0663, 11.69012
617.5484, 11.69227
618.0305, 11.67088
618.5126, 11.59087
618.9948, 11.52188
619.4769, 11.53620
619.9590, 11.59164
620.4411, 11.57725
620.9232, 11.42346
621.4053, 11.22896
621.8875, 11.15855
622.3696, 11.21008
622.8517, 11.25728
623.3338, 11.29311
623.8159, 11.29401
624.2980, 11.24342
624.7802, 11.14207
625.2623, 10.98118
625.7444, 10.64482
626.2265, 10.39682
626.7086, 10.40565
627.1907, 10.55573
627.6729, 10.70555
628.1550, 10.81985
628.6371, 10.89710
629.1192, 10.93708
629.6013, 10.93878
630.0834, 10.88502
630.5656, 10.68589
631.0477, 10.58360
631.5298, 10.70430
632.0119, 10.85132
632.4940, 10.86975
632.9761, 10.76641
633.4583, 10.65630
633.9404, 10.60032
634.4225, 10.58300
634.9046, 10.59621
635.3867, 10.63566
635.8688, 10.63856
636.3510, 10.57375
636.8331, 10.49379
637.3152, 10.46449
637.7973, 10.49224
638.2794, 10.50387
638.7615, 10.45759
639.2437, 10.44060
639.7258, 10.53036
640.2079, 10.65458
640.6900, 10.69862
641.1721, 10.64049
641.6542, 10.56844
642.1364, 10.59236
642.6185, 10.69835
643.1006, 10.69044
643.5827, 10.50786
644.0648, 10.34577
644.5469, 10.28644
645.0291, 10.27033
645.5112, 10.24926
645.9933, 10.21966
646.4754, 10.19432
646.9575, 10.15454
647.4396, 10.13928
647.9218, 10.19754
648.4039, 10.32082
648.8860, 10.48942
649.3681, 10.70566
649.8502, 10.88639
650.3323, 10.89088
650.8145, 10.65971
651.2966, 10.52526
651.7787, 10.60111
652.2608, 10.63879
652.7429, 10.50136
653.2250, 10.31160
653.7072, 10.24114
654.1893, 10.32879
654.6714, 10.44423
655.1535, 10.45613
655.6356, 10.39769
656.1177, 10.38962
656.5999, 10.44279
657.0820, 10.47615
657.5641, 10.43066
658.0462, 10.36374
658.5283, 10.39942
659.0104, 10.56256
659.4926, 10.67896
659.9747, 10.69266
660.4568, 10.68254
660.9389, 10.70653
661.4210, 10.74352
661.9031, 10.74254
662.3853, 10.68399
662.8674, 10.59422
663.3495, 10.49207
663.8316, 10.37146
664.3137, 10.35015
664.7958, 10.51649
665.2780, 10.62096
665.7601, 10.45613
666.2422, 10.21598
666.7243, 10.14628
667.2064, 10.29441
667.6885, 10.42006
668.1707, 10.35227
668.6528, 10.24281
669.1349, 10.28657
669.6170, 10.45852
670.0991, 10.61382
670.5812, 10.68645
671.0634, 10.69321
671.5455, 10.64886
672.0276, 10.51349
672.5097, 10.48094
672.9918, 10.70289
673.4739, 10.86164
673.9561, 10.82442
674.4382, 10.68498
674.9203, 10.54311
675.4024, 10.42495
675.8845, 10.37850
676.3666, 10.48900
676.8488, 10.68638
677.3309, 10.83786
677.8130, 10.93532
678.2951, 10.94057
678.7772, 10.81065
679.2593, 10.62376
679.7415, 10.51976
680.2236, 10.52105
680.7057, 10.54531
681.1878, 10.64989
681.6699, 10.50282
682.1520, 10.77241
682.6342, 10.92790
683.1163, 10.97541
683.5984, 10.59153
684.0805, 10.76470
684.5626, 10.71463
685.0447, 10.65541
685.5269, 10.90698
686.0090, 10.58584
686.4911, 10.83249
686.9732, 10.85248
687.4553, 10.97621
687.9374, 10.87532
688.4196, 10.84381
688.9017, 11.03698
689.3838, 11.10574
689.8659, 10.97899
690.3480, 11.10931
690.8301, 10.78033
691.3123, 10.85440
691.7944, 11.10236
692.2765, 10.98690
692.7586, 11.01962
693.2407, 11.02504
693.7228, 10.97477
694.2050, 10.81483
694.6871, 10.74713
695.1692, 10.92260
695.6513, 11.16487
696.1334, 11.30531
696.6155, 11.34063
697.0977, 11.28473
697.5798, 10.99281
698.0619, 10.75142
698.5440, 10.86053
699.0261, 11.15994
699.5082, 11.28829
699.9904, 11.15289
700.4725, 10.98959
700.9546, 11.07077
701.4367, 11.37297
701.9188, 11.53626
702.4009, 11.51267
702.8831, 11.44396
703.3652, 11.30191
703.8473, 11.17504
704.3294, 11.12814
704.8115, 11.15967
705.2936, 11.23554
705.7758, 11.40357
706.2579, 11.55097
706.7400, 11.54925
707.2221, 11.46269
707.7042, 11.44160
708.1863, 11.51877
708.6685, 11.61648
709.1506, 11.66712
709.6327, 11.67371
710.1148, 11.65170
710.5969, 11.55061
711.0790, 11.51505
711.5612, 11.60858
712.0433, 11.73033
712.5254, 11.81776
713.0075, 11.87867
713.4896, 11.95202
713.9717, 12.06267
714.4539, 12.17200
714.9360, 12.24817
715.4181, 12.29679
715.9002, 12.31966
716.3823, 12.31980
716.8644, 12.33985
717.3466, 12.42045
717.8287, 12.53110
718.3108, 12.55299
718.7929, 12.39639
719.2750, 12.32188
719.7571, 12.36398
720.2393, 12.45726
720.7214, 12.59090
721.2035, 12.74736
721.6856, 12.90726
722.1677, 13.06942
722.6498, 13.20297
723.1320, 13.25759
723.6141, 13.27280
724.0962, 13.32835
724.5783, 13.42982
725.0604, 13.54703
725.5425, 13.66447
726.0247, 13.78652
726.5068, 13.92318
726.9889, 14.07552
727.4710, 14.23995
727.9531, 14.43335
728.4352, 14.61900
728.9174, 14.78999
729.3995, 14.94343
729.8816, 15.05699
730.3637, 15.12931
730.8458, 15.23604
731.3279, 15.41110
731.8101, 15.66466
732.2922, 16.09748
732.7743, 16.65855
733.2564, 17.00400
733.7385, 16.98891
734.2206, 16.84887
734.7028, 16.87692
735.1849, 17.08246
735.6670, 17.31313
736.1491, 17.46458
736.6312, 17.78281
737.1133, 18.45841
737.5955, 19.20870
738.0776, 19.82952
738.5597, 20.29148
739.0418, 20.59427
739.5239, 20.64117
740.0060, 20.65478
740.4882, 20.89262
740.9703, 21.31076
741.4524, 21.79602
741.9345, 22.32316
742.4166, 22.83066
742.8987, 23.25566
743.3809, 23.62383
743.8630, 24.07305
744.3451, 24.73310
744.8272, 25.23380
745.3093, 25.39288
745.7914, 25.55540
746.2736, 25.94313
746.7557, 26.46335
747.2378, 26.91512
747.7199, 27.22894
748.2020, 27.48894
748.6841, 27.80578
749.1663, 28.09398
749.6484, 28.14732
750.1305, 27.99212
750.6126, 27.92089
751.0947, 28.09834
751.5768, 28.34364
752.0590, 28.31638
752.5411, 27.94340
753.0232, 27.64511
753.5053, 27.50949
753.9874, 27.33064
754.4695, 27.00977
754.9517, 26.63936
755.4338, 26.30725
755.9159, 26.02553
756.3980, 25.79211
756.8801, 25.59510
757.3622, 25.45336
757.8444, 25.42815
758.3265, 25.46666
758.8086, 25.44954
759.2907, 25.34514
759.7728, 25.17397
760.2549, 24.93738
760.7371, 24.66465
761.2192, 24.55804
761.7013, 24.68890
762.1834, 24.79478
762.6655, 24.84709
763.1476, 24.84415
763.6298, 24.77059
764.1119, 24.64471
764.5940, 24.51511
765.0761, 24.39006
765.5582, 24.26650
766.0403, 24.15430
766.5225, 24.03561
767.0046, 23.89350
767.4867, 23.72496
767.9688, 23.52195
768.4509, 23.27841
768.9330, 23.02777
769.4152, 22.85519
769.8973, 22.76732
770.3794, 22.51189
770.8615, 21.97788
771.3436, 21.56874
771.8257, 21.48804
772.3079, 21.61297
772.7900, 21.81027
773.2721, 22.09756
773.7542, 22.23089
774.2363, 21.96375
774.7184, 21.76502
775.2006, 21.97912
775.6827, 22.34907
776.1648, 22.51068
776.6469, 22.42027
777.1290, 22.29305
777.6111, 22.27969
778.0933, 22.36454
778.5754, 22.53108
779.0575, 22.77662
779.5396, 23.02784
780.0217, 23.28284
780.5038, 23.49787
780.9860, 23.62177
781.4681, 23.68250
781.9502, 23.80789
782.4323, 24.10705
782.9144, 24.28860
783.3965, 24.26310
783.8787, 24.19283
784.3608, 24.15137
784.8429, 24.13680
785.3250, 24.15151
785.8071, 24.19689
786.2892, 24.18603
786.7714, 24.03303
787.2535, 23.77944
787.7356, 23.45999
788.2177, 23.09643
788.6998, 22.84330
789.1819, 22.77211
789.6641, 22.68398
790.1462, 22.31452
790.6283, 21.66552
791.1104, 21.15400
791.5925, 20.89631
792.0746, 20.58386
792.5568, 20.03918
793.0389, 19.53030
793.5210, 19.32623
794.0031, 19.32609
794.4852, 19.16615
794.9673, 18.66151
795.4495, 18.12626
795.9316, 17.74809
796.4137, 17.45956
796.8958, 17.16333
797.3779, 16.86555
797.8600, 16.64239
798.3422, 16.53501
798.8243, 16.48096
799.3064, 16.38815
799.7885, 16.25627
800.2706, 16.07273
800.7527, 15.81721
801.2349, 15.57217
801.7170, 15.35555
802.1991, 15.17894
802.6812, 15.06508
803.1633, 15.01303
803.6454, 14.98365
804.1276, 14.95655
804.6097, 14.97259
805.0918, 15.10820
805.5739, 15.25335
806.0560, 15.29090
806.5381, 15.22161
807.0203, 15.10299
807.5024, 14.94010
807.9845, 14.83089
808.4666, 14.99255
808.9487, 15.33207
809.4308, 15.45028
809.9130, 15.29750
810.3951, 15.14851
810.8772, 15.16163
811.3593, 15.27193
811.8414, 15.35066
812.3235, 15.39360
812.8057, 15.42199
813.2878, 15.45864
813.7699, 15.45041
814.2520, 15.30024
814.7341, 15.15338
815.2162, 15.17781
815.6984, 15.37243
816.1805, 15.56841
816.6626, 15.67502
817.1447, 15.78252
817.6268, 15.97870
818.1089, 16.20983
818.5911, 16.39029
819.0732, 16.51153
819.5553, 16.60617
820.0374, 16.69051
820.5195, 16.79105
821.0016, 16.98051
821.4838, 17.26259
821.9659, 17.48498
822.4480, 17.60754
822.9301, 17.77089
823.4122, 18.06620
823.8943, 18.42624
824.3765, 18.73159
824.8586, 18.96568
825.3407, 19.23443
825.8228, 19.54113
826.3049, 19.88144
826.7870, 20.24215
827.2692, 20.64532
827.7513, 21.13083
828.2334, 21.68612
828.7155, 22.24126
829.1976, 22.76182
829.6797, 23.26525
830.1619, 23.71261
830.6440, 24.16932
831.1261, 24.80934
831.6082, 25.64086
832.0903, 26.52543
832.5724, 27.39168
833.0546, 28.24157
833.5367, 29.06068
834.0188, 29.83063
834.5009, 30.71208
834.9830, 31.73478
835.4651, 32.81039
835.9473, 33.89613
836.4294, 35.02234
836.9115, 36.21594
837.3936, 37.47548
837.8757, 38.84047
838.3578, 40.57907
838.8400, 42.10286
839.3221, 42.96952
839.8042, 43.68733
840.2863, 44.79976
840.7684, 46.25032
841.2505, 47.65791
841.7327, 48.84214
842.2148, 49.93351
842.6969, 50.98766
843.1790, 52.08924
843.6611, 53.54880
844.1432, 55.36055
844.6254, 57.17284
845.1075, 58.82684
845.5896, 60.50383
846.0717, 62.44374
846.5538, 64.63499
847.0359, 67.08937
847.5181, 69.69956
848.0002, 72.75925
848.4823, 76.56140
848.9644, 80.63277
849.4465, 84.53317
849.9286, 88.44762
850.4108, 92.96844
850.8929, 98.30171
851.3750, 103.9828
851.8571, 109.8732
852.3392, 116.0559
852.8214, 122.7188
853.3035, 129.7050
853.7856, 136.8634
854.2677, 144.0887
854.7498, 150.9140
855.2319, 157.0457
855.7141, 162.3794
856.1962, 166.8706
856.6783, 170.4378
857.1604, 172.7485
857.6425, 173.7261
858.1246, 173.0060
858.6068, 170.1541
859.0889, 165.5258
859.5710, 160.3315
860.0531, 154.2621
860.5352, 148.3977
861.0173, 142.5488
861.4995, 137.2287
861.9816, 132.4053
862.4637, 128.3256
862.9458, 125.3505
863.4279, 123.5382
863.9100, 122.4519
864.3922, 122.0212
864.8743, 122.2399
865.3564, 123.1516
865.8385, 124.6788
866.3206, 126.8678
866.8027, 129.6032
867.2849, 132.5732
867.7670, 135.6329
868.2491, 138.6697
868.7312, 141.6032
869.2133, 144.3633
869.6954, 146.7634
870.1776, 148.7963
870.6597, 150.5312
871.1418, 151.9965
871.6239, 153.2069
872.1060, 154.1539
872.5881, 154.8384
873.0703, 155.6609
873.5524, 156.8223
874.0345, 157.6231
874.5166, 158.0416
874.9987, 157.9099
875.4808, 157.2693
875.9630, 155.9771
876.4451, 153.5038
876.9272, 149.6934
877.4093, 144.9604
877.8914, 139.2057
878.3735, 132.7317
878.8557, 125.4000
879.3378, 117.5517
879.8199, 109.4514
880.3020, 101.2158
880.7841, 93.41025
881.2662, 86.34117
881.7484, 79.91322
882.2305, 74.08314
882.7126, 68.76872
883.1947, 63.74147
883.6768, 58.99552
884.1589, 54.72987
884.6411, 51.10133
885.1232, 47.97298
885.6053, 45.13158
886.0874, 42.57844
886.5695, 40.18690
887.0516, 37.94343
887.5338, 35.98075
888.0159, 34.41237
888.4980, 33.06416
888.9801, 31.72521
889.4622, 30.39425
889.9443, 29.27377
890.4265, 28.59293
890.9086, 27.79140
891.3907, 26.56984
891.8728, 25.45383
892.3549, 24.86373
892.8370, 24.58884
893.3192, 24.16909
893.8013, 23.47275
894.2834, 22.88944
894.7655, 22.75930
895.2476, 22.67702
895.7297, 22.19183
896.2119, 21.55865
896.6940, 21.29439
897.1761, 21.43117
897.6582, 21.51281
898.1403, 21.19887
898.6224, 20.72970
899.1046, 20.52081
899.5867, 20.50377
900.0688, 20.31031
900.5509, 19.91526
901.0330, 19.74398
901.5151, 20.02667
901.9973, 20.46220
902.4794, 20.59123
902.9615, 20.41328
903.4436, 20.40811
903.9257, 20.70312
904.4078, 20.82991
904.8900, 20.59593
905.3721, 20.29043
905.8542, 20.10540
906.3363, 20.02599
906.8184, 20.01464
907.3005, 20.10965
907.7827, 20.17728
908.2648, 20.21899
908.7469, 20.21001
909.2290, 20.11442
909.7111, 19.97518
910.1932, 19.83763
910.6754, 19.71074
911.1575, 19.59029
911.6396, 19.48763
912.1217, 19.37012
912.6038, 19.20016
913.0859, 19.00534
913.5681, 18.79482
914.0502, 18.59515
914.5323, 18.48050
915.0144, 18.48242
915.4965, 18.54116
915.9786, 18.59881
916.4607, 18.65257
916.9428, 18.70302
917.4249, 18.74703
917.9070, 18.73864
918.3892, 18.66680
918.8713, 18.53351
919.3534, 18.32825
919.8355, 18.08497
920.3176, 17.92343
920.7997, 17.89067
921.2819, 17.71928
921.7640, 17.14976
922.2461, 16.66565
922.7282, 16.87694
923.2103, 16.97411
923.6924, 16.96331
924.1746, 16.52111
924.6567, 16.63597
925.1388, 16.62358
925.6209, 16.56815
926.1030, 16.40110
926.5851, 16.25494
927.0673, 16.24020
927.5494, 16.30598
928.0315, 16.32665
928.5136, 16.26810
928.9957, 16.31891
929.4778, 16.73624
929.9600, 17.14357
930.4421, 17.15537
930.9242, 16.99428
931.4063, 17.00368
931.8884, 17.21851
932.3705, 17.50636
932.8527, 17.80184
933.3348, 18.08559
933.8169, 18.37682
934.2990, 18.62765
934.7811, 18.66323
935.2632, 18.50711
935.7454, 18.36480
936.2275, 18.30364
936.7096, 18.27474
937.1917, 18.22454
937.6738, 18.17603
938.1559, 18.26136
938.6381, 18.52140
939.1202, 18.53636
939.6023, 18.17248
940.0844, 17.86868
940.5665, 17.86161
941.0486, 18.01942
941.5308, 18.13143
942.0129, 18.18517
942.4950, 18.33581
942.9771, 18.62737
943.4592, 18.95156
943.9413, 19.29007
944.4235, 19.65813
944.9056, 20.00909
945.3877, 20.41121
945.8698, 21.02388
946.3519, 21.90158
946.8340, 22.81944
947.3162, 23.73700
947.7983, 24.66101
948.2804, 25.55932
948.7625, 26.48468
949.2446, 27.48705
949.7267, 28.57920
950.2089, 29.81841
950.6910, 31.33938
951.1731, 32.65345
951.6552, 33.30407
952.1373, 33.58709
952.6194, 33.73200
953.1016, 33.84743
953.5837, 34.24281
954.0658, 34.92707
954.5479, 35.33291
955.0300, 34.97828
955.5121, 34.10179
955.9943, 32.95654
956.4764, 31.66588
956.9585, 30.86546
957.4406, 30.56010
957.9227, 29.91385
958.4048, 28.51995
958.8870, 26.83356
959.3691, 25.42092
959.8512, 24.27367
960.3333, 23.34140
960.8154, 22.64319
961.2975, 22.05765
961.7797, 21.59506
962.2618, 21.14433
962.7439, 20.61858
963.2260, 20.08491
963.7081, 19.70047
964.1902, 19.50798
964.6724, 19.22348
965.1545, 18.69292
965.6366, 18.33303
966.1187, 18.48349
966.6008, 18.60445
967.0829, 18.17609
967.5651, 17.39136
968.0472, 16.84891
968.5293, 16.65584
969.0114, 16.50578
969.4935, 16.41636
969.9756, 16.29087
970.4578, 16.07392
970.9399, 15.80698
971.4220, 15.52342
971.9041, 15.23257
972.3862, 14.94506
972.8683, 14.65098
973.3505, 14.39384
973.8326, 14.26120
974.3147, 14.11460
974.7968, 13.78292
975.2789, 13.36469
975.7610, 13.04184
976.2432, 12.85178
976.7253, 12.71857
977.2074, 12.62472
977.6895, 12.51233
978.1716, 12.28846
978.6537, 12.01818
979.1359, 11.80369
979.6180, 11.64846
980.1001, 11.51283
980.5822, 11.38365
981.0643, 11.30609
981.5464, 11.35866
982.0286, 11.45965
982.5107, 11.41900
982.9928, 11.25401
983.4749, 11.01410
983.9570, 10.71644
984.4391, 10.47825
984.9213, 10.36109
985.4034, 10.34593
985.8855, 10.43746
986.3676, 10.60913
986.8497, 10.57877
987.3318, 10.31446
987.8140, 10.25443
988.2961, 10.52833
988.7782, 10.80600
989.2603, 10.87952
989.7424, 10.80278
990.2245, 10.66993
990.7067, 10.46048
991.1888, 10.36847
991.6709, 10.43542
992.1530, 10.52325
992.6351, 10.64223
993.1172, 10.70798
993.5994, 10.61232
994.0815, 10.42506
994.5636, 10.36711
995.0457, 10.49966
995.5278, 10.58867
996.0099, 10.58757
996.4921, 10.60444
996.9742, 10.70531
997.4563, 10.80220
997.9384, 10.77185
998.4205, 10.67219
998.9026, 10.72073
999.3848, 11.01545
999.8669, 11.27175
1000.349, 11.41351
1000.831, 11.52992
1001.313, 11.66539
1001.795, 11.79658
1002.277, 11.89637
1002.760, 11.96501
1003.242, 12.01212
1003.724, 12.00647
1004.206, 12.06634
1004.688, 12.30101
1005.170, 12.56767
1005.652, 12.79654
1006.134, 12.96404
1006.617, 12.99748
1007.099, 12.92968
1007.581, 12.96253
1008.063, 13.23152
1008.545, 13.54294
1009.027, 13.76001
1009.509, 13.92028
1009.991, 14.04362
1010.473, 14.15563
1010.956, 14.31634
1011.438, 14.52704
1011.920, 14.70420
1012.402, 14.80557
1012.884, 14.81377
1013.366, 14.65347
1013.848, 14.40987
1014.330, 14.28556
1014.813, 14.23236
1015.295, 13.99262
1015.777, 13.51031
1016.259, 13.08653
1016.741, 13.00079
1017.223, 13.08403
1017.705, 13.04534
1018.187, 12.90711
1018.669, 12.72117
1019.152, 12.50560
1019.634, 12.36463
1020.116, 12.33417
1020.598, 12.27442
1021.080, 12.02625
1021.562, 11.67311
1022.044, 11.43358
1022.526, 11.30765
1023.008, 11.37321
1023.491, 11.63873
1023.973, 11.66867
1024.455, 11.25351
1024.937, 10.79542
1025.419, 10.77504
1025.901, 11.08704
1026.383, 11.26338
1026.865, 11.30207
1027.348, 11.21103
1027.830, 10.96628
1028.312, 10.73419
1028.794, 10.57951
1029.276, 10.50863
1029.758, 10.55068
1030.240, 10.68046
1030.722, 10.68859
1031.204, 10.54689
1031.687, 10.40562
1032.169, 10.26825
1032.651, 10.15976
1033.133, 10.08383
1033.615, 10.06151
1034.097, 10.14744
1034.579, 10.32626
1035.061, 10.31574
1035.544, 9.652589
1036.026, 9.841201
1036.508, 9.915703
1036.990, 9.882244
1037.472, 9.417379
1037.954, 9.509581
1038.436, 9.378524
1038.918, 9.238331
1039.401, 9.408770
1039.883, 9.006649
1040.365, 9.172323
1040.847, 9.111332
1041.329, 9.154090
1041.811, 8.972212
1042.293, 8.859729
1042.775, 8.971917
1043.257, 8.824258
1043.740, 8.839879
1044.222, 8.940326
1044.704, 8.849319
1045.186, 8.296809
1045.668, 7.847499
1046.150, 7.860947
1046.632, 8.038254
1047.114, 7.995059
1047.596, 7.742516
1048.079, 7.598592
1048.561, 7.711619
1049.043, 7.750135
1049.525, 7.586810
1050.007, 7.443387
1050.489, 7.453247
1050.971, 7.523015
1051.453, 7.544793
1051.936, 7.514770
1052.418, 7.471595
1052.900, 7.444601
1053.382, 7.365069
1053.864, 7.098127
1054.346, 6.913167
1054.828, 7.033328
1055.310, 7.257194
1055.792, 7.345442
1056.275, 7.297102
1056.757, 7.241122
1057.239, 7.186471
1057.721, 7.166830
1058.203, 7.223390
1058.685, 7.280838
1059.167, 7.302131
1059.649, 7.298312
1060.131, 7.287621
1060.614, 7.267680
1061.096, 7.212195
1061.578, 7.080457
1062.060, 7.004313
1062.542, 7.078024
1063.024, 7.163513
1063.506, 7.188368
1063.988, 7.178041
1064.471, 7.156066
1064.953, 7.130476
1065.435, 7.113356
1065.917, 7.108744
1066.399, 7.109469
1066.881, 7.110368
1067.363, 7.118467
1067.845, 7.159918
1068.328, 7.194368
1068.810, 7.143622
1069.292, 7.047688
1069.774, 7.049489
1070.256, 7.208101
1070.738, 7.349067
1071.220, 7.406877
1071.702, 7.413496
1072.184, 7.360904
1072.667, 7.286984
1073.149, 7.204728
1073.631, 7.139192
1074.113, 7.153817
1074.595, 7.273265
1075.077, 7.369757
1075.559, 7.359037
1076.041, 7.341640
1076.523, 7.411052
1077.006, 7.469354
1077.488, 7.379946
1077.970, 7.212004
1078.452, 7.138762
1078.934, 7.200952
1079.416, 7.264758
1079.898, 7.293981
1080.380, 7.280917
1080.862, 7.171815
1081.345, 7.063643
1081.827, 7.064041
1082.309, 7.123524
1082.791, 7.135845
1083.273, 7.083825
1083.755, 7.041576
1084.237, 7.017409
1084.719, 7.041914
1085.202, 7.191760
1085.684, 7.335581
1086.166, 7.366716
1086.648, 7.319878
1087.130, 7.244929
1087.612, 7.156877
1088.094, 7.078015
1088.576, 6.999370
1089.058, 6.966159
1089.541, 7.030965
1090.023, 7.113099
1090.505, 7.190208
1090.987, 7.228144
1091.469, 7.155239
1091.951, 6.999006
1092.433, 6.902617
1092.915, 6.919795
1093.397, 6.971535
1093.880, 7.109426
1094.362, 7.178023
1094.844, 7.009390
1095.326, 6.779491
1095.808, 6.669964
1096.290, 6.676857
1096.772, 6.737719
1097.254, 6.862913
1097.737, 6.913857
1098.219, 6.745174
1098.701, 6.616807
1099.183, 6.708124
1099.665, 6.837168
1100.147, 6.835330
1100.629, 6.740769
1101.111, 6.661145
1101.594, 6.614286
1102.076, 6.578264
1102.558, 6.583998
1103.040, 6.548963
1103.522, 6.388476
1104.004, 6.236221
1104.486, 6.177710
1104.968, 6.195097
1105.450, 6.285749
1105.932, 6.441737
1106.415, 6.501697
1106.897, 6.283329
1107.379, 6.193302
1107.861, 6.435620
1108.343, 6.679809
1108.825, 6.800776
1109.307, 6.799416
1109.789, 6.634527
1110.272, 6.338957
1110.754, 6.119379
1111.236, 5.976048
1111.718, 5.949987
1112.200, 6.214467
1112.682, 6.379341
1113.164, 6.184371
1113.646, 5.940104
1114.129, 5.958276
1114.611, 6.157530
1115.093, 6.245662
1115.575, 6.158607
1116.057, 6.150844
1116.539, 6.340869
1117.021, 6.428169
1117.503, 6.249795
1117.985, 6.078626
1118.468, 6.137017
1118.950, 6.294808
1119.432, 6.294324
1119.914, 6.118352
1120.396, 5.990547
1120.878, 5.900023
1121.360, 5.884955
1121.842, 5.980870
1122.324, 6.100682
1122.807, 6.236131
1123.289, 6.327393
1123.771, 6.282837
1124.253, 6.121665
1124.735, 6.005864
1125.217, 5.944292
1125.699, 5.890015
1126.181, 5.826450
1126.664, 5.820164
1127.146, 5.908211
1127.628, 6.026610
1128.110, 6.126530
1128.592, 6.198712
1129.074, 6.207623
1129.556, 6.145166
1130.038, 6.105278
1130.521, 6.089468
1131.003, 6.094169
1131.485, 6.125983
1131.967, 6.118331
1132.449, 6.014702
1132.931, 5.903504
1133.413, 5.933457
1133.895, 6.088141
1134.377, 6.289044
1134.859, 6.531135
1135.342, 6.579734
1135.824, 6.407984
1136.306, 6.313895
1136.788, 6.430864
1137.270, 6.548629
1137.752, 6.434568
1138.234, 6.182870
1138.716, 5.975171
1139.199, 5.834947
1139.681, 5.936894
1140.163, 6.229350
1140.645, 6.364736
1141.127, 6.256243
1141.609, 6.043930
1142.091, 5.802368
1142.573, 5.656594
1143.056, 5.891699
1143.538, 6.286695
1144.020, 6.379125
1144.502, 6.257529
1144.984, 6.140105
1145.466, 6.075956
1145.948, 6.090505
1146.430, 6.191689
1146.912, 6.275246
1147.395, 6.217843
1147.877, 6.132167
1148.359, 6.161355
1148.841, 6.232018
1149.323, 6.213031
1149.805, 6.155112
1150.287, 6.228518
1150.769, 6.440769
1151.251, 6.560569
1151.734, 6.422668
1152.216, 6.275612
1152.698, 6.323877
1153.180, 6.388795
1153.662, 6.295247
1154.144, 6.146616
1154.626, 6.072743
1155.108, 6.080633
1155.591, 6.135646
1156.073, 6.236270
1156.555, 6.333674
1157.037, 6.454443
1157.519, 6.510514
1158.001, 6.363836
1158.483, 6.239672
1158.965, 6.390868
1159.448, 6.645373
1159.930, 6.674248
1160.412, 6.455384
1160.894, 6.304982
1161.376, 6.228048
1161.858, 6.267638
1162.340, 6.604855
1162.822, 6.832553
1163.304, 6.784472
1163.786, 6.577050
1164.269, 6.232285
1164.751, 5.835421
1165.233, 5.691093
1165.715, 5.866770
1166.197, 6.005811
1166.679, 6.122259
1167.161, 6.152232
1167.643, 6.046086
1168.126, 5.950308
1168.608, 5.949597
1169.090, 6.015649
1169.572, 6.124551
1170.054, 6.257035
1170.536, 6.233609
1171.018, 6.042606
1171.500, 5.997337
1171.983, 6.132418
1172.465, 6.123441
1172.947, 5.847676
1173.429, 5.657593
1173.911, 5.875265
1174.393, 6.240860
1174.875, 6.222275
1175.357, 5.936190
1175.839, 5.830443
1176.322, 5.874755
1176.804, 5.936267
1177.286, 5.974334
1177.768, 5.899079
1178.250, 5.675128
1178.732, 5.492684
1179.214, 5.568643
1179.696, 5.736285
1180.178, 5.773768
1180.661, 5.753031
1181.143, 5.790424
1181.625, 5.862550
1182.107, 5.900856
1182.589, 5.890353
1183.071, 5.843744
1183.553, 5.757829
1184.035, 5.674876
1184.518, 5.610535
1185.000, 5.571597
1185.482, 5.577291
1185.964, 5.598973
1186.446, 5.612127
1186.928, 5.614705
1187.410, 5.605264
1187.892, 5.583144
1188.375, 5.575180
1188.857, 5.591347
1189.339, 5.616763
1189.821, 5.708975
1190.303, 5.737620
1190.785, 5.552949
1191.267, 5.342321
1191.749, 5.330567
1192.231, 5.460809
1192.714, 5.504071
1193.196, 5.413808
1193.678, 5.428276
1194.160, 5.616407
1194.642, 5.716089
1195.124, 5.656074
1195.606, 5.555668
1196.088, 5.475373
1196.570, 5.410653
1197.053, 5.353492
1197.535, 5.307712
1198.017, 5.291045
1198.499, 5.303628
1198.981, 5.360433
1199.463, 5.458788
1199.945, 5.491920
1200.427, 5.434984
1200.910, 5.464540
1201.392, 5.717799
1201.874, 5.982927
1202.356, 5.811110
1202.838, 5.518649
1203.320, 5.963050
1203.802, 6.759154
1204.284, 6.992212
1204.766, 6.710643
1205.249, 6.450442
1205.731, 6.374225
1206.213, 6.268652
1206.695, 5.980409
1207.177, 5.671346
1207.659, 5.416838
1208.141, 5.247073
1208.623, 5.229488
1209.105, 5.284091
1209.588, 5.328736
1210.070, 5.351637
1210.552, 5.355763
1211.034, 5.339402
1211.516, 5.326790
1211.998, 5.335320
1212.480, 5.330884
1212.962, 5.287902
1213.445, 5.250303
1213.927, 5.264480
1214.409, 5.275434
1214.891, 5.197000
1215.373, 5.065948
1215.855, 5.057843
1216.337, 5.218221
1216.819, 5.304252
1217.302, 5.313001
1217.784, 5.235890
1218.266, 5.037869
1218.748, 4.921256
1219.230, 5.010225
1219.712, 5.173083
1220.194, 5.245864
1220.676, 5.247506
1221.158, 5.246484
1221.641, 5.231864
1222.123, 5.097942
1222.605, 4.884246
1223.087, 4.831598
1223.569, 4.978072
1224.051, 5.168915
1224.533, 5.323022
1225.015, 5.390542
1225.497, 5.237328
1225.980, 5.053874
1226.462, 5.089489
1226.944, 5.210930
1227.426, 5.256648
1227.908, 5.238012
1228.390, 5.199563
1228.872, 5.158333
1229.354, 5.145976
1229.837, 5.183308
1230.319, 5.220552
1230.801, 5.248506
1231.283, 5.262790
1231.765, 5.242017
1232.247, 5.226163
1232.729, 5.262298
1233.211, 5.316540
1233.693, 5.316203
1234.176, 5.264947
1234.658, 5.280771
1235.140, 5.426025
1235.622, 5.431834
1236.104, 5.229919
1236.586, 5.094383
1237.068, 5.108853
1237.550, 5.201335
1238.032, 5.336082
1238.515, 5.447631
1238.997, 5.410571
1239.479, 5.266027
1239.961, 5.171010
1240.443, 5.120534
1240.925, 5.101340
1241.407, 5.105306
1241.889, 5.093853
1242.372, 5.065445
1242.854, 5.098130
1243.336, 5.251922
1243.818, 5.407188
1244.300, 5.476429
1244.782, 5.468113
1245.264, 5.327028
1245.746, 5.164733
1246.229, 5.125761
1246.711, 5.166513
1247.193, 5.173725
1247.675, 5.133824
1248.157, 5.124743
1248.639, 5.192430
1249.121, 5.237466
1249.603, 5.208970
1250.085, 5.202833
1250.568, 5.290238
1251.050, 5.356122
1251.532, 5.308532
1252.014, 5.208421
1252.496, 5.155909
1252.978, 5.147268
1253.460, 5.133089
1253.942, 5.106280
1254.424, 5.175483
1254.907, 5.352430
1255.389, 5.459025
1255.871, 5.446418
1256.353, 5.363578
1256.835, 5.235072
1257.317, 5.144420
1257.799, 5.251638
1258.281, 5.414509
1258.764, 5.311124
1259.246, 5.115645
1259.728, 5.202791
1260.210, 5.447581
1260.692, 5.451464
1261.174, 5.210399
1261.656, 5.132834
1262.138, 5.425442
1262.620, 5.642252
1263.103, 5.519264
1263.585, 5.352791
1264.067, 5.229683
1264.549, 5.157708
1265.031, 5.166567
1265.513, 5.209882
1265.995, 5.222274
1266.477, 5.210690
1266.959, 5.213766
1267.442, 5.230561
1267.924, 5.280227
1268.406, 5.393123
1268.888, 5.365164
1269.370, 5.126349
1269.852, 5.016047
1270.334, 5.217605
1270.816, 5.470114
1271.299, 5.493264
1271.781, 5.386118
1272.263, 5.320275
1272.745, 5.295976
1273.227, 5.343108
1273.709, 5.421355
1274.191, 5.419251
1274.673, 5.349981
1275.156, 5.331666
1275.638, 5.397657
1276.120, 5.418776
1276.602, 5.281939
1277.084, 5.158875
1277.566, 5.107845
1278.048, 5.128605
1278.530, 5.307416
1279.012, 5.482950
1279.495, 5.463546
1279.977, 5.327202
1280.459, 5.275356
1280.941, 5.309470
1281.423, 5.332523
1281.905, 5.333681
1282.387, 5.383502
1282.869, 5.511424
1283.351, 5.518274
1283.834, 5.328722
1284.316, 5.196838
1284.798, 5.305461
1285.280, 5.471978
1285.762, 5.476544
1286.244, 5.321452
##END=



