##NAMES=Clinozoisite
##RRUFFID=R060284
##IDEAL CHEMISTRY=Ca_2_Al_3_(Si_2_O_7_)(SiO_4_)O(OH)
##LOCALITY=near Zagi Mountain, Khaffor Dehri, North-West Frontier Province, Pakistan
##OWNER=RRUFF
##SOURCE=Herb Obodda
##DESCRIPTION=Greenish-brown fragment of a prismatic crystal
##STATUS=The identification of this mineral has been confirmed by X-ray diffraction and chemical analysis
##URL=rruff.info/R060284
##MEASURED CHEMISTRY=Ca_2.00_(Al_0.90_Fe^3+^_0.10_)_3_(Si_1.00_O_4_)(Si_2.00_O_7_)O(OH)
126.8146, 267.8842
127.2967, 275.4175
127.7788, 280.1505
128.2609, 283.4634
128.7430, 290.9624
129.2252, 307.1967
129.7073, 322.2553
130.1894, 333.8768
130.6715, 343.3188
131.1536, 351.9477
131.6357, 360.3734
132.1179, 368.9532
132.6000, 380.5246
133.0821, 396.9121
133.5642, 414.6986
134.0463, 434.5265
134.5284, 455.2355
135.0106, 474.9172
135.4927, 492.0214
135.9748, 506.7322
136.4569, 523.1297
136.9390, 541.0032
137.4211, 560.5125
137.9033, 583.9036
138.3854, 609.2226
138.8675, 632.0744
139.3496, 648.6975
139.8317, 659.0068
140.3138, 673.9448
140.7960, 692.8121
141.2781, 715.6545
141.7602, 746.3445
142.2423, 782.1268
142.7244, 813.6315
143.2065, 832.5906
143.6887, 838.6024
144.1708, 852.4501
144.6529, 877.4491
145.1350, 906.3550
145.6171, 936.7488
146.0992, 967.9277
146.5814, 997.8736
147.0635, 1024.666
147.5456, 1048.177
148.0277, 1072.724
148.5098, 1096.620
148.9919, 1122.693
149.4741, 1155.016
149.9562, 1193.561
150.4383, 1231.038
150.9204, 1261.489
151.4025, 1285.088
151.8846, 1308.773
152.3668, 1336.922
152.8489, 1362.850
153.3310, 1378.546
153.8131, 1383.107
154.2952, 1386.847
154.7773, 1399.464
155.2595, 1418.554
155.7416, 1433.542
156.2237, 1442.380
156.7058, 1446.514
157.1879, 1445.638
157.6700, 1438.777
158.1522, 1433.417
158.6343, 1438.183
159.1164, 1449.201
159.5985, 1457.135
160.0806, 1454.842
160.5627, 1449.920
161.0449, 1453.264
161.5270, 1465.858
162.0091, 1483.914
162.4912, 1509.822
162.9733, 1539.163
163.4554, 1563.853
163.9376, 1577.371
164.4197, 1585.409
164.9018, 1597.547
165.3839, 1613.784
165.8660, 1634.231
166.3481, 1661.896
166.8303, 1693.387
167.3124, 1723.151
167.7945, 1749.322
168.2766, 1772.344
168.7587, 1793.450
169.2408, 1813.252
169.7230, 1829.690
170.2051, 1840.851
170.6872, 1848.451
171.1693, 1855.150
171.6514, 1863.674
172.1335, 1871.447
172.6157, 1871.283
173.0978, 1860.117
173.5799, 1846.776
174.0620, 1837.266
174.5441, 1828.005
175.0262, 1813.866
175.5084, 1792.272
175.9905, 1764.197
176.4726, 1730.941
176.9547, 1688.516
177.4368, 1648.245
177.9189, 1616.225
178.4010, 1588.307
178.8832, 1558.710
179.3653, 1523.461
179.8474, 1485.348
180.3295, 1452.332
180.8116, 1426.293
181.2937, 1402.482
181.7759, 1379.542
182.2580, 1357.386
182.7401, 1335.488
183.2222, 1312.837
183.7043, 1291.441
184.1864, 1277.884
184.6686, 1277.614
185.1507, 1276.053
185.6328, 1269.530
186.1149, 1259.771
186.5970, 1247.826
187.0791, 1233.517
187.5613, 1219.192
188.0434, 1211.184
188.5255, 1212.783
189.0076, 1215.632
189.4897, 1218.636
189.9718, 1221.400
190.4540, 1223.731
190.9361, 1225.580
191.4182, 1226.587
191.9003, 1225.409
192.3824, 1219.143
192.8645, 1216.042
193.3467, 1218.833
193.8288, 1224.230
194.3109, 1229.150
194.7930, 1232.369
195.2751, 1234.745
195.7572, 1238.263
196.2394, 1244.282
196.7215, 1248.868
197.2036, 1248.595
197.6857, 1248.458
198.1678, 1253.058
198.6499, 1263.905
199.1321, 1278.601
199.6142, 1293.315
200.0963, 1310.093
200.5784, 1322.422
201.0605, 1326.579
201.5426, 1328.932
202.0248, 1334.455
202.5069, 1344.492
202.9890, 1356.540
203.4711, 1365.948
203.9532, 1369.011
204.4353, 1378.070
204.9175, 1398.056
205.3996, 1420.203
205.8817, 1439.113
206.3638, 1453.522
206.8459, 1465.072
207.3280, 1475.288
207.8102, 1481.866
208.2923, 1493.082
208.7744, 1512.930
209.2565, 1533.786
209.7386, 1551.854
210.2207, 1566.320
210.7029, 1578.171
211.1850, 1588.292
211.6671, 1596.267
212.1492, 1603.771
212.6313, 1609.272
213.1134, 1615.579
213.5956, 1623.892
214.0777, 1634.293
214.5598, 1646.385
215.0419, 1659.996
215.5240, 1675.340
216.0061, 1690.582
216.4883, 1707.268
216.9704, 1722.502
217.4525, 1733.270
217.9346, 1741.285
218.4167, 1751.497
218.8988, 1768.867
219.3810, 1793.727
219.8631, 1813.631
220.3452, 1823.387
220.8273, 1832.973
221.3094, 1845.917
221.7915, 1860.747
222.2737, 1873.902
222.7558, 1882.419
223.2379, 1887.005
223.7200, 1894.448
224.2021, 1903.823
224.6842, 1917.711
225.1664, 1939.369
225.6485, 1965.339
226.1306, 1990.225
226.6127, 2010.489
227.0948, 2028.126
227.5770, 2051.459
228.0591, 2082.675
228.5412, 2117.613
229.0233, 2155.859
229.5054, 2196.895
229.9875, 2240.042
230.4697, 2284.968
230.9518, 2332.109
231.4339, 2382.819
231.9160, 2436.330
232.3981, 2495.224
232.8802, 2566.127
233.3624, 2638.076
233.8445, 2700.778
234.3266, 2750.869
234.8087, 2795.941
235.2908, 2850.913
235.7729, 2926.995
236.2551, 2985.951
236.7372, 3021.146
237.2193, 3043.551
237.7014, 3059.038
238.1835, 3069.229
238.6656, 3074.267
239.1478, 3073.395
239.6299, 3064.880
240.1120, 3056.771
240.5941, 3049.207
241.0762, 3042.220
241.5583, 3038.002
242.0405, 3035.272
242.5226, 3028.899
243.0047, 3011.530
243.4868, 2981.567
243.9689, 2959.253
244.4510, 2936.524
244.9332, 2930.741
245.4153, 2956.083
245.8974, 3004.756
246.3795, 3056.576
246.8616, 3096.554
247.3437, 3126.797
247.8259, 3163.897
248.3080, 3209.931
248.7901, 3261.139
249.2722, 3318.312
249.7543, 3379.043
250.2364, 3439.307
250.7186, 3497.385
251.2007, 3553.698
251.6828, 3609.312
252.1649, 3663.167
252.6470, 3719.013
253.1291, 3787.137
253.6113, 3853.997
254.0934, 3904.771
254.5755, 3933.739
255.0576, 3946.198
255.5397, 3951.834
256.0219, 3953.311
256.5040, 3937.325
256.9861, 3888.198
257.4682, 3826.517
257.9503, 3764.678
258.4324, 3705.251
258.9146, 3646.274
259.3967, 3583.162
259.8788, 3515.304
260.3609, 3455.723
260.8430, 3413.526
261.3251, 3374.198
261.8073, 3325.084
262.2894, 3266.599
262.7715, 3210.634
263.2536, 3161.750
263.7357, 3121.040
264.2178, 3096.751
264.7000, 3095.888
265.1821, 3102.866
265.6642, 3106.013
266.1463, 3106.803
266.6284, 3110.265
267.1105, 3116.539
267.5927, 3127.483
268.0748, 3148.790
268.5569, 3183.168
269.0390, 3219.338
269.5211, 3247.128
270.0032, 3271.438
270.4854, 3301.426
270.9675, 3342.027
271.4496, 3387.135
271.9317, 3431.096
272.4138, 3474.022
272.8959, 3514.482
273.3781, 3551.708
273.8602, 3585.742
274.3423, 3617.870
274.8244, 3650.706
275.3065, 3677.003
275.7886, 3696.752
276.2708, 3707.375
276.7529, 3696.632
277.2350, 3656.175
277.7171, 3597.037
278.1992, 3536.797
278.6813, 3475.854
279.1635, 3413.156
279.6456, 3350.053
280.1277, 3284.647
280.6098, 3211.363
281.0919, 3127.275
281.5740, 3044.620
282.0562, 2979.953
282.5383, 2935.426
283.0204, 2885.599
283.5025, 2818.401
283.9846, 2750.639
284.4667, 2698.502
284.9489, 2662.674
285.4310, 2631.849
285.9131, 2597.478
286.3952, 2559.720
286.8773, 2524.038
287.3594, 2487.739
287.8416, 2455.807
288.3237, 2433.345
288.8058, 2417.409
289.2879, 2400.696
289.7700, 2379.227
290.2521, 2353.796
290.7343, 2328.009
291.2164, 2294.959
291.6985, 2269.940
292.1806, 2260.049
292.6627, 2257.757
293.1448, 2254.406
293.6270, 2246.895
294.1091, 2236.467
294.5912, 2225.401
295.0733, 2214.332
295.5554, 2201.085
296.0375, 2179.525
296.5197, 2160.397
297.0018, 2154.063
297.4839, 2159.898
297.9660, 2167.315
298.4481, 2164.475
298.9302, 2148.787
299.4124, 2140.999
299.8945, 2154.738
300.3766, 2162.573
300.8587, 2148.292
301.3408, 2120.669
301.8229, 2099.914
302.3050, 2100.660
302.7871, 2117.516
303.2693, 2122.430
303.7514, 2106.390
304.2335, 2091.075
304.7156, 2075.826
305.1977, 2065.686
305.6798, 2068.325
306.1620, 2086.957
306.6441, 2111.605
307.1262, 2123.929
307.6083, 2118.381
308.0904, 2121.064
308.5725, 2143.246
309.0547, 2170.618
309.5368, 2195.915
310.0189, 2218.210
310.5010, 2238.959
310.9831, 2256.549
311.4652, 2271.977
311.9474, 2297.758
312.4295, 2343.781
312.9116, 2386.935
313.3937, 2412.467
313.8758, 2424.428
314.3579, 2432.666
314.8401, 2440.578
315.3222, 2447.946
315.8043, 2456.106
316.2864, 2466.339
316.7685, 2469.633
317.2506, 2456.323
317.7328, 2434.269
318.2149, 2416.045
318.6970, 2402.475
319.1791, 2394.206
319.6612, 2393.395
320.1433, 2398.926
320.6255, 2405.466
321.1076, 2410.481
321.5897, 2416.909
322.0718, 2430.182
322.5539, 2450.549
323.0360, 2472.731
323.5182, 2495.888
324.0003, 2519.850
324.4824, 2543.972
324.9645, 2568.258
325.4466, 2594.465
325.9287, 2625.421
326.4109, 2661.781
326.8930, 2692.181
327.3751, 2710.191
327.8572, 2728.504
328.3393, 2752.051
328.8214, 2781.716
329.3036, 2819.052
329.7857, 2865.796
330.2678, 2919.850
330.7499, 2970.213
331.2320, 3006.154
331.7141, 3052.083
332.1963, 3119.489
332.6784, 3194.185
333.1605, 3260.496
333.6426, 3313.721
334.1247, 3361.064
334.6068, 3412.591
335.0890, 3466.142
335.5711, 3529.941
336.0532, 3612.569
336.5353, 3696.437
337.0174, 3771.027
337.4995, 3837.939
337.9817, 3906.384
338.4638, 3984.756
338.9459, 4071.080
339.4280, 4146.690
339.9101, 4200.634
340.3922, 4259.295
340.8744, 4335.162
341.3565, 4418.189
341.8386, 4495.446
342.3207, 4562.104
342.8028, 4622.758
343.2849, 4684.623
343.7671, 4748.581
344.2492, 4807.733
344.7313, 4853.799
345.2134, 4900.114
345.6955, 4958.198
346.1776, 5028.527
346.6598, 5101.694
347.1419, 5173.874
347.6240, 5244.276
348.1061, 5308.393
348.5882, 5361.878
349.0703, 5421.760
349.5525, 5509.884
350.0346, 5616.408
350.5167, 5711.571
350.9988, 5785.273
351.4809, 5850.064
351.9630, 5927.933
352.4452, 6011.308
352.9273, 6062.105
353.4094, 6064.285
353.8915, 6020.654
354.3736, 5931.552
354.8557, 5792.989
355.3379, 5631.922
355.8200, 5446.784
356.3021, 5245.707
356.7842, 5041.581
357.2663, 4835.940
357.7484, 4621.165
358.2306, 4384.247
358.7127, 4114.068
359.1948, 3884.195
359.6769, 3712.516
360.1590, 3557.489
360.6411, 3404.601
361.1233, 3253.612
361.6054, 3106.515
362.0875, 2962.799
362.5696, 2826.850
363.0517, 2714.262
363.5338, 2635.376
364.0160, 2565.258
364.4981, 2506.882
364.9802, 2451.198
365.4623, 2387.316
365.9444, 2314.548
366.4265, 2245.679
366.9087, 2197.276
367.3908, 2170.136
367.8729, 2144.299
368.3550, 2119.802
368.8371, 2095.583
369.3192, 2070.179
369.8014, 2044.472
370.2835, 2020.882
370.7656, 2001.892
371.2477, 1984.521
371.7298, 1962.218
372.2119, 1934.012
372.6941, 1910.994
373.1762, 1902.593
373.6583, 1899.310
374.1404, 1884.754
374.6225, 1853.790
375.1046, 1828.396
375.5868, 1824.098
376.0689, 1832.864
376.5510, 1840.399
377.0331, 1844.318
377.5152, 1842.793
377.9973, 1832.220
378.4795, 1811.407
378.9616, 1795.089
379.4437, 1785.032
379.9258, 1778.120
380.4079, 1772.561
380.8900, 1768.682
381.3722, 1767.532
381.8543, 1769.571
382.3364, 1775.048
382.8185, 1784.922
383.3006, 1801.406
383.7827, 1819.809
384.2649, 1840.780
384.7470, 1863.045
385.2291, 1884.846
385.7112, 1906.360
386.1933, 1930.648
386.6754, 1963.244
387.1576, 2005.104
387.6397, 2034.194
388.1218, 2041.457
388.6039, 2045.746
389.0860, 2056.128
389.5681, 2067.035
390.0503, 2068.194
390.5324, 2053.462
391.0145, 2032.448
391.4966, 2023.391
391.9787, 2028.777
392.4608, 2022.288
392.9430, 1991.557
393.4251, 1950.577
393.9072, 1910.397
394.3893, 1871.272
394.8714, 1839.067
395.3535, 1822.579
395.8357, 1812.832
396.3178, 1793.697
396.7999, 1763.404
397.2820, 1731.685
397.7641, 1704.863
398.2462, 1682.423
398.7284, 1659.960
399.2105, 1633.448
399.6926, 1611.587
400.1747, 1605.170
400.6568, 1603.954
401.1389, 1589.167
401.6211, 1554.452
402.1032, 1510.895
402.5853, 1474.142
403.0674, 1446.102
403.5495, 1420.142
404.0316, 1394.979
404.5138, 1372.499
404.9959, 1356.565
405.4780, 1344.120
405.9601, 1327.765
406.4422, 1302.230
406.9243, 1270.678
407.4065, 1244.372
407.8886, 1223.419
408.3707, 1207.903
408.8528, 1200.263
409.3349, 1195.871
409.8170, 1189.193
410.2992, 1180.024
410.7813, 1176.773
411.2634, 1193.132
411.7455, 1223.640
412.2276, 1236.672
412.7097, 1222.310
413.1919, 1209.355
413.6740, 1222.352
414.1561, 1250.720
414.6382, 1273.999
415.1203, 1285.494
415.6024, 1294.626
416.0846, 1305.514
416.5667, 1319.328
417.0488, 1341.244
417.5309, 1374.306
418.0130, 1411.012
418.4951, 1438.940
418.9773, 1452.490
419.4594, 1476.988
419.9415, 1521.012
420.4236, 1569.739
420.9057, 1614.434
421.3878, 1655.072
421.8700, 1694.625
422.3521, 1735.046
422.8342, 1776.449
423.3163, 1818.667
423.7984, 1856.118
424.2805, 1904.068
424.7627, 1973.855
425.2448, 2047.239
425.7269, 2108.533
426.2090, 2156.178
426.6911, 2199.638
427.1732, 2250.109
427.6554, 2306.525
428.1375, 2351.362
428.6196, 2383.166
429.1017, 2405.773
429.5838, 2422.129
430.0659, 2430.843
430.5481, 2428.309
431.0302, 2412.004
431.5123, 2387.941
431.9944, 2355.070
432.4765, 2317.536
432.9586, 2291.432
433.4408, 2282.441
433.9229, 2280.478
434.4050, 2273.081
434.8871, 2259.202
435.3692, 2252.901
435.8513, 2258.248
436.3335, 2268.438
436.8156, 2276.721
437.2977, 2286.335
437.7798, 2308.412
438.2619, 2349.633
438.7440, 2400.212
439.2262, 2433.331
439.7083, 2425.253
440.1904, 2442.686
440.6725, 2496.245
441.1546, 2564.735
441.6367, 2636.917
442.1189, 2711.267
442.6010, 2790.542
443.0831, 2876.266
443.5652, 2968.307
444.0473, 3066.587
444.5294, 3172.239
445.0116, 3281.119
445.4937, 3392.413
445.9758, 3506.961
446.4579, 3626.687
446.9400, 3751.734
447.4221, 3878.780
447.9043, 4002.585
448.3864, 4127.700
448.8685, 4265.843
449.3506, 4420.179
449.8327, 4573.139
450.3148, 4711.799
450.7970, 4837.128
451.2791, 4961.059
451.7612, 5101.996
452.2433, 5220.438
452.7254, 5299.547
453.2076, 5349.411
453.6897, 5385.525
454.1718, 5411.823
454.6539, 5417.268
455.1360, 5386.263
455.6181, 5314.877
456.1003, 5229.681
456.5824, 5133.669
457.0645, 5020.184
457.5466, 4873.818
458.0287, 4711.512
458.5108, 4560.798
458.9930, 4434.447
459.4751, 4316.903
459.9572, 4179.693
460.4393, 4022.769
460.9214, 3885.333
461.4035, 3780.359
461.8857, 3690.000
462.3678, 3595.590
462.8499, 3499.604
463.3320, 3416.238
463.8141, 3351.145
464.2962, 3298.376
464.7784, 3256.018
465.2605, 3222.312
465.7426, 3191.521
466.2247, 3161.479
466.7068, 3131.954
467.1889, 3102.609
467.6711, 3070.233
468.1532, 3045.447
468.6353, 3025.502
469.1174, 3015.242
469.5995, 3025.474
470.0816, 3048.713
470.5638, 3064.249
471.0459, 3057.719
471.5280, 3038.379
472.0101, 3034.831
472.4922, 3054.758
472.9743, 3069.573
473.4565, 3072.855
473.9386, 3069.049
474.4207, 3056.201
474.9028, 3036.226
475.3849, 3021.886
475.8670, 3028.576
476.3492, 3042.365
476.8313, 3035.000
477.3134, 3005.676
477.7955, 2983.332
478.2776, 2985.622
478.7597, 3001.400
479.2419, 3002.937
479.7240, 2985.195
480.2061, 2968.526
480.6882, 2953.202
481.1703, 2942.994
481.6524, 2947.480
482.1346, 2962.879
482.6167, 2969.959
483.0988, 2952.980
483.5809, 2917.170
484.0630, 2892.050
484.5451, 2890.013
485.0273, 2878.021
485.5094, 2847.709
485.9915, 2809.538
486.4736, 2774.298
486.9557, 2741.698
487.4378, 2700.111
487.9200, 2634.479
488.4021, 2553.104
488.8842, 2481.171
489.3663, 2419.904
489.8484, 2362.793
490.3305, 2307.514
490.8127, 2254.366
491.2948, 2204.362
491.7769, 2159.233
492.2590, 2112.016
492.7411, 2053.956
493.2232, 1996.597
493.7054, 1954.899
494.1875, 1929.207
494.6696, 1907.577
495.1517, 1880.549
495.6338, 1850.132
496.1159, 1828.881
496.5981, 1824.795
497.0802, 1819.169
497.5623, 1806.897
498.0444, 1794.604
498.5265, 1785.311
499.0086, 1780.802
499.4908, 1785.544
499.9729, 1809.027
500.4550, 1844.524
500.9371, 1863.577
501.4192, 1861.432
501.9013, 1862.898
502.3835, 1878.330
502.8656, 1904.351
503.3477, 1935.025
503.8298, 1970.822
504.3119, 2008.430
504.7940, 2051.516
505.2762, 2092.862
505.7583, 2121.066
506.2404, 2137.089
506.7225, 2152.686
507.2046, 2176.030
507.6867, 2205.006
508.1689, 2230.534
508.6510, 2260.975
509.1331, 2274.666
509.6152, 2255.903
510.0973, 2232.099
510.5794, 2227.966
511.0616, 2240.358
511.5437, 2244.559
512.0258, 2219.736
512.5079, 2176.008
512.9901, 2140.559
513.4722, 2114.815
513.9543, 2089.799
514.4364, 2060.223
514.9185, 2032.029
515.4006, 2012.974
515.8828, 2003.500
516.3649, 1996.196
516.8470, 1991.535
517.3291, 1986.040
517.8112, 1973.596
518.2933, 1956.609
518.7755, 1945.073
519.2576, 1944.699
519.7397, 1951.300
520.2218, 1955.458
520.7039, 1960.032
521.1860, 1956.246
521.6682, 1940.422
522.1503, 1920.810
522.6324, 1900.801
523.1145, 1880.626
523.5966, 1859.438
524.0787, 1835.595
524.5609, 1812.882
525.0430, 1799.321
525.5251, 1794.838
526.0072, 1787.209
526.4893, 1772.877
526.9714, 1755.588
527.4536, 1738.794
527.9357, 1722.411
528.4178, 1706.276
528.8999, 1691.678
529.3820, 1675.995
529.8641, 1656.284
530.3463, 1634.592
530.8284, 1616.834
531.3105, 1604.682
531.7926, 1590.757
532.2747, 1563.859
532.7568, 1521.147
533.2390, 1482.555
533.7211, 1452.045
534.2032, 1421.008
534.6853, 1387.032
535.1674, 1350.960
535.6495, 1312.842
536.1317, 1272.096
536.6138, 1233.576
537.0959, 1202.234
537.5780, 1176.808
538.0601, 1153.042
538.5422, 1130.285
539.0244, 1111.454
539.5065, 1099.585
539.9886, 1093.523
540.4707, 1087.474
540.9528, 1081.103
541.4349, 1075.121
541.9171, 1069.799
542.3992, 1064.850
542.8813, 1059.957
543.3634, 1055.105
543.8455, 1050.329
544.3276, 1045.316
544.8098, 1040.722
545.2919, 1039.134
545.7740, 1040.007
546.2561, 1045.492
546.7382, 1063.161
547.2203, 1080.366
547.7024, 1084.845
548.1845, 1077.568
548.6666, 1073.851
549.1487, 1081.200
549.6309, 1094.829
550.1130, 1111.836
550.5951, 1131.032
551.0772, 1146.667
551.5593, 1155.880
552.0414, 1164.332
552.5236, 1181.505
553.0057, 1210.343
553.4878, 1238.362
553.9699, 1261.856
554.4520, 1288.717
554.9341, 1321.383
555.4163, 1359.748
555.8984, 1403.566
556.3805, 1452.989
556.8626, 1506.440
557.3447, 1561.424
557.8268, 1618.437
558.3090, 1681.648
558.7911, 1751.759
559.2732, 1827.027
559.7553, 1906.108
560.2374, 1990.080
560.7195, 2080.250
561.2017, 2180.785
561.6838, 2280.659
562.1659, 2368.900
562.6480, 2459.296
563.1301, 2571.371
563.6122, 2703.315
564.0944, 2833.549
564.5765, 2945.104
565.0586, 3047.891
565.5407, 3182.668
566.0228, 3354.983
566.5049, 3545.007
566.9871, 3764.895
567.4692, 3990.609
567.9513, 4194.709
568.4334, 4387.388
568.9155, 4616.089
569.3976, 4926.089
569.8798, 5259.545
570.3619, 5571.270
570.8440, 5860.146
571.3261, 6132.231
571.8082, 6392.898
572.2903, 6603.087
572.7725, 6717.439
573.2546, 6735.220
573.7367, 6663.011
574.2188, 6498.106
574.7009, 6250.273
575.1830, 5879.916
575.6652, 5449.864
576.1473, 5015.075
576.6294, 4591.398
577.1115, 4188.026
577.5936, 3804.013
578.0757, 3446.440
578.5579, 3141.012
579.0400, 2890.159
579.5221, 2677.786
580.0042, 2503.217
580.4863, 2358.388
580.9684, 2231.316
581.4506, 2120.733
581.9327, 2025.612
582.4148, 1947.748
582.8969, 1884.606
583.3790, 1837.401
583.8611, 1803.498
584.3433, 1777.370
584.8254, 1756.777
585.3075, 1742.818
585.7896, 1738.178
586.2717, 1743.487
586.7538, 1750.880
587.2360, 1759.307
587.7181, 1771.090
588.2002, 1787.332
588.6823, 1807.851
589.1644, 1833.177
589.6465, 1864.722
590.1287, 1897.790
590.6108, 1929.550
591.0929, 1961.962
591.5750, 1998.801
592.0571, 2039.309
592.5392, 2077.580
593.0214, 2109.220
593.5035, 2136.792
593.9856, 2169.440
594.4677, 2211.605
594.9498, 2247.902
595.4319, 2267.828
595.9141, 2289.830
596.3962, 2328.226
596.8783, 2375.865
597.3604, 2413.383
597.8425, 2429.961
598.3246, 2441.138
598.8068, 2457.996
599.2889, 2480.728
599.7710, 2510.051
600.2531, 2546.230
600.7352, 2588.327
601.2173, 2636.280
601.6995, 2689.444
602.1816, 2742.736
602.6637, 2808.259
603.1458, 2856.518
603.6279, 2870.358
604.1100, 2878.217
604.5922, 2907.055
605.0743, 2951.633
605.5564, 2982.606
606.0385, 2979.939
606.5206, 2959.183
607.0027, 2946.839
607.4849, 2939.902
607.9670, 2913.595
608.4491, 2859.804
608.9312, 2792.059
609.4133, 2722.324
609.8954, 2650.475
610.3776, 2577.404
610.8597, 2503.530
611.3418, 2428.390
611.8239, 2352.382
612.3060, 2274.547
612.7881, 2194.060
613.2703, 2111.153
613.7524, 2027.677
614.2345, 1942.522
614.7166, 1859.860
615.1987, 1791.531
615.6808, 1738.058
616.1630, 1687.138
616.6451, 1635.420
617.1272, 1585.177
617.6093, 1538.526
618.0914, 1495.446
618.5735, 1457.655
619.0557, 1428.190
619.5378, 1400.655
620.0199, 1376.380
620.5020, 1350.764
620.9841, 1317.121
621.4662, 1274.932
621.9484, 1230.006
622.4305, 1185.942
622.9126, 1143.967
623.3947, 1111.137
623.8768, 1089.279
624.3589, 1065.487
624.8411, 1033.267
625.3232, 1000.436
625.8053, 978.7515
626.2874, 967.4233
626.7695, 951.4598
627.2516, 921.6053
627.7338, 894.5287
628.2159, 880.9629
628.6980, 874.7305
629.1801, 867.1891
629.6622, 856.1287
630.1443, 843.5130
630.6265, 829.7152
631.1086, 816.2867
631.5907, 813.8112
632.0728, 826.3438
632.5549, 833.5453
633.0370, 824.9838
633.5192, 812.6378
634.0013, 811.7692
634.4834, 821.5804
634.9655, 825.6013
635.4476, 816.2069
635.9297, 804.8167
636.4119, 796.5681
636.8940, 790.9914
637.3761, 786.4133
637.8582, 782.7357
638.3403, 782.7316
638.8224, 790.8370
639.3046, 804.7363
639.7867, 807.7930
640.2688, 794.5873
640.7509, 790.3753
641.2330, 809.1169
641.7151, 833.3317
642.1973, 843.5880
642.6794, 841.2101
643.1615, 842.3904
643.6436, 856.3252
644.1257, 868.3749
644.6078, 865.9666
645.0900, 858.2710
645.5721, 859.2266
646.0542, 871.7101
646.5363, 890.0851
647.0184, 910.2079
647.5005, 931.0975
647.9827, 947.0742
648.4648, 955.8979
648.9469, 968.6457
649.4290, 990.6356
649.9111, 1014.776
650.3932, 1034.353
650.8754, 1049.940
651.3575, 1065.965
651.8396, 1080.227
652.3217, 1098.493
652.8038, 1125.687
653.2859, 1157.536
653.7681, 1190.650
654.2502, 1222.974
654.7323, 1249.563
655.2144, 1265.615
655.6965, 1273.979
656.1786, 1284.291
656.6608, 1297.503
657.1429, 1307.110
657.6250, 1313.125
658.1071, 1313.178
658.5892, 1303.043
659.0714, 1284.501
659.5535, 1265.054
660.0356, 1245.126
660.5177, 1224.625
660.9998, 1202.224
661.4819, 1180.073
661.9641, 1160.062
662.4462, 1142.521
662.9283, 1127.120
663.4104, 1113.945
663.8925, 1101.915
664.3746, 1088.614
664.8568, 1074.001
665.3389, 1058.696
665.8210, 1040.792
666.3031, 1027.138
666.7852, 1026.692
667.2673, 1034.848
667.7495, 1031.307
668.2316, 1007.100
668.7137, 985.9463
669.1958, 973.4760
669.6779, 964.8607
670.1600, 955.9791
670.6422, 947.4572
671.1243, 942.9869
671.6064, 944.8718
672.0885, 947.7502
672.5706, 942.7637
673.0527, 931.2903
673.5349, 923.3999
674.0170, 920.2941
674.4991, 919.0662
674.9812, 917.7244
675.4633, 917.3034
675.9454, 920.8555
676.4276, 931.7269
676.9097, 939.2616
677.3918, 941.4019
677.8739, 941.9772
678.3560, 940.8854
678.8381, 940.2772
679.3203, 942.8188
679.8024, 949.3568
680.2845, 960.2676
680.7666, 980.4149
681.2487, 1004.021
681.7308, 1014.928
682.2130, 1013.224
682.6951, 1013.905
683.1772, 1024.048
683.6593, 1037.422
684.1414, 1043.484
684.6235, 1039.161
685.1057, 1043.767
685.5878, 1071.181
686.0699, 1090.933
686.5520, 1090.994
687.0341, 1082.695
687.5162, 1075.793
687.9984, 1072.305
688.4805, 1073.949
688.9626, 1088.093
689.4447, 1102.980
689.9268, 1101.239
690.4089, 1089.078
690.8911, 1086.662
691.3732, 1099.242
691.8553, 1113.078
692.3374, 1113.567
692.8195, 1102.801
693.3016, 1099.208
693.7838, 1104.339
694.2659, 1113.353
694.7480, 1130.728
695.2301, 1146.930
695.7122, 1154.999
696.1943, 1156.334
696.6765, 1156.528
697.1586, 1156.266
697.6407, 1156.193
698.1228, 1157.492
698.6049, 1158.697
699.0870, 1157.198
699.5692, 1153.486
700.0513, 1151.399
700.5334, 1153.739
701.0155, 1156.650
701.4976, 1150.836
701.9797, 1135.700
702.4619, 1125.389
702.9440, 1124.606
703.4261, 1119.536
703.9082, 1098.943
704.3903, 1069.695
704.8724, 1048.199
705.3546, 1036.484
705.8367, 1025.972
706.3188, 1020.991
706.8009, 1011.346
707.2830, 987.6459
707.7651, 956.1367
708.2473, 927.4344
708.7294, 904.6866
709.2115, 884.1870
709.6936, 862.3489
710.1757, 840.0631
710.6578, 820.1352
711.1400, 802.4172
711.6221, 783.1814
712.1042, 760.4836
712.5863, 738.3514
713.0684, 721.5756
713.5505, 710.2310
714.0327, 702.8564
714.5148, 708.5332
714.9969, 705.6005
715.4790, 680.7310
715.9611, 653.9451
716.4432, 643.1444
716.9254, 646.2864
717.4075, 647.8518
717.8896, 640.5323
718.3717, 631.1066
718.8538, 625.3705
719.3359, 621.0369
719.8181, 613.8417
720.3002, 603.5748
720.7823, 592.7319
721.2644, 582.7614
721.7465, 574.4562
722.2286, 570.6950
722.7108, 572.5932
723.1929, 571.1837
723.6750, 564.8336
724.1571, 556.8931
724.6392, 546.5351
725.1213, 536.9817
725.6035, 535.4948
726.0856, 545.4763
726.5677, 551.6895
727.0498, 548.0839
727.5319, 543.3289
728.0140, 543.7916
728.4962, 546.1683
728.9783, 543.5063
729.4604, 534.5272
729.9425, 526.5888
730.4246, 528.0176
730.9067, 534.5622
731.3889, 536.2662
731.8710, 533.6422
732.3531, 532.1087
732.8352, 533.6232
733.3173, 533.6508
733.7994, 526.1757
734.2816, 512.4072
734.7637, 508.5717
735.2458, 524.2335
735.7279, 533.7962
736.2100, 529.8049
736.6921, 523.3926
737.1743, 521.2780
737.6564, 522.3154
738.1385, 522.5287
738.6206, 520.8163
739.1027, 518.2280
739.5848, 515.2676
740.0670, 511.8042
740.5491, 507.0411
741.0312, 501.6157
741.5133, 497.4012
741.9954, 495.3102
742.4775, 494.7151
742.9597, 495.9430
743.4418, 498.5791
743.9239, 495.8983
744.4060, 486.5752
744.8881, 478.7083
745.3702, 475.2538
745.8524, 474.9165
746.3345, 476.3758
746.8166, 479.8930
747.2987, 482.8452
747.7808, 484.9959
748.2629, 486.9528
748.7451, 490.1352
749.2272, 492.2475
749.7093, 490.0612
750.1914, 484.6073
750.6735, 480.8921
751.1556, 482.4732
751.6378, 484.3424
752.1199, 480.2248
752.6020, 473.6926
753.0841, 471.7391
753.5662, 474.8085
754.0483, 479.9222
754.5305, 485.6351
755.0126, 490.1653
755.4947, 489.1982
755.9768, 481.9221
756.4589, 476.6092
756.9410, 473.3024
757.4232, 472.3505
757.9053, 475.3411
758.3874, 479.6979
758.8695, 480.7830
759.3516, 478.0147
759.8337, 478.3482
760.3159, 484.6669
760.7980, 491.3974
761.2801, 500.7769
761.7622, 506.6976
762.2443, 499.1251
762.7264, 480.4073
763.2086, 465.8688
763.6907, 464.9848
764.1728, 470.6190
764.6549, 476.5862
765.1370, 482.2817
765.6191, 486.3507
766.1013, 488.5667
766.5834, 488.8837
767.0655, 487.1287
767.5476, 484.1016
768.0297, 481.2772
768.5118, 478.4573
768.9940, 477.2950
769.4761, 478.7422
769.9582, 479.8834
770.4403, 479.4763
770.9224, 478.0570
771.4045, 476.3227
771.8867, 474.2693
772.3688, 472.1028
772.8509, 467.7227
773.3330, 465.8025
773.8151, 469.9754
774.2972, 476.3014
774.7794, 481.7143
775.2615, 485.1930
775.7436, 484.9541
776.2257, 477.5323
776.7078, 471.3065
777.1899, 480.2160
777.6721, 496.3969
778.1542, 500.1194
778.6363, 490.4182
779.1184, 479.7658
779.6005, 474.8746
780.0826, 475.0601
780.5648, 481.0378
781.0469, 494.1941
781.5290, 498.1432
782.0111, 489.3932
782.4932, 480.4654
782.9753, 474.0571
783.4575, 471.7118
783.9396, 478.6037
784.4217, 495.1628
784.9038, 501.6533
785.3859, 486.2270
785.8680, 474.8896
786.3502, 477.3760
786.8323, 484.6131
787.3144, 489.1936
787.7965, 491.1651
788.2786, 494.2505
788.7607, 500.9114
789.2429, 506.1643
789.7250, 503.9191
790.2071, 498.5432
790.6892, 496.8318
791.1713, 498.8074
791.6534, 501.8992
792.1356, 505.0210
792.6177, 508.0672
793.0998, 510.4344
793.5819, 512.4385
794.0640, 518.7675
794.5461, 531.1162
795.0283, 536.2885
795.5104, 527.5982
795.9925, 516.7457
796.4746, 515.3859
796.9567, 522.5769
797.4388, 528.1945
797.9210, 533.4409
798.4031, 535.2482
798.8852, 527.4302
799.3673, 522.1328
799.8494, 528.9869
800.3315, 542.6112
800.8137, 552.6209
801.2958, 556.4279
801.7779, 558.0090
802.2600, 558.7955
802.7421, 558.7069
803.2242, 556.6829
803.7064, 554.0378
804.1885, 553.4944
804.6706, 555.5106
805.1527, 557.8541
805.6348, 558.5416
806.1169, 558.4581
806.5991, 558.9558
807.0812, 560.2357
807.5633, 564.2045
808.0454, 571.3242
808.5275, 579.2542
809.0096, 586.8182
809.4918, 593.4276
809.9739, 597.0593
810.4560, 596.1813
810.9381, 598.3776
811.4202, 607.8950
811.9023, 613.4871
812.3845, 604.6685
812.8666, 593.8134
813.3487, 597.8296
813.8308, 616.7004
814.3129, 627.8762
814.7950, 618.0433
815.2772, 612.7825
815.7593, 626.3384
816.2414, 643.9106
816.7235, 649.8999
817.2056, 647.4623
817.6877, 651.2611
818.1699, 668.8837
818.6520, 687.1110
819.1341, 693.3550
819.6162, 693.9029
820.0983, 699.4174
820.5804, 708.4204
821.0626, 712.3782
821.5447, 708.4910
822.0268, 703.0060
822.5089, 701.8564
822.9910, 705.3563
823.4731, 716.8298
823.9553, 736.9671
824.4374, 752.2002
824.9195, 759.2600
825.4016, 762.5034
825.8837, 763.7094
826.3658, 764.7405
826.8480, 772.4865
827.3301, 793.2708
827.8122, 806.0626
828.2943, 803.1951
828.7764, 801.6988
829.2585, 810.6454
829.7407, 822.4830
830.2228, 827.3847
830.7049, 824.8385
831.1870, 824.1045
831.6691, 828.7264
832.1512, 833.9551
832.6334, 840.9476
833.1155, 845.2137
833.5976, 836.8718
834.0797, 821.5530
834.5618, 818.3488
835.0439, 837.3289
835.5261, 861.3975
836.0082, 876.3053
836.4903, 885.2147
836.9724, 893.0221
837.4545, 899.7250
837.9366, 903.1213
838.4188, 902.6955
838.9009, 902.5664
839.3830, 907.6298
839.8651, 915.9625
840.3472, 918.3080
840.8293, 914.3732
841.3115, 922.1581
841.7936, 947.7592
842.2757, 970.5844
842.7578, 975.5770
843.2399, 969.7681
843.7220, 971.2125
844.2042, 982.8835
844.6863, 991.7974
845.1684, 995.3055
845.6505, 999.9906
846.1326, 1007.821
846.6147, 1018.064
847.0969, 1030.142
847.5790, 1044.041
848.0611, 1059.733
848.5432, 1079.957
849.0253, 1098.362
849.5074, 1109.973
849.9896, 1122.046
850.4717, 1141.348
850.9538, 1165.479
851.4359, 1188.571
851.9180, 1209.023
852.4001, 1227.111
852.8823, 1241.052
853.3644, 1254.616
853.8465, 1271.711
854.3286, 1291.700
854.8107, 1313.091
855.2928, 1335.586
855.7750, 1359.918
856.2571, 1387.147
856.7392, 1414.720
857.2213, 1435.630
857.7034, 1452.568
858.1855, 1477.810
858.6677, 1512.498
859.1498, 1553.900
859.6319, 1601.523
860.1140, 1650.627
860.5961, 1694.341
861.0782, 1732.743
861.5604, 1775.395
862.0425, 1824.638
862.5246, 1868.045
863.0067, 1898.601
863.4888, 1932.014
863.9709, 1982.376
864.4531, 2045.079
864.9352, 2102.355
865.4173, 2148.378
865.8994, 2201.589
866.3815, 2267.221
866.8636, 2333.863
867.3458, 2393.535
867.8279, 2454.781
868.3100, 2532.010
868.7921, 2623.860
869.2742, 2702.373
869.7563, 2750.280
870.2385, 2796.272
870.7206, 2849.956
871.2027, 2907.220
871.6848, 2966.197
872.1669, 3025.036
872.6490, 3083.389
873.1312, 3141.755
873.6133, 3186.248
874.0954, 3198.943
874.5775, 3199.385
875.0596, 3200.987
875.5417, 3210.225
876.0239, 3245.649
876.5060, 3305.252
876.9881, 3358.544
877.4702, 3384.089
877.9523, 3395.899
878.4344, 3412.386
878.9166, 3434.249
879.3987, 3468.495
879.8808, 3513.698
880.3629, 3548.937
880.8450, 3565.161
881.3271, 3574.521
881.8093, 3591.926
882.2914, 3615.021
882.7735, 3629.985
883.2556, 3637.271
883.7377, 3629.125
884.2198, 3597.062
884.7020, 3574.578
885.1841, 3588.776
885.6662, 3620.430
886.1483, 3626.178
886.6304, 3598.121
887.1125, 3579.519
887.5947, 3570.426
888.0768, 3570.919
888.5589, 3584.788
889.0410, 3605.052
889.5231, 3630.849
890.0052, 3658.806
890.4874, 3672.673
890.9695, 3652.546
891.4516, 3652.320
891.9337, 3697.438
892.4158, 3744.481
892.8979, 3768.368
893.3801, 3781.552
893.8622, 3800.890
894.3443, 3828.889
894.8264, 3861.326
895.3085, 3902.283
895.7906, 3940.061
896.2728, 3973.637
896.7549, 3997.130
897.2370, 3997.234
897.7191, 3982.826
898.2012, 3978.547
898.6833, 3993.319
899.1655, 4004.819
899.6476, 3987.079
900.1297, 3962.671
900.6118, 3959.865
901.0939, 3972.036
901.5760, 3987.556
902.0582, 4002.147
902.5403, 4007.425
903.0224, 3995.969
903.5045, 3986.291
903.9866, 4007.048
904.4688, 4051.521
904.9509, 4100.994
905.4330, 4153.905
905.9151, 4204.951
906.3972, 4252.402
906.8793, 4303.150
907.3615, 4364.475
907.8436, 4433.088
908.3257, 4498.445
908.8078, 4560.396
909.2899, 4624.674
909.7720, 4691.826
910.2542, 4761.518
910.7363, 4834.729
911.2184, 4906.161
911.7005, 4969.872
912.1826, 5025.652
912.6647, 5060.999
913.1469, 5070.033
913.6290, 5079.006
914.1111, 5100.366
914.5932, 5107.052
915.0753, 5078.056
915.5574, 5024.251
916.0396, 4972.112
916.5217, 4929.902
917.0038, 4856.932
917.4859, 4713.394
917.9680, 4595.699
918.4501, 4551.192
918.9323, 4518.482
919.4144, 4452.226
919.8965, 4357.287
920.3786, 4252.671
920.8607, 4127.012
921.3428, 4019.347
921.8250, 3944.792
922.3071, 3878.290
922.7892, 3812.982
923.2713, 3745.840
923.7534, 3669.664
924.2355, 3587.272
924.7177, 3521.572
925.1998, 3497.991
925.6819, 3460.917
926.1640, 3370.380
926.6461, 3273.981
927.1282, 3211.205
927.6104, 3170.023
928.0925, 3125.602
928.5746, 3072.539
929.0567, 3019.181
929.5388, 2967.187
930.0209, 2920.128
930.5031, 2890.773
930.9852, 2860.791
931.4673, 2799.910
931.9494, 2717.819
932.4315, 2650.217
932.9136, 2609.302
933.3958, 2568.599
933.8779, 2496.749
934.3600, 2419.364
934.8421, 2378.154
935.3242, 2354.135
935.8063, 2306.681
936.2885, 2234.204
936.7706, 2161.882
937.2527, 2103.321
937.7348, 2048.765
938.2169, 1983.149
938.6990, 1913.616
939.1812, 1859.449
939.6633, 1816.445
940.1454, 1766.463
940.6275, 1705.709
941.1096, 1641.814
941.5917, 1578.816
942.0739, 1522.524
942.5560, 1488.186
943.0381, 1470.630
943.5202, 1440.899
944.0023, 1399.154
944.4844, 1363.164
944.9666, 1338.535
945.4487, 1315.556
945.9308, 1285.055
946.4129, 1251.134
946.8950, 1226.327
947.3771, 1210.531
947.8593, 1190.358
948.3414, 1164.495
948.8235, 1138.225
949.3056, 1112.174
949.7877, 1094.518
950.2698, 1097.345
950.7520, 1114.640
951.2341, 1111.864
951.7162, 1084.572
952.1983, 1067.278
952.6804, 1066.251
953.1625, 1063.381
953.6447, 1048.195
954.1268, 1031.538
954.6089, 1028.838
955.0910, 1039.322
955.5731, 1045.726
956.0552, 1047.999
956.5374, 1045.816
957.0195, 1036.743
957.5016, 1027.984
957.9837, 1022.760
958.4658, 1020.922
958.9479, 1023.300
959.4301, 1030.593
959.9122, 1031.493
960.3943, 1018.177
960.8764, 1014.474
961.3585, 1029.604
961.8406, 1047.353
962.3228, 1060.378
962.8049, 1068.072
963.2870, 1068.109
963.7691, 1058.288
964.2512, 1052.567
964.7333, 1051.015
965.2155, 1053.475
965.6976, 1064.091
966.1797, 1074.677
966.6618, 1078.524
967.1439, 1078.870
967.6260, 1083.098
968.1082, 1092.064
968.5903, 1102.156
969.0724, 1116.210
969.5545, 1127.394
970.0366, 1128.371
970.5187, 1130.974
971.0009, 1146.591
971.4830, 1170.685
971.9651, 1189.651
972.4472, 1198.849
972.9293, 1215.196
973.4114, 1246.188
973.8936, 1278.291
974.3757, 1305.795
974.8578, 1333.142
975.3399, 1361.237
975.8220, 1392.737
976.3041, 1435.574
976.7863, 1496.329
977.2684, 1550.364
977.7505, 1580.755
978.2326, 1616.999
978.7147, 1678.620
979.1968, 1746.908
979.6790, 1801.970
980.1611, 1846.517
980.6432, 1896.585
981.1253, 1958.278
981.6074, 2016.647
982.0895, 2062.253
982.5717, 2109.246
983.0538, 2174.277
983.5359, 2238.285
984.0180, 2279.389
984.5001, 2299.582
984.9822, 2314.948
985.4644, 2332.124
985.9465, 2337.458
986.4286, 2328.037
986.9107, 2303.171
987.3928, 2260.636
987.8749, 2203.694
988.3571, 2131.226
988.8392, 2047.771
989.3213, 1968.665
989.8034, 1900.326
990.2855, 1831.531
990.7676, 1758.328
991.2498, 1682.890
991.7319, 1596.992
992.2140, 1516.186
992.6961, 1465.999
993.1782, 1439.802
993.6603, 1397.998
994.1425, 1319.925
994.6246, 1248.063
995.1067, 1207.118
995.5888, 1172.479
996.0709, 1125.209
996.5530, 1076.006
997.0352, 1039.834
997.5173, 1016.229
997.9994, 994.8473
998.4815, 973.1398
998.9636, 950.2770
999.4457, 923.3219
999.9279, 897.6236
1000.410, 877.4415
1000.892, 860.6310
1001.374, 844.7079
1001.856, 829.2663
1002.338, 814.6509
1002.821, 800.6138
1003.303, 788.4971
1003.785, 780.7248
1004.267, 773.0551
1004.749, 763.2742
1005.231, 751.4995
1005.713, 735.9309
1006.195, 718.6128
1006.677, 707.0924
1007.160, 705.8250
1007.642, 704.2551
1008.124, 694.2454
1008.606, 686.0320
1009.088, 690.0575
1009.570, 697.1411
1010.052, 694.8662
1010.534, 684.5961
1011.017, 676.8625
1011.499, 675.5080
1011.981, 674.4467
1012.463, 670.5154
1012.945, 666.6837
1013.427, 662.2695
1013.909, 660.7607
1014.391, 669.3110
1014.873, 684.2369
1015.356, 691.7598
1015.838, 685.6089
1016.320, 682.7643
1016.802, 693.0192
1017.284, 704.4008
1017.766, 710.0247
1018.248, 713.7925
1018.730, 720.6643
1019.213, 729.3997
1019.695, 734.0250
1020.177, 731.1274
1020.659, 734.5961
1021.141, 754.0798
1021.623, 774.6071
1022.105, 786.1487
1022.587, 798.3064
1023.069, 824.0214
1023.552, 857.1053
1024.034, 880.3504
1024.516, 889.2756
1024.998, 896.7447
1025.480, 900.3619
1025.962, 910.4881
1026.444, 937.6406
1026.926, 966.6192
1027.409, 984.9655
1027.891, 995.6591
1028.373, 1006.879
1028.855, 1020.020
1029.337, 1030.292
1029.819, 1033.448
1030.301, 1038.313
1030.783, 1055.167
1031.266, 1066.583
1031.748, 1057.546
1032.230, 1036.192
1032.712, 1016.772
1033.194, 1000.406
1033.676, 984.7902
1034.158, 967.4800
1034.640, 954.2643
1035.122, 951.5422
1035.604, 947.1949
1036.087, 931.6011
1036.569, 911.8283
1037.051, 898.7999
1037.533, 892.8276
1038.015, 886.3400
1038.497, 875.8762
1038.979, 870.4302
1039.461, 874.1907
1039.944, 878.3059
1040.426, 880.1484
1040.908, 879.3210
1041.390, 874.4602
1041.872, 866.0506
1042.354, 859.2934
1042.836, 853.7748
1043.318, 851.0817
1043.800, 852.8109
1044.283, 854.7634
1044.765, 857.3254
1045.247, 856.5480
1045.729, 846.5917
1046.211, 830.3130
1046.693, 820.9415
1047.175, 819.6686
1047.657, 821.9077
1048.140, 830.3787
1048.622, 834.0706
1049.104, 829.1619
1049.586, 819.0573
1050.068, 804.0261
1050.550, 789.4290
1051.032, 792.7763
1051.514, 817.5535
1051.996, 823.5418
1052.479, 807.2783
1052.961, 794.2686
1053.443, 791.3208
1053.925, 787.3998
1054.407, 774.5353
1054.889, 757.7527
1055.371, 745.9097
1055.853, 738.7637
1056.335, 732.3818
1056.818, 726.7493
1057.300, 729.9052
1057.782, 743.3801
1058.264, 749.8265
1058.746, 739.6984
1059.228, 723.6788
1059.710, 715.8955
1060.192, 713.5780
1060.675, 706.1012
1061.157, 695.1656
1061.639, 691.5919
1062.121, 695.5137
1062.603, 696.7109
1063.085, 691.4326
1063.567, 688.4336
1064.049, 698.2635
1064.531, 711.2549
1065.014, 705.6494
1065.496, 690.6932
1065.978, 692.2084
1066.460, 705.9280
1066.942, 708.5471
1067.424, 695.7012
1067.906, 685.1451
1068.388, 688.7828
1068.870, 700.4177
1069.353, 719.2229
1069.835, 737.0029
1070.317, 737.3809
1070.799, 729.8145
1071.281, 735.1443
1071.763, 753.7941
1072.245, 770.2139
1072.727, 776.9358
1073.210, 784.4063
1073.692, 803.6846
1074.174, 823.2612
1074.656, 831.2437
1075.138, 835.6324
1075.620, 847.3703
1076.102, 864.3732
1076.584, 877.2896
1077.067, 883.4678
1077.549, 892.6837
1078.031, 912.0547
1078.513, 931.5280
1078.995, 944.4293
1079.477, 957.7551
1079.959, 977.7672
1080.441, 1001.672
1080.923, 1024.595
1081.406, 1045.947
1081.888, 1067.801
1082.370, 1089.968
1082.852, 1113.712
1083.334, 1132.611
1083.816, 1160.952
1084.298, 1215.775
1084.780, 1275.269
1085.262, 1314.738
1085.745, 1337.410
1086.227, 1358.285
1086.709, 1368.554
1087.191, 1401.685
1087.673, 1472.639
1088.155, 1535.946
1088.637, 1578.589
1089.119, 1611.749
1089.602, 1637.682
1090.084, 1667.579
1090.566, 1731.543
1091.048, 1832.069
1091.530, 1888.923
1092.012, 1894.710
1092.494, 1902.840
1092.976, 1923.167
1093.458, 1937.030
1093.941, 1934.676
1094.423, 1923.835
1094.905, 1915.455
1095.387, 1905.461
1095.869, 1881.118
1096.351, 1841.880
1096.833, 1777.393
1097.315, 1690.261
1097.797, 1610.063
1098.280, 1546.245
1098.762, 1486.968
1099.244, 1423.407
1099.726, 1358.386
1100.208, 1293.283
1100.690, 1231.457
1101.172, 1181.888
1101.654, 1140.930
1102.137, 1098.661
1102.619, 1054.344
1103.101, 1012.056
1103.583, 973.8675
1104.065, 941.5215
1104.547, 918.9073
1105.029, 900.4987
1105.511, 879.7086
1105.994, 861.3694
1106.476, 856.4689
1106.958, 857.3560
1107.440, 844.3231
1107.922, 814.2178
1108.404, 789.6874
1108.886, 783.1002
1109.368, 778.9056
1109.850, 775.3366
1110.333, 767.9976
1110.815, 748.5336
1111.297, 727.7139
1111.779, 720.5551
1112.261, 724.7900
1112.743, 724.4706
1113.225, 715.5879
1113.707, 708.8438
1114.189, 708.6396
1114.672, 703.9322
1115.154, 687.8751
1115.636, 672.8160
1116.118, 667.4122
1116.600, 668.0657
1117.082, 668.7291
1117.564, 669.4125
1118.046, 665.5178
1118.529, 655.0937
1119.011, 653.0198
1119.493, 663.2801
1119.975, 665.7152
1120.457, 650.6396
1120.939, 633.1311
1121.421, 629.2078
1121.903, 633.2430
1122.385, 630.7217
1122.868, 622.9973
1123.350, 616.4443
1123.832, 611.4742
1124.314, 608.4675
1124.796, 607.4013
1125.278, 607.3638
1125.760, 607.8441
1126.242, 608.9902
1126.724, 613.2969
1127.207, 616.3544
1127.689, 610.0997
1128.171, 599.5635
1128.653, 592.1782
1129.135, 587.9818
1129.617, 584.5832
1130.099, 581.2665
1130.581, 577.9744
1131.064, 571.3773
1131.546, 570.6966
1132.028, 588.4924
1132.510, 605.2287
1132.992, 606.5806
1133.474, 599.9704
1133.956, 592.5021
1134.438, 585.9061
1134.921, 583.6412
1135.403, 588.3920
1135.885, 589.6633
1136.367, 584.0630
1136.849, 578.6982
1137.331, 574.6993
1137.813, 571.1841
1138.295, 566.8880
1138.777, 563.7440
1139.260, 565.0539
1139.742, 570.2332
1140.224, 573.9545
1140.706, 576.2616
1141.188, 575.8563
1141.670, 572.0448
1142.152, 573.3470
1142.634, 582.8173
1143.116, 592.0268
1143.599, 594.2556
1144.081, 593.3030
1144.563, 596.7247
1145.045, 602.0570
1145.527, 600.1361
1146.009, 593.8592
1146.491, 593.8372
1146.973, 599.2733
1147.456, 599.4034
1147.938, 590.7159
1148.420, 584.1549
1148.902, 591.7475
1149.384, 597.9800
1149.866, 583.2782
1150.348, 566.0283
1150.830, 565.1938
1151.313, 573.9324
1151.795, 581.6990
1152.277, 587.0993
1152.759, 592.9223
1153.241, 601.3840
1153.723, 603.9593
1154.205, 592.0490
1154.687, 583.2860
1155.169, 583.6233
1155.651, 588.0698
1156.134, 595.8667
1156.616, 603.8751
1157.098, 607.4448
1157.580, 606.8361
1158.062, 605.1415
1158.544, 602.5300
1159.026, 597.0475
1159.508, 587.2319
1159.991, 583.2504
1160.473, 588.5335
1160.955, 597.6351
1161.437, 607.2957
1161.919, 615.0280
1162.401, 613.7862
1162.883, 608.3556
1163.365, 619.8287
1163.848, 640.2371
1164.330, 639.9714
1164.812, 621.9060
1165.294, 611.3553
1165.776, 616.0281
1166.258, 624.7211
1166.740, 631.1561
1167.222, 636.0933
1167.704, 637.4211
1168.187, 640.3737
1168.669, 653.7108
1169.151, 668.4598
1169.633, 671.4539
1170.115, 666.0616
1170.597, 665.6526
1171.079, 673.4847
1171.561, 678.5233
1172.043, 672.4745
1172.526, 673.6666
1173.008, 693.3676
1173.490, 708.2822
1173.972, 705.3266
1174.454, 697.7217
1174.936, 699.2299
1175.418, 707.2502
1175.900, 712.7339
1176.383, 715.4127
1176.865, 719.7886
1177.347, 725.9537
1177.829, 729.1669
1178.311, 728.7256
1178.793, 732.7599
1179.275, 745.2584
1179.757, 757.7512
1180.240, 760.1504
1180.722, 759.1210
1181.204, 765.9366
1181.686, 776.5093
1182.168, 785.8268
1182.650, 792.2685
1183.132, 790.6602
1183.614, 783.6616
1184.096, 784.4479
1184.578, 798.9754
1185.061, 812.3997
1185.543, 819.4623
1186.025, 821.9072
1186.507, 815.0048
1186.989, 809.5897
1187.471, 815.2998
1187.953, 825.6387
1188.435, 829.5376
1188.918, 829.0447
1189.400, 838.2697
1189.882, 864.2769
1190.364, 873.1480
1190.846, 859.6221
1191.328, 853.1591
1191.810, 861.2407
1192.292, 869.0465
1192.775, 867.7418
1193.257, 865.9504
1193.739, 876.2928
1194.221, 891.3267
1194.703, 890.1204
1195.185, 879.8873
1195.667, 881.2665
1196.149, 890.8452
1196.631, 894.7622
1197.114, 891.2700
1197.596, 886.7582
1198.078, 883.5176
1198.560, 885.1110
1199.042, 900.5468
1199.524, 912.6546
1200.006, 909.6238
1200.488, 901.5482
1200.970, 891.7962
1201.453, 885.0055
1201.935, 890.4265
1202.417, 905.6913
1202.899, 910.4137
1203.381, 899.3436
1203.863, 894.9907
1204.345, 900.8267
1204.827, 901.6230
1205.310, 893.2646
1205.792, 884.2812
1206.274, 879.0590
1206.756, 876.4949
1207.238, 875.6369
1207.720, 875.7596
1208.202, 873.7707
1208.684, 871.6872
1209.167, 878.4163
1209.649, 889.6516
1210.131, 890.8610
1210.613, 882.0081
1211.095, 874.3208
1211.577, 872.2104
1212.059, 872.6878
1212.541, 876.0803
1213.023, 878.5989
1213.505, 879.2921
1213.988, 877.2534
1214.470, 866.0672
1214.952, 856.0142
1215.434, 863.3679
1215.916, 882.5967
1216.398, 892.2028
1216.880, 890.9789
1217.362, 886.6233
1217.845, 877.4951
1218.327, 872.2177
1218.809, 872.1666
1219.291, 876.0676
1219.773, 884.0182
1220.255, 886.6218
1220.737, 873.6472
1221.219, 857.0811
1221.702, 862.2803
1222.184, 876.7411
1222.666, 871.9529
1223.148, 857.3677
1223.630, 853.4194
1224.112, 859.2809
1224.594, 865.4571
1225.076, 868.9695
1225.558, 868.2007
1226.041, 859.2770
1226.523, 852.2411
1227.005, 853.1824
1227.487, 853.1694
1227.969, 847.3357
1228.451, 839.9827
1228.933, 834.0238
1229.415, 828.9108
1229.897, 823.6069
1230.380, 818.2003
1230.862, 813.1400
1231.344, 808.1606
1231.826, 813.3073
1232.308, 828.3206
1232.790, 832.5546
1233.272, 821.5906
1233.754, 810.1428
1234.237, 806.6513
1234.719, 801.7473
1235.201, 781.3509
1235.683, 759.5400
1236.165, 753.4819
1236.647, 752.9489
1237.129, 744.3394
1237.611, 734.4634
1238.094, 737.1707
1238.576, 750.4203
1239.058, 760.7828
1239.540, 768.0134
1240.022, 763.3851
1240.504, 736.6115
1240.986, 718.4173
1241.468, 713.9772
1241.950, 715.2895
1242.432, 721.1994
1242.915, 724.2208
##END=



