##NAMES=Clintonite
##RRUFFID=R070197
##IDEAL CHEMISTRY=CaAlMg_2_(SiAl_3_)O_10_(OH)_2_
##LOCALITY=Crestmore Quarry, Riverside County, California, USA
##OWNER=RRUFF
##SOURCE=California Institute of Technology
##DESCRIPTION=Transparent green micaceous
##STATUS=The identification of this mineral is confirmed by single-crystal X-ray diffraction and chemical analysis.
##URL=rruff.info/R070197
##MEASURED CHEMISTRY=Ca_1.00_(Mg_2.19_Al_0.66_Fe^3+^_0.15_)_Σ=3_(Al_2.81_Si_1.19_)_Σ=4_O_10_(OH)_2_
170.9675, 50844.89
171.4496, 51042.65
171.9317, 51152.92
172.4138, 51204.34
172.8959, 51268.89
173.3781, 51356.52
173.8602, 51437.10
174.3423, 51500.72
174.8244, 51549.85
175.3065, 51583.19
175.7886, 51589.70
176.2708, 51586.59
176.7529, 51627.07
177.2350, 51739.56
177.7171, 51844.03
178.1992, 51908.61
178.6813, 51948.08
179.1634, 51979.44
179.6456, 52006.61
180.1277, 52035.52
180.6098, 52087.04
181.0919, 52179.04
181.5740, 52262.09
182.0561, 52309.69
182.5383, 52344.07
183.0204, 52391.65
183.5025, 52465.09
183.9846, 52560.09
184.4667, 52669.59
184.9488, 52816.28
185.4310, 52934.45
185.9131, 52989.29
186.3952, 53016.83
186.8773, 53062.80
187.3594, 53152.38
187.8415, 53261.04
188.3237, 53320.64
188.8058, 53291.90
189.2879, 53280.10
189.7700, 53301.55
190.2521, 53350.70
190.7342, 53426.50
191.2164, 53529.71
191.6985, 53649.75
192.1806, 53760.76
192.6627, 53857.81
193.1448, 53954.87
193.6269, 54069.90
194.1091, 54179.56
194.5912, 54251.51
195.0733, 54272.05
195.5554, 54275.93
196.0375, 54344.68
196.5196, 54536.53
197.0018, 54684.70
197.4839, 54755.02
197.9660, 54787.79
198.4481, 54809.94
198.9302, 54831.79
199.4123, 54859.46
199.8945, 54904.71
200.3766, 54972.10
200.8587, 55050.24
201.3408, 55165.83
201.8229, 55273.40
202.3050, 55332.89
202.7872, 55334.95
203.2693, 55304.57
203.7514, 55282.23
204.2335, 55278.16
204.7156, 55258.37
205.1977, 55188.90
205.6799, 55127.57
206.1620, 55124.52
206.6441, 55184.66
207.1262, 55263.35
207.6083, 55298.43
208.0904, 55270.46
208.5726, 55246.25
209.0547, 55240.62
209.5368, 55227.64
210.0189, 55183.16
210.5010, 55109.77
210.9831, 55035.50
211.4653, 54992.33
211.9474, 54984.78
212.4295, 54994.25
212.9116, 55013.92
213.3937, 55054.46
213.8758, 55144.90
214.3580, 55269.97
214.8401, 55373.88
215.3222, 55386.40
215.8043, 55280.66
216.2864, 55264.57
216.7685, 55412.20
217.2507, 55579.30
217.7328, 55727.31
218.2149, 55849.97
218.6970, 55952.54
219.1791, 56039.75
219.6612, 56111.79
220.1434, 56160.67
220.6255, 56134.91
221.1076, 56135.86
221.5897, 56208.68
222.0718, 56329.80
222.5539, 56451.91
223.0361, 56543.41
223.5182, 56605.86
224.0003, 56648.60
224.4824, 56656.56
224.9645, 56659.32
225.4466, 56663.95
225.9288, 56667.18
226.4109, 56662.67
226.8930, 56646.05
227.3751, 56620.57
227.8572, 56601.47
228.3393, 56611.79
228.8215, 56595.13
229.3036, 56511.22
229.7857, 56408.46
230.2678, 56342.27
230.7499, 56337.96
231.2320, 56377.89
231.7142, 56422.78
232.1963, 56490.35
232.6784, 56529.66
233.1605, 56505.91
233.6426, 56470.85
234.1247, 56479.45
234.6069, 56547.96
235.0890, 56632.63
235.5711, 56650.74
236.0532, 56559.55
236.5353, 56503.49
237.0174, 56500.77
237.4996, 56527.45
237.9817, 56579.43
238.4638, 56651.10
238.9459, 56721.56
239.4280, 56766.54
239.9101, 56784.19
240.3923, 56782.06
240.8744, 56710.34
241.3565, 56659.79
241.8386, 56695.59
242.3207, 56806.55
242.8028, 56918.84
243.2850, 56954.30
243.7671, 56904.41
244.2492, 56880.73
244.7313, 56925.00
245.2134, 56956.28
245.6955, 56938.17
246.1777, 56881.25
246.6598, 56817.89
247.1419, 56772.76
247.6240, 56742.19
248.1061, 56691.72
248.5882, 56578.80
249.0704, 56505.56
249.5525, 56531.54
250.0346, 56612.22
250.5167, 56674.28
250.9988, 56674.16
251.4809, 56635.08
251.9631, 56629.43
252.4452, 56686.11
252.9273, 56716.34
253.4094, 56667.85
253.8915, 56591.14
254.3736, 56538.33
254.8558, 56528.06
255.3379, 56548.64
255.8200, 56589.37
256.3021, 56659.34
256.7842, 56714.31
257.2664, 56724.74
257.7485, 56724.75
258.2306, 56739.79
258.7127, 56775.46
259.1948, 56816.68
259.6769, 56843.52
260.1591, 56854.75
260.6412, 56883.55
261.1233, 56956.43
261.6054, 57031.31
262.0875, 57076.95
262.5696, 57093.21
263.0518, 57102.45
263.5339, 57127.83
264.0160, 57163.00
264.4981, 57167.60
264.9802, 57122.50
265.4623, 57068.68
265.9445, 57032.36
266.4266, 57011.36
266.9087, 57000.54
267.3908, 57001.63
267.8729, 57010.47
268.3550, 57022.79
268.8372, 57044.12
269.3193, 57050.55
269.8014, 56997.52
270.2835, 56920.27
270.7656, 56882.47
271.2477, 56921.93
271.7299, 56989.94
272.2120, 57037.95
272.6941, 57065.89
273.1762, 57076.13
273.6583, 57063.87
274.1404, 57036.04
274.6226, 57009.86
275.1047, 56994.30
275.5868, 56965.21
276.0689, 56883.94
276.5510, 56768.78
277.0331, 56694.25
277.5153, 56687.67
277.9974, 56734.20
278.4795, 56820.16
278.9616, 56958.26
279.4437, 57070.09
279.9258, 57110.45
280.4080, 57109.72
280.8901, 57119.66
281.3722, 57152.53
281.8543, 57191.20
282.3364, 57212.29
282.8185, 57213.12
283.3007, 57229.73
283.7828, 57269.09
284.2649, 57324.12
284.7470, 57408.99
285.2291, 57518.07
285.7112, 57590.40
286.1934, 57565.33
286.6755, 57444.32
287.1576, 57367.71
287.6397, 57346.56
288.1218, 57354.14
288.6039, 57394.39
289.0861, 57454.56
289.5682, 57506.35
290.0503, 57535.54
290.5324, 57542.32
291.0145, 57525.43
291.4966, 57463.12
291.9788, 57405.78
292.4609, 57359.07
292.9430, 57322.04
293.4251, 57296.13
293.9072, 57281.54
294.3893, 57271.55
294.8715, 57255.79
295.3536, 57244.32
295.8357, 57204.50
296.3178, 57102.21
296.7999, 56998.56
297.2820, 56933.12
297.7642, 56911.77
298.2463, 56922.71
298.7284, 56956.70
299.2105, 57017.48
299.6926, 57076.21
300.1747, 57129.06
300.6569, 57183.67
301.1390, 57262.80
301.6211, 57345.69
302.1032, 57382.83
302.5853, 57331.51
303.0674, 57219.25
303.5495, 57192.01
304.0316, 57325.30
304.5138, 57435.01
304.9959, 57476.28
305.4780, 57480.27
305.9601, 57479.27
306.4422, 57485.12
306.9243, 57491.34
307.4065, 57483.71
307.8886, 57454.82
308.3707, 57439.83
308.8528, 57447.06
309.3349, 57469.33
309.8170, 57512.86
310.2992, 57574.69
310.7813, 57628.79
311.2634, 57648.50
311.7455, 57636.98
312.2276, 57630.53
312.7097, 57642.99
313.1919, 57643.15
313.6740, 57603.53
314.1561, 57537.22
314.6382, 57479.03
315.1203, 57455.19
315.6024, 57444.38
316.0846, 57403.39
316.5667, 57325.94
317.0488, 57255.61
317.5309, 57220.61
318.0130, 57207.09
318.4951, 57189.21
318.9773, 57150.79
319.4594, 57131.14
319.9415, 57179.71
320.4236, 57278.94
320.9057, 57349.18
321.3878, 57358.54
321.8700, 57334.54
322.3521, 57315.88
322.8342, 57300.56
323.3163, 57297.61
323.7984, 57304.05
324.2805, 57326.61
324.7627, 57384.58
325.2448, 57481.11
325.7269, 57575.75
326.2090, 57628.61
326.6911, 57634.60
327.1732, 57644.19
327.6554, 57661.65
328.1375, 57678.68
328.6196, 57694.00
329.1017, 57705.43
329.5838, 57702.55
330.0659, 57674.93
330.5481, 57635.76
331.0302, 57646.15
331.5123, 57772.62
331.9944, 57866.44
332.4765, 57908.90
332.9586, 57913.05
333.4408, 57880.57
333.9229, 57815.89
334.4050, 57748.52
334.8871, 57729.79
335.3692, 57800.58
335.8513, 57807.13
336.3335, 57689.38
336.8156, 57568.45
337.2977, 57501.38
337.7798, 57487.57
338.2619, 57501.53
338.7440, 57528.61
339.2262, 57566.40
339.7083, 57595.76
340.1904, 57633.80
340.6725, 57634.35
341.1546, 57564.22
341.6367, 57460.94
342.1189, 57362.08
342.6010, 57275.43
343.0831, 57226.02
343.5652, 57274.48
344.0473, 57440.72
344.5294, 57562.95
345.0116, 57578.63
345.4937, 57553.57
345.9758, 57539.50
346.4579, 57538.84
346.9400, 57530.67
347.4221, 57486.62
347.9043, 57425.17
348.3864, 57402.87
348.8685, 57435.09
349.3506, 57475.58
349.8327, 57480.54
350.3148, 57463.70
350.7970, 57466.71
351.2791, 57525.84
351.7612, 57584.50
352.2433, 57592.41
352.7254, 57556.71
353.2076, 57512.19
353.6897, 57468.82
354.1718, 57434.05
354.6539, 57434.28
355.1360, 57494.66
355.6181, 57530.09
356.1003, 57509.54
356.5824, 57459.58
357.0645, 57403.09
357.5466, 57346.91
358.0287, 57306.01
358.5108, 57302.29
358.9930, 57349.41
359.4751, 57355.12
359.9572, 57294.95
360.4393, 57224.50
360.9214, 57163.79
361.4035, 57112.55
361.8857, 57067.64
362.3678, 57028.40
362.8499, 56988.98
363.3320, 56923.72
363.8141, 56788.29
364.2962, 56700.75
364.7784, 56686.29
365.2605, 56712.01
365.7426, 56764.19
366.2247, 56834.33
366.7068, 56896.27
367.1889, 56920.70
367.6711, 56906.63
368.1532, 56869.28
368.6353, 56765.75
369.1174, 56692.81
369.5995, 56717.29
370.0816, 56807.30
370.5638, 56885.14
371.0459, 56907.00
371.5280, 56902.14
372.0101, 56917.62
372.4922, 56954.51
372.9743, 57003.85
373.4565, 57086.04
373.9386, 57162.17
374.4207, 57166.75
374.9028, 57073.86
375.3849, 56995.88
375.8670, 57015.86
376.3492, 57088.02
376.8313, 57112.32
377.3134, 57063.19
377.7955, 57009.22
378.2776, 57036.47
378.7597, 57156.78
379.2419, 57186.09
379.7240, 57020.29
380.2061, 56854.55
380.6882, 56820.78
381.1703, 56885.91
381.6524, 56941.94
382.1346, 56928.62
382.6167, 56872.46
383.0988, 56854.11
383.5809, 56928.47
384.0630, 56969.41
384.5451, 56962.44
385.0273, 56929.31
385.5094, 56873.71
385.9915, 56804.34
386.4736, 56749.20
386.9557, 56741.57
387.4378, 56784.24
387.9200, 56821.08
388.4021, 56857.54
388.8842, 56880.68
389.3663, 56865.56
389.8484, 56839.71
390.3305, 56849.85
390.8127, 56922.63
391.2948, 57020.00
391.7769, 57079.96
392.2590, 57097.90
392.7411, 57120.61
393.2232, 57165.02
393.7054, 57214.35
394.1875, 57258.46
394.6696, 57296.89
395.1517, 57314.20
395.6338, 57281.77
396.1159, 57230.64
396.5981, 57212.82
397.0802, 57233.59
397.5623, 57274.58
398.0444, 57333.41
398.5265, 57402.04
399.0086, 57442.57
399.4908, 57457.79
399.9729, 57442.70
400.4550, 57373.67
400.9371, 57278.03
401.4192, 57202.46
401.9013, 57162.01
402.3835, 57137.19
402.8656, 57099.05
403.3477, 57043.30
403.8298, 56986.79
404.3119, 56927.05
404.7940, 56868.36
405.2762, 56814.67
405.7583, 56763.71
406.2404, 56710.11
406.7225, 56650.11
407.2046, 56585.64
407.6867, 56522.68
408.1689, 56453.77
408.6510, 56402.73
409.1331, 56377.17
409.6152, 56367.27
410.0973, 56371.78
410.5794, 56388.62
411.0616, 56401.62
411.5437, 56402.05
412.0258, 56388.22
412.5079, 56343.71
412.9900, 56251.07
413.4721, 56167.52
413.9543, 56136.70
414.4364, 56143.15
414.9185, 56163.69
415.4006, 56213.59
415.8827, 56252.56
416.3648, 56246.52
416.8470, 56205.03
417.3291, 56152.70
417.8112, 56094.16
418.2933, 56041.92
418.7754, 56014.67
419.2575, 56016.62
419.7397, 56033.68
420.2218, 56085.06
420.7039, 56135.40
421.1860, 56165.90
421.6681, 56174.60
422.1502, 56164.67
422.6324, 56138.39
423.1145, 56094.10
423.5966, 56021.75
424.0787, 55873.64
424.5608, 55773.44
425.0429, 55770.51
425.5251, 55791.13
426.0072, 55772.82
426.4893, 55708.48
426.9714, 55637.75
427.4535, 55613.03
427.9356, 55626.18
428.4178, 55568.93
428.8999, 55386.42
429.3820, 55239.75
429.8641, 55246.34
430.3462, 55330.86
430.8283, 55382.35
431.3105, 55362.22
431.7926, 55331.36
432.2747, 55358.45
432.7568, 55419.85
433.2389, 55419.02
433.7210, 55317.18
434.2032, 55195.01
434.6853, 55146.96
435.1674, 55180.50
435.6495, 55225.11
436.1316, 55298.56
436.6137, 55363.04
437.0959, 55403.71
437.5780, 55416.54
438.0601, 55389.22
438.5422, 55312.62
439.0243, 55210.48
439.5064, 55143.91
439.9886, 55132.89
440.4707, 55123.78
440.9528, 55120.32
441.4349, 55113.92
441.9170, 55093.92
442.3991, 55064.44
442.8813, 55042.54
443.3634, 55046.66
443.8455, 55066.30
444.3276, 55060.70
444.8097, 55026.41
445.2918, 54976.20
445.7740, 54880.90
446.2561, 54789.53
446.7382, 54756.67
447.2203, 54794.34
447.7024, 54848.74
448.1845, 54906.83
448.6667, 54954.51
449.1488, 54954.00
449.6309, 54897.58
450.1130, 54830.42
450.5951, 54785.11
451.0772, 54760.43
451.5594, 54738.11
452.0415, 54697.46
452.5236, 54682.66
453.0057, 54737.23
453.4878, 54816.00
453.9699, 54855.82
454.4521, 54838.76
454.9342, 54790.18
455.4163, 54741.63
455.8984, 54694.77
456.3805, 54638.85
456.8626, 54544.66
457.3448, 54472.38
457.8269, 54449.08
458.3090, 54458.06
458.7911, 54476.69
459.2732, 54499.00
459.7553, 54510.35
460.2375, 54483.63
460.7196, 54418.33
461.2017, 54356.79
461.6838, 54303.63
462.1659, 54261.38
462.6480, 54222.63
463.1302, 54191.62
463.6123, 54197.12
464.0944, 54283.65
464.5765, 54381.19
465.0586, 54435.62
465.5407, 54448.05
466.0229, 54418.01
466.5050, 54336.65
466.9871, 54244.04
467.4692, 54224.30
467.9513, 54349.32
468.4334, 54393.41
468.9156, 54270.64
469.3977, 54143.06
469.8798, 54129.42
470.3619, 54202.11
470.8440, 54259.68
471.3261, 54237.27
471.8083, 54159.27
472.2904, 54094.55
472.7725, 54046.92
473.2546, 54003.39
473.7367, 53956.99
474.2188, 53917.55
474.7010, 53893.09
475.1831, 53883.32
475.6652, 53880.40
476.1473, 53885.39
476.6294, 53892.19
477.1115, 53895.98
477.5937, 53896.70
478.0758, 53871.13
478.5579, 53797.42
479.0400, 53698.55
479.5221, 53629.77
480.0042, 53596.81
480.4864, 53574.20
480.9685, 53558.44
481.4506, 53550.13
481.9327, 53561.15
482.4148, 53584.30
482.8969, 53584.16
483.3791, 53528.38
483.8612, 53433.55
484.3433, 53394.82
484.8254, 53464.75
485.3075, 53504.59
485.7896, 53456.37
486.2718, 53400.71
486.7539, 53411.46
487.2360, 53490.68
487.7181, 53573.00
488.2002, 53614.21
488.6823, 53619.05
489.1645, 53596.79
489.6466, 53543.78
490.1287, 53482.82
490.6108, 53404.34
491.0929, 53337.73
491.5750, 53349.64
492.0572, 53483.09
492.5393, 53570.07
493.0214, 53513.48
493.5035, 53403.12
493.9856, 53332.63
494.4677, 53313.91
494.9499, 53325.98
495.4320, 53358.07
495.9141, 53403.84
496.3962, 53423.04
496.8783, 53415.23
497.3604, 53378.11
497.8426, 53282.89
498.3247, 53179.31
498.8068, 53109.02
499.2889, 53075.71
499.7710, 53055.59
500.2531, 53034.65
500.7353, 53010.95
501.2174, 52973.32
501.6995, 52915.98
502.1816, 52869.60
502.6637, 52854.22
503.1458, 52853.81
503.6280, 52833.20
504.1101, 52776.28
504.5922, 52765.84
505.0743, 52891.08
505.5564, 53045.80
506.0385, 53096.01
506.5207, 53041.33
507.0028, 52969.09
507.4849, 52935.86
507.9670, 52933.78
508.4491, 52929.08
508.9312, 52922.09
509.4134, 52911.56
509.8955, 52912.92
510.3776, 52899.25
510.8597, 52827.73
511.3418, 52714.63
511.8239, 52634.88
512.3061, 52654.87
512.7882, 52738.72
513.2703, 52792.56
513.7524, 52814.63
514.2346, 52814.06
514.7167, 52786.70
515.1988, 52743.31
515.6809, 52690.25
516.1630, 52624.20
516.6451, 52587.98
517.1273, 52637.92
517.6094, 52691.27
518.0915, 52649.73
518.5736, 52534.79
519.0557, 52455.95
519.5378, 52476.95
520.0200, 52543.67
520.5021, 52520.86
520.9842, 52320.71
521.4663, 52199.18
521.9484, 52196.55
522.4305, 52224.89
522.9127, 52265.38
523.3948, 52297.26
523.8769, 52277.25
524.3590, 52166.29
524.8411, 52028.84
525.3232, 51979.39
525.8054, 52017.31
526.2875, 52043.18
526.7696, 52033.71
527.2517, 52004.77
527.7338, 51960.57
528.2159, 51904.53
528.6981, 51877.13
529.1802, 51898.65
529.6623, 51935.96
530.1444, 51972.04
530.6265, 52009.29
531.1086, 52063.38
531.5908, 52138.43
532.0729, 52198.71
532.5550, 52191.55
533.0371, 52105.91
533.5192, 52020.54
534.0013, 51915.42
534.4835, 51834.49
534.9656, 51797.13
535.4477, 51789.07
535.9298, 51795.91
536.4119, 51815.78
536.8940, 51828.94
537.3762, 51812.39
537.8583, 51774.23
538.3404, 51735.77
538.8225, 51697.25
539.3046, 51677.93
539.7867, 51700.52
540.2689, 51753.40
540.7510, 51778.38
541.2331, 51779.74
541.7152, 51751.43
542.1973, 51676.27
542.6794, 51581.30
543.1616, 51475.50
543.6437, 51371.02
544.1258, 51303.03
544.6079, 51305.33
545.0900, 51360.74
545.5721, 51392.45
546.0543, 51389.75
546.5364, 51392.77
547.0185, 51422.69
547.5006, 51453.57
547.9827, 51474.48
548.4648, 51482.24
548.9469, 51456.00
549.4290, 51364.96
549.9111, 51250.69
550.3932, 51136.98
550.8754, 51035.43
551.3575, 51004.51
551.8396, 51076.32
552.3217, 51182.13
552.8038, 51209.55
553.2859, 51132.86
553.7681, 51063.04
554.2502, 50999.43
554.7323, 50941.97
555.2144, 50865.79
555.6965, 50803.35
556.1786, 50822.65
556.6608, 50951.41
557.1429, 51087.20
557.6250, 51085.17
558.1071, 50966.06
558.5892, 50907.36
559.0714, 50943.04
559.5535, 50982.99
560.0356, 50971.64
560.5177, 50917.64
560.9998, 50852.60
561.4819, 50747.58
561.9641, 50682.36
562.4462, 50725.93
562.9283, 50794.82
563.4104, 50798.60
563.8925, 50732.55
564.3746, 50639.93
564.8568, 50544.95
565.3389, 50459.55
565.8210, 50439.25
566.3031, 50527.04
566.7852, 50571.20
567.2673, 50507.98
567.7495, 50422.57
568.2316, 50357.02
568.7137, 50314.41
569.1958, 50294.06
569.6779, 50313.11
570.1600, 50338.49
570.6422, 50339.48
571.1243, 50318.88
571.6064, 50281.77
572.0885, 50228.21
572.5706, 50172.62
573.0527, 50129.86
573.5349, 50098.13
574.0170, 50096.12
574.4991, 50162.14
574.9812, 50210.56
575.4633, 50227.86
575.9454, 50212.38
576.4276, 50142.80
576.9097, 50022.58
577.3918, 49924.18
577.8739, 49930.23
578.3560, 50010.36
578.8381, 50065.23
579.3203, 50092.55
579.8024, 50100.85
580.2845, 50086.54
580.7666, 50061.86
581.2487, 50052.36
581.7308, 50063.08
582.2130, 50065.16
582.6951, 50052.22
583.1772, 50031.72
583.6593, 50010.67
584.1414, 49985.86
584.6235, 49945.07
585.1057, 49882.71
585.5878, 49817.06
586.0699, 49785.33
586.5520, 49793.38
587.0341, 49760.03
587.5162, 49641.07
587.9984, 49546.66
588.4805, 49572.01
588.9626, 49654.30
589.4447, 49689.93
589.9268, 49650.94
590.4089, 49602.97
590.8911, 49582.31
591.3732, 49567.80
591.8553, 49531.56
592.3374, 49473.02
592.8195, 49404.55
593.3016, 49331.69
593.7838, 49263.33
594.2659, 49228.62
594.7480, 49243.15
595.2301, 49254.63
595.7122, 49261.15
596.1943, 49261.45
596.6765, 49252.16
597.1586, 49236.06
597.6407, 49218.50
598.1228, 49196.97
598.6049, 49183.64
599.0870, 49196.95
599.5692, 49226.43
600.0513, 49247.15
600.5334, 49254.36
601.0155, 49246.45
601.4976, 49217.23
601.9797, 49171.96
602.4619, 49154.27
602.9440, 49207.82
603.4261, 49228.88
603.9082, 49182.49
604.3903, 49122.88
604.8724, 49095.66
605.3546, 49095.38
605.8367, 49082.63
606.3188, 49030.27
606.8009, 48959.25
607.2830, 48888.42
607.7651, 48821.86
608.2473, 48802.30
608.7294, 48851.59
609.2115, 48905.17
609.6936, 48892.80
610.1757, 48814.07
610.6578, 48767.97
611.1400, 48795.58
611.6221, 48800.85
612.1042, 48749.36
612.5863, 48672.60
613.0684, 48593.27
613.5505, 48520.16
614.0327, 48466.88
614.5148, 48456.09
614.9969, 48462.19
615.4790, 48399.20
615.9611, 48260.94
616.4432, 48203.49
616.9254, 48301.79
617.4075, 48443.57
617.8896, 48509.33
618.3717, 48497.27
618.8538, 48460.44
619.3359, 48360.77
619.8181, 48282.95
620.3002, 48272.32
620.7823, 48295.73
621.2644, 48321.76
621.7465, 48338.16
622.2286, 48328.22
622.7108, 48261.19
623.1929, 48162.46
623.6750, 48141.86
624.1571, 48213.47
624.6392, 48284.23
625.1213, 48341.13
625.6035, 48368.41
626.0856, 48323.61
626.5677, 48211.71
627.0498, 48148.11
627.5319, 48193.78
628.0140, 48242.60
628.4962, 48247.18
628.9783, 48218.72
629.4604, 48166.05
629.9425, 48096.72
630.4246, 48034.29
630.9067, 47999.69
631.3889, 47992.32
631.8710, 48019.22
632.3531, 48099.42
632.8352, 48136.46
633.3173, 48068.57
633.7994, 47976.41
634.2816, 47958.02
634.7637, 48008.77
635.2458, 48038.98
635.7279, 47999.42
636.2100, 47968.09
636.6921, 48009.93
637.1743, 48080.88
637.6564, 48102.46
638.1385, 48060.97
638.6206, 48016.11
639.1027, 48032.16
639.5848, 48095.77
640.0670, 48121.05
640.5491, 48095.77
641.0312, 48076.20
641.5133, 48084.27
641.9954, 48098.78
642.4775, 48081.65
642.9597, 48038.75
643.4418, 48051.32
643.9239, 48196.33
644.4060, 48336.52
644.8881, 48381.18
645.3702, 48378.39
645.8524, 48404.23
646.3345, 48473.36
646.8166, 48547.14
647.2987, 48588.63
647.7808, 48605.09
648.2629, 48632.50
648.7451, 48675.70
649.2272, 48709.13
649.7093, 48720.45
650.1914, 48725.97
650.6735, 48744.96
651.1556, 48774.38
651.6378, 48791.97
652.1199, 48780.82
652.6020, 48772.18
653.0841, 48786.17
653.5662, 48808.74
654.0483, 48830.74
654.5305, 48844.48
655.0126, 48828.77
655.4947, 48765.31
655.9768, 48661.03
656.4589, 48531.50
656.9410, 48369.49
657.4232, 48226.95
657.9053, 48118.66
658.3874, 48027.97
658.8695, 47944.36
659.3516, 47866.97
659.8337, 47794.07
660.3159, 47750.51
660.7980, 47680.01
661.2801, 47535.09
661.7622, 47371.94
662.2443, 47246.93
662.7264, 47164.51
663.2086, 47098.23
663.6907, 47029.12
664.1728, 46969.99
664.6549, 46964.60
665.1370, 47016.13
665.6191, 47011.34
666.1013, 46916.50
666.5834, 46800.54
667.0655, 46703.63
667.5476, 46627.91
668.0297, 46578.21
668.5118, 46588.97
668.9940, 46570.07
669.4761, 46460.45
669.9582, 46350.83
670.4403, 46317.56
670.9224, 46347.32
671.4045, 46392.00
671.8867, 46432.07
672.3688, 46446.27
672.8509, 46385.95
673.3330, 46264.56
673.8151, 46182.29
674.2972, 46152.43
674.7794, 46136.80
675.2615, 46111.19
675.7436, 46085.75
676.2257, 46090.97
676.7078, 46161.90
677.1899, 46185.88
677.6721, 46134.96
678.1542, 46061.97
678.6363, 45968.89
679.1184, 45881.59
679.6005, 45845.44
680.0826, 45874.81
680.5648, 45913.76
681.0469, 45906.62
681.5290, 45870.86
682.0111, 45853.95
682.4932, 45855.77
682.9753, 45832.77
683.4575, 45761.39
683.9396, 45671.78
684.4217, 45611.16
684.9038, 45586.64
685.3859, 45554.35
685.8680, 45500.27
686.3502, 45454.83
686.8323, 45437.82
687.3144, 45425.36
687.7965, 45381.28
688.2786, 45306.35
688.7607, 45257.45
689.2429, 45305.93
689.7250, 45366.93
690.2071, 45326.34
690.6892, 45217.65
691.1713, 45140.04
691.6534, 45120.56
692.1356, 45126.39
692.6177, 45124.06
693.0998, 45117.06
693.5819, 45141.75
694.0640, 45227.89
694.5461, 45279.75
695.0283, 45268.05
695.5104, 45226.22
695.9925, 45154.91
696.4746, 45069.77
696.9567, 45027.48
697.4388, 45071.37
697.9210, 45116.80
698.4031, 45117.64
698.8852, 45095.26
699.3673, 45075.87
699.8494, 45061.02
700.3315, 45036.65
700.8137, 44992.32
701.2958, 44942.23
701.7779, 44922.29
702.2600, 44935.05
702.7421, 44921.59
703.2242, 44869.80
703.7064, 44808.27
704.1885, 44743.45
704.6706, 44684.61
705.1527, 44655.83
705.6348, 44670.05
706.1169, 44674.73
706.5991, 44669.05
707.0812, 44645.56
707.5633, 44576.48
708.0454, 44494.35
708.5275, 44467.24
709.0096, 44511.44
709.4918, 44541.55
709.9739, 44440.03
710.4560, 44271.78
710.9381, 44220.73
711.4202, 44281.24
711.9023, 44309.99
712.3845, 44250.93
712.8666, 44163.63
713.3487, 44120.91
713.8308, 44124.77
714.3129, 44131.25
714.7950, 44163.27
715.2772, 44165.50
715.7593, 44092.94
716.2414, 44016.41
716.7235, 44005.09
717.2056, 44047.19
717.6877, 44068.19
718.1699, 44021.17
718.6520, 43967.58
719.1341, 43970.34
719.6162, 43994.34
720.0983, 43973.94
720.5804, 43905.85
721.0626, 43833.77
721.5447, 43786.45
722.0268, 43757.54
722.5089, 43734.83
722.9910, 43720.49
723.4731, 43695.88
723.9553, 43652.75
724.4374, 43612.20
724.9195, 43577.54
725.4016, 43557.36
725.8837, 43577.92
726.3658, 43667.48
726.8480, 43697.73
727.3301, 43599.43
727.8122, 43482.44
728.2943, 43396.40
728.7764, 43341.80
729.2585, 43321.54
729.7407, 43332.15
730.2228, 43340.09
730.7049, 43311.73
731.1870, 43260.54
731.6691, 43210.98
732.1512, 43164.51
732.6334, 43138.41
733.1155, 43139.98
733.5976, 43148.24
734.0797, 43143.39
734.5618, 43125.54
735.0439, 43095.38
735.5261, 43043.52
736.0082, 42994.59
736.4903, 42941.07
736.9724, 42900.32
737.4545, 42890.69
737.9366, 42902.05
738.4188, 42907.09
738.9009, 42898.13
739.3830, 42882.70
739.8651, 42874.32
740.3472, 42855.55
740.8293, 42777.72
741.3115, 42668.80
741.7936, 42633.87
742.2757, 42723.14
742.7578, 42840.70
743.2399, 42841.91
743.7220, 42735.83
744.2042, 42644.07
744.6863, 42563.60
745.1684, 42523.52
745.6505, 42545.54
746.1326, 42597.77
746.6147, 42644.11
747.0969, 42687.29
747.5790, 42695.59
748.0611, 42651.67
748.5432, 42597.62
749.0253, 42522.32
749.5074, 42456.45
749.9896, 42435.47
750.4717, 42451.47
750.9538, 42463.51
751.4359, 42456.20
751.9180, 42430.78
752.4001, 42377.49
752.8823, 42310.71
753.3644, 42257.26
753.8465, 42219.86
754.3286, 42195.65
754.8107, 42186.05
755.2928, 42168.04
755.7750, 42077.35
756.2571, 41897.48
756.7392, 41810.07
757.2213, 41850.88
757.7034, 41902.67
758.1855, 41921.45
758.6677, 41918.64
759.1498, 41912.33
759.6319, 41904.18
760.1140, 41879.35
760.5961, 41813.38
761.0782, 41758.32
761.5604, 41739.59
762.0425, 41737.72
762.5246, 41739.75
763.0067, 41738.53
763.4888, 41716.13
763.9709, 41644.79
764.4531, 41579.49
764.9352, 41608.24
765.4173, 41688.11
765.8994, 41706.11
766.3815, 41651.30
766.8636, 41588.19
767.3458, 41556.84
767.8279, 41540.22
768.3100, 41496.82
768.7921, 41418.04
769.2742, 41365.70
769.7563, 41344.72
770.2385, 41342.94
770.7206, 41372.81
771.2027, 41407.22
771.6848, 41405.32
772.1669, 41365.10
772.6490, 41321.13
773.1312, 41263.77
773.6133, 41219.70
774.0954, 41203.51
774.5775, 41202.92
775.0596, 41214.53
775.5417, 41230.25
776.0239, 41226.97
776.5060, 41189.26
776.9881, 41133.25
777.4702, 41063.43
777.9523, 40992.37
778.4344, 40951.63
778.9166, 40942.85
779.3987, 40948.35
779.8808, 40959.97
780.3629, 40968.30
780.8450, 40955.58
781.3271, 40920.64
781.8093, 40874.68
782.2914, 40813.37
782.7735, 40750.68
783.2556, 40679.74
783.7377, 40621.73
784.2198, 40612.75
784.7020, 40654.10
785.1841, 40678.57
785.6662, 40664.16
786.1483, 40657.44
786.6304, 40691.52
787.1125, 40722.12
787.5947, 40703.92
788.0768, 40646.63
788.5589, 40590.24
789.0410, 40545.46
789.5231, 40525.32
790.0052, 40572.23
790.4874, 40634.42
790.9695, 40624.93
791.4516, 40548.85
791.9337, 40447.74
792.4158, 40338.73
792.8979, 40258.38
793.3801, 40269.20
793.8622, 40358.96
794.3443, 40404.33
794.8264, 40400.47
795.3085, 40381.32
795.7906, 40350.89
796.2728, 40320.64
796.7549, 40305.84
797.2370, 40303.30
797.7191, 40279.32
798.2012, 40207.56
798.6833, 40152.22
799.1655, 40118.92
799.6476, 40099.92
800.1297, 40101.22
800.6118, 40110.67
801.0939, 40111.77
801.5760, 40104.05
802.0582, 40064.46
802.5403, 39943.88
803.0224, 39819.41
803.5045, 39761.07
803.9866, 39751.57
804.4688, 39756.43
804.9509, 39764.56
805.4330, 39775.08
805.9151, 39789.67
806.3972, 39802.86
806.8793, 39801.77
807.3615, 39787.71
807.8436, 39773.83
808.3257, 39763.24
808.8078, 39734.78
809.2899, 39670.55
809.7720, 39586.73
810.2542, 39524.94
810.7363, 39488.84
811.2184, 39460.90
811.7005, 39441.73
812.1826, 39429.46
812.6647, 39419.31
813.1469, 39418.74
813.6290, 39450.48
814.1111, 39513.88
814.5932, 39529.90
815.0753, 39451.49
815.5574, 39369.17
816.0396, 39287.24
816.5217, 39235.45
817.0038, 39274.27
817.4859, 39366.43
817.9680, 39395.84
818.4501, 39303.34
818.9323, 39188.52
819.4144, 39126.13
819.8965, 39100.66
820.3786, 39095.16
820.8607, 39104.59
821.3428, 39124.45
821.8250, 39152.00
822.3071, 39167.50
822.7892, 39146.16
823.2713, 39096.39
823.7534, 39057.18
824.2355, 39029.59
824.7177, 38979.47
825.1998, 38892.41
825.6819, 38809.60
826.1640, 38758.20
826.6461, 38737.76
827.1282, 38752.87
827.6104, 38849.70
828.0925, 38874.32
828.5746, 38751.78
829.0567, 38648.83
829.5388, 38650.72
830.0209, 38688.91
830.5031, 38679.80
830.9852, 38618.48
831.4673, 38562.25
831.9494, 38512.32
832.4315, 38485.41
832.9136, 38504.38
833.3958, 38538.23
833.8779, 38564.17
834.3600, 38575.37
834.8421, 38563.10
835.3242, 38520.26
835.8063, 38471.57
836.2885, 38446.29
836.7706, 38426.45
837.2527, 38373.90
837.7348, 38298.41
838.2169, 38242.16
838.6990, 38219.04
839.1812, 38209.91
839.6633, 38197.80
840.1454, 38181.25
840.6275, 38146.10
841.1096, 38091.37
841.5917, 38077.03
842.0739, 38122.98
842.5560, 38164.23
843.0381, 38156.96
843.5202, 38114.31
844.0023, 38066.34
844.4844, 38004.03
844.9666, 37967.01
845.4487, 37967.71
845.9308, 37975.23
846.4129, 38001.51
846.8950, 38014.30
847.3771, 37974.57
847.8593, 37885.96
848.3414, 37799.48
848.8235, 37702.47
849.3056, 37634.35
849.7877, 37616.59
850.2698, 37621.96
850.7520, 37641.96
851.2341, 37665.07
851.7162, 37674.45
852.1983, 37665.34
852.6804, 37638.11
853.1625, 37580.80
853.6447, 37515.59
854.1268, 37454.03
854.6089, 37406.04
855.0910, 37399.46
855.5731, 37432.13
856.0552, 37459.16
856.5374, 37446.99
857.0195, 37412.71
857.5016, 37385.21
857.9837, 37362.13
858.4658, 37330.98
858.9479, 37290.97
859.4301, 37253.95
859.9122, 37225.93
860.3943, 37197.77
860.8764, 37149.34
861.3585, 37083.52
861.8406, 37084.33
862.3228, 37179.37
862.8049, 37229.64
863.2870, 37187.14
863.7691, 37127.82
864.2512, 37113.03
864.7333, 37128.23
865.2155, 37121.69
865.6976, 37092.34
866.1797, 37042.95
866.6618, 36928.73
867.1439, 36848.38
867.6260, 36855.05
868.1082, 36901.35
868.5903, 36941.26
869.0724, 36970.20
869.5545, 36986.47
870.0366, 37002.75
870.5187, 36989.16
871.0009, 36909.68
871.4830, 36815.76
871.9651, 36740.93
872.4472, 36692.79
872.9293, 36680.59
873.4114, 36708.44
873.8936, 36746.64
874.3757, 36795.01
874.8578, 36825.05
875.3399, 36782.09
875.8220, 36702.71
876.3041, 36666.71
876.7863, 36684.63
877.2684, 36710.06
877.7505, 36711.40
878.2326, 36704.94
878.7147, 36716.25
879.1968, 36742.17
879.6790, 36779.87
880.1611, 36825.62
880.6432, 36837.92
881.1253, 36798.06
881.6074, 36748.70
882.0895, 36743.50
882.5717, 36772.68
883.0538, 36768.48
883.5359, 36723.57
884.0180, 36704.64
884.5001, 36732.59
884.9822, 36753.00
885.4644, 36724.62
885.9465, 36673.20
886.4286, 36656.54
886.9107, 36684.64
887.3928, 36702.53
887.8749, 36703.59
888.3571, 36705.23
888.8392, 36721.91
889.3213, 36732.07
889.8034, 36715.17
890.2855, 36675.53
890.7676, 36633.07
891.2498, 36592.84
891.7319, 36543.46
892.2140, 36466.77
892.6961, 36398.31
893.1782, 36354.17
893.6603, 36330.68
894.1425, 36333.76
894.6246, 36359.18
895.1067, 36357.16
895.5888, 36281.73
896.0709, 36205.67
896.5530, 36175.36
897.0352, 36157.84
897.5173, 36109.73
897.9994, 36045.34
898.4815, 36023.09
898.9636, 36064.59
899.4457, 36073.47
899.9279, 35915.43
900.4100, 35727.92
900.8921, 35706.53
901.3742, 35780.39
901.8563, 35792.94
902.3384, 35722.98
902.8206, 35638.89
903.3027, 35580.84
903.7848, 35545.71
904.2669, 35546.15
904.7490, 35563.57
905.2311, 35522.77
905.7133, 35433.11
906.1954, 35398.27
906.6775, 35451.31
907.1596, 35501.34
907.6417, 35455.64
908.1238, 35348.61
908.6060, 35298.07
909.0881, 35304.70
909.5702, 35277.67
910.0523, 35202.78
910.5344, 35130.88
911.0165, 35085.26
911.4987, 35060.68
911.9808, 35054.71
912.4629, 35066.71
912.9450, 35041.30
913.4271, 34950.07
913.9092, 34920.45
914.3914, 35025.18
914.8735, 35095.90
915.3556, 34991.59
915.8377, 34795.91
916.3198, 34703.39
916.8019, 34743.82
917.2841, 34776.10
917.7662, 34801.70
918.2483, 34816.97
918.7304, 34823.95
919.2125, 34817.98
919.6946, 34790.70
920.1768, 34747.01
920.6589, 34702.63
921.1410, 34643.61
921.6231, 34617.34
922.1052, 34664.95
922.5873, 34706.98
923.0695, 34710.64
923.5516, 34686.46
924.0337, 34634.99
924.5158, 34564.73
924.9979, 34522.40
925.4800, 34558.77
925.9622, 34564.11
926.4443, 34455.34
926.9264, 34334.23
927.4085, 34289.09
927.8906, 34288.12
928.3727, 34261.53
928.8549, 34197.26
929.3370, 34150.32
929.8191, 34154.78
930.3012, 34183.71
930.7833, 34242.98
931.2654, 34297.59
931.7476, 34296.38
932.2297, 34250.93
932.7118, 34198.29
933.1939, 34152.53
933.6760, 34132.59
934.1581, 34190.52
934.6403, 34254.64
935.1224, 34221.06
935.6045, 34126.34
936.0866, 34040.01
936.5687, 33973.93
937.0508, 33913.00
937.5330, 33848.70
938.0151, 33799.84
938.4972, 33800.47
938.9793, 33829.00
939.4614, 33838.18
939.9435, 33829.74
940.4257, 33812.02
940.9078, 33788.12
941.3899, 33766.41
941.8720, 33753.04
942.3541, 33743.91
942.8362, 33732.24
943.3184, 33718.29
943.8005, 33709.34
944.2826, 33703.50
944.7647, 33660.79
945.2468, 33567.46
945.7289, 33494.13
946.2111, 33511.91
946.6932, 33579.11
947.1753, 33572.79
947.6574, 33493.31
948.1395, 33432.86
948.6216, 33398.54
949.1038, 33367.84
949.5859, 33331.75
950.0680, 33298.32
950.5501, 33277.67
951.0322, 33267.05
951.5143, 33254.61
951.9965, 33243.22
952.4786, 33207.81
952.9607, 33138.25
953.4428, 33072.72
953.9249, 33024.16
954.4070, 32998.89
954.8892, 33008.18
955.3713, 33050.51
955.8534, 33096.60
956.3355, 33157.81
956.8176, 33187.27
957.2997, 33177.61
957.7819, 33136.88
958.2640, 33053.56
958.7461, 32959.01
959.2282, 32907.50
959.7103, 32902.88
960.1924, 32880.95
960.6746, 32804.95
961.1567, 32788.49
961.6388, 32897.24
962.1209, 33002.39
962.6030, 33033.15
963.0851, 33003.40
963.5673, 32929.48
964.0494, 32794.62
964.5315, 32705.56
965.0136, 32686.25
965.4957, 32678.00
965.9778, 32670.51
966.4600, 32671.63
966.9421, 32701.85
967.4242, 32740.93
967.9063, 32741.01
968.3884, 32693.02
968.8705, 32638.29
969.3527, 32570.04
969.8348, 32506.71
970.3169, 32441.30
970.7990, 32392.99
971.2811, 32390.85
971.7632, 32415.28
972.2454, 32411.87
972.7275, 32363.71
973.2096, 32330.52
973.6917, 32336.49
974.1738, 32337.91
974.6559, 32300.79
975.1381, 32268.31
975.6202, 32298.18
976.1023, 32364.51
976.5844, 32377.95
977.0665, 32302.63
977.5486, 32247.70
978.0308, 32253.03
978.5129, 32264.82
978.9950, 32281.29
979.4771, 32276.23
979.9592, 32202.57
980.4413, 32084.95
980.9235, 32011.87
981.4056, 32012.22
981.8877, 32027.04
982.3698, 32058.39
982.8519, 32077.14
983.3340, 32064.05
983.8162, 32033.86
984.2983, 31999.25
984.7804, 31963.12
985.2625, 31930.03
985.7446, 31906.22
986.2267, 31870.19
986.7089, 31789.96
987.1910, 31722.34
987.6731, 31707.26
988.1552, 31718.51
988.6373, 31735.50
989.1194, 31748.99
989.6016, 31738.02
990.0837, 31685.42
990.5658, 31640.49
991.0479, 31632.84
991.5300, 31629.31
992.0121, 31607.32
992.4943, 31578.03
992.9764, 31553.56
993.4585, 31536.19
993.9406, 31527.82
994.4227, 31536.16
994.9048, 31532.85
995.3870, 31501.59
995.8691, 31458.28
996.3512, 31414.92
996.8333, 31365.36
997.3154, 31277.99
997.7975, 31171.94
998.2797, 31139.35
998.7618, 31243.47
999.2439, 31326.95
999.7260, 31314.77
1000.208, 31259.46
1000.690, 31160.99
1001.172, 31064.95
1001.654, 31027.26
1002.137, 31046.04
1002.619, 31089.49
1003.101, 31167.90
1003.583, 31202.84
1004.065, 31126.59
1004.547, 31027.98
1005.029, 30946.30
1005.511, 30893.00
1005.994, 30893.47
1006.476, 30933.56
1006.958, 30956.42
1007.440, 30940.59
1007.922, 30914.31
1008.404, 30872.47
1008.886, 30844.31
1009.368, 30864.24
1009.850, 30898.38
1010.333, 30911.59
1010.815, 30899.19
1011.297, 30861.21
1011.779, 30786.19
1012.261, 30727.93
1012.743, 30728.49
1013.225, 30730.70
1013.707, 30694.81
1014.190, 30645.30
1014.672, 30611.79
1015.154, 30592.01
1015.636, 30562.31
1016.118, 30508.24
1016.600, 30479.71
1017.082, 30538.38
1017.564, 30577.38
1018.046, 30504.28
1018.529, 30409.37
1019.011, 30403.96
1019.493, 30459.14
1019.975, 30453.90
1020.457, 30339.08
1020.939, 30273.33
1021.421, 30367.71
1021.903, 30448.52
1022.385, 30419.21
1022.868, 30353.86
1023.350, 30321.17
1023.832, 30311.51
1024.314, 30279.74
1024.796, 30209.81
1025.278, 30170.35
1025.760, 30204.29
1026.242, 30238.95
1026.725, 30257.91
1027.207, 30257.40
1027.689, 30227.01
1028.171, 30177.65
1028.653, 30131.50
1029.135, 30092.31
1029.617, 30049.04
1030.099, 29971.74
1030.582, 29928.92
1031.064, 29978.29
1031.546, 30028.33
1032.028, 30013.03
1032.510, 29956.79
1032.992, 29900.95
1033.474, 29847.24
1033.956, 29813.32
1034.438, 29813.96
1034.921, 29815.72
1035.403, 29823.08
1035.885, 29819.50
1036.367, 29792.81
1036.849, 29751.19
1037.331, 29697.23
1037.813, 29629.62
1038.295, 29603.34
1038.777, 29647.76
1039.260, 29686.96
1039.742, 29741.11
1040.224, 29757.00
1040.706, 29688.68
1041.188, 29589.04
1041.670, 29515.14
1042.152, 29466.86
1042.634, 29443.74
1043.116, 29464.73
1043.599, 29469.88
1044.081, 29456.76
1044.563, 29427.48
1045.045, 29373.36
1045.527, 29316.21
1046.009, 29277.92
1046.491, 29255.25
1046.973, 29231.66
1047.456, 29201.35
1047.938, 29189.98
1048.420, 29200.94
1048.902, 29223.64
1049.384, 29261.72
1049.866, 29295.18
1050.348, 29312.53
1050.830, 29305.09
1051.313, 29234.97
1051.795, 29087.39
1052.277, 29040.65
1052.759, 29118.22
1053.241, 29142.65
1053.723, 29061.40
1054.205, 28984.54
1054.687, 28989.51
1055.169, 29030.06
1055.651, 29016.35
1056.134, 28955.33
1056.616, 28937.83
1057.098, 28963.41
1057.580, 28951.18
1058.062, 28886.73
1058.544, 28845.78
1059.026, 28871.16
1059.508, 28899.63
1059.991, 28831.86
1060.473, 28713.33
1060.955, 28722.12
1061.437, 28827.07
1061.919, 28849.85
1062.401, 28779.63
1062.883, 28704.72
1063.365, 28660.40
1063.848, 28637.33
1064.330, 28629.56
1064.812, 28632.26
1065.294, 28647.01
1065.776, 28661.63
1066.258, 28635.50
1066.740, 28580.86
1067.222, 28555.48
1067.704, 28568.51
1068.187, 28559.84
1068.669, 28476.88
1069.151, 28400.09
1069.633, 28453.39
1070.115, 28544.09
1070.597, 28531.26
1071.079, 28458.65
1071.561, 28427.38
1072.043, 28443.97
1072.526, 28446.69
1073.008, 28405.33
1073.490, 28363.45
1073.972, 28350.39
1074.454, 28352.30
1074.936, 28370.00
1075.418, 28386.74
1075.900, 28381.66
1076.383, 28358.25
1076.865, 28333.97
1077.347, 28313.86
1077.829, 28276.87
1078.311, 28195.43
1078.793, 28119.67
1079.275, 28062.88
1079.757, 28029.82
1080.240, 28041.16
1080.722, 28069.93
1081.204, 28072.88
1081.686, 28045.99
1082.168, 28015.31
1082.650, 27961.02
1083.132, 27940.67
1083.614, 28012.05
1084.096, 28060.31
1084.578, 28010.56
1085.061, 27929.09
1085.543, 27888.27
1086.025, 27880.01
1086.507, 27862.23
1086.989, 27827.38
1087.471, 27804.20
1087.953, 27803.32
1088.435, 27792.35
1088.918, 27760.31
1089.400, 27720.05
1089.882, 27676.00
1090.364, 27635.85
1090.846, 27617.77
1091.328, 27622.67
1091.810, 27626.37
1092.292, 27631.52
1092.775, 27613.79
1093.257, 27564.73
1093.739, 27524.45
1094.221, 27514.63
1094.703, 27512.43
1095.185, 27484.06
1095.667, 27444.74
1096.149, 27466.86
1096.631, 27536.86
1097.114, 27533.64
1097.596, 27457.97
1098.078, 27426.31
1098.560, 27472.13
1099.042, 27497.86
1099.524, 27417.50
1100.006, 27311.89
1100.488, 27323.98
1100.970, 27390.86
1101.453, 27386.45
1101.935, 27325.77
1102.417, 27243.32
1102.899, 27159.14
1103.381, 27116.53
1103.863, 27138.10
1104.345, 27169.29
1104.827, 27168.30
1105.310, 27153.19
1105.792, 27133.00
1106.274, 27114.06
1106.756, 27102.04
1107.238, 27097.82
1107.720, 27106.40
1108.202, 27127.06
1108.684, 27134.95
1109.167, 27119.26
1109.649, 27090.04
1110.131, 27044.49
1110.613, 26994.06
1111.095, 26944.02
1111.577, 26894.42
1112.059, 26835.01
1112.541, 26773.73
1113.023, 26752.03
1113.505, 26792.65
1113.988, 26826.34
1114.470, 26863.47
1114.952, 26873.19
1115.434, 26837.73
1115.916, 26787.14
1116.398, 26732.81
1116.880, 26685.17
1117.362, 26664.50
1117.845, 26670.88
1118.327, 26687.61
1118.809, 26720.52
1119.291, 26727.08
1119.773, 26697.71
1120.255, 26674.32
1120.737, 26676.20
1121.219, 26678.88
1121.702, 26656.78
1122.184, 26618.15
1122.666, 26584.47
1123.148, 26553.96
1123.630, 26507.37
1124.112, 26452.33
1124.594, 26438.76
1125.076, 26472.55
1125.558, 26508.98
1126.041, 26523.71
1126.523, 26513.90
1127.005, 26459.42
1127.487, 26392.85
1127.969, 26361.78
1128.451, 26348.48
1128.933, 26328.65
1129.415, 26298.92
1129.897, 26253.81
1130.380, 26195.52
1130.862, 26158.82
1131.344, 26173.98
1131.826, 26191.61
1132.308, 26189.05
1132.790, 26176.80
1133.272, 26149.40
1133.754, 26125.59
1134.237, 26131.66
1134.719, 26161.34
1135.201, 26185.27
1135.683, 26203.30
1136.165, 26204.00
1136.647, 26174.47
1137.129, 26145.56
1137.611, 26135.77
1138.094, 26106.14
1138.576, 26016.68
1139.058, 25915.94
1139.540, 25877.80
1140.022, 25895.75
1140.504, 25907.21
1140.986, 25910.57
1141.468, 25930.03
1141.950, 25973.19
1142.432, 25950.16
1142.915, 25827.22
1143.397, 25722.77
1143.879, 25733.53
1144.361, 25792.13
1144.843, 25777.38
1145.325, 25716.26
1145.807, 25690.53
1146.289, 25689.87
1146.772, 25677.66
1147.254, 25653.53
1147.736, 25646.55
1148.218, 25665.04
1148.700, 25663.65
1149.182, 25591.18
1149.664, 25515.63
1150.146, 25497.95
1150.629, 25506.45
1151.111, 25521.01
1151.593, 25533.47
1152.075, 25535.78
1152.557, 25528.04
1153.039, 25517.62
1153.521, 25510.80
1154.003, 25483.09
1154.485, 25405.75
1154.968, 25338.56
1155.450, 25292.13
1155.932, 25270.02
1156.414, 25290.08
1156.896, 25321.79
1157.378, 25319.90
1157.860, 25287.12
1158.342, 25253.45
1158.824, 25214.38
1159.307, 25197.91
1159.789, 25209.82
1160.271, 25221.65
1160.753, 25226.94
1161.235, 25211.85
1161.717, 25164.01
1162.199, 25100.85
1162.681, 25043.30
1163.164, 24997.27
1163.646, 24989.46
1164.128, 25008.69
1164.610, 25027.52
1165.092, 25037.31
1165.574, 25016.13
1166.056, 24961.90
1166.538, 24921.25
1167.021, 24931.62
1167.503, 24949.10
1167.985, 24938.66
1168.467, 24917.99
1168.949, 24900.94
1169.431, 24884.54
1169.913, 24860.01
1170.395, 24832.29
1170.877, 24817.59
1171.359, 24820.44
1171.842, 24822.01
1172.324, 24831.22
1172.806, 24819.80
1173.288, 24763.43
1173.770, 24715.70
1174.252, 24710.03
1174.734, 24706.64
1175.216, 24656.07
1175.699, 24580.48
1176.181, 24560.86
1176.663, 24601.63
1177.145, 24642.32
1177.627, 24683.80
1178.109, 24684.55
1178.591, 24637.71
1179.073, 24579.00
1179.556, 24525.68
1180.038, 24493.48
1180.520, 24510.42
1181.002, 24537.88
1181.484, 24512.25
1181.966, 24454.12
1182.448, 24375.74
1182.930, 24303.57
1183.412, 24302.88
1183.895, 24360.10
1184.377, 24377.18
1184.859, 24310.66
1185.341, 24263.42
1185.823, 24322.40
1186.305, 24356.05
1186.787, 24266.19
1187.269, 24177.43
1187.751, 24203.06
1188.234, 24265.42
1188.716, 24234.30
1189.198, 24132.68
1189.680, 24112.30
1190.162, 24212.52
1190.644, 24252.30
1191.126, 24221.17
1191.608, 24169.05
1192.091, 24100.04
1192.573, 24064.12
1193.055, 24094.13
1193.537, 24136.25
1194.019, 24120.79
1194.501, 24071.15
1194.983, 24046.55
1195.465, 24033.37
1195.948, 23977.10
1196.430, 23902.89
1196.912, 23903.65
1197.394, 23977.44
1197.876, 24025.44
1198.358, 24003.07
1198.840, 23961.63
1199.322, 23915.68
1199.804, 23882.63
1200.286, 23896.17
1200.769, 23901.78
1201.251, 23834.72
1201.733, 23745.61
1202.215, 23718.42
1202.697, 23746.61
1203.179, 23744.62
1203.661, 23696.21
1204.143, 23669.89
1204.626, 23672.21
1205.108, 23677.63
1205.590, 23684.40
1206.072, 23673.77
1206.554, 23631.24
1207.036, 23597.66
1207.518, 23630.41
1208.000, 23690.39
1208.483, 23676.12
1208.965, 23609.78
1209.447, 23541.47
1209.929, 23482.10
1210.411, 23455.39
1210.893, 23459.96
1211.375, 23477.97
1211.857, 23502.93
1212.339, 23511.72
1212.822, 23476.59
1213.304, 23439.94
1213.786, 23439.65
1214.268, 23428.61
1214.750, 23343.38
1215.232, 23250.96
1215.714, 23247.10
1216.196, 23308.78
1216.678, 23344.94
1217.161, 23358.03
1217.643, 23319.50
1218.125, 23203.02
1218.607, 23153.67
1219.089, 23201.23
1219.571, 23250.52
1220.053, 23263.42
1220.535, 23249.70
1221.018, 23216.48
1221.500, 23169.55
1221.982, 23107.55
1222.464, 23046.66
1222.946, 23023.75
1223.428, 23026.65
1223.910, 23035.91
1224.392, 23044.78
1224.875, 23046.46
1225.357, 23039.26
1225.839, 23025.93
1226.321, 23002.89
1226.803, 22983.44
1227.285, 22971.54
1227.767, 22964.76
1228.249, 22984.51
1228.731, 22983.62
1229.214, 22908.90
1229.696, 22808.69
1230.178, 22768.85
1230.660, 22782.71
1231.142, 22781.19
1231.624, 22763.91
1232.106, 22730.00
1232.588, 22682.14
1233.070, 22694.85
1233.553, 22778.96
1234.035, 22822.48
1234.517, 22760.24
1234.999, 22684.00
1235.481, 22702.96
1235.963, 22741.11
1236.445, 22707.01
1236.927, 22652.58
1237.410, 22651.47
1237.892, 22662.51
1238.374, 22598.23
##END=



