##NAMES=Clinoptilolite-Ca
##RRUFFID=R061098
##IDEAL CHEMISTRY=Ca_3_(Si_30_Al_6_)O_72_&#183;20H_2_O
##LOCALITY=Fish Creek Quarry, Clackamas River, Estacada, Clackamas County, Oregon, USA
##OWNER=RRUFF
##SOURCE=Michael Scott
##DESCRIPTION=Druse of colorless, clear tabular somewhat pseudohexagonal crystals in vug
##STATUS=The identification of this mineral is confirmed by single-crystal X-ray diffraction and chemical analysis.
##URL=rruff.info/R061098
##MEASURED CHEMISTRY=(Ca_1.90_K_1.85_Na_0.23_Mg_0.11_)_Σ=4.09_(Si_29.90_Al_6.10_)_Σ=36_O_72_·21.90H_2_O; H_2_O estimated by difference
118.1900, 2430.048
118.6721, 2600.389
119.1542, 2782.604
119.6363, 2965.192
120.1184, 3134.957
120.6006, 3319.736
121.0827, 3545.129
121.5648, 3805.068
122.0469, 4066.607
122.5290, 4322.442
123.0111, 4564.350
123.4933, 4780.663
123.9754, 4957.541
124.4575, 5112.066
124.9396, 5260.002
125.4217, 5399.722
125.9038, 5539.525
126.3860, 5659.485
126.8681, 5710.492
127.3502, 5707.396
127.8323, 5680.199
128.3144, 5639.157
128.7965, 5604.973
129.2787, 5579.021
129.7608, 5557.446
130.2429, 5538.430
130.7250, 5520.783
131.2071, 5495.224
131.6892, 5442.741
132.1714, 5369.110
132.6535, 5323.854
133.1356, 5319.663
133.6177, 5341.152
134.0998, 5341.650
134.5819, 5316.240
135.0640, 5294.244
135.5462, 5303.587
136.0283, 5345.471
136.5104, 5394.559
136.9925, 5449.863
137.4746, 5510.628
137.9567, 5550.079
138.4389, 5565.504
138.9210, 5567.469
139.4031, 5573.258
139.8852, 5590.217
140.3673, 5591.348
140.8494, 5564.188
141.3316, 5499.840
141.8137, 5443.989
142.2958, 5396.451
142.7779, 5357.239
143.2600, 5325.784
143.7421, 5306.835
144.2243, 5289.617
144.7064, 5269.710
145.1885, 5249.571
145.6706, 5222.290
146.1527, 5183.364
146.6348, 5134.833
147.1170, 5094.944
147.5991, 5066.744
148.0812, 5044.433
148.5633, 5024.073
149.0454, 5007.806
149.5275, 4990.159
150.0097, 4969.813
150.4918, 4945.901
150.9739, 4922.669
151.4560, 4894.572
151.9381, 4868.750
152.4202, 4852.833
152.9024, 4853.521
153.3845, 4858.274
153.8666, 4866.989
154.3487, 4888.552
154.8308, 4891.224
155.3129, 4858.424
155.7950, 4804.597
156.2772, 4758.556
156.7593, 4727.063
157.2414, 4704.059
157.7235, 4687.533
158.2056, 4686.186
158.6877, 4679.132
159.1699, 4660.447
159.6520, 4631.774
160.1341, 4599.221
160.6162, 4561.258
161.0983, 4522.335
161.5804, 4485.628
162.0626, 4446.501
162.5447, 4415.266
163.0268, 4403.341
163.5089, 4409.339
163.9910, 4405.927
164.4731, 4374.374
164.9553, 4328.057
165.4374, 4282.591
165.9195, 4242.485
166.4016, 4205.967
166.8837, 4172.297
167.3658, 4141.683
167.8480, 4110.978
168.3301, 4076.865
168.8122, 4041.149
169.2943, 4007.270
169.7764, 3977.428
170.2585, 3949.769
170.7407, 3923.035
171.2228, 3897.523
171.7049, 3870.848
172.1870, 3839.160
172.6691, 3803.945
173.1512, 3770.908
173.6334, 3743.192
174.1155, 3719.334
174.5976, 3697.830
175.0797, 3679.169
175.5618, 3661.656
176.0439, 3643.160
176.5260, 3623.895
177.0082, 3605.961
177.4903, 3593.047
177.9724, 3582.416
178.4545, 3568.647
178.9366, 3550.268
179.4187, 3527.746
179.9009, 3499.740
180.3830, 3466.002
180.8651, 3434.275
181.3472, 3412.698
181.8293, 3399.140
182.3114, 3386.396
182.7936, 3366.062
183.2757, 3345.106
183.7578, 3344.220
184.2399, 3366.513
184.7220, 3390.490
185.2041, 3383.885
185.6863, 3351.037
186.1684, 3324.589
186.6505, 3327.293
187.1326, 3350.645
187.6147, 3360.202
188.0968, 3352.539
188.5790, 3335.430
189.0611, 3318.581
189.5432, 3302.055
190.0253, 3288.047
190.5074, 3279.947
190.9895, 3276.785
191.4717, 3269.413
191.9538, 3256.320
192.4359, 3239.546
192.9180, 3223.290
193.4001, 3207.628
193.8822, 3191.676
194.3644, 3173.037
194.8465, 3151.933
195.3286, 3136.699
195.8107, 3130.153
196.2928, 3129.755
196.7749, 3127.826
197.2570, 3124.739
197.7392, 3118.485
198.2213, 3106.599
198.7034, 3088.614
199.1855, 3068.942
199.6676, 3046.966
200.1497, 3023.537
200.6319, 3005.590
201.1140, 2985.128
201.5961, 2987.279
202.0782, 2984.780
202.5603, 2977.883
203.0424, 2953.411
203.5246, 2951.631
204.0067, 2940.758
204.4888, 2929.513
204.9709, 2930.929
205.4530, 2909.013
205.9352, 2910.227
206.4173, 2898.231
206.8994, 2887.850
207.3815, 2867.839
207.8636, 2835.607
208.3457, 2816.814
208.8279, 2815.563
209.3100, 2823.518
209.7921, 2825.859
210.2742, 2821.541
210.7563, 2814.441
211.2384, 2805.942
211.7206, 2795.579
212.2027, 2785.488
212.6848, 2775.841
213.1669, 2766.330
213.6490, 2756.581
214.1311, 2746.953
214.6133, 2736.136
215.0954, 2721.685
215.5775, 2700.043
216.0596, 2687.938
216.5417, 2690.487
217.0238, 2702.490
217.5059, 2704.722
217.9881, 2693.036
218.4702, 2678.568
218.9523, 2668.726
219.4344, 2667.283
219.9165, 2660.518
220.3986, 2644.950
220.8808, 2622.637
221.3629, 2604.489
221.8450, 2588.580
222.3271, 2579.541
222.8092, 2582.188
223.2913, 2603.176
223.7735, 2620.757
224.2556, 2630.966
224.7377, 2634.348
225.2198, 2639.678
225.7019, 2649.129
226.1840, 2657.869
226.6662, 2661.494
227.1483, 2657.416
227.6304, 2652.955
228.1125, 2648.702
228.5946, 2644.607
229.0767, 2643.026
229.5589, 2645.179
230.0410, 2648.665
230.5231, 2651.486
231.0052, 2655.085
231.4873, 2655.041
231.9694, 2646.752
232.4516, 2627.779
232.9337, 2627.483
233.4158, 2657.566
233.8979, 2696.692
234.3800, 2717.202
234.8621, 2706.458
235.3443, 2699.356
235.8264, 2706.713
236.3085, 2732.601
236.7906, 2749.750
237.2727, 2754.736
237.7548, 2753.362
238.2369, 2754.048
238.7191, 2759.378
239.2012, 2762.443
239.6833, 2759.654
240.1654, 2747.507
240.6475, 2743.581
241.1296, 2750.901
241.6118, 2764.653
242.0939, 2777.008
242.5760, 2787.419
243.0581, 2797.304
243.5402, 2807.614
244.0223, 2819.550
244.5045, 2827.519
244.9866, 2829.437
245.4687, 2828.424
245.9508, 2830.313
246.4329, 2834.949
246.9150, 2842.848
247.3972, 2855.455
247.8793, 2876.834
248.3614, 2891.751
248.8435, 2899.127
249.3256, 2900.426
249.8077, 2897.397
250.2899, 2882.926
250.7720, 2875.304
251.2541, 2885.531
251.7362, 2928.220
252.2183, 2951.490
252.7004, 2946.262
253.1826, 2924.050
253.6647, 2915.340
254.1468, 2925.905
254.6289, 2940.667
255.1110, 2953.456
255.5931, 2965.388
256.0753, 2971.667
256.5574, 2968.541
257.0395, 2960.698
257.5216, 2963.567
258.0037, 2983.562
258.4858, 3003.076
258.9680, 3012.775
259.4501, 3010.081
259.9322, 3004.957
260.4143, 2997.111
260.8964, 2987.368
261.3785, 2977.737
261.8607, 2966.058
262.3428, 2950.086
262.8249, 2954.851
263.3070, 2954.966
263.7891, 2950.683
264.2712, 2928.825
264.7534, 2929.660
265.2355, 2921.401
265.7176, 2912.770
266.1997, 2916.800
266.6818, 2897.498
267.1639, 2901.328
267.6461, 2895.923
268.1282, 2894.744
268.6103, 2884.416
269.0924, 2876.913
269.5745, 2879.602
270.0566, 2886.985
270.5387, 2891.447
271.0208, 2893.273
271.5030, 2889.115
271.9851, 2875.310
272.4672, 2856.664
272.9493, 2851.107
273.4314, 2862.409
273.9135, 2874.819
274.3957, 2877.943
274.8778, 2870.995
275.3599, 2860.140
275.8420, 2843.743
276.3241, 2825.270
276.8062, 2816.437
277.2884, 2818.985
277.7705, 2824.229
278.2526, 2826.355
278.7347, 2825.144
279.2168, 2824.960
279.6989, 2827.015
280.1811, 2829.848
280.6632, 2830.412
281.1453, 2829.064
281.6274, 2822.933
282.1095, 2805.901
282.5916, 2778.084
283.0738, 2759.522
283.5559, 2753.581
284.0380, 2757.466
284.5201, 2767.595
285.0022, 2784.809
285.4843, 2798.257
285.9665, 2797.451
286.4486, 2783.922
286.9307, 2774.537
287.4128, 2772.184
287.8949, 2774.508
288.3770, 2777.987
288.8592, 2782.724
289.3413, 2785.656
289.8234, 2786.461
290.3055, 2784.355
290.7876, 2773.104
291.2697, 2748.094
291.7519, 2719.822
292.2340, 2706.906
292.7161, 2709.024
293.1982, 2718.409
293.6803, 2734.937
294.1624, 2755.362
294.6446, 2768.241
295.1267, 2770.706
295.6088, 2768.018
296.0909, 2769.565
296.5730, 2774.133
297.0551, 2773.683
297.5373, 2756.800
298.0194, 2731.653
298.5015, 2716.983
298.9836, 2717.834
299.4657, 2724.104
299.9478, 2723.069
300.4300, 2716.382
300.9121, 2710.541
301.3942, 2709.967
301.8763, 2712.694
302.3584, 2716.177
302.8405, 2720.697
303.3227, 2724.223
303.8048, 2723.620
304.2869, 2720.172
304.7690, 2717.632
305.2511, 2720.362
305.7332, 2724.191
306.2154, 2723.959
306.6975, 2718.278
307.1796, 2711.308
307.6617, 2702.334
308.1438, 2694.493
308.6259, 2694.489
309.1081, 2714.848
309.5901, 2739.257
310.0723, 2754.252
310.5544, 2757.505
311.0365, 2754.330
311.5186, 2744.123
312.0007, 2730.035
312.4828, 2717.900
312.9650, 2704.452
313.4471, 2697.693
313.9292, 2706.071
314.4113, 2733.151
314.8934, 2758.571
315.3755, 2773.356
315.8577, 2780.528
316.3398, 2783.960
316.8219, 2785.169
317.3040, 2782.960
317.7861, 2773.354
318.2682, 2754.192
318.7504, 2743.678
319.2325, 2752.769
319.7146, 2771.991
320.1967, 2790.106
320.6788, 2803.295
321.1609, 2815.976
321.6431, 2832.033
322.1252, 2852.572
322.6073, 2864.005
323.0894, 2852.069
323.5715, 2835.002
324.0536, 2829.698
324.5358, 2846.073
325.0179, 2866.689
325.5000, 2895.722
325.9821, 2933.815
326.4642, 2949.533
326.9464, 2917.665
327.4285, 2876.152
327.9106, 2853.054
328.3927, 2864.023
328.8748, 2874.935
329.3569, 2885.265
329.8391, 2894.527
330.3212, 2893.658
330.8033, 2871.146
331.2854, 2849.070
331.7675, 2842.885
332.2496, 2865.101
332.7318, 2880.880
333.2139, 2886.663
333.6960, 2883.863
334.1781, 2878.473
334.6602, 2866.838
335.1423, 2858.248
335.6245, 2859.722
336.1066, 2877.054
336.5887, 2886.062
337.0708, 2881.388
337.5529, 2869.400
338.0350, 2869.902
338.5172, 2886.475
338.9993, 2904.878
339.4814, 2918.798
339.9635, 2928.158
340.4456, 2932.318
340.9277, 2931.064
341.4099, 2924.809
341.8920, 2910.315
342.3741, 2885.914
342.8562, 2869.346
343.3383, 2872.688
343.8204, 2894.142
344.3026, 2914.668
344.7847, 2934.263
345.2668, 2950.455
345.7489, 2957.199
346.2310, 2955.345
346.7131, 2954.129
347.1953, 2960.521
347.6774, 2970.851
348.1595, 2971.417
348.6416, 2961.277
349.1237, 2950.323
349.6058, 2948.761
350.0880, 2955.080
350.5700, 2964.711
351.0522, 2980.287
351.5343, 2996.075
352.0164, 3001.234
352.4985, 2996.118
352.9806, 2990.778
353.4627, 2992.756
353.9449, 2999.989
354.4270, 3009.177
354.9091, 3020.066
355.3912, 3031.574
355.8733, 3042.022
356.3554, 3051.605
356.8376, 3062.541
357.3197, 3073.894
357.8018, 3088.090
358.2839, 3108.574
358.7660, 3142.831
359.2481, 3173.360
359.7303, 3187.662
360.2124, 3190.087
360.6945, 3194.100
361.1766, 3210.751
361.6587, 3227.275
362.1408, 3234.042
362.6230, 3223.060
363.1051, 3217.283
363.5872, 3225.897
364.0693, 3244.168
364.5514, 3262.611
365.0335, 3285.023
365.5157, 3302.434
365.9978, 3307.676
366.4799, 3291.369
366.9620, 3291.127
367.4441, 3322.396
367.9262, 3367.944
368.4084, 3404.725
368.8905, 3423.807
369.3726, 3443.719
369.8547, 3469.413
370.3368, 3502.261
370.8189, 3527.983
371.3011, 3543.530
371.7832, 3554.361
372.2653, 3564.986
372.7474, 3573.217
373.2295, 3586.099
373.7116, 3606.532
374.1938, 3633.351
374.6759, 3654.730
375.1580, 3666.958
375.6401, 3681.389
376.1222, 3711.081
376.6043, 3760.606
377.0865, 3791.913
377.5686, 3794.167
378.0507, 3780.833
378.5328, 3788.005
379.0149, 3817.428
379.4970, 3853.207
379.9792, 3884.075
380.4613, 3911.600
380.9434, 3948.486
381.4255, 3997.572
381.9076, 4052.111
382.3897, 4105.771
382.8719, 4158.036
383.3540, 4201.974
383.8361, 4228.229
384.3182, 4244.893
384.8003, 4268.912
385.2824, 4300.600
385.7646, 4340.704
386.2467, 4397.818
386.7288, 4464.261
387.2109, 4523.333
387.6930, 4562.487
388.1751, 4595.625
388.6573, 4635.613
389.1394, 4682.692
389.6215, 4735.494
390.1036, 4795.133
390.5857, 4859.093
391.0678, 4925.766
391.5499, 4996.917
392.0320, 5067.471
392.5142, 5134.599
392.9963, 5198.465
393.4784, 5259.957
393.9605, 5317.791
394.4426, 5373.846
394.9247, 5428.544
395.4069, 5479.121
395.8890, 5534.426
396.3711, 5602.340
396.8532, 5675.211
397.3353, 5738.736
397.8174, 5784.425
398.2996, 5826.744
398.7817, 5867.224
399.2638, 5902.703
399.7459, 5949.488
400.2280, 6018.114
400.7101, 6091.645
401.1923, 6154.506
401.6744, 6208.873
402.1565, 6247.178
402.6386, 6264.171
403.1207, 6261.343
403.6028, 6261.336
404.0850, 6266.220
404.5671, 6270.278
405.0492, 6268.403
405.5313, 6259.256
406.0134, 6253.022
406.4955, 6254.122
406.9777, 6256.222
407.4598, 6243.960
407.9419, 6217.034
408.4240, 6176.905
408.9061, 6117.805
409.3882, 6043.467
409.8704, 5979.876
410.3525, 5930.386
410.8346, 5884.765
411.3167, 5831.768
411.7988, 5770.574
412.2809, 5701.104
412.7631, 5616.265
413.2452, 5524.112
413.7273, 5439.440
414.2094, 5361.979
414.6915, 5285.209
415.1736, 5200.893
415.6558, 5114.526
416.1379, 5038.032
416.6200, 4982.551
417.1021, 4927.889
417.5842, 4859.766
418.0663, 4779.555
418.5485, 4695.237
419.0306, 4603.085
419.5127, 4512.361
419.9948, 4428.348
420.4769, 4355.516
420.9590, 4285.817
421.4412, 4216.696
421.9233, 4149.114
422.4054, 4083.213
422.8875, 4017.825
423.3696, 3955.815
423.8517, 3900.220
424.3339, 3854.789
424.8160, 3802.563
425.2981, 3735.892
425.7802, 3667.816
426.2623, 3609.814
426.7444, 3565.958
427.2266, 3526.480
427.7087, 3491.694
428.1908, 3460.784
428.6729, 3423.867
429.1550, 3378.822
429.6371, 3332.649
430.1193, 3290.592
430.6014, 3253.234
431.0835, 3214.115
431.5656, 3170.274
432.0477, 3128.009
432.5298, 3099.340
433.0119, 3084.300
433.4940, 3077.628
433.9762, 3086.029
434.4583, 3101.801
434.9404, 3093.695
435.4225, 3059.486
435.9046, 3016.973
436.3867, 2981.670
436.8689, 2952.556
437.3510, 2927.311
437.8331, 2902.319
438.3152, 2883.492
438.7973, 2882.993
439.2794, 2897.432
439.7616, 2907.156
440.2437, 2895.367
440.7258, 2875.461
441.2079, 2860.064
441.6900, 2853.639
442.1721, 2847.612
442.6543, 2834.701
443.1364, 2819.700
443.6185, 2811.698
444.1006, 2820.449
444.5827, 2830.719
445.0648, 2837.372
445.5470, 2840.021
446.0291, 2839.373
446.5112, 2832.781
446.9933, 2824.359
447.4754, 2817.451
447.9576, 2809.419
448.4397, 2807.123
448.9218, 2814.306
449.4039, 2828.560
449.8860, 2834.934
450.3681, 2827.122
450.8503, 2822.881
451.3324, 2834.037
451.8145, 2863.865
452.2966, 2889.216
452.7787, 2909.000
453.2608, 2925.044
453.7430, 2939.416
454.2251, 2951.964
454.7072, 2966.741
455.1893, 2985.653
455.6714, 3008.086
456.1535, 3032.206
456.6357, 3057.961
457.1178, 3085.723
457.5999, 3119.485
458.0820, 3155.229
458.5641, 3180.987
459.0462, 3185.384
459.5284, 3192.945
460.0105, 3234.729
460.4926, 3301.678
460.9747, 3364.589
461.4568, 3404.552
461.9389, 3437.304
462.4211, 3474.753
462.9032, 3519.444
463.3853, 3563.955
463.8674, 3606.748
464.3495, 3647.079
464.8316, 3684.099
465.3138, 3709.509
465.7959, 3739.977
466.2780, 3782.731
466.7601, 3836.943
467.2422, 3884.824
467.7243, 3920.570
468.2065, 3955.531
468.6886, 3996.536
469.1707, 4048.465
469.6528, 4095.371
470.1349, 4133.658
470.6170, 4169.117
471.0992, 4212.863
471.5813, 4266.375
472.0634, 4323.808
472.5455, 4387.270
473.0276, 4454.745
473.5097, 4506.388
473.9918, 4540.873
474.4739, 4569.597
474.9561, 4602.046
475.4382, 4638.062
475.9203, 4676.664
476.4024, 4719.490
476.8845, 4762.119
477.3666, 4802.867
477.8488, 4839.465
478.3309, 4862.772
478.8130, 4863.765
479.2951, 4850.605
479.7772, 4829.671
480.2593, 4800.743
480.7415, 4771.287
481.2236, 4751.815
481.7057, 4732.083
482.1878, 4700.009
482.6699, 4641.458
483.1520, 4580.231
483.6342, 4527.042
484.1163, 4479.204
484.5984, 4421.187
485.0805, 4345.168
485.5626, 4262.874
486.0447, 4179.000
486.5269, 4094.050
487.0090, 4005.790
487.4911, 3910.736
487.9732, 3815.874
488.4553, 3731.073
488.9374, 3660.565
489.4196, 3589.719
489.9017, 3512.497
490.3838, 3431.872
490.8659, 3364.251
491.3480, 3311.996
491.8301, 3261.845
492.3123, 3202.277
492.7944, 3135.381
493.2765, 3068.172
493.7586, 3000.833
494.2407, 2937.414
494.7228, 2885.438
495.2050, 2843.004
495.6871, 2804.246
496.1692, 2765.458
496.6513, 2729.246
497.1334, 2699.201
497.6155, 2675.348
498.0977, 2650.702
498.5798, 2620.660
499.0619, 2588.333
499.5440, 2556.768
500.0261, 2522.014
500.5082, 2494.694
500.9904, 2484.471
501.4725, 2483.885
501.9546, 2476.119
502.4367, 2447.573
502.9188, 2422.610
503.4009, 2409.834
503.8831, 2411.356
504.3652, 2407.307
504.8473, 2393.285
505.3294, 2378.799
505.8115, 2375.213
506.2936, 2388.464
506.7758, 2385.230
507.2579, 2354.439
507.7400, 2311.402
508.2221, 2296.792
508.7042, 2311.576
509.1863, 2325.656
509.6685, 2320.573
510.1506, 2302.672
510.6327, 2292.106
511.1148, 2289.739
511.5969, 2287.922
512.0790, 2278.398
512.5612, 2264.798
513.0433, 2253.193
513.5254, 2244.134
514.0075, 2239.372
514.4896, 2245.218
514.9717, 2257.032
515.4539, 2261.801
515.9360, 2241.213
516.4181, 2222.393
516.9002, 2223.484
517.3823, 2251.842
517.8644, 2268.394
518.3466, 2255.411
518.8287, 2233.832
519.3108, 2223.074
519.7929, 2234.596
520.2750, 2238.186
520.7571, 2226.724
521.2393, 2206.208
521.7214, 2196.320
522.2035, 2200.579
522.6856, 2205.431
523.1677, 2203.241
523.6498, 2194.466
524.1320, 2192.603
524.6141, 2198.672
525.0962, 2206.908
525.5783, 2213.529
526.0604, 2217.715
526.5425, 2215.498
527.0247, 2203.610
527.5068, 2188.669
527.9889, 2176.230
528.4710, 2167.136
528.9531, 2163.776
529.4352, 2172.408
529.9174, 2184.000
530.3995, 2192.494
530.8816, 2197.279
531.3637, 2198.055
531.8458, 2191.842
532.3279, 2182.992
532.8101, 2175.376
533.2922, 2167.201
533.7743, 2163.185
534.2564, 2168.454
534.7385, 2178.027
535.2206, 2178.171
535.7027, 2160.130
536.1848, 2147.104
536.6669, 2148.327
537.1490, 2164.327
537.6312, 2179.878
538.1133, 2197.009
538.5954, 2207.509
539.0775, 2197.428
539.5596, 2169.345
540.0417, 2155.074
540.5239, 2163.909
541.0060, 2180.048
541.4881, 2175.357
541.9702, 2155.787
542.4523, 2143.912
542.9344, 2160.561
543.4166, 2184.858
543.8987, 2194.994
544.3808, 2191.005
544.8629, 2185.132
545.3450, 2183.797
545.8271, 2183.684
546.3093, 2181.763
546.7914, 2174.550
547.2735, 2170.507
547.7556, 2173.798
548.2377, 2180.958
548.7198, 2185.506
549.2020, 2181.960
549.6841, 2183.170
550.1662, 2194.405
550.6483, 2214.485
551.1304, 2227.620
551.6125, 2233.594
552.0947, 2232.932
552.5768, 2220.624
553.0589, 2196.943
553.5410, 2192.077
554.0231, 2212.563
554.5052, 2237.126
554.9874, 2233.690
555.4695, 2209.081
555.9516, 2187.791
556.4337, 2180.392
556.9158, 2179.134
557.3979, 2172.797
557.8801, 2163.825
558.3622, 2163.263
558.8443, 2191.755
559.3264, 2220.714
559.8085, 2227.034
560.2906, 2202.630
560.7728, 2181.228
561.2549, 2173.197
561.7370, 2171.696
562.2191, 2169.566
562.7012, 2160.547
563.1833, 2159.577
563.6655, 2171.837
564.1476, 2192.284
564.6297, 2205.809
565.1118, 2211.386
565.5939, 2212.588
566.0760, 2208.964
566.5582, 2201.330
567.0403, 2199.124
567.5224, 2203.030
568.0045, 2206.962
568.4866, 2203.199
568.9688, 2194.924
569.4509, 2192.103
569.9330, 2199.115
570.4151, 2205.447
570.8972, 2196.241
571.3793, 2178.874
571.8615, 2168.428
572.3436, 2176.643
572.8257, 2188.636
573.3078, 2197.641
573.7899, 2203.591
574.2720, 2207.617
574.7542, 2210.346
575.2363, 2210.956
575.7184, 2208.299
576.2005, 2199.106
576.6826, 2195.096
577.1647, 2196.978
577.6469, 2203.387
578.1290, 2213.615
578.6111, 2228.716
579.0932, 2242.552
579.5753, 2255.361
580.0574, 2264.717
580.5396, 2261.778
581.0217, 2247.251
581.5038, 2233.531
581.9859, 2227.312
582.4680, 2226.677
582.9501, 2229.879
583.4323, 2236.805
583.9144, 2243.172
584.3965, 2245.016
584.8786, 2245.080
585.3607, 2246.093
585.8428, 2248.300
586.3250, 2252.214
586.8071, 2258.896
587.2892, 2267.248
587.7713, 2275.447
588.2534, 2292.098
588.7355, 2298.007
589.2177, 2284.889
589.6998, 2256.186
590.1819, 2237.102
590.6640, 2227.759
591.1461, 2227.778
591.6282, 2240.997
592.1104, 2267.170
592.5925, 2284.025
593.0746, 2290.000
593.5567, 2292.283
594.0388, 2297.508
594.5209, 2305.290
595.0031, 2315.156
595.4852, 2328.499
595.9673, 2340.775
596.4494, 2346.531
596.9315, 2347.776
597.4136, 2349.321
597.8958, 2351.159
598.3779, 2355.765
598.8600, 2368.561
599.3421, 2389.464
599.8242, 2399.110
600.3063, 2377.728
600.7885, 2358.223
601.2706, 2358.420
601.7527, 2386.893
602.2348, 2411.674
602.7169, 2433.474
603.1990, 2450.256
603.6812, 2456.315
604.1633, 2450.701
604.6454, 2451.112
605.1275, 2463.115
605.6096, 2480.876
606.0917, 2495.221
606.5739, 2505.994
607.0560, 2513.339
607.5381, 2512.404
608.0202, 2510.841
608.5023, 2519.638
608.9844, 2538.455
609.4666, 2553.108
609.9487, 2549.783
610.4308, 2544.032
610.9129, 2548.416
611.3950, 2572.361
611.8771, 2590.590
612.3593, 2598.154
612.8414, 2599.818
613.3235, 2599.967
613.8056, 2595.975
614.2877, 2597.563
614.7698, 2609.969
615.2520, 2626.958
615.7341, 2624.085
616.2162, 2599.349
616.6983, 2584.105
617.1804, 2601.601
617.6625, 2639.336
618.1446, 2666.943
618.6267, 2684.288
619.1088, 2690.939
619.5909, 2678.396
620.0731, 2658.402
620.5552, 2645.304
621.0373, 2643.591
621.5194, 2641.922
622.0015, 2637.573
622.4836, 2629.833
622.9658, 2617.831
623.4479, 2595.159
623.9300, 2576.068
624.4121, 2564.297
624.8942, 2557.071
625.3763, 2545.119
625.8585, 2525.476
626.3406, 2509.401
626.8227, 2502.653
627.3048, 2503.507
627.7869, 2500.253
628.2690, 2492.667
628.7512, 2483.293
629.2333, 2473.191
629.7154, 2462.819
630.1975, 2453.927
630.6796, 2447.277
631.1617, 2438.481
631.6439, 2422.928
632.1260, 2403.606
632.6081, 2384.432
633.0902, 2365.139
633.5723, 2347.644
634.0544, 2333.435
634.5366, 2321.531
635.0187, 2309.589
635.5008, 2297.317
635.9829, 2285.320
636.4650, 2275.098
636.9471, 2265.788
637.4293, 2247.575
637.9114, 2216.983
638.3935, 2193.424
638.8756, 2198.620
639.3577, 2223.649
639.8398, 2224.899
640.3220, 2198.703
640.8041, 2164.884
641.2862, 2134.945
641.7683, 2110.916
642.2504, 2096.505
642.7325, 2093.880
643.2147, 2098.088
643.6968, 2117.623
644.1789, 2139.791
644.6610, 2144.824
645.1431, 2102.274
645.6252, 2072.115
646.1074, 2072.062
646.5895, 2094.369
647.0716, 2102.541
647.5537, 2089.772
648.0358, 2079.535
648.5179, 2084.542
649.0001, 2102.542
649.4822, 2110.274
649.9643, 2107.278
650.4464, 2100.500
650.9285, 2095.845
651.4106, 2091.592
651.8928, 2083.055
652.3749, 2068.385
652.8570, 2056.474
653.3391, 2058.624
653.8212, 2065.694
654.3033, 2066.634
654.7855, 2046.487
655.2676, 2033.523
655.7497, 2039.710
656.2318, 2056.797
656.7139, 2066.536
657.1960, 2065.051
657.6782, 2063.559
658.1603, 2066.635
658.6424, 2072.027
659.1245, 2065.285
659.6066, 2044.846
660.0887, 2026.149
660.5709, 2018.997
661.0530, 2020.456
661.5351, 2024.275
662.0172, 2030.274
662.4993, 2035.519
662.9814, 2037.389
663.4636, 2037.415
663.9457, 2036.709
664.4278, 2034.189
664.9099, 2034.594
665.3920, 2042.799
665.8741, 2053.568
666.3563, 2060.245
666.8384, 2062.666
667.3205, 2060.519
667.8026, 2050.790
668.2847, 2038.126
668.7668, 2033.676
669.2490, 2038.148
669.7311, 2046.516
670.2132, 2061.109
670.6953, 2075.967
671.1774, 2071.921
671.6595, 2051.302
672.1417, 2031.907
672.6238, 2026.548
673.1059, 2027.480
673.5880, 2026.623
674.0701, 2023.284
674.5522, 2023.375
675.0344, 2034.616
675.5165, 2046.690
675.9986, 2051.990
676.4807, 2046.422
676.9628, 2041.037
677.4449, 2036.658
677.9271, 2031.586
678.4092, 2022.017
678.8913, 2006.028
679.3734, 2000.323
679.8555, 2011.082
680.3376, 2026.221
680.8198, 2020.683
681.3019, 1999.842
681.7840, 1986.614
682.2661, 1998.633
682.7482, 2015.053
683.2303, 2016.153
683.7125, 2005.135
684.1946, 1993.192
684.6767, 1979.784
685.1588, 1971.333
685.6409, 1972.925
686.1230, 1985.856
686.6052, 1993.708
687.0873, 1993.197
687.5694, 1992.166
688.0515, 1996.240
688.5336, 2006.656
689.0157, 2007.766
689.4979, 1997.218
689.9800, 1988.093
690.4621, 2002.319
690.9442, 2028.673
691.4263, 2033.768
691.9084, 2005.463
692.3906, 1975.419
692.8727, 1971.740
693.3548, 1982.921
693.8369, 1992.740
694.3190, 1996.318
694.8011, 1997.336
695.2833, 1995.734
695.7654, 1992.238
696.2475, 1988.056
696.7296, 1979.967
697.2117, 1977.910
697.6938, 1986.576
698.1760, 2002.930
698.6581, 2013.234
699.1402, 2017.403
699.6223, 2019.277
700.1044, 2018.207
700.5865, 2017.223
701.0686, 2025.251
701.5507, 2041.562
702.0328, 2052.982
702.5150, 2047.272
702.9971, 2035.776
703.4792, 2025.847
703.9613, 2017.066
704.4434, 2016.004
704.9255, 2031.829
705.4077, 2050.375
705.8898, 2061.629
706.3719, 2064.188
706.8540, 2063.544
707.3361, 2059.186
707.8182, 2053.169
708.3004, 2048.515
708.7825, 2044.940
709.2646, 2039.505
709.7467, 2029.745
710.2288, 2021.724
710.7109, 2025.223
711.1931, 2035.793
711.6752, 2044.022
712.1573, 2043.679
712.6394, 2042.462
713.1215, 2044.667
713.6036, 2049.031
714.0858, 2050.020
714.5679, 2045.669
715.0500, 2040.262
715.5321, 2034.682
716.0142, 2028.999
716.4963, 2022.564
716.9785, 2014.377
717.4606, 2011.824
717.9427, 2026.155
718.4248, 2048.773
718.9069, 2054.626
719.3890, 2043.305
719.8712, 2030.647
720.3533, 2025.794
720.8354, 2026.769
721.3175, 2032.468
721.7996, 2043.551
722.2817, 2055.519
722.7639, 2074.021
723.2460, 2088.183
723.7281, 2087.306
724.2102, 2059.862
724.6923, 2047.643
725.1744, 2056.809
725.6566, 2074.075
726.1387, 2083.742
726.6208, 2085.808
727.1029, 2078.859
727.5850, 2057.812
728.0671, 2038.724
728.5493, 2049.852
729.0314, 2077.383
729.5135, 2092.701
729.9956, 2070.136
730.4777, 2047.839
730.9598, 2044.260
731.4420, 2054.018
731.9241, 2058.832
732.4062, 2056.247
732.8883, 2050.415
733.3704, 2039.956
733.8525, 2027.016
734.3347, 2025.467
734.8168, 2036.748
735.2989, 2044.799
735.7810, 2034.567
736.2631, 2016.250
736.7452, 2016.891
737.2274, 2034.392
737.7095, 2047.580
738.1916, 2034.305
738.6737, 2017.513
739.1558, 2015.870
739.6379, 2033.272
740.1201, 2050.892
740.6022, 2072.510
741.0843, 2087.079
741.5664, 2086.096
742.0485, 2063.880
742.5306, 2049.724
743.0128, 2044.188
743.4949, 2045.166
743.9770, 2054.324
744.4591, 2068.771
744.9412, 2075.782
745.4233, 2072.040
745.9055, 2066.766
746.3876, 2066.831
746.8697, 2070.838
747.3518, 2077.198
747.8339, 2090.222
748.3160, 2098.463
748.7982, 2093.483
749.2803, 2084.205
749.7624, 2084.070
750.2445, 2097.103
750.7266, 2109.910
751.2087, 2123.781
751.6909, 2132.261
752.1730, 2114.367
752.6551, 2074.439
753.1372, 2045.980
753.6193, 2046.413
754.1014, 2059.541
754.5836, 2068.577
755.0657, 2074.991
755.5478, 2083.137
756.0299, 2101.692
756.5120, 2115.361
756.9941, 2114.626
757.4763, 2101.857
757.9584, 2095.314
758.4405, 2096.509
758.9226, 2101.229
759.4047, 2109.330
759.8868, 2119.634
760.3690, 2123.190
760.8511, 2119.919
761.3332, 2122.232
761.8153, 2147.244
762.2974, 2178.402
762.7795, 2190.731
763.2617, 2184.101
763.7438, 2175.093
764.2259, 2170.330
764.7080, 2167.289
765.1901, 2163.856
765.6722, 2158.941
766.1544, 2158.498
766.6365, 2162.361
767.1186, 2171.022
767.6007, 2187.308
768.0828, 2211.413
768.5649, 2228.469
769.0471, 2238.139
769.5292, 2239.751
770.0113, 2223.908
770.4934, 2202.314
770.9755, 2196.345
771.4576, 2212.678
771.9398, 2229.389
772.4219, 2236.900
772.9040, 2238.613
773.3861, 2237.367
773.8682, 2226.261
774.3503, 2224.854
774.8325, 2236.642
775.3146, 2253.940
775.7967, 2268.985
776.2788, 2281.751
776.7609, 2288.868
777.2430, 2287.895
777.7252, 2287.117
778.2073, 2301.141
778.6894, 2322.292
779.1715, 2335.960
779.6536, 2333.843
780.1357, 2329.021
780.6179, 2324.046
781.1000, 2321.036
781.5821, 2324.306
782.0642, 2342.628
782.5463, 2352.275
783.0284, 2348.702
783.5105, 2336.499
783.9926, 2320.140
784.4747, 2300.205
784.9568, 2295.499
785.4390, 2318.359
785.9211, 2350.547
786.4032, 2368.354
786.8853, 2375.290
787.3674, 2379.463
787.8495, 2384.862
788.3317, 2387.783
788.8138, 2384.389
789.2959, 2376.854
789.7780, 2373.738
790.2601, 2378.173
790.7422, 2380.815
791.2244, 2378.460
791.7065, 2372.696
792.1886, 2367.009
792.6707, 2361.693
793.1528, 2362.989
793.6349, 2381.625
794.1171, 2403.560
794.5992, 2412.392
795.0813, 2409.884
795.5634, 2403.207
796.0455, 2389.904
796.5276, 2378.668
797.0098, 2376.513
797.4919, 2381.807
797.9740, 2376.231
798.4561, 2353.802
798.9382, 2335.666
799.4203, 2334.218
799.9025, 2344.143
800.3846, 2339.681
800.8667, 2321.948
801.3488, 2306.865
801.8309, 2307.333
802.3130, 2313.774
802.7952, 2319.786
803.2773, 2324.333
803.7594, 2321.242
804.2415, 2304.878
804.7236, 2283.430
805.2057, 2257.877
805.6879, 2228.083
806.1700, 2210.287
806.6521, 2206.432
807.1342, 2207.351
807.6163, 2208.540
808.0984, 2209.909
808.5806, 2212.295
809.0627, 2215.418
809.5448, 2215.178
810.0269, 2204.439
810.5090, 2192.285
810.9911, 2186.675
811.4733, 2188.781
811.9554, 2189.686
812.4375, 2189.919
812.9196, 2186.186
813.4017, 2174.455
813.8839, 2153.960
814.3660, 2147.157
814.8481, 2155.916
815.3302, 2164.364
815.8123, 2156.691
816.2944, 2141.448
816.7766, 2137.064
817.2587, 2144.381
817.7408, 2148.476
818.2229, 2134.833
818.7050, 2119.662
819.1871, 2115.308
819.6693, 2126.733
820.1514, 2131.320
820.6335, 2124.925
821.1156, 2118.695
821.5977, 2120.866
822.0798, 2130.772
822.5620, 2138.140
823.0441, 2142.770
823.5262, 2143.373
824.0083, 2133.828
824.4904, 2122.128
824.9725, 2120.567
825.4547, 2131.662
825.9368, 2135.249
826.4189, 2110.420
826.9010, 2086.892
827.3831, 2084.761
827.8652, 2109.363
828.3474, 2124.972
828.8295, 2131.444
829.3116, 2129.370
829.7937, 2112.702
830.2758, 2087.895
830.7579, 2078.714
831.2401, 2086.490
831.7222, 2095.321
832.2043, 2094.201
832.6864, 2088.664
833.1685, 2082.154
833.6506, 2074.343
834.1328, 2070.577
834.6149, 2075.428
835.0970, 2079.206
835.5791, 2074.592
836.0612, 2061.006
836.5433, 2055.216
837.0255, 2057.711
837.5076, 2062.780
837.9897, 2069.182
838.4718, 2073.763
838.9539, 2070.377
839.4360, 2058.315
839.9182, 2046.666
840.4003, 2036.632
840.8824, 2030.529
841.3645, 2030.011
841.8466, 2034.958
842.3287, 2046.646
842.8109, 2070.145
843.2930, 2086.573
843.7751, 2076.602
844.2572, 2047.913
844.7393, 2031.705
845.2214, 2028.432
845.7036, 2030.309
846.1857, 2032.311
846.6678, 2036.737
847.1499, 2048.469
847.6320, 2068.746
848.1141, 2079.768
848.5963, 2077.261
849.0784, 2067.765
849.5605, 2051.838
850.0426, 2029.912
850.5247, 2016.539
851.0068, 2012.099
851.4890, 2010.216
851.9711, 2003.043
852.4532, 1997.358
852.9353, 2006.511
853.4174, 2029.074
853.8995, 2046.512
854.3817, 2045.471
854.8638, 2041.347
855.3459, 2041.314
855.8280, 2045.260
856.3101, 2050.206
856.7922, 2057.222
857.2744, 2061.445
857.7565, 2058.426
858.2386, 2051.243
858.7207, 2047.873
859.2028, 2048.547
859.6849, 2054.571
860.1671, 2078.696
860.6492, 2098.030
861.1313, 2091.449
861.6134, 2062.360
862.0955, 2045.052
862.5776, 2047.053
863.0598, 2052.499
863.5419, 2057.344
864.0240, 2061.655
864.5061, 2065.882
864.9882, 2069.966
865.4703, 2073.595
865.9524, 2079.810
866.4345, 2082.829
866.9166, 2071.753
867.3987, 2051.968
867.8809, 2039.124
868.3630, 2046.886
868.8451, 2052.613
869.3272, 2048.327
869.8093, 2038.510
870.2914, 2036.475
870.7736, 2043.127
871.2557, 2049.595
871.7378, 2053.053
872.2199, 2055.002
872.7020, 2058.587
873.1841, 2062.631
873.6663, 2064.210
874.1484, 2061.308
874.6305, 2056.728
875.1126, 2048.982
875.5947, 2040.901
876.0768, 2038.453
876.5590, 2045.540
877.0411, 2046.663
877.5232, 2037.110
878.0053, 2025.152
878.4874, 2025.951
878.9695, 2035.780
879.4517, 2042.176
879.9338, 2041.091
880.4159, 2037.480
880.8980, 2030.504
881.3801, 2024.787
881.8622, 2026.098
882.3444, 2039.909
882.8265, 2054.295
883.3086, 2072.680
883.7907, 2086.353
884.2728, 2082.049
884.7549, 2062.055
885.2371, 2045.714
885.7192, 2035.217
886.2013, 2030.975
886.6834, 2038.504
887.1655, 2049.825
887.6476, 2056.543
888.1298, 2056.813
888.6119, 2053.678
889.0940, 2044.922
889.5761, 2036.225
890.0582, 2031.038
890.5403, 2029.446
891.0225, 2031.325
891.5046, 2036.963
891.9867, 2042.548
892.4688, 2043.694
892.9509, 2043.510
893.4330, 2046.267
893.9152, 2052.192
894.3973, 2057.501
894.8794, 2060.382
895.3615, 2062.670
895.8436, 2065.278
896.3257, 2068.119
896.8079, 2069.939
897.2900, 2070.640
897.7721, 2070.765
898.2542, 2071.329
898.7363, 2071.104
899.2184, 2067.771
899.7006, 2061.591
900.1827, 2053.997
900.6648, 2039.230
901.1469, 2029.636
901.6290, 2034.713
902.1111, 2049.172
902.5933, 2055.658
903.0754, 2051.703
903.5575, 2050.121
904.0396, 2055.695
904.5217, 2064.245
905.0038, 2069.904
905.4860, 2072.085
905.9681, 2068.564
906.4502, 2046.845
906.9323, 2034.693
907.4144, 2060.698
907.8965, 2098.976
908.3787, 2105.643
908.8608, 2062.035
909.3429, 2035.872
909.8250, 2036.623
910.3071, 2049.882
910.7892, 2057.336
911.2714, 2060.902
911.7535, 2067.074
912.2356, 2077.846
912.7177, 2087.546
913.1998, 2093.472
913.6819, 2095.969
914.1641, 2094.892
914.6462, 2088.941
915.1283, 2083.364
915.6104, 2078.025
916.0925, 2073.578
916.5746, 2070.350
917.0568, 2068.507
917.5389, 2068.821
918.0210, 2071.327
918.5031, 2075.180
918.9852, 2082.447
919.4673, 2088.777
919.9495, 2089.220
920.4316, 2083.528
920.9137, 2085.124
921.3958, 2099.986
921.8779, 2110.035
922.3600, 2104.347
922.8422, 2089.504
923.3243, 2093.729
923.8064, 2112.842
924.2885, 2123.290
924.7706, 2098.777
925.2527, 2074.026
925.7349, 2077.831
926.2170, 2099.627
926.6991, 2108.268
927.1812, 2086.631
927.6633, 2081.158
928.1454, 2106.125
928.6276, 2141.163
929.1097, 2146.040
929.5918, 2126.524
930.0739, 2110.827
930.5560, 2107.737
931.0381, 2106.720
931.5203, 2098.350
932.0024, 2088.369
932.4845, 2083.546
932.9666, 2090.385
933.4487, 2090.959
933.9308, 2081.436
934.4130, 2072.253
934.8951, 2074.565
935.3772, 2085.938
935.8593, 2094.975
936.3414, 2100.911
936.8235, 2100.464
937.3057, 2078.501
937.7878, 2058.793
938.2699, 2065.022
938.7520, 2100.595
939.2341, 2120.131
939.7162, 2116.504
940.1984, 2107.902
940.6805, 2099.584
941.1626, 2093.120
941.6447, 2096.570
942.1268, 2108.089
942.6089, 2117.182
943.0911, 2115.254
943.5732, 2112.007
944.0553, 2115.919
944.5374, 2123.081
945.0195, 2122.293
945.5016, 2107.792
945.9838, 2096.398
946.4659, 2089.275
946.9480, 2088.472
947.4301, 2102.991
947.9122, 2127.343
948.3943, 2140.727
948.8764, 2135.979
949.3585, 2128.327
949.8406, 2124.767
950.3228, 2125.080
950.8049, 2129.794
951.2870, 2140.702
951.7691, 2150.057
952.2512, 2158.337
952.7333, 2163.841
953.2155, 2166.135
953.6976, 2164.438
954.1797, 2153.043
954.6618, 2132.973
955.1439, 2117.478
955.6260, 2116.173
956.1082, 2120.229
956.5903, 2125.773
957.0724, 2132.495
957.5545, 2140.983
958.0366, 2153.590
958.5187, 2158.559
959.0009, 2148.587
959.4830, 2133.197
959.9651, 2132.668
960.4472, 2141.968
960.9293, 2147.641
961.4114, 2138.676
961.8936, 2133.017
962.3757, 2143.664
962.8578, 2158.110
963.3399, 2159.151
963.8220, 2142.260
964.3041, 2133.766
964.7863, 2136.762
965.2684, 2143.213
965.7505, 2141.153
966.2326, 2138.038
966.7147, 2114.475
967.1968, 2128.936
967.6790, 2138.749
968.1611, 2144.161
968.6432, 2131.999
969.1253, 2142.531
969.6074, 2143.969
970.0895, 2145.033
970.5717, 2158.760
971.0538, 2149.154
971.5359, 2162.680
972.0180, 2166.972
972.5001, 2175.490
972.9822, 2174.857
973.4644, 2204.188
973.9465, 2206.318
974.4286, 2204.938
974.9107, 2197.833
975.3928, 2189.886
975.8749, 2191.771
976.3571, 2202.158
976.8392, 2203.954
977.3213, 2192.073
977.8034, 2180.568
978.2855, 2185.167
978.7676, 2195.234
979.2498, 2198.301
979.7319, 2188.399
980.2140, 2187.975
980.6961, 2202.233
981.1782, 2217.254
981.6603, 2224.962
982.1425, 2226.204
982.6246, 2222.837
983.1067, 2215.977
983.5888, 2213.698
984.0709, 2226.229
984.5530, 2239.546
985.0352, 2247.546
985.5173, 2249.375
985.9994, 2242.314
986.4815, 2219.228
986.9636, 2211.165
987.4457, 2228.564
987.9279, 2253.982
988.4100, 2259.285
988.8921, 2251.528
989.3742, 2246.520
989.8563, 2249.345
990.3384, 2251.300
990.8206, 2246.398
991.3027, 2240.839
991.7848, 2239.228
992.2669, 2241.732
992.7490, 2246.440
993.2311, 2253.563
993.7133, 2260.274
994.1954, 2263.873
994.6775, 2266.119
995.1596, 2267.092
995.6417, 2268.069
996.1238, 2274.918
996.6060, 2300.073
997.0881, 2317.960
997.5702, 2321.794
998.0523, 2315.887
998.5344, 2308.181
999.0165, 2299.012
999.4987, 2290.001
999.9808, 2280.377
1000.463, 2274.809
1000.945, 2280.974
1001.427, 2291.295
1001.909, 2297.299
1002.391, 2295.823
1002.873, 2295.712
1003.356, 2297.877
1003.838, 2299.368
1004.320, 2294.699
1004.802, 2288.118
1005.284, 2298.711
1005.766, 2323.057
1006.248, 2336.259
1006.730, 2311.976
1007.213, 2286.980
1007.695, 2277.704
1008.177, 2281.159
1008.659, 2292.026
1009.141, 2312.292
1009.623, 2324.548
1010.105, 2322.773
1010.587, 2317.216
1011.069, 2321.856
1011.552, 2331.254
1012.034, 2336.846
1012.516, 2334.377
1012.998, 2335.252
1013.480, 2344.056
1013.962, 2353.503
1014.444, 2361.724
1014.926, 2367.894
1015.409, 2354.646
1015.891, 2323.753
1016.373, 2302.243
1016.855, 2314.865
1017.337, 2335.671
1017.819, 2347.542
1018.301, 2352.201
1018.783, 2357.456
1019.265, 2364.324
1019.748, 2370.448
1020.230, 2375.472
1020.712, 2379.282
1021.194, 2379.045
1021.676, 2377.867
1022.158, 2383.888
1022.640, 2400.236
1023.122, 2415.110
1023.604, 2422.012
1024.087, 2426.917
1024.569, 2435.794
1025.051, 2448.289
1025.533, 2442.839
1026.015, 2418.989
1026.497, 2398.597
1026.979, 2396.987
1027.461, 2403.223
1027.943, 2409.075
1028.426, 2413.619
1028.908, 2414.447
1029.390, 2403.034
1029.872, 2401.992
1030.354, 2417.550
1030.836, 2437.100
1031.318, 2441.068
1031.800, 2434.675
1032.283, 2438.589
1032.765, 2456.208
1033.247, 2469.982
1033.729, 2465.082
1034.211, 2456.152
1034.693, 2453.643
1035.175, 2456.694
1035.657, 2453.049
1036.140, 2441.815
1036.622, 2432.115
1037.104, 2428.204
1037.586, 2427.490
1038.068, 2428.789
1038.550, 2430.258
1039.032, 2428.501
1039.514, 2416.499
1039.996, 2410.209
1040.479, 2411.265
1040.961, 2416.996
1041.443, 2426.800
1041.925, 2439.528
1042.407, 2448.545
1042.889, 2453.674
1043.371, 2456.015
1043.853, 2456.764
1044.335, 2454.548
1044.818, 2445.363
1045.300, 2432.033
1045.782, 2426.445
1046.264, 2429.611
1046.746, 2436.262
1047.228, 2447.204
1047.710, 2455.582
1048.192, 2445.220
1048.675, 2428.496
1049.157, 2426.934
1049.639, 2454.808
1050.121, 2467.765
1050.603, 2449.319
1051.085, 2431.213
1051.567, 2437.433
1052.049, 2462.433
1052.531, 2471.810
1053.014, 2466.712
1053.496, 2454.876
1053.978, 2428.380
1054.460, 2409.446
1054.942, 2418.628
1055.424, 2442.147
1055.906, 2449.462
1056.388, 2436.587
1056.870, 2426.356
1057.353, 2421.335
1057.835, 2420.857
1058.317, 2430.835
1058.799, 2441.258
1059.281, 2434.279
1059.763, 2406.554
1060.245, 2394.932
1060.727, 2417.098
1061.210, 2438.320
1061.692, 2446.879
1062.174, 2445.536
1062.656, 2441.770
1063.138, 2435.440
1063.620, 2425.159
1064.102, 2405.000
1064.584, 2391.029
1065.067, 2396.305
1065.549, 2408.550
1066.031, 2414.927
1066.513, 2414.424
1066.995, 2413.973
1067.477, 2413.490
1067.959, 2414.355
1068.441, 2422.956
1068.923, 2429.309
1069.406, 2416.499
1069.888, 2390.573
1070.370, 2379.952
1070.852, 2401.921
1071.334, 2412.927
1071.816, 2402.197
1072.298, 2384.943
1072.780, 2385.285
1073.262, 2396.791
1073.745, 2402.934
1074.227, 2400.293
1074.709, 2398.661
1075.191, 2404.665
1075.673, 2411.049
1076.155, 2415.766
1076.637, 2417.964
1077.119, 2408.525
1077.601, 2388.276
1078.084, 2370.123
1078.566, 2357.008
1079.048, 2352.421
1079.530, 2364.996
1080.012, 2385.605
1080.494, 2401.163
1080.976, 2410.608
1081.458, 2414.210
1081.941, 2410.097
1082.423, 2407.240
1082.905, 2417.259
1083.387, 2431.086
1083.869, 2431.344
1084.351, 2420.664
1084.833, 2414.150
1085.315, 2419.294
1085.797, 2426.263
1086.280, 2433.087
1086.762, 2441.141
1087.244, 2454.073
1087.726, 2470.423
1088.208, 2486.813
1088.690, 2504.105
1089.172, 2506.505
1089.654, 2461.023
1090.136, 2418.409
1090.619, 2414.454
1091.101, 2444.193
1091.583, 2471.962
1092.065, 2497.989
1092.547, 2513.756
1093.029, 2513.581
1093.511, 2506.060
1093.993, 2494.352
1094.476, 2483.640
1094.958, 2481.226
1095.440, 2490.714
1095.922, 2503.667
1096.404, 2522.551
1096.886, 2537.529
1097.368, 2534.890
1097.850, 2525.885
1098.333, 2537.428
1098.815, 2563.504
1099.297, 2579.518
1099.779, 2568.587
1100.261, 2556.238
1100.743, 2545.271
1101.225, 2537.419
1101.707, 2535.685
1102.189, 2539.276
1102.672, 2542.880
1103.154, 2545.861
1103.636, 2556.558
1104.118, 2595.175
1104.600, 2628.655
1105.082, 2632.175
1105.564, 2614.552
1106.046, 2609.743
1106.528, 2618.099
1107.011, 2626.437
1107.493, 2632.083
1107.975, 2633.531
1108.457, 2624.576
1108.939, 2613.346
1109.421, 2609.754
1109.903, 2617.355
1110.385, 2619.667
1110.868, 2614.549
1111.350, 2612.047
1111.832, 2618.790
1112.314, 2630.622
1112.796, 2643.162
1113.278, 2654.630
1113.760, 2660.693
1114.242, 2648.707
1114.724, 2649.267
1115.207, 2671.740
1115.689, 2694.737
1116.171, 2691.486
1116.653, 2672.004
1117.135, 2675.997
1117.617, 2701.322
1118.099, 2717.995
1118.581, 2702.852
1119.063, 2685.248
1119.546, 2673.666
1120.028, 2668.077
1120.510, 2668.777
1120.992, 2675.628
1121.474, 2689.033
1121.956, 2710.328
1122.438, 2725.528
1122.920, 2719.408
1123.403, 2707.012
1123.885, 2696.979
1124.367, 2690.341
1124.849, 2696.044
1125.331, 2715.905
1125.813, 2726.634
1126.295, 2716.842
1126.777, 2704.210
1127.260, 2711.207
1127.742, 2725.975
1128.224, 2733.618
1128.706, 2729.334
1129.188, 2726.907
1129.670, 2726.969
1130.152, 2726.501
1130.634, 2720.241
1131.116, 2715.188
1131.599, 2729.507
1132.081, 2754.532
1132.563, 2769.496
1133.045, 2757.935
1133.527, 2750.540
1134.009, 2750.740
1134.491, 2753.376
1134.973, 2750.442
1135.455, 2746.463
1135.938, 2764.351
1136.420, 2799.009
1136.902, 2814.353
1137.384, 2766.837
1137.866, 2730.182
1138.348, 2730.236
1138.830, 2747.689
1139.312, 2751.809
1139.795, 2745.279
1140.277, 2747.431
1140.759, 2760.982
1141.241, 2772.878
1141.723, 2775.993
1142.205, 2773.137
1142.687, 2762.833
1143.169, 2748.473
1143.651, 2741.735
1144.134, 2742.548
1144.616, 2748.921
1145.098, 2762.744
1145.580, 2772.336
1146.062, 2762.121
1146.544, 2746.712
1147.026, 2740.205
1147.508, 2743.385
1147.990, 2744.112
1148.473, 2741.352
1148.955, 2746.014
1149.437, 2768.524
1149.919, 2791.316
1150.401, 2790.362
1150.883, 2777.353
1151.365, 2769.654
1151.847, 2772.501
1152.330, 2772.565
1152.812, 2768.367
1153.294, 2766.608
1153.776, 2777.741
1154.258, 2790.391
1154.740, 2782.333
1155.222, 2761.247
1155.704, 2746.253
1156.186, 2747.645
1156.669, 2749.230
1157.151, 2751.036
1157.633, 2751.246
1158.115, 2746.240
1158.597, 2739.037
1159.079, 2738.029
1159.561, 2742.009
1160.043, 2741.525
1160.526, 2720.095
1161.008, 2713.041
1161.490, 2732.738
1161.972, 2760.284
1162.454, 2767.243
1162.936, 2759.009
1163.418, 2749.692
1163.900, 2741.110
1164.382, 2739.415
1164.865, 2758.412
1165.347, 2771.324
1165.829, 2764.982
1166.311, 2749.538
1166.793, 2753.705
1167.275, 2772.092
1167.757, 2777.655
1168.239, 2762.801
1168.721, 2746.749
1169.204, 2740.303
1169.686, 2735.760
1170.168, 2728.540
1170.650, 2719.329
1171.132, 2710.500
1171.614, 2702.613
1172.096, 2700.475
1172.578, 2709.504
1173.061, 2714.904
1173.543, 2697.320
1174.025, 2679.770
1174.507, 2685.060
1174.989, 2712.723
1175.471, 2722.894
1175.953, 2716.104
1176.435, 2707.358
1176.917, 2704.036
1177.400, 2701.736
1177.882, 2696.905
1178.364, 2691.696
1178.846, 2689.839
1179.328, 2693.315
1179.810, 2686.462
1180.292, 2668.885
1180.774, 2655.128
1181.256, 2661.905
1181.739, 2669.657
1182.221, 2656.388
1182.703, 2634.222
1183.185, 2629.183
1183.667, 2647.512
1184.149, 2655.260
1184.631, 2649.725
1185.113, 2641.407
1185.596, 2642.304
1186.078, 2641.769
1186.560, 2623.527
1187.042, 2595.021
1187.524, 2584.301
1188.006, 2597.074
1188.488, 2608.529
1188.970, 2615.982
1189.453, 2619.645
1189.935, 2617.879
1190.417, 2613.929
1190.899, 2612.601
1191.381, 2613.052
1191.863, 2606.471
1192.345, 2589.934
1192.827, 2576.109
1193.309, 2567.328
1193.792, 2562.669
1194.274, 2562.720
1194.756, 2565.083
1195.238, 2568.872
1195.720, 2573.730
1196.202, 2568.116
1196.684, 2545.656
1197.166, 2534.264
1197.648, 2545.803
1198.131, 2561.344
1198.613, 2551.839
1199.095, 2531.715
1199.577, 2520.665
1200.059, 2523.310
1200.541, 2526.196
1201.023, 2531.363
1201.505, 2527.234
1201.988, 2505.067
1202.470, 2479.064
1202.952, 2468.464
1203.434, 2470.028
1203.916, 2481.056
1204.398, 2507.240
1204.880, 2517.546
1205.362, 2506.250
1205.844, 2495.670
1206.327, 2500.322
1206.809, 2508.700
1207.291, 2500.728
1207.773, 2482.503
1208.255, 2464.055
1208.737, 2442.074
1209.219, 2434.471
1209.701, 2443.646
1210.183, 2460.357
1210.666, 2489.900
1211.148, 2514.673
1211.630, 2493.736
1212.112, 2446.949
1212.594, 2415.551
1213.076, 2421.002
1213.558, 2425.230
1214.040, 2427.443
1214.523, 2431.215
1215.005, 2442.704
1215.487, 2455.399
1215.969, 2460.694
1216.451, 2458.310
1216.933, 2447.318
1217.415, 2419.467
1217.897, 2398.116
1218.380, 2384.640
1218.862, 2376.151
1219.344, 2369.166
1219.826, 2365.862
1220.308, 2370.152
1220.790, 2380.982
1221.272, 2395.381
1221.754, 2421.139
1222.236, 2428.351
1222.719, 2409.017
1223.201, 2390.364
1223.683, 2406.111
1224.165, 2434.420
1224.647, 2447.442
1225.129, 2445.635
1225.611, 2437.189
1226.093, 2418.307
1226.575, 2408.890
1227.058, 2413.513
1227.540, 2419.541
1228.022, 2409.603
1228.504, 2395.786
1228.986, 2395.206
1229.468, 2406.457
1229.950, 2411.269
1230.432, 2406.036
1230.915, 2402.645
1231.397, 2402.983
1231.879, 2405.735
1232.361, 2411.244
1232.843, 2417.122
1233.325, 2422.073
1233.807, 2425.184
1234.289, 2421.064
1234.771, 2407.778
1235.254, 2395.771
1235.736, 2386.857
1236.218, 2381.146
1236.700, 2382.243
1237.182, 2384.223
1237.664, 2379.333
1238.146, 2368.098
1238.628, 2363.910
1239.110, 2367.875
1239.593, 2370.819
1240.075, 2369.546
1240.557, 2371.002
1241.039, 2390.003
1241.521, 2409.141
1242.003, 2410.253
1242.485, 2394.423
1242.967, 2375.733
1243.449, 2353.094
1243.932, 2348.100
1244.414, 2369.681
1244.896, 2397.788
1245.378, 2425.290
1245.860, 2442.216
1246.342, 2432.064
1246.824, 2401.477
1247.306, 2390.276
1247.789, 2398.373
1248.271, 2409.848
1248.753, 2422.610
1249.235, 2428.616
1249.717, 2412.160
1250.199, 2395.171
1250.681, 2395.812
1251.163, 2410.725
1251.646, 2419.311
1252.128, 2421.840
1252.610, 2419.704
1253.092, 2411.782
1253.574, 2404.533
1254.056, 2396.772
1254.538, 2397.257
1255.020, 2417.194
1255.502, 2448.133
1255.984, 2442.457
1256.467, 2407.784
1256.949, 2379.398
1257.431, 2367.367
1257.913, 2365.897
1258.395, 2383.316
1258.877, 2398.770
1259.359, 2399.577
1259.841, 2391.676
1260.324, 2397.984
1260.806, 2413.666
1261.288, 2422.997
1261.770, 2418.100
1262.252, 2416.450
1262.734, 2426.589
1263.216, 2434.479
1263.698, 2432.518
1264.181, 2423.885
1264.663, 2412.063
1265.145, 2400.828
1265.627, 2400.366
1266.109, 2420.276
1266.591, 2430.454
1267.073, 2427.112
1267.555, 2416.540
1268.037, 2396.934
1268.520, 2378.061
1269.002, 2382.679
1269.484, 2399.270
1269.966, 2406.344
1270.448, 2393.612
1270.930, 2388.356
1271.412, 2391.649
1271.894, 2399.485
1272.376, 2413.795
1272.859, 2425.954
1273.341, 2421.214
1273.823, 2408.459
1274.305, 2398.876
1274.787, 2392.025
1275.269, 2403.745
1275.751, 2437.139
1276.233, 2455.325
1276.716, 2430.022
1277.198, 2399.139
1277.680, 2397.610
1278.162, 2410.115
1278.644, 2419.709
##END=



