##NAMES=Clinohumite
##RRUFFID=R040122
##IDEAL CHEMISTRY=Mg_9_(SiO_4_)_4_F_2_
##LOCALITY=Anzahamazonono,  Madagascar
##OWNER=RRUFF
##SOURCE=University of Arizona Mineral Museum
##DESCRIPTION=Orange-brown blebs embedded in calcite matrix
##STATUS=The identification of this mineral has been confirmed by X-ray diffraction and chemical analysis
##URL=rruff.info/R040122
##MEASURED CHEMISTRY=(Mg_0.96_Fe_0.02_Ti_0.01_Ca_0.01_)_9_(SiO_4_)_4_(F_0.59_(OH)_0.41_)_2_
160.2684, 2163.812
160.7505, 2177.346
161.2326, 2192.885
161.7147, 2204.439
162.1969, 2205.496
162.6790, 2202.919
163.1611, 2203.324
163.6432, 2208.688
164.1253, 2217.729
164.6074, 2232.207
165.0896, 2252.269
165.5717, 2269.205
166.0538, 2274.259
166.5359, 2273.800
167.0180, 2276.948
167.5002, 2289.411
167.9823, 2305.709
168.4644, 2322.808
168.9465, 2340.904
169.4286, 2356.900
169.9107, 2367.532
170.3929, 2374.292
170.8750, 2380.602
171.3571, 2388.106
171.8392, 2396.005
172.3213, 2403.441
172.8034, 2410.196
173.2856, 2416.606
173.7677, 2421.742
174.2498, 2426.427
174.7319, 2433.348
175.2140, 2444.283
175.6961, 2458.424
176.1783, 2475.514
176.6604, 2497.405
177.1425, 2518.448
177.6246, 2529.988
178.1067, 2533.150
178.5888, 2536.004
179.0710, 2543.850
179.5531, 2555.586
180.0352, 2568.774
180.5173, 2582.645
180.9994, 2597.771
181.4815, 2616.136
181.9637, 2637.752
182.4458, 2657.878
182.9279, 2671.388
183.4100, 2679.838
183.8921, 2689.802
184.3742, 2706.496
184.8564, 2724.472
185.3385, 2729.025
185.8206, 2719.473
186.3027, 2705.239
186.7848, 2693.465
187.2669, 2684.418
187.7491, 2679.721
188.2312, 2682.140
188.7133, 2689.429
189.1954, 2693.142
189.6775, 2692.832
190.1596, 2690.810
190.6418, 2688.452
191.1239, 2685.872
191.6060, 2686.621
192.0881, 2693.211
192.5702, 2705.016
193.0523, 2717.229
193.5345, 2730.408
194.0166, 2742.490
194.4987, 2750.195
194.9808, 2753.442
195.4629, 2753.556
195.9450, 2746.436
196.4272, 2732.368
196.9093, 2735.112
197.3914, 2759.605
197.8735, 2794.321
198.3556, 2819.643
198.8377, 2835.547
199.3199, 2842.033
199.8020, 2833.678
200.2841, 2808.782
200.7662, 2796.845
201.2483, 2803.073
201.7304, 2819.960
202.2126, 2828.404
202.6947, 2826.266
203.1768, 2823.663
203.6589, 2827.926
204.1410, 2840.542
204.6231, 2848.897
205.1053, 2850.769
205.5874, 2848.152
206.0695, 2847.800
206.5516, 2850.426
207.0337, 2853.443
207.5159, 2854.993
207.9980, 2854.695
208.4801, 2854.647
208.9622, 2855.218
209.4443, 2856.230
209.9264, 2856.802
210.4086, 2856.823
210.8907, 2856.617
211.3728, 2856.731
211.8549, 2857.754
212.3370, 2857.179
212.8191, 2855.078
213.3013, 2851.241
213.7834, 2841.674
214.2655, 2820.609
214.7476, 2803.070
215.2297, 2803.535
215.7118, 2828.016
216.1940, 2854.490
216.6761, 2881.816
217.1582, 2909.597
217.6403, 2923.941
218.1224, 2918.328
218.6045, 2907.790
219.0867, 2906.962
219.5688, 2919.356
220.0509, 2933.666
220.5330, 2949.977
221.0151, 2968.803
221.4972, 2973.887
221.9794, 2957.361
222.4615, 2935.939
222.9436, 2927.840
223.4257, 2938.706
223.9078, 2951.377
224.3899, 2961.262
224.8721, 2967.893
225.3542, 2980.398
225.8363, 3003.695
226.3184, 3028.309
226.8005, 3043.045
227.2826, 3044.313
227.7648, 3042.074
228.2469, 3036.962
228.7290, 3027.685
229.2111, 3026.269
229.6932, 3037.242
230.1753, 3052.420
230.6575, 3060.935
231.1396, 3059.181
231.6217, 3056.915
232.1038, 3055.889
232.5859, 3055.365
233.0680, 3061.300
233.5502, 3080.696
234.0323, 3101.516
234.5144, 3104.503
234.9965, 3076.526
235.4786, 3052.902
235.9607, 3045.544
236.4429, 3058.751
236.9250, 3068.489
237.4071, 3073.525
237.8892, 3075.776
238.3713, 3076.888
238.8534, 3070.483
239.3356, 3073.969
239.8177, 3097.994
240.2998, 3154.478
240.7819, 3184.656
241.2640, 3179.419
241.7461, 3153.677
242.2283, 3131.477
242.7104, 3109.159
243.1925, 3096.519
243.6746, 3098.627
244.1567, 3120.826
244.6388, 3139.997
245.1210, 3156.466
245.6031, 3169.709
246.0852, 3178.337
246.5673, 3180.749
247.0494, 3181.216
247.5316, 3180.288
248.0137, 3175.990
248.4958, 3177.550
248.9779, 3188.267
249.4600, 3202.986
249.9421, 3211.564
250.4243, 3210.996
250.9064, 3209.833
251.3885, 3212.185
251.8706, 3221.268
252.3527, 3221.755
252.8348, 3206.944
253.3170, 3187.685
253.7991, 3186.942
254.2812, 3215.784
254.7633, 3241.914
255.2454, 3251.995
255.7275, 3240.580
256.2097, 3232.417
256.6918, 3226.159
257.1739, 3224.157
257.6560, 3232.806
258.1381, 3259.099
258.6202, 3281.628
259.1024, 3291.184
259.5845, 3283.799
260.0666, 3279.355
260.5487, 3277.861
261.0308, 3279.327
261.5129, 3284.709
261.9951, 3296.268
262.4772, 3306.248
262.9593, 3311.802
263.4414, 3312.833
263.9235, 3309.419
264.4056, 3299.285
264.8878, 3286.784
265.3699, 3279.160
265.8520, 3276.881
266.3341, 3277.983
266.8162, 3282.313
267.2983, 3290.337
267.7805, 3298.636
268.2626, 3307.798
268.7447, 3316.497
269.2268, 3321.316
269.7089, 3320.400
270.1910, 3322.212
270.6732, 3330.072
271.1553, 3344.259
271.6374, 3364.239
272.1195, 3395.188
272.6016, 3424.360
273.0837, 3426.498
273.5659, 3396.284
274.0480, 3366.387
274.5301, 3347.376
275.0122, 3339.425
275.4943, 3344.540
275.9764, 3367.801
276.4586, 3394.572
276.9407, 3400.705
277.4228, 3383.831
277.9049, 3366.347
278.3870, 3353.912
278.8691, 3346.853
279.3513, 3356.445
279.8334, 3387.605
280.3155, 3422.772
280.7976, 3436.083
281.2797, 3426.510
281.7618, 3416.511
282.2440, 3413.104
282.7261, 3416.103
283.2082, 3425.600
283.6903, 3442.906
284.1724, 3461.886
284.6545, 3475.887
285.1367, 3484.835
285.6188, 3489.844
286.1009, 3491.361
286.5830, 3489.245
287.0651, 3481.242
287.5472, 3466.516
288.0294, 3451.347
288.5115, 3441.508
288.9936, 3436.979
289.4757, 3437.954
289.9578, 3447.402
290.4399, 3461.662
290.9221, 3471.289
291.4042, 3476.206
291.8863, 3477.446
292.3684, 3471.246
292.8505, 3460.673
293.3326, 3459.558
293.8148, 3479.107
294.2969, 3506.835
294.7790, 3517.241
295.2611, 3510.301
295.7432, 3498.884
296.2253, 3489.981
296.7075, 3484.973
297.1896, 3488.407
297.6717, 3505.803
298.1538, 3528.646
298.6359, 3544.152
299.1180, 3552.841
299.6002, 3559.191
300.0823, 3567.481
300.5644, 3575.869
301.0465, 3580.203
301.5286, 3575.694
302.0107, 3571.340
302.4929, 3579.022
302.9750, 3597.083
303.4571, 3615.575
303.9392, 3628.139
304.4213, 3637.094
304.9034, 3644.689
305.3856, 3647.245
305.8677, 3655.142
306.3498, 3686.260
306.8319, 3732.899
307.3140, 3768.463
307.7961, 3768.994
308.2783, 3754.225
308.7604, 3743.626
309.2425, 3743.351
309.7246, 3743.184
310.2068, 3733.134
310.6889, 3717.646
311.1710, 3708.121
311.6531, 3712.411
312.1352, 3723.317
312.6173, 3735.409
313.0995, 3746.813
313.5816, 3761.903
314.0637, 3787.684
314.5458, 3818.374
315.0279, 3843.309
315.5100, 3851.288
315.9922, 3857.796
316.4743, 3870.852
316.9564, 3892.037
317.4385, 3917.068
317.9206, 3955.285
318.4027, 3994.070
318.8849, 4015.792
319.3670, 4002.550
319.8491, 3983.022
320.3312, 3968.045
320.8133, 3959.719
321.2954, 3947.727
321.7776, 3920.985
322.2597, 3892.971
322.7418, 3878.052
323.2239, 3899.267
323.7060, 3912.828
324.1881, 3902.889
324.6703, 3866.209
325.1524, 3842.347
325.6345, 3849.296
326.1166, 3862.247
326.5987, 3861.203
327.0808, 3829.851
327.5630, 3803.504
328.0451, 3784.774
328.5272, 3773.742
329.0093, 3772.916
329.4914, 3792.173
329.9735, 3812.673
330.4557, 3822.233
330.9378, 3817.273
331.4199, 3806.874
331.9020, 3786.635
332.3841, 3760.606
332.8662, 3749.276
333.3484, 3757.994
333.8305, 3773.467
334.3126, 3790.600
334.7947, 3812.987
335.2768, 3824.864
335.7589, 3822.658
336.2411, 3811.028
336.7232, 3801.027
337.2053, 3792.707
337.6874, 3786.083
338.1695, 3781.360
338.6516, 3778.748
339.1338, 3776.283
339.6159, 3773.435
340.0980, 3771.561
340.5801, 3773.734
341.0622, 3780.456
341.5443, 3786.850
342.0265, 3789.796
342.5086, 3790.009
342.9907, 3794.944
343.4728, 3805.124
343.9549, 3817.816
344.4370, 3831.153
344.9192, 3844.716
345.4013, 3854.999
345.8834, 3860.647
346.3655, 3862.026
346.8476, 3857.949
347.3297, 3848.218
347.8119, 3839.152
348.2940, 3834.146
348.7761, 3834.305
349.2582, 3843.793
349.7403, 3869.222
350.2224, 3899.113
350.7046, 3918.467
351.1867, 3927.868
351.6688, 3930.443
352.1509, 3926.124
352.6330, 3917.063
353.1151, 3905.153
353.5973, 3887.058
354.0794, 3873.313
354.5615, 3878.455
355.0436, 3896.791
355.5257, 3910.988
356.0078, 3908.170
356.4900, 3898.906
356.9721, 3892.999
357.4542, 3893.637
357.9363, 3891.919
358.4184, 3878.372
358.9005, 3859.562
359.3827, 3846.847
359.8648, 3850.392
360.3469, 3856.629
360.8290, 3857.767
361.3111, 3852.131
361.7932, 3848.858
362.2754, 3853.718
362.7575, 3861.338
363.2396, 3865.896
363.7217, 3859.259
364.2038, 3856.193
364.6859, 3864.291
365.1681, 3883.793
365.6502, 3894.665
366.1323, 3880.862
366.6144, 3866.122
367.0965, 3866.947
367.5786, 3903.556
368.0608, 3931.555
368.5429, 3946.810
369.0250, 3950.864
369.5071, 3950.905
369.9892, 3942.294
370.4713, 3935.056
370.9535, 3934.437
371.4356, 3943.897
371.9177, 3952.113
372.3998, 3958.627
372.8819, 3964.011
373.3640, 3969.450
373.8462, 3975.049
374.3283, 3980.476
374.8104, 3986.956
375.2925, 3995.288
375.7746, 3993.344
376.2567, 3976.459
376.7389, 3958.508
377.2210, 3962.339
377.7031, 3989.895
378.1852, 4010.977
378.6673, 4014.325
379.1494, 4003.961
379.6316, 3996.463
380.1137, 3991.974
380.5958, 3989.634
381.0779, 3988.200
381.5600, 3988.092
382.0421, 3992.272
382.5243, 4004.276
383.0064, 4017.254
383.4885, 4018.542
383.9706, 4009.366
384.4527, 3998.687
384.9348, 3991.136
385.4170, 3986.385
385.8991, 3983.080
386.3812, 3980.176
386.8633, 3981.385
387.3454, 3992.124
387.8275, 4009.650
388.3097, 4027.927
388.7918, 4047.903
389.2739, 4064.659
389.7560, 4073.853
390.2381, 4074.876
390.7202, 4071.653
391.2024, 4062.506
391.6845, 4051.584
392.1666, 4043.555
392.6487, 4043.386
393.1309, 4043.265
393.6130, 4038.996
394.0951, 4031.075
394.5772, 4025.908
395.0593, 4026.165
395.5414, 4029.023
396.0236, 4032.748
396.5057, 4044.260
396.9878, 4048.129
397.4699, 4038.727
397.9520, 4020.034
398.4341, 4004.415
398.9163, 3986.545
399.3984, 3977.394
399.8805, 3983.451
400.3626, 4013.833
400.8447, 4031.150
401.3268, 4025.663
401.8090, 4014.295
402.2911, 4025.328
402.7732, 4073.787
403.2553, 4104.094
403.7374, 4093.862
404.2195, 4046.407
404.7017, 4023.874
405.1838, 4031.202
405.6659, 4050.202
406.1480, 4066.744
406.6301, 4080.938
407.1122, 4090.800
407.5944, 4094.966
408.0765, 4095.645
408.5586, 4096.592
409.0407, 4097.856
409.5228, 4102.579
410.0049, 4117.300
410.4871, 4137.127
410.9692, 4146.641
411.4513, 4142.262
411.9334, 4135.813
412.4155, 4141.545
412.8976, 4156.409
413.3798, 4171.251
413.8619, 4185.808
414.3440, 4196.231
414.8261, 4196.283
415.3082, 4185.926
415.7903, 4175.808
416.2725, 4170.148
416.7546, 4169.544
417.2367, 4174.789
417.7188, 4190.385
418.2009, 4207.110
418.6830, 4220.816
419.1652, 4232.200
419.6473, 4243.277
420.1294, 4254.985
420.6115, 4266.481
421.0936, 4277.234
421.5757, 4285.801
422.0579, 4296.155
422.5400, 4307.458
423.0221, 4321.128
423.5042, 4339.893
423.9863, 4370.269
424.4684, 4398.307
424.9506, 4421.788
425.4327, 4440.429
425.9148, 4453.059
426.3969, 4453.288
426.8790, 4454.771
427.3611, 4471.220
427.8433, 4509.222
428.3254, 4541.444
428.8075, 4563.963
429.2896, 4578.071
429.7717, 4586.997
430.2538, 4590.245
430.7360, 4591.172
431.2181, 4593.009
431.7002, 4595.266
432.1823, 4588.759
432.6644, 4570.845
433.1465, 4551.422
433.6287, 4544.909
434.1108, 4549.399
434.5929, 4555.704
435.0750, 4561.513
435.5571, 4566.116
436.0392, 4568.669
436.5214, 4569.129
437.0035, 4566.586
437.4856, 4558.845
437.9677, 4548.125
438.4498, 4535.877
438.9319, 4515.583
439.4141, 4505.609
439.8962, 4530.540
440.3783, 4577.043
440.8604, 4611.481
441.3425, 4616.383
441.8246, 4606.545
442.3068, 4586.050
442.7889, 4551.491
443.2710, 4525.152
443.7531, 4519.356
444.2352, 4522.371
444.7173, 4521.120
445.1995, 4512.700
445.6816, 4501.107
446.1637, 4484.298
446.6458, 4463.330
447.1279, 4448.454
447.6100, 4445.624
448.0922, 4442.280
448.5743, 4430.295
449.0564, 4402.848
449.5385, 4386.119
450.0206, 4386.837
450.5027, 4393.084
450.9849, 4377.263
451.4670, 4332.808
451.9491, 4300.672
452.4312, 4302.189
452.9133, 4332.045
453.3954, 4348.011
453.8776, 4348.898
454.3597, 4344.249
454.8418, 4342.338
455.3239, 4342.547
455.8060, 4342.286
456.2881, 4340.594
456.7703, 4338.746
457.2524, 4338.909
457.7345, 4340.633
458.2166, 4342.084
458.6987, 4337.480
459.1808, 4334.393
459.6630, 4343.875
460.1451, 4369.129
460.6272, 4391.968
461.1093, 4400.344
461.5914, 4399.722
462.0735, 4396.654
462.5557, 4388.006
463.0378, 4382.492
463.5199, 4387.097
464.0020, 4399.810
464.4841, 4405.667
464.9662, 4391.801
465.4484, 4377.456
465.9305, 4373.375
466.4126, 4390.349
466.8947, 4398.931
467.3768, 4392.953
467.8589, 4381.279
468.3411, 4378.828
468.8232, 4390.264
469.3053, 4401.614
469.7874, 4408.171
470.2695, 4410.483
470.7516, 4419.298
471.2338, 4435.819
471.7159, 4455.014
472.1980, 4476.817
472.6801, 4500.859
473.1622, 4507.245
473.6443, 4488.586
474.1265, 4460.309
474.6086, 4448.752
475.0907, 4451.999
475.5728, 4457.665
476.0550, 4457.817
476.5371, 4456.715
477.0192, 4462.413
477.5013, 4475.273
477.9834, 4488.326
478.4655, 4493.882
478.9477, 4497.155
479.4298, 4505.252
479.9119, 4526.006
480.3940, 4544.967
480.8761, 4551.166
481.3582, 4549.084
481.8404, 4551.538
482.3225, 4570.345
482.8046, 4588.322
483.2867, 4597.657
483.7688, 4596.112
484.2509, 4591.359
484.7331, 4579.709
485.2152, 4567.383
485.6973, 4560.006
486.1794, 4559.501
486.6615, 4560.577
487.1436, 4561.731
487.6258, 4563.854
488.1079, 4572.256
488.5900, 4589.238
489.0721, 4606.015
489.5542, 4617.663
490.0363, 4624.212
490.5185, 4629.212
491.0006, 4632.206
491.4827, 4635.337
491.9648, 4642.312
492.4469, 4652.296
492.9290, 4660.640
493.4112, 4665.542
493.8933, 4667.961
494.3754, 4668.125
494.8575, 4666.464
495.3396, 4665.685
495.8217, 4668.721
496.3039, 4673.014
496.7860, 4675.318
497.2681, 4674.406
497.7502, 4674.590
498.2323, 4680.323
498.7144, 4687.929
499.1966, 4692.518
499.6787, 4688.456
500.1608, 4685.333
500.6429, 4686.170
501.1250, 4690.853
501.6071, 4696.370
502.0893, 4701.323
502.5714, 4708.185
503.0535, 4719.117
503.5356, 4739.415
504.0177, 4750.466
504.4998, 4748.442
504.9820, 4740.530
505.4641, 4738.518
505.9462, 4744.236
506.4283, 4745.987
506.9104, 4738.276
507.3925, 4724.517
507.8747, 4719.337
508.3568, 4723.141
508.8389, 4727.928
509.3210, 4724.907
509.8031, 4718.301
510.2852, 4723.235
510.7674, 4745.255
511.2495, 4763.097
511.7316, 4742.997
512.2137, 4703.141
512.6958, 4680.753
513.1779, 4710.575
513.6600, 4746.782
514.1422, 4757.532
514.6243, 4746.124
515.1064, 4737.350
515.5886, 4739.596
516.0707, 4748.418
516.5528, 4762.619
517.0349, 4789.630
517.5170, 4806.344
517.9991, 4803.087
518.4813, 4791.152
518.9634, 4784.112
519.4455, 4781.513
519.9276, 4785.060
520.4097, 4798.347
520.8918, 4818.740
521.3740, 4827.324
521.8561, 4818.917
522.3382, 4815.870
522.8203, 4841.229
523.3024, 4891.931
523.7845, 4913.517
524.2667, 4897.318
524.7488, 4873.958
525.2309, 4884.313
525.7130, 4919.853
526.1951, 4950.583
526.6772, 4964.374
527.1594, 4970.308
527.6415, 4975.553
528.1236, 4980.994
528.6057, 4990.748
529.0878, 5015.322
529.5699, 5039.672
530.0521, 5050.261
530.5342, 5041.974
531.0163, 5035.958
531.4984, 5039.472
531.9805, 5048.427
532.4626, 5058.462
532.9448, 5066.350
533.4269, 5078.632
533.9090, 5097.561
534.3911, 5121.577
534.8732, 5144.874
535.3553, 5171.298
535.8375, 5190.079
536.3196, 5193.273
536.8017, 5179.763
537.2838, 5177.051
537.7659, 5187.859
538.2480, 5200.412
538.7302, 5199.646
539.2123, 5187.895
539.6944, 5180.897
540.1765, 5181.456
540.6586, 5189.341
541.1407, 5211.535
541.6229, 5242.710
542.1050, 5264.149
542.5871, 5256.515
543.0692, 5240.750
543.5513, 5234.821
544.0334, 5239.738
544.5156, 5248.645
544.9977, 5262.696
545.4798, 5276.917
545.9619, 5287.516
546.4440, 5296.935
546.9261, 5298.018
547.4083, 5285.301
547.8904, 5264.364
548.3725, 5244.984
548.8546, 5224.104
549.3367, 5209.987
549.8188, 5208.002
550.3010, 5216.354
550.7831, 5213.445
551.2652, 5197.577
551.7473, 5176.024
552.2294, 5150.728
552.7115, 5122.661
553.1937, 5104.018
553.6758, 5097.001
554.1579, 5094.266
554.6400, 5086.733
555.1221, 5076.070
555.6042, 5067.018
556.0864, 5059.344
556.5685, 5055.816
557.0506, 5061.704
557.5327, 5074.744
558.0148, 5086.461
558.4969, 5090.604
558.9791, 5093.782
559.4612, 5102.048
559.9433, 5118.694
560.4254, 5126.307
560.9075, 5110.265
561.3896, 5090.287
561.8718, 5083.469
562.3539, 5095.459
562.8360, 5112.107
563.3181, 5137.728
563.8002, 5164.695
564.2823, 5173.316
564.7645, 5160.435
565.2466, 5142.422
565.7287, 5119.954
566.2108, 5097.237
566.6929, 5103.697
567.1750, 5140.795
567.6572, 5172.740
568.1393, 5155.174
568.6214, 5112.904
569.1035, 5099.206
569.5856, 5127.656
570.0677, 5162.962
570.5499, 5178.260
571.0320, 5180.786
571.5141, 5182.172
571.9962, 5186.363
572.4783, 5190.532
572.9604, 5190.637
573.4426, 5188.607
573.9247, 5194.459
574.4068, 5211.931
574.8889, 5235.977
575.3710, 5268.150
575.8531, 5312.925
576.3353, 5339.002
576.8174, 5338.610
577.2995, 5330.668
577.7816, 5332.798
578.2637, 5345.764
578.7458, 5361.114
579.2280, 5378.162
579.7101, 5396.104
580.1922, 5413.134
580.6743, 5429.579
581.1564, 5447.272
581.6385, 5473.789
582.1207, 5498.481
582.6028, 5503.545
583.0849, 5491.162
583.5670, 5478.760
584.0491, 5477.359
584.5313, 5479.571
585.0134, 5478.516
585.4955, 5470.114
585.9776, 5468.466
586.4597, 5484.951
586.9418, 5506.799
587.4240, 5519.576
587.9061, 5523.310
588.3882, 5516.687
588.8703, 5491.899
589.3524, 5458.737
589.8345, 5449.514
590.3167, 5471.327
590.7988, 5489.750
591.2809, 5487.874
591.7630, 5469.894
592.2451, 5452.689
592.7272, 5435.763
593.2094, 5431.794
593.6915, 5464.718
594.1736, 5515.396
594.6557, 5544.029
595.1378, 5538.592
595.6199, 5532.756
596.1021, 5552.054
596.5842, 5586.684
597.0663, 5622.816
597.5484, 5655.297
598.0305, 5688.610
598.5126, 5721.327
598.9948, 5755.236
599.4769, 5798.817
599.9590, 5867.641
600.4411, 5928.209
600.9232, 5964.124
601.4053, 5972.656
601.8875, 6006.947
602.3696, 6077.910
602.8517, 6147.263
603.3338, 6173.401
603.8159, 6160.834
604.2980, 6169.298
604.7802, 6210.188
605.2623, 6256.066
605.7444, 6268.261
606.2265, 6256.524
606.7086, 6246.768
607.1907, 6254.835
607.6729, 6261.990
608.1550, 6254.646
608.6371, 6234.330
609.1192, 6205.759
609.6013, 6165.238
610.0834, 6121.721
610.5656, 6083.850
611.0477, 6055.147
611.5298, 6005.838
612.0119, 5915.071
612.4940, 5824.030
612.9761, 5762.676
613.4583, 5741.048
613.9404, 5713.291
614.4225, 5676.639
614.9046, 5635.471
615.3867, 5593.548
615.8688, 5550.939
616.3510, 5512.620
616.8331, 5477.780
617.3152, 5450.909
617.7973, 5446.977
618.2794, 5459.299
618.7615, 5461.742
619.2437, 5428.802
619.7258, 5388.857
620.2079, 5362.938
620.6900, 5352.288
621.1721, 5343.627
621.6542, 5333.556
622.1364, 5323.089
622.6185, 5312.294
623.1006, 5296.976
623.5827, 5291.002
624.0648, 5299.327
624.5469, 5312.457
625.0291, 5320.065
625.5112, 5322.332
625.9933, 5316.814
626.4754, 5299.998
626.9575, 5279.431
627.4396, 5270.628
627.9218, 5272.789
628.4039, 5279.803
628.8860, 5297.924
629.3681, 5314.323
629.8502, 5303.667
630.3323, 5270.294
630.8145, 5247.170
631.2966, 5264.774
631.7787, 5291.870
632.2608, 5306.569
632.7429, 5303.735
633.2250, 5297.624
633.7072, 5287.909
634.1893, 5277.869
634.6714, 5270.313
635.1535, 5266.845
635.6356, 5261.928
636.1177, 5253.794
636.5999, 5245.535
637.0820, 5243.696
637.5641, 5248.555
638.0462, 5253.620
638.5283, 5257.831
639.0104, 5260.082
639.4926, 5256.119
639.9747, 5247.199
640.4568, 5240.706
640.9389, 5243.329
641.4210, 5248.927
641.9031, 5251.563
642.3853, 5250.808
642.8674, 5250.792
643.3495, 5254.411
643.8316, 5258.503
644.3137, 5261.086
644.7958, 5262.725
645.2780, 5260.478
645.7601, 5248.541
646.2422, 5237.796
646.7243, 5244.366
647.2064, 5273.508
647.6885, 5290.878
648.1707, 5286.018
648.6528, 5272.524
649.1349, 5282.546
649.6170, 5312.024
650.0991, 5332.587
650.5812, 5322.980
651.0634, 5302.212
651.5455, 5295.813
652.0276, 5300.491
652.5097, 5298.852
652.9918, 5266.696
653.4739, 5236.891
653.9561, 5232.566
654.4382, 5260.489
654.9203, 5286.227
655.4024, 5309.547
655.8845, 5326.202
656.3666, 5331.473
656.8488, 5319.463
657.3309, 5314.536
657.8130, 5319.676
658.2951, 5328.103
658.7772, 5329.913
659.2593, 5325.672
659.7415, 5321.525
660.2236, 5317.787
660.7057, 5317.041
661.1878, 5327.567
661.6699, 5344.644
662.1520, 5354.939
662.6342, 5342.208
663.1163, 5329.093
663.5984, 5333.555
664.0805, 5353.020
664.5626, 5364.122
665.0447, 5355.568
665.5269, 5342.143
666.0090, 5327.806
666.4911, 5311.000
666.9732, 5307.547
667.4553, 5323.480
667.9374, 5340.796
668.4196, 5341.521
668.9017, 5326.474
669.3838, 5322.613
669.8659, 5333.821
670.3480, 5349.300
670.8301, 5357.149
671.3123, 5359.732
671.7944, 5361.819
672.2765, 5363.216
672.7586, 5367.184
673.2407, 5377.138
673.7228, 5391.041
674.2050, 5405.075
674.6871, 5423.107
675.1692, 5435.744
675.6513, 5437.988
676.1334, 5432.143
676.6155, 5431.688
677.0977, 5443.777
677.5798, 5444.389
678.0619, 5414.119
678.5440, 5358.682
679.0261, 5340.766
679.5083, 5362.019
679.9904, 5391.461
680.4725, 5403.641
680.9547, 5407.238
681.4368, 5419.411
681.9189, 5443.129
682.4010, 5464.611
682.8831, 5477.006
683.3652, 5481.100
683.8474, 5476.662
684.3295, 5452.788
684.8116, 5437.667
685.2937, 5442.613
685.7758, 5455.246
686.2579, 5458.741
686.7401, 5447.597
687.2222, 5442.221
687.7043, 5446.014
688.1864, 5457.919
688.6685, 5479.967
689.1506, 5511.127
689.6328, 5534.814
690.1149, 5543.514
690.5970, 5540.677
691.0791, 5523.135
691.5612, 5495.438
692.0433, 5481.029
692.5255, 5508.567
693.0076, 5540.182
693.4897, 5550.826
693.9718, 5536.858
694.4539, 5523.004
694.9360, 5505.161
695.4182, 5495.278
695.9003, 5501.570
696.3824, 5528.642
696.8645, 5553.196
697.3466, 5576.464
697.8287, 5593.981
698.3109, 5599.185
698.7930, 5593.781
699.2751, 5585.091
699.7572, 5572.511
700.2393, 5564.090
700.7214, 5572.855
701.2036, 5590.639
701.6857, 5603.798
702.1678, 5604.458
702.6499, 5603.196
703.1320, 5598.641
703.6141, 5595.174
704.0963, 5604.612
704.5784, 5639.320
705.0605, 5668.516
705.5426, 5685.284
706.0247, 5691.604
706.5068, 5693.945
706.9890, 5691.357
707.4711, 5692.906
707.9532, 5711.015
708.4353, 5734.994
708.9174, 5730.410
709.3995, 5700.364
709.8817, 5675.331
710.3638, 5677.109
710.8459, 5692.799
711.3280, 5714.070
711.8101, 5741.232
712.2922, 5763.415
712.7744, 5776.526
713.2565, 5784.409
713.7386, 5789.850
714.2207, 5792.082
714.7028, 5792.986
715.1849, 5790.187
715.6671, 5790.222
716.1492, 5803.307
716.6313, 5827.978
717.1134, 5848.423
717.5955, 5862.076
718.0776, 5869.815
718.5598, 5865.826
719.0419, 5857.424
719.5240, 5859.007
720.0061, 5883.785
720.4882, 5909.822
720.9703, 5926.015
721.4525, 5936.341
721.9346, 5950.005
722.4167, 5974.636
722.8988, 5994.136
723.3809, 6001.827
723.8630, 6002.535
724.3452, 6017.173
724.8273, 6047.424
725.3094, 6078.937
725.7915, 6103.396
726.2736, 6124.635
726.7557, 6152.364
727.2379, 6186.226
727.7200, 6223.417
728.2021, 6271.277
728.6842, 6315.062
729.1663, 6336.956
729.6484, 6334.535
730.1306, 6344.965
730.6127, 6390.813
731.0948, 6442.670
731.5769, 6483.890
732.0590, 6511.167
732.5411, 6543.327
733.0233, 6581.382
733.5054, 6622.050
733.9875, 6664.632
734.4696, 6708.255
734.9517, 6742.431
735.4338, 6764.292
735.9160, 6788.227
736.3981, 6831.096
736.8802, 6884.772
737.3623, 6938.232
737.8444, 6992.705
738.3265, 7038.601
738.8087, 7063.888
739.2908, 7081.733
739.7729, 7111.616
740.2550, 7164.571
740.7371, 7210.838
741.2192, 7245.534
741.7014, 7273.028
742.1835, 7299.934
742.6656, 7326.084
743.1477, 7362.446
743.6298, 7422.967
744.1119, 7482.906
744.5941, 7493.539
745.0762, 7469.014
745.5583, 7453.633
746.0404, 7471.761
746.5225, 7502.835
747.0046, 7544.163
747.4868, 7591.670
747.9689, 7623.040
748.4510, 7623.922
748.9331, 7623.253
749.4152, 7629.686
749.8973, 7642.591
750.3795, 7658.150
750.8616, 7678.219
751.3437, 7686.556
751.8258, 7661.862
752.3079, 7620.124
752.7900, 7600.543
753.2722, 7603.218
753.7543, 7609.506
754.2364, 7608.724
754.7185, 7605.197
755.2006, 7607.552
755.6827, 7622.045
756.1649, 7609.405
756.6470, 7539.062
757.1291, 7460.684
757.6112, 7404.495
758.0933, 7376.973
758.5754, 7342.492
759.0576, 7299.577
759.5397, 7253.488
760.0218, 7206.815
760.5039, 7161.036
760.9860, 7123.563
761.4681, 7097.250
761.9503, 7071.732
762.4324, 7034.345
762.9145, 6994.816
763.3966, 6965.077
763.8787, 6958.423
764.3608, 6944.717
764.8430, 6912.450
765.3251, 6874.614
765.8072, 6843.917
766.2893, 6819.249
766.7714, 6806.228
767.2535, 6805.861
767.7357, 6817.356
768.2178, 6847.323
768.6999, 6890.087
769.1820, 6920.124
769.6641, 6921.786
770.1462, 6920.331
770.6284, 6932.895
771.1105, 6958.637
771.5926, 6995.930
772.0747, 7058.622
772.5568, 7116.320
773.0389, 7157.752
773.5211, 7189.852
774.0032, 7229.263
774.4853, 7276.772
774.9674, 7329.051
775.4495, 7386.705
775.9316, 7447.094
776.4138, 7504.942
776.8959, 7559.642
777.3780, 7610.623
777.8601, 7656.087
778.3422, 7698.719
778.8243, 7739.530
779.3065, 7779.466
779.7886, 7822.279
780.2707, 7868.534
780.7528, 7918.983
781.2349, 7979.416
781.7170, 8047.027
782.1992, 8095.600
782.6813, 8123.647
783.1634, 8136.740
783.6455, 8131.683
784.1276, 8114.620
784.6097, 8111.127
785.0919, 8118.612
785.5740, 8111.831
786.0561, 8061.868
786.5382, 7999.666
787.0203, 7953.469
787.5024, 7924.516
787.9846, 7887.899
788.4667, 7834.421
788.9488, 7774.795
789.4309, 7709.182
789.9130, 7636.892
790.3951, 7582.337
790.8773, 7547.667
791.3594, 7522.752
791.8415, 7502.870
792.3236, 7486.952
792.8057, 7471.386
793.2878, 7455.938
793.7700, 7444.869
794.2521, 7444.961
794.7342, 7448.041
795.2163, 7448.436
795.6984, 7446.117
796.1805, 7436.732
796.6627, 7407.402
797.1448, 7384.686
797.6269, 7389.428
798.1090, 7426.479
798.5911, 7449.037
799.0732, 7454.044
799.5554, 7460.567
800.0375, 7488.800
800.5196, 7531.044
801.0017, 7573.273
801.4838, 7613.218
801.9659, 7654.576
802.4481, 7697.799
802.9302, 7744.525
803.4123, 7796.291
803.8944, 7854.757
804.3765, 7916.323
804.8586, 7985.871
805.3408, 8052.001
805.8229, 8105.433
806.3050, 8146.167
806.7871, 8171.264
807.2692, 8178.175
807.7513, 8183.976
808.2335, 8213.501
808.7156, 8251.127
809.1977, 8272.976
809.6798, 8272.157
810.1619, 8261.916
810.6440, 8228.047
811.1262, 8198.653
811.6083, 8203.567
812.0904, 8265.852
812.5725, 8307.570
813.0546, 8319.159
813.5367, 8324.856
814.0189, 8347.726
814.5010, 8388.368
814.9831, 8456.419
815.4652, 8558.800
815.9473, 8660.465
816.4294, 8720.895
816.9116, 8765.805
817.3937, 8825.364
817.8758, 8897.013
818.3579, 9002.397
818.8400, 9163.318
819.3221, 9347.761
819.8043, 9527.716
820.2864, 9699.293
820.7685, 9885.667
821.2506, 10088.44
821.7327, 10302.99
822.2148, 10513.65
822.6970, 10728.41
823.1791, 10976.28
823.6612, 11270.36
824.1433, 11568.21
824.6254, 11826.70
825.1075, 12077.94
825.5897, 12353.20
826.0718, 12696.17
826.5539, 13015.73
827.0360, 13328.07
827.5181, 13603.54
828.0002, 13815.01
828.4824, 13960.87
828.9645, 14044.54
829.4466, 14067.87
829.9287, 14018.94
830.4108, 13852.57
830.8929, 13615.80
831.3751, 13378.86
831.8572, 13168.84
832.3393, 12944.04
832.8214, 12665.53
833.3035, 12376.02
833.7856, 12115.61
834.2678, 11879.30
834.7499, 11696.30
835.2320, 11572.53
835.7141, 11496.11
836.1962, 11468.43
836.6783, 11477.27
837.1605, 11469.28
837.6426, 11422.76
838.1247, 11411.90
838.6068, 11528.75
839.0889, 11696.49
839.5710, 11827.78
840.0532, 11874.54
840.5353, 11939.77
841.0174, 12033.05
841.4995, 12143.65
841.9816, 12266.60
842.4637, 12403.86
842.9459, 12522.15
843.4280, 12621.21
843.9102, 12686.16
844.3923, 12699.37
844.8744, 12667.78
845.3565, 12598.60
845.8386, 12486.25
846.3207, 12362.57
846.8029, 12235.74
847.2850, 12106.01
847.7671, 11972.93
848.2492, 11833.57
848.7313, 11696.52
849.2134, 11558.58
849.6956, 11433.66
850.1777, 11325.12
850.6598, 11239.62
851.1419, 11209.65
851.6240, 11243.37
852.1061, 11287.63
852.5883, 11292.31
853.0704, 11294.73
853.5525, 11327.31
854.0346, 11394.18
854.5167, 11497.84
854.9988, 11654.13
855.4810, 11824.38
855.9631, 11985.73
856.4452, 12138.78
856.9273, 12287.79
857.4094, 12433.82
857.8915, 12556.75
858.3737, 12647.25
858.8558, 12698.09
859.3379, 12699.80
859.8200, 12651.11
860.3021, 12553.44
860.7842, 12401.40
861.2664, 12204.03
861.7485, 11963.32
862.2306, 11671.04
862.7127, 11402.54
863.1948, 11161.06
863.6769, 10919.68
864.1591, 10645.46
864.6412, 10358.20
865.1233, 10093.88
865.6054, 9851.731
866.0875, 9633.152
866.5696, 9439.540
867.0518, 9265.603
867.5339, 9110.706
868.0160, 8974.031
868.4981, 8844.047
868.9802, 8718.051
869.4623, 8602.988
869.9445, 8501.671
870.4266, 8414.905
870.9087, 8351.865
871.3908, 8309.942
871.8729, 8269.910
872.3550, 8220.713
872.8372, 8167.080
873.3193, 8109.021
873.8014, 8048.366
874.2835, 7997.035
874.7656, 7967.944
875.2477, 7936.275
875.7299, 7895.343
876.2120, 7847.402
876.6941, 7799.629
877.1762, 7752.217
877.6583, 7703.092
878.1404, 7650.855
878.6226, 7597.609
879.1047, 7542.917
879.5868, 7489.643
880.0689, 7443.777
880.5510, 7418.478
881.0331, 7388.396
881.5153, 7340.673
881.9974, 7285.227
882.4795, 7241.768
882.9616, 7212.336
883.4437, 7182.969
883.9258, 7149.908
884.4080, 7117.118
884.8901, 7089.146
885.3722, 7066.676
885.8543, 7052.340
886.3364, 7056.745
886.8185, 7053.751
887.3007, 7022.796
887.7828, 6981.465
888.2649, 6955.413
888.7470, 6953.936
889.2291, 6943.172
889.7112, 6917.341
890.1934, 6888.383
890.6755, 6869.788
891.1576, 6860.670
891.6397, 6860.321
892.1218, 6871.152
892.6039, 6877.426
893.0861, 6857.132
893.5682, 6833.557
894.0503, 6831.133
894.5324, 6868.930
895.0145, 6885.894
895.4966, 6873.564
895.9788, 6856.038
896.4609, 6852.266
896.9430, 6860.968
897.4251, 6876.780
897.9072, 6899.544
898.3893, 6921.632
898.8715, 6937.671
899.3536, 6950.688
899.8357, 6964.138
900.3178, 6978.579
900.7999, 6988.042
901.2820, 6990.045
901.7642, 6989.492
902.2463, 6982.974
902.7284, 6974.422
903.2105, 7002.853
903.6926, 7066.446
904.1747, 7119.973
904.6569, 7123.330
905.1390, 7112.921
905.6211, 7121.068
906.1032, 7147.024
906.5853, 7184.443
907.0674, 7255.428
907.5496, 7307.980
908.0317, 7324.403
908.5138, 7316.267
908.9959, 7315.387
909.4780, 7321.799
909.9601, 7343.370
910.4423, 7397.097
910.9244, 7443.868
911.4065, 7424.475
911.8886, 7365.870
912.3707, 7317.292
912.8528, 7298.573
913.3350, 7288.488
913.8171, 7295.213
914.2992, 7299.941
914.7813, 7271.867
915.2634, 7207.457
915.7455, 7158.346
916.2277, 7133.521
916.7098, 7117.820
917.1919, 7093.122
917.6740, 7066.658
918.1561, 7049.998
918.6382, 7048.054
919.1204, 7047.211
919.6025, 7039.036
920.0846, 7034.425
920.5667, 7043.982
921.0488, 7072.268
921.5309, 7077.944
922.0131, 7058.150
922.4952, 7039.503
922.9773, 7043.493
923.4594, 7062.370
923.9415, 7089.761
924.4236, 7123.893
924.9058, 7149.653
925.3879, 7154.680
925.8700, 7156.235
926.3521, 7156.730
926.8342, 7158.764
927.3163, 7190.809
927.7985, 7258.240
928.2806, 7306.930
928.7627, 7301.060
929.2448, 7272.049
929.7269, 7269.076
930.2090, 7283.744
930.6912, 7293.212
931.1733, 7301.051
931.6554, 7286.757
932.1375, 7225.944
932.6196, 7147.041
933.1017, 7099.948
933.5839, 7089.641
934.0660, 7068.803
934.5481, 7024.767
935.0302, 6979.791
935.5123, 6975.901
935.9944, 6986.986
936.4766, 6961.135
936.9587, 6862.360
937.4408, 6792.157
937.9229, 6803.301
938.4050, 6840.451
938.8871, 6864.829
939.3693, 6877.129
939.8514, 6868.922
940.3335, 6837.455
940.8156, 6806.755
941.2977, 6797.609
941.7798, 6801.278
942.2620, 6808.203
942.7441, 6817.063
943.2262, 6820.425
943.7083, 6800.602
944.1904, 6791.211
944.6725, 6813.489
945.1547, 6858.773
945.6368, 6866.864
946.1189, 6835.268
946.6010, 6809.874
947.0831, 6813.773
947.5652, 6832.049
948.0474, 6847.683
948.5295, 6861.752
949.0116, 6876.763
949.4937, 6894.773
949.9758, 6912.252
950.4579, 6928.014
950.9401, 6943.387
951.4222, 6959.815
951.9043, 6977.338
952.3864, 6998.886
952.8685, 7026.813
953.3506, 7049.712
953.8328, 7046.269
954.3149, 7034.906
954.7970, 7038.742
955.2791, 7063.680
955.7612, 7098.456
956.2433, 7148.202
956.7255, 7198.407
957.2076, 7237.561
957.6897, 7266.526
958.1718, 7311.896
958.6539, 7373.824
959.1360, 7437.854
959.6182, 7495.822
960.1003, 7550.672
960.5824, 7604.269
961.0645, 7657.328
961.5466, 7713.478
962.0287, 7774.283
962.5109, 7836.937
962.9930, 7901.915
963.4751, 7965.884
963.9572, 8016.350
964.4393, 8055.402
964.9214, 8101.070
965.4036, 8169.771
965.8857, 8225.675
966.3678, 8240.199
966.8499, 8224.746
967.3320, 8193.005
967.8141, 8136.593
968.2963, 8085.073
968.7784, 8044.004
969.2605, 7997.650
969.7426, 7924.565
970.2247, 7833.179
970.7068, 7754.281
971.1890, 7690.409
971.6711, 7630.390
972.1532, 7554.053
972.6353, 7490.705
973.1174, 7471.210
973.5995, 7494.387
974.0817, 7490.443
974.5638, 7451.344
975.0459, 7413.430
975.5280, 7391.137
976.0101, 7379.794
976.4922, 7377.483
976.9744, 7378.033
977.4565, 7363.329
977.9386, 7307.097
978.4207, 7255.764
978.9028, 7224.184
979.3849, 7207.829
979.8671, 7204.349
980.3492, 7218.039
980.8313, 7218.992
981.3134, 7203.076
981.7955, 7177.882
982.2776, 7142.897
982.7598, 7107.750
983.2419, 7089.392
983.7240, 7092.891
984.2061, 7090.751
984.6882, 7061.504
985.1703, 7038.859
985.6525, 7041.157
986.1346, 7065.201
986.6167, 7076.063
987.0988, 7074.120
987.5809, 7071.258
988.0630, 7079.687
988.5452, 7085.786
989.0273, 7071.021
989.5094, 7043.885
989.9915, 7026.390
990.4736, 7028.415
990.9557, 7031.711
991.4379, 7034.258
991.9200, 7037.102
992.4021, 7042.239
992.8842, 7049.144
993.3663, 7055.784
993.8484, 7061.731
994.3306, 7067.343
994.8127, 7075.704
995.2948, 7081.887
995.7769, 7080.261
996.2590, 7069.375
996.7411, 7059.347
997.2233, 7047.726
997.7054, 7046.247
998.1875, 7070.438
998.6696, 7106.401
999.1517, 7129.520
999.6339, 7138.269
1000.116, 7127.407
1000.598, 7055.318
1001.080, 7009.087
1001.562, 7039.390
1002.044, 7104.329
1002.527, 7127.807
1003.009, 7106.369
1003.491, 7090.687
1003.973, 7090.437
1004.455, 7096.506
1004.937, 7102.741
1005.419, 7107.513
1005.901, 7106.267
1006.383, 7093.682
1006.866, 7095.761
1007.348, 7123.175
1007.830, 7153.180
1008.312, 7175.797
1008.794, 7190.316
1009.276, 7190.860
1009.758, 7178.356
1010.240, 7160.886
1010.723, 7136.765
1011.205, 7115.479
1011.687, 7103.477
1012.169, 7099.083
1012.651, 7096.870
1013.133, 7096.393
1013.615, 7099.349
1014.097, 7107.276
1014.580, 7115.291
1015.062, 7112.732
1015.544, 7106.358
1016.026, 7110.311
1016.508, 7128.826
1016.990, 7147.861
1017.472, 7170.982
1017.954, 7183.612
1018.436, 7173.831
1018.919, 7143.229
1019.401, 7123.514
1019.883, 7114.683
1020.365, 7117.553
1020.847, 7144.475
1021.329, 7173.454
1021.811, 7181.182
1022.293, 7173.788
1022.776, 7166.358
1023.258, 7157.847
1023.740, 7157.014
1024.222, 7168.154
1024.704, 7181.511
1025.186, 7184.383
1025.668, 7178.155
1026.150, 7164.895
1026.632, 7144.003
1027.115, 7128.159
1027.597, 7125.167
1028.079, 7129.990
1028.561, 7144.479
1029.043, 7167.337
1029.525, 7163.499
1030.007, 7127.836
1030.489, 7109.579
1030.971, 7145.111
1031.454, 7195.041
1031.936, 7202.664
1032.418, 7182.760
1032.900, 7167.000
1033.382, 7166.440
1033.864, 7169.249
1034.346, 7174.178
1034.828, 7181.533
1035.311, 7194.193
1035.793, 7210.483
1036.275, 7218.638
1036.757, 7217.765
1037.239, 7210.774
1037.721, 7190.453
1038.203, 7172.730
1038.685, 7173.608
1039.167, 7190.484
1039.650, 7192.559
1040.132, 7175.152
1040.614, 7163.707
1041.096, 7168.770
1041.578, 7181.064
1042.060, 7184.201
1042.542, 7184.044
1043.024, 7192.494
1043.506, 7220.607
1043.989, 7242.392
1044.471, 7254.996
1044.953, 7258.332
1045.435, 7248.624
1045.917, 7227.395
1046.399, 7214.031
1046.881, 7208.848
1047.363, 7209.081
1047.846, 7220.599
1048.328, 7229.744
1048.810, 7223.242
1049.292, 7205.586
1049.774, 7198.155
1050.256, 7204.509
1050.738, 7208.061
1051.220, 7203.627
1051.703, 7200.245
1052.185, 7217.075
1052.667, 7241.870
1053.149, 7251.672
1053.631, 7237.646
1054.113, 7229.567
1054.595, 7243.957
1055.077, 7255.966
1055.559, 7249.405
1056.042, 7228.825
1056.524, 7228.993
1057.006, 7247.177
1057.488, 7261.028
1057.970, 7250.359
1058.452, 7239.808
1058.934, 7251.371
1059.416, 7271.585
1059.898, 7273.649
1060.381, 7249.922
1060.863, 7234.074
1061.345, 7229.540
1061.827, 7229.917
1062.309, 7227.306
1062.791, 7225.896
1063.273, 7234.717
1063.755, 7254.128
1064.238, 7267.387
1064.720, 7260.408
1065.202, 7260.353
1065.684, 7281.513
1066.166, 7310.331
1066.648, 7300.253
1067.130, 7260.913
1067.612, 7236.749
1068.094, 7245.674
1068.577, 7263.962
1069.059, 7285.999
1069.541, 7304.618
1070.023, 7312.696
1070.505, 7308.314
1070.987, 7303.937
1071.469, 7299.196
1071.951, 7297.399
1072.433, 7305.091
1072.916, 7313.849
1073.398, 7306.726
1073.880, 7291.354
1074.362, 7295.375
1074.844, 7357.026
1075.326, 7381.309
1075.808, 7345.627
1076.290, 7288.182
1076.773, 7256.610
1077.255, 7247.379
1077.737, 7256.826
1078.219, 7285.527
1078.701, 7307.217
1079.183, 7292.868
1079.665, 7284.270
1080.147, 7306.586
1080.630, 7352.674
1081.112, 7381.143
1081.594, 7392.315
1082.076, 7395.950
1082.558, 7394.878
1083.040, 7389.253
1083.522, 7373.970
1084.004, 7356.550
1084.486, 7347.866
1084.969, 7352.901
1085.451, 7354.618
1085.933, 7352.093
1086.415, 7349.687
1086.897, 7353.353
1087.379, 7358.045
1087.861, 7346.704
1088.343, 7326.345
1088.825, 7326.976
1089.308, 7389.238
1089.790, 7433.007
1090.272, 7439.954
1090.754, 7427.335
1091.236, 7416.435
1091.718, 7408.857
1092.200, 7416.155
1092.682, 7441.482
1093.165, 7459.954
1093.647, 7441.889
1094.129, 7425.130
1094.611, 7440.757
1095.093, 7481.394
1095.575, 7487.751
1096.057, 7458.024
1096.539, 7440.160
1097.021, 7458.177
1097.504, 7483.153
1097.986, 7487.099
1098.468, 7478.704
1098.950, 7468.464
1099.432, 7452.008
1099.914, 7452.326
1100.396, 7474.186
1100.878, 7497.269
1101.361, 7508.809
1101.843, 7510.551
1102.325, 7503.000
1102.807, 7488.330
1103.289, 7474.648
1103.771, 7457.855
1104.253, 7452.946
1104.735, 7465.735
1105.218, 7486.092
1105.700, 7501.190
1106.182, 7511.556
1106.664, 7521.618
1107.146, 7532.103
1107.628, 7529.932
1108.110, 7479.474
1108.592, 7442.372
1109.074, 7468.514
1109.557, 7535.872
1110.039, 7549.441
1110.521, 7508.482
1111.003, 7479.563
1111.485, 7483.500
1111.967, 7501.806
1112.449, 7528.939
1112.931, 7553.952
1113.413, 7562.583
1113.896, 7548.938
1114.378, 7542.708
1114.860, 7543.829
1115.342, 7552.979
1115.824, 7576.395
1116.306, 7603.115
1116.788, 7618.395
1117.270, 7622.932
1117.753, 7618.382
1118.235, 7592.040
1118.717, 7576.633
1119.199, 7577.134
1119.681, 7582.969
1120.163, 7581.412
1120.645, 7577.110
1121.127, 7588.323
1121.609, 7613.454
1122.092, 7630.057
1122.574, 7616.992
1123.056, 7605.432
1123.538, 7607.450
1124.020, 7615.809
1124.502, 7614.375
1124.984, 7604.868
1125.466, 7604.397
1125.948, 7617.670
1126.431, 7625.708
1126.913, 7609.991
1127.395, 7588.427
1127.877, 7569.021
1128.359, 7553.802
1128.841, 7564.873
1129.323, 7604.130
1129.805, 7636.287
1130.288, 7646.033
1130.770, 7648.875
1131.252, 7662.549
1131.734, 7677.776
1132.216, 7679.736
1132.698, 7658.389
1133.180, 7659.555
1133.662, 7690.189
1134.145, 7713.883
1134.627, 7698.331
1135.109, 7667.722
1135.591, 7659.618
1136.073, 7667.623
1136.555, 7675.753
1137.037, 7679.806
1137.519, 7683.483
1138.001, 7687.476
1138.484, 7690.127
1138.966, 7683.846
1139.448, 7676.395
1139.930, 7693.908
1140.412, 7733.899
1140.894, 7760.695
1141.376, 7746.779
1141.858, 7734.395
1142.340, 7735.711
1142.823, 7743.611
1143.305, 7748.313
1143.787, 7748.481
1144.269, 7734.339
1144.751, 7702.304
1145.233, 7678.295
1145.715, 7683.783
1146.197, 7694.742
1146.680, 7696.670
1147.162, 7692.673
1147.644, 7699.810
1148.126, 7716.981
1148.608, 7727.727
1149.090, 7723.027
1149.572, 7721.197
1150.054, 7738.071
1150.536, 7763.164
1151.019, 7791.646
1151.501, 7825.658
1151.983, 7818.460
1152.465, 7767.808
1152.947, 7731.216
1153.429, 7752.072
1153.911, 7786.930
1154.393, 7790.609
1154.875, 7780.707
1155.358, 7791.200
1155.840, 7841.034
1156.322, 7854.665
1156.804, 7824.376
1157.286, 7792.744
1157.768, 7799.165
1158.250, 7820.388
1158.732, 7824.702
1159.215, 7817.633
1159.697, 7824.575
1160.179, 7860.950
1160.661, 7885.957
1161.143, 7895.010
1161.625, 7891.379
1162.107, 7870.177
1162.589, 7842.962
1163.072, 7830.531
1163.554, 7833.642
1164.036, 7837.598
1164.518, 7842.513
1165.000, 7840.461
1165.482, 7825.170
1165.964, 7808.941
1166.446, 7819.108
1166.928, 7844.563
1167.411, 7859.254
1167.893, 7856.481
1168.375, 7857.216
1168.857, 7871.000
1169.339, 7886.638
1169.821, 7901.371
1170.303, 7913.874
1170.785, 7921.589
1171.267, 7923.888
1171.750, 7917.928
1172.232, 7899.191
1172.714, 7881.677
1173.196, 7869.729
1173.678, 7862.360
1174.160, 7860.297
1174.642, 7862.696
1175.124, 7857.731
1175.607, 7849.833
1176.089, 7864.247
1176.571, 7946.785
1177.053, 8009.428
1177.535, 7992.850
1178.017, 7953.360
1178.499, 7941.118
1178.981, 7955.756
1179.464, 7977.292
1179.946, 8004.132
1180.428, 8016.956
1180.910, 7983.679
1181.392, 7954.979
1181.874, 7971.563
1182.356, 8002.859
1182.838, 7996.064
1183.320, 7948.986
1183.802, 7931.064
1184.285, 7948.309
1184.767, 7974.822
1185.249, 7995.227
1185.731, 8014.329
1186.213, 8043.620
1186.695, 8072.453
1187.177, 8065.989
1187.659, 8020.966
1188.142, 7991.172
1188.624, 7986.243
1189.106, 7991.602
1189.588, 8005.256
1190.070, 8015.027
1190.552, 8002.015
1191.034, 7972.620
1191.516, 7976.229
1191.999, 8017.015
1192.481, 8051.757
1192.963, 8068.953
1193.445, 8080.328
1193.927, 8102.416
1194.409, 8121.332
1194.891, 8118.619
1195.373, 8092.830
1195.855, 8080.500
1196.338, 8083.396
1196.820, 8082.627
1197.302, 8065.912
1197.784, 8052.900
1198.266, 8073.869
1198.748, 8106.751
1199.230, 8122.461
1199.712, 8114.809
1200.194, 8108.938
1200.677, 8103.467
1201.159, 8110.367
1201.641, 8145.408
1202.123, 8184.153
1202.605, 8203.633
1203.087, 8205.518
1203.569, 8189.733
1204.051, 8142.547
1204.534, 8124.474
1205.016, 8139.681
1205.498, 8158.215
1205.980, 8158.910
1206.462, 8152.226
1206.944, 8147.788
1207.426, 8145.809
1207.908, 8146.869
1208.391, 8150.561
1208.873, 8158.556
1209.355, 8171.859
1209.837, 8184.843
1210.319, 8192.954
1210.801, 8197.898
1211.283, 8200.993
1211.765, 8202.437
1212.247, 8202.192
1212.729, 8198.938
1213.212, 8197.462
1213.694, 8197.326
1214.176, 8203.686
1214.658, 8230.417
1215.140, 8260.179
1215.622, 8277.716
1216.104, 8280.472
1216.586, 8256.561
1217.069, 8187.192
1217.551, 8161.917
1218.033, 8202.976
1218.515, 8257.646
1218.997, 8265.320
1219.479, 8255.486
1219.961, 8265.217
1220.443, 8294.566
1220.926, 8300.999
1221.408, 8274.779
1221.890, 8260.522
1222.372, 8271.650
1222.854, 8287.261
1223.336, 8276.468
1223.818, 8259.855
1224.300, 8265.953
1224.782, 8298.772
1225.265, 8306.305
1225.747, 8279.945
1226.229, 8270.491
1226.711, 8297.470
1227.193, 8336.614
1227.675, 8369.279
1228.157, 8391.034
1228.639, 8392.951
1229.121, 8372.133
1229.604, 8355.349
1230.086, 8341.924
1230.568, 8336.709
1231.050, 8343.021
1231.532, 8355.280
1232.014, 8374.496
1232.496, 8391.705
1232.978, 8392.695
1233.461, 8373.733
1233.943, 8369.148
1234.425, 8380.102
1234.907, 8395.200
1235.389, 8416.273
1235.871, 8427.490
1236.353, 8392.419
1236.835, 8349.583
1237.318, 8359.937
1237.800, 8437.849
1238.282, 8453.839
1238.764, 8404.198
1239.246, 8366.865
1239.728, 8396.125
1240.210, 8441.641
1240.692, 8470.627
1241.174, 8484.701
1241.656, 8483.083
1242.139, 8460.712
1242.621, 8464.765
1243.103, 8495.576
1243.585, 8517.733
1244.067, 8497.706
1244.549, 8474.738
1245.031, 8475.888
1245.513, 8490.376
1245.996, 8503.018
1246.478, 8514.109
1246.960, 8522.131
1247.442, 8526.915
1247.924, 8524.612
1248.406, 8499.542
1248.888, 8481.311
1249.370, 8492.078
1249.853, 8516.408
1250.335, 8539.540
1250.817, 8560.627
1251.299, 8547.446
1251.781, 8502.013
1252.263, 8473.384
1252.745, 8509.287
1253.227, 8548.349
1253.709, 8564.862
1254.192, 8568.459
1254.674, 8575.061
1255.156, 8580.851
1255.638, 8542.438
1256.120, 8463.758
1256.602, 8418.691
1257.084, 8482.916
1257.566, 8543.614
1258.049, 8562.196
1258.531, 8562.026
1259.013, 8575.046
1259.495, 8596.742
1259.977, 8608.972
1260.459, 8611.412
1260.941, 8616.850
1261.423, 8642.311
1261.906, 8654.411
1262.388, 8641.045
1262.870, 8619.591
1263.352, 8614.657
1263.834, 8621.184
1264.316, 8629.792
1264.798, 8639.056
1265.280, 8644.558
1265.762, 8642.034
1266.245, 8640.657
1266.727, 8642.954
1267.209, 8644.833
1267.691, 8636.551
1268.173, 8626.027
1268.655, 8626.354
1269.137, 8638.393
1269.619, 8655.550
1270.101, 8678.154
1270.584, 8704.043
1271.066, 8736.896
1271.548, 8758.268
1272.030, 8728.481
1272.512, 8684.426
1272.994, 8675.392
1273.476, 8702.097
1273.958, 8703.615
1274.441, 8669.715
1274.923, 8656.236
1275.405, 8679.747
1275.887, 8707.050
1276.369, 8697.350
1276.851, 8679.571
1277.333, 8682.217
1277.815, 8703.370
1278.297, 8724.587
1278.780, 8746.332
1279.262, 8752.121
1279.744, 8735.334
1280.226, 8719.070
1280.708, 8723.181
1281.190, 8733.876
1281.672, 8741.731
1282.154, 8747.599
1282.636, 8753.434
1283.119, 8760.031
1283.601, 8777.638
1284.083, 8811.317
1284.565, 8835.842
1285.047, 8826.729
1285.529, 8814.380
1286.011, 8813.309
1286.493, 8820.419
1286.976, 8832.539
1287.458, 8845.312
1287.940, 8838.138
1288.422, 8802.378
1288.904, 8785.037
1289.386, 8830.231
1289.868, 8859.530
1290.350, 8842.002
1290.833, 8801.768
1291.315, 8775.787
1291.797, 8766.850
1292.279, 8786.761
1292.761, 8842.597
1293.243, 8881.702
1293.725, 8894.804
1294.207, 8901.081
1294.689, 8905.564
1295.172, 8909.412
1295.654, 8917.099
1296.136, 8923.646
1296.618, 8921.011
1297.100, 8906.945
1297.582, 8895.939
1298.064, 8886.983
1298.546, 8889.624
1299.028, 8912.259
1299.511, 8929.923
1299.993, 8904.969
1300.475, 8870.604
1300.957, 8860.264
##END=



