##NAMES=Clinohumite
##RRUFFID=R070561
##IDEAL CHEMISTRY=Mg_9_(SiO_4_)_4_F_2_
##LOCALITY=Unknown
##OWNER=RRUFF
##SOURCE=www.multicolour.com
##DESCRIPTION=Brownish orange transparent fragments
##STATUS=The identification of this mineral has been confirmed by X-ray diffraction and chemical analysis
##URL=rruff.info/R070561
##MEASURED CHEMISTRY=(Mg_8.47_Fe_0.23_Ti_0.15_[box]_0.14_Mn_0.01_)_Σ=9_((Si_3.98_Al_0.02_)_Σ=1_O_4_)_4_(F_1.01_(OH)_0.99_)_Σ=2_ ; OH estimated by difference and charge balance
148.1726, 3167.594
148.6548, 3212.204
149.1369, 3260.115
149.6190, 3303.226
150.1011, 3332.025
150.5832, 3329.560
151.0653, 3331.178
151.5475, 3349.363
152.0296, 3412.075
152.5117, 3439.872
152.9938, 3410.493
153.4759, 3345.389
153.9580, 3301.096
154.4402, 3291.196
154.9223, 3293.982
155.4044, 3299.042
155.8865, 3313.279
156.3686, 3321.588
156.8507, 3326.405
157.3329, 3327.539
157.8150, 3309.572
158.2971, 3242.421
158.7792, 3166.407
159.2613, 3118.889
159.7434, 3131.988
160.2256, 3153.261
160.7077, 3162.688
161.1898, 3153.719
161.6719, 3151.274
162.1540, 3180.990
162.6361, 3221.635
163.1183, 3233.059
163.6004, 3157.921
164.0825, 3076.830
164.5646, 3040.277
165.0467, 3089.021
165.5288, 3144.055
166.0110, 3178.650
166.4931, 3193.009
166.9752, 3187.343
167.4573, 3141.100
167.9394, 3082.111
168.4215, 3038.837
168.9037, 3033.886
169.3858, 3039.475
169.8679, 3035.517
170.3500, 3020.180
170.8321, 3013.414
171.3142, 3035.126
171.7964, 3074.244
172.2785, 3110.506
172.7606, 3141.947
173.2427, 3162.138
173.7248, 3159.816
174.2069, 3124.022
174.6891, 3091.567
175.1712, 3099.311
175.6533, 3139.719
176.1354, 3184.546
176.6175, 3218.161
177.0996, 3244.395
177.5818, 3268.219
178.0639, 3284.529
178.5460, 3305.136
179.0281, 3353.200
179.5102, 3427.399
179.9923, 3494.274
180.4745, 3512.943
180.9566, 3499.970
181.4387, 3496.830
181.9208, 3529.971
182.4029, 3581.254
182.8850, 3614.755
183.3672, 3626.579
183.8493, 3636.413
184.3314, 3674.303
184.8135, 3734.642
185.2956, 3785.134
185.7777, 3800.926
186.2599, 3792.772
186.7420, 3791.515
187.2241, 3801.492
187.7062, 3818.278
188.1883, 3842.572
188.6705, 3874.249
189.1526, 3889.315
189.6347, 3861.943
190.1168, 3798.654
190.5989, 3734.812
191.0810, 3673.576
191.5632, 3618.575
192.0453, 3581.340
192.5274, 3563.919
193.0095, 3552.668
193.4916, 3525.775
193.9737, 3484.907
194.4559, 3465.132
194.9380, 3490.397
195.4201, 3553.343
195.9022, 3593.859
196.3843, 3608.732
196.8664, 3609.332
197.3486, 3612.077
197.8307, 3617.313
198.3128, 3619.667
198.7949, 3608.663
199.2770, 3583.998
199.7591, 3588.693
200.2413, 3635.942
200.7234, 3703.667
201.2055, 3734.322
201.6876, 3721.608
202.1697, 3699.030
202.6518, 3685.499
203.1340, 3680.691
203.6161, 3690.054
204.0982, 3720.242
204.5803, 3765.594
205.0624, 3795.568
205.5445, 3809.551
206.0267, 3809.680
206.5088, 3794.739
206.9909, 3761.458
207.4730, 3729.315
207.9551, 3701.527
208.4372, 3678.054
208.9194, 3667.086
209.4015, 3673.177
209.8836, 3685.668
210.3657, 3687.004
210.8478, 3672.361
211.3299, 3662.938
211.8121, 3672.140
212.2942, 3708.567
212.7763, 3720.022
213.2584, 3695.992
213.7405, 3653.679
214.2226, 3638.510
214.7048, 3664.925
215.1869, 3685.366
215.6690, 3671.775
216.1511, 3614.346
216.6332, 3554.530
217.1153, 3488.050
217.5975, 3420.402
218.0796, 3384.897
218.5617, 3388.335
219.0438, 3411.125
219.5259, 3442.541
220.0080, 3492.137
220.4902, 3525.317
220.9723, 3533.689
221.4544, 3517.602
221.9365, 3496.302
222.4186, 3461.740
222.9007, 3431.291
223.3829, 3427.294
223.8650, 3463.613
224.3471, 3497.163
224.8292, 3516.914
225.3113, 3520.527
225.7934, 3524.708
226.2756, 3530.290
226.7577, 3535.911
227.2398, 3536.545
227.7219, 3520.849
228.2040, 3520.213
228.6861, 3553.260
229.1683, 3646.615
229.6504, 3696.746
230.1325, 3683.652
230.6146, 3632.413
231.0967, 3605.108
231.5789, 3603.110
232.0610, 3623.333
232.5431, 3669.318
233.0252, 3763.362
233.5073, 3834.348
233.9894, 3876.674
234.4716, 3892.451
234.9537, 3894.385
235.4358, 3873.172
235.9179, 3849.390
236.4000, 3837.643
236.8821, 3845.100
237.3643, 3850.103
237.8464, 3848.094
238.3285, 3839.431
238.8106, 3837.639
239.2927, 3849.132
239.7748, 3861.061
240.2570, 3858.343
240.7391, 3823.848
241.2212, 3806.503
241.7033, 3825.827
242.1854, 3890.657
242.6675, 3914.349
243.1497, 3870.172
243.6318, 3806.248
244.1139, 3790.659
244.5960, 3865.446
245.0781, 3916.727
245.5602, 3902.411
246.0424, 3795.530
246.5245, 3723.919
247.0066, 3696.961
247.4887, 3699.958
247.9708, 3708.166
248.4529, 3724.835
248.9351, 3741.470
249.4172, 3754.823
249.8993, 3763.935
250.3814, 3771.943
250.8635, 3778.525
251.3456, 3784.010
251.8278, 3787.316
252.3099, 3779.811
252.7920, 3782.892
253.2741, 3812.140
253.7562, 3889.221
254.2383, 3941.847
254.7205, 3957.888
255.2026, 3945.223
255.6847, 3939.183
256.1668, 3942.964
256.6489, 3948.827
257.1310, 3951.933
257.6132, 3951.929
258.0953, 3949.486
258.5774, 3942.026
259.0595, 3930.890
259.5416, 3932.281
260.0237, 3955.087
260.5059, 3978.447
260.9880, 3980.409
261.4701, 3945.820
261.9522, 3929.336
262.4343, 3950.135
262.9164, 4007.271
263.3986, 4032.478
263.8807, 4009.965
264.3628, 3976.500
264.8449, 3974.176
265.3270, 4014.332
265.8091, 4056.009
266.2913, 4094.109
266.7734, 4129.164
267.2555, 4136.339
267.7376, 4103.729
268.2197, 4057.476
268.7018, 4034.063
269.1840, 4041.773
269.6661, 4047.722
270.1482, 4033.151
270.6303, 3990.880
271.1124, 3995.386
271.5945, 4066.350
272.0767, 4160.699
272.5588, 4206.438
273.0409, 4193.376
273.5230, 4165.468
274.0051, 4135.856
274.4872, 4102.541
274.9694, 4080.238
275.4515, 4064.518
275.9336, 4064.230
276.4157, 4112.338
276.8978, 4226.815
277.3799, 4314.926
277.8621, 4308.588
278.3442, 4193.480
278.8263, 4139.676
279.3084, 4176.033
279.7905, 4258.316
280.2726, 4282.079
280.7548, 4238.319
281.2369, 4182.653
281.7190, 4145.234
282.2011, 4126.250
282.6832, 4119.955
283.1653, 4130.145
283.6475, 4148.745
284.1296, 4155.464
284.6117, 4149.631
285.0938, 4137.713
285.5759, 4121.475
286.0580, 4101.357
286.5402, 4086.889
287.0223, 4081.863
287.5044, 4081.872
287.9865, 4073.800
288.4686, 4056.865
288.9507, 4041.489
289.4329, 4040.018
289.9150, 4050.208
290.3971, 4051.912
290.8792, 4038.356
291.3614, 4015.727
291.8435, 3994.798
292.3256, 3975.066
292.8077, 3965.539
293.2898, 3987.480
293.7719, 4031.760
294.2541, 4051.294
294.7362, 4021.899
295.2183, 3967.366
295.7004, 3933.075
296.1825, 3919.029
296.6646, 3924.211
297.1468, 3956.540
297.6289, 4009.265
298.1110, 4061.322
298.5931, 4119.317
299.0752, 4164.764
299.5573, 4146.333
300.0395, 4063.496
300.5216, 3990.726
301.0037, 4013.587
301.4858, 4100.328
301.9679, 4173.243
302.4500, 4188.961
302.9322, 4182.017
303.4143, 4204.957
303.8964, 4258.257
304.3785, 4310.296
304.8606, 4329.965
305.3427, 4329.532
305.8249, 4333.560
306.3070, 4353.324
306.7891, 4381.704
307.2712, 4416.135
307.7533, 4457.348
308.2354, 4486.809
308.7176, 4476.496
309.1997, 4446.460
309.6818, 4429.996
310.1639, 4459.035
310.6460, 4495.556
311.1281, 4499.231
311.6103, 4467.094
312.0924, 4446.440
312.5745, 4484.708
313.0566, 4550.619
313.5387, 4598.069
314.0208, 4589.402
314.5030, 4570.329
314.9851, 4568.857
315.4672, 4587.560
315.9493, 4614.453
316.4314, 4644.612
316.9135, 4679.217
317.3957, 4720.228
317.8778, 4777.493
318.3599, 4833.774
318.8420, 4880.587
319.3241, 4916.127
319.8062, 4947.585
320.2884, 4979.706
320.7705, 5008.430
321.2526, 5028.855
321.7347, 5044.611
322.2168, 5046.992
322.6989, 5025.773
323.1811, 4973.949
323.6632, 4935.148
324.1453, 4933.143
324.6274, 4944.643
325.1095, 4941.406
325.5916, 4903.140
326.0738, 4864.345
326.5559, 4837.055
327.0380, 4826.521
327.5201, 4808.124
328.0022, 4774.681
328.4843, 4734.313
328.9665, 4696.534
329.4486, 4654.566
329.9307, 4622.439
330.4128, 4604.912
330.8949, 4605.683
331.3770, 4606.633
331.8592, 4616.214
332.3413, 4621.686
332.8234, 4604.706
333.3055, 4533.763
333.7876, 4484.135
334.2697, 4482.020
334.7519, 4540.025
335.2340, 4569.665
335.7161, 4558.126
336.1982, 4529.122
336.6803, 4512.503
337.1624, 4513.520
337.6446, 4515.544
338.1267, 4514.083
338.6088, 4508.742
339.0909, 4505.165
339.5730, 4504.669
340.0551, 4503.989
340.5373, 4496.038
341.0194, 4476.490
341.5015, 4468.915
341.9836, 4487.465
342.4657, 4529.643
342.9478, 4542.314
343.4300, 4516.089
343.9121, 4485.460
344.3942, 4499.342
344.8763, 4560.014
345.3584, 4607.041
345.8405, 4614.194
346.3227, 4591.301
346.8048, 4588.656
347.2869, 4608.715
347.7690, 4635.829
348.2511, 4658.196
348.7332, 4674.924
349.2154, 4680.699
349.6975, 4667.525
350.1796, 4643.840
350.6617, 4630.264
351.1438, 4626.908
351.6259, 4627.371
352.1081, 4627.599
352.5902, 4626.992
353.0723, 4624.201
353.5544, 4622.628
354.0365, 4616.306
354.5186, 4591.608
355.0008, 4549.155
355.4829, 4510.338
355.9650, 4492.926
356.4471, 4489.507
356.9292, 4488.719
357.4113, 4492.681
357.8935, 4493.158
358.3756, 4484.092
358.8577, 4465.633
359.3398, 4439.152
359.8219, 4391.944
360.3040, 4342.589
360.7862, 4309.899
361.2683, 4313.008
361.7504, 4321.767
362.2325, 4328.559
362.7146, 4331.402
363.1967, 4317.271
363.6789, 4253.157
364.1610, 4184.918
364.6431, 4147.021
365.1252, 4184.423
365.6073, 4212.978
366.0894, 4202.503
366.5716, 4161.512
367.0537, 4131.910
367.5358, 4124.691
368.0179, 4129.459
368.5000, 4140.754
368.9821, 4176.569
369.4643, 4197.024
369.9464, 4196.122
370.4285, 4177.213
370.9106, 4151.762
371.3927, 4098.636
371.8748, 4059.352
372.3570, 4055.168
372.8391, 4122.884
373.3212, 4160.772
373.8033, 4159.943
374.2855, 4131.193
374.7676, 4099.325
375.2497, 4054.024
375.7318, 4023.255
376.2139, 4022.883
376.6960, 4064.164
377.1782, 4093.315
377.6603, 4105.641
378.1424, 4109.953
378.6245, 4126.680
379.1066, 4160.918
379.5887, 4185.125
380.0709, 4181.797
380.5530, 4150.451
381.0351, 4132.886
381.5172, 4094.031
381.9993, 4141.326
382.4814, 4165.697
382.9636, 4168.376
383.4457, 4084.396
383.9278, 4112.319
384.4099, 4095.396
384.8920, 4076.635
385.3741, 4120.308
385.8563, 4048.932
386.3384, 4091.614
386.8205, 4088.767
387.3026, 4106.758
387.7847, 4079.626
388.2668, 4066.431
388.7490, 4098.372
389.2311, 4105.321
389.7132, 4072.995
390.1953, 4092.311
390.6774, 4019.359
391.1595, 4027.373
391.6417, 4070.319
392.1238, 3983.311
392.6059, 3954.027
393.0880, 3937.944
393.5701, 3930.392
394.0522, 3934.186
394.5344, 3942.761
395.0165, 3950.118
395.4986, 3948.750
395.9807, 3951.899
396.4628, 3974.872
396.9449, 4010.344
397.4271, 4022.750
397.9092, 3979.411
398.3913, 3925.856
398.8734, 3888.115
399.3555, 3888.883
399.8376, 3880.106
400.3198, 3841.539
400.8019, 3787.769
401.2840, 3766.753
401.7661, 3811.678
402.2482, 3857.334
402.7303, 3879.041
403.2125, 3869.520
403.6946, 3850.768
404.1767, 3813.886
404.6588, 3772.189
405.1409, 3755.497
405.6230, 3776.984
406.1052, 3793.105
406.5873, 3784.780
407.0694, 3748.233
407.5515, 3721.293
408.0336, 3701.977
408.5157, 3695.295
408.9979, 3716.143
409.4800, 3767.115
409.9621, 3806.656
410.4442, 3816.805
410.9263, 3803.399
411.4084, 3789.264
411.8906, 3772.933
412.3727, 3767.969
412.8548, 3802.046
413.3369, 3863.143
413.8190, 3902.238
414.3011, 3888.621
414.7833, 3857.099
415.2654, 3867.615
415.7475, 3916.524
416.2296, 3966.081
416.7117, 3984.933
417.1938, 3987.834
417.6760, 3995.972
418.1581, 4015.481
418.6402, 4040.528
419.1223, 4068.458
419.6044, 4098.501
420.0865, 4128.793
420.5687, 4159.561
421.0508, 4189.144
421.5329, 4214.601
422.0150, 4230.826
422.4971, 4253.483
422.9792, 4290.420
423.4614, 4337.243
423.9435, 4385.868
424.4256, 4441.820
424.9077, 4493.307
425.3898, 4534.978
425.8719, 4561.233
426.3541, 4593.036
426.8362, 4636.890
427.3183, 4684.450
427.8004, 4726.572
428.2825, 4761.819
428.7646, 4794.914
429.2468, 4830.192
429.7289, 4868.661
430.2110, 4883.795
430.6931, 4862.841
431.1752, 4837.874
431.6573, 4843.148
432.1395, 4886.903
432.6216, 4917.408
433.1037, 4921.155
433.5858, 4906.661
434.0679, 4909.727
434.5500, 4934.428
435.0322, 4946.072
435.5143, 4910.368
435.9964, 4835.664
436.4785, 4763.056
436.9606, 4691.570
437.4427, 4638.519
437.9249, 4648.139
438.4070, 4708.169
438.8891, 4753.079
439.3712, 4731.298
439.8533, 4676.908
440.3354, 4635.308
440.8176, 4610.836
441.2997, 4598.615
441.7818, 4601.094
442.2639, 4612.534
442.7460, 4622.784
443.2281, 4622.307
443.7103, 4623.669
444.1924, 4637.120
444.6745, 4663.499
445.1566, 4684.896
445.6387, 4691.802
446.1208, 4692.182
446.6030, 4693.107
447.0851, 4689.261
447.5672, 4693.274
448.0493, 4722.763
448.5314, 4771.557
449.0135, 4779.335
449.4957, 4702.329
449.9778, 4623.040
450.4599, 4584.811
450.9420, 4616.132
451.4241, 4632.898
451.9063, 4631.868
452.3884, 4616.277
452.8705, 4589.996
453.3526, 4546.027
453.8347, 4511.543
454.3168, 4502.385
454.7990, 4519.712
455.2811, 4529.787
455.7632, 4532.262
456.2453, 4529.099
456.7274, 4516.484
457.2096, 4496.173
457.6917, 4490.728
458.1738, 4519.636
458.6559, 4563.679
459.1380, 4577.586
459.6201, 4561.598
460.1023, 4541.717
460.5844, 4534.321
461.0665, 4538.391
461.5486, 4553.058
462.0307, 4581.838
462.5128, 4615.959
462.9950, 4653.079
463.4771, 4690.746
463.9592, 4719.126
464.4413, 4731.462
464.9234, 4734.449
465.4055, 4731.114
465.8877, 4718.600
466.3698, 4708.645
466.8519, 4701.820
467.3340, 4700.213
467.8161, 4707.266
468.2982, 4731.019
468.7804, 4756.012
469.2625, 4781.123
469.7446, 4807.532
470.2267, 4822.636
470.7088, 4819.534
471.1909, 4811.761
471.6731, 4810.232
472.1552, 4815.302
472.6373, 4827.029
473.1194, 4849.260
473.6015, 4877.400
474.0836, 4891.933
474.5658, 4890.664
475.0479, 4885.781
475.5300, 4883.576
476.0121, 4884.064
476.4942, 4888.397
476.9763, 4897.001
477.4585, 4908.157
477.9406, 4915.163
478.4227, 4920.840
478.9048, 4938.475
479.3869, 4988.122
479.8690, 5047.642
480.3512, 5086.499
480.8333, 5103.611
481.3154, 5110.649
481.7975, 5095.726
482.2796, 5082.242
482.7617, 5099.803
483.2439, 5189.892
483.7260, 5281.462
484.2081, 5347.553
484.6902, 5389.831
485.1723, 5416.208
485.6544, 5411.809
486.1366, 5404.391
486.6187, 5408.638
487.1008, 5431.411
487.5829, 5456.715
488.0650, 5488.313
488.5471, 5520.701
489.0293, 5544.869
489.5114, 5559.727
489.9935, 5567.257
490.4756, 5562.889
490.9577, 5545.910
491.4398, 5555.153
491.9220, 5603.187
492.4041, 5649.034
492.8862, 5642.229
493.3683, 5581.447
493.8504, 5547.580
494.3326, 5567.863
494.8147, 5612.094
495.2968, 5610.264
495.7789, 5566.543
496.2610, 5529.024
496.7431, 5532.904
497.2253, 5563.404
497.7074, 5600.728
498.1895, 5647.174
498.6716, 5679.106
499.1537, 5667.129
499.6358, 5628.895
500.1180, 5595.195
500.6001, 5580.122
501.0822, 5572.137
501.5643, 5566.054
502.0464, 5561.556
502.5285, 5559.255
503.0107, 5564.614
503.4928, 5568.881
503.9749, 5565.892
504.4570, 5523.747
504.9391, 5513.832
505.4212, 5563.495
505.9034, 5646.549
506.3855, 5688.726
506.8676, 5680.905
507.3497, 5647.726
507.8318, 5587.618
508.3139, 5492.946
508.7961, 5448.400
509.2782, 5469.514
509.7603, 5505.954
510.2424, 5486.074
510.7245, 5412.656
511.2066, 5360.073
511.6888, 5359.360
512.1709, 5384.759
512.6530, 5379.140
513.1351, 5344.667
513.6172, 5311.944
514.0994, 5302.831
514.5815, 5309.188
515.0636, 5320.529
515.5457, 5336.682
516.0278, 5352.121
516.5099, 5361.800
516.9921, 5368.188
517.4742, 5375.791
517.9563, 5370.314
518.4384, 5380.909
518.9205, 5430.396
519.4026, 5522.884
519.8848, 5598.756
520.3669, 5635.559
520.8490, 5659.944
521.3311, 5690.663
521.8132, 5727.129
522.2953, 5772.644
522.7775, 5836.300
523.2596, 5907.390
523.7417, 5950.549
524.2238, 5957.271
524.7059, 5961.942
525.1880, 5976.357
525.6702, 6000.299
526.1523, 6043.561
526.6344, 6108.678
527.1165, 6179.813
527.5986, 6235.594
528.0807, 6280.282
528.5629, 6331.201
529.0450, 6396.253
529.5271, 6466.813
530.0092, 6538.784
530.4913, 6608.461
530.9734, 6659.167
531.4556, 6658.068
531.9377, 6646.452
532.4198, 6662.033
532.9019, 6718.167
533.3840, 6776.462
533.8661, 6817.750
534.3483, 6853.249
534.8304, 6898.051
535.3125, 6981.015
535.7946, 7046.079
536.2767, 7073.714
536.7589, 7065.965
537.2410, 7070.584
537.7231, 7100.419
538.2052, 7125.418
538.6873, 7126.875
539.1694, 7102.004
539.6516, 7064.799
540.1337, 7013.876
540.6158, 6954.446
541.0979, 6891.416
541.5800, 6824.973
542.0621, 6765.715
542.5443, 6720.138
543.0264, 6683.586
543.5085, 6637.420
543.9906, 6582.012
544.4727, 6546.744
544.9548, 6575.628
545.4370, 6632.490
545.9191, 6666.584
546.4012, 6657.269
546.8833, 6639.250
547.3654, 6631.346
547.8475, 6629.240
548.3297, 6623.583
548.8118, 6596.726
549.2939, 6578.316
549.7760, 6589.632
550.2581, 6641.692
550.7402, 6657.460
551.2224, 6622.119
551.7045, 6560.819
552.1866, 6492.275
552.6687, 6417.733
553.1508, 6331.722
553.6329, 6231.041
554.1151, 6120.697
554.5972, 6008.192
555.0793, 5893.009
555.5614, 5783.017
556.0435, 5675.303
556.5256, 5575.457
557.0078, 5511.590
557.4899, 5486.506
557.9720, 5465.301
558.4541, 5401.316
558.9362, 5320.813
559.4183, 5273.476
559.9005, 5294.564
560.3826, 5322.034
560.8647, 5305.085
561.3468, 5259.743
561.8289, 5232.334
562.3110, 5256.053
562.7932, 5288.102
563.2753, 5312.119
563.7574, 5328.553
564.2395, 5328.660
564.7216, 5302.276
565.2037, 5266.503
565.6859, 5234.031
566.1680, 5195.561
566.6501, 5184.360
567.1322, 5216.184
567.6143, 5271.818
568.0964, 5288.728
568.5786, 5261.430
569.0607, 5238.292
569.5428, 5259.063
570.0249, 5306.802
570.5070, 5310.792
570.9891, 5265.876
571.4713, 5216.189
571.9534, 5202.525
572.4355, 5213.729
572.9176, 5231.805
573.3997, 5260.133
573.8818, 5281.933
574.3640, 5282.451
574.8461, 5267.656
575.3282, 5254.328
575.8103, 5241.792
576.2924, 5238.111
576.7745, 5250.372
577.2567, 5284.768
577.7388, 5309.806
578.2209, 5323.215
578.7030, 5328.926
579.1851, 5328.506
579.6672, 5316.999
580.1494, 5313.356
580.6315, 5318.722
581.1136, 5334.117
581.5957, 5366.012
582.0778, 5415.144
582.5599, 5461.269
583.0421, 5491.880
583.5242, 5512.122
584.0063, 5534.043
584.4884, 5557.717
584.9705, 5588.625
585.4526, 5635.436
585.9348, 5691.418
586.4169, 5750.992
586.8990, 5830.559
587.3811, 5882.650
587.8632, 5855.257
588.3453, 5784.074
588.8275, 5745.626
589.3096, 5789.826
589.7917, 5840.147
590.2738, 5874.727
590.7559, 5893.178
591.2380, 5901.097
591.7202, 5892.341
592.2023, 5881.333
592.6844, 5876.051
593.1665, 5875.197
593.6486, 5891.089
594.1307, 5927.938
594.6129, 5976.275
595.0950, 6020.776
595.5771, 6062.197
596.0592, 6106.542
596.5413, 6163.894
597.0234, 6221.397
597.5056, 6245.268
597.9877, 6241.608
598.4698, 6261.179
598.9519, 6350.424
599.4340, 6469.491
599.9161, 6584.627
600.3983, 6693.759
600.8804, 6790.920
601.3625, 6864.188
601.8446, 6928.051
602.3267, 7003.788
602.8088, 7093.508
603.2910, 7195.098
603.7731, 7315.437
604.2552, 7449.046
604.7373, 7555.597
605.2194, 7626.692
605.7015, 7696.905
606.1837, 7795.129
606.6658, 7916.591
607.1479, 8000.849
607.6300, 8044.413
608.1121, 8059.043
608.5942, 8061.042
609.0764, 8043.273
609.5585, 7986.632
610.0406, 7867.569
610.5227, 7733.032
611.0048, 7623.652
611.4869, 7528.472
611.9691, 7413.498
612.4512, 7251.422
612.9333, 7081.209
613.4154, 6920.229
613.8975, 6771.115
614.3796, 6624.824
614.8618, 6478.804
615.3439, 6338.885
615.8260, 6205.703
616.3081, 6077.902
616.7902, 5968.389
617.2723, 5878.219
617.7545, 5804.824
618.2366, 5750.670
618.7187, 5714.227
619.2008, 5666.647
619.6829, 5585.161
620.1650, 5492.583
620.6472, 5430.600
621.1293, 5396.230
621.6114, 5361.976
622.0935, 5302.154
622.5756, 5238.483
623.0577, 5189.705
623.5399, 5157.883
624.0220, 5141.542
624.5041, 5158.587
624.9862, 5182.943
625.4683, 5183.929
625.9504, 5138.994
626.4326, 5097.909
626.9147, 5068.007
627.3968, 5045.145
627.8789, 5013.072
628.3610, 4967.876
628.8431, 4929.480
629.3253, 4910.667
629.8074, 4907.841
630.2895, 4894.613
630.7716, 4870.092
631.2537, 4850.331
631.7358, 4853.442
632.2180, 4870.501
632.7001, 4887.001
633.1822, 4901.516
633.6643, 4910.744
634.1464, 4914.544
634.6285, 4911.235
635.1107, 4898.041
635.5928, 4868.393
636.0749, 4834.225
636.5570, 4790.386
637.0391, 4740.356
637.5212, 4717.904
638.0034, 4742.862
638.4855, 4766.156
638.9676, 4759.396
639.4497, 4716.415
639.9318, 4703.278
640.4139, 4727.029
640.8961, 4755.178
641.3782, 4745.115
641.8603, 4707.040
642.3424, 4682.187
642.8245, 4683.233
643.3066, 4695.380
643.7888, 4705.758
644.2709, 4715.051
644.7530, 4725.181
645.2351, 4750.968
645.7172, 4765.371
646.1993, 4744.220
646.6815, 4688.175
647.1636, 4653.658
647.6457, 4666.768
648.1278, 4688.308
648.6099, 4701.521
649.0920, 4704.855
649.5742, 4705.503
650.0563, 4704.079
650.5384, 4699.029
651.0205, 4679.671
651.5026, 4648.244
651.9847, 4646.116
652.4669, 4695.042
652.9490, 4758.234
653.4311, 4782.498
653.9132, 4774.081
654.3953, 4756.230
654.8774, 4721.159
655.3596, 4696.047
655.8417, 4710.042
656.3238, 4762.283
656.8059, 4800.937
657.2880, 4800.421
657.7701, 4787.987
658.2523, 4779.193
658.7344, 4771.895
659.2165, 4776.548
659.6986, 4803.498
660.1807, 4830.750
660.6628, 4823.782
661.1450, 4778.458
661.6271, 4754.396
662.1093, 4771.296
662.5914, 4806.467
663.0735, 4811.679
663.5556, 4793.762
664.0377, 4785.386
664.5198, 4818.784
665.0020, 4860.053
665.4841, 4873.966
665.9662, 4860.846
666.4483, 4849.566
666.9304, 4851.328
667.4125, 4859.891
667.8947, 4871.324
668.3768, 4884.540
668.8589, 4902.715
669.3410, 4931.609
669.8231, 4960.135
670.3052, 4975.660
670.7874, 4976.857
671.2695, 4970.037
671.7516, 4953.625
672.2337, 4933.196
672.7158, 4915.960
673.1979, 4903.332
673.6801, 4904.535
674.1622, 4944.905
674.6443, 4988.651
675.1264, 4985.870
675.6085, 4942.755
676.0906, 4916.121
676.5728, 4960.631
677.0549, 5011.430
677.5370, 5021.797
678.0191, 4959.094
678.5012, 4935.924
678.9833, 4982.529
679.4655, 5046.818
679.9476, 5081.342
680.4297, 5081.622
680.9118, 5067.148
681.3939, 5030.531
681.8760, 4995.867
682.3582, 5021.280
682.8403, 5095.810
683.3224, 5152.324
683.8045, 5143.529
684.2866, 5115.389
684.7687, 5126.774
685.2509, 5169.542
685.7330, 5203.788
686.2151, 5195.716
686.6972, 5184.042
687.1793, 5194.361
687.6614, 5235.532
688.1436, 5262.857
688.6257, 5262.743
689.1078, 5258.658
689.5899, 5267.872
690.0720, 5293.854
690.5541, 5319.414
691.0363, 5344.399
691.5184, 5366.883
692.0005, 5382.558
692.4826, 5392.469
692.9647, 5402.003
693.4468, 5414.427
693.9290, 5425.620
694.4111, 5424.883
694.8932, 5418.610
695.3753, 5424.993
695.8574, 5468.233
696.3395, 5511.714
696.8217, 5535.993
697.3038, 5539.460
697.7859, 5546.080
698.2680, 5556.451
698.7501, 5570.630
699.2322, 5592.671
699.7144, 5627.545
700.1965, 5633.640
700.6786, 5602.763
701.1607, 5570.383
701.6428, 5578.917
702.1249, 5619.403
702.6071, 5661.269
703.0892, 5699.489
703.5713, 5733.944
704.0534, 5764.154
704.5355, 5790.712
705.0176, 5814.692
705.4998, 5846.693
705.9819, 5865.278
706.4640, 5847.310
706.9461, 5805.035
707.4282, 5801.603
707.9103, 5864.017
708.3925, 5921.797
708.8746, 5944.147
709.3567, 5934.076
709.8388, 5952.613
710.3209, 6002.998
710.8030, 6054.992
711.2852, 6075.586
711.7673, 6081.135
712.2494, 6110.147
712.7315, 6169.333
713.2136, 6233.668
713.6957, 6291.698
714.1779, 6342.970
714.6600, 6385.905
715.1421, 6409.354
715.6242, 6439.435
716.1063, 6484.690
716.5884, 6537.737
717.0706, 6586.564
717.5527, 6628.559
718.0348, 6672.898
718.5169, 6723.100
718.9990, 6775.681
719.4811, 6815.208
719.9633, 6843.068
720.4454, 6877.241
720.9275, 6932.179
721.4096, 6996.912
721.8917, 7059.256
722.3738, 7118.611
722.8560, 7175.128
723.3381, 7221.736
723.8202, 7270.509
724.3023, 7327.482
724.7844, 7390.227
725.2665, 7471.835
725.7487, 7582.383
726.2308, 7700.281
726.7129, 7806.403
727.1950, 7895.387
727.6771, 8002.826
728.1592, 8136.453
728.6414, 8280.407
729.1235, 8409.192
729.6056, 8527.471
730.0877, 8650.746
730.5698, 8777.171
731.0519, 8918.510
731.5341, 9107.579
732.0162, 9320.873
732.4983, 9494.396
732.9804, 9537.258
733.4625, 9610.650
733.9446, 9793.173
734.4268, 10064.24
734.9089, 10287.15
735.3910, 10443.26
735.8731, 10596.72
736.3552, 10783.53
736.8373, 10997.49
737.3195, 11191.75
737.8016, 11365.57
738.2837, 11538.21
738.7658, 11737.22
739.2479, 11941.04
739.7300, 12110.24
740.2122, 12228.54
740.6943, 12363.58
741.1764, 12561.92
741.6585, 12788.27
742.1406, 13005.64
742.6227, 13209.77
743.1049, 13404.43
743.5870, 13581.37
744.0691, 13754.86
744.5512, 13951.03
745.0333, 14171.35
745.5154, 14400.30
745.9976, 14643.25
746.4797, 14875.06
746.9618, 15027.51
747.4439, 15124.02
747.9260, 15245.87
748.4081, 15437.12
748.8903, 15666.64
749.3724, 15947.00
749.8545, 16259.98
750.3366, 16511.22
750.8187, 16610.16
751.3008, 16711.88
751.7830, 16882.66
752.2651, 17128.18
752.7472, 17318.69
753.2293, 17447.27
753.7114, 17551.41
754.1935, 17664.95
754.6757, 17779.65
755.1578, 17854.70
755.6399, 17886.27
756.1220, 17898.75
756.6041, 17938.39
757.0862, 17959.08
757.5684, 17902.10
758.0505, 17726.04
758.5326, 17537.31
759.0147, 17380.42
759.4968, 17219.82
759.9789, 17006.03
760.4611, 16710.96
760.9432, 16437.29
761.4253, 16207.46
761.9074, 15994.36
762.3895, 15743.02
762.8716, 15456.83
763.3538, 15161.75
763.8359, 14864.65
764.3180, 14565.86
764.8001, 14257.14
765.2822, 13944.84
765.7643, 13655.73
766.2465, 13422.38
766.7286, 13194.15
767.2107, 12948.77
767.6928, 12687.16
768.1749, 12428.07
768.6570, 12152.24
769.1392, 11916.76
769.6213, 11753.92
770.1034, 11658.75
770.5855, 11551.55
771.0676, 11431.41
771.5497, 11339.41
772.0319, 11333.13
772.5140, 11364.59
772.9961, 11350.87
773.4782, 11275.79
773.9603, 11241.93
774.4424, 11324.63
774.9246, 11455.00
775.4067, 11578.71
775.8888, 11682.77
776.3709, 11792.11
776.8530, 11886.83
777.3351, 12012.00
777.8173, 12242.94
778.2994, 12581.23
778.7815, 12860.19
779.2636, 13039.70
779.7457, 13199.98
780.2278, 13446.15
780.7100, 13748.66
781.1921, 14052.91
781.6742, 14350.70
782.1563, 14631.96
782.6384, 14888.92
783.1205, 15123.34
783.6027, 15343.74
784.0848, 15579.33
784.5669, 15757.84
785.0490, 15860.64
785.5311, 15897.63
786.0132, 15903.50
786.4954, 15878.97
786.9775, 15790.66
787.4596, 15625.61
787.9417, 15385.42
788.4238, 15053.96
788.9059, 14642.13
789.3881, 14219.02
789.8702, 13798.46
790.3523, 13389.49
790.8344, 13007.84
791.3165, 12653.50
791.7986, 12260.07
792.2808, 11767.74
792.7629, 11321.75
793.2450, 11005.59
793.7271, 10818.77
794.2092, 10618.14
794.6913, 10401.91
795.1735, 10199.23
795.6556, 10031.39
796.1377, 9896.650
796.6198, 9806.630
797.1019, 9769.565
797.5840, 9720.487
798.0662, 9604.063
798.5483, 9477.049
799.0304, 9385.704
799.5125, 9338.090
799.9946, 9318.365
800.4767, 9334.848
800.9589, 9367.756
801.4410, 9393.636
801.9231, 9413.923
802.4052, 9448.781
802.8873, 9504.019
803.3694, 9565.922
803.8516, 9612.778
804.3337, 9657.364
804.8158, 9720.961
805.2979, 9824.199
805.7800, 9927.038
806.2621, 10014.07
806.7443, 10092.12
807.2264, 10176.33
807.7085, 10273.71
808.1906, 10357.28
808.6727, 10416.44
809.1548, 10465.25
809.6370, 10543.33
810.1191, 10644.46
810.6012, 10720.95
811.0833, 10731.78
811.5654, 10732.33
812.0475, 10775.98
812.5297, 10855.95
813.0118, 10951.54
813.4939, 11065.17
813.9760, 11183.97
814.4581, 11294.00
814.9402, 11404.44
815.4224, 11557.34
815.9045, 11758.44
816.3866, 11984.60
816.8687, 12218.19
817.3508, 12470.52
817.8329, 12773.29
818.3151, 13123.02
818.7972, 13513.26
819.2793, 13943.62
819.7614, 14409.19
820.2435, 14898.77
820.7256, 15406.18
821.2078, 15986.20
821.6899, 16689.52
822.1720, 17429.46
822.6541, 18175.50
823.1362, 18930.00
823.6183, 19741.76
824.1005, 20620.97
824.5826, 21536.32
825.0647, 22461.43
825.5469, 23411.93
826.0290, 24396.36
826.5111, 25419.51
826.9932, 26481.79
827.4753, 27610.09
827.9575, 28755.28
828.4396, 29859.33
828.9217, 30936.24
829.4038, 31956.02
829.8859, 32948.98
830.3680, 33852.73
830.8502, 34648.41
831.3323, 35328.41
831.8144, 35851.72
832.2965, 36211.86
832.7786, 36382.81
833.2607, 36326.30
833.7429, 36069.21
834.2250, 35644.76
834.7071, 35046.02
835.1892, 34312.31
835.6713, 33361.55
836.1534, 32339.72
836.6356, 31367.77
837.1177, 30433.11
837.5998, 29585.62
838.0819, 28817.77
838.5640, 28172.25
839.0461, 27716.98
839.5283, 27427.34
840.0104, 27238.80
840.4925, 27145.58
840.9746, 27118.37
841.4567, 27122.05
841.9388, 27183.00
842.4210, 27335.39
842.9031, 27699.48
843.3852, 27992.14
843.8673, 28181.50
844.3494, 28308.23
844.8315, 28435.98
845.3137, 28571.39
845.7958, 28617.44
846.2779, 28564.14
846.7600, 28399.12
847.2421, 28085.85
847.7242, 27653.95
848.2064, 27160.89
848.6885, 26618.20
849.1706, 26027.54
849.6527, 25344.10
850.1348, 24627.07
850.6169, 23962.82
851.0991, 23347.64
851.5812, 22808.09
852.0633, 22350.79
852.5454, 21974.23
853.0275, 21689.76
853.5096, 21490.53
853.9918, 21340.45
854.4739, 21221.81
854.9560, 21160.16
855.4381, 21188.48
855.9202, 21284.14
856.4023, 21408.35
856.8845, 21506.81
857.3666, 21693.98
857.8487, 22020.88
858.3308, 22421.77
858.8129, 22768.15
859.2950, 23058.19
859.7772, 23360.36
860.2593, 23706.94
860.7414, 24053.03
861.2235, 24372.97
861.7056, 24636.45
862.1877, 24764.94
862.6699, 24715.23
863.1520, 24539.59
863.6341, 24247.01
864.1162, 23836.63
864.5983, 23330.03
865.0804, 22708.35
865.5626, 22022.10
866.0447, 21253.03
866.5268, 20447.15
867.0089, 19666.89
867.4910, 18908.02
867.9731, 18185.63
868.4553, 17487.34
868.9374, 16835.87
869.4195, 16244.29
869.9016, 15710.50
870.3837, 15232.23
870.8658, 14820.08
871.3480, 14445.58
871.8301, 14107.86
872.3122, 13804.74
872.7943, 13532.40
873.2764, 13292.02
873.7585, 13057.68
874.2407, 12819.53
874.7228, 12586.58
875.2049, 12367.24
875.6870, 12162.43
876.1691, 11974.67
876.6512, 11813.22
877.1334, 11656.73
877.6155, 11498.73
878.0976, 11343.20
878.5797, 11199.88
879.0618, 11071.19
879.5439, 10945.68
880.0261, 10822.16
880.5082, 10698.63
880.9903, 10568.46
881.4724, 10435.11
881.9545, 10308.28
882.4366, 10190.81
882.9188, 10081.74
883.4009, 9982.906
883.8830, 9891.934
884.3651, 9801.011
884.8472, 9703.787
885.3293, 9616.463
885.8115, 9537.969
886.2936, 9473.552
886.7757, 9444.589
887.2578, 9443.049
887.7399, 9425.283
888.2220, 9374.516
888.7042, 9306.982
889.1863, 9216.803
889.6684, 9122.985
890.1505, 9056.954
890.6326, 9060.379
891.1147, 9045.854
891.5969, 8993.729
892.0790, 8929.481
892.5611, 8901.044
893.0432, 8908.103
893.5253, 8898.466
894.0074, 8852.960
894.4896, 8806.850
894.9717, 8817.426
895.4538, 8851.105
895.9359, 8850.780
896.4180, 8756.076
896.9001, 8686.289
897.3823, 8680.696
897.8644, 8704.315
898.3465, 8721.613
898.8286, 8734.413
899.3107, 8723.520
899.7928, 8677.301
900.2750, 8634.842
900.7571, 8661.572
901.2392, 8725.946
901.7213, 8766.583
902.2034, 8755.662
902.6855, 8747.147
903.1677, 8762.409
903.6498, 8792.753
904.1319, 8829.480
904.6140, 8879.233
905.0961, 8912.874
905.5782, 8925.477
906.0604, 8931.284
906.5425, 8941.257
907.0246, 8958.212
907.5067, 8995.426
907.9888, 9061.112
908.4709, 9114.427
908.9531, 9111.617
909.4352, 9096.143
909.9173, 9108.078
910.3994, 9159.225
910.8815, 9214.886
911.3636, 9278.569
911.8458, 9339.013
912.3279, 9386.441
912.8100, 9421.821
913.2921, 9450.153
913.7742, 9471.844
914.2563, 9483.472
914.7385, 9469.262
915.2206, 9452.979
915.7027, 9460.728
916.1848, 9507.312
916.6669, 9516.318
917.1490, 9468.708
917.6312, 9411.974
918.1133, 9376.974
918.5954, 9361.021
919.0775, 9328.803
919.5596, 9281.237
920.0417, 9252.402
920.5239, 9285.639
921.0060, 9335.602
921.4881, 9357.011
921.9702, 9347.144
922.4523, 9364.754
922.9344, 9437.221
923.4166, 9509.668
923.8987, 9562.186
924.3808, 9595.905
924.8629, 9613.581
925.3450, 9616.388
925.8271, 9632.644
926.3093, 9689.071
926.7914, 9759.604
927.2735, 9822.231
927.7556, 9877.902
928.2377, 9933.771
928.7198, 9992.391
929.2020, 10049.10
929.6841, 10098.85
930.1662, 10147.20
930.6483, 10217.23
931.1304, 10308.95
931.6125, 10400.21
932.0947, 10501.58
932.5768, 10575.99
933.0589, 10578.14
933.5410, 10522.74
934.0231, 10442.88
934.5052, 10322.63
934.9874, 10212.98
935.4695, 10126.01
935.9516, 10051.02
936.4337, 9974.156
936.9158, 9896.348
937.3979, 9772.926
937.8801, 9570.207
938.3622, 9384.671
938.8443, 9359.365
939.3264, 9416.052
939.8085, 9433.729
940.2906, 9332.337
940.7728, 9269.050
941.2549, 9299.157
941.7370, 9348.938
942.2191, 9331.566
942.7012, 9241.229
943.1833, 9219.729
943.6655, 9288.608
944.1476, 9366.727
944.6297, 9360.294
945.1118, 9318.037
945.5939, 9301.932
946.0760, 9324.597
946.5582, 9359.619
947.0403, 9419.643
947.5224, 9471.616
948.0045, 9490.492
948.4866, 9473.918
948.9688, 9483.547
949.4509, 9520.401
949.9330, 9564.256
950.4151, 9600.593
950.8972, 9634.809
951.3793, 9674.676
951.8615, 9720.090
952.3436, 9761.648
952.8257, 9784.544
953.3078, 9816.902
953.7899, 9869.943
954.2720, 9940.864
954.7542, 10002.87
955.2363, 10056.25
955.7184, 10148.95
956.2005, 10348.46
956.6826, 10564.02
957.1647, 10678.64
957.6469, 10727.89
958.1290, 10812.92
958.6111, 10981.59
959.0932, 11168.30
959.5753, 11365.34
960.0574, 11569.18
960.5396, 11776.15
961.0217, 11982.79
961.5038, 12184.34
961.9859, 12378.09
962.4680, 12570.45
962.9501, 12755.15
963.4323, 12945.55
963.9144, 13161.54
964.3965, 13422.91
964.8786, 13682.72
965.3607, 13949.56
965.8428, 14200.55
966.3250, 14403.53
966.8071, 14564.89
967.2892, 14766.40
967.7713, 15022.67
968.2534, 15235.69
968.7355, 15327.99
969.2177, 15336.94
969.6998, 15298.58
970.1819, 15220.25
970.6640, 15063.99
971.1461, 14814.95
971.6282, 14513.49
972.1104, 14159.14
972.5925, 13768.13
973.0746, 13438.61
973.5567, 13163.68
974.0388, 12900.52
974.5209, 12605.39
975.0031, 12321.11
975.4852, 12078.52
975.9673, 11874.34
976.4494, 11695.71
976.9315, 11536.64
977.4136, 11410.68
977.8958, 11331.68
978.3779, 11275.71
978.8600, 11188.13
979.3421, 11076.66
979.8242, 10964.68
980.3063, 10857.75
980.7885, 10758.05
981.2706, 10658.13
981.7527, 10571.72
982.2348, 10522.19
982.7169, 10529.69
983.1990, 10510.75
983.6812, 10452.33
984.1633, 10386.82
984.6454, 10355.27
985.1275, 10345.24
985.6096, 10330.31
986.0917, 10305.26
986.5739, 10281.89
987.0560, 10262.25
987.5381, 10249.03
988.0202, 10244.33
988.5023, 10248.75
988.9844, 10253.61
989.4666, 10259.65
989.9487, 10258.79
990.4308, 10237.23
990.9130, 10209.73
991.3951, 10191.68
991.8772, 10185.32
992.3593, 10200.30
992.8414, 10279.48
993.3235, 10332.52
993.8057, 10318.08
994.2878, 10265.43
994.7699, 10272.71
995.2520, 10338.04
995.7341, 10375.11
996.2162, 10346.35
996.6984, 10295.40
997.1805, 10247.86
997.6626, 10214.75
998.1447, 10214.23
998.6268, 10289.98
999.1089, 10342.64
999.5911, 10370.58
1000.073, 10372.95
1000.555, 10331.63
1001.037, 10258.19
1001.520, 10228.92
1002.002, 10253.43
1002.484, 10290.08
1002.966, 10313.82
1003.448, 10332.85
1003.930, 10352.60
1004.412, 10373.46
1004.894, 10396.53
1005.376, 10424.25
1005.859, 10447.50
1006.341, 10461.82
1006.823, 10468.73
1007.305, 10469.96
1007.787, 10466.97
1008.269, 10465.64
1008.751, 10464.03
1009.233, 10470.13
1009.716, 10491.86
1010.198, 10522.52
1010.680, 10554.63
1011.162, 10592.34
1011.644, 10596.80
1012.126, 10550.24
1012.608, 10498.64
1013.090, 10504.07
1013.572, 10540.39
1014.055, 10569.88
1014.537, 10582.81
1015.019, 10589.81
1015.501, 10582.30
1015.983, 10581.80
1016.465, 10616.15
1016.947, 10681.86
1017.429, 10689.00
1017.911, 10637.79
1018.394, 10584.22
1018.876, 10558.99
1019.358, 10555.11
1019.840, 10580.90
1020.322, 10630.11
1020.804, 10643.97
1021.286, 10599.05
1021.768, 10569.59
1022.251, 10579.86
1022.733, 10614.66
1023.215, 10656.81
1023.697, 10696.86
1024.179, 10702.06
1024.661, 10624.71
1025.143, 10570.46
1025.625, 10611.49
1026.107, 10684.74
1026.590, 10714.52
1027.072, 10688.69
1027.554, 10683.63
1028.036, 10704.55
1028.518, 10735.50
1029.000, 10763.99
1029.482, 10792.29
1029.964, 10833.34
1030.447, 10888.25
1030.929, 10904.27
1031.411, 10824.69
1031.893, 10760.39
1032.375, 10757.07
1032.857, 10797.34
1033.339, 10808.54
1033.821, 10794.69
1034.303, 10786.20
1034.786, 10802.41
1035.268, 10822.42
1035.750, 10831.70
1036.232, 10834.94
1036.714, 10840.28
1037.196, 10846.22
1037.678, 10860.74
1038.160, 10888.11
1038.642, 10912.74
1039.125, 10909.09
1039.607, 10890.86
1040.089, 10886.34
1040.571, 10900.65
1041.053, 10911.78
1041.535, 10909.62
1042.017, 10903.41
1042.499, 10896.03
1042.982, 10888.58
1043.464, 10891.64
1043.946, 10905.15
1044.428, 10915.48
1044.910, 10905.41
1045.392, 10898.51
1045.874, 10922.22
1046.356, 10965.11
1046.839, 10999.51
1047.321, 11014.84
1047.803, 11037.61
1048.285, 11079.26
1048.767, 11111.08
1049.249, 11077.29
1049.731, 11003.57
1050.213, 10966.95
1050.695, 10982.93
1051.177, 11002.52
1051.660, 10988.12
1052.142, 10982.10
1052.624, 11020.72
1053.106, 11102.26
1053.588, 11122.84
1054.070, 11078.84
1054.552, 11054.50
1055.034, 11126.42
1055.517, 11216.95
1055.999, 11230.79
1056.481, 11194.40
1056.963, 11175.09
1057.445, 11212.87
1057.927, 11227.09
1058.409, 11198.90
1058.891, 11162.06
1059.374, 11174.58
1059.856, 11218.62
1060.338, 11227.36
1060.820, 11184.79
1061.302, 11156.61
1061.784, 11191.27
1062.266, 11243.34
1062.748, 11286.97
1063.230, 11321.93
1063.713, 11340.57
1064.195, 11342.41
1064.677, 11337.50
1065.159, 11322.36
1065.641, 11311.57
1066.123, 11328.53
1066.605, 11362.50
1067.087, 11388.48
1067.569, 11390.87
1068.052, 11398.05
1068.534, 11411.03
1069.016, 11430.34
1069.498, 11463.13
1069.980, 11502.51
1070.462, 11527.46
1070.944, 11534.79
1071.426, 11533.56
1071.909, 11517.88
1072.391, 11505.99
1072.873, 11510.37
1073.355, 11529.54
1073.837, 11545.17
1074.319, 11557.17
1074.801, 11573.75
1075.283, 11611.30
1075.766, 11640.10
1076.248, 11601.25
1076.730, 11535.61
1077.212, 11520.94
1077.694, 11621.49
1078.176, 11688.98
1078.658, 11712.88
1079.140, 11710.84
1079.622, 11689.29
1080.105, 11659.33
1080.587, 11653.59
1081.069, 11674.56
1081.551, 11696.91
1082.033, 11705.04
1082.515, 11716.05
1082.997, 11743.82
1083.479, 11780.74
1083.962, 11790.01
1084.444, 11773.04
1084.926, 11753.68
1085.408, 11730.76
1085.890, 11727.98
1086.372, 11789.48
1086.854, 11875.47
1087.336, 11926.74
1087.818, 11920.46
1088.301, 11921.17
1088.783, 11928.91
1089.265, 11941.73
1089.747, 11959.01
1090.229, 11979.38
1090.711, 12002.14
1091.193, 12026.30
1091.675, 12045.92
1092.157, 12051.94
1092.640, 12061.17
1093.122, 12076.18
1093.604, 12098.70
1094.086, 12142.07
1094.568, 12200.38
1095.050, 12233.11
1095.532, 12226.00
1096.014, 12207.76
1096.497, 12188.67
1096.979, 12174.16
1097.461, 12170.03
1097.943, 12177.61
1098.425, 12179.67
1098.907, 12174.00
1099.389, 12182.18
1099.871, 12235.91
1100.354, 12297.69
1100.836, 12319.49
1101.318, 12311.63
1101.800, 12305.41
1102.282, 12304.40
1102.764, 12312.80
1103.246, 12335.63
1103.728, 12359.12
1104.210, 12359.74
1104.693, 12347.05
1105.175, 12346.78
1105.657, 12363.42
1106.139, 12379.08
1106.621, 12380.31
1107.103, 12385.01
1107.585, 12404.77
1108.067, 12435.11
1108.549, 12450.04
1109.032, 12450.87
1109.514, 12454.29
1109.996, 12473.92
1110.478, 12487.98
1110.960, 12461.94
1111.442, 12429.11
1111.924, 12438.39
1112.406, 12506.93
1112.889, 12564.40
1113.371, 12609.03
1113.853, 12641.33
1114.335, 12654.12
1114.817, 12658.43
1115.299, 12666.34
1115.781, 12678.39
1116.263, 12694.79
1116.745, 12724.75
1117.228, 12740.64
1117.710, 12729.82
1118.192, 12713.24
1118.674, 12729.42
1119.156, 12770.59
1119.638, 12823.01
1120.120, 12892.77
1120.602, 12933.53
1121.084, 12903.12
1121.567, 12858.63
1122.049, 12822.80
1122.531, 12798.88
1123.013, 12829.99
1123.495, 12910.91
1123.977, 12985.35
1124.459, 13030.25
1124.941, 13053.12
1125.424, 13041.52
1125.906, 13016.40
1126.388, 13014.93
1126.870, 13043.33
1127.352, 13067.90
1127.834, 13086.51
1128.316, 13101.19
1128.798, 13111.92
1129.281, 13121.63
1129.763, 13132.04
1130.245, 13143.72
1130.727, 13164.89
1131.209, 13214.04
1131.691, 13224.58
1132.173, 13162.69
1132.655, 13082.10
1133.137, 13073.77
1133.620, 13115.37
1134.102, 13164.37
1134.584, 13212.02
1135.066, 13263.80
1135.548, 13341.96
1136.030, 13396.46
1136.512, 13379.10
1136.994, 13312.31
1137.476, 13322.42
1137.959, 13395.04
1138.441, 13456.06
1138.923, 13462.81
1139.405, 13454.76
1139.887, 13431.89
1140.369, 13412.85
1140.851, 13428.54
1141.333, 13480.10
1141.816, 13499.48
1142.298, 13479.59
1142.780, 13466.71
1143.262, 13510.56
1143.744, 13564.13
1144.226, 13587.55
1144.708, 13585.71
1145.190, 13604.77
1145.672, 13648.47
1146.155, 13691.29
1146.637, 13728.31
1147.119, 13753.41
1147.601, 13742.08
1148.083, 13722.58
1148.565, 13735.92
1149.047, 13806.23
1149.529, 13844.55
1150.011, 13841.01
1150.494, 13828.79
1150.976, 13821.39
1151.458, 13821.33
1151.940, 13840.34
1152.422, 13871.09
1152.904, 13893.55
1153.386, 13890.64
1153.868, 13894.55
1154.351, 13912.71
1154.833, 13932.85
1155.315, 13941.44
1155.797, 13941.38
1156.279, 13933.00
1156.761, 13919.20
1157.243, 13932.83
1157.725, 14030.70
1158.208, 14109.58
1158.690, 14124.32
1159.172, 14104.01
1159.654, 14121.68
1160.136, 14169.19
1160.618, 14183.60
1161.100, 14143.59
1161.582, 14114.37
1162.064, 14139.99
1162.547, 14192.89
1163.029, 14264.94
1163.511, 14351.63
1163.993, 14378.55
1164.475, 14347.10
1164.957, 14310.81
1165.439, 14283.23
1165.921, 14275.12
1166.403, 14310.57
1166.886, 14364.26
1167.368, 14401.13
1167.850, 14419.28
1168.332, 14421.17
1168.814, 14404.60
1169.296, 14390.56
1169.778, 14391.70
1170.260, 14405.46
1170.743, 14437.10
1171.225, 14479.51
1171.707, 14504.75
1172.189, 14490.82
1172.671, 14521.67
1173.153, 14621.28
1173.635, 14721.93
1174.117, 14725.45
1174.599, 14691.57
1175.082, 14719.21
1175.564, 14818.55
1176.046, 14860.80
1176.528, 14799.83
1177.010, 14751.61
1177.492, 14749.93
1177.974, 14780.80
1178.456, 14837.27
1178.938, 14902.09
1179.421, 14941.75
1179.903, 14943.39
1180.385, 14933.60
1180.867, 14902.84
1181.349, 14886.41
1181.831, 14908.07
1182.313, 14957.53
1182.795, 15003.69
1183.278, 15046.81
1183.760, 15086.04
1184.242, 15127.48
1184.724, 15154.07
1185.206, 15148.90
1185.688, 15142.75
1186.170, 15171.08
1186.652, 15225.46
1187.135, 15258.83
1187.617, 15270.78
1188.099, 15274.23
1188.581, 15251.39
1189.063, 15253.23
1189.545, 15322.18
1190.027, 15410.86
1190.509, 15427.84
1190.991, 15384.30
1191.474, 15370.50
1191.956, 15400.37
1192.438, 15435.50
1192.920, 15451.57
1193.402, 15463.50
1193.884, 15473.00
1194.366, 15486.14
1194.848, 15543.89
1195.330, 15640.15
1195.813, 15680.87
1196.295, 15618.18
1196.777, 15561.05
1197.259, 15607.90
1197.741, 15683.30
1198.223, 15716.98
1198.705, 15708.56
1199.187, 15741.09
1199.670, 15814.55
1200.152, 15860.99
1200.634, 15824.00
1201.116, 15781.11
1201.598, 15798.03
1202.080, 15842.49
1202.562, 15867.05
1203.044, 15863.41
1203.526, 15878.77
1204.009, 15914.12
1204.491, 15956.75
1204.973, 16021.51
1205.455, 16068.33
1205.937, 16036.84
1206.419, 15964.20
1206.901, 15952.10
1207.383, 16015.32
1207.865, 16070.61
1208.348, 16107.95
1208.830, 16146.79
1209.312, 16222.85
1209.794, 16295.19
1210.276, 16314.07
1210.758, 16285.32
1211.240, 16283.59
1211.722, 16316.32
1212.205, 16343.79
1212.687, 16356.96
1213.169, 16366.05
1213.651, 16377.30
1214.133, 16394.66
1214.615, 16431.50
1215.097, 16492.49
1215.579, 16502.79
1216.062, 16446.59
1216.544, 16422.10
1217.026, 16479.60
1217.508, 16557.70
1217.990, 16568.15
1218.472, 16553.33
1218.954, 16574.82
1219.436, 16654.51
1219.918, 16719.01
1220.401, 16765.78
1220.883, 16808.48
1221.365, 16866.52
1221.847, 16913.54
1222.329, 16899.85
1222.811, 16853.14
1223.293, 16829.11
1223.775, 16840.30
1224.257, 16861.82
1224.740, 16892.67
1225.222, 16937.33
1225.704, 17019.92
1226.186, 17104.17
1226.668, 17136.41
1227.150, 17129.52
1227.632, 17126.96
1228.114, 17124.82
1228.597, 17157.21
1229.079, 17236.91
1229.561, 17311.10
1230.043, 17305.68
1230.525, 17275.46
1231.007, 17290.74
1231.489, 17349.00
1231.971, 17390.51
1232.453, 17406.83
1232.936, 17420.33
1233.418, 17433.34
1233.900, 17452.35
1234.382, 17494.75
1234.864, 17541.84
1235.346, 17572.67
1235.828, 17584.03
1236.310, 17579.64
1236.792, 17550.15
1237.275, 17545.88
1237.757, 17589.81
1238.239, 17647.69
1238.721, 17666.39
1239.203, 17675.18
1239.685, 17717.51
1240.167, 17811.09
1240.650, 17867.07
1241.132, 17878.99
1241.614, 17881.00
1242.096, 17882.27
1242.578, 17890.34
1243.060, 17925.72
1243.542, 17969.51
1244.024, 17991.01
1244.506, 17976.33
1244.989, 17976.86
1245.471, 17993.41
1245.953, 18018.47
1246.435, 18052.83
1246.917, 18088.00
1247.399, 18111.40
1247.881, 18129.60
1248.363, 18157.78
1248.845, 18209.79
1249.328, 18216.68
1249.810, 18169.39
1250.292, 18139.05
1250.774, 18199.21
1251.256, 18284.74
1251.738, 18335.61
1252.220, 18362.04
1252.702, 18399.08
1253.185, 18455.60
1253.667, 18471.06
1254.149, 18435.47
1254.631, 18411.30
1255.113, 18465.36
1255.595, 18541.90
1256.077, 18611.40
1256.559, 18662.57
1257.042, 18661.89
1257.524, 18601.49
1258.006, 18572.90
1258.488, 18590.81
1258.970, 18631.17
1259.452, 18695.36
1259.934, 18753.83
1260.416, 18777.85
1260.898, 18776.59
1261.380, 18774.74
1261.863, 18772.47
1262.345, 18802.55
1262.827, 18879.20
1263.309, 18946.03
1263.791, 18948.14
1264.273, 18934.76
1264.755, 18941.09
1265.237, 18963.01
1265.720, 18972.52
1266.202, 18972.93
1266.684, 18998.49
1267.166, 19066.29
1267.648, 19135.02
1268.130, 19188.32
1268.612, 19222.45
1269.094, 19231.37
1269.577, 19220.91
1270.059, 19226.61
1270.541, 19245.53
1271.023, 19264.04
1271.505, 19276.21
1271.987, 19289.75
1272.469, 19303.86
1272.951, 19326.27
1273.433, 19372.54
1273.916, 19429.99
1274.398, 19427.12
1274.880, 19380.72
1275.362, 19350.37
1275.844, 19352.72
1276.326, 19391.51
1276.808, 19489.21
1277.290, 19589.44
1277.772, 19655.56
1278.255, 19689.83
1278.737, 19682.46
1279.219, 19648.31
1279.701, 19638.38
1280.183, 19684.03
1280.665, 19738.59
1281.147, 19801.46
1281.629, 19859.83
1282.112, 19904.49
1282.594, 19935.89
1283.076, 19945.46
1283.558, 19942.06
1284.040, 19958.37
1284.522, 20029.45
1285.004, 20063.27
1285.486, 20042.76
1285.969, 20023.48
1286.451, 20067.26
1286.933, 20138.60
1287.415, 20195.41
1287.897, 20237.96
1288.379, 20276.58
1288.861, 20317.87
1289.343, 20334.39
1289.825, 20318.67
1290.307, 20305.55
1290.790, 20342.57
1291.272, 20386.25
1291.754, 20381.78
1292.236, 20346.22
1292.718, 20364.19
1293.200, 20443.12
1293.682, 20496.88
1294.164, 20510.53
1294.647, 20517.50
1295.129, 20542.44
1295.611, 20573.62
1296.093, 20607.65
1296.575, 20639.62
1297.057, 20653.32
1297.539, 20650.84
1298.021, 20662.04
1298.504, 20693.63
1298.986, 20724.33
1299.468, 20740.90
1299.950, 20753.50
1300.432, 20765.64
1300.914, 20780.78
1301.396, 20807.94
1301.878, 20845.29
1302.360, 20887.80
1302.843, 20934.46
1303.325, 20962.89
1303.807, 20946.23
1304.289, 20929.25
1304.771, 20926.88
1305.253, 20929.24
1305.735, 20904.72
##END=



