##NAMES=Clintonite
##RRUFFID=R070229
##IDEAL CHEMISTRY=CaAlMg_2_(SiAl_3_)O_10_(OH)_2_
##LOCALITY=Amity, Warwick Township, Orange County, New York, USA
##OWNER=RRUFF
##SOURCE=Michael Scott
##DESCRIPTION=Brown micaceous plates in dolomite. Polytype 1M, variety called seybertite
##STATUS=The identification of this mineral has been confirmed by X-ray diffraction and chemical analysis
##URL=rruff.info/R070229
##MEASURED CHEMISTRY=(Ca_0.98_Na_0.02_)_Σ=1_(Al_0.68_Mg_0.20_Fe^3+^_0.11_Ti_0.01_)_Σ=1_Mg_2.00_(Si_1.34_Al_2.66_)_Σ=4_O_10_((OH)_1.87_O_0.13_)_Σ=2_; OH estimated by charge balance
195.7475, 2018.674
196.2296, 2033.762
196.7117, 2043.438
197.1938, 2041.839
197.6759, 2036.412
198.1581, 2034.061
198.6402, 2037.041
199.1223, 2041.741
199.6044, 2040.670
200.0865, 2028.231
200.5686, 2021.379
201.0508, 2022.686
201.5329, 2028.282
202.0150, 2037.059
202.4971, 2048.191
202.9792, 2058.396
203.4613, 2062.399
203.9435, 2058.776
204.4256, 2051.585
204.9077, 2041.268
205.3898, 2028.001
205.8719, 2011.498
206.3540, 1991.862
206.8362, 1969.944
207.3183, 1946.235
207.8004, 1919.503
208.2825, 1894.646
208.7646, 1876.444
209.2467, 1856.275
209.7289, 1826.876
210.2110, 1788.843
210.6931, 1749.888
211.1752, 1719.556
211.6573, 1700.985
212.1395, 1680.192
212.6216, 1652.164
213.1037, 1626.395
213.5858, 1608.265
214.0679, 1597.384
214.5500, 1589.499
215.0322, 1579.833
215.5143, 1567.106
215.9964, 1561.605
216.4785, 1571.781
216.9606, 1581.224
217.4427, 1582.088
217.9249, 1576.429
218.4070, 1571.600
218.8891, 1574.022
219.3712, 1583.928
219.8533, 1592.627
220.3354, 1603.220
220.8176, 1609.357
221.2997, 1605.319
221.7818, 1595.422
222.2639, 1588.119
222.7460, 1589.623
223.2281, 1599.098
223.7103, 1607.298
224.1924, 1610.786
224.6745, 1616.899
225.1566, 1628.092
225.6387, 1642.678
226.1208, 1658.515
226.6030, 1674.577
227.0851, 1690.359
227.5672, 1703.394
228.0493, 1708.878
228.5314, 1718.349
229.0135, 1735.288
229.4957, 1756.355
229.9778, 1779.350
230.4599, 1803.550
230.9420, 1825.693
231.4241, 1837.340
231.9062, 1833.022
232.3884, 1826.640
232.8705, 1821.627
233.3526, 1814.908
233.8347, 1804.146
234.3168, 1788.522
234.7989, 1767.922
235.2811, 1741.553
235.7632, 1706.504
236.2453, 1672.254
236.7274, 1636.787
237.2095, 1603.886
237.6916, 1577.253
238.1738, 1557.069
238.6559, 1538.722
239.1380, 1516.063
239.6201, 1487.470
240.1022, 1460.413
240.5843, 1435.031
241.0665, 1411.350
241.5486, 1389.192
242.0307, 1368.636
242.5128, 1350.122
242.9949, 1333.714
243.4770, 1319.257
243.9592, 1308.727
244.4413, 1308.927
244.9234, 1306.537
245.4055, 1296.108
245.8876, 1278.882
246.3697, 1258.844
246.8519, 1237.846
247.3340, 1216.130
247.8161, 1196.723
248.2982, 1177.324
248.7803, 1163.944
249.2624, 1162.950
249.7446, 1167.935
250.2267, 1168.454
250.7088, 1158.098
251.1909, 1140.535
251.6730, 1125.833
252.1551, 1113.557
252.6373, 1105.299
253.1194, 1105.325
253.6015, 1107.618
254.0836, 1105.201
254.5657, 1094.987
255.0478, 1081.411
255.5300, 1070.867
256.0121, 1063.350
256.4942, 1059.081
256.9763, 1062.298
257.4584, 1066.458
257.9406, 1065.494
258.4227, 1057.933
258.9048, 1050.895
259.3869, 1052.683
259.8690, 1063.707
260.3511, 1074.398
260.8333, 1083.474
261.3154, 1091.261
261.7975, 1097.653
262.2796, 1102.770
262.7617, 1108.023
263.2438, 1115.686
263.7260, 1124.891
264.2081, 1129.665
264.6902, 1125.820
265.1723, 1123.075
265.6544, 1131.175
266.1365, 1146.730
266.6187, 1158.238
267.1008, 1154.969
267.5829, 1144.948
268.0650, 1147.014
268.5471, 1165.244
269.0292, 1183.627
269.5114, 1188.647
269.9935, 1186.410
270.4756, 1186.988
270.9577, 1193.249
271.4398, 1203.144
271.9219, 1216.875
272.4041, 1234.712
272.8862, 1247.216
273.3683, 1246.400
273.8504, 1238.592
274.3325, 1236.616
274.8146, 1243.860
275.2968, 1251.844
275.7789, 1256.412
276.2610, 1257.392
276.7431, 1253.459
277.2252, 1242.720
277.7073, 1228.655
278.1895, 1216.252
278.6716, 1204.821
279.1537, 1197.132
279.6358, 1198.394
280.1179, 1203.145
280.6000, 1200.834
281.0822, 1188.352
281.5643, 1173.578
282.0464, 1166.494
282.5285, 1167.947
283.0106, 1166.664
283.4927, 1160.071
283.9749, 1151.051
284.4570, 1140.754
284.9391, 1129.719
285.4212, 1121.134
285.9033, 1118.382
286.3854, 1121.352
286.8676, 1121.127
287.3497, 1115.063
287.8318, 1108.679
288.3139, 1103.878
288.7960, 1100.842
289.2781, 1100.354
289.7603, 1103.413
290.2424, 1108.411
290.7245, 1108.376
291.2066, 1099.973
291.6887, 1091.068
292.1708, 1081.296
292.6530, 1072.189
293.1351, 1064.746
293.6172, 1059.405
294.0993, 1057.924
294.5814, 1063.942
295.0635, 1084.455
295.5457, 1099.350
296.0278, 1105.077
296.5099, 1108.127
296.9920, 1111.856
297.4741, 1117.298
297.9562, 1124.948
298.4384, 1135.692
298.9205, 1150.146
299.4026, 1163.573
299.8847, 1173.301
300.3668, 1184.677
300.8489, 1200.528
301.3311, 1219.551
301.8131, 1239.093
302.2953, 1257.838
302.7774, 1275.278
303.2595, 1288.589
303.7416, 1295.114
304.2237, 1301.141
304.7058, 1307.238
305.1880, 1313.880
305.6701, 1320.656
306.1522, 1327.293
306.6343, 1336.491
307.1164, 1354.710
307.5985, 1385.780
308.0807, 1411.277
308.5628, 1423.984
309.0449, 1432.687
309.5270, 1441.332
310.0091, 1450.621
310.4912, 1460.249
310.9734, 1470.773
311.4555, 1481.929
311.9376, 1490.643
312.4197, 1497.009
312.9018, 1500.104
313.3839, 1497.314
313.8661, 1491.009
314.3482, 1487.469
314.8303, 1490.639
315.3124, 1497.808
315.7945, 1505.560
316.2766, 1514.643
316.7588, 1519.777
317.2409, 1515.455
317.7230, 1506.045
318.2051, 1498.145
318.6872, 1490.623
319.1693, 1488.122
319.6515, 1495.986
320.1336, 1512.488
320.6157, 1531.127
321.0978, 1551.812
321.5799, 1570.202
322.0620, 1578.062
322.5442, 1574.221
323.0263, 1570.590
323.5084, 1569.102
323.9905, 1570.286
324.4726, 1575.360
324.9547, 1584.533
325.4369, 1595.947
325.9190, 1609.232
326.4011, 1624.742
326.8832, 1632.166
327.3653, 1622.408
327.8474, 1613.248
328.3296, 1616.615
328.8117, 1629.336
329.2938, 1640.545
329.7759, 1643.739
330.2580, 1640.835
330.7401, 1640.418
331.2223, 1641.222
331.7044, 1646.153
332.1865, 1657.786
332.6686, 1672.683
333.1507, 1686.111
333.6328, 1696.949
334.1150, 1709.622
334.5971, 1732.695
335.0792, 1775.235
335.5613, 1802.802
336.0434, 1808.257
336.5255, 1807.005
337.0077, 1801.156
337.4898, 1794.671
337.9719, 1795.758
338.4540, 1813.015
338.9361, 1843.994
339.4182, 1866.473
339.9004, 1876.130
340.3825, 1882.876
340.8646, 1889.865
341.3467, 1896.016
341.8288, 1898.455
342.3109, 1895.059
342.7931, 1892.669
343.2752, 1904.574
343.7573, 1933.805
344.2394, 1955.688
344.7215, 1959.782
345.2036, 1957.771
345.6858, 1959.800
346.1679, 1966.191
346.6500, 1969.497
347.1321, 1962.278
347.6142, 1948.436
348.0963, 1939.329
348.5785, 1937.343
349.0606, 1936.059
349.5427, 1930.152
350.0248, 1920.852
350.5069, 1911.608
350.9890, 1900.682
351.4712, 1891.839
351.9533, 1891.803
352.4354, 1898.108
352.9175, 1896.971
353.3996, 1879.951
353.8817, 1853.750
354.3639, 1835.959
354.8460, 1828.298
355.3281, 1823.161
355.8102, 1822.563
356.2923, 1821.983
356.7744, 1815.069
357.2566, 1800.740
357.7387, 1784.170
358.2208, 1770.810
358.7029, 1760.757
359.1850, 1753.836
359.6671, 1757.061
360.1493, 1756.102
360.6314, 1740.292
361.1135, 1715.408
361.5956, 1695.031
362.0777, 1687.605
362.5598, 1688.698
363.0420, 1681.559
363.5241, 1658.273
364.0062, 1639.375
364.4883, 1628.615
364.9704, 1621.864
365.4525, 1616.066
365.9347, 1610.442
366.4168, 1605.399
366.8989, 1602.368
367.3810, 1601.643
367.8631, 1597.481
368.3452, 1588.469
368.8274, 1577.106
369.3095, 1561.068
369.7916, 1543.742
370.2737, 1533.546
370.7558, 1538.218
371.2379, 1549.121
371.7201, 1549.527
372.2022, 1537.804
372.6843, 1531.539
373.1664, 1541.367
373.6485, 1559.185
374.1306, 1573.363
374.6128, 1584.263
375.0949, 1588.982
375.5770, 1579.447
376.0591, 1563.702
376.5412, 1558.718
377.0233, 1568.576
377.5055, 1584.468
377.9876, 1598.563
378.4697, 1610.628
378.9518, 1620.552
379.4339, 1626.450
379.9160, 1631.857
380.3982, 1639.679
380.8803, 1648.801
381.3624, 1655.351
381.8445, 1656.906
382.3266, 1655.629
382.8087, 1658.219
383.2909, 1671.716
383.7730, 1679.723
384.2551, 1678.038
384.7372, 1673.319
385.2193, 1671.061
385.7014, 1672.042
386.1836, 1673.380
386.6657, 1671.774
387.1478, 1666.992
387.6299, 1663.799
388.1120, 1662.124
388.5941, 1662.335
389.0763, 1662.979
389.5584, 1665.849
390.0405, 1675.410
390.5226, 1695.885
391.0047, 1717.194
391.4868, 1720.437
391.9690, 1703.120
392.4511, 1691.639
392.9332, 1696.426
393.4153, 1706.754
393.8974, 1712.944
394.3795, 1714.844
394.8617, 1714.645
395.3438, 1712.270
395.8259, 1708.878
396.3080, 1707.537
396.7901, 1708.790
397.2722, 1706.740
397.7544, 1695.518
398.2365, 1677.380
398.7186, 1664.719
399.2007, 1658.713
399.6828, 1656.777
400.1649, 1660.748
400.6471, 1667.502
401.1292, 1671.622
401.6113, 1671.331
402.0934, 1669.254
402.5755, 1669.916
403.0576, 1677.064
403.5398, 1674.797
404.0219, 1655.442
404.5040, 1635.140
404.9861, 1622.607
405.4682, 1616.128
405.9503, 1609.719
406.4325, 1599.529
406.9146, 1586.740
407.3967, 1576.019
407.8788, 1569.477
408.3609, 1560.616
408.8430, 1547.176
409.3252, 1531.750
409.8073, 1515.242
410.2894, 1498.116
410.7715, 1482.801
411.2536, 1471.018
411.7357, 1462.722
412.2179, 1459.097
412.7000, 1462.404
413.1821, 1465.150
413.6642, 1458.418
414.1463, 1447.661
414.6284, 1444.725
415.1106, 1458.358
415.5927, 1472.343
416.0748, 1473.201
416.5569, 1464.538
417.0390, 1457.808
417.5211, 1457.285
418.0033, 1458.619
418.4854, 1454.600
418.9675, 1441.979
419.4496, 1435.526
419.9317, 1441.607
420.4138, 1449.238
420.8960, 1452.847
421.3781, 1451.561
421.8602, 1445.124
422.3423, 1433.055
422.8244, 1416.266
423.3065, 1398.547
423.7887, 1377.234
424.2708, 1359.250
424.7529, 1346.216
425.2350, 1335.805
425.7171, 1325.974
426.1992, 1316.513
426.6814, 1309.058
427.1635, 1306.607
427.6456, 1308.494
428.1277, 1306.367
428.6098, 1297.563
429.0919, 1289.886
429.5741, 1289.289
430.0562, 1291.817
430.5383, 1291.181
431.0204, 1284.195
431.5025, 1277.474
431.9846, 1279.073
432.4668, 1285.935
432.9489, 1285.970
433.4310, 1274.706
433.9131, 1260.685
434.3952, 1255.184
434.8773, 1259.603
435.3595, 1257.099
435.8416, 1241.319
436.3237, 1223.304
436.8058, 1207.235
437.2879, 1194.469
437.7701, 1187.872
438.2522, 1189.344
438.7343, 1195.095
439.2164, 1195.508
439.6985, 1188.190
440.1806, 1179.482
440.6628, 1167.032
441.1449, 1155.396
441.6270, 1147.496
442.1091, 1143.236
442.5912, 1140.882
443.0733, 1139.597
443.5555, 1139.059
444.0376, 1137.989
444.5197, 1136.203
445.0018, 1134.423
445.4839, 1135.009
445.9660, 1134.565
446.4482, 1127.857
446.9303, 1113.101
447.4124, 1101.450
447.8945, 1103.843
448.3766, 1113.381
448.8587, 1114.192
449.3409, 1103.569
449.8230, 1092.990
450.3051, 1091.829
450.7872, 1099.146
451.2693, 1103.778
451.7514, 1103.002
452.2336, 1102.922
452.7157, 1107.414
453.1978, 1113.118
453.6799, 1114.755
454.1620, 1110.990
454.6441, 1105.247
455.1263, 1101.455
455.6084, 1099.204
456.0905, 1101.228
456.5726, 1114.121
457.0547, 1124.590
457.5368, 1128.346
458.0190, 1127.046
458.5011, 1123.489
458.9832, 1118.711
459.4653, 1112.728
459.9474, 1104.657
460.4295, 1094.466
460.9117, 1086.279
461.3938, 1080.463
461.8759, 1077.564
462.3580, 1080.333
462.8401, 1087.259
463.3222, 1089.944
463.8044, 1082.610
464.2865, 1072.837
464.7686, 1066.649
465.2507, 1063.796
465.7328, 1062.751
466.2149, 1062.922
466.6971, 1064.345
467.1792, 1067.242
467.6613, 1073.237
468.1434, 1077.217
468.6255, 1081.096
469.1076, 1081.387
469.5898, 1073.154
470.0719, 1059.192
470.5540, 1046.760
471.0361, 1040.091
471.5182, 1038.810
472.0003, 1043.429
472.4825, 1058.489
472.9646, 1066.932
473.4467, 1061.330
473.9288, 1050.406
474.4109, 1037.404
474.8930, 1023.321
475.3752, 1011.715
475.8573, 1005.207
476.3394, 1002.250
476.8215, 1001.203
477.3036, 1002.046
477.7857, 1001.273
478.2679, 996.5665
478.7500, 989.6066
479.2321, 984.0455
479.7142, 978.7718
480.1963, 977.2109
480.6784, 985.5236
481.1606, 994.1362
481.6427, 993.3033
482.1248, 983.3368
482.6069, 970.9277
483.0890, 960.4226
483.5711, 952.3195
484.0533, 949.5120
484.5354, 955.8300
485.0175, 961.3042
485.4996, 964.1622
485.9817, 965.9644
486.4638, 967.1705
486.9460, 968.2191
487.4281, 970.7461
487.9102, 979.2982
488.3923, 990.1728
488.8744, 989.4788
489.3565, 974.4705
489.8387, 963.4659
490.3208, 967.5986
490.8029, 980.7953
491.2850, 989.5178
491.7671, 991.9299
492.2492, 995.3011
492.7314, 1005.828
493.2135, 1016.446
493.6956, 1016.263
494.1777, 1005.975
494.6598, 998.6938
495.1419, 1005.631
495.6241, 1023.319
496.1062, 1028.949
496.5883, 1006.865
497.0704, 994.6572
497.5525, 1002.536
498.0346, 1016.729
498.5168, 1027.595
498.9989, 1033.135
499.4810, 1034.390
499.9631, 1030.056
500.4452, 1022.200
500.9273, 1018.725
501.4095, 1020.074
501.8916, 1024.271
502.3737, 1033.743
502.8558, 1043.595
503.3379, 1046.308
503.8200, 1040.745
504.3022, 1032.227
504.7843, 1019.920
505.2664, 1007.319
505.7485, 998.5320
506.2306, 993.7571
506.7127, 991.3240
507.1949, 990.1134
507.6770, 990.3100
508.1591, 992.8921
508.6412, 1003.035
509.1233, 1007.804
509.6054, 1000.134
510.0876, 992.0195
510.5697, 993.3865
511.0518, 1003.490
511.5339, 1014.335
512.0161, 1021.379
512.4982, 1024.284
512.9803, 1020.550
513.4624, 1008.755
513.9445, 999.0675
514.4266, 995.2762
514.9088, 995.2061
515.3909, 996.5638
515.8730, 999.6080
516.3551, 1000.849
516.8372, 998.9997
517.3193, 995.0752
517.8015, 988.7952
518.2836, 981.0369
518.7657, 974.6816
519.2478, 971.3687
519.7299, 969.9932
520.2120, 968.0524
520.6942, 966.0859
521.1763, 962.4081
521.6584, 952.8959
522.1405, 945.7019
522.6226, 947.0247
523.1047, 954.2988
523.5869, 960.5151
524.0690, 961.8698
524.5511, 960.6698
525.0332, 960.7165
525.5153, 961.9964
525.9974, 962.0759
526.4796, 959.5556
526.9617, 957.0019
527.4438, 957.4502
527.9259, 960.5440
528.4080, 963.7037
528.8901, 967.3785
529.3723, 970.2344
529.8544, 970.1589
530.3365, 968.9499
530.8186, 970.1632
531.3007, 974.9977
531.7828, 981.9553
532.2650, 989.9771
532.7471, 1000.536
533.2292, 1002.969
533.7113, 988.6238
534.1934, 975.8647
534.6755, 967.9469
535.1577, 965.7751
535.6398, 972.8501
536.1219, 991.4144
536.6040, 1007.566
537.0861, 1005.054
537.5682, 989.6054
538.0504, 979.2147
538.5325, 976.0326
539.0146, 977.9806
539.4967, 985.6918
539.9788, 997.2759
540.4609, 1003.177
540.9431, 996.7111
541.4252, 994.4266
541.9073, 1004.488
542.3894, 1017.090
542.8715, 1021.777
543.3536, 1018.547
543.8358, 1015.688
544.3179, 1020.672
544.8000, 1030.513
545.2821, 1030.451
545.7642, 1014.557
546.2463, 1005.098
546.7285, 1014.793
547.2106, 1027.807
547.6927, 1032.350
548.1748, 1028.338
548.6569, 1021.828
549.1390, 1013.369
549.6211, 1005.186
550.1032, 998.5540
550.5853, 994.1048
551.0674, 995.6294
551.5496, 1005.529
552.0317, 1017.536
552.5138, 1021.360
552.9959, 1014.371
553.4780, 1007.912
553.9601, 998.9670
554.4423, 993.6305
554.9244, 997.6194
555.4065, 1005.815
555.8886, 1011.207
556.3707, 1011.326
556.8528, 1005.669
557.3350, 990.9861
557.8171, 968.6869
558.2992, 949.8322
558.7813, 934.9687
559.2634, 925.1321
559.7455, 922.7210
560.2277, 925.8857
560.7098, 928.1736
561.1919, 930.0648
561.6740, 930.1607
562.1561, 928.0172
562.6382, 923.8658
563.1204, 917.4125
563.6025, 909.0064
564.0846, 899.3113
564.5667, 887.9393
565.0488, 877.0334
565.5309, 876.2181
566.0131, 891.5714
566.4952, 901.6428
566.9773, 899.2770
567.4594, 893.1695
567.9415, 887.3047
568.4236, 882.1831
568.9058, 878.4875
569.3879, 876.4677
569.8700, 876.0152
570.3521, 877.7335
570.8342, 880.9979
571.3163, 884.0571
571.7985, 886.4928
572.2806, 887.4485
572.7627, 885.9711
573.2448, 882.0507
573.7269, 875.6100
574.2090, 862.6125
574.6912, 851.9525
575.1733, 846.1603
575.6554, 843.6981
576.1375, 843.9010
576.6196, 846.1660
577.1017, 847.3145
577.5839, 841.9581
578.0660, 833.2020
578.5481, 832.7513
579.0302, 841.7212
579.5123, 850.8871
579.9944, 857.5762
580.4766, 860.6697
580.9587, 856.5446
581.4408, 843.2209
581.9229, 832.4497
582.4050, 825.9605
582.8871, 822.4565
583.3693, 822.4859
583.8514, 824.6574
584.3335, 826.3121
584.8156, 826.2252
585.2977, 825.4446
585.7798, 825.4810
586.2620, 826.3364
586.7441, 828.3018
587.2262, 832.9532
587.7083, 836.1506
588.1904, 834.7625
588.6725, 830.5922
589.1547, 825.7799
589.6368, 818.9048
590.1189, 815.9002
590.6010, 824.5204
591.0831, 835.9639
591.5652, 837.1539
592.0474, 828.6404
592.5295, 821.7118
593.0116, 824.2643
593.4937, 832.4848
593.9758, 834.0303
594.4579, 824.5686
594.9401, 818.7254
595.4222, 821.3990
595.9043, 824.6299
596.3864, 823.4611
596.8685, 819.7223
597.3506, 818.4349
597.8328, 821.7681
598.3149, 827.5065
598.7970, 836.9260
599.2791, 846.9312
599.7612, 847.9137
600.2433, 837.9951
600.7255, 826.4977
601.2076, 820.7982
601.6897, 820.5886
602.1718, 823.3730
602.6539, 830.6293
603.1360, 839.0547
603.6182, 852.3522
604.1003, 863.6080
604.5824, 866.7220
605.0645, 862.6296
605.5466, 856.9678
606.0287, 852.4466
606.5109, 848.8012
606.9930, 845.1966
607.4751, 841.8540
607.9572, 840.3367
608.4393, 840.7987
608.9214, 844.3996
609.4036, 854.1498
609.8857, 870.0681
610.3678, 876.7205
610.8499, 866.4323
611.3320, 857.5274
611.8141, 854.9625
612.2963, 855.3240
612.7784, 855.0766
613.2605, 853.8909
613.7426, 853.8462
614.2247, 857.2184
614.7068, 862.2597
615.1890, 864.5795
615.6711, 864.0884
616.1532, 862.4895
616.6353, 859.2059
617.1174, 856.9447
617.5995, 860.1074
618.0817, 868.8361
618.5638, 872.9556
619.0459, 866.2430
619.5280, 861.6013
620.0101, 866.5640
620.4922, 875.1328
620.9744, 877.8691
621.4565, 874.1658
621.9386, 873.7093
622.4207, 887.3935
622.9028, 910.3696
623.3849, 922.3407
623.8671, 921.3036
624.3492, 920.8804
624.8313, 925.1229
625.3134, 931.7493
625.7955, 939.1884
626.2776, 947.3761
626.7598, 952.3867
627.2419, 950.2702
627.7240, 948.5178
628.2061, 949.6641
628.6882, 954.0560
629.1703, 964.5227
629.6525, 980.3098
630.1346, 992.6928
630.6167, 990.6898
631.0988, 978.2995
631.5809, 979.6825
632.0630, 999.1476
632.5452, 1015.198
633.0273, 1017.293
633.5094, 1017.270
633.9915, 1028.705
634.4736, 1050.973
634.9557, 1074.511
635.4379, 1101.962
635.9200, 1125.280
636.4021, 1134.451
636.8842, 1138.526
637.3663, 1152.499
637.8484, 1179.351
638.3306, 1209.840
638.8127, 1234.109
639.2948, 1254.065
639.7769, 1281.835
640.2590, 1320.349
640.7411, 1356.119
641.2233, 1380.297
641.7054, 1404.884
642.1875, 1444.629
642.6696, 1498.172
643.1517, 1547.899
643.6339, 1585.085
644.1160, 1623.036
644.5981, 1670.175
645.0802, 1722.413
645.5623, 1773.002
646.0444, 1820.590
646.5266, 1867.800
647.0087, 1915.358
647.4908, 1965.130
647.9729, 2029.556
648.4550, 2114.167
648.9371, 2188.353
649.4193, 2232.883
649.9014, 2276.665
650.3835, 2355.228
650.8656, 2462.188
651.3477, 2553.840
651.8298, 2614.831
652.3120, 2668.573
652.7941, 2725.722
653.2762, 2782.742
653.7583, 2835.912
654.2404, 2883.778
654.7225, 2924.450
655.2047, 2956.444
655.6868, 2980.018
656.1689, 2996.197
656.6510, 3005.624
657.1331, 3003.754
657.6152, 2990.112
658.0974, 2964.357
658.5795, 2925.588
659.0616, 2874.280
659.5437, 2811.041
660.0258, 2726.410
660.5079, 2641.465
660.9901, 2568.494
661.4722, 2495.511
661.9543, 2405.904
662.4364, 2301.985
662.9185, 2199.082
663.4006, 2106.611
663.8828, 2023.553
664.3649, 1949.083
664.8470, 1883.466
665.3291, 1816.922
665.8112, 1745.003
666.2933, 1678.366
666.7755, 1626.483
667.2576, 1586.736
667.7397, 1545.901
668.2218, 1504.992
668.7039, 1461.624
669.1860, 1409.699
669.6682, 1359.862
670.1503, 1318.456
670.6324, 1286.257
671.1145, 1264.194
671.5966, 1253.564
672.0787, 1245.891
672.5609, 1226.572
673.0430, 1198.077
673.5251, 1180.483
674.0072, 1177.807
674.4893, 1172.776
674.9714, 1153.950
675.4536, 1126.723
675.9357, 1105.156
676.4178, 1090.570
676.8999, 1078.720
677.3820, 1071.004
677.8641, 1064.464
678.3463, 1058.360
678.8284, 1052.165
679.3105, 1044.937
679.7926, 1036.394
680.2747, 1028.349
680.7568, 1022.893
681.2390, 1019.177
681.7211, 1015.700
682.2032, 1012.317
682.6853, 1007.840
683.1674, 1001.977
683.6495, 993.9831
684.1317, 982.3455
684.6138, 966.3295
685.0959, 950.7239
685.5780, 928.0239
686.0601, 914.6988
686.5422, 922.4384
687.0244, 936.8129
687.5065, 943.1884
687.9886, 939.8122
688.4707, 933.6016
688.9528, 928.1036
689.4349, 922.0603
689.9171, 913.9846
690.3992, 904.1685
690.8813, 891.8477
691.3634, 877.0270
691.8455, 866.4241
692.3276, 868.1328
692.8098, 880.0585
693.2919, 883.3101
693.7740, 874.4297
694.2561, 864.3286
694.7382, 847.0965
695.2203, 836.5569
695.7025, 848.1207
696.1846, 875.2581
696.6667, 893.0938
697.1488, 891.4769
697.6309, 885.3632
698.1130, 881.9296
698.5952, 878.8936
699.0773, 872.5378
699.5594, 863.3721
700.0415, 855.0255
700.5236, 849.5248
701.0057, 847.1109
701.4879, 850.0320
701.9700, 858.8188
702.4521, 861.1521
702.9342, 853.4885
703.4163, 845.6648
703.8984, 843.8322
704.3806, 845.6655
704.8627, 845.0679
705.3448, 839.8918
705.8269, 838.5685
706.3090, 846.0784
706.7911, 853.9231
707.2733, 859.0828
707.7554, 860.3664
708.2375, 854.5490
708.7196, 841.1693
709.2017, 828.8182
709.6838, 827.3573
710.1660, 832.6767
710.6481, 834.6608
711.1302, 833.2817
711.6123, 830.2330
712.0944, 825.6936
712.5765, 821.5673
713.0587, 820.6552
713.5408, 823.2412
714.0229, 822.9667
714.5050, 818.2202
714.9871, 812.7231
715.4692, 803.7818
715.9514, 796.8696
716.4335, 798.0804
716.9156, 805.9205
717.3977, 812.3986
717.8798, 813.9237
718.3619, 813.5650
718.8441, 812.9574
719.3262, 812.4459
719.8083, 812.6190
720.2904, 813.5373
720.7725, 815.1508
721.2546, 817.5764
721.7368, 820.0212
722.2189, 820.4969
722.7010, 818.8034
723.1831, 816.7678
723.6652, 815.6403
724.1473, 811.8181
724.6295, 800.1349
725.1116, 785.6646
725.5937, 779.1515
726.0758, 783.2209
726.5579, 786.3093
727.0400, 787.9069
727.5222, 786.3635
728.0043, 776.3942
728.4864, 764.2242
728.9685, 760.6912
729.4506, 768.1172
729.9327, 777.6136
730.4149, 781.7009
730.8970, 781.9111
731.3791, 781.0400
731.8612, 779.2468
732.3433, 778.3572
732.8254, 779.1141
733.3076, 779.3149
733.7897, 776.1262
734.2718, 770.0750
734.7539, 768.1840
735.2360, 773.8765
735.7181, 778.0120
736.2003, 780.8296
736.6824, 780.7159
737.1645, 772.9422
737.6466, 761.5743
738.1287, 757.8342
738.6108, 767.2421
739.0930, 778.4009
739.5751, 787.6957
740.0572, 793.4659
740.5393, 791.5370
741.0214, 784.0770
741.5035, 778.0993
741.9857, 776.9307
742.4678, 778.2710
742.9499, 779.4959
743.4320, 780.5120
743.9141, 779.5038
744.3962, 775.7963
744.8784, 773.9219
745.3605, 776.6428
745.8426, 780.4946
746.3247, 780.7289
746.8068, 776.9351
747.2889, 773.1528
747.7711, 768.7018
748.2532, 765.0983
748.7353, 763.1306
749.2174, 761.8174
749.6995, 758.8185
750.1816, 755.3385
750.6638, 756.7167
751.1459, 767.8145
751.6280, 780.1717
752.1101, 787.5823
752.5922, 790.1543
753.0743, 785.8336
753.5565, 775.7883
754.0386, 767.1746
754.5207, 764.0972
755.0028, 765.6014
755.4849, 771.7923
755.9670, 783.9968
756.4492, 786.9974
756.9313, 776.1099
757.4134, 767.3446
757.8955, 769.7128
758.3776, 776.4137
758.8597, 775.4852
759.3419, 765.5908
759.8240, 762.8757
760.3061, 775.0403
760.7882, 786.9254
761.2703, 795.4205
761.7524, 799.0990
762.2346, 794.0466
762.7167, 782.1433
763.1988, 772.8647
763.6809, 773.2888
764.1630, 775.6069
764.6451, 768.7244
765.1273, 757.0561
765.6094, 751.7767
766.0915, 754.1508
766.5736, 759.7159
767.0557, 766.1339
767.5378, 772.1675
768.0200, 774.8925
768.5021, 773.7811
768.9842, 772.3947
769.4663, 770.5104
769.9484, 768.8093
770.4305, 765.7729
770.9127, 764.3516
771.3948, 769.8622
771.8769, 782.9225
772.3590, 793.7726
772.8411, 803.1069
773.3232, 807.8119
773.8054, 802.1572
774.2875, 794.2628
774.7696, 793.9196
775.2517, 800.4738
775.7338, 805.0491
776.2159, 801.8132
776.6981, 796.6874
777.1802, 797.0601
777.6623, 800.4292
778.1444, 801.4161
778.6265, 799.3316
779.1086, 794.1296
779.5908, 785.3495
780.0729, 776.6757
780.5550, 775.8190
781.0371, 783.8000
781.5192, 789.2994
782.0013, 791.4876
782.4835, 793.5118
782.9656, 797.2228
783.4477, 800.6835
783.9298, 799.8904
784.4119, 794.6057
784.8940, 795.3134
785.3762, 809.1578
785.8583, 820.3593
786.3404, 825.4253
786.8225, 825.5370
787.3046, 817.4231
787.7867, 805.3011
788.2689, 802.3608
788.7510, 817.5031
789.2331, 832.0075
789.7152, 825.2538
790.1973, 810.1488
790.6794, 806.1569
791.1616, 813.8427
791.6437, 829.6423
792.1258, 852.1439
792.6079, 871.5855
793.0900, 872.9871
793.5721, 858.4709
794.0543, 848.6818
794.5364, 843.6730
795.0185, 843.7841
795.5006, 851.7571
795.9827, 859.0515
796.4648, 855.4789
796.9470, 842.6792
797.4291, 838.4354
797.9112, 854.0197
798.3933, 862.0036
798.8754, 853.0714
799.3575, 844.3010
799.8397, 848.1221
800.3218, 858.4117
800.8039, 862.3178
801.2860, 856.0624
801.7681, 849.5031
802.2502, 847.2302
802.7324, 847.1205
803.2145, 849.7706
803.6966, 852.3447
804.1787, 848.2553
804.6608, 836.8901
805.1429, 826.1945
805.6251, 822.8839
806.1072, 824.6258
806.5893, 826.2681
807.0714, 828.1890
807.5535, 834.4783
808.0356, 846.2327
808.5178, 855.8566
808.9999, 858.2408
809.4820, 855.3350
809.9641, 851.8749
810.4462, 847.8481
810.9283, 843.0195
811.4105, 835.0870
811.8926, 830.0699
812.3747, 830.7593
812.8568, 835.2983
813.3389, 842.9923
813.8210, 853.7368
814.3032, 861.1389
814.7853, 862.3188
815.2674, 862.4629
815.7495, 862.0016
816.2316, 862.3065
816.7137, 866.7344
817.1959, 872.9847
817.6780, 873.4581
818.1601, 863.5845
818.6422, 853.9448
819.1243, 855.8640
819.6064, 862.4175
820.0886, 861.6734
820.5707, 855.4405
821.0528, 854.4609
821.5349, 862.1414
822.0170, 867.2504
822.4991, 854.6560
822.9813, 830.6453
823.4634, 823.7964
823.9455, 834.9694
824.4276, 844.9115
824.9097, 849.9194
825.3918, 852.0199
825.8740, 852.3776
826.3561, 851.2600
826.8382, 849.3744
827.3203, 845.2378
827.8024, 843.7856
828.2845, 846.9545
828.7667, 850.4647
829.2488, 853.7923
829.7309, 856.0398
830.2130, 854.4444
830.6951, 848.9954
831.1772, 848.9538
831.6594, 863.7767
832.1415, 875.5734
832.6236, 874.8220
833.1057, 868.6260
833.5878, 863.7919
834.0699, 860.4722
834.5521, 855.6552
835.0342, 847.7130
835.5163, 839.5832
835.9984, 833.1379
836.4805, 828.7000
836.9626, 827.0946
837.4448, 827.9937
837.9269, 831.2900
838.4090, 836.6447
838.8911, 839.5653
839.3732, 833.9781
839.8553, 823.2950
840.3375, 821.8407
840.8196, 829.8998
841.3017, 831.8671
841.7838, 824.2325
842.2659, 813.3510
842.7480, 801.6760
843.2302, 792.0921
843.7123, 792.9024
844.1944, 809.6570
844.6765, 818.0328
845.1586, 812.7363
845.6407, 806.9558
846.1229, 806.4153
846.6050, 806.4639
847.0871, 801.2436
847.5692, 791.3829
848.0513, 785.3992
848.5334, 789.2565
849.0156, 790.5741
849.4977, 785.2584
849.9798, 776.8265
850.4619, 765.3052
850.9440, 753.4565
851.4261, 746.4242
851.9083, 745.8394
852.3904, 748.5104
852.8725, 755.0889
853.3546, 761.5579
853.8367, 763.9656
854.3188, 762.9042
854.8010, 759.1893
855.2831, 753.4662
855.7652, 747.3604
856.2473, 741.6555
856.7294, 737.4890
857.2115, 738.6073
857.6937, 743.2435
858.1758, 743.2839
858.6579, 738.0212
859.1400, 730.4561
859.6221, 721.6766
860.1042, 713.1099
860.5864, 706.0974
861.0685, 700.8512
861.5506, 703.5668
862.0327, 717.6307
862.5148, 726.1189
862.9969, 723.7504
863.4791, 717.8701
863.9612, 712.1242
864.4433, 707.9874
864.9254, 711.4908
865.4075, 731.4792
865.8896, 740.5820
866.3718, 728.2502
866.8539, 718.1446
867.3360, 717.4821
867.8181, 723.9481
868.3002, 737.1550
868.7823, 756.1821
869.2645, 772.0438
869.7466, 779.9430
870.2287, 787.4419
870.7108, 800.0466
871.1929, 811.2336
871.6750, 812.4550
872.1572, 807.8979
872.6393, 807.2205
873.1214, 813.5848
873.6035, 825.4254
874.0856, 845.9941
874.5677, 867.8621
875.0499, 881.1069
875.5320, 889.7316
876.0141, 902.1584
876.4962, 919.8948
876.9783, 940.0616
877.4604, 961.0770
877.9426, 981.9067
878.4247, 999.4464
878.9068, 1015.250
879.3889, 1037.330
879.8710, 1065.198
880.3531, 1086.214
880.8353, 1094.731
881.3174, 1100.909
881.7995, 1116.945
882.2816, 1141.264
882.7637, 1164.239
883.2458, 1185.766
883.7280, 1205.585
884.2101, 1222.413
884.6922, 1241.557
885.1743, 1267.517
885.6564, 1296.340
886.1385, 1318.413
886.6207, 1329.614
887.1028, 1353.237
887.5849, 1404.155
888.0670, 1443.235
888.5491, 1453.102
889.0313, 1453.303
889.5134, 1458.904
889.9955, 1469.204
890.4776, 1481.172
890.9597, 1496.810
891.4418, 1510.012
891.9240, 1526.312
892.4061, 1533.121
892.8882, 1516.143
893.3703, 1489.806
893.8524, 1473.757
894.3345, 1470.169
894.8167, 1467.763
895.2988, 1466.149
895.7809, 1459.646
896.2630, 1440.607
896.7451, 1418.629
897.2272, 1405.972
897.7094, 1398.962
898.1915, 1384.874
898.6736, 1359.141
899.1557, 1332.811
899.6378, 1316.971
900.1199, 1303.746
900.6021, 1281.577
901.0842, 1254.985
901.5663, 1235.640
902.0484, 1223.844
902.5305, 1208.210
903.0126, 1181.089
903.4948, 1150.770
903.9769, 1128.587
904.4590, 1113.315
904.9411, 1104.551
905.4232, 1100.637
905.9053, 1090.317
906.3875, 1069.995
906.8696, 1047.111
907.3517, 1028.678
907.8338, 1013.421
908.3159, 996.1037
908.7980, 976.6934
909.2802, 963.2363
909.7623, 956.8987
910.2444, 955.2011
910.7265, 958.5058
911.2086, 961.0212
911.6907, 953.4684
912.1729, 936.0213
912.6550, 923.8784
913.1371, 919.9225
913.6192, 911.6979
914.1013, 894.9211
914.5834, 877.4175
915.0656, 863.2200
915.5477, 852.4887
916.0298, 846.0269
916.5119, 845.7130
916.9940, 842.5314
917.4761, 833.3020
917.9583, 825.7198
918.4404, 821.7065
918.9225, 819.8264
919.4046, 821.0620
919.8867, 823.6442
920.3688, 820.8521
920.8510, 808.6317
921.3331, 798.9376
921.8152, 798.3243
922.2973, 794.9774
922.7794, 776.4285
923.2615, 756.6860
923.7437, 755.2623
924.2258, 770.7497
924.7079, 781.3560
925.1900, 778.4939
925.6721, 773.1685
926.1542, 768.1824
926.6364, 764.0425
927.1185, 761.8166
927.6006, 760.4941
928.0827, 757.8290
928.5648, 753.5890
929.0469, 750.9556
929.5291, 754.5992
930.0112, 757.1434
930.4933, 749.5419
930.9754, 740.0519
931.4575, 741.7858
931.9396, 750.8685
932.4218, 752.8586
932.9039, 742.6445
933.3860, 730.9089
933.8681, 727.3582
934.3502, 727.0540
934.8323, 723.7419
935.3145, 718.7729
935.7966, 715.4883
936.2787, 713.8381
936.7608, 710.1605
937.2429, 702.2648
937.7250, 696.0026
938.2072, 701.6843
938.6893, 713.0261
939.1714, 715.5718
939.6535, 710.5130
940.1356, 701.9915
940.6177, 691.6954
941.0999, 685.2520
941.5820, 687.0227
942.0641, 692.7250
942.5462, 695.3519
943.0283, 695.1087
943.5104, 692.3528
943.9926, 687.3461
944.4747, 683.3196
944.9568, 681.3011
945.4389, 678.9560
945.9210, 673.7888
946.4031, 667.7139
946.8853, 666.7650
947.3674, 670.9103
947.8495, 673.1854
948.3316, 672.9683
948.8137, 672.9930
949.2958, 674.3272
949.7780, 676.3699
950.2601, 678.8975
950.7422, 681.2347
951.2243, 678.8297
951.7064, 670.3442
952.1885, 666.7544
952.6707, 671.1550
953.1528, 672.1251
953.6349, 662.5485
954.1170, 650.8326
954.5991, 648.8771
955.0812, 656.1137
955.5634, 659.8875
956.0455, 660.1843
956.5276, 656.2087
957.0097, 643.7596
957.4918, 635.9048
957.9739, 642.6634
958.4561, 654.8456
958.9382, 656.5932
959.4203, 646.7561
959.9024, 643.4164
960.3845, 652.3227
960.8666, 655.9078
961.3488, 646.6208
961.8309, 638.4174
962.3130, 642.3978
962.7951, 651.8331
963.2772, 652.6304
963.7593, 642.1753
964.2415, 637.1027
964.7236, 641.6267
965.2057, 645.4088
965.6878, 645.9826
966.1699, 646.0305
966.6520, 648.2234
967.1342, 650.9432
967.6163, 650.0602
968.0984, 644.1802
968.5805, 639.9569
969.0626, 638.6420
969.5447, 637.7474
970.0269, 637.8476
970.5090, 637.0594
970.9911, 631.2598
971.4732, 623.8057
971.9553, 624.6154
972.4374, 638.3065
972.9196, 646.9160
973.4017, 645.6888
973.8838, 642.0195
974.3659, 635.2236
974.8480, 629.8192
975.3301, 630.2986
975.8123, 635.4534
976.2944, 641.5458
976.7765, 649.3753
977.2586, 653.4497
977.7407, 648.6701
978.2228, 644.5791
978.7050, 646.6671
979.1871, 650.4180
979.6692, 650.2221
980.1513, 647.5023
980.6334, 649.0649
981.1155, 658.9021
981.5977, 665.0412
982.0798, 656.7711
982.5619, 652.3176
983.0440, 668.2078
983.5261, 687.5820
984.0082, 691.0461
984.4904, 680.2843
984.9725, 668.3608
985.4546, 656.7275
985.9367, 650.0371
986.4188, 653.0769
986.9009, 657.9697
987.3831, 662.0449
987.8652, 664.0777
988.3473, 661.1299
988.8294, 654.8095
989.3115, 652.3205
989.7936, 657.8443
990.2758, 661.3568
990.7579, 655.8759
991.2400, 650.2015
991.7221, 652.2847
992.2042, 655.9339
992.6863, 651.9160
993.1685, 641.4254
993.6506, 633.8043
994.1327, 632.1148
994.6148, 633.7213
995.0969, 640.7183
995.5790, 647.1273
996.0612, 650.1180
996.5433, 649.2891
997.0254, 642.1896
997.5075, 630.7338
997.9896, 623.1694
998.4717, 623.8136
998.9539, 624.0485
999.4360, 616.7517
999.9181, 611.0081
1000.400, 616.6162
1000.882, 625.3505
1001.364, 625.4093
1001.847, 617.7164
1002.329, 612.6289
1002.811, 614.7867
1003.293, 616.4799
1003.775, 613.0322
1004.257, 609.0189
1004.739, 608.9429
1005.221, 609.2889
1005.703, 604.4957
1006.186, 595.5347
1006.668, 588.5779
1007.150, 586.3575
1007.632, 584.1348
1008.114, 577.5233
1008.596, 572.6620
1009.078, 575.8996
1009.560, 581.5914
1010.043, 583.0392
1010.525, 580.2056
1011.007, 576.0663
1011.489, 570.6448
1011.971, 567.2419
1012.453, 568.9814
1012.935, 571.1907
1013.417, 571.1886
1013.899, 569.9882
1014.382, 569.0781
1014.864, 568.1628
1015.346, 565.5959
1015.828, 560.5197
1016.310, 555.6089
1016.792, 548.5590
1017.274, 545.8865
1017.756, 556.6678
1018.239, 569.2440
1018.721, 570.0536
1019.203, 562.1281
1019.685, 557.8351
1020.167, 560.7632
1020.649, 563.5552
1021.131, 564.2309
1021.613, 563.7343
1022.095, 560.1725
1022.578, 557.6226
1023.060, 561.5706
1023.542, 569.2702
1024.024, 573.3351
1024.506, 572.0565
1024.988, 569.4738
1025.470, 567.6027
1025.952, 563.3293
1026.435, 550.6929
1026.917, 539.6420
1027.399, 540.3652
1027.881, 548.2005
1028.363, 552.6380
1028.845, 552.0593
1029.327, 550.3928
1029.809, 548.0865
1030.292, 545.1432
1030.774, 540.4227
1031.256, 536.1931
1031.738, 533.0636
1032.220, 531.8617
1032.702, 535.0640
1033.184, 543.3872
1033.666, 547.9873
1034.148, 543.5792
1034.630, 541.8121
1035.113, 546.8295
1035.595, 552.4851
1036.077, 555.1968
1036.559, 556.5474
1037.041, 560.2279
1037.523, 566.5206
1038.005, 565.9055
1038.487, 550.7690
1038.970, 541.0261
1039.452, 541.7867
1039.934, 542.8828
1040.416, 539.1976
1040.898, 534.1855
1041.380, 531.6763
1041.862, 531.6033
1042.344, 533.3860
1042.826, 538.5082
1043.309, 542.3588
1043.791, 546.0522
1044.273, 545.7404
1044.755, 537.0139
1045.237, 527.9507
1045.719, 527.2090
1046.201, 532.9819
1046.683, 536.7600
1047.166, 537.5333
1047.648, 540.5546
1048.130, 548.5019
1048.612, 550.0344
1049.094, 539.1437
1049.576, 527.5114
1050.058, 525.1161
1050.540, 529.1353
1051.022, 531.8851
1051.505, 533.0065
1051.987, 537.1379
1052.469, 545.2687
1052.951, 549.6925
1053.433, 548.1379
1053.915, 545.1496
1054.397, 543.7128
1054.879, 542.8414
1055.361, 540.6058
1055.844, 537.1541
1056.326, 533.5850
1056.808, 529.8917
1057.290, 530.2827
1057.772, 535.5229
1058.254, 540.0472
1058.736, 540.7954
1059.218, 541.2654
1059.701, 547.1688
1060.183, 555.5688
1060.665, 555.0546
1061.147, 547.5663
1061.629, 544.4114
1062.111, 546.1638
1062.593, 544.9887
1063.075, 538.1011
1063.557, 534.1524
1064.040, 543.2842
1064.522, 556.8456
1065.004, 558.3728
1065.486, 552.0643
1065.968, 547.7463
1066.450, 545.3720
1066.932, 541.1660
1067.414, 534.4889
1067.896, 528.6356
1068.379, 525.8003
1068.861, 524.9612
1069.343, 524.9108
1069.825, 526.1791
1070.307, 532.1279
1070.789, 538.9068
1071.271, 537.3718
1071.753, 528.3509
1072.236, 522.1572
1072.718, 523.9246
1073.200, 525.4027
1073.682, 517.0103
1074.164, 509.6541
1074.646, 513.7397
1075.128, 523.2399
1075.610, 532.6094
1076.093, 540.1302
1076.575, 543.8063
1077.057, 543.0201
1077.539, 541.9225
1078.021, 542.9861
1078.503, 543.2322
1078.985, 540.8608
1079.467, 537.6042
1079.949, 534.3722
1080.432, 531.3975
1080.914, 528.5685
1081.396, 525.9685
1081.878, 524.9733
1082.360, 526.4773
1082.842, 528.6030
1083.324, 533.3593
1083.806, 535.9348
1084.288, 531.8104
1084.771, 526.1671
1085.253, 525.0983
1085.735, 527.5721
1086.217, 528.5029
1086.699, 527.8898
1087.181, 525.4946
1087.663, 519.1483
1088.145, 515.4891
1088.628, 516.7078
1089.110, 520.4077
1089.592, 526.0807
1090.074, 531.5803
1090.556, 532.0035
1091.038, 527.1751
1091.520, 522.1116
1092.002, 516.5631
1092.484, 512.4053
1092.967, 509.7980
1093.449, 510.1692
1093.931, 514.8634
1094.413, 519.3081
1094.895, 517.0602
1095.377, 510.5568
1095.859, 508.7388
1096.341, 511.1495
1096.823, 514.6753
1097.306, 518.9374
1097.788, 524.2511
1098.270, 530.4224
1098.752, 533.0824
1099.234, 528.2922
1099.716, 520.0335
1100.198, 512.4039
1100.680, 506.8290
1101.163, 508.2513
1101.645, 513.6887
1102.127, 515.3521
1102.609, 512.5432
1103.091, 508.7950
1103.573, 505.6013
1104.055, 504.9742
1104.537, 511.3947
1105.020, 518.1337
1105.502, 518.3864
1105.984, 515.8138
1106.466, 514.4052
1106.948, 514.2056
1107.430, 514.4523
1107.912, 514.8732
1108.394, 514.4015
1108.876, 509.5803
1109.359, 508.3766
1109.841, 518.5800
1110.323, 527.8782
1110.805, 526.6692
1111.287, 521.6982
1111.769, 521.0709
1112.251, 524.6711
1112.733, 529.1923
1113.215, 536.2093
1113.698, 539.4123
1114.180, 535.4515
1114.662, 532.7990
1115.144, 534.5633
1115.626, 536.2646
1116.108, 533.9932
1116.590, 530.6720
1117.072, 532.3251
1117.555, 538.9944
1118.037, 541.4816
1118.519, 538.8414
1119.001, 537.6875
1119.483, 539.2499
1119.965, 539.2345
1120.447, 535.7988
1120.929, 530.0861
1121.411, 522.6896
1121.894, 515.3706
1122.376, 513.6880
1122.858, 516.4156
1123.340, 517.4116
1123.822, 516.5497
1124.304, 514.4336
1124.786, 511.4497
1125.268, 508.7927
1125.750, 507.0873
1126.233, 506.9029
1126.715, 509.4442
1127.197, 513.4313
1127.679, 518.3295
1128.161, 522.6771
1128.643, 523.3199
1129.125, 521.5339
1129.607, 520.8325
1130.090, 522.2321
1130.572, 525.6465
1131.054, 534.9464
1131.536, 539.2558
1132.018, 525.7419
1132.500, 513.2845
1132.982, 516.4750
1133.464, 526.8723
1133.947, 537.2964
1134.429, 545.0681
1134.911, 543.2041
1135.393, 526.8349
1135.875, 514.7742
1136.357, 508.0618
1136.839, 506.8780
1137.321, 516.3510
1137.803, 523.7903
1138.286, 520.5619
1138.768, 512.8871
1139.250, 509.8324
1139.732, 510.9325
1140.214, 511.6911
1140.696, 511.9843
1141.178, 513.1094
1141.660, 515.2735
1142.142, 517.1715
1142.625, 518.4689
1143.107, 517.8577
1143.589, 514.1674
1144.071, 508.7238
1144.553, 502.4088
1145.035, 496.6753
1145.517, 496.8605
1145.999, 501.3761
1146.482, 506.0348
1146.964, 509.7969
1147.446, 511.7615
1147.928, 511.6479
1148.410, 510.6489
1148.892, 509.6611
1149.374, 508.1166
1149.856, 503.6855
1150.339, 500.1961
1150.821, 504.1067
1151.303, 509.9673
1151.785, 506.8560
1152.267, 497.1418
1152.749, 497.1717
1153.231, 515.8320
1153.713, 524.4190
1154.195, 505.2778
1154.677, 490.7175
1155.160, 492.6245
1155.642, 499.7120
1156.124, 508.0747
1156.606, 514.6511
1157.088, 513.5589
1157.570, 505.8637
1158.052, 504.8884
1158.534, 513.0015
1159.017, 516.6712
1159.499, 514.5391
1159.981, 512.0706
1160.463, 510.8783
1160.945, 509.4288
1161.427, 506.2881
1161.909, 503.8943
1162.391, 508.5294
1162.874, 516.4453
1163.356, 513.2584
1163.838, 502.7474
1164.320, 495.4646
1164.802, 493.2707
1165.284, 498.9290
1165.766, 511.9975
1166.248, 521.1025
1166.730, 517.1893
1167.213, 510.7116
1167.695, 510.9283
1168.177, 511.7508
1168.659, 504.9862
1169.141, 497.6049
1169.623, 499.1069
1170.105, 507.8862
1170.587, 517.5707
1171.069, 527.6165
1171.552, 533.6882
1172.034, 534.5670
1172.516, 532.1034
1172.998, 523.4620
1173.480, 516.1484
1173.962, 514.4671
1174.444, 513.8943
1174.926, 509.4128
1175.409, 502.4597
1175.891, 497.8687
1176.373, 495.6597
1176.855, 496.5486
1177.337, 500.6837
1177.819, 500.3247
1178.301, 494.1811
1178.783, 489.6286
1179.266, 490.2592
1179.748, 492.5779
1180.230, 493.1882
1180.712, 492.7265
1181.194, 491.0811
1181.676, 489.8239
1182.158, 492.6746
1182.640, 497.6980
1183.122, 501.8118
1183.604, 503.6463
1184.087, 499.8705
1184.569, 487.9735
1185.051, 480.6477
1185.533, 490.1717
1186.015, 496.6380
1186.497, 486.1079
1186.979, 475.5427
1187.461, 478.8420
1187.944, 487.9951
1188.426, 490.2535
1188.908, 487.2755
1189.390, 490.0836
1189.872, 501.3737
1190.354, 509.2582
1190.836, 514.0514
1191.318, 513.1993
1191.801, 505.1957
1192.283, 498.2266
1192.765, 497.1198
1193.247, 497.8943
1193.729, 495.5184
1194.211, 491.3893
1194.693, 487.8065
1195.175, 485.6311
1195.657, 488.8186
1196.140, 495.1165
1196.622, 497.4440
1197.104, 495.2252
1197.586, 493.1970
1198.068, 493.3888
1198.550, 494.5798
1199.032, 496.7747
1199.514, 498.7520
1199.996, 499.7284
1200.479, 500.3133
1200.961, 500.3436
1201.443, 500.6928
1201.925, 504.5349
1202.407, 510.4978
1202.889, 507.9218
1203.371, 491.7569
1203.853, 483.2545
1204.336, 483.6181
1204.818, 488.9507
1205.300, 500.4857
1205.782, 506.8709
1206.264, 501.0786
1206.746, 493.5396
1207.228, 497.1102
1207.710, 507.1704
1208.193, 513.4746
1208.675, 516.2831
1209.157, 516.0681
1209.639, 513.0245
1210.121, 504.7943
1210.603, 493.8083
1211.085, 491.6496
1211.567, 503.1057
1212.049, 512.9268
1212.531, 511.0309
1213.014, 505.9815
1213.496, 500.5874
1213.978, 495.5360
1214.460, 488.8419
1214.942, 484.5634
1215.424, 490.6937
1215.906, 503.3427
1216.388, 507.6453
1216.871, 501.9712
1217.353, 497.9078
1217.835, 495.8902
1218.317, 493.5076
1218.799, 490.2977
1219.281, 487.0414
1219.763, 483.8008
1220.245, 484.4258
1220.728, 493.2757
1221.210, 504.5981
1221.692, 508.0891
1222.174, 506.7214
1222.656, 506.1248
1223.138, 505.7651
1223.620, 502.1843
1224.102, 497.8102
1224.584, 501.6120
1225.067, 514.8967
1225.549, 524.5370
1226.031, 524.4094
1226.513, 520.7642
1226.995, 511.2324
1227.477, 504.3690
1227.959, 506.4915
1228.441, 509.9470
1228.923, 508.3385
1229.406, 505.0144
1229.888, 506.2144
1230.370, 511.2644
1230.852, 512.5962
1231.334, 510.1027
1231.816, 505.8718
1232.298, 500.2076
1232.780, 496.8637
1233.263, 496.6283
1233.745, 496.8828
1234.227, 496.1734
1234.709, 494.4832
1235.191, 490.7341
1235.673, 487.2298
1236.155, 485.7196
1236.637, 486.5397
1237.120, 492.4362
1237.602, 499.5137
1238.084, 501.5930
1238.566, 498.9962
1239.048, 495.9308
1239.530, 492.5809
1240.012, 490.8978
1240.494, 491.0379
1240.976, 493.0358
1241.458, 498.8037
1241.941, 501.0090
1242.423, 495.4959
1242.905, 489.3367
1243.387, 488.5089
1243.869, 493.0267
##END=



