##NAMES=Clinoatacamite
##RRUFFID=R090062
##IDEAL CHEMISTRY=Cu^2+^_2_Cl(OH)_3_
##LOCALITY=Copper Queen Mine, Bisbee, Arizona
##OWNER=RRUFF
##SOURCE=William W. Pinch
##DESCRIPTION=Dark green blocky crystals associated with green acicular atacamite, blue claringbullite, R090016, and cuprite. Some crystals are tabular, and these are untwinned.
##STATUS=The identification of this mineral is confirmed by single-crystal X-ray diffraction and chemical analysis.
##URL=rruff.info/R090062
##MEASURED CHEMISTRY=Cu_2.01_Cl_0.98_(OH)_3_
187.9407, 1088.678
188.4228, 1090.008
188.9050, 1092.780
189.3871, 1096.185
189.8692, 1100.661
190.3513, 1105.678
190.8334, 1108.311
191.3155, 1108.006
191.7977, 1106.374
192.2798, 1105.694
192.7619, 1105.969
193.2440, 1106.900
193.7261, 1108.751
194.2082, 1111.399
194.6904, 1113.219
195.1725, 1113.903
195.6546, 1114.211
196.1367, 1115.976
196.6188, 1119.393
197.1009, 1121.890
197.5831, 1121.462
198.0652, 1118.121
198.5473, 1115.979
199.0294, 1115.388
199.5115, 1115.881
199.9937, 1116.413
200.4758, 1116.836
200.9579, 1118.036
201.4400, 1121.104
201.9221, 1126.287
202.4042, 1129.447
202.8864, 1129.578
203.3685, 1128.322
203.8506, 1130.250
204.3327, 1136.363
204.8148, 1141.501
205.2969, 1142.272
205.7791, 1137.948
206.2612, 1134.500
206.7433, 1132.157
207.2254, 1130.953
207.7075, 1131.336
208.1896, 1133.891
208.6718, 1136.339
209.1539, 1137.138
209.6360, 1135.729
210.1181, 1135.732
210.6002, 1138.101
211.0823, 1141.608
211.5645, 1142.392
212.0466, 1139.319
212.5287, 1136.284
213.0108, 1135.591
213.4929, 1137.948
213.9750, 1139.973
214.4572, 1141.734
214.9393, 1142.959
215.4214, 1142.361
215.9035, 1138.496
216.3856, 1135.726
216.8678, 1137.070
217.3499, 1144.506
217.8320, 1149.392
218.3141, 1150.460
218.7962, 1148.912
219.2783, 1148.609
219.7605, 1150.253
220.2426, 1151.793
220.7247, 1151.982
221.2068, 1150.130
221.6889, 1148.896
222.1710, 1148.659
222.6532, 1149.059
223.1353, 1148.936
223.6174, 1148.013
224.0995, 1147.068
224.5816, 1146.490
225.0637, 1146.352
225.5459, 1146.372
226.0280, 1146.286
226.5101, 1146.418
226.9922, 1147.858
227.4743, 1151.329
227.9564, 1154.986
228.4386, 1158.181
228.9207, 1161.409
229.4028, 1162.762
229.8849, 1161.721
230.3670, 1158.910
230.8492, 1155.702
231.3313, 1150.722
231.8134, 1147.454
232.2955, 1148.058
232.7776, 1155.610
233.2597, 1159.683
233.7419, 1158.474
234.2240, 1154.268
234.7061, 1153.308
235.1882, 1157.933
235.6703, 1162.285
236.1524, 1163.681
236.6346, 1160.280
237.1167, 1158.139
237.5988, 1157.425
238.0809, 1157.884
238.5630, 1159.060
239.0451, 1161.490
239.5273, 1163.786
240.0094, 1165.357
240.4915, 1165.936
240.9736, 1166.357
241.4557, 1166.344
241.9378, 1166.256
242.4200, 1166.941
242.9021, 1169.001
243.3842, 1170.871
243.8663, 1171.947
244.3484, 1172.008
244.8306, 1171.853
245.3127, 1171.198
245.7948, 1170.475
246.2769, 1170.469
246.7590, 1171.216
247.2411, 1172.647
247.7233, 1175.110
248.2054, 1179.411
248.6875, 1181.683
249.1696, 1181.155
249.6517, 1179.125
250.1338, 1177.579
250.6160, 1176.407
251.0981, 1175.942
251.5802, 1176.465
252.0623, 1178.251
252.5444, 1179.568
253.0265, 1179.990
253.5087, 1180.295
253.9908, 1181.870
254.4729, 1186.078
254.9550, 1188.796
255.4371, 1188.313
255.9192, 1184.033
256.4014, 1181.526
256.8835, 1181.367
257.3656, 1182.412
257.8477, 1183.306
258.3298, 1183.959
258.8120, 1184.667
259.2941, 1185.586
259.7762, 1186.751
260.2583, 1187.333
260.7404, 1186.704
261.2225, 1186.238
261.7047, 1187.654
262.1868, 1191.881
262.6689, 1195.500
263.1510, 1197.732
263.6331, 1198.582
264.1152, 1199.209
264.5974, 1199.565
265.0795, 1199.759
265.5616, 1199.999
266.0437, 1200.531
266.5258, 1200.252
267.0079, 1198.414
267.4901, 1195.396
267.9722, 1194.979
268.4543, 1198.234
268.9364, 1202.003
269.4185, 1203.545
269.9006, 1202.287
270.3828, 1201.400
270.8649, 1201.508
271.3470, 1202.329
271.8291, 1202.507
272.3112, 1201.901
272.7933, 1200.947
273.2755, 1199.565
273.7576, 1197.434
274.2397, 1197.056
274.7218, 1199.422
275.2039, 1203.295
275.6860, 1204.545
276.1682, 1202.490
276.6503, 1200.420
277.1324, 1200.963
277.6145, 1204.455
278.0966, 1206.110
278.5787, 1205.188
279.0609, 1202.769
279.5430, 1200.775
280.0251, 1199.109
280.5072, 1198.772
280.9893, 1201.389
281.4715, 1206.927
281.9536, 1209.363
282.4357, 1207.625
282.9178, 1204.302
283.3999, 1203.899
283.8820, 1206.526
284.3642, 1209.701
284.8463, 1212.858
285.3284, 1215.834
285.8105, 1216.490
286.2926, 1214.295
286.7747, 1211.350
287.2569, 1210.562
287.7390, 1211.854
288.2211, 1213.587
288.7032, 1215.327
289.1853, 1217.001
289.6674, 1218.195
290.1496, 1218.850
290.6317, 1219.522
291.1138, 1221.609
291.5959, 1224.716
292.0780, 1225.792
292.5602, 1222.223
293.0423, 1216.582
293.5244, 1216.292
294.0065, 1221.578
294.4886, 1227.401
294.9707, 1228.630
295.4529, 1226.477
295.9350, 1225.371
296.4171, 1226.956
296.8992, 1229.743
297.3813, 1231.051
297.8634, 1230.979
298.3456, 1230.680
298.8277, 1231.247
299.3098, 1232.220
299.7919, 1232.506
300.2740, 1231.651
300.7561, 1230.424
301.2383, 1229.502
301.7204, 1228.963
302.2025, 1229.246
302.6846, 1231.572
303.1667, 1234.620
303.6488, 1236.306
304.1310, 1236.032
304.6131, 1235.198
305.0952, 1234.726
305.5773, 1234.732
306.0594, 1235.529
306.5415, 1238.190
307.0237, 1241.268
307.5058, 1243.337
307.9879, 1244.228
308.4700, 1244.202
308.9521, 1242.602
309.4343, 1240.299
309.9164, 1238.786
310.3985, 1239.198
310.8806, 1240.293
311.3627, 1241.209
311.8448, 1241.914
312.3270, 1242.519
312.8091, 1242.818
313.2912, 1243.147
313.7733, 1243.903
314.2554, 1245.233
314.7375, 1247.024
315.2197, 1249.740
315.7018, 1253.201
316.1839, 1255.738
316.6660, 1255.982
317.1481, 1255.311
317.6302, 1254.855
318.1124, 1255.203
318.5945, 1255.405
319.0766, 1254.843
319.5587, 1253.805
320.0408, 1253.286
320.5229, 1253.225
321.0051, 1254.020
321.4872, 1256.170
321.9693, 1261.235
322.4514, 1264.798
322.9335, 1264.705
323.4156, 1262.607
323.8978, 1261.695
324.3799, 1264.233
324.8620, 1266.554
325.3441, 1267.089
325.8262, 1264.854
326.3083, 1263.599
326.7905, 1264.011
327.2726, 1265.427
327.7547, 1267.021
328.2368, 1268.876
328.7189, 1270.798
329.2010, 1272.746
329.6832, 1274.696
330.1653, 1276.807
330.6474, 1279.871
331.1295, 1282.528
331.6116, 1283.644
332.0938, 1282.272
332.5759, 1280.861
333.0580, 1279.836
333.5401, 1279.068
334.0222, 1277.504
334.5043, 1273.918
334.9865, 1271.191
335.4686, 1271.260
335.9507, 1275.324
336.4328, 1278.984
336.9149, 1282.102
337.3970, 1284.668
337.8792, 1286.438
338.3613, 1287.178
338.8434, 1287.869
339.3255, 1289.108
339.8076, 1291.072
340.2898, 1292.259
340.7719, 1292.500
341.2540, 1292.317
341.7361, 1292.308
342.2182, 1292.431
342.7003, 1293.220
343.1825, 1295.026
343.6646, 1297.714
344.1467, 1300.406
344.6288, 1303.189
345.1109, 1305.632
345.5930, 1307.045
346.0752, 1307.531
346.5573, 1308.402
347.0394, 1310.019
347.5215, 1312.152
348.0036, 1314.677
348.4857, 1317.549
348.9679, 1319.818
349.4500, 1319.962
349.9321, 1318.903
350.4142, 1319.447
350.8963, 1322.311
351.3784, 1326.149
351.8606, 1329.741
352.3427, 1332.933
352.8248, 1335.199
353.3069, 1334.453
353.7890, 1333.269
354.2711, 1336.029
354.7533, 1343.521
355.2354, 1350.719
355.7175, 1352.447
356.1996, 1350.970
356.6817, 1350.231
357.1638, 1352.080
357.6460, 1355.146
358.1281, 1358.825
358.6102, 1363.006
359.0923, 1366.840
359.5744, 1369.830
360.0565, 1372.205
360.5387, 1374.168
361.0208, 1375.522
361.5029, 1376.805
361.9850, 1378.281
362.4671, 1379.877
362.9492, 1381.354
363.4314, 1383.196
363.9135, 1384.491
364.3956, 1384.574
364.8777, 1382.720
365.3598, 1381.199
365.8419, 1380.584
366.3241, 1380.573
366.8062, 1380.719
367.2883, 1381.227
367.7704, 1381.623
368.2526, 1381.701
368.7347, 1381.358
369.2168, 1381.249
369.6989, 1382.093
370.1810, 1382.732
370.6631, 1382.134
371.1453, 1378.770
371.6274, 1376.530
372.1095, 1376.896
372.5916, 1379.114
373.0737, 1377.979
373.5558, 1371.767
374.0380, 1364.748
374.5201, 1358.951
375.0022, 1354.270
375.4843, 1351.558
375.9664, 1351.659
376.4485, 1353.030
376.9307, 1352.365
377.4128, 1349.144
377.8949, 1346.112
378.3770, 1344.432
378.8591, 1344.042
379.3412, 1343.888
379.8234, 1344.136
380.3055, 1344.025
380.7876, 1342.272
381.2697, 1338.991
381.7518, 1336.449
382.2339, 1335.418
382.7161, 1335.384
383.1982, 1335.427
383.6803, 1335.531
384.1624, 1335.153
384.6445, 1333.079
385.1266, 1330.236
385.6088, 1329.209
386.0909, 1330.810
386.5730, 1332.966
387.0551, 1332.926
387.5372, 1331.403
388.0193, 1330.441
388.5015, 1332.068
388.9836, 1334.286
389.4657, 1334.661
389.9478, 1333.004
390.4299, 1331.402
390.9120, 1331.351
391.3942, 1332.148
391.8763, 1332.936
392.3584, 1333.438
392.8405, 1333.839
393.3226, 1334.272
393.8047, 1334.703
394.2869, 1334.971
394.7690, 1335.326
395.2511, 1335.292
395.7332, 1334.316
396.2154, 1331.100
396.6975, 1329.506
397.1796, 1331.801
397.6617, 1336.003
398.1438, 1338.690
398.6259, 1336.807
399.1081, 1335.914
399.5902, 1338.104
400.0723, 1344.031
400.5544, 1348.464
401.0365, 1350.776
401.5186, 1352.028
402.0008, 1353.062
402.4829, 1354.057
402.9650, 1354.388
403.4471, 1353.452
403.9292, 1351.791
404.4113, 1352.026
404.8935, 1355.176
405.3756, 1357.884
405.8577, 1358.125
406.3398, 1355.498
406.8219, 1353.493
407.3040, 1352.241
407.7862, 1351.471
408.2683, 1350.557
408.7504, 1349.479
409.2325, 1349.489
409.7146, 1351.715
410.1967, 1355.219
410.6789, 1356.888
411.1610, 1356.699
411.6431, 1355.715
412.1252, 1353.833
412.6073, 1351.814
413.0894, 1352.312
413.5716, 1356.747
414.0537, 1361.809
414.5358, 1362.984
415.0179, 1361.226
415.5000, 1359.712
415.9821, 1360.445
416.4643, 1362.121
416.9464, 1363.151
417.4285, 1363.308
417.9106, 1364.225
418.3927, 1368.245
418.8748, 1373.174
419.3570, 1376.340
419.8391, 1375.986
420.3212, 1374.568
420.8033, 1372.081
421.2854, 1369.054
421.7675, 1367.845
422.2497, 1370.859
422.7318, 1374.652
423.2139, 1377.481
423.6960, 1379.111
424.1781, 1379.914
424.6602, 1379.375
425.1424, 1378.195
425.6245, 1377.367
426.1066, 1376.745
426.5887, 1376.697
427.0709, 1377.449
427.5530, 1378.993
428.0351, 1380.395
428.5172, 1381.637
428.9993, 1382.755
429.4814, 1383.853
429.9636, 1385.073
430.4457, 1385.603
430.9278, 1385.151
431.4099, 1384.184
431.8920, 1383.679
432.3741, 1383.656
432.8563, 1383.909
433.3384, 1384.195
433.8205, 1384.624
434.3026, 1386.005
434.7847, 1388.406
435.2668, 1391.242
435.7490, 1394.438
436.2311, 1397.690
436.7132, 1399.728
437.1953, 1399.885
437.6774, 1399.153
438.1595, 1398.490
438.6417, 1397.993
439.1238, 1398.064
439.6059, 1399.961
440.0880, 1402.039
440.5701, 1402.049
441.0522, 1399.376
441.5344, 1397.373
442.0165, 1398.539
442.4986, 1401.461
442.9807, 1404.406
443.4628, 1407.525
443.9449, 1409.852
444.4271, 1410.548
444.9092, 1409.913
445.3913, 1409.663
445.8734, 1411.219
446.3555, 1412.489
446.8376, 1412.227
447.3198, 1408.789
447.8019, 1406.928
448.2840, 1407.816
448.7661, 1409.877
449.2482, 1411.078
449.7303, 1412.002
450.2125, 1410.884
450.6946, 1405.979
451.1767, 1397.831
451.6588, 1395.328
452.1409, 1400.469
452.6230, 1406.582
453.1052, 1408.765
453.5873, 1406.742
454.0694, 1404.513
454.5515, 1402.131
455.0337, 1400.188
455.5158, 1400.239
455.9979, 1402.115
456.4800, 1403.375
456.9621, 1402.883
457.4442, 1401.085
457.9264, 1398.537
458.4085, 1395.300
458.8906, 1392.734
459.3727, 1392.792
459.8548, 1394.081
460.3369, 1394.094
460.8191, 1391.536
461.3012, 1389.451
461.7833, 1391.236
462.2654, 1395.290
462.7475, 1398.263
463.2296, 1398.207
463.7118, 1397.113
464.1939, 1395.509
464.6760, 1393.393
465.1581, 1392.610
465.6402, 1394.079
466.1223, 1396.846
466.6045, 1400.236
467.0866, 1406.224
467.5687, 1410.199
468.0508, 1411.136
468.5329, 1409.978
469.0150, 1408.720
469.4972, 1406.929
469.9793, 1405.734
470.4614, 1405.741
470.9435, 1407.056
471.4256, 1407.491
471.9077, 1406.652
472.3899, 1405.768
472.8720, 1405.889
473.3541, 1407.068
473.8362, 1409.041
474.3183, 1412.186
474.8004, 1415.480
475.2826, 1416.858
475.7647, 1416.391
476.2468, 1415.169
476.7289, 1412.636
477.2110, 1409.933
477.6931, 1410.054
478.1753, 1412.996
478.6574, 1416.455
479.1395, 1418.913
479.6216, 1420.567
480.1037, 1421.647
480.5858, 1421.979
481.0680, 1422.206
481.5501, 1423.146
482.0322, 1424.315
482.5143, 1424.672
482.9964, 1422.080
483.4786, 1420.110
483.9607, 1420.928
484.4428, 1424.886
484.9249, 1428.308
485.4070, 1430.815
485.8892, 1432.333
486.3713, 1432.695
486.8534, 1429.454
487.3355, 1428.766
487.8176, 1432.021
488.2997, 1437.483
488.7819, 1441.596
489.2640, 1444.123
489.7461, 1445.743
490.2282, 1446.157
490.7103, 1445.525
491.1924, 1446.854
491.6746, 1450.377
492.1567, 1454.855
492.6388, 1459.520
493.1209, 1464.340
493.6030, 1468.583
494.0851, 1472.233
494.5673, 1475.206
495.0494, 1477.135
495.5315, 1478.212
496.0136, 1479.064
496.4957, 1479.898
496.9778, 1480.735
497.4600, 1481.308
497.9421, 1481.729
498.4242, 1483.006
498.9063, 1486.490
499.3884, 1490.686
499.8705, 1494.234
500.3527, 1496.349
500.8348, 1499.044
501.3169, 1504.275
501.7990, 1510.128
502.2811, 1513.922
502.7632, 1513.091
503.2454, 1512.364
503.7275, 1512.678
504.2096, 1513.994
504.6917, 1515.842
505.1738, 1518.376
505.6559, 1521.233
506.1381, 1524.256
506.6202, 1527.515
507.1023, 1530.635
507.5844, 1533.409
508.0665, 1536.441
508.5486, 1540.878
509.0308, 1546.786
509.5129, 1551.816
509.9950, 1555.196
510.4771, 1557.490
510.9592, 1559.871
511.4413, 1562.287
511.9235, 1564.569
512.4056, 1567.179
512.8877, 1569.333
513.3698, 1569.696
513.8519, 1568.080
514.3340, 1565.850
514.8162, 1564.380
515.2983, 1562.736
515.7804, 1559.762
516.2625, 1554.262
516.7446, 1548.484
517.2267, 1543.438
517.7089, 1538.846
518.1910, 1534.050
518.6731, 1528.530
519.1552, 1523.164
519.6373, 1518.241
520.1194, 1513.712
520.6016, 1509.747
521.0837, 1506.173
521.5658, 1503.376
522.0479, 1502.191
522.5300, 1503.875
523.0121, 1502.178
523.4943, 1495.508
523.9764, 1486.834
524.4585, 1481.673
524.9406, 1480.183
525.4227, 1478.672
525.9048, 1475.335
526.3870, 1471.333
526.8691, 1470.285
527.3513, 1471.949
527.8334, 1472.710
528.3155, 1468.290
528.7976, 1461.956
529.2797, 1459.042
529.7618, 1460.776
530.2440, 1462.206
530.7261, 1458.010
531.2082, 1451.994
531.6903, 1449.102
532.1724, 1454.288
532.6545, 1459.240
533.1367, 1461.510
533.6188, 1461.453
534.1009, 1460.481
534.5830, 1457.273
535.0651, 1454.663
535.5472, 1453.773
536.0294, 1454.891
536.5115, 1455.725
536.9936, 1456.472
537.4757, 1456.677
537.9578, 1455.719
538.4399, 1453.307
538.9221, 1451.578
539.4042, 1450.833
539.8863, 1450.682
540.3684, 1450.522
540.8505, 1450.346
541.3326, 1450.126
541.8148, 1450.148
542.2969, 1449.941
542.7790, 1447.966
543.2611, 1444.548
543.7432, 1442.163
544.2253, 1443.442
544.7075, 1446.102
545.1896, 1447.761
545.6717, 1447.948
546.1538, 1447.979
546.6359, 1448.214
547.1180, 1448.756
547.6002, 1449.715
548.0823, 1452.479
548.5644, 1454.092
549.0465, 1453.058
549.5286, 1450.441
550.0107, 1449.361
550.4929, 1450.710
550.9750, 1452.231
551.4571, 1453.139
551.9392, 1453.424
552.4213, 1454.205
552.9034, 1455.487
553.3856, 1457.227
553.8677, 1460.130
554.3498, 1463.937
554.8319, 1465.338
555.3140, 1463.816
555.7961, 1460.538
556.2783, 1455.284
556.7604, 1449.357
557.2425, 1446.671
557.7246, 1450.569
558.2067, 1456.373
558.6888, 1460.328
559.1710, 1462.531
559.6531, 1463.195
560.1352, 1460.923
560.6173, 1458.334
561.0994, 1456.915
561.5815, 1456.845
562.0637, 1457.400
562.5458, 1459.497
563.0279, 1461.470
563.5100, 1462.052
563.9921, 1459.704
564.4742, 1458.676
564.9564, 1459.421
565.4385, 1461.203
565.9206, 1462.845
566.4027, 1464.279
566.8848, 1465.797
567.3669, 1467.607
567.8491, 1469.471
568.3312, 1470.317
568.8133, 1470.187
569.2954, 1470.367
569.7775, 1473.054
570.2596, 1476.233
570.7418, 1475.318
571.2239, 1469.913
571.7060, 1464.837
572.1881, 1464.604
572.6702, 1466.324
573.1523, 1466.526
573.6345, 1462.500
574.1166, 1460.248
574.5987, 1464.129
575.0808, 1470.811
575.5629, 1474.819
576.0450, 1471.975
576.5272, 1470.008
577.0093, 1471.063
577.4914, 1474.472
577.9735, 1475.597
578.4556, 1473.282
578.9377, 1471.088
579.4199, 1471.160
579.9020, 1473.576
580.3841, 1474.197
580.8662, 1472.795
581.3483, 1470.932
581.8304, 1469.974
582.3126, 1469.843
582.7947, 1470.519
583.2768, 1472.398
583.7589, 1473.846
584.2410, 1472.002
584.7231, 1468.524
585.2053, 1466.694
585.6874, 1470.195
586.1696, 1473.536
586.6517, 1472.796
587.1338, 1469.014
587.6159, 1466.988
588.0980, 1469.927
588.5801, 1473.070
589.0623, 1474.156
589.5444, 1472.723
590.0265, 1472.254
590.5086, 1473.695
590.9907, 1474.910
591.4728, 1474.046
591.9550, 1470.774
592.4371, 1467.664
592.9192, 1464.800
593.4013, 1462.558
593.8834, 1461.803
594.3655, 1462.348
594.8477, 1462.885
595.3298, 1462.980
595.8119, 1462.918
596.2940, 1463.139
596.7761, 1463.539
597.2582, 1463.777
597.7404, 1463.123
598.2225, 1462.626
598.7046, 1463.228
599.1867, 1464.939
599.6688, 1466.324
600.1509, 1467.290
600.6331, 1467.521
601.1152, 1466.486
601.5973, 1462.537
602.0794, 1461.418
602.5615, 1465.140
603.0436, 1469.776
603.5258, 1470.619
604.0079, 1466.980
604.4900, 1463.165
604.9721, 1459.484
605.4542, 1456.624
605.9363, 1456.617
606.4185, 1459.166
606.9006, 1461.473
607.3827, 1462.135
607.8648, 1461.896
608.3469, 1461.516
608.8290, 1461.070
609.3112, 1460.992
609.7933, 1462.231
610.2754, 1463.433
610.7575, 1463.194
611.2396, 1461.054
611.7217, 1459.912
612.2039, 1461.910
612.6860, 1464.339
613.1681, 1465.071
613.6502, 1462.481
614.1323, 1460.910
614.6144, 1460.769
615.0966, 1461.325
615.5787, 1461.240
616.0608, 1460.199
616.5429, 1460.882
617.0250, 1464.753
617.5071, 1469.778
617.9893, 1471.036
618.4714, 1468.880
618.9535, 1465.989
619.4356, 1462.325
619.9177, 1459.495
620.3998, 1460.727
620.8820, 1465.493
621.3641, 1468.882
621.8462, 1466.748
622.3283, 1463.174
622.8104, 1461.117
623.2925, 1461.209
623.7747, 1461.633
624.2568, 1462.096
624.7389, 1462.715
625.2210, 1463.590
625.7031, 1464.834
626.1852, 1466.161
626.6674, 1467.921
627.1495, 1469.309
627.6316, 1468.281
628.1137, 1464.673
628.5958, 1462.865
629.0779, 1464.830
629.5601, 1468.527
630.0422, 1470.009
630.5243, 1469.609
631.0064, 1468.903
631.4885, 1469.224
631.9706, 1469.358
632.4528, 1467.373
632.9349, 1463.563
633.4170, 1461.321
633.8991, 1464.153
634.3812, 1467.506
634.8633, 1468.316
635.3455, 1464.883
635.8276, 1463.454
636.3097, 1465.506
636.7918, 1468.376
637.2739, 1469.605
637.7560, 1468.416
638.2382, 1468.779
638.7203, 1471.427
639.2024, 1474.840
639.6845, 1477.028
640.1666, 1477.984
640.6487, 1477.601
641.1309, 1475.078
641.6130, 1472.243
642.0951, 1471.851
642.5772, 1473.271
643.0594, 1474.778
643.5415, 1475.624
644.0236, 1476.221
644.5057, 1477.265
644.9879, 1478.583
645.4700, 1478.457
645.9521, 1474.928
646.4342, 1471.345
646.9163, 1469.312
647.3984, 1469.170
647.8806, 1468.369
648.3627, 1466.647
648.8448, 1464.846
649.3269, 1463.136
649.8090, 1461.555
650.2911, 1462.941
650.7733, 1468.167
651.2554, 1473.549
651.7375, 1474.055
652.2196, 1471.340
652.7017, 1469.481
653.1838, 1469.809
653.6660, 1470.877
654.1481, 1471.818
654.6302, 1472.649
655.1123, 1473.428
655.5944, 1474.437
656.0765, 1475.044
656.5587, 1474.658
657.0408, 1473.560
657.5229, 1473.154
658.0050, 1473.707
658.4871, 1474.459
658.9692, 1475.223
659.4514, 1475.971
659.9335, 1476.427
660.4156, 1476.573
660.8977, 1476.588
661.3798, 1476.834
661.8619, 1477.036
662.3441, 1476.297
662.8262, 1474.558
663.3083, 1472.652
663.7904, 1470.761
664.2725, 1469.315
664.7546, 1469.096
665.2368, 1471.166
665.7189, 1472.034
666.2010, 1468.604
666.6831, 1464.257
667.1652, 1463.021
667.6473, 1467.777
668.1295, 1471.063
668.6116, 1471.948
669.0937, 1471.449
669.5758, 1471.553
670.0579, 1472.350
670.5400, 1472.783
671.0222, 1472.234
671.5043, 1471.430
671.9864, 1472.245
672.4685, 1474.313
672.9506, 1475.907
673.4327, 1476.129
673.9149, 1475.342
674.3970, 1473.208
674.8791, 1470.010
675.3612, 1467.795
675.8433, 1468.578
676.3254, 1469.512
676.8076, 1468.811
677.2897, 1465.937
677.7718, 1464.499
678.2539, 1464.735
678.7360, 1466.152
679.2181, 1469.061
679.7003, 1473.815
680.1824, 1476.055
680.6645, 1475.268
681.1466, 1473.625
681.6287, 1473.289
682.1108, 1473.988
682.5930, 1475.186
683.0751, 1477.052
683.5572, 1478.376
684.0393, 1477.445
684.5214, 1475.498
685.0035, 1474.318
685.4857, 1475.614
685.9678, 1476.374
686.4499, 1474.771
686.9320, 1472.255
687.4141, 1472.133
687.8962, 1476.082
688.3784, 1479.256
688.8605, 1480.438
689.3426, 1480.181
689.8247, 1480.385
690.3068, 1481.086
690.7889, 1481.625
691.2711, 1482.062
691.7532, 1481.962
692.2353, 1479.390
692.7174, 1474.942
693.1995, 1472.209
693.6816, 1475.761
694.1638, 1480.109
694.6459, 1480.913
695.1280, 1477.715
695.6101, 1474.233
696.0922, 1470.128
696.5743, 1467.096
697.0565, 1466.299
697.5386, 1468.590
698.0207, 1469.352
698.5028, 1467.855
698.9849, 1466.414
699.4670, 1467.632
699.9492, 1471.198
700.4313, 1473.687
700.9135, 1474.528
701.3956, 1475.126
701.8777, 1477.421
702.3598, 1480.379
702.8419, 1482.155
703.3240, 1481.693
703.8062, 1481.002
704.2883, 1481.563
704.7704, 1482.380
705.2525, 1482.005
705.7346, 1478.468
706.2167, 1475.975
706.6989, 1475.372
707.1810, 1475.883
707.6631, 1475.758
708.1452, 1474.910
708.6273, 1474.030
709.1094, 1472.988
709.5916, 1472.424
710.0737, 1474.807
710.5558, 1479.411
711.0379, 1482.525
711.5200, 1480.609
712.0021, 1477.460
712.4843, 1476.463
712.9664, 1477.291
713.4485, 1478.007
713.9306, 1477.256
714.4127, 1476.766
714.8948, 1477.720
715.3770, 1480.159
715.8591, 1481.288
716.3412, 1480.796
716.8233, 1479.617
717.3054, 1477.920
717.7875, 1475.762
718.2697, 1475.096
718.7518, 1476.037
719.2339, 1477.018
719.7160, 1476.634
720.1981, 1475.447
720.6802, 1474.308
721.1624, 1473.345
721.6445, 1472.346
722.1266, 1470.441
722.6087, 1468.898
723.0908, 1469.000
723.5729, 1472.402
724.0551, 1474.409
724.5372, 1474.072
725.0193, 1472.965
725.5014, 1472.738
725.9835, 1473.605
726.4656, 1474.046
726.9478, 1473.869
727.4299, 1473.321
727.9120, 1472.588
728.3941, 1471.754
728.8762, 1471.095
729.3583, 1470.606
729.8405, 1470.473
730.3226, 1471.098
730.8047, 1472.128
731.2868, 1472.967
731.7689, 1473.583
732.2510, 1473.810
732.7332, 1472.906
733.2153, 1471.736
733.6974, 1472.248
734.1795, 1475.255
734.6616, 1477.798
735.1437, 1479.287
735.6259, 1479.712
736.1080, 1478.337
736.5901, 1475.433
737.0722, 1473.448
737.5543, 1474.469
738.0364, 1476.304
738.5186, 1476.081
739.0007, 1474.388
739.4828, 1473.322
739.9649, 1474.548
740.4470, 1475.876
740.9291, 1476.365
741.4113, 1476.013
741.8934, 1475.517
742.3755, 1474.848
742.8576, 1474.095
743.3397, 1473.130
743.8218, 1472.074
744.3040, 1471.818
744.7861, 1472.375
745.2682, 1473.613
745.7503, 1476.732
746.2324, 1479.940
746.7145, 1479.572
747.1967, 1475.774
747.6788, 1472.500
748.1609, 1472.230
748.6430, 1472.987
749.1251, 1473.732
749.6072, 1474.524
750.0894, 1474.181
750.5715, 1471.286
751.0536, 1469.107
751.5357, 1470.533
752.0178, 1476.154
752.4999, 1477.611
752.9821, 1474.330
753.4642, 1470.713
753.9463, 1472.007
754.4284, 1475.727
754.9105, 1476.342
755.3926, 1472.813
755.8748, 1469.656
756.3569, 1469.855
756.8390, 1471.656
757.3211, 1473.614
757.8032, 1475.868
758.2853, 1477.342
758.7675, 1478.165
759.2496, 1478.036
759.7318, 1476.112
760.2139, 1471.902
760.6960, 1470.067
761.1781, 1471.335
761.6602, 1473.849
762.1423, 1475.943
762.6245, 1477.485
763.1066, 1477.948
763.5887, 1476.894
764.0708, 1475.916
764.5529, 1476.567
765.0350, 1477.749
765.5172, 1478.153
765.9993, 1476.083
766.4814, 1475.121
766.9635, 1475.726
767.4456, 1477.256
767.9277, 1479.110
768.4099, 1481.462
768.8920, 1482.899
769.3741, 1483.080
769.8562, 1482.524
770.3383, 1481.658
770.8204, 1480.683
771.3026, 1480.262
771.7847, 1481.193
772.2668, 1481.652
772.7489, 1479.318
773.2310, 1476.015
773.7131, 1474.624
774.1953, 1478.249
774.6774, 1480.646
775.1595, 1480.783
775.6416, 1479.608
776.1237, 1478.761
776.6058, 1478.275
777.0880, 1477.869
777.5701, 1477.474
778.0522, 1477.115
778.5343, 1476.459
779.0164, 1475.829
779.4985, 1476.256
779.9807, 1479.209
780.4628, 1482.002
780.9449, 1482.817
781.4270, 1482.283
781.9091, 1481.748
782.3912, 1481.039
782.8734, 1481.007
783.3555, 1482.570
783.8376, 1484.523
784.3197, 1482.956
784.8018, 1477.363
785.2839, 1474.639
785.7661, 1478.201
786.2482, 1483.904
786.7303, 1484.537
787.2124, 1481.492
787.6945, 1478.739
788.1766, 1477.727
788.6588, 1477.869
789.1409, 1479.142
789.6230, 1481.315
790.1051, 1483.861
790.5872, 1487.703
791.0693, 1490.306
791.5515, 1490.810
792.0336, 1489.934
792.5157, 1489.844
792.9978, 1490.553
793.4799, 1490.693
793.9620, 1489.402
794.4442, 1487.696
794.9263, 1486.679
795.4084, 1486.445
795.8905, 1487.230
796.3726, 1490.666
796.8547, 1493.519
797.3369, 1493.822
797.8190, 1492.366
798.3011, 1492.124
798.7832, 1493.927
799.2653, 1495.239
799.7474, 1495.094
800.2296, 1494.286
800.7117, 1495.564
801.1938, 1498.672
801.6759, 1500.828
802.1580, 1500.617
802.6401, 1499.160
803.1223, 1497.828
803.6044, 1496.293
804.0865, 1493.718
804.5686, 1487.018
805.0507, 1482.316
805.5328, 1482.463
806.0150, 1486.013
806.4971, 1489.656
806.9792, 1493.854
807.4613, 1496.692
807.9434, 1497.576
808.4255, 1496.846
808.9077, 1495.000
809.3898, 1492.161
809.8719, 1488.909
810.3540, 1485.146
810.8361, 1481.407
811.3182, 1477.419
811.8004, 1473.801
812.2825, 1471.938
812.7646, 1473.098
813.2467, 1475.065
813.7288, 1478.199
814.2109, 1481.563
814.6931, 1482.521
815.1752, 1480.863
815.6573, 1478.893
816.1394, 1477.158
816.6215, 1475.666
817.1037, 1473.865
817.5858, 1472.309
818.0679, 1472.411
818.5500, 1477.170
819.0322, 1481.097
819.5143, 1480.120
819.9964, 1476.563
820.4785, 1475.397
820.9606, 1478.569
821.4427, 1480.822
821.9249, 1480.966
822.4070, 1480.179
822.8891, 1481.429
823.3712, 1484.411
823.8533, 1485.592
824.3354, 1483.437
824.8176, 1480.290
825.2997, 1478.566
825.7818, 1477.798
826.2639, 1477.200
826.7460, 1477.047
827.2281, 1476.412
827.7103, 1474.141
828.1924, 1471.717
828.6745, 1471.301
829.1566, 1473.521
829.6387, 1475.184
830.1208, 1475.720
830.6030, 1475.722
831.0851, 1476.137
831.5672, 1476.734
832.0493, 1476.877
832.5314, 1476.289
833.0135, 1475.455
833.4957, 1474.036
833.9778, 1472.861
834.4599, 1472.893
834.9420, 1476.444
835.4241, 1478.144
835.9063, 1477.401
836.3884, 1475.549
836.8705, 1473.899
837.3526, 1472.475
837.8347, 1471.743
838.3168, 1471.778
838.7990, 1472.394
839.2811, 1474.034
839.7632, 1475.846
840.2453, 1476.600
840.7274, 1475.852
841.2095, 1474.693
841.6917, 1472.902
842.1738, 1471.237
842.6559, 1470.250
843.1380, 1470.020
843.6201, 1470.175
844.1022, 1470.749
844.5844, 1471.590
845.0665, 1472.747
845.5486, 1474.060
846.0307, 1475.112
846.5128, 1475.884
846.9949, 1476.302
847.4771, 1476.673
847.9592, 1476.432
848.4413, 1474.570
848.9234, 1470.253
849.4055, 1468.753
849.8876, 1471.520
850.3698, 1474.952
850.8519, 1476.997
851.3340, 1477.758
851.8161, 1478.423
852.2982, 1478.980
852.7803, 1479.568
853.2625, 1480.745
853.7446, 1481.686
854.2267, 1480.937
854.7088, 1478.697
855.1909, 1477.737
855.6730, 1480.084
856.1552, 1482.799
856.6373, 1485.239
857.1194, 1487.227
857.6015, 1486.734
858.0836, 1483.313
858.5657, 1480.951
859.0479, 1482.424
859.5300, 1485.547
860.0121, 1485.704
860.4942, 1483.725
860.9763, 1482.491
861.4584, 1483.646
861.9406, 1485.697
862.4227, 1488.440
862.9048, 1491.568
863.3869, 1494.091
863.8690, 1496.014
864.3511, 1497.263
864.8333, 1497.628
865.3154, 1497.546
865.7975, 1498.066
866.2796, 1499.009
866.7617, 1499.531
867.2438, 1498.743
867.7260, 1498.434
868.2081, 1500.198
868.6902, 1503.248
869.1723, 1506.378
869.6544, 1512.313
870.1365, 1513.761
870.6187, 1508.544
871.1008, 1500.776
871.5829, 1495.562
872.0650, 1492.895
872.5471, 1493.208
873.0292, 1497.247
873.5114, 1500.753
873.9935, 1497.719
874.4756, 1492.288
874.9577, 1489.957
875.4399, 1492.816
875.9220, 1495.462
876.4041, 1496.414
876.8862, 1496.824
877.3683, 1497.431
877.8505, 1498.336
878.3326, 1498.485
878.8147, 1497.742
879.2968, 1497.135
879.7789, 1497.693
880.2610, 1498.916
880.7432, 1500.372
881.2253, 1501.964
881.7074, 1502.512
882.1895, 1499.454
882.6716, 1497.044
883.1537, 1498.063
883.6359, 1502.298
884.1180, 1506.117
884.6001, 1509.823
885.0822, 1511.920
885.5643, 1510.623
886.0464, 1507.848
886.5286, 1508.101
887.0107, 1511.009
887.4928, 1515.052
887.9749, 1520.908
888.4570, 1526.080
888.9391, 1528.557
889.4213, 1529.267
889.9034, 1531.474
890.3855, 1536.487
890.8676, 1539.879
891.3497, 1540.324
891.8318, 1539.327
892.3140, 1540.051
892.7961, 1541.919
893.2782, 1542.538
893.7603, 1540.717
894.2424, 1538.572
894.7245, 1537.637
895.2067, 1537.315
895.6888, 1536.896
896.1709, 1537.536
896.6530, 1535.753
897.1351, 1530.555
897.6172, 1524.512
898.0994, 1520.366
898.5815, 1517.874
899.0636, 1515.437
899.5457, 1512.952
900.0278, 1510.448
900.5099, 1507.757
900.9921, 1505.173
901.4742, 1503.257
901.9563, 1502.328
902.4384, 1499.760
902.9205, 1493.154
903.4026, 1488.074
903.8848, 1487.631
904.3669, 1491.218
904.8490, 1494.357
905.3311, 1496.969
905.8132, 1497.654
906.2953, 1494.457
906.7775, 1489.758
907.2596, 1484.750
907.7417, 1480.089
908.2238, 1477.808
908.7059, 1480.882
909.1880, 1483.567
909.6702, 1484.899
910.1523, 1485.010
910.6344, 1483.701
911.1165, 1481.027
911.5986, 1479.432
912.0807, 1479.927
912.5629, 1480.920
913.0450, 1480.107
913.5271, 1478.762
914.0092, 1478.897
914.4913, 1482.494
914.9734, 1484.954
915.4556, 1484.764
915.9377, 1483.969
916.4198, 1484.315
916.9019, 1485.838
917.3840, 1488.179
917.8661, 1491.490
918.3483, 1494.063
918.8304, 1493.130
919.3125, 1491.290
919.7946, 1491.974
920.2767, 1495.546
920.7589, 1499.159
921.2410, 1502.270
921.7231, 1504.911
922.2052, 1507.052
922.6873, 1508.732
923.1694, 1510.323
923.6516, 1511.808
924.1337, 1513.053
924.6158, 1513.248
925.0979, 1513.796
925.5800, 1517.376
926.0621, 1522.753
926.5443, 1526.906
927.0264, 1528.216
927.5085, 1528.871
927.9906, 1529.440
928.4727, 1529.624
928.9548, 1528.775
929.4370, 1526.871
929.9191, 1525.147
930.4012, 1523.965
930.8833, 1522.486
931.3654, 1520.120
931.8475, 1516.724
932.3297, 1511.383
932.8118, 1502.607
933.2939, 1496.989
933.7761, 1498.859
934.2582, 1501.492
934.7403, 1500.730
935.2224, 1496.439
935.7045, 1494.221
936.1866, 1494.148
936.6688, 1493.435
937.1509, 1489.139
937.6330, 1483.838
938.1151, 1479.974
938.5972, 1477.665
939.0793, 1477.094
939.5615, 1481.546
940.0436, 1483.770
940.5257, 1481.382
941.0078, 1476.008
941.4899, 1471.591
941.9720, 1468.147
942.4542, 1465.988
942.9363, 1465.295
943.4184, 1465.605
943.9005, 1466.989
944.3826, 1468.795
944.8647, 1470.118
945.3469, 1470.254
945.8290, 1470.851
946.3111, 1472.914
946.7932, 1474.329
947.2753, 1472.679
947.7574, 1468.159
948.2396, 1465.307
948.7217, 1464.278
949.2038, 1464.415
949.6859, 1465.873
950.1680, 1467.798
950.6501, 1469.796
951.1323, 1471.765
951.6144, 1472.499
952.0965, 1471.052
952.5786, 1469.858
953.0607, 1469.817
953.5428, 1470.417
954.0250, 1469.909
954.5071, 1468.516
954.9892, 1467.587
955.4713, 1467.677
955.9534, 1468.318
956.4355, 1469.575
956.9177, 1470.999
957.3998, 1471.940
957.8819, 1471.929
958.3640, 1472.085
958.8461, 1472.192
959.3282, 1472.985
959.8104, 1476.105
960.2925, 1480.559
960.7746, 1482.275
961.2567, 1480.955
961.7388, 1480.174
962.2209, 1483.069
962.7031, 1486.606
963.1852, 1488.382
963.6673, 1488.457
964.1494, 1490.290
964.6315, 1494.566
965.1136, 1498.037
965.5958, 1499.038
966.0779, 1498.939
966.5600, 1500.435
967.0421, 1503.209
967.5242, 1506.419
968.0063, 1510.839
968.4885, 1514.158
968.9706, 1515.059
969.4527, 1514.645
969.9348, 1514.301
970.4169, 1514.156
970.8990, 1513.199
971.3812, 1511.126
971.8633, 1509.647
972.3454, 1511.405
972.8275, 1514.394
973.3096, 1515.674
973.7917, 1514.962
974.2739, 1513.678
974.7560, 1512.026
975.2381, 1510.179
975.7202, 1508.152
976.2023, 1505.982
976.6844, 1503.830
977.1666, 1501.688
977.6487, 1499.513
978.1308, 1497.155
978.6129, 1495.052
979.0950, 1494.105
979.5771, 1493.616
980.0593, 1492.428
980.5414, 1489.568
981.0235, 1486.979
981.5056, 1484.710
981.9877, 1482.727
982.4698, 1480.879
982.9520, 1479.212
983.4341, 1478.438
983.9162, 1478.569
984.3983, 1477.981
984.8804, 1474.401
985.3625, 1470.569
985.8447, 1468.660
986.3268, 1468.697
986.8089, 1468.520
987.2910, 1468.530
987.7731, 1466.984
988.2552, 1462.520
988.7374, 1457.279
989.2195, 1456.153
989.7016, 1457.855
990.1837, 1459.042
990.6658, 1458.232
991.1479, 1457.476
991.6301, 1458.449
992.1122, 1459.297
992.5944, 1457.915
993.0765, 1453.559
993.5586, 1451.123
994.0407, 1450.726
994.5228, 1451.593
995.0049, 1454.493
995.4871, 1457.425
995.9692, 1457.305
996.4513, 1454.445
996.9334, 1451.893
997.4155, 1450.064
997.8976, 1449.467
998.3798, 1450.759
998.8619, 1452.960
999.3440, 1453.241
999.8261, 1451.926
1000.308, 1452.551
1000.790, 1456.922
1001.272, 1460.443
1001.755, 1458.683
1002.237, 1454.365
1002.719, 1450.012
1003.201, 1444.988
1003.683, 1443.757
1004.165, 1448.033
1004.647, 1451.792
1005.129, 1449.750
1005.612, 1444.476
1006.094, 1443.897
1006.576, 1447.148
1007.058, 1450.062
1007.540, 1450.952
1008.022, 1450.586
1008.504, 1448.203
1008.986, 1445.183
1009.468, 1443.748
1009.951, 1443.964
1010.433, 1445.673
1010.915, 1449.251
1011.397, 1452.423
1011.879, 1452.166
1012.361, 1450.213
1012.843, 1448.550
1013.325, 1447.465
1013.807, 1446.664
1014.290, 1445.924
1014.772, 1445.681
1015.254, 1446.309
1015.736, 1447.540
1016.218, 1448.537
1016.700, 1449.212
1017.182, 1448.985
1017.664, 1446.584
1018.147, 1444.546
1018.629, 1445.081
1019.111, 1446.788
1019.593, 1447.443
1020.075, 1446.443
1020.557, 1446.012
1021.039, 1446.283
1021.521, 1446.973
1022.003, 1448.535
1022.486, 1450.036
1022.968, 1449.369
1023.450, 1446.647
1023.932, 1444.350
1024.414, 1444.169
1024.896, 1443.682
1025.378, 1441.605
1025.860, 1438.918
1026.343, 1438.610
1026.825, 1440.542
1027.307, 1442.933
1027.789, 1445.545
1028.271, 1447.666
1028.753, 1449.131
1029.235, 1449.494
1029.717, 1447.891
1030.199, 1443.162
1030.682, 1440.240
1031.164, 1439.291
1031.646, 1439.622
1032.128, 1441.307
1032.610, 1443.771
1033.092, 1445.645
1033.574, 1446.986
1034.056, 1447.933
1034.539, 1448.412
1035.021, 1448.677
1035.503, 1449.224
1035.985, 1449.320
1036.467, 1447.127
1036.949, 1442.521
1037.431, 1441.832
1037.913, 1446.137
1038.396, 1450.465
1038.878, 1450.455
1039.360, 1448.331
1039.842, 1445.427
1040.324, 1441.968
1040.806, 1440.901
1041.288, 1444.075
1041.770, 1445.262
1042.252, 1441.419
1042.734, 1435.877
1043.217, 1436.699
1043.699, 1441.359
1044.181, 1442.806
1044.663, 1436.798
1045.145, 1432.397
1045.627, 1434.918
1046.109, 1438.936
1046.591, 1440.352
1047.074, 1439.034
1047.556, 1438.750
1048.038, 1439.504
1048.520, 1439.905
1049.002, 1438.549
1049.484, 1436.869
1049.966, 1436.182
1050.448, 1436.174
1050.931, 1435.864
1051.413, 1434.715
1051.895, 1434.294
1052.377, 1434.980
1052.859, 1435.929
1053.341, 1436.525
1053.823, 1436.501
1054.305, 1434.385
1054.787, 1430.002
1055.270, 1427.951
1055.752, 1433.711
1056.234, 1438.450
1056.716, 1437.713
1057.198, 1433.240
1057.680, 1432.104
1058.162, 1434.062
1058.644, 1435.332
1059.126, 1434.447
1059.609, 1433.106
1060.091, 1432.771
1060.573, 1432.842
1061.055, 1432.448
1061.537, 1433.316
1062.019, 1431.667
1062.501, 1435.404
1062.983, 1439.003
1063.466, 1440.747
1063.948, 1440.808
1064.430, 1438.663
1064.912, 1435.065
1065.394, 1432.243
1065.876, 1430.620
1066.358, 1430.632
1066.840, 1432.800
1067.323, 1435.924
1067.805, 1439.115
1068.287, 1442.126
1068.769, 1442.674
1069.251, 1440.583
1069.733, 1438.180
1070.215, 1436.425
1070.697, 1435.473
1071.179, 1436.056
1071.661, 1437.609
1072.144, 1437.693
1072.626, 1436.012
1073.108, 1434.795
1073.590, 1434.552
1074.072, 1435.227
1074.554, 1438.297
1075.036, 1441.520
1075.518, 1441.572
1076.001, 1437.023
1076.483, 1433.330
1076.965, 1430.822
1077.447, 1429.519
1077.929, 1429.767
1078.411, 1431.070
1078.893, 1432.243
1079.375, 1433.224
1079.858, 1433.801
1080.340, 1433.354
1080.822, 1433.199
1081.304, 1433.960
1081.786, 1435.037
1082.268, 1436.160
1082.750, 1437.333
1083.232, 1436.698
1083.714, 1434.231
1084.197, 1432.351
1084.679, 1434.452
1085.161, 1436.301
1085.643, 1433.726
1086.125, 1428.289
1086.607, 1425.300
1087.089, 1425.519
1087.571, 1426.245
1088.054, 1427.342
1088.536, 1427.901
1089.018, 1425.887
1089.500, 1423.108
1089.982, 1422.053
1090.464, 1422.991
1090.946, 1425.383
1091.428, 1430.556
1091.911, 1434.853
1092.393, 1437.526
1092.875, 1438.174
1093.357, 1433.900
1093.839, 1426.758
1094.321, 1423.447
1094.803, 1426.954
1095.285, 1430.821
1095.767, 1432.748
1096.250, 1433.245
1096.732, 1432.174
1097.214, 1429.716
1097.696, 1429.798
1098.178, 1432.267
1098.660, 1433.865
1099.142, 1432.443
1099.624, 1430.098
1100.106, 1427.523
1100.589, 1425.434
1101.071, 1425.149
1101.553, 1427.691
1102.035, 1428.288
1102.517, 1426.459
1102.999, 1424.886
1103.481, 1426.114
1103.963, 1428.728
1104.446, 1431.255
1104.928, 1433.519
1105.410, 1435.182
1105.892, 1436.600
1106.374, 1436.414
1106.856, 1433.890
1107.338, 1430.695
1107.820, 1428.556
1108.302, 1427.611
1108.785, 1428.780
1109.267, 1432.143
1109.749, 1434.307
1110.231, 1431.891
1110.713, 1430.433
1111.195, 1433.052
1111.677, 1430.156
1112.159, 1435.516
1112.641, 1428.749
1113.124, 1424.833
1113.606, 1426.238
1114.088, 1428.459
1114.570, 1428.363
1115.052, 1427.969
1115.534, 1429.214
1116.016, 1431.974
1116.498, 1432.742
1116.981, 1431.447
1117.463, 1430.455
1117.945, 1431.120
1118.427, 1432.000
1118.909, 1431.465
1119.391, 1430.296
1119.873, 1429.626
1120.355, 1429.743
1120.838, 1429.730
1121.320, 1429.485
1121.802, 1429.474
1122.284, 1430.200
1122.766, 1431.240
1123.248, 1432.599
1123.730, 1433.744
1124.212, 1433.270
1124.694, 1428.555
1125.177, 1425.510
1125.659, 1424.684
1126.141, 1425.375
1126.623, 1428.111
1127.105, 1431.503
1127.587, 1430.988
1128.069, 1426.977
1128.551, 1424.239
1129.033, 1426.506
1129.516, 1428.222
1129.998, 1427.471
1130.480, 1425.700
1130.962, 1425.152
1131.444, 1425.739
1131.926, 1427.426
1132.408, 1430.287
1132.890, 1432.314
1133.373, 1431.918
1133.855, 1430.625
1134.337, 1428.907
1134.819, 1427.140
1135.301, 1427.043
1135.783, 1428.532
1136.265, 1428.385
1136.747, 1425.310
1137.229, 1422.320
1137.712, 1421.858
1138.194, 1422.733
1138.676, 1424.337
1139.158, 1426.586
1139.640, 1427.218
1140.122, 1426.029
1140.604, 1425.260
1141.086, 1426.168
1141.569, 1427.241
1142.051, 1426.440
1142.533, 1424.905
1143.015, 1424.302
1143.497, 1425.452
1143.979, 1425.106
1144.461, 1422.572
1144.943, 1421.302
1145.426, 1424.565
1145.908, 1429.387
1146.390, 1431.032
1146.872, 1430.487
1147.354, 1429.839
1147.836, 1430.032
1148.318, 1429.471
1148.800, 1427.896
1149.282, 1426.098
1149.765, 1424.536
1150.247, 1423.336
1150.729, 1423.297
1151.211, 1423.988
1151.693, 1423.579
1152.175, 1420.236
1152.657, 1417.232
1153.139, 1414.626
1153.621, 1413.285
1154.104, 1415.013
1154.586, 1418.805
1155.068, 1421.610
1155.550, 1423.194
1156.032, 1423.301
1156.514, 1419.624
1156.996, 1417.257
1157.478, 1418.406
1157.961, 1421.031
1158.443, 1421.347
1158.925, 1419.786
1159.407, 1418.720
1159.889, 1418.472
1160.371, 1418.794
1160.853, 1419.547
1161.335, 1420.884
1161.818, 1423.573
1162.300, 1426.602
1162.782, 1426.465
1163.264, 1423.473
1163.746, 1421.688
1164.228, 1422.193
1164.710, 1422.720
1165.192, 1421.001
1165.674, 1419.254
1166.156, 1419.551
1166.639, 1418.584
1167.121, 1418.272
1167.603, 1419.289
1168.085, 1418.554
1168.567, 1420.882
1169.049, 1422.586
1169.531, 1418.934
1170.013, 1414.159
1170.496, 1412.886
1170.978, 1415.241
1171.460, 1416.228
1171.942, 1415.743
1172.424, 1415.615
1172.906, 1416.714
1173.388, 1418.363
1173.870, 1420.677
1174.353, 1422.721
1174.835, 1423.119
1175.317, 1421.685
1175.799, 1419.298
1176.281, 1415.634
1176.763, 1413.658
1177.245, 1416.515
1177.727, 1420.317
1178.209, 1420.787
1178.692, 1419.073
1179.174, 1416.873
1179.656, 1413.301
1180.138, 1412.903
1180.620, 1416.407
1181.102, 1419.277
1181.584, 1416.878
1182.066, 1413.011
1182.548, 1412.635
1183.031, 1414.589
1183.513, 1416.122
1183.995, 1416.684
1184.477, 1417.140
1184.959, 1417.643
1185.441, 1417.613
1185.923, 1415.699
1186.405, 1413.524
1186.888, 1413.881
1187.370, 1416.032
1187.852, 1417.134
1188.334, 1416.181
1188.816, 1415.191
1189.298, 1414.340
1189.780, 1413.474
1190.262, 1411.688
1190.745, 1410.205
1191.227, 1411.863
1191.709, 1415.918
1192.191, 1417.720
1192.673, 1414.907
1193.155, 1412.494
1193.637, 1410.974
1194.119, 1410.504
1194.601, 1412.525
1195.084, 1415.071
1195.566, 1414.174
1196.048, 1410.020
1196.530, 1407.768
1197.012, 1409.073
1197.494, 1411.071
1197.976, 1413.580
1198.458, 1415.739
1198.941, 1416.325
1199.423, 1415.701
1199.905, 1414.059
1200.387, 1411.476
1200.869, 1409.826
1201.351, 1409.633
1201.833, 1410.221
1202.315, 1411.971
1202.797, 1413.322
1203.280, 1410.523
1203.762, 1406.059
1204.244, 1404.636
1204.726, 1407.138
1205.208, 1408.682
1205.690, 1407.456
1206.172, 1407.414
1206.654, 1410.395
1207.136, 1413.981
1207.619, 1413.173
1208.101, 1410.224
1208.583, 1409.553
1209.065, 1412.474
1209.547, 1412.840
1210.029, 1408.189
1210.511, 1404.421
1210.993, 1403.523
1211.476, 1404.762
1211.958, 1407.920
1212.440, 1411.804
1212.922, 1414.153
1213.404, 1414.311
1213.886, 1414.065
1214.368, 1413.475
1214.850, 1413.023
1215.333, 1413.022
1215.815, 1413.135
1216.297, 1412.934
1216.779, 1412.331
1217.261, 1411.053
1217.743, 1408.758
1218.225, 1406.935
1218.707, 1405.843
1219.189, 1404.781
1219.672, 1402.912
1220.154, 1401.518
1220.636, 1404.597
1221.118, 1409.332
1221.600, 1410.131
1222.082, 1403.104
1222.564, 1400.972
1223.046, 1405.850
1223.528, 1410.920
1224.011, 1413.040
1224.493, 1412.793
1224.975, 1409.908
1225.457, 1405.796
1225.939, 1402.745
1226.421, 1401.023
1226.903, 1401.963
1227.385, 1406.741
1227.868, 1409.879
1228.350, 1406.935
1228.832, 1402.150
1229.314, 1402.445
1229.796, 1405.397
1230.278, 1406.865
1230.760, 1405.385
1231.242, 1404.422
1231.724, 1404.169
1232.207, 1403.435
1232.689, 1400.507
1233.171, 1397.787
1233.653, 1399.145
1234.135, 1402.595
1234.617, 1404.964
1235.099, 1406.359
1235.581, 1404.434
1236.063, 1398.573
1236.546, 1393.935
1237.028, 1394.942
1237.510, 1397.562
1237.992, 1397.395
1238.474, 1395.982
1238.956, 1395.889
1239.438, 1397.424
1239.920, 1399.711
1240.403, 1402.804
1240.885, 1405.298
1241.367, 1406.361
1241.849, 1406.279
1242.331, 1405.091
1242.813, 1402.912
1243.295, 1399.584
1243.777, 1394.288
1244.260, 1392.760
1244.742, 1394.971
1245.224, 1397.899
1245.706, 1400.813
1246.188, 1402.594
1246.670, 1401.922
1247.152, 1399.967
1247.634, 1398.233
1248.116, 1396.649
1248.599, 1396.361
1249.081, 1397.340
1249.563, 1398.919
1250.045, 1401.887
1250.527, 1403.958
1251.009, 1403.067
1251.491, 1401.241
1251.973, 1400.588
1252.455, 1401.035
1252.938, 1401.125
1253.420, 1400.803
1253.902, 1399.854
1254.384, 1396.866
1254.866, 1394.909
1255.348, 1395.781
1255.830, 1397.463
1256.313, 1398.353
1256.795, 1398.535
1257.277, 1398.018
1257.759, 1397.107
1258.241, 1397.239
1258.723, 1400.757
1259.205, 1402.893
1259.687, 1401.913
1260.169, 1400.644
1260.651, 1402.276
1261.134, 1405.447
1261.616, 1405.708
1262.098, 1403.569
1262.580, 1401.019
1263.062, 1397.413
1263.544, 1395.716
1264.026, 1396.554
1264.508, 1398.284
1264.991, 1399.914
1265.473, 1401.294
1265.955, 1402.302
1266.437, 1402.826
1266.919, 1402.532
1267.401, 1400.338
1267.883, 1399.317
1268.365, 1399.766
1268.848, 1400.465
1269.330, 1400.676
1269.812, 1400.460
1270.294, 1399.674
1270.776, 1398.555
1271.258, 1397.677
1271.740, 1397.411
1272.222, 1395.815
1272.704, 1392.565
1273.187, 1390.658
1273.669, 1394.021
1274.151, 1397.775
1274.633, 1396.967
1275.115, 1393.984
1275.597, 1392.620
1276.079, 1393.074
1276.561, 1395.050
1277.043, 1398.458
1277.526, 1400.480
1278.008, 1398.707
1278.490, 1395.857
1278.972, 1392.294
1279.454, 1389.457
1279.936, 1389.068
1280.418, 1391.033
1280.900, 1392.456
1281.383, 1393.310
1281.865, 1393.524
1282.347, 1392.011
1282.829, 1391.343
1283.311, 1393.599
1283.793, 1395.461
1284.275, 1393.600
1284.757, 1389.325
1285.240, 1388.206
1285.722, 1389.537
1286.204, 1391.137
1286.686, 1393.349
1287.168, 1393.401
1287.650, 1390.065
1288.132, 1387.097
1288.614, 1388.137
1289.096, 1390.576
1289.578, 1387.516
1290.061, 1382.043
1290.543, 1380.759
1291.025, 1388.467
1291.507, 1392.435
1291.989, 1391.957
1292.471, 1390.954
1292.953, 1392.120
1293.435, 1393.321
1293.918, 1391.011
1294.400, 1387.539
1294.882, 1386.580
1295.364, 1388.528
1295.846, 1390.578
1296.328, 1392.790
1296.810, 1393.383
1297.292, 1390.401
1297.775, 1387.299
1298.257, 1387.878
1298.739, 1388.912
1299.221, 1387.071
1299.703, 1382.752
1300.185, 1380.440
1300.667, 1379.835
1301.149, 1378.960
1301.631, 1376.755
1302.114, 1374.550
1302.596, 1374.314
##END=



