##NAMES=Clinozoisite
##RRUFFID=R040085
##IDEAL CHEMISTRY=Ca_2_Al_3_(Si_2_O_7_)(SiO_4_)O(OH)
##LOCALITY=Alamos, Sonora, Mexico
##OWNER=RRUFF
##SOURCE=University of Arizona Mineral Museum
##DESCRIPTION=Divergent aggregate of red thin prismatic crystals
##STATUS=The identification of this mineral has been confirmed by X-ray diffraction and chemical analysis
##URL=rruff.info/R040085
##MEASURED CHEMISTRY=Ca_2.03_(Al_0.90_Fe_0.13_)_3_(Si_1.00_O_4_)(Si_2.00_O_7_)O(OH)
122.8982, 30722.18
123.3804, 30822.41
123.8625, 30901.41
124.3446, 30961.43
124.8267, 31012.88
125.3088, 31064.95
125.7909, 31118.45
126.2731, 31162.30
126.7552, 31162.30
127.2373, 31175.07
127.7194, 31236.56
128.2015, 31351.00
128.6837, 31486.92
129.1658, 31594.91
129.6479, 31645.63
130.1300, 31727.21
130.6121, 31851.26
131.0942, 31999.81
131.5764, 32167.93
132.0585, 32352.44
132.5406, 32540.80
133.0227, 32685.43
133.5048, 32744.28
133.9869, 32801.82
134.4691, 32840.85
134.9512, 32886.75
135.4333, 32985.74
135.9154, 33174.91
136.3975, 33447.11
136.8796, 33665.25
137.3618, 33820.44
137.8439, 33943.87
138.3260, 34044.97
138.8081, 34126.09
139.2902, 34192.01
139.7723, 34246.08
140.2545, 34287.04
140.7366, 34316.91
141.2187, 34359.21
141.7008, 34379.93
142.1829, 34336.26
142.6650, 34216.50
143.1472, 34059.00
143.6293, 33870.48
144.1114, 33661.18
144.5935, 33496.17
145.0756, 33435.36
145.5577, 33445.76
146.0399, 33424.68
146.5220, 33382.42
147.0041, 33260.49
147.4862, 32999.16
147.9683, 32605.82
148.4504, 32200.38
148.9326, 31882.45
149.4147, 31655.49
149.8968, 31456.63
150.3789, 31263.82
150.8610, 31105.68
151.3431, 30996.98
151.8252, 30941.66
152.3074, 30942.38
152.7895, 31022.24
153.2716, 31255.61
153.7537, 31404.68
154.2358, 31421.92
154.7179, 31370.71
155.2001, 31306.90
155.6822, 31254.29
156.1643, 31195.47
156.6464, 31075.04
157.1285, 30773.47
157.6106, 30544.39
158.0928, 30427.58
158.5749, 30394.60
159.0570, 30414.41
159.5391, 30473.08
160.0212, 30564.32
160.5033, 30612.98
160.9855, 30595.33
161.4676, 30566.70
161.9497, 30542.90
162.4318, 30522.24
162.9139, 30492.61
163.3960, 30438.67
163.8782, 30360.70
164.3603, 30334.56
164.8424, 30389.23
165.3245, 30466.91
165.8066, 30538.98
166.2887, 30601.87
166.7709, 30649.43
167.2530, 30670.60
167.7351, 30665.55
168.2172, 30665.46
168.6993, 30661.43
169.1814, 30668.79
169.6636, 30721.14
170.1457, 30836.50
170.6278, 30944.38
171.1099, 30956.39
171.5920, 30890.53
172.0741, 30822.00
172.5563, 30778.55
173.0384, 30754.48
173.5205, 30735.46
174.0026, 30724.53
174.4847, 30710.25
174.9668, 30687.37
175.4490, 30655.63
175.9311, 30609.63
176.4132, 30534.07
176.8953, 30429.84
177.3774, 30347.78
177.8595, 30312.29
178.3417, 30290.12
178.8238, 30262.65
179.3059, 30227.62
179.7880, 30189.10
180.2701, 30148.96
180.7522, 30103.88
181.2344, 30070.58
181.7165, 30055.71
182.1986, 30050.17
182.6807, 30055.30
183.1628, 30070.37
183.6449, 30082.05
184.1271, 30061.51
184.6092, 29973.26
185.0913, 29925.40
185.5734, 29940.04
186.0555, 29986.14
186.5376, 30039.37
187.0198, 30089.88
187.5019, 30140.95
187.9840, 30203.85
188.4661, 30316.63
188.9482, 30390.33
189.4303, 30392.80
189.9125, 30361.96
190.3946, 30343.79
190.8767, 30362.51
191.3588, 30407.02
191.8409, 30425.12
192.3230, 30384.36
192.8052, 30353.13
193.2873, 30353.14
193.7694, 30370.22
194.2515, 30379.05
194.7336, 30364.11
195.2157, 30327.72
195.6979, 30290.90
196.1800, 30263.20
196.6621, 30225.86
197.1442, 30164.91
197.6263, 30086.82
198.1084, 30010.49
198.5906, 29946.60
199.0727, 29896.54
199.5548, 29859.68
200.0369, 29857.10
200.5190, 29849.01
201.0011, 29800.10
201.4833, 29714.96
201.9654, 29642.39
202.4475, 29625.24
202.9296, 29658.24
203.4117, 29669.54
203.8938, 29633.32
204.3760, 29589.61
204.8581, 29579.27
205.3402, 29606.13
205.8223, 29633.93
206.3044, 29629.50
206.7865, 29601.47
207.2687, 29580.47
207.7508, 29570.92
208.2329, 29572.10
208.7150, 29579.82
209.1971, 29590.51
209.6792, 29620.36
210.1614, 29713.50
210.6435, 29839.83
211.1256, 29923.78
211.6077, 29910.89
212.0898, 29839.68
212.5719, 29793.63
213.0541, 29782.18
213.5362, 29784.88
214.0183, 29796.76
214.5004, 29812.02
214.9825, 29814.73
215.4646, 29779.35
215.9468, 29720.17
216.4289, 29699.71
216.9110, 29736.54
217.3931, 29791.93
217.8752, 29852.06
218.3573, 29912.41
218.8395, 29959.92
219.3216, 29983.72
219.8037, 29985.21
220.2858, 29979.49
220.7679, 29953.80
221.2500, 29935.53
221.7322, 29937.11
222.2143, 29956.57
222.6964, 29985.97
223.1785, 30024.44
223.6606, 30072.99
224.1427, 30106.65
224.6249, 30095.02
225.1070, 30095.09
225.5891, 30144.71
226.0712, 30231.16
226.5533, 30307.77
227.0354, 30321.45
227.5176, 30257.98
227.9997, 30229.29
228.4818, 30255.18
228.9639, 30300.07
229.4460, 30363.41
229.9281, 30437.09
230.4103, 30502.62
230.8924, 30535.21
231.3745, 30521.52
231.8566, 30535.99
232.3387, 30605.05
232.8208, 30677.91
233.3030, 30731.07
233.7851, 30764.24
234.2672, 30791.28
234.7493, 30828.83
235.2314, 30884.08
235.7135, 30923.66
236.1957, 30946.98
236.6778, 30958.89
237.1599, 30950.96
237.6420, 30928.93
238.1241, 30915.10
238.6062, 30938.07
239.0884, 31015.49
239.5705, 31072.19
240.0526, 31079.83
240.5347, 31092.10
241.0168, 31143.55
241.4989, 31235.98
241.9811, 31345.55
242.4632, 31445.30
242.9453, 31529.45
243.4274, 31622.08
243.9095, 31725.20
244.3916, 31833.24
244.8738, 31938.36
245.3559, 32041.61
245.8380, 32156.60
246.3201, 32298.37
246.8022, 32469.71
247.2843, 32667.97
247.7665, 32931.11
248.2486, 33193.35
248.7307, 33391.36
249.2128, 33524.55
249.6949, 33656.07
250.1770, 33860.49
250.6592, 34167.57
251.1413, 34451.45
251.6234, 34700.94
252.1055, 34936.08
252.5876, 35175.48
253.0697, 35419.31
253.5519, 35657.35
254.0340, 35878.38
254.5161, 36083.04
254.9982, 36249.02
255.4803, 36376.07
255.9624, 36465.38
256.4445, 36519.43
256.9267, 36537.82
257.4088, 36514.37
257.8909, 36439.13
258.3730, 36300.07
258.8551, 36148.22
259.3372, 35988.31
259.8194, 35813.21
260.3015, 35611.06
260.7836, 35382.05
261.2657, 35145.48
261.7478, 34916.60
262.2299, 34695.98
262.7121, 34495.12
263.1942, 34325.77
263.6763, 34169.66
264.1584, 34018.15
264.6405, 33869.23
265.1227, 33711.36
265.6048, 33528.04
266.0869, 33316.66
266.5690, 33138.55
267.0511, 33018.24
267.5332, 32915.19
268.0154, 32799.81
268.4975, 32669.54
268.9796, 32530.55
269.4617, 32380.91
269.9438, 32221.87
270.4259, 32095.36
270.9081, 32008.32
271.3902, 31949.79
271.8723, 31924.87
272.3544, 31930.61
272.8365, 31929.94
273.3186, 31895.18
273.8008, 31825.85
274.2829, 31750.55
274.7650, 31673.32
275.2471, 31587.77
275.7292, 31484.94
276.2113, 31366.49
276.6935, 31246.77
277.1756, 31136.59
277.6577, 31034.02
278.1398, 30929.32
278.6219, 30830.07
279.1040, 30722.27
279.5862, 30590.28
280.0683, 30436.84
280.5504, 30285.58
281.0325, 30152.47
281.5146, 30033.65
281.9967, 29909.33
282.4789, 29762.64
282.9610, 29624.87
283.4431, 29522.99
283.9252, 29451.09
284.4073, 29375.57
284.8894, 29272.76
285.3716, 29156.97
285.8537, 29070.54
286.3358, 29032.57
286.8179, 28998.62
287.3000, 28942.25
287.7821, 28868.36
288.2643, 28796.96
288.7464, 28734.66
289.2285, 28682.44
289.7106, 28640.57
290.1927, 28610.70
290.6748, 28587.06
291.1570, 28572.43
291.6391, 28562.97
292.1212, 28546.34
292.6033, 28516.66
293.0854, 28478.87
293.5675, 28443.22
294.0497, 28410.46
294.5318, 28377.08
295.0139, 28332.19
295.4960, 28285.73
295.9781, 28266.15
296.4602, 28290.68
296.9424, 28328.90
297.4245, 28323.10
297.9066, 28266.63
298.3887, 28213.60
298.8708, 28180.74
299.3529, 28162.21
299.8351, 28155.04
300.3172, 28163.90
300.7993, 28163.53
301.2814, 28101.60
301.7635, 27969.60
302.2456, 27872.02
302.7278, 27864.05
303.2099, 27892.97
303.6920, 27887.04
304.1741, 27830.82
304.6562, 27753.63
305.1383, 27678.49
305.6205, 27604.00
306.1026, 27559.98
306.5847, 27586.23
307.0668, 27625.78
307.5489, 27610.63
308.0310, 27532.41
308.5132, 27449.37
308.9953, 27417.68
309.4774, 27440.35
309.9595, 27451.42
310.4416, 27440.75
310.9237, 27398.31
311.4059, 27422.32
311.8880, 27434.67
312.3701, 27435.98
312.8522, 27393.20
313.3343, 27407.35
313.8164, 27398.69
314.2986, 27389.09
314.7807, 27411.25
315.2628, 27374.89
315.7449, 27396.55
316.2270, 27395.05
316.7091, 27404.15
317.1913, 27390.29
317.6734, 27383.52
318.1555, 27399.72
318.6376, 27403.20
319.1197, 27386.70
319.6018, 27396.48
320.0840, 27359.30
320.5661, 27363.33
321.0482, 27385.12
321.5303, 27369.78
322.0124, 27379.97
322.4945, 27380.44
322.9767, 27323.71
323.4588, 27257.13
323.9409, 27206.52
324.4230, 27188.93
324.9051, 27196.49
325.3872, 27215.12
325.8694, 27254.31
326.3515, 27287.73
326.8336, 27317.06
327.3157, 27337.83
327.7978, 27344.07
328.2799, 27334.50
328.7621, 27314.74
329.2442, 27290.98
329.7263, 27258.11
330.2084, 27235.70
330.6905, 27235.28
331.1726, 27236.61
331.6548, 27220.91
332.1369, 27188.48
332.6190, 27156.83
333.1011, 27143.53
333.5832, 27150.56
334.0653, 27167.35
334.5475, 27201.58
335.0296, 27236.57
335.5117, 27268.20
335.9938, 27294.06
336.4759, 27309.75
336.9580, 27310.35
337.4402, 27296.23
337.9223, 27291.03
338.4044, 27298.75
338.8865, 27310.65
339.3686, 27327.74
339.8507, 27347.14
340.3329, 27365.67
340.8150, 27382.15
341.2971, 27394.83
341.7792, 27395.66
342.2613, 27367.10
342.7434, 27348.78
343.2256, 27364.74
343.7077, 27384.81
344.1898, 27364.96
344.6719, 27288.91
345.1540, 27197.72
345.6361, 27180.28
346.1183, 27293.34
346.6004, 27371.47
347.0825, 27385.75
347.5646, 27378.90
348.0467, 27375.75
348.5288, 27383.71
349.0110, 27402.74
349.4931, 27437.77
349.9752, 27497.55
350.4573, 27538.47
350.9394, 27554.84
351.4215, 27555.80
351.9037, 27545.78
352.3858, 27524.03
352.8679, 27484.95
353.3500, 27409.95
353.8321, 27301.54
354.3142, 27247.88
354.7964, 27317.91
355.2785, 27359.23
355.7606, 27285.08
356.2427, 27141.62
356.7248, 27024.74
357.2069, 27006.04
357.6891, 27040.44
358.1712, 26988.43
358.6533, 26801.78
359.1354, 26636.54
359.6175, 26566.85
360.0996, 26546.72
360.5818, 26528.67
361.0639, 26498.57
361.5460, 26463.16
362.0281, 26431.78
362.5102, 26404.92
362.9923, 26376.85
363.4745, 26351.16
363.9566, 26319.16
364.4387, 26263.80
364.9208, 26177.95
365.4029, 26110.19
365.8850, 26110.29
366.3672, 26165.57
366.8493, 26207.80
367.3314, 26224.13
367.8135, 26220.08
368.2956, 26197.25
368.7777, 26157.35
369.2599, 26118.85
369.7420, 26095.79
370.2241, 26077.42
370.7062, 26032.90
371.1883, 25950.04
371.6704, 25893.79
372.1526, 25948.86
372.6347, 26090.17
373.1168, 26170.82
373.5989, 26139.86
374.0810, 26066.05
374.5631, 25991.31
375.0453, 25919.42
375.5274, 25864.42
376.0095, 25835.46
376.4916, 25830.04
376.9737, 25833.59
377.4558, 25867.36
377.9380, 25884.95
378.4201, 25847.28
378.9022, 25783.79
379.3843, 25755.96
379.8664, 25790.68
380.3485, 25859.07
380.8307, 25900.58
381.3128, 25895.12
381.7949, 25900.23
382.2770, 25938.54
382.7591, 25978.59
383.2412, 25976.44
383.7234, 25929.50
384.2055, 25890.06
384.6876, 25925.82
385.1697, 26068.34
385.6518, 26149.75
386.1339, 26119.61
386.6161, 26086.31
387.0982, 26110.39
387.5803, 26179.05
388.0624, 26244.21
388.5445, 26271.17
389.0266, 26262.92
389.5088, 26251.12
389.9909, 26217.21
390.4730, 26202.08
390.9551, 26228.29
391.4372, 26271.80
391.9193, 26300.88
392.4015, 26301.34
392.8836, 26288.09
393.3657, 26293.66
393.8478, 26329.91
394.3299, 26355.17
394.8120, 26363.48
395.2942, 26359.79
395.7763, 26345.98
396.2584, 26322.64
396.7405, 26290.99
397.2226, 26247.50
397.7047, 26192.20
398.1869, 26147.54
398.6690, 26122.02
399.1511, 26099.46
399.6332, 26062.13
400.1153, 26018.96
400.5974, 25996.66
401.0796, 26042.39
401.5617, 26109.18
402.0438, 26072.38
402.5259, 25900.84
403.0080, 25749.70
403.4901, 25733.24
403.9723, 25782.83
404.4544, 25796.83
404.9365, 25747.75
405.4186, 25677.23
405.9007, 25610.92
406.3828, 25550.09
406.8650, 25502.16
407.3471, 25470.14
407.8292, 25452.33
408.3113, 25449.86
408.7934, 25467.08
409.2755, 25475.02
409.7577, 25456.72
410.2398, 25426.79
410.7219, 25404.28
411.2040, 25392.56
411.6861, 25386.49
412.1682, 25380.00
412.6504, 25372.37
413.1325, 25377.14
413.6146, 25407.54
414.0967, 25437.83
414.5788, 25447.54
415.0609, 25444.04
415.5431, 25454.84
416.0252, 25500.57
416.5073, 25568.01
416.9894, 25594.54
417.4715, 25502.72
417.9536, 25464.20
418.4358, 25528.50
418.9179, 25639.20
419.4000, 25742.27
419.8821, 25819.52
420.3642, 25878.15
420.8463, 25924.41
421.3285, 25944.74
421.8106, 25990.38
422.2927, 26084.27
422.7748, 26181.57
423.2569, 26262.33
423.7390, 26326.53
424.2212, 26382.96
424.7033, 26433.88
425.1854, 26482.01
425.6675, 26549.56
426.1496, 26652.07
426.6317, 26746.32
427.1139, 26798.10
427.5960, 26838.79
428.0781, 26917.02
428.5602, 27061.54
429.0423, 27212.05
429.5244, 27289.06
430.0066, 27291.27
430.4887, 27281.75
430.9708, 27278.98
431.4529, 27269.40
431.9350, 27233.47
432.4171, 27169.18
432.8993, 27116.29
433.3814, 27108.54
433.8635, 27121.30
434.3456, 27102.19
434.8277, 27040.25
435.3098, 26982.43
435.7920, 26971.18
436.2741, 27004.22
436.7562, 27030.43
437.2383, 27026.19
437.7204, 27034.76
438.2025, 27093.57
438.6847, 27187.59
439.1668, 27267.00
439.6489, 27302.71
440.1310, 27321.65
440.6131, 27397.88
441.0952, 27597.34
441.5774, 27762.72
442.0595, 27852.49
442.5416, 27925.98
443.0237, 28037.13
443.5058, 28194.77
443.9879, 28371.42
444.4701, 28533.89
444.9522, 28674.14
445.4343, 28853.57
445.9164, 29121.10
446.3985, 29378.28
446.8806, 29601.51
447.3628, 29789.18
447.8449, 29939.02
448.3270, 30045.31
448.8091, 30126.23
449.2912, 30234.09
449.7733, 30387.91
450.2555, 30514.25
450.7376, 30588.35
451.2197, 30631.01
451.7018, 30653.34
452.1839, 30657.04
452.6660, 30645.29
453.1482, 30617.08
453.6303, 30574.63
454.1124, 30536.06
454.5945, 30519.95
455.0766, 30470.96
455.5587, 30335.16
456.0409, 30129.19
456.5230, 29887.68
457.0051, 29586.08
457.4872, 29274.17
457.9693, 28991.77
458.4514, 28736.41
458.9336, 28498.01
459.4156, 28273.16
459.8978, 28060.44
460.3799, 27861.14
460.8620, 27698.11
461.3441, 27504.27
461.8262, 27229.01
462.3083, 26937.33
462.7905, 26699.81
463.2726, 26527.98
463.7547, 26390.33
464.2368, 26253.99
464.7189, 26117.68
465.2010, 25995.25
465.6832, 25886.47
466.1653, 25791.54
466.6474, 25710.30
467.1295, 25643.48
467.6116, 25592.88
468.0938, 25560.80
468.5759, 25540.60
469.0580, 25521.67
469.5401, 25511.94
470.0222, 25480.53
470.5043, 25379.52
470.9865, 25286.47
471.4686, 25264.70
471.9507, 25312.43
472.4328, 25358.38
472.9149, 25339.04
473.3970, 25273.95
473.8792, 25235.62
474.3613, 25233.65
474.8434, 25238.76
475.3255, 25223.39
475.8076, 25202.83
476.2897, 25212.81
476.7719, 25292.11
477.2540, 25360.43
477.7361, 25343.93
478.2182, 25269.70
478.7003, 25221.89
479.1824, 25232.39
479.6646, 25269.75
480.1467, 25286.00
480.6288, 25274.50
481.1109, 25262.47
481.5930, 25245.58
482.0751, 25232.99
482.5573, 25234.66
483.0394, 25247.81
483.5215, 25259.25
484.0036, 25258.47
484.4857, 25248.60
484.9678, 25251.73
485.4500, 25295.68
485.9321, 25314.29
486.4142, 25281.18
486.8963, 25229.37
487.3784, 25185.48
487.8605, 25157.91
488.3427, 25147.63
488.8248, 25173.73
489.3069, 25240.09
489.7890, 25239.86
490.2711, 25112.98
490.7532, 24992.05
491.2354, 24976.90
491.7175, 25022.13
492.1996, 25017.52
492.6817, 24887.28
493.1638, 24723.68
493.6459, 24640.69
494.1281, 24632.84
494.6102, 24623.45
495.0923, 24578.44
495.5744, 24523.30
496.0565, 24512.11
496.5386, 24560.77
497.0208, 24575.06
497.5029, 24500.89
497.9850, 24401.39
498.4671, 24337.03
498.9492, 24313.44
499.4313, 24308.30
499.9135, 24303.66
500.3956, 24300.94
500.8777, 24320.62
501.3598, 24424.72
501.8419, 24476.26
502.3240, 24396.19
502.8062, 24278.31
503.2883, 24232.99
503.7704, 24290.92
504.2525, 24389.06
504.7346, 24447.96
505.2167, 24461.82
505.6989, 24476.11
506.1810, 24482.46
506.6631, 24501.53
507.1452, 24552.08
507.6273, 24621.47
508.1094, 24680.96
508.5916, 24713.21
509.0737, 24736.30
509.5558, 24784.44
510.0379, 24855.57
510.5200, 24890.63
511.0021, 24849.31
511.4843, 24785.72
511.9664, 24791.01
512.4485, 24875.31
512.9306, 24938.10
513.4127, 24927.00
513.8948, 24899.77
514.3770, 24925.16
514.8591, 24998.96
515.3412, 25055.49
515.8233, 25045.27
516.3054, 24980.77
516.7875, 24942.33
517.2697, 24961.33
517.7518, 24968.04
518.2339, 24955.85
518.7160, 24928.42
519.1981, 24882.97
519.6802, 24822.12
520.1624, 24763.43
520.6445, 24734.79
521.1266, 24737.87
521.6087, 24699.79
522.0908, 24591.17
522.5729, 24484.66
523.0551, 24430.86
523.5372, 24395.17
524.0193, 24319.09
524.5014, 24171.54
524.9835, 24010.10
525.4656, 23886.73
525.9478, 23798.44
526.4299, 23732.23
526.9120, 23693.13
527.3941, 23655.27
527.8762, 23582.04
528.3583, 23471.52
528.8405, 23379.67
529.3226, 23326.53
529.8047, 23280.12
530.2868, 23218.91
530.7689, 23146.59
531.2510, 23078.31
531.7332, 23022.66
532.2153, 22970.00
532.6974, 22893.27
533.1795, 22754.80
533.6616, 22662.71
534.1437, 22633.82
534.6259, 22632.79
535.1080, 22655.89
535.5901, 22690.04
536.0722, 22703.81
536.5543, 22670.45
537.0364, 22602.90
537.5186, 22537.19
538.0007, 22468.96
538.4828, 22418.51
538.9649, 22396.08
539.4470, 22395.17
539.9291, 22414.09
540.4113, 22456.74
540.8934, 22490.08
541.3755, 22497.92
541.8576, 22485.98
542.3397, 22456.82
542.8218, 22411.67
543.3040, 22368.81
543.7861, 22340.45
544.2682, 22326.18
544.7503, 22324.02
545.2324, 22347.96
545.7145, 22364.81
546.1967, 22357.50
546.6788, 22345.44
547.1609, 22351.18
547.6430, 22378.74
548.1251, 22414.35
548.6072, 22444.48
549.0894, 22469.32
549.5715, 22488.14
550.0536, 22502.90
550.5357, 22508.58
551.0178, 22492.45
551.4999, 22471.32
551.9821, 22468.09
552.4642, 22490.26
552.9463, 22527.30
553.4284, 22582.91
553.9105, 22647.84
554.3926, 22674.47
554.8748, 22641.99
555.3569, 22614.77
555.8390, 22656.17
556.3211, 22766.99
556.8032, 22873.23
557.2853, 22983.60
557.7675, 23078.84
558.2496, 23128.44
558.7317, 23161.52
559.2138, 23231.23
559.6959, 23355.64
560.1780, 23503.77
560.6602, 23627.53
561.1423, 23718.70
561.6244, 23817.61
562.1065, 23913.66
562.5886, 24028.60
563.0707, 24176.50
563.5529, 24348.20
564.0350, 24531.14
564.5171, 24723.48
564.9992, 24912.73
565.4813, 25072.02
565.9634, 25204.59
566.4456, 25363.79
566.9277, 25565.32
567.4098, 25791.54
567.8919, 26026.00
568.3740, 26267.88
568.8561, 26526.57
569.3383, 26826.64
569.8204, 27123.70
570.3025, 27412.76
570.7846, 27676.59
571.2667, 27877.08
571.7488, 27998.23
572.2310, 28053.46
572.7131, 28067.96
573.1952, 28061.21
573.6773, 27957.08
574.1594, 27739.43
574.6415, 27447.34
575.1237, 27071.59
575.6058, 26635.70
576.0879, 26174.06
576.5700, 25693.46
577.0521, 25222.23
577.5342, 24794.68
578.0164, 24411.66
578.4985, 24088.12
578.9806, 23850.66
579.4627, 23642.69
579.9448, 23397.23
580.4269, 23120.32
580.9091, 22873.90
581.3912, 22656.11
581.8733, 22483.92
582.3554, 22390.28
582.8375, 22350.22
583.3196, 22294.12
583.8018, 22192.16
584.2839, 22084.65
584.7660, 22047.71
585.2481, 22120.52
585.7302, 22152.37
586.2123, 22120.63
586.6945, 22073.21
587.1766, 22018.60
587.6587, 21964.52
588.1408, 21917.39
588.6229, 21874.97
589.1050, 21857.31
589.5872, 21919.34
590.0693, 22056.41
590.5514, 22124.84
591.0335, 22070.53
591.5156, 21985.10
591.9977, 21957.86
592.4799, 21981.55
592.9620, 22010.07
593.4441, 22034.58
593.9262, 22064.99
594.4083, 22114.40
594.8904, 22172.67
595.3726, 22214.95
595.8547, 22232.85
596.3368, 22247.29
596.8189, 22290.54
597.3010, 22370.72
597.7831, 22439.91
598.2653, 22489.63
598.7474, 22536.23
599.2295, 22576.63
599.7116, 22619.22
600.1937, 22679.15
600.6758, 22763.90
601.1580, 22853.54
601.6401, 22929.55
602.1222, 22992.67
602.6043, 23045.45
603.0864, 23087.44
603.5685, 23123.20
604.0507, 23159.23
604.5328, 23193.06
605.0149, 23208.50
605.4970, 23195.41
605.9791, 23176.20
606.4612, 23163.83
606.9434, 23147.45
607.4255, 23111.26
607.9076, 23052.76
608.3897, 22982.57
608.8718, 22910.86
609.3539, 22837.64
609.8361, 22768.27
610.3182, 22716.13
610.8003, 22644.23
611.2824, 22523.95
611.7645, 22388.30
612.2466, 22270.18
612.7288, 22175.71
613.2109, 22094.48
613.6930, 22021.60
614.1751, 21957.29
614.6572, 21909.51
615.1393, 21877.72
615.6215, 21827.06
616.1036, 21727.96
616.5857, 21599.00
617.0678, 21505.75
617.5499, 21479.13
618.0320, 21445.89
618.5142, 21398.20
618.9963, 21346.55
619.4784, 21299.38
619.9605, 21256.04
620.4426, 21208.82
620.9247, 21148.47
621.4069, 21086.73
621.8890, 21062.96
622.3711, 21087.13
622.8532, 21090.02
623.3353, 21045.96
623.8174, 20980.89
624.2996, 20916.94
624.7817, 20854.47
625.2638, 20801.26
625.7459, 20753.16
626.2280, 20720.46
626.7101, 20725.68
627.1923, 20752.71
627.6744, 20760.04
628.1565, 20731.22
628.6386, 20679.87
629.1207, 20624.08
629.6028, 20556.16
630.0850, 20515.15
630.5671, 20527.80
631.0492, 20540.84
631.5313, 20543.84
632.0134, 20534.56
632.4955, 20507.92
632.9777, 20459.82
633.4598, 20409.41
633.9419, 20369.31
634.4240, 20341.77
634.9061, 20342.03
635.3882, 20376.34
635.8704, 20403.31
636.3525, 20387.31
636.8346, 20337.12
637.3167, 20309.63
637.7988, 20334.20
638.2809, 20339.67
638.7631, 20301.70
639.2452, 20247.93
639.7273, 20198.79
640.2094, 20159.39
640.6915, 20131.48
641.1736, 20118.10
641.6558, 20115.61
642.1379, 20114.60
642.6200, 20118.48
643.1021, 20108.23
643.5842, 20069.00
644.0663, 20021.87
644.5485, 19983.64
645.0306, 19954.58
645.5127, 19947.81
645.9948, 19981.93
646.4769, 20026.72
646.9590, 20069.23
647.4412, 20102.26
647.9233, 20105.71
648.4054, 20071.62
648.8875, 20024.29
649.3696, 20002.95
649.8517, 20017.34
650.3339, 20007.76
650.8160, 19948.29
651.2981, 19895.29
651.7802, 19862.99
652.2623, 19849.54
652.7444, 19761.01
653.2266, 19827.79
653.7087, 19869.61
654.1908, 19887.75
654.6729, 19816.08
655.1550, 19856.66
655.6371, 19850.00
656.1193, 19839.84
656.6014, 19891.59
657.0835, 19824.66
657.5656, 19872.17
658.0477, 19871.73
658.5298, 19890.88
659.0120, 19862.49
659.4941, 19846.67
659.9762, 19875.16
660.4583, 19876.59
660.9404, 19836.45
661.4225, 19847.23
661.9047, 19762.50
662.3868, 19758.55
662.8689, 19873.52
663.3510, 19903.02
663.8331, 19878.29
664.3152, 19840.28
664.7974, 19825.57
665.2795, 19834.04
665.7616, 19848.34
666.2437, 19875.86
666.7258, 19900.14
667.2079, 19927.88
667.6901, 19942.75
668.1722, 19910.30
668.6543, 19832.63
669.1364, 19765.57
669.6185, 19772.99
670.1006, 19835.65
670.5828, 19825.72
671.0649, 19712.05
671.5470, 19629.09
672.0291, 19641.95
672.5112, 19689.69
672.9933, 19701.24
673.4755, 19674.77
673.9576, 19650.51
674.4397, 19647.55
674.9218, 19644.33
675.4039, 19612.72
675.8860, 19568.10
676.3682, 19553.01
676.8503, 19583.64
677.3324, 19627.69
677.8145, 19637.05
678.2966, 19607.38
678.7787, 19576.61
679.2609, 19528.60
679.7430, 19504.78
680.2251, 19544.53
680.7072, 19605.38
681.1893, 19633.76
681.6714, 19619.34
682.1536, 19585.74
682.6357, 19524.70
683.1178, 19463.83
683.5999, 19438.09
684.0820, 19449.09
684.5641, 19496.59
685.0463, 19587.01
685.5284, 19686.98
686.0105, 19710.14
686.4926, 19597.40
686.9747, 19548.08
687.4568, 19629.15
687.9390, 19706.62
688.4211, 19713.75
688.9032, 19680.59
689.3853, 19671.02
689.8674, 19713.04
690.3495, 19752.73
690.8317, 19727.76
691.3138, 19670.48
691.7959, 19661.88
692.2780, 19710.58
692.7601, 19752.97
693.2422, 19742.02
693.7244, 19693.02
694.2065, 19665.42
694.6886, 19675.39
695.1707, 19681.42
695.6528, 19671.85
696.1349, 19667.71
696.6171, 19694.29
697.0992, 19736.95
697.5813, 19753.31
698.0634, 19714.51
698.5455, 19664.12
699.0276, 19653.94
699.5098, 19674.66
699.9919, 19695.33
700.4740, 19710.93
700.9561, 19718.34
701.4382, 19715.82
701.9203, 19702.92
702.4025, 19675.70
702.8846, 19607.77
703.3667, 19560.86
703.8488, 19568.19
704.3309, 19575.08
704.8130, 19530.81
705.2952, 19445.54
705.7773, 19371.90
706.2594, 19347.27
706.7415, 19337.43
707.2236, 19287.67
707.7057, 19205.59
708.1879, 19135.31
708.6700, 19084.86
709.1521, 19060.27
709.6342, 19078.28
710.1163, 19135.10
710.5984, 19140.64
711.0806, 19056.38
711.5627, 18974.47
712.0448, 18899.34
712.5269, 18838.39
713.0090, 18803.36
713.4911, 18790.11
713.9733, 18778.26
714.4554, 18753.28
714.9375, 18724.61
715.4196, 18709.36
715.9017, 18705.77
716.3839, 18700.68
716.8660, 18691.81
717.3481, 18676.17
717.8302, 18649.81
718.3123, 18612.88
718.7944, 18573.66
719.2766, 18533.02
719.7587, 18488.96
720.2408, 18429.51
720.7229, 18374.34
721.2050, 18341.69
721.6871, 18331.83
722.1693, 18334.04
722.6514, 18352.63
723.1335, 18367.64
723.6156, 18330.54
724.0977, 18251.74
724.5798, 18214.19
725.0620, 18246.61
725.5441, 18290.21
726.0262, 18281.63
726.5083, 18220.85
726.9904, 18186.46
727.4725, 18196.46
727.9547, 18208.29
728.4368, 18223.18
728.9189, 18231.46
729.4010, 18218.32
729.8831, 18187.98
730.3652, 18165.21
730.8474, 18169.62
731.3295, 18184.87
731.8116, 18189.78
732.2937, 18184.91
732.7758, 18169.79
733.2579, 18142.70
733.7401, 18119.27
734.2222, 18118.63
734.7043, 18139.13
735.1864, 18135.96
735.6685, 18075.04
736.1506, 18035.54
736.6328, 18049.82
737.1149, 18070.85
737.5970, 18053.63
738.0791, 18004.55
738.5612, 17970.01
739.0433, 17979.66
739.5255, 18007.38
740.0076, 18028.08
740.4897, 18042.16
740.9718, 18049.92
741.4539, 18051.36
741.9360, 18050.80
742.4182, 18053.67
742.9003, 18057.87
743.3824, 18043.63
743.8645, 17984.93
744.3466, 17952.89
744.8287, 17984.17
745.3109, 18019.13
745.7930, 18017.86
746.2751, 17985.07
746.7572, 17945.98
747.2393, 17894.85
747.7214, 17863.35
748.2036, 17901.28
748.6857, 17971.32
749.1678, 17999.21
749.6499, 17974.20
750.1320, 17928.12
750.6141, 17881.48
751.0963, 17839.50
751.5784, 17827.06
752.0605, 17859.77
752.5426, 17877.42
753.0247, 17859.74
753.5068, 17838.76
753.9890, 17841.74
754.4711, 17856.66
754.9532, 17849.34
755.4353, 17800.87
755.9174, 17750.85
756.3995, 17709.14
756.8817, 17682.94
757.3638, 17691.61
757.8459, 17727.68
758.3280, 17756.82
758.8101, 17758.05
759.2922, 17738.64
759.7744, 17706.73
760.2565, 17658.58
760.7386, 17640.80
761.2207, 17674.81
761.7028, 17706.03
762.1849, 17697.56
762.6671, 17661.68
763.1492, 17629.68
763.6313, 17598.78
764.1134, 17579.43
764.5955, 17572.30
765.0776, 17578.91
765.5598, 17619.16
766.0419, 17671.62
766.5240, 17683.71
767.0061, 17631.67
767.4882, 17565.51
767.9703, 17558.36
768.4525, 17596.42
768.9346, 17598.00
769.4167, 17553.72
769.8988, 17517.22
770.3809, 17521.76
770.8630, 17541.30
771.3452, 17520.35
771.8273, 17427.95
772.3094, 17386.77
772.7915, 17450.08
773.2736, 17503.04
773.7557, 17480.20
774.2379, 17428.04
774.7200, 17414.11
775.2021, 17452.95
775.6842, 17498.76
776.1663, 17522.10
776.6484, 17528.50
777.1306, 17522.86
777.6127, 17507.33
778.0948, 17489.60
778.5769, 17471.93
779.0590, 17460.18
779.5411, 17464.42
780.0233, 17485.40
780.5054, 17488.52
780.9875, 17467.21
781.4696, 17438.53
781.9517, 17390.92
782.4338, 17349.41
782.9160, 17340.59
783.3981, 17361.21
783.8802, 17375.87
784.3623, 17360.44
784.8444, 17348.24
785.3265, 17378.60
785.8087, 17418.93
786.2908, 17407.50
786.7729, 17342.00
787.2550, 17282.27
787.7371, 17276.90
788.2192, 17308.12
788.7014, 17327.72
789.1835, 17335.09
789.6656, 17336.80
790.1477, 17335.41
790.6298, 17324.19
791.1119, 17237.35
791.5941, 17287.24
792.0762, 17313.81
792.5583, 17318.31
793.0404, 17234.62
793.5225, 17264.81
794.0046, 17249.36
794.4868, 17232.04
794.9689, 17278.25
795.4510, 17207.39
795.9331, 17252.60
796.4152, 17251.47
796.8973, 17271.55
797.3795, 17245.71
797.8616, 17234.05
798.3437, 17268.33
798.8258, 17277.17
799.3079, 17246.05
799.7900, 17267.47
800.2722, 17195.01
800.7543, 17204.93
801.2364, 17250.41
801.7185, 17221.59
802.2006, 17243.86
802.6827, 17246.67
803.1649, 17161.07
803.6470, 17229.22
804.1291, 17230.88
804.6112, 17164.27
805.0933, 17227.16
805.5754, 17169.96
806.0576, 17155.62
806.5397, 17173.54
807.0218, 17157.83
807.5039, 17195.14
807.9860, 17181.38
808.4681, 17163.05
808.9503, 17164.64
809.4324, 17109.79
809.9145, 17159.64
810.3966, 17137.97
810.8787, 17151.85
811.3608, 17167.43
811.8430, 17187.35
812.3251, 17206.20
812.8072, 17221.88
813.2893, 17239.25
813.7714, 17246.54
814.2535, 17238.41
814.7357, 17223.97
815.2178, 17199.05
815.6999, 17174.05
816.1820, 17176.00
816.6641, 17222.74
817.1462, 17260.31
817.6284, 17228.57
818.1105, 17167.22
818.5926, 17139.97
819.0747, 17147.93
819.5568, 17170.67
820.0389, 17199.60
820.5211, 17223.67
821.0032, 17220.10
821.4853, 17185.91
821.9674, 17177.59
822.4495, 17205.07
822.9316, 17233.45
823.4138, 17253.89
823.8959, 17265.46
824.3780, 17262.08
824.8601, 17243.10
825.3422, 17236.53
825.8243, 17249.05
826.3065, 17270.13
826.7886, 17305.46
827.2707, 17340.94
827.7528, 17361.05
828.2349, 17365.52
828.7170, 17364.32
829.1992, 17360.74
829.6813, 17359.54
830.1633, 17369.96
830.6454, 17388.15
831.1276, 17401.58
831.6097, 17408.36
832.0918, 17411.11
832.5739, 17410.85
833.0560, 17409.72
833.5381, 17417.57
834.0203, 17446.70
834.5024, 17439.93
834.9845, 17365.22
835.4666, 17298.08
835.9487, 17279.28
836.4308, 17289.59
836.9130, 17307.76
837.3951, 17337.40
837.8772, 17347.54
838.3593, 17316.92
838.8414, 17278.64
839.3235, 17242.21
839.8057, 17215.81
840.2878, 17212.55
840.7699, 17233.33
841.2520, 17261.89
841.7341, 17296.88
842.2162, 17321.81
842.6984, 17290.61
843.1805, 17217.12
843.6626, 17177.67
844.1447, 17190.95
844.6268, 17214.40
845.1089, 17212.94
845.5911, 17191.12
846.0732, 17168.66
846.5553, 17142.67
847.0374, 17124.18
847.5195, 17117.31
848.0016, 17114.14
848.4838, 17110.64
848.9659, 17107.42
849.4480, 17104.66
849.9301, 17099.77
850.4122, 17103.68
850.8943, 17128.04
851.3765, 17153.79
851.8586, 17170.12
852.3407, 17177.76
852.8228, 17174.78
853.3049, 17162.43
853.7870, 17157.67
854.2692, 17184.18
854.7513, 17223.74
855.2334, 17237.07
855.7155, 17230.85
856.1976, 17238.88
856.6797, 17270.29
857.1619, 17311.01
857.6440, 17351.82
858.1261, 17388.36
858.6082, 17391.84
859.0903, 17341.04
859.5724, 17328.32
860.0546, 17394.72
860.5367, 17460.72
861.0188, 17459.51
861.5009, 17421.46
861.9830, 17421.55
862.4651, 17479.27
862.9473, 17532.61
863.4294, 17577.44
863.9115, 17607.31
864.3936, 17605.34
864.8757, 17590.92
865.3578, 17595.40
865.8400, 17626.14
866.3221, 17661.65
866.8042, 17680.75
867.2863, 17699.29
867.7684, 17742.11
868.2505, 17802.79
868.7327, 17863.10
869.2148, 17918.37
869.6969, 17969.48
870.1790, 18017.54
870.6611, 18062.26
871.1432, 18104.62
871.6254, 18145.71
872.1075, 18170.40
872.5896, 18163.48
873.0717, 18174.70
873.5538, 18249.34
874.0359, 18359.33
874.5181, 18424.38
875.0002, 18405.88
875.4823, 18429.62
875.9644, 18522.63
876.4465, 18627.68
876.9286, 18726.90
877.4108, 18822.19
877.8929, 18940.31
878.3750, 19079.13
878.8571, 19133.49
879.3392, 18984.12
879.8214, 18799.91
880.3035, 18709.55
880.7856, 18679.45
881.2677, 18663.48
881.7498, 18647.41
882.2319, 18620.25
882.7141, 18572.94
883.1962, 18515.42
883.6783, 18463.52
884.1604, 18417.19
884.6425, 18377.58
885.1246, 18345.36
885.6068, 18310.33
886.0889, 18267.55
886.5710, 18216.67
887.0531, 18154.96
887.5352, 18078.06
888.0173, 18015.47
888.4995, 17976.20
888.9816, 17935.30
889.4637, 17870.79
889.9458, 17812.01
890.4279, 17800.94
890.9100, 17831.74
891.3922, 17828.16
891.8743, 17741.37
892.3564, 17668.41
892.8385, 17649.93
893.3206, 17649.35
893.8027, 17635.64
894.2849, 17611.09
894.7670, 17592.89
895.2491, 17588.93
895.7312, 17586.94
896.2133, 17582.55
896.6954, 17569.98
897.1776, 17530.49
897.6597, 17473.84
898.1418, 17436.26
898.6239, 17430.19
899.1060, 17440.06
899.5881, 17453.33
900.0703, 17466.01
900.5524, 17453.11
901.0345, 17412.48
901.5166, 17397.27
901.9987, 17425.30
902.4808, 17459.84
902.9630, 17474.97
903.4451, 17470.60
903.9272, 17442.47
904.4093, 17354.58
904.8914, 17318.71
905.3735, 17378.07
905.8557, 17442.40
906.3378, 17445.27
906.8199, 17443.81
907.3020, 17538.97
907.7841, 17753.63
908.2662, 17908.75
908.7484, 17944.41
909.2305, 17932.15
909.7126, 17878.24
910.1947, 17813.52
910.6768, 17765.78
911.1589, 17740.43
911.6411, 17736.96
912.1232, 17759.57
912.6053, 17793.51
913.0874, 17828.11
913.5695, 17861.84
914.0516, 17897.27
914.5338, 17930.42
915.0159, 17946.05
915.4980, 17937.03
915.9801, 17909.22
916.4622, 17859.77
916.9443, 17796.16
917.4265, 17775.01
917.9086, 17798.43
918.3907, 17815.66
918.8728, 17813.01
919.3549, 17795.42
919.8370, 17766.52
920.3192, 17727.30
920.8013, 17681.54
921.2834, 17610.92
921.7655, 17579.78
922.2476, 17630.64
922.7297, 17674.64
923.2119, 17666.03
923.6940, 17617.09
924.1761, 17535.64
924.6582, 17402.11
925.1403, 17324.39
925.6224, 17370.25
926.1046, 17412.34
926.5867, 17397.50
927.0688, 17350.01
927.5509, 17290.17
928.0330, 17225.51
928.5151, 17170.75
928.9973, 17138.47
929.4794, 17107.96
929.9615, 17059.02
930.4436, 17006.05
930.9257, 16966.97
931.4078, 16941.11
931.8900, 16922.35
932.3721, 16907.98
932.8542, 16889.48
933.3363, 16851.61
933.8184, 16803.68
934.3005, 16772.95
934.7827, 16756.66
935.2648, 16736.46
935.7469, 16707.29
936.2290, 16668.24
936.7111, 16615.17
937.1932, 16557.04
937.6754, 16534.16
938.1575, 16555.28
938.6396, 16532.83
939.1217, 16442.53
939.6038, 16357.90
940.0859, 16317.99
940.5681, 16308.58
941.0502, 16307.47
941.5323, 16319.66
942.0144, 16314.32
942.4965, 16279.76
942.9786, 16244.64
943.4608, 16207.52
943.9429, 16112.07
944.4250, 16131.40
944.9071, 16139.07
945.3892, 16135.71
945.8713, 16088.25
946.3535, 16097.72
946.8356, 16084.38
947.3177, 16070.10
947.7998, 16087.59
948.2819, 16046.54
948.7640, 16063.53
949.2462, 16057.35
949.7283, 16061.77
950.2104, 16043.23
950.6925, 16031.79
951.1746, 16065.80
951.6567, 16042.14
952.1389, 16041.85
952.6210, 16063.76
953.1031, 16076.48
953.5852, 16061.29
954.0673, 16031.44
954.5494, 15993.40
955.0316, 15957.19
955.5137, 15957.91
955.9958, 15990.63
956.4779, 16012.15
956.9600, 16006.56
957.4421, 15982.59
957.9243, 15946.10
958.4064, 15902.03
958.8885, 15874.92
959.3706, 15865.76
959.8527, 15854.91
960.3348, 15837.66
960.8170, 15826.45
961.2991, 15832.89
961.7812, 15845.39
962.2633, 15834.25
962.7454, 15789.49
963.2275, 15768.05
963.7097, 15788.09
964.1918, 15796.39
964.6739, 15770.45
965.1560, 15731.63
965.6381, 15696.57
966.1202, 15666.42
966.6024, 15652.80
967.0845, 15688.66
967.5666, 15692.43
968.0487, 15612.50
968.5308, 15544.37
969.0129, 15555.19
969.4951, 15607.33
969.9772, 15635.42
970.4593, 15627.48
970.9414, 15624.66
971.4235, 15641.93
971.9056, 15665.76
972.3878, 15705.50
972.8699, 15736.79
973.3520, 15714.65
973.8341, 15657.28
974.3162, 15642.66
974.7983, 15716.66
975.2805, 15791.31
975.7626, 15782.70
976.2447, 15750.89
976.7268, 15765.55
977.2089, 15816.66
977.6910, 15871.00
978.1732, 15919.29
978.6553, 15973.44
979.1374, 16052.41
979.6195, 16129.92
980.1016, 16151.81
980.5837, 16138.94
981.0659, 16154.46
981.5480, 16202.11
982.0301, 16243.29
982.5122, 16257.96
982.9943, 16266.96
983.4764, 16309.81
983.9586, 16375.30
984.4407, 16392.61
984.9228, 16362.55
985.4049, 16327.29
985.8870, 16296.86
986.3691, 16272.04
986.8513, 16257.05
987.3334, 16241.46
987.8155, 16186.59
988.2976, 16082.83
988.7797, 16007.07
989.2618, 15969.21
989.7440, 15937.55
990.2261, 15904.99
990.7082, 15861.27
991.1903, 15786.58
991.6724, 15682.38
992.1545, 15616.55
992.6367, 15621.32
993.1188, 15597.39
993.6009, 15504.00
994.0830, 15416.73
994.5651, 15391.57
995.0472, 15398.99
995.5294, 15374.84
996.0115, 15306.75
996.4936, 15261.85
996.9757, 15282.88
997.4578, 15275.41
997.9399, 15183.09
998.4221, 15078.16
998.9042, 15020.24
999.3863, 15003.54
999.8684, 14992.36
1000.351, 14978.71
1000.833, 14973.89
1001.315, 14995.74
1001.797, 15011.43
1002.279, 15000.19
1002.761, 14971.29
1003.243, 14932.57
1003.725, 14888.16
1004.207, 14855.11
1004.690, 14848.41
1005.172, 14843.65
1005.654, 14810.51
1006.136, 14785.14
1006.618, 14822.46
1007.100, 14894.36
1007.582, 14932.10
1008.064, 14914.89
1008.547, 14881.25
1009.029, 14853.15
1009.511, 14827.92
1009.993, 14809.76
1010.475, 14789.45
1010.957, 14738.19
1011.439, 14666.23
1011.921, 14626.83
1012.403, 14648.42
1012.886, 14692.18
1013.368, 14731.32
1013.850, 14755.07
1014.332, 14726.68
1014.814, 14666.58
1015.296, 14641.13
1015.778, 14663.83
1016.260, 14705.08
1016.742, 14748.78
1017.225, 14777.55
1017.707, 14736.69
1018.189, 14655.91
1018.671, 14661.75
1019.153, 14749.01
1019.635, 14797.74
1020.117, 14763.70
1020.599, 14714.41
1021.082, 14724.18
1021.564, 14768.56
1022.046, 14760.42
1022.528, 14704.26
1023.010, 14661.91
1023.492, 14641.12
1023.974, 14650.21
1024.456, 14697.93
1024.938, 14753.01
1025.421, 14766.86
1025.903, 14743.38
1026.385, 14733.23
1026.867, 14738.64
1027.349, 14733.34
1027.831, 14707.21
1028.313, 14695.64
1028.795, 14728.47
1029.278, 14780.17
1029.760, 14791.49
1030.242, 14756.56
1030.724, 14729.88
1031.206, 14711.00
1031.688, 14703.99
1032.170, 14716.35
1032.652, 14726.74
1033.135, 14715.75
1033.617, 14688.30
1034.099, 14660.93
1034.581, 14634.89
1035.063, 14662.10
1035.545, 14677.65
1036.027, 14682.17
1036.509, 14642.59
1036.991, 14659.94
1037.474, 14654.49
1037.956, 14648.09
1038.438, 14673.46
1038.920, 14640.30
1039.402, 14665.17
1039.884, 14666.87
1040.366, 14679.17
1040.848, 14668.52
1041.330, 14664.96
1041.813, 14684.36
1042.295, 14691.05
1042.777, 14677.75
1043.259, 14690.73
1043.741, 14656.76
1044.223, 14663.99
1044.705, 14689.00
1045.187, 14673.07
1045.670, 14720.07
1046.152, 14718.53
1046.634, 14658.99
1047.116, 14607.55
1047.598, 14554.84
1048.080, 14530.84
1048.562, 14561.81
1049.044, 14605.17
1049.526, 14641.41
1050.009, 14664.64
1050.491, 14658.21
1050.973, 14605.60
1051.455, 14590.22
1051.937, 14666.82
1052.419, 14729.90
1052.901, 14732.14
1053.383, 14713.69
1053.865, 14710.78
1054.348, 14718.55
1054.830, 14711.47
1055.312, 14674.80
1055.794, 14656.25
1056.276, 14683.04
1056.758, 14712.11
1057.240, 14716.35
1057.722, 14717.63
1058.205, 14753.28
1058.687, 14810.67
1059.169, 14824.92
1059.651, 14755.04
1060.133, 14701.81
1060.615, 14703.31
1061.097, 14723.55
1061.579, 14752.34
1062.062, 14780.81
1062.544, 14796.37
1063.026, 14801.07
1063.508, 14815.70
1063.990, 14860.57
1064.472, 14889.67
1064.954, 14874.43
1065.436, 14848.95
1065.918, 14830.48
1066.401, 14820.05
1066.883, 14813.55
1067.365, 14812.14
1067.847, 14829.05
1068.329, 14885.50
1068.811, 14936.10
1069.293, 14956.39
1069.775, 14967.74
1070.257, 14987.62
1070.740, 15009.79
1071.222, 15018.06
1071.704, 15011.56
1072.186, 15015.41
1072.668, 15044.52
1073.150, 15080.42
1073.632, 15130.03
1074.114, 15168.36
1074.597, 15152.25
1075.079, 15116.93
1075.561, 15134.85
1076.043, 15218.63
1076.525, 15292.74
1077.007, 15325.16
1077.489, 15338.70
1077.971, 15331.76
1078.453, 15322.56
1078.936, 15324.76
1079.418, 15338.54
1079.900, 15364.49
1080.382, 15402.63
1080.864, 15434.55
1081.346, 15442.26
1081.828, 15453.71
1082.310, 15480.26
1082.792, 15520.24
1083.275, 15587.95
1083.757, 15663.02
1084.239, 15693.14
1084.721, 15663.40
1085.203, 15661.93
1085.685, 15745.90
1086.167, 15844.90
1086.649, 15931.61
1087.131, 16006.92
1087.614, 16062.28
1088.096, 16110.52
1088.578, 16178.90
1089.060, 16274.65
1089.542, 16382.86
1090.024, 16523.12
1090.506, 16643.67
1090.988, 16710.66
1091.471, 16752.40
1091.953, 16795.96
1092.435, 16837.34
1092.917, 16856.53
1093.399, 16846.34
1093.881, 16838.94
1094.363, 16866.97
1094.845, 16874.64
1095.328, 16830.72
1095.810, 16757.93
1096.292, 16689.02
1096.774, 16607.06
1097.256, 16458.07
1097.738, 16219.27
1098.220, 15997.67
1098.702, 15831.57
1099.184, 15685.71
1099.667, 15568.50
1100.149, 15445.60
1100.631, 15266.61
1101.113, 15062.26
1101.595, 14913.12
1102.077, 14840.46
1102.559, 14779.65
1103.041, 14734.99
1103.523, 14672.46
1104.006, 14555.50
1104.488, 14436.52
1104.970, 14364.04
1105.452, 14323.79
1105.934, 14273.28
1106.416, 14201.18
1106.898, 14087.22
1107.380, 14111.49
1107.863, 14112.38
1108.345, 14091.25
1108.827, 13981.94
1109.309, 13986.51
1109.791, 13945.43
1110.273, 13902.49
1110.755, 13923.07
1111.237, 13826.58
1111.719, 13846.17
1112.202, 13819.35
1112.684, 13817.03
1113.166, 13819.71
1113.648, 13838.22
1114.130, 13859.71
1114.612, 13851.59
1115.094, 13802.79
1115.576, 13774.61
1116.058, 13800.63
1116.541, 13794.88
1117.023, 13703.44
1117.505, 13624.24
1117.987, 13627.81
1118.469, 13680.27
1118.951, 13718.83
1119.433, 13744.79
1119.915, 13745.93
1120.398, 13707.04
1120.880, 13675.42
1121.362, 13663.44
1121.844, 13650.95
1122.326, 13617.40
1122.808, 13585.35
1123.290, 13601.12
1123.772, 13668.55
1124.255, 13699.04
1124.737, 13683.58
1125.219, 13656.99
1125.701, 13617.57
1126.183, 13585.90
1126.665, 13574.07
1127.147, 13575.09
1127.629, 13580.11
1128.111, 13588.50
1128.594, 13585.85
1129.076, 13568.48
1129.558, 13569.53
1130.040, 13600.25
1130.522, 13605.85
1131.004, 13552.78
1131.486, 13489.40
1131.968, 13483.83
1132.450, 13522.30
1132.933, 13520.50
1133.415, 13478.91
1133.897, 13482.91
1134.379, 13542.62
1134.861, 13600.34
1135.343, 13632.58
1135.825, 13632.29
1136.307, 13580.12
1136.790, 13507.55
1137.272, 13523.41
1137.754, 13605.75
1138.236, 13617.30
1138.718, 13557.32
1139.200, 13523.58
1139.682, 13549.50
1140.164, 13589.59
1140.646, 13607.60
1141.129, 13603.54
1141.611, 13565.99
1142.093, 13510.13
1142.575, 13471.85
1143.057, 13452.83
1143.539, 13453.01
1144.021, 13469.37
1144.503, 13484.39
1144.985, 13486.21
1145.468, 13479.58
1145.950, 13470.16
1146.432, 13455.86
1146.914, 13422.09
1147.396, 13384.89
1147.878, 13387.14
1148.360, 13426.72
1148.842, 13450.03
1149.325, 13424.67
1149.807, 13398.03
1150.289, 13408.55
1150.771, 13433.86
1151.253, 13469.35
1151.735, 13496.17
1152.217, 13478.77
1152.699, 13428.06
1153.182, 13393.61
1153.664, 13393.37
1154.146, 13402.30
1154.628, 13412.83
1155.110, 13423.96
1155.592, 13437.70
1156.074, 13449.49
1156.556, 13456.58
1157.038, 13457.44
1157.521, 13445.84
1158.003, 13416.51
1158.485, 13403.62
1158.967, 13310.46
1159.449, 13376.45
1159.931, 13416.34
1160.413, 13431.40
1160.895, 13355.50
1161.377, 13390.72
1161.860, 13377.53
1162.342, 13359.70
1162.824, 13402.64
1163.306, 13325.75
1163.788, 13362.15
1164.270, 13349.46
1164.752, 13355.21
1165.234, 13312.28
1165.717, 13280.71
1166.199, 13292.36
1166.681, 13357.94
1167.163, 13391.85
1167.645, 13430.78
1168.127, 13427.30
1168.609, 13366.31
1169.091, 13316.38
1169.573, 13302.70
1170.056, 13311.83
1170.538, 13336.85
1171.020, 13362.84
1171.502, 13332.08
1171.984, 13250.52
1172.466, 13230.12
1172.948, 13271.87
1173.430, 13303.58
1173.912, 13306.39
1174.395, 13303.55
1174.877, 13310.43
1175.359, 13326.37
1175.841, 13363.01
1176.323, 13402.98
1176.805, 13387.36
1177.287, 13337.08
1177.769, 13325.62
1178.252, 13355.18
1178.734, 13368.97
1179.216, 13339.93
1179.698, 13304.44
1180.180, 13294.98
1180.662, 13298.61
1181.144, 13309.28
1181.626, 13317.83
1182.109, 13300.61
1182.591, 13272.28
1183.073, 13277.07
1183.555, 13324.42
1184.037, 13363.50
1184.519, 13366.85
1185.001, 13356.37
1185.483, 13336.60
1185.965, 13313.98
1186.448, 13294.48
1186.930, 13274.61
1187.412, 13242.54
1187.894, 13201.04
1188.376, 13181.45
1188.858, 13209.96
1189.340, 13222.90
1189.822, 13196.18
1190.304, 13172.26
1190.787, 13165.25
1191.269, 13169.70
1191.751, 13185.06
1192.233, 13207.42
1192.715, 13226.15
1193.197, 13247.40
1193.679, 13232.15
1194.161, 13156.17
1194.644, 13120.36
1195.126, 13157.78
1195.608, 13202.49
1196.090, 13214.15
1196.572, 13206.77
1197.054, 13202.87
1197.536, 13201.76
1198.018, 13197.78
1198.500, 13191.03
1198.983, 13180.19
1199.465, 13165.89
1199.947, 13166.49
1200.429, 13189.47
1200.911, 13208.98
1201.393, 13198.75
1201.875, 13170.75
1202.357, 13135.07
1202.839, 13103.58
1203.322, 13113.77
1203.804, 13150.25
1204.286, 13165.11
1204.768, 13149.69
1205.250, 13126.61
1205.732, 13106.23
1206.214, 13090.80
1206.696, 13077.07
1207.179, 13074.17
1207.661, 13103.01
1208.143, 13138.52
1208.625, 13146.21
1209.107, 13132.01
1209.589, 13127.44
1210.071, 13144.05
1210.553, 13134.53
1211.036, 13045.65
1211.518, 12984.45
1212.000, 13011.93
1212.482, 13046.72
1212.964, 13029.40
1213.446, 12990.58
1213.928, 12981.91
1214.410, 13001.36
1214.892, 13001.44
1215.375, 12966.40
1215.857, 12956.21
1216.339, 12981.83
1216.821, 13011.51
1217.303, 13040.53
1217.785, 13048.16
1218.267, 13010.18
1218.749, 12949.63
1219.231, 12925.01
1219.714, 12934.10
1220.196, 12948.11
1220.678, 12965.49
1221.160, 12969.75
1221.642, 12959.17
1222.124, 12950.66
1222.606, 12953.11
1223.088, 12962.70
1223.571, 12980.87
1224.053, 12997.82
1224.535, 12999.38
1225.017, 12987.86
1225.499, 12955.42
1225.981, 12916.26
1226.463, 12911.97
1226.945, 12946.42
1227.427, 12963.58
1227.910, 12920.09
1228.392, 12885.81
1228.874, 12917.86
1229.356, 12949.64
1229.838, 12925.51
1230.320, 12885.47
1230.802, 12876.53
1231.284, 12903.16
1231.766, 12918.13
1232.249, 12922.07
1232.731, 12881.91
1233.213, 12898.69
1233.695, 12892.66
1234.177, 12885.68
1234.659, 12910.47
1235.141, 12876.73
1235.623, 12901.02
1236.106, 12902.14
1236.588, 12913.87
1237.070, 12902.64
1237.552, 12898.50
1238.034, 12917.32
1238.516, 12891.58
1238.998, 12901.56
1239.480, 12895.75
1239.963, 12879.02
1240.445, 12853.07
1240.927, 12828.99
1241.409, 12819.77
1241.891, 12826.18
1242.373, 12869.55
1242.855, 12921.05
1243.337, 12911.84
1243.819, 12853.23
1244.302, 12813.85
1244.784, 12817.03
1245.266, 12814.49
1245.748, 12763.29
1246.230, 12719.67
1246.712, 12715.85
1247.194, 12726.85
1247.676, 12739.52
1248.158, 12751.67
1248.641, 12764.10
1249.123, 12775.62
1249.605, 12777.75
1250.087, 12771.42
1250.569, 12750.27
1251.051, 12694.56
1251.533, 12669.78
1252.015, 12706.75
1252.498, 12739.32
1252.980, 12719.96
1253.462, 12680.57
1253.944, 12673.90
1254.426, 12695.80
1254.908, 12729.76
1255.390, 12771.08
1255.872, 12766.32
1256.354, 12717.28
1256.837, 12675.80
1257.319, 12659.95
1257.801, 12667.81
1258.283, 12706.57
1258.765, 12736.89
1259.247, 12705.36
1259.729, 12647.43
1260.211, 12585.94
1260.693, 12540.18
1261.176, 12549.66
1261.658, 12597.58
1262.140, 12624.42
1262.622, 12613.25
1263.104, 12606.06
1263.586, 12620.29
1264.068, 12633.85
1264.550, 12630.70
1265.033, 12637.55
1265.515, 12686.83
1265.997, 12735.65
1266.479, 12730.87
1266.961, 12686.52
1267.443, 12662.86
1267.925, 12659.42
##END=



