##NAMES=Clintonite
##RRUFFID=R070229
##IDEAL CHEMISTRY=CaAlMg_2_(SiAl_3_)O_10_(OH)_2_
##LOCALITY=Amity, Warwick Township, Orange County, New York, USA
##OWNER=RRUFF
##SOURCE=Michael Scott
##DESCRIPTION=Brown micaceous plates in dolomite. Polytype 1M, variety called seybertite
##STATUS=The identification of this mineral has been confirmed by X-ray diffraction and chemical analysis
##URL=rruff.info/R070229
##MEASURED CHEMISTRY=(Ca_0.98_Na_0.02_)_Σ=1_(Al_0.68_Mg_0.20_Fe^3+^_0.11_Ti_0.01_)_Σ=1_Mg_2.00_(Si_1.34_Al_2.66_)_Σ=4_O_10_((OH)_1.87_O_0.13_)_Σ=2_; OH estimated by charge balance
140.5016, 1470.525
140.9837, 1472.516
141.4658, 1477.209
141.9480, 1485.334
142.4301, 1497.836
142.9122, 1516.892
143.3943, 1535.611
143.8764, 1553.095
144.3585, 1569.240
144.8407, 1586.521
145.3228, 1605.595
145.8049, 1625.195
146.2870, 1644.041
146.7691, 1662.058
147.2512, 1679.050
147.7334, 1693.241
148.2155, 1702.572
148.6976, 1719.139
149.1797, 1750.126
149.6618, 1786.357
150.1439, 1815.445
150.6261, 1826.352
151.1082, 1839.688
151.5903, 1861.301
152.0724, 1895.811
152.5545, 1928.400
153.0366, 1959.640
153.5188, 1988.048
154.0009, 2010.623
154.4830, 2023.473
154.9651, 2033.199
155.4472, 2043.025
155.9293, 2055.755
156.4115, 2065.020
156.8936, 2066.022
157.3757, 2061.685
157.8578, 2062.130
158.3399, 2072.884
158.8221, 2087.850
159.3042, 2103.186
159.7863, 2123.220
160.2684, 2138.352
160.7505, 2143.721
161.2326, 2140.334
161.7148, 2135.528
162.1969, 2128.435
162.6790, 2122.918
163.1611, 2122.762
163.6432, 2136.070
164.1253, 2149.560
164.6075, 2154.594
165.0896, 2150.808
165.5717, 2148.604
166.0538, 2155.414
166.5359, 2167.192
167.0180, 2178.135
167.5002, 2184.698
167.9823, 2190.323
168.4644, 2197.157
168.9465, 2205.235
169.4286, 2215.396
169.9107, 2231.160
170.3929, 2249.533
170.8750, 2264.615
171.3571, 2268.586
171.8392, 2269.636
172.3213, 2277.910
172.8034, 2296.724
173.2856, 2315.710
173.7677, 2326.053
174.2498, 2328.701
174.7319, 2326.804
175.2140, 2317.521
175.6961, 2306.001
176.1783, 2300.462
176.6604, 2303.488
177.1425, 2311.045
177.6246, 2322.138
178.1067, 2335.434
178.5888, 2342.945
179.0710, 2329.840
179.5531, 2306.587
180.0352, 2298.047
180.5173, 2316.412
180.9994, 2345.904
181.4815, 2359.010
181.9637, 2356.320
182.4458, 2352.658
182.9279, 2365.191
183.4100, 2388.598
183.8921, 2402.598
184.3742, 2397.463
184.8564, 2380.960
185.3385, 2369.884
185.8206, 2364.170
186.3027, 2363.508
186.7848, 2370.204
187.2669, 2383.153
187.7491, 2394.145
188.2312, 2399.815
188.7133, 2401.269
189.1954, 2403.440
189.6775, 2406.980
190.1596, 2408.203
190.6418, 2399.975
191.1239, 2382.626
191.6060, 2368.264
192.0881, 2364.757
192.5702, 2370.282
193.0524, 2367.241
193.5345, 2353.400
194.0166, 2336.830
194.4987, 2331.935
194.9808, 2339.599
195.4629, 2345.568
195.9451, 2342.470
196.4272, 2330.448
196.9093, 2318.133
197.3914, 2305.480
197.8735, 2293.026
198.3556, 2280.031
198.8378, 2265.469
199.3199, 2256.965
199.8020, 2263.998
200.2841, 2288.499
200.7662, 2296.747
201.2483, 2281.484
201.7305, 2253.787
202.2126, 2243.134
202.6947, 2254.121
203.1768, 2264.999
203.6589, 2260.565
204.1410, 2238.005
204.6232, 2220.506
205.1053, 2210.770
205.5874, 2207.108
206.0695, 2202.512
206.5516, 2194.250
207.0337, 2192.240
207.5159, 2208.655
207.9980, 2250.536
208.4801, 2274.701
208.9622, 2270.344
209.4443, 2244.335
209.9264, 2230.667
210.4086, 2232.420
210.8907, 2240.363
211.3728, 2247.896
211.8549, 2255.000
212.3370, 2261.934
212.8191, 2268.606
213.3013, 2275.075
213.7834, 2281.853
214.2655, 2287.614
214.7476, 2295.873
215.2297, 2310.865
215.7118, 2336.590
216.1940, 2358.055
216.6761, 2370.747
217.1582, 2375.329
217.6403, 2386.335
218.1224, 2407.435
218.6045, 2429.884
219.0867, 2443.305
219.5688, 2439.875
220.0509, 2445.981
220.5330, 2468.772
221.0151, 2508.911
221.4972, 2547.330
221.9794, 2582.856
222.4615, 2618.333
222.9436, 2656.949
223.4257, 2698.312
223.9078, 2744.565
224.3899, 2797.767
224.8721, 2859.747
225.3542, 2912.708
225.8363, 2950.607
226.3184, 2985.639
226.8005, 3034.286
227.2827, 3104.468
227.7648, 3172.530
228.2469, 3231.705
228.7290, 3280.222
229.2111, 3332.411
229.6932, 3391.200
230.1754, 3450.666
230.6575, 3506.045
231.1396, 3565.984
231.6217, 3605.630
232.1038, 3617.451
232.5859, 3599.236
233.0681, 3564.501
233.5502, 3510.861
234.0323, 3442.726
234.5144, 3364.981
234.9965, 3276.858
235.4786, 3180.909
235.9608, 3073.928
236.4429, 2951.792
236.9250, 2844.990
237.4071, 2762.058
237.8892, 2689.937
238.3713, 2605.876
238.8535, 2495.443
239.3356, 2397.294
239.8177, 2325.382
240.2998, 2285.822
240.7819, 2248.813
241.2640, 2213.443
241.7462, 2180.556
242.2283, 2151.264
242.7104, 2125.491
243.1925, 2103.449
243.6746, 2085.313
244.1567, 2071.300
244.6389, 2060.776
245.1210, 2056.240
245.6031, 2053.726
246.0852, 2045.490
246.5673, 2026.769
247.0494, 2010.476
247.5316, 2001.967
248.0137, 2004.389
248.4958, 2003.991
248.9779, 2000.388
249.4600, 1994.169
249.9421, 1985.989
250.4243, 1973.705
250.9064, 1963.225
251.3885, 1957.625
251.8706, 1959.708
252.3527, 1956.690
252.8348, 1945.583
253.3170, 1931.250
253.7991, 1923.721
254.2812, 1927.126
254.7633, 1929.523
255.2454, 1925.011
255.7275, 1909.624
256.2097, 1902.950
256.6918, 1909.107
257.1739, 1921.218
257.6560, 1925.839
258.1381, 1918.799
258.6202, 1912.896
259.1024, 1913.592
259.5845, 1922.979
260.0666, 1930.153
260.5487, 1934.353
261.0308, 1936.899
261.5129, 1940.134
261.9951, 1943.703
262.4772, 1948.756
262.9593, 1956.128
263.4414, 1966.625
263.9235, 1976.404
264.4056, 1987.080
264.8878, 1995.616
265.3699, 1994.848
265.8520, 1980.088
266.3341, 1969.442
266.8162, 1972.089
267.2983, 1991.179
267.7805, 2002.914
268.2626, 2005.581
268.7447, 2002.647
269.2268, 1998.994
269.7089, 1993.694
270.1910, 1991.002
270.6732, 1992.950
271.1553, 1999.935
271.6374, 2007.950
272.1195, 2017.275
272.6016, 2027.239
273.0837, 2037.514
273.5659, 2049.046
274.0480, 2056.325
274.5301, 2055.137
275.0122, 2045.011
275.4943, 2041.064
275.9764, 2045.028
276.4586, 2051.915
276.9407, 2052.867
277.4228, 2046.748
277.9049, 2044.459
278.3870, 2053.114
278.8691, 2071.917
279.3513, 2081.881
279.8334, 2081.692
280.3155, 2076.045
280.7976, 2068.885
281.2798, 2059.992
281.7619, 2056.060
282.2440, 2060.609
282.7261, 2072.771
283.2082, 2087.562
283.6903, 2106.228
284.1725, 2122.932
284.6546, 2127.619
285.1367, 2120.813
285.6188, 2117.456
286.1009, 2124.554
286.5830, 2139.542
287.0652, 2150.580
287.5473, 2156.793
288.0294, 2163.682
288.5115, 2180.938
288.9936, 2206.712
289.4757, 2224.851
289.9579, 2225.515
290.4400, 2215.864
290.9221, 2215.822
291.4042, 2225.795
291.8863, 2240.319
292.3684, 2256.954
292.8506, 2274.401
293.3327, 2286.918
293.8148, 2288.925
294.2969, 2287.139
294.7790, 2297.779
295.2611, 2320.919
295.7433, 2342.015
296.2254, 2344.888
296.7075, 2335.427
297.1896, 2329.756
297.6717, 2331.103
298.1538, 2339.717
298.6360, 2358.563
299.1181, 2387.083
299.6002, 2416.642
300.0823, 2441.882
300.5644, 2463.594
301.0465, 2483.759
301.5287, 2504.070
302.0108, 2521.554
302.4929, 2527.450
302.9750, 2524.580
303.4571, 2528.755
303.9392, 2559.780
304.4214, 2601.563
304.9035, 2632.561
305.3856, 2643.632
305.8677, 2647.962
306.3498, 2656.197
306.8319, 2666.970
307.3141, 2675.617
307.7962, 2674.008
308.2783, 2671.324
308.7604, 2677.379
309.2425, 2696.785
309.7246, 2719.119
310.2068, 2738.420
310.6889, 2755.602
311.1710, 2773.253
311.6531, 2791.952
312.1352, 2812.036
312.6173, 2833.965
313.0995, 2858.244
313.5816, 2882.366
314.0637, 2905.590
314.5458, 2927.927
315.0279, 2949.598
315.5100, 2969.496
315.9922, 2989.646
316.4743, 3010.994
316.9564, 3033.596
317.4385, 3057.612
317.9206, 3082.575
318.4027, 3109.101
318.8849, 3138.051
319.3670, 3176.365
319.8491, 3211.241
320.3312, 3235.587
320.8133, 3246.506
321.2954, 3262.121
321.7776, 3292.541
322.2597, 3326.965
322.7418, 3353.882
323.2239, 3361.797
323.7060, 3371.877
324.1881, 3391.580
324.6703, 3422.394
325.1524, 3446.301
325.6345, 3452.531
326.1166, 3456.172
326.5987, 3469.413
327.0808, 3497.385
327.5630, 3529.055
328.0451, 3566.120
328.5272, 3608.049
329.0093, 3643.527
329.4914, 3670.850
329.9735, 3692.514
330.4557, 3709.221
330.9378, 3715.608
331.4199, 3726.367
331.9020, 3742.651
332.3841, 3764.219
332.8662, 3791.268
333.3484, 3829.257
333.8305, 3864.048
334.3126, 3886.790
334.7947, 3892.022
335.2768, 3901.475
335.7589, 3917.197
336.2411, 3937.161
336.7232, 3956.330
337.2053, 3973.470
337.6874, 3993.046
338.1695, 4019.248
338.6516, 4053.274
339.1338, 4080.825
339.6159, 4099.775
340.0980, 4114.810
340.5801, 4134.632
341.0622, 4160.423
341.5443, 4182.092
342.0265, 4193.387
342.5086, 4195.739
342.9907, 4205.861
343.4728, 4225.979
343.9549, 4244.787
344.4370, 4245.137
344.9192, 4228.953
345.4013, 4214.554
345.8834, 4210.931
346.3655, 4213.122
346.8476, 4206.497
347.3297, 4190.769
347.8119, 4175.406
348.2940, 4173.730
348.7761, 4180.234
349.2582, 4177.664
349.7403, 4155.333
350.2225, 4127.574
350.7046, 4116.639
351.1867, 4120.575
351.6688, 4125.072
352.1509, 4120.681
352.6331, 4110.037
353.1152, 4096.505
353.5973, 4079.329
354.0794, 4062.285
354.5615, 4051.332
355.0436, 4043.839
355.5258, 4031.804
356.0079, 4007.846
356.4900, 3979.075
356.9721, 3950.489
357.4542, 3921.535
357.9363, 3897.251
358.4185, 3884.277
358.9006, 3877.488
359.3827, 3868.015
359.8648, 3846.423
360.3469, 3825.998
360.8290, 3816.839
361.3112, 3822.311
361.7933, 3819.945
362.2754, 3794.650
362.7575, 3760.807
363.2396, 3733.935
363.7217, 3728.871
364.2039, 3720.132
364.6860, 3696.422
365.1681, 3657.313
365.6502, 3629.640
366.1323, 3625.430
366.6144, 3627.912
367.0966, 3625.562
367.5787, 3615.207
368.0608, 3603.362
368.5429, 3587.791
369.0250, 3570.157
369.5071, 3559.545
369.9893, 3560.194
370.4714, 3562.928
370.9535, 3562.742
371.4356, 3555.316
371.9177, 3555.510
372.3998, 3567.736
372.8820, 3585.565
373.3641, 3594.179
373.8462, 3590.958
374.3283, 3585.198
374.8104, 3578.372
375.2925, 3569.497
375.7747, 3572.409
376.2568, 3590.695
376.7389, 3613.703
377.2210, 3626.500
377.7031, 3628.441
378.1852, 3629.507
378.6674, 3633.279
379.1495, 3638.608
379.6316, 3638.634
380.1137, 3632.448
380.5958, 3629.198
381.0779, 3641.264
381.5601, 3665.230
382.0422, 3683.358
382.5243, 3691.739
383.0064, 3692.827
383.4885, 3686.495
383.9706, 3674.195
384.4528, 3667.053
384.9349, 3676.373
385.4170, 3694.815
385.8991, 3710.790
386.3812, 3722.818
386.8633, 3731.937
387.3455, 3739.079
387.8276, 3744.083
388.3097, 3746.659
388.7918, 3738.582
389.2739, 3733.165
389.7560, 3743.041
390.2382, 3770.214
390.7203, 3800.047
391.2024, 3830.212
391.6845, 3856.728
392.1666, 3875.335
392.6487, 3872.759
393.1309, 3872.890
393.6130, 3889.969
394.0951, 3922.033
394.5772, 3944.489
395.0593, 3941.480
395.5414, 3932.996
396.0236, 3931.558
396.5057, 3949.241
396.9878, 3961.764
397.4699, 3966.649
397.9520, 3964.674
398.4341, 3958.104
398.9163, 3938.464
399.3984, 3923.084
399.8805, 3920.029
400.3626, 3936.850
400.8447, 3943.485
401.3268, 3937.698
401.8090, 3923.353
402.2911, 3904.435
402.7732, 3878.448
403.2553, 3854.914
403.7374, 3836.650
404.2195, 3823.426
404.7017, 3811.175
405.1838, 3799.924
405.6659, 3789.460
406.1480, 3782.774
406.6301, 3780.089
407.1122, 3764.396
407.5944, 3727.450
408.0765, 3680.995
408.5586, 3655.256
409.0407, 3649.762
409.5228, 3647.433
410.0049, 3638.819
410.4871, 3624.775
410.9692, 3606.320
411.4513, 3582.443
411.9334, 3558.430
412.4155, 3539.517
412.8976, 3524.916
413.3798, 3512.977
413.8619, 3508.147
414.3440, 3502.309
414.8261, 3486.248
415.3082, 3459.687
415.7903, 3429.059
416.2725, 3389.877
416.7546, 3352.008
417.2367, 3326.252
417.7188, 3328.651
418.2009, 3330.659
418.6830, 3316.167
419.1652, 3289.692
419.6473, 3268.363
420.1294, 3259.532
420.6115, 3255.969
421.0937, 3254.590
421.5758, 3258.293
422.0579, 3257.087
422.5400, 3246.752
423.0221, 3231.360
423.5042, 3217.271
423.9864, 3202.171
424.4685, 3191.427
424.9506, 3187.759
425.4327, 3192.038
425.9148, 3193.164
426.3969, 3192.563
426.8791, 3187.204
427.3612, 3172.598
427.8433, 3143.862
428.3254, 3120.955
428.8075, 3105.648
429.2896, 3098.569
429.7718, 3105.948
430.2539, 3131.295
430.7360, 3152.646
431.2181, 3153.976
431.7002, 3136.833
432.1823, 3123.758
432.6645, 3116.109
433.1466, 3111.685
433.6287, 3108.980
434.1108, 3107.465
434.5929, 3104.388
435.0750, 3097.581
435.5572, 3088.979
436.0393, 3081.910
436.5214, 3076.327
437.0035, 3071.203
437.4856, 3068.683
437.9677, 3065.318
438.4499, 3055.462
438.9320, 3033.682
439.4141, 3011.901
439.8962, 3003.071
440.3783, 3001.343
440.8604, 2991.363
441.3426, 2955.702
441.8247, 2918.086
442.3068, 2891.741
442.7889, 2879.280
443.2710, 2872.510
443.7531, 2874.577
444.2353, 2879.171
444.7174, 2879.343
445.1995, 2870.635
445.6816, 2861.256
446.1637, 2853.243
446.6458, 2846.302
447.1280, 2835.853
447.6101, 2817.776
448.0922, 2800.685
448.5743, 2789.738
449.0564, 2787.178
449.5385, 2784.805
450.0207, 2783.087
450.5028, 2780.855
450.9849, 2775.289
451.4670, 2765.679
451.9491, 2756.480
452.4312, 2748.266
452.9134, 2741.582
453.3955, 2742.609
453.8776, 2752.618
454.3597, 2761.277
454.8418, 2755.516
455.3239, 2738.883
455.8061, 2727.055
456.2882, 2725.912
456.7703, 2727.244
457.2524, 2716.627
457.7345, 2697.243
458.2166, 2681.863
458.6988, 2681.369
459.1809, 2687.357
459.6630, 2692.247
460.1451, 2695.778
460.6272, 2694.556
461.1093, 2679.778
461.5915, 2661.047
462.0736, 2650.628
462.5557, 2667.796
463.0378, 2679.027
463.5199, 2662.262
464.0020, 2623.071
464.4842, 2603.256
464.9663, 2633.379
465.4484, 2669.123
465.9305, 2686.867
466.4126, 2674.004
466.8947, 2664.037
467.3769, 2658.392
467.8590, 2655.039
468.3411, 2651.189
468.8232, 2648.925
469.3053, 2641.552
469.7874, 2624.428
470.2696, 2598.572
470.7517, 2583.618
471.2338, 2581.440
471.7159, 2584.424
472.1980, 2587.694
472.6801, 2591.182
473.1623, 2591.987
473.6444, 2589.838
474.1265, 2584.612
474.6086, 2574.841
475.0907, 2561.138
475.5728, 2547.461
476.0550, 2535.717
476.5371, 2525.353
477.0192, 2515.498
477.5013, 2506.061
477.9834, 2497.876
478.4655, 2491.075
478.9477, 2486.056
479.4298, 2483.705
479.9119, 2488.059
480.3940, 2490.314
480.8761, 2479.707
481.3582, 2462.501
481.8404, 2456.933
482.3225, 2487.552
482.8046, 2515.813
483.2867, 2521.522
483.7688, 2494.330
484.2509, 2474.646
484.7331, 2465.765
485.2152, 2466.067
485.6973, 2475.328
486.1794, 2504.050
486.6615, 2523.474
487.1436, 2526.987
487.6258, 2518.108
488.1079, 2512.363
488.5900, 2508.730
489.0721, 2511.256
489.5542, 2525.616
490.0363, 2552.035
490.5185, 2569.419
491.0006, 2576.028
491.4827, 2577.119
491.9648, 2579.350
492.4470, 2582.075
492.9291, 2581.161
493.4112, 2571.798
493.8933, 2561.007
494.3754, 2560.911
494.8575, 2570.225
495.3397, 2580.859
495.8218, 2587.847
496.3039, 2593.331
496.7860, 2600.018
497.2681, 2609.166
497.7502, 2616.536
498.2324, 2618.990
498.7145, 2618.610
499.1966, 2618.274
499.6787, 2613.981
500.1608, 2614.739
500.6429, 2626.708
501.1251, 2648.899
501.6072, 2665.206
502.0893, 2672.406
502.5714, 2675.578
503.0535, 2676.594
503.5356, 2673.649
504.0178, 2673.030
504.4999, 2675.878
504.9820, 2680.021
505.4641, 2681.203
505.9462, 2678.082
506.4283, 2679.192
506.9105, 2688.592
507.3926, 2703.725
507.8747, 2715.372
508.3568, 2723.606
508.8389, 2727.358
509.3210, 2721.803
509.8032, 2711.242
510.2853, 2709.384
510.7674, 2720.059
511.2495, 2730.340
511.7316, 2723.954
512.2137, 2707.492
512.6959, 2694.490
513.1780, 2694.851
513.6601, 2696.893
514.1422, 2690.384
514.6243, 2677.185
515.1064, 2670.385
515.5886, 2678.156
516.0707, 2691.806
516.5528, 2707.223
517.0349, 2729.404
517.5170, 2742.046
517.9991, 2732.809
518.4813, 2717.311
518.9634, 2715.895
519.4455, 2738.181
519.9276, 2758.150
520.4097, 2770.941
520.8918, 2777.023
521.3740, 2779.965
521.8561, 2778.689
522.3382, 2777.839
522.8203, 2781.934
523.3024, 2790.416
523.7845, 2793.664
524.2667, 2790.463
524.7488, 2784.616
525.2309, 2778.874
525.7130, 2773.977
526.1951, 2772.546
526.6772, 2775.575
527.1594, 2782.398
527.6415, 2795.232
528.1236, 2812.200
528.6057, 2825.315
529.0878, 2828.387
529.5699, 2826.781
530.0521, 2823.663
530.5342, 2818.797
531.0163, 2815.340
531.4984, 2811.972
531.9805, 2811.482
532.4626, 2816.786
532.9448, 2833.647
533.4269, 2849.991
533.9090, 2864.774
534.3911, 2878.094
534.8732, 2889.158
535.3553, 2895.419
535.8375, 2904.629
536.3196, 2922.823
536.8017, 2951.239
537.2838, 2964.427
537.7659, 2958.312
538.2480, 2950.827
538.7302, 2964.200
539.2123, 2995.344
539.6944, 3022.302
540.1765, 3040.438
540.6586, 3052.144
541.1407, 3059.696
541.6229, 3063.687
542.1050, 3066.403
542.5871, 3065.458
543.0692, 3066.153
543.5513, 3074.774
544.0334, 3091.493
544.5156, 3107.711
544.9977, 3120.912
545.4798, 3131.087
545.9619, 3138.003
546.4440, 3140.528
546.9261, 3141.430
547.4083, 3141.434
547.8904, 3139.924
548.3725, 3135.645
548.8546, 3126.422
549.3367, 3117.908
549.8188, 3111.222
550.3010, 3106.363
550.7831, 3104.847
551.2652, 3108.814
551.7473, 3108.958
552.2294, 3094.000
552.7115, 3066.307
553.1937, 3052.911
553.6758, 3058.675
554.1579, 3067.426
554.6400, 3054.095
555.1221, 3026.916
555.6042, 3010.074
556.0864, 3019.238
556.5685, 3035.072
557.0506, 3041.683
557.5327, 3039.851
558.0148, 3032.208
558.4969, 3013.190
558.9791, 2993.866
559.4612, 2981.960
559.9433, 2979.958
560.4254, 2976.687
560.9075, 2972.854
561.3896, 2965.264
561.8718, 2950.612
562.3539, 2919.609
562.8360, 2897.878
563.3181, 2891.625
563.8002, 2893.902
564.2823, 2887.629
564.7645, 2871.469
565.2466, 2852.617
565.7287, 2830.666
566.2108, 2808.171
566.6929, 2803.348
567.1750, 2817.192
567.6572, 2827.000
568.1393, 2805.232
568.6214, 2767.085
569.1035, 2744.901
569.5856, 2746.086
570.0677, 2752.978
570.5499, 2752.380
571.0320, 2747.478
571.5141, 2743.324
571.9962, 2746.354
572.4783, 2745.926
572.9604, 2735.267
573.4426, 2716.539
573.9247, 2700.752
574.4068, 2687.379
574.8889, 2679.734
575.3710, 2681.336
575.8531, 2695.603
576.3353, 2700.651
576.8174, 2693.525
577.2995, 2681.491
577.7816, 2670.734
578.2637, 2661.349
578.7458, 2652.377
579.2280, 2642.893
579.7101, 2635.204
580.1922, 2637.361
580.6743, 2646.849
581.1564, 2649.461
581.6385, 2630.195
582.1207, 2604.831
582.6028, 2597.198
583.0849, 2604.989
583.5670, 2609.600
584.0491, 2595.664
584.5313, 2576.982
585.0134, 2565.085
585.4955, 2564.722
585.9776, 2561.336
586.4597, 2548.191
586.9418, 2531.418
587.4240, 2517.796
587.9061, 2503.478
588.3882, 2498.781
588.8703, 2508.767
589.3524, 2528.008
589.8345, 2540.398
590.3167, 2544.645
590.7988, 2547.135
591.2809, 2551.876
591.7630, 2557.322
592.2451, 2551.898
592.7272, 2535.031
593.2094, 2521.299
593.6915, 2529.774
594.1736, 2548.605
594.6557, 2552.388
595.1378, 2533.084
595.6199, 2515.340
596.1021, 2517.116
596.5842, 2532.263
597.0663, 2552.097
597.5485, 2584.358
598.0306, 2609.319
598.5127, 2617.730
598.9948, 2612.759
599.4769, 2608.422
599.9590, 2603.645
600.4412, 2602.081
600.9233, 2606.419
601.4054, 2617.404
601.8875, 2623.669
602.3696, 2626.281
602.8517, 2621.350
603.3339, 2598.585
603.8160, 2560.302
604.2981, 2542.614
604.7802, 2552.819
605.2623, 2573.200
605.7444, 2582.622
606.2266, 2584.004
606.7087, 2584.806
607.1908, 2589.000
607.6729, 2592.517
608.1550, 2591.556
608.6371, 2587.156
609.1193, 2582.655
609.6014, 2574.630
610.0835, 2570.959
610.5656, 2577.369
611.0477, 2595.880
611.5298, 2611.076
612.0120, 2623.658
612.4941, 2631.505
612.9762, 2632.216
613.4583, 2623.440
613.9404, 2614.988
614.4225, 2605.113
614.9047, 2599.534
615.3868, 2611.128
615.8689, 2638.215
616.3510, 2656.282
616.8331, 2653.646
617.3152, 2644.277
617.7974, 2653.760
618.2795, 2676.509
618.7616, 2691.325
619.2437, 2675.975
619.7258, 2656.090
620.2079, 2652.020
620.6901, 2664.784
621.1722, 2677.399
621.6543, 2679.197
622.1364, 2682.320
622.6185, 2696.433
623.1006, 2734.818
623.5828, 2754.639
624.0649, 2744.064
624.5470, 2725.780
625.0291, 2728.035
625.5112, 2754.575
625.9933, 2782.454
626.4755, 2808.938
626.9576, 2832.268
627.4397, 2846.971
627.9218, 2853.952
628.4039, 2860.134
628.8860, 2865.360
629.3682, 2873.671
629.8503, 2892.495
630.3324, 2920.674
630.8145, 2949.131
631.2966, 2966.136
631.7787, 2985.676
632.2609, 3019.594
632.7430, 3073.818
633.2251, 3125.015
633.7072, 3165.209
634.1893, 3202.183
634.6714, 3242.468
635.1536, 3286.750
635.6357, 3332.994
636.1178, 3380.509
636.5999, 3429.883
637.0820, 3482.643
637.5641, 3538.699
638.0463, 3594.351
638.5284, 3646.933
639.0105, 3700.144
639.4926, 3761.838
639.9747, 3832.046
640.4568, 3908.680
640.9390, 3995.601
641.4211, 4086.115
641.9032, 4174.373
642.3853, 4259.600
642.8674, 4345.121
643.3495, 4423.601
643.8317, 4508.399
644.3138, 4610.837
644.7959, 4742.891
645.2780, 4870.475
645.7601, 4984.033
646.2422, 5100.923
646.7244, 5247.013
647.2065, 5427.650
647.6886, 5603.621
648.1707, 5766.544
648.6528, 5920.834
649.1349, 6071.113
649.6171, 6219.363
650.0992, 6383.547
650.5813, 6584.460
651.0634, 6798.168
651.5455, 7003.783
652.0276, 7200.255
652.5098, 7371.903
652.9919, 7495.322
653.4740, 7603.485
653.9561, 7722.506
654.4382, 7862.179
654.9203, 7967.370
655.4025, 8028.548
655.8846, 8055.908
656.3667, 8057.585
656.8488, 8042.751
657.3309, 7970.756
657.8130, 7832.191
658.2952, 7650.410
658.7773, 7451.116
659.2594, 7233.856
659.7415, 7013.386
660.2236, 6793.089
660.7057, 6570.768
661.1879, 6341.503
661.6700, 6109.034
662.1521, 5886.502
662.6342, 5670.746
663.1163, 5475.207
663.5984, 5318.655
664.0806, 5195.881
664.5627, 5063.998
665.0448, 4902.957
665.5269, 4740.884
666.0090, 4586.376
666.4911, 4439.015
666.9733, 4313.195
667.4554, 4213.251
667.9375, 4126.261
668.4196, 4043.786
668.9017, 3965.389
669.3839, 3885.162
669.8660, 3800.554
670.3481, 3724.784
670.8302, 3679.541
671.3123, 3654.584
671.7944, 3627.844
672.2766, 3592.306
672.7587, 3554.043
673.2408, 3516.468
673.7229, 3478.977
674.2050, 3439.646
674.6871, 3387.094
675.1693, 3344.596
675.6514, 3324.348
676.1335, 3320.737
676.6156, 3304.631
677.0977, 3271.002
677.5798, 3236.317
678.0620, 3207.000
678.5441, 3182.782
679.0262, 3164.602
679.5083, 3152.582
679.9904, 3142.140
680.4725, 3130.105
680.9547, 3117.007
681.4368, 3104.388
681.9189, 3092.926
682.4010, 3078.180
682.8831, 3051.986
683.3652, 3023.640
683.8474, 3002.808
684.3295, 2993.653
684.8116, 2988.920
685.2937, 2991.119
685.7758, 2995.575
686.2579, 2996.774
686.7401, 2995.497
687.2222, 2988.016
687.7043, 2970.870
688.1864, 2949.828
688.6685, 2939.156
689.1506, 2938.411
689.6328, 2940.598
690.1149, 2945.249
690.5970, 2949.275
691.0791, 2947.431
691.5612, 2940.483
692.0433, 2932.491
692.5255, 2924.052
693.0076, 2916.380
693.4897, 2911.917
693.9718, 2911.521
694.4539, 2904.925
694.9360, 2884.896
695.4182, 2863.813
695.9003, 2848.358
696.3824, 2840.636
696.8645, 2829.808
697.3466, 2814.338
697.8287, 2799.798
698.3109, 2792.559
698.7930, 2791.708
699.2751, 2793.115
699.7572, 2796.854
700.2393, 2799.778
700.7214, 2798.091
701.2036, 2793.428
701.6857, 2788.536
702.1678, 2785.756
702.6499, 2781.317
703.1320, 2772.585
703.6141, 2761.178
704.0963, 2751.166
704.5784, 2743.974
705.0605, 2736.009
705.5426, 2724.928
706.0247, 2712.578
706.5068, 2708.467
706.9890, 2713.468
707.4711, 2719.158
707.9532, 2721.498
708.4353, 2721.261
708.9174, 2719.864
709.3995, 2717.420
709.8817, 2715.091
710.3638, 2715.897
710.8459, 2715.737
711.3280, 2710.045
711.8101, 2697.583
712.2922, 2686.342
712.7744, 2682.883
713.2565, 2678.050
713.7386, 2664.225
714.2207, 2631.930
714.7028, 2617.388
715.1849, 2628.225
715.6671, 2643.320
716.1492, 2635.124
716.6313, 2606.234
717.1134, 2588.315
717.5955, 2589.136
718.0776, 2595.118
718.5598, 2588.175
719.0419, 2574.552
719.5240, 2566.539
720.0061, 2574.237
720.4882, 2581.440
720.9703, 2580.523
721.4525, 2573.721
721.9346, 2566.128
722.4167, 2558.022
722.8988, 2549.146
723.3809, 2536.239
723.8630, 2522.835
724.3452, 2525.770
724.8273, 2547.377
725.3094, 2568.497
725.7915, 2580.930
726.2736, 2586.029
726.7557, 2585.393
727.2379, 2579.659
727.7200, 2573.838
728.2021, 2570.287
728.6842, 2568.664
729.1663, 2569.764
729.6484, 2573.763
730.1306, 2575.499
730.6127, 2569.270
731.0948, 2563.951
731.5769, 2565.058
732.0590, 2575.143
732.5411, 2580.819
733.0233, 2581.165
733.5054, 2579.165
733.9875, 2577.828
734.4696, 2576.780
734.9517, 2573.024
735.4338, 2565.952
735.9160, 2557.753
736.3981, 2548.910
736.8802, 2540.922
737.3623, 2536.111
737.8444, 2535.900
738.3266, 2537.378
738.8087, 2540.387
739.2908, 2544.113
739.7729, 2547.354
740.2551, 2550.056
740.7372, 2551.965
741.2193, 2551.427
741.7014, 2551.441
742.1835, 2560.559
742.6656, 2578.878
743.1478, 2593.011
743.6299, 2597.536
744.1120, 2597.120
744.5941, 2597.733
745.0762, 2599.415
745.5583, 2602.316
746.0405, 2610.708
746.5226, 2616.401
747.0047, 2610.101
747.4868, 2595.137
747.9689, 2591.574
748.4510, 2616.343
748.9332, 2633.765
749.4153, 2629.788
749.8974, 2606.785
750.3795, 2594.324
750.8616, 2593.989
751.3438, 2592.239
751.8259, 2577.093
752.3080, 2555.007
752.7901, 2539.898
753.2722, 2532.180
753.7543, 2530.906
754.2365, 2541.848
754.7186, 2554.546
755.2007, 2560.411
755.6828, 2557.675
756.1649, 2553.119
756.6470, 2544.803
757.1292, 2537.649
757.6113, 2534.997
758.0934, 2538.083
758.5755, 2539.281
759.0576, 2537.331
759.5397, 2537.753
760.0219, 2549.713
760.5040, 2568.959
760.9861, 2581.402
761.4682, 2584.174
761.9503, 2583.245
762.4324, 2579.652
762.9146, 2576.609
763.3967, 2578.153
763.8788, 2589.459
764.3609, 2598.549
764.8430, 2603.976
765.3251, 2605.856
765.8073, 2603.345
766.2894, 2594.720
766.7715, 2588.379
767.2536, 2585.360
767.7357, 2585.398
768.2178, 2589.077
768.7000, 2595.704
769.1821, 2602.091
769.6642, 2606.158
770.1463, 2611.400
770.6284, 2623.131
771.1105, 2637.909
771.5927, 2649.084
772.0748, 2647.942
772.5569, 2650.875
773.0390, 2665.183
773.5211, 2685.474
774.0032, 2696.686
774.4854, 2695.171
774.9675, 2698.787
775.4496, 2715.217
775.9317, 2738.135
776.4138, 2750.416
776.8959, 2753.917
777.3781, 2759.288
777.8602, 2775.709
778.3423, 2793.426
778.8244, 2804.145
779.3065, 2809.049
779.7886, 2813.585
780.2708, 2819.498
780.7529, 2825.069
781.2350, 2827.904
781.7171, 2829.057
782.1992, 2839.996
782.6813, 2863.212
783.1635, 2886.070
783.6456, 2905.568
784.1277, 2919.163
784.6098, 2912.289
785.0919, 2887.581
785.5740, 2870.770
786.0562, 2883.325
786.5383, 2907.217
787.0204, 2932.134
787.5025, 2957.193
787.9846, 2969.442
788.4667, 2950.061
788.9489, 2932.422
789.4310, 2932.731
789.9131, 2952.532
790.3952, 2959.382
790.8773, 2950.710
791.3594, 2940.833
791.8416, 2940.160
792.3237, 2946.567
792.8058, 2955.148
793.2879, 2965.688
793.7700, 2976.838
794.2521, 2988.574
794.7343, 2999.945
795.2164, 3011.131
795.6985, 3023.788
796.1806, 3028.715
796.6627, 3023.251
797.1448, 3012.325
797.6270, 2994.909
798.1091, 2967.599
798.5912, 2966.100
799.0733, 2994.994
799.5554, 3026.154
800.0375, 3029.211
800.5197, 3015.755
801.0018, 3006.690
801.4839, 3004.778
801.9660, 3008.377
802.4481, 3026.710
802.9302, 3043.796
803.4124, 3044.858
803.8945, 3016.616
804.3766, 2997.839
804.8587, 2994.051
805.3408, 2992.454
805.8229, 2979.427
806.3051, 2955.083
806.7872, 2937.311
807.2693, 2927.723
807.7514, 2923.975
808.2335, 2925.929
808.7156, 2931.191
809.1978, 2935.341
809.6799, 2935.649
810.1620, 2940.963
810.6441, 2966.238
811.1262, 2991.817
811.6083, 2996.767
812.0905, 2965.099
812.5726, 2950.770
813.0547, 2960.695
813.5368, 2976.922
814.0189, 2978.525
814.5010, 2967.484
814.9832, 2952.292
815.4653, 2931.629
815.9474, 2920.591
816.4295, 2945.608
816.9116, 2983.101
817.3937, 3002.563
817.8759, 2984.606
818.3580, 2971.651
818.8401, 2978.473
819.3222, 2989.996
819.8043, 2990.811
820.2864, 2976.827
820.7686, 2972.840
821.2507, 2983.997
821.7328, 2996.640
822.2149, 2988.737
822.6970, 2968.575
823.1791, 2957.543
823.6613, 2962.327
824.1434, 2970.882
824.6255, 2976.308
825.1076, 2980.667
825.5897, 2986.162
826.0718, 2997.809
826.5540, 3003.083
827.0361, 2996.727
827.5182, 2990.100
828.0003, 3002.777
828.4824, 3034.220
828.9645, 3042.512
829.4467, 3017.499
829.9288, 2984.702
830.4109, 2970.390
830.8930, 2968.464
831.3751, 2969.814
831.8572, 2972.960
832.3394, 2977.271
832.8215, 2987.085
833.3036, 2995.381
833.7857, 2994.246
834.2678, 2979.895
834.7499, 2965.953
835.2321, 2951.000
835.7142, 2941.990
836.1963, 2954.823
836.6784, 2981.953
837.1605, 2993.953
837.6426, 2982.980
838.1248, 2966.324
838.6069, 2955.794
839.0890, 2947.661
839.5711, 2937.598
840.0532, 2920.049
840.5353, 2910.055
841.0175, 2916.283
841.4996, 2922.084
841.9817, 2907.769
842.4638, 2872.238
842.9459, 2843.366
843.4280, 2824.027
843.9102, 2810.186
844.3923, 2803.524
844.8744, 2797.340
845.3565, 2779.640
845.8386, 2744.916
846.3207, 2710.224
846.8029, 2676.538
847.2850, 2649.932
847.7671, 2636.274
848.2492, 2641.827
848.7313, 2643.832
849.2134, 2642.958
849.6956, 2636.751
850.1777, 2620.770
850.6598, 2597.239
851.1419, 2573.134
851.6240, 2548.950
852.1061, 2526.827
852.5883, 2506.813
853.0704, 2490.309
853.5525, 2479.606
854.0346, 2479.022
854.5167, 2471.652
854.9988, 2453.034
855.4810, 2432.218
855.9631, 2416.583
856.4452, 2406.225
856.9273, 2388.226
857.4094, 2361.797
857.8915, 2335.412
858.3737, 2316.764
858.8558, 2302.779
859.3379, 2290.485
859.8200, 2279.813
860.3021, 2267.917
860.7842, 2248.275
861.2664, 2232.384
861.7485, 2227.971
862.2306, 2236.580
862.7127, 2240.274
863.1948, 2238.185
863.6769, 2235.138
864.1591, 2233.441
864.6412, 2233.598
865.1233, 2237.750
865.6054, 2245.649
866.0875, 2252.949
866.5696, 2256.141
867.0518, 2258.762
867.5339, 2262.366
868.0160, 2267.191
868.4981, 2274.827
868.9802, 2284.118
869.4623, 2298.792
869.9445, 2322.677
870.4266, 2353.178
870.9087, 2377.823
871.3908, 2397.358
871.8729, 2416.389
872.3550, 2434.711
872.8372, 2456.491
873.3193, 2482.488
873.8014, 2514.254
874.2835, 2558.419
874.7656, 2624.668
875.2477, 2695.002
875.7299, 2770.218
876.2120, 2844.894
876.6941, 2893.807
877.1762, 2916.842
877.6583, 2951.108
878.1404, 3019.887
878.6226, 3100.408
879.1047, 3163.483
879.5869, 3213.697
880.0690, 3264.405
880.5511, 3324.046
881.0332, 3380.688
881.5153, 3426.154
881.9974, 3467.771
882.4796, 3520.981
882.9617, 3586.237
883.4438, 3663.161
883.9259, 3756.162
884.4080, 3849.941
884.8901, 3917.375
885.3723, 3966.278
885.8544, 4014.915
886.3365, 4068.819
886.8186, 4124.087
887.3007, 4178.528
887.7828, 4232.961
888.2650, 4289.790
888.7471, 4354.536
889.2292, 4405.486
889.7113, 4440.489
890.1934, 4462.216
890.6755, 4467.259
891.1577, 4462.093
891.6398, 4470.167
892.1219, 4499.203
892.6040, 4523.651
893.0861, 4524.139
893.5682, 4512.357
894.0504, 4499.018
894.5325, 4486.833
895.0146, 4470.511
895.4967, 4453.364
895.9788, 4426.096
896.4609, 4378.558
896.9431, 4313.297
897.4252, 4245.241
897.9073, 4175.104
898.3894, 4106.229
898.8715, 4039.624
899.3536, 3974.889
899.8358, 3909.654
900.3179, 3843.844
900.8000, 3784.096
901.2821, 3731.182
901.7642, 3684.792
902.2463, 3648.448
902.7285, 3619.652
903.2106, 3570.214
903.6927, 3501.166
904.1748, 3435.136
904.6569, 3385.643
905.1390, 3345.415
905.6212, 3307.816
906.1033, 3273.294
906.5854, 3242.242
907.0675, 3223.792
907.5496, 3197.867
908.0317, 3156.049
908.5139, 3105.218
908.9960, 3065.816
909.4781, 3038.063
909.9602, 3013.521
910.4423, 2991.111
910.9244, 2968.022
911.4066, 2940.360
911.8887, 2909.857
912.3708, 2879.270
912.8529, 2848.018
913.3350, 2818.940
913.8171, 2791.552
914.2993, 2767.400
914.7814, 2749.492
915.2635, 2738.233
915.7456, 2728.830
916.2277, 2721.569
916.7098, 2711.773
917.1920, 2692.515
917.6741, 2667.943
918.1562, 2642.233
918.6383, 2613.230
919.1204, 2595.161
919.6025, 2604.070
920.0847, 2615.990
920.5668, 2613.984
921.0489, 2595.227
921.5310, 2582.753
922.0131, 2577.066
922.4952, 2573.714
922.9774, 2572.118
923.4595, 2569.128
923.9416, 2556.371
924.4237, 2534.644
924.9058, 2520.801
925.3879, 2528.784
925.8701, 2538.783
926.3522, 2543.180
926.8343, 2542.302
927.3164, 2537.993
927.7985, 2529.766
928.2806, 2522.592
928.7628, 2520.708
929.2449, 2519.420
929.7270, 2506.830
930.2091, 2488.579
930.6912, 2479.595
931.1733, 2506.709
931.6555, 2519.667
932.1376, 2490.505
932.6197, 2443.458
933.1018, 2419.051
933.5839, 2419.975
934.0660, 2422.939
934.5482, 2424.888
935.0303, 2423.972
935.5124, 2414.928
935.9945, 2402.105
936.4766, 2393.896
936.9587, 2394.797
937.4409, 2392.902
937.9230, 2384.046
938.4051, 2370.960
938.8872, 2354.478
939.3693, 2332.757
939.8514, 2319.300
940.3336, 2315.440
940.8157, 2310.952
941.2978, 2290.424
941.7799, 2267.313
942.2620, 2265.918
942.7441, 2285.983
943.2263, 2298.430
943.7084, 2283.575
944.1905, 2267.238
944.6726, 2258.955
945.1547, 2258.026
945.6368, 2262.358
946.1190, 2272.598
946.6011, 2277.216
947.0832, 2266.769
947.5653, 2252.658
948.0474, 2251.628
948.5295, 2258.784
949.0117, 2262.735
949.4938, 2256.765
949.9759, 2250.698
950.4580, 2246.943
950.9401, 2243.697
951.4222, 2239.391
951.9044, 2234.106
952.3865, 2222.042
952.8686, 2201.284
953.3507, 2178.377
953.8328, 2153.866
954.3149, 2134.416
954.7971, 2132.010
955.2792, 2156.919
955.7613, 2167.677
956.2434, 2149.091
956.7255, 2125.793
957.2076, 2111.718
957.6898, 2106.641
958.1719, 2104.880
958.6540, 2106.352
959.1361, 2106.462
959.6182, 2101.034
960.1003, 2093.585
960.5825, 2084.106
961.0646, 2074.354
961.5467, 2074.088
962.0288, 2093.072
962.5109, 2109.711
962.9930, 2119.728
963.4752, 2123.404
963.9573, 2117.688
964.4394, 2104.600
964.9215, 2096.624
965.4036, 2099.586
965.8857, 2105.511
966.3679, 2110.841
966.8500, 2114.061
967.3321, 2113.254
967.8142, 2110.988
968.2963, 2097.242
968.7784, 2065.173
969.2606, 2035.563
969.7427, 2032.010
970.2248, 2048.832
970.7069, 2069.045
971.1890, 2091.125
971.6711, 2105.817
972.1533, 2102.604
972.6354, 2093.414
973.1175, 2084.888
973.5996, 2077.487
974.0817, 2071.404
974.5638, 2065.772
975.0460, 2064.798
975.5281, 2072.040
976.0102, 2083.374
976.4923, 2091.382
976.9744, 2096.160
977.4565, 2097.998
977.9387, 2094.259
978.4208, 2090.833
978.9029, 2089.246
979.3850, 2089.444
979.8671, 2091.300
980.3492, 2094.698
980.8314, 2102.146
981.3135, 2115.674
981.7956, 2125.358
982.2777, 2116.369
982.7598, 2098.488
983.2419, 2083.514
983.7241, 2072.306
984.2062, 2071.946
984.6883, 2096.881
985.1704, 2120.828
985.6525, 2132.168
986.1346, 2131.909
986.6168, 2130.706
987.0989, 2128.486
987.5810, 2123.001
988.0631, 2108.635
988.5452, 2094.002
989.0273, 2087.905
989.5095, 2088.054
989.9916, 2088.750
990.4737, 2090.505
990.9558, 2090.633
991.4379, 2090.434
991.9200, 2086.187
992.4022, 2067.583
992.8843, 2039.068
993.3664, 2019.376
993.8485, 2012.656
994.3306, 2011.648
994.8127, 2016.333
995.2949, 2021.185
995.7770, 2021.838
996.2591, 2018.436
996.7412, 2008.208
997.2233, 1989.842
997.7054, 1969.723
998.1876, 1947.289
998.6697, 1927.679
999.1518, 1924.722
999.6339, 1935.185
1000.116, 1945.957
1000.598, 1960.913
1001.080, 1963.644
1001.562, 1937.569
1002.044, 1900.927
1002.527, 1888.527
1003.009, 1902.602
1003.491, 1910.138
1003.973, 1904.879
1004.455, 1892.719
1004.937, 1875.809
1005.419, 1857.995
1005.901, 1844.408
1006.384, 1836.529
1006.866, 1831.067
1007.348, 1831.788
1007.830, 1828.296
1008.312, 1811.626
1008.794, 1785.324
1009.276, 1769.510
1009.758, 1763.790
1010.240, 1764.047
1010.723, 1777.254
1011.205, 1786.436
1011.687, 1774.354
1012.169, 1750.553
1012.651, 1741.459
1013.133, 1752.656
1013.615, 1764.275
1014.097, 1774.689
1014.580, 1781.112
1015.062, 1777.030
1015.544, 1766.878
1016.026, 1758.855
1016.508, 1754.645
1016.990, 1751.871
1017.472, 1747.758
1017.954, 1746.855
1018.436, 1753.713
1018.919, 1767.570
1019.401, 1770.990
1019.883, 1763.945
1020.365, 1757.175
1020.847, 1756.704
1021.329, 1759.597
1021.811, 1765.691
1022.293, 1772.662
1022.776, 1774.785
1023.258, 1767.295
1023.740, 1760.665
1024.222, 1755.123
1024.704, 1752.089
1025.186, 1757.020
1025.668, 1766.225
1026.150, 1763.725
1026.632, 1746.004
1027.115, 1734.809
1027.597, 1753.125
1028.079, 1774.135
1028.561, 1778.129
1029.043, 1765.883
1029.525, 1759.975
1030.007, 1761.864
1030.489, 1757.904
1030.972, 1732.628
1031.454, 1708.489
1031.936, 1730.007
1032.418, 1774.998
1032.900, 1795.682
1033.382, 1750.684
1033.864, 1717.084
1034.346, 1702.278
1034.828, 1701.755
1035.311, 1717.361
1035.793, 1745.188
1036.275, 1756.137
1036.757, 1747.889
1037.239, 1737.958
1037.721, 1737.340
1038.203, 1740.714
1038.685, 1745.222
1039.167, 1750.572
1039.650, 1757.028
1040.132, 1765.981
1040.614, 1768.951
1041.096, 1760.304
1041.578, 1748.877
1042.060, 1749.483
1042.542, 1757.604
1043.024, 1765.130
1043.507, 1771.274
1043.989, 1773.056
1044.471, 1766.735
1044.953, 1759.794
1045.435, 1758.729
1045.917, 1762.941
1046.399, 1765.182
1046.881, 1765.221
1047.364, 1761.686
1047.846, 1749.944
1048.328, 1737.731
1048.810, 1729.651
1049.292, 1725.776
1049.774, 1725.203
1050.256, 1729.945
1050.738, 1729.707
1051.220, 1720.384
1051.703, 1710.889
1052.185, 1716.849
1052.667, 1730.741
1053.149, 1740.014
1053.631, 1741.674
1054.113, 1741.110
1054.595, 1737.290
1055.077, 1734.428
1055.559, 1735.281
1056.042, 1739.081
1056.524, 1739.884
1057.006, 1738.180
1057.488, 1737.987
1057.970, 1742.303
1058.452, 1747.982
1058.934, 1754.156
1059.416, 1760.045
1059.899, 1764.862
1060.381, 1770.422
1060.863, 1767.547
1061.345, 1753.972
1061.827, 1738.313
1062.309, 1727.276
1062.791, 1720.789
1063.273, 1719.849
1063.755, 1724.359
1064.238, 1729.556
1064.720, 1734.391
1065.202, 1739.576
1065.684, 1745.720
1066.166, 1752.014
1066.648, 1756.793
1067.130, 1759.711
1067.612, 1759.209
1068.094, 1753.558
1068.577, 1747.314
1069.059, 1742.391
1069.541, 1738.743
1070.023, 1736.149
1070.505, 1734.538
1070.987, 1734.763
1071.469, 1737.119
1071.951, 1738.475
1072.434, 1735.035
1072.916, 1730.602
1073.398, 1728.193
1073.880, 1728.517
1074.362, 1733.969
1074.844, 1755.802
1075.326, 1763.327
1075.808, 1747.252
1076.291, 1725.441
1076.773, 1724.575
1077.255, 1738.218
1077.737, 1748.558
1078.219, 1752.895
1078.701, 1755.613
1079.183, 1760.956
1079.665, 1762.736
1080.147, 1756.690
1080.630, 1744.603
1081.112, 1735.892
1081.594, 1730.620
1082.076, 1731.119
1082.558, 1740.421
1083.040, 1751.677
1083.522, 1759.841
1084.004, 1765.760
1084.486, 1771.244
1084.969, 1781.285
1085.451, 1775.201
1085.933, 1748.232
1086.415, 1723.283
1086.897, 1719.514
1087.379, 1728.683
1087.861, 1739.380
1088.343, 1750.501
1088.826, 1759.009
1089.308, 1763.091
1089.790, 1765.220
1090.272, 1766.704
1090.754, 1765.546
1091.236, 1752.110
1091.718, 1732.073
1092.200, 1737.970
1092.682, 1777.014
1093.165, 1806.274
1093.647, 1786.359
1094.129, 1759.265
1094.611, 1751.937
1095.093, 1761.695
1095.575, 1769.746
1096.057, 1776.265
1096.539, 1776.100
1097.022, 1765.037
1097.504, 1751.189
1097.986, 1741.651
1098.468, 1735.080
1098.950, 1728.822
1099.432, 1716.778
1099.914, 1724.099
1100.396, 1757.869
1100.879, 1787.595
1101.361, 1787.093
1101.843, 1769.190
1102.325, 1756.618
1102.807, 1748.671
1103.289, 1741.934
1103.771, 1733.411
1104.253, 1728.755
1104.735, 1730.928
1105.218, 1734.421
1105.700, 1730.201
1106.182, 1720.242
1106.664, 1714.188
1107.146, 1713.069
1107.628, 1713.779
1108.110, 1714.033
1108.592, 1716.055
1109.074, 1723.894
1109.557, 1734.416
1110.039, 1731.030
1110.521, 1713.406
1111.003, 1707.535
1111.485, 1724.116
1111.967, 1745.259
1112.449, 1757.993
1112.931, 1763.489
1113.414, 1761.932
1113.896, 1752.004
1114.378, 1742.078
1114.860, 1731.462
1115.342, 1723.951
1115.824, 1723.349
1116.306, 1725.733
1116.788, 1725.608
1117.271, 1723.479
1117.753, 1720.454
1118.235, 1712.987
1118.717, 1711.515
1119.199, 1720.247
1119.681, 1728.180
1120.163, 1719.579
1120.645, 1702.138
1121.127, 1701.331
1121.609, 1716.361
1122.092, 1728.603
1122.574, 1722.549
1123.056, 1719.992
1123.538, 1731.425
1124.020, 1747.933
1124.502, 1749.415
1124.984, 1738.112
1125.466, 1735.225
1125.949, 1746.072
1126.431, 1752.415
1126.913, 1733.114
1127.395, 1711.749
1127.877, 1706.905
1128.359, 1716.472
1128.841, 1723.697
1129.323, 1728.598
1129.806, 1730.765
1130.288, 1729.083
1130.770, 1726.722
1131.252, 1724.083
1131.734, 1724.066
1132.216, 1731.919
1132.698, 1752.497
1133.180, 1764.443
1133.662, 1766.609
1134.145, 1764.602
1134.627, 1758.751
1135.109, 1753.089
1135.591, 1755.258
1136.073, 1762.768
1136.555, 1769.251
1137.037, 1777.104
1137.519, 1776.099
1138.001, 1762.297
1138.484, 1746.734
1138.966, 1742.547
1139.448, 1745.135
1139.930, 1742.222
1140.412, 1734.072
1140.894, 1729.759
1141.376, 1737.054
1141.858, 1743.569
1142.341, 1746.196
1142.823, 1746.152
1143.305, 1744.796
1143.787, 1742.645
1144.269, 1742.367
1144.751, 1744.616
1145.233, 1746.365
1145.715, 1745.365
1146.198, 1743.959
1146.680, 1744.286
1147.162, 1745.266
1147.644, 1738.816
1148.126, 1726.050
1148.608, 1723.559
1149.090, 1741.278
1149.572, 1757.933
1150.054, 1756.164
1150.536, 1746.518
1151.019, 1738.436
1151.501, 1732.248
1151.983, 1728.513
1152.465, 1727.346
1152.947, 1725.427
1153.429, 1720.225
1153.911, 1714.307
1154.393, 1709.818
1154.876, 1706.458
1155.358, 1703.828
1155.840, 1702.117
1156.322, 1699.510
1156.804, 1695.205
1157.286, 1694.242
1157.768, 1705.443
1158.250, 1718.990
1158.733, 1721.993
1159.215, 1716.331
1159.697, 1710.269
1160.179, 1703.983
1160.661, 1699.649
1161.143, 1697.210
1161.625, 1697.681
1162.107, 1706.919
1162.589, 1717.689
1163.072, 1713.410
1163.554, 1694.472
1164.036, 1687.374
1164.518, 1709.352
1165.000, 1725.410
1165.482, 1726.094
1165.964, 1718.779
1166.446, 1715.614
1166.928, 1715.109
1167.411, 1713.916
1167.893, 1711.312
1168.375, 1708.724
1168.857, 1705.588
1169.339, 1704.022
1169.821, 1705.866
1170.303, 1709.142
1170.785, 1705.348
1171.268, 1697.857
1171.750, 1698.459
1172.232, 1714.291
1172.714, 1729.617
1173.196, 1738.793
1173.678, 1744.698
1174.160, 1748.720
1174.642, 1750.774
1175.125, 1749.916
1175.607, 1746.199
1176.089, 1739.829
1176.571, 1725.085
1177.053, 1715.357
1177.535, 1723.272
1178.017, 1733.892
1178.499, 1731.926
1178.981, 1717.580
1179.464, 1711.324
1179.946, 1712.901
1180.428, 1714.527
1180.910, 1710.326
1181.392, 1705.924
1181.874, 1704.948
1182.356, 1705.317
1182.838, 1703.555
1183.320, 1699.535
1183.803, 1696.287
1184.285, 1693.992
1184.767, 1694.531
1185.249, 1701.227
1185.731, 1709.387
1186.213, 1717.416
1186.695, 1723.991
1187.177, 1724.877
1187.660, 1719.558
1188.142, 1717.554
1188.624, 1721.137
1189.106, 1722.372
1189.588, 1709.317
1190.070, 1695.107
1190.552, 1690.281
1191.034, 1694.620
1191.516, 1703.810
1191.999, 1718.917
1192.481, 1729.041
1192.963, 1731.307
1193.445, 1728.835
1193.927, 1723.253
1194.409, 1715.519
1194.891, 1704.578
1195.373, 1690.305
1195.855, 1686.439
1196.338, 1694.234
1196.820, 1701.030
1197.302, 1700.464
1197.784, 1699.781
1198.266, 1711.112
1198.748, 1724.805
1199.230, 1727.871
1199.712, 1717.630
1200.195, 1704.860
1200.677, 1688.150
1201.159, 1679.140
1201.641, 1688.391
1202.123, 1703.108
1202.605, 1711.025
1203.087, 1713.438
1203.569, 1711.854
1204.052, 1703.071
1204.534, 1702.408
1205.016, 1711.489
1205.498, 1718.936
1205.980, 1713.689
1206.462, 1705.216
1206.944, 1698.838
1207.426, 1712.414
1207.908, 1720.258
1208.391, 1722.678
1208.873, 1703.425
1209.355, 1712.157
1209.837, 1709.674
1210.319, 1706.731
1210.801, 1719.402
1211.283, 1703.301
1211.765, 1715.724
1212.247, 1716.761
1212.730, 1723.010
1213.212, 1717.974
1213.694, 1716.423
1214.176, 1726.160
1214.658, 1729.647
1215.140, 1723.312
1215.622, 1729.891
1216.104, 1713.396
1216.587, 1717.150
1217.069, 1729.639
1217.551, 1715.954
1218.033, 1724.285
1218.515, 1731.695
1218.997, 1725.978
1219.479, 1716.385
1219.961, 1714.395
1220.443, 1720.191
1220.926, 1720.582
1221.408, 1711.295
1221.890, 1713.617
1222.372, 1735.944
1222.854, 1759.309
1223.336, 1760.938
1223.818, 1750.923
1224.300, 1738.652
1224.782, 1725.192
1225.265, 1716.337
1225.747, 1712.277
1226.229, 1711.924
1226.711, 1715.409
1227.193, 1721.186
1227.675, 1731.298
1228.157, 1740.340
1228.639, 1740.082
1229.122, 1728.519
1229.604, 1723.041
1230.086, 1724.374
1230.568, 1727.224
1231.050, 1731.230
1231.532, 1732.342
1232.014, 1720.265
1232.496, 1705.726
1232.979, 1703.485
1233.461, 1716.206
1233.943, 1725.129
1234.425, 1730.428
1234.907, 1728.562
1235.389, 1710.976
1235.871, 1696.675
1236.353, 1713.019
1236.835, 1739.193
1237.318, 1745.919
1237.800, 1729.318
1238.282, 1716.616
1238.764, 1707.670
1239.246, 1707.946
1239.728, 1730.042
1240.210, 1750.561
1240.692, 1743.821
1241.175, 1726.445
1241.657, 1721.525
1242.139, 1731.660
1242.621, 1740.946
1243.103, 1749.492
1243.585, 1754.596
1244.067, 1754.497
1244.549, 1750.723
1245.031, 1738.730
1245.514, 1726.953
1245.996, 1727.665
1246.478, 1742.304
1246.960, 1753.187
1247.442, 1759.961
1247.924, 1761.155
1248.406, 1750.356
1248.888, 1739.700
1249.370, 1738.099
1249.853, 1739.272
1250.335, 1733.148
1250.817, 1720.281
1251.299, 1718.626
1251.781, 1728.115
1252.263, 1735.885
1252.745, 1730.016
1253.227, 1725.472
1253.710, 1732.528
1254.192, 1741.579
1254.674, 1737.819
1255.156, 1724.001
1255.638, 1722.268
1256.120, 1732.694
1256.602, 1739.921
1257.084, 1732.018
1257.567, 1723.680
1258.049, 1718.524
1258.531, 1716.697
1259.013, 1719.877
1259.495, 1726.578
1259.977, 1730.466
1260.459, 1731.555
1260.941, 1735.586
1261.423, 1752.298
1261.906, 1761.588
1262.388, 1756.180
1262.870, 1746.441
1263.352, 1751.153
1263.834, 1761.955
1264.316, 1755.927
1264.798, 1732.927
1265.280, 1717.372
1265.762, 1720.858
1266.245, 1726.435
1266.727, 1732.933
1267.209, 1736.320
1267.691, 1726.917
1268.173, 1712.631
1268.655, 1706.005
1269.137, 1707.990
1269.619, 1715.127
1270.102, 1730.267
1270.584, 1739.773
1271.066, 1739.395
1271.548, 1737.174
1272.030, 1746.700
1272.512, 1757.757
1272.994, 1754.887
1273.476, 1738.544
1273.958, 1734.700
1274.441, 1747.449
1274.923, 1755.370
1275.405, 1753.119
1275.887, 1747.703
1276.369, 1745.462
1276.851, 1744.325
1277.333, 1743.020
1277.815, 1741.141
1278.297, 1735.281
1278.780, 1724.942
1279.262, 1722.878
1279.744, 1732.770
1280.226, 1746.636
1280.708, 1764.650
1281.190, 1777.972
1281.672, 1777.157
1282.154, 1767.229
1282.637, 1767.007
1283.119, 1775.064
1283.601, 1776.511
1284.083, 1766.912
1284.565, 1760.201
1285.047, 1768.906
1285.529, 1778.363
1286.011, 1782.589
1286.494, 1781.470
1286.976, 1773.338
1287.458, 1759.571
1287.940, 1743.019
1288.422, 1723.060
1288.904, 1710.782
1289.386, 1714.807
1289.868, 1722.143
1290.350, 1730.880
1290.833, 1737.429
1291.315, 1728.993
1291.797, 1714.698
1292.279, 1715.523
1292.761, 1738.168
1293.243, 1747.932
1293.725, 1734.976
1294.207, 1726.102
1294.689, 1731.103
1295.172, 1741.746
1295.654, 1747.826
1296.136, 1751.149
1296.618, 1754.184
1297.100, 1757.276
1297.582, 1758.233
1298.064, 1756.971
##END=



