##NAMES=Clinoptilolite-Na
##RRUFFID=R061099
##IDEAL CHEMISTRY=Na_6_(Si_30_Al_6_)O_72_&#183;20H_2_O
##LOCALITY=Richardson Ranch, Madras, Jefferson County, Oregon, USA
##OWNER=RRUFF
##SOURCE=Michael Scott
##DESCRIPTION=Red-brown to salmon, somewhat coffin shaped tabular crystals in a fragmented geode
##STATUS=The identification of this mineral has been confirmed by X-ray diffraction and chemical analysis
##URL=rruff.info/R061099
##MEASURED CHEMISTRY=(Na_2.70_Ca_1.46_K_0.89_Fe_0.08_Mg_0.02_)_Σ=5.15_(Si_29.29_Al_6.71_)O_72_·18.51H_2_O
116.2615, 2481.024
116.7436, 2703.058
117.2257, 2904.412
117.7079, 3099.463
118.1900, 3313.110
118.6721, 3573.292
119.1542, 3845.636
119.6363, 4105.279
120.1184, 4331.245
120.6006, 4565.199
121.0827, 4833.050
121.5648, 5132.394
122.0469, 5447.062
122.5290, 5773.818
123.0111, 6108.216
123.4933, 6444.181
123.9754, 6785.731
124.4575, 7124.575
124.9396, 7460.044
125.4217, 7790.253
125.9038, 8095.113
126.3860, 8292.191
126.8681, 8333.308
127.3502, 8309.517
127.8323, 8307.517
128.3144, 8317.795
128.7965, 8323.210
129.2787, 8325.491
129.7608, 8315.178
130.2429, 8272.393
130.7250, 8198.868
131.2071, 8120.246
131.6892, 8042.715
132.1714, 7967.193
132.6535, 7914.486
133.1356, 7890.950
133.6177, 7885.285
134.0998, 7866.601
134.5819, 7832.096
135.0640, 7794.948
135.5462, 7761.151
136.0283, 7728.176
136.5104, 7717.050
136.9925, 7739.231
137.4746, 7792.522
137.9567, 7831.198
138.4389, 7855.868
138.9210, 7867.943
139.4031, 7870.189
139.8852, 7865.340
140.3673, 7846.669
140.8494, 7811.163
141.3316, 7756.213
141.8137, 7698.492
142.2958, 7638.332
142.7779, 7576.358
143.2600, 7509.791
143.7421, 7432.844
144.2243, 7361.874
144.7064, 7308.516
145.1885, 7292.838
145.6706, 7256.665
146.1527, 7189.388
146.6348, 7095.188
147.1170, 7009.369
147.5991, 6931.886
148.0812, 6862.229
148.5633, 6801.152
149.0454, 6765.398
149.5275, 6717.557
150.0097, 6644.745
150.4918, 6538.769
150.9739, 6456.206
151.4560, 6417.193
151.9381, 6394.664
152.4202, 6358.245
152.9024, 6284.829
153.3845, 6216.373
153.8666, 6166.462
154.3487, 6149.002
154.8308, 6119.676
155.3129, 6069.103
155.7950, 6003.067
156.2772, 5933.804
156.7593, 5850.364
157.2414, 5773.996
157.7235, 5714.966
158.2056, 5682.745
158.6877, 5658.087
159.1699, 5646.455
159.6520, 5642.329
160.1341, 5622.717
160.6162, 5566.832
161.0983, 5499.682
161.5804, 5439.694
162.0626, 5397.155
162.5447, 5359.047
163.0268, 5320.324
163.5089, 5281.119
163.9910, 5244.493
164.4731, 5216.775
164.9553, 5190.975
165.4374, 5158.905
165.9195, 5114.984
166.4016, 5065.406
166.8837, 5008.927
167.3658, 4943.278
167.8480, 4887.544
168.3301, 4860.219
168.8122, 4850.992
169.2943, 4840.759
169.7764, 4821.809
170.2585, 4796.522
170.7407, 4766.268
171.2228, 4729.797
171.7049, 4692.059
172.1870, 4658.145
172.6691, 4626.505
173.1512, 4592.865
173.6334, 4550.813
174.1155, 4505.710
174.5976, 4466.105
175.0797, 4436.404
175.5618, 4409.163
176.0439, 4374.734
176.5260, 4334.125
177.0082, 4296.120
177.4903, 4267.798
177.9724, 4246.391
178.4545, 4226.974
178.9366, 4209.875
179.4187, 4192.529
179.9009, 4171.265
180.3830, 4145.997
180.8651, 4118.123
181.3472, 4085.251
181.8293, 4049.577
182.3114, 4019.392
182.7936, 3998.844
183.2757, 3985.812
183.7578, 3975.429
184.2399, 3968.205
184.7220, 3960.572
185.2041, 3945.625
185.6863, 3924.552
186.1684, 3907.881
186.6505, 3905.839
187.1326, 3913.262
187.6147, 3907.682
188.0968, 3884.893
188.5790, 3856.573
189.0611, 3843.039
189.5432, 3844.098
190.0253, 3842.760
190.5074, 3825.825
190.9895, 3795.828
191.4717, 3771.246
191.9538, 3754.352
192.4359, 3743.261
192.9180, 3734.939
193.4001, 3729.792
193.8822, 3724.125
194.3644, 3715.898
194.8465, 3705.209
195.3286, 3691.325
195.8107, 3673.550
196.2928, 3652.863
196.7749, 3630.041
197.2570, 3603.389
197.7392, 3582.369
198.2213, 3580.858
198.7034, 3601.148
199.1855, 3611.057
199.6676, 3600.194
200.1497, 3572.084
200.6319, 3550.833
201.1140, 3536.484
201.5961, 3528.606
202.0782, 3530.142
202.5603, 3543.759
203.0424, 3551.289
203.5246, 3545.207
204.0067, 3525.729
204.4888, 3511.746
204.9709, 3504.383
205.4530, 3500.702
205.9352, 3497.481
206.4173, 3495.470
206.8994, 3491.184
207.3815, 3482.769
207.8636, 3469.562
208.3457, 3456.959
208.8279, 3442.713
209.3100, 3431.435
209.7921, 3434.973
210.2742, 3461.074
210.7563, 3481.379
211.2384, 3480.139
211.7206, 3449.987
212.2027, 3430.400
212.6848, 3424.332
213.1669, 3427.459
213.6490, 3428.848
214.1311, 3426.875
214.6133, 3426.527
215.0954, 3431.961
215.5775, 3447.046
216.0596, 3454.790
216.5417, 3453.440
217.0238, 3444.254
217.5059, 3430.038
217.9881, 3405.931
218.4702, 3384.973
218.9523, 3376.041
219.4344, 3384.331
219.9165, 3391.638
220.3986, 3397.610
220.8808, 3401.666
221.3629, 3397.729
221.8450, 3375.543
222.3271, 3359.547
222.8092, 3372.081
223.2913, 3434.954
223.7735, 3476.004
224.2556, 3477.444
224.7377, 3442.471
225.2198, 3426.557
225.7019, 3438.648
226.1840, 3459.056
226.6662, 3471.298
227.1483, 3472.490
227.6304, 3470.595
228.1125, 3466.270
228.5946, 3459.459
229.0767, 3451.653
229.5589, 3437.971
230.0410, 3428.100
230.5231, 3433.526
231.0052, 3464.644
231.4873, 3491.886
231.9694, 3506.860
232.4516, 3507.189
232.9337, 3520.553
233.4158, 3558.908
233.8979, 3600.571
234.3800, 3616.251
234.8621, 3587.472
235.3443, 3565.013
235.8264, 3562.534
236.3085, 3583.342
236.7906, 3606.026
237.2727, 3632.742
237.7548, 3659.757
238.2369, 3682.013
238.7191, 3697.838
239.2012, 3711.216
239.6833, 3722.066
240.1654, 3728.475
240.6475, 3740.629
241.1296, 3763.049
241.6118, 3788.563
242.0939, 3803.718
242.5760, 3798.249
243.0581, 3798.879
243.5402, 3817.642
244.0223, 3864.622
244.5045, 3896.002
244.9866, 3904.568
245.4687, 3901.010
245.9508, 3906.249
246.4329, 3924.283
246.9150, 3945.022
247.3972, 3966.039
247.8793, 3990.517
248.3614, 4005.568
248.8435, 4005.979
249.3256, 3998.828
249.8077, 4001.215
250.2899, 4018.554
250.7720, 4036.739
251.2541, 4050.510
251.7362, 4060.844
252.2183, 4063.133
252.7004, 4053.552
253.1826, 4036.936
253.6647, 4026.677
254.1468, 4027.001
254.6289, 4026.707
255.1110, 4020.109
255.5931, 4004.159
256.0753, 3988.970
256.5574, 3973.872
257.0395, 3959.650
257.5216, 3949.568
258.0037, 3946.051
258.4858, 3942.281
258.9680, 3935.823
259.4501, 3928.639
259.9322, 3911.929
260.4143, 3880.104
260.8964, 3839.941
261.3785, 3815.915
261.8607, 3816.140
262.3428, 3816.784
262.8249, 3802.800
263.3070, 3767.458
263.7891, 3740.686
264.2712, 3727.248
264.7534, 3723.146
265.2355, 3716.235
265.7176, 3706.407
266.1997, 3694.011
266.6818, 3679.087
267.1639, 3661.712
267.6461, 3640.795
268.1282, 3613.140
268.6103, 3582.903
269.0924, 3565.458
269.5745, 3565.180
270.0566, 3566.919
270.5387, 3561.134
271.0208, 3546.564
271.5030, 3529.430
271.9851, 3507.718
272.4672, 3484.840
272.9493, 3474.926
273.4314, 3482.552
273.9135, 3488.684
274.3957, 3476.393
274.8778, 3441.564
275.3599, 3421.995
275.8420, 3428.658
276.3241, 3449.347
276.8062, 3440.723
277.2884, 3395.252
277.7705, 3351.801
278.2526, 3342.129
278.7347, 3368.979
279.2168, 3383.460
279.6989, 3377.127
280.1811, 3356.843
280.6632, 3341.311
281.1453, 3331.177
281.6274, 3321.506
282.1095, 3305.935
282.5916, 3284.537
283.0738, 3274.522
283.5559, 3282.056
284.0380, 3298.161
284.5201, 3299.413
285.0022, 3284.867
285.4843, 3267.062
285.9665, 3253.137
286.4486, 3243.100
286.9307, 3236.846
287.4128, 3234.505
287.8949, 3236.001
288.3770, 3244.484
288.8592, 3260.142
289.3413, 3271.276
289.8234, 3267.494
290.3055, 3251.288
290.7876, 3234.924
291.2697, 3218.291
291.7519, 3205.082
292.2340, 3204.678
292.7161, 3216.456
293.1982, 3228.500
293.6803, 3231.385
294.1624, 3228.018
294.6446, 3228.209
295.1267, 3234.124
295.6088, 3242.072
296.0909, 3245.824
296.5730, 3245.940
297.0551, 3247.134
297.5373, 3251.929
298.0194, 3259.917
298.5015, 3272.061
298.9836, 3291.004
299.4657, 3307.599
299.9478, 3307.704
300.4300, 3294.341
300.9121, 3279.154
301.3942, 3264.498
301.8763, 3253.817
302.3584, 3255.219
302.8405, 3273.186
303.3227, 3292.623
303.8048, 3297.572
304.2869, 3291.372
304.7690, 3284.308
305.2511, 3280.657
305.7332, 3279.895
306.2154, 3282.485
306.6975, 3289.625
307.1796, 3295.620
307.6617, 3291.119
308.1438, 3281.605
308.6259, 3279.139
309.1081, 3298.360
309.5901, 3322.314
310.0723, 3336.658
310.5544, 3338.631
311.0365, 3335.591
311.5186, 3327.546
312.0007, 3318.007
312.4828, 3313.371
312.9650, 3315.155
313.4471, 3323.521
313.9292, 3342.807
314.4113, 3376.603
314.8934, 3402.023
315.3755, 3401.531
315.8577, 3387.377
316.3398, 3377.039
316.8219, 3380.751
317.3040, 3386.237
317.7861, 3385.585
318.2682, 3376.632
318.7504, 3374.802
319.2325, 3391.873
319.7146, 3416.582
320.1967, 3435.604
320.6788, 3438.830
321.1609, 3442.297
321.6431, 3453.123
322.1252, 3472.634
322.6073, 3486.629
323.0894, 3484.459
323.5715, 3479.036
324.0536, 3482.345
324.5358, 3505.084
325.0179, 3527.317
325.5000, 3547.097
325.9821, 3564.279
326.4642, 3574.096
326.9464, 3569.731
327.4285, 3561.578
327.9106, 3557.252
328.3927, 3556.029
328.8748, 3559.857
329.3569, 3574.323
329.8391, 3597.856
330.3212, 3606.392
330.8033, 3586.749
331.2854, 3564.246
331.7675, 3555.970
332.2496, 3571.522
332.7318, 3583.935
333.2139, 3588.478
333.6960, 3587.884
334.1781, 3596.941
334.6602, 3622.089
335.1423, 3647.213
335.6245, 3662.283
336.1066, 3662.913
336.5887, 3666.674
337.0708, 3674.702
337.5529, 3686.410
338.0350, 3700.042
338.5172, 3715.693
338.9993, 3733.032
339.4814, 3754.512
339.9635, 3781.539
340.4456, 3798.082
340.9277, 3801.812
341.4099, 3797.169
341.8920, 3788.125
342.3741, 3772.978
342.8562, 3769.305
343.3383, 3792.953
343.8204, 3840.656
344.3026, 3875.179
344.7847, 3893.529
345.2668, 3903.363
345.7489, 3911.983
346.2310, 3919.822
346.7131, 3931.074
347.1953, 3949.469
347.6774, 3972.886
348.1595, 3995.070
348.6416, 4016.007
349.1237, 4034.151
349.6058, 4042.644
350.0880, 4045.778
350.5700, 4057.095
351.0522, 4083.896
351.5343, 4120.995
352.0164, 4165.807
352.4985, 4217.919
352.9806, 4262.546
353.4627, 4281.193
353.9449, 4285.402
354.4270, 4294.344
354.9091, 4317.173
355.3912, 4343.783
355.8733, 4361.870
356.3554, 4373.360
356.8376, 4391.622
357.3197, 4425.798
357.8018, 4469.997
358.2839, 4519.993
358.7660, 4583.832
359.2481, 4639.323
359.7303, 4667.158
360.2124, 4675.597
360.6945, 4690.307
361.1766, 4728.507
361.6587, 4772.211
362.1408, 4810.124
362.6230, 4840.290
363.1051, 4866.234
363.5872, 4882.067
364.0693, 4895.154
364.5514, 4919.321
365.0335, 4972.847
365.5157, 5025.053
365.9978, 5061.995
366.4799, 5074.841
366.9620, 5097.218
367.4441, 5131.593
367.9262, 5177.044
368.4084, 5232.128
368.8905, 5313.916
369.3726, 5386.153
369.8547, 5438.690
370.3368, 5469.518
370.8189, 5499.733
371.3011, 5524.753
371.7832, 5552.818
372.2653, 5593.761
372.7474, 5657.126
373.2295, 5712.719
373.7116, 5754.009
374.1938, 5782.909
374.6759, 5809.936
375.1580, 5830.363
375.6401, 5858.712
376.1222, 5909.929
376.6043, 5987.871
377.0865, 6059.573
377.5686, 6119.816
378.0507, 6172.504
378.5328, 6223.765
379.0149, 6273.062
379.4970, 6327.396
379.9792, 6388.586
380.4613, 6457.810
380.9434, 6540.984
381.4255, 6643.294
381.9076, 6749.575
382.3897, 6831.748
382.8719, 6894.309
383.3540, 6965.427
383.8361, 7065.826
384.3182, 7184.058
384.8003, 7295.625
385.2824, 7399.313
385.7646, 7500.704
386.2467, 7603.381
386.7288, 7708.530
387.2109, 7819.199
387.6930, 7937.682
388.1751, 8062.754
388.6573, 8197.400
389.1394, 8341.950
389.6215, 8486.544
390.1036, 8620.109
390.5857, 8752.074
391.0678, 8895.154
391.5499, 9063.582
392.0320, 9229.630
392.5142, 9367.192
392.9963, 9486.759
393.4784, 9624.029
393.9605, 9811.949
394.4426, 10007.38
394.9247, 10184.78
395.4069, 10334.78
395.8890, 10478.49
396.3711, 10615.53
396.8532, 10749.01
397.3353, 10883.47
397.8174, 11032.31
398.2996, 11170.43
398.7817, 11286.44
399.2638, 11373.79
399.7459, 11464.21
400.2280, 11564.60
400.7101, 11663.67
401.1923, 11753.83
401.6744, 11849.26
402.1565, 11908.03
402.6386, 11910.98
403.1207, 11862.82
403.6028, 11838.76
404.0850, 11855.50
404.5671, 11866.46
405.0492, 11832.78
405.5313, 11746.58
406.0134, 11661.40
406.4955, 11588.26
406.9777, 11516.95
407.4598, 11422.09
407.9419, 11302.29
408.4240, 11166.27
408.9061, 11012.69
409.3882, 10844.41
409.8704, 10685.73
410.3525, 10540.46
410.8346, 10394.55
411.3167, 10219.22
411.7988, 10019.98
412.2809, 9833.577
412.7631, 9686.827
413.2452, 9555.051
413.7273, 9400.078
414.2094, 9221.043
414.6915, 9032.328
415.1736, 8831.540
415.6558, 8631.842
416.1379, 8462.405
416.6200, 8360.169
417.1021, 8255.595
417.5842, 8088.038
418.0663, 7870.202
418.5485, 7662.787
419.0306, 7493.754
419.5127, 7344.916
419.9948, 7201.455
420.4769, 7064.999
420.9590, 6931.113
421.4412, 6797.243
421.9233, 6665.087
422.4054, 6534.617
422.8875, 6408.892
423.3696, 6283.218
423.8517, 6157.383
424.3339, 6034.145
424.8160, 5905.068
425.2981, 5758.852
425.7802, 5615.418
426.2623, 5492.614
426.7444, 5402.640
427.2266, 5314.352
427.7087, 5221.874
428.1908, 5127.167
428.6729, 5034.530
429.1550, 4942.759
429.6371, 4856.145
430.1193, 4778.417
430.6014, 4709.896
431.0835, 4647.815
431.5656, 4592.181
432.0477, 4542.428
432.5298, 4500.407
433.0119, 4466.194
433.4940, 4428.555
433.9762, 4378.914
434.4583, 4320.958
434.9404, 4267.423
435.4225, 4218.276
435.9046, 4174.510
436.3867, 4141.822
436.8689, 4115.818
437.3510, 4085.726
437.8331, 4043.835
438.3152, 3999.969
438.7973, 3962.250
439.2794, 3931.095
439.7616, 3908.729
440.2437, 3904.629
440.7258, 3906.105
441.2079, 3901.273
441.6900, 3886.041
442.1721, 3868.254
442.6543, 3845.929
443.1364, 3824.037
443.6185, 3811.988
444.1006, 3825.554
444.5827, 3838.327
445.0648, 3837.235
445.5470, 3817.471
446.0291, 3807.497
446.5112, 3813.536
446.9933, 3829.182
447.4754, 3849.282
447.9576, 3882.469
448.4397, 3906.722
448.9218, 3913.367
449.4039, 3907.441
449.8860, 3917.942
450.3681, 3950.036
450.8503, 3988.505
451.3324, 4025.898
451.8145, 4061.933
452.2966, 4096.063
452.7787, 4126.746
453.2608, 4158.535
453.7430, 4199.809
454.2251, 4250.314
454.7072, 4305.468
455.1893, 4365.015
455.6714, 4427.842
456.1535, 4493.617
456.6357, 4562.472
457.1178, 4625.835
457.5999, 4671.922
458.0820, 4706.572
458.5641, 4739.455
459.0462, 4767.205
459.5284, 4804.411
460.0105, 4874.400
460.4926, 4967.938
460.9747, 5053.983
461.4568, 5110.206
461.9389, 5157.216
462.4211, 5211.864
462.9032, 5278.868
463.3853, 5340.626
463.8674, 5385.379
464.3495, 5422.375
464.8316, 5462.563
465.3138, 5518.100
465.7959, 5566.871
466.2780, 5601.606
466.7601, 5622.820
467.2422, 5642.120
467.7243, 5651.298
468.2065, 5666.916
468.6886, 5698.208
469.1707, 5750.713
469.6528, 5807.791
470.1349, 5872.291
470.6170, 5939.062
471.0992, 5996.147
471.5813, 6039.981
472.0634, 6088.823
472.5455, 6150.253
473.0276, 6223.086
473.5097, 6294.877
473.9918, 6364.774
474.4739, 6442.044
474.9561, 6544.673
475.4382, 6666.022
475.9203, 6770.528
476.4024, 6847.591
476.8845, 6911.113
477.3666, 6981.769
477.8488, 7056.504
478.3309, 7122.998
478.8130, 7173.751
479.2951, 7212.778
479.7772, 7244.610
480.2593, 7270.055
480.7415, 7286.370
481.2236, 7296.741
481.7057, 7295.383
482.1878, 7275.475
482.6699, 7235.307
483.1520, 7175.362
483.6342, 7088.427
484.1163, 6978.314
484.5984, 6869.941
485.0805, 6784.046
485.5626, 6686.549
486.0447, 6560.170
486.5269, 6391.725
487.0090, 6222.624
487.4911, 6052.013
487.9732, 5883.391
488.4553, 5717.825
488.9374, 5553.502
489.4196, 5403.620
489.9017, 5277.114
490.3838, 5169.649
490.8659, 5042.703
491.3480, 4893.723
491.8301, 4743.723
492.3123, 4608.817
492.7944, 4487.331
493.2765, 4361.163
493.7586, 4226.479
494.2407, 4094.278
494.7228, 3980.145
495.2050, 3882.286
495.6871, 3795.393
496.1692, 3722.163
496.6513, 3654.752
497.1334, 3584.638
497.6155, 3512.298
498.0977, 3439.129
498.5798, 3361.455
499.0619, 3285.968
499.5440, 3220.156
500.0261, 3162.580
500.5082, 3118.512
500.9904, 3104.589
501.4725, 3105.330
501.9546, 3085.899
502.4367, 3012.881
502.9188, 2947.082
503.4009, 2909.244
503.8831, 2904.047
504.3652, 2888.980
504.8473, 2859.939
505.3294, 2825.763
505.8115, 2793.550
506.2936, 2762.896
506.7758, 2735.568
507.2579, 2711.528
507.7400, 2691.172
508.2221, 2677.957
508.7042, 2672.260
509.1863, 2663.295
509.6685, 2641.877
510.1506, 2612.927
510.6327, 2591.588
511.1148, 2578.443
511.5969, 2569.306
512.0790, 2565.441
512.5612, 2562.120
513.0433, 2549.719
513.5254, 2517.081
514.0075, 2486.463
514.4896, 2447.451
514.9717, 2475.080
515.4539, 2490.015
515.9360, 2492.939
516.4181, 2447.878
516.9002, 2464.781
517.3823, 2456.851
517.8644, 2447.903
518.3466, 2473.526
518.8287, 2440.728
519.3108, 2426.542
519.7929, 2421.184
520.2750, 2413.122
520.7571, 2397.637
521.2393, 2379.429
521.7214, 2375.388
522.2035, 2391.552
522.6856, 2404.543
523.1677, 2399.412
523.6498, 2377.248
524.1320, 2372.565
524.6141, 2388.926
525.0962, 2405.804
525.5783, 2398.197
526.0604, 2371.866
526.5425, 2349.306
527.0247, 2337.257
527.5068, 2330.540
527.9889, 2323.150
528.4710, 2315.955
528.9531, 2311.582
529.4352, 2314.351
529.9174, 2318.628
530.3995, 2321.633
530.8816, 2323.447
531.3637, 2318.834
531.8458, 2295.600
532.3279, 2270.169
532.8101, 2257.131
533.2922, 2271.546
533.7743, 2283.310
534.2564, 2289.918
534.7385, 2291.568
535.2206, 2288.307
535.7027, 2276.987
536.1848, 2265.956
536.6669, 2258.571
537.1490, 2255.105
537.6312, 2247.432
538.1133, 2233.618
538.5954, 2221.162
539.0775, 2217.855
539.5596, 2223.074
540.0417, 2230.487
540.5239, 2240.564
541.0060, 2249.375
541.4881, 2247.946
541.9702, 2239.220
542.4523, 2234.332
542.9344, 2248.104
543.4166, 2262.910
543.8987, 2256.844
544.3808, 2230.465
544.8629, 2207.136
545.3450, 2202.808
545.8271, 2205.260
546.3093, 2203.860
546.7914, 2189.895
547.2735, 2183.323
547.7556, 2196.839
548.2377, 2218.825
548.7198, 2227.811
549.2020, 2209.209
549.6841, 2196.780
550.1662, 2199.128
550.6483, 2215.255
551.1304, 2232.949
551.6125, 2255.817
552.0947, 2270.918
552.5768, 2264.660
553.0589, 2237.347
553.5410, 2220.165
554.0231, 2216.852
554.5052, 2218.524
554.9874, 2211.271
555.4695, 2198.369
555.9516, 2192.204
556.4337, 2203.293
556.9158, 2217.789
557.3979, 2218.984
557.8801, 2209.325
558.3622, 2199.884
558.8443, 2194.317
559.3264, 2192.784
559.8085, 2196.705
560.2906, 2207.895
560.7728, 2217.115
561.2549, 2223.644
561.7370, 2226.361
562.2191, 2223.842
562.7012, 2209.197
563.1833, 2199.350
563.6655, 2196.528
564.1476, 2199.352
564.6297, 2205.466
565.1118, 2217.907
565.5939, 2224.241
566.0760, 2215.430
566.5582, 2193.772
567.0403, 2182.745
567.5224, 2182.879
568.0045, 2190.033
568.4866, 2206.433
568.9688, 2226.978
569.4509, 2236.049
569.9330, 2227.465
570.4151, 2214.920
570.8972, 2208.964
571.3793, 2209.170
571.8615, 2214.794
572.3436, 2231.517
572.8257, 2248.254
573.3078, 2260.190
573.7899, 2267.252
574.2720, 2269.390
574.7542, 2263.461
575.2363, 2255.091
575.7184, 2246.000
576.2005, 2231.453
576.6826, 2228.917
577.1647, 2242.931
577.6469, 2264.582
578.1290, 2284.425
578.6111, 2303.662
579.0932, 2314.253
579.5753, 2311.717
580.0574, 2302.199
580.5396, 2300.214
581.0217, 2305.571
581.5038, 2314.927
581.9859, 2332.634
582.4680, 2350.822
582.9501, 2352.216
583.4323, 2336.413
583.9144, 2322.811
584.3965, 2325.816
584.8786, 2338.010
585.3607, 2352.222
585.8428, 2368.265
586.3250, 2383.028
586.8071, 2399.430
587.2892, 2413.171
587.7713, 2416.902
588.2534, 2396.445
588.7355, 2381.469
589.2177, 2378.223
589.6998, 2385.492
590.1819, 2393.153
590.6640, 2400.118
591.1461, 2410.219
591.6282, 2427.620
592.1104, 2452.175
592.5925, 2471.181
593.0746, 2483.883
593.5567, 2493.464
594.0388, 2499.138
594.5209, 2504.106
595.0031, 2518.706
595.4852, 2549.590
595.9673, 2583.343
596.4494, 2609.444
596.9315, 2628.539
597.4136, 2641.922
597.8958, 2641.096
598.3779, 2642.976
598.8600, 2656.958
599.3421, 2683.413
599.8242, 2710.560
600.3063, 2736.965
600.7885, 2763.859
601.2706, 2791.727
601.7527, 2822.672
602.2348, 2849.500
602.7169, 2870.450
603.1990, 2889.319
603.6812, 2909.918
604.1633, 2931.899
604.6454, 2958.292
605.1275, 2991.159
605.6096, 3026.224
606.0917, 3056.395
606.5739, 3081.766
607.0560, 3104.665
607.5381, 3123.471
608.0202, 3141.858
608.5023, 3164.574
608.9844, 3191.506
609.4666, 3216.985
609.9487, 3235.504
610.4308, 3253.586
610.9129, 3277.295
611.3950, 3315.025
611.8771, 3343.146
612.3593, 3353.022
612.8414, 3355.289
613.3235, 3361.872
613.8056, 3376.117
614.2877, 3387.372
614.7698, 3393.654
615.2520, 3395.947
615.7341, 3398.871
616.2162, 3402.950
616.6983, 3398.737
617.1804, 3373.647
617.6625, 3337.548
618.1446, 3319.552
618.6267, 3318.949
619.1088, 3318.517
619.5909, 3307.200
620.0731, 3287.699
620.5552, 3262.487
621.0373, 3230.540
621.5194, 3197.899
622.0015, 3167.017
622.4836, 3136.824
622.9658, 3105.836
623.4479, 3071.227
623.9300, 3039.097
624.4121, 3009.305
624.8942, 2982.705
625.3763, 2962.395
625.8585, 2952.056
626.3406, 2937.672
626.8227, 2912.924
627.3048, 2879.212
627.7869, 2845.463
628.2690, 2811.393
628.7512, 2779.053
629.2333, 2749.026
629.7154, 2721.704
630.1975, 2698.712
630.6796, 2680.761
631.1617, 2663.579
631.6439, 2645.836
632.1260, 2626.030
632.6081, 2602.500
633.0902, 2570.573
633.5723, 2539.540
634.0544, 2513.005
634.5366, 2489.313
635.0187, 2464.562
635.5008, 2438.054
635.9829, 2410.785
636.4650, 2381.685
636.9471, 2351.538
637.4293, 2330.929
637.9114, 2321.654
638.3935, 2314.518
638.8756, 2302.387
639.3577, 2287.048
639.8398, 2278.095
640.3220, 2276.621
640.8041, 2274.052
641.2862, 2260.017
641.7683, 2240.255
642.2504, 2223.673
642.7325, 2212.664
643.2147, 2204.441
643.6968, 2198.945
644.1789, 2194.953
644.6610, 2190.262
645.1431, 2188.717
645.6252, 2181.178
646.1074, 2160.029
646.5895, 2130.681
647.0716, 2120.055
647.5537, 2136.097
648.0358, 2151.883
648.5179, 2154.220
649.0001, 2145.063
649.4822, 2144.519
649.9643, 2153.299
650.4464, 2162.055
650.9285, 2163.648
651.4106, 2159.395
651.8928, 2151.075
652.3749, 2138.338
652.8570, 2125.120
653.3391, 2112.984
653.8212, 2102.656
654.3033, 2095.043
654.7855, 2092.171
655.2676, 2089.880
655.7497, 2088.169
656.2318, 2086.317
656.7139, 2082.842
657.1960, 2077.349
657.6782, 2070.643
658.1603, 2061.808
658.6424, 2051.909
659.1245, 2047.347
659.6066, 2048.649
660.0887, 2050.560
660.5709, 2049.536
661.0530, 2046.757
661.5351, 2046.517
662.0172, 2048.976
662.4993, 2048.632
662.9814, 2036.832
663.4636, 2022.056
663.9457, 2013.376
664.4278, 2013.551
664.9099, 2017.106
665.3920, 2024.187
665.8741, 2032.890
666.3563, 2040.890
666.8384, 2050.420
667.3205, 2055.553
667.8026, 2055.243
668.2847, 2050.515
668.7668, 2041.783
669.2490, 2027.759
669.7311, 2019.709
670.2132, 2024.566
670.6953, 2036.678
671.1774, 2041.568
671.6595, 2039.941
672.1417, 2037.457
672.6238, 2037.512
673.1059, 2038.696
673.5880, 2040.356
674.0701, 2042.453
674.5522, 2042.335
675.0344, 2038.353
675.5165, 2032.019
675.9986, 2023.506
676.4807, 2006.341
676.9628, 2001.146
677.4449, 2014.754
677.9271, 2033.662
678.4092, 2042.717
678.8913, 2041.169
679.3734, 2033.362
679.8555, 2016.383
680.3376, 2000.448
680.8198, 2010.830
681.3019, 2040.263
681.7840, 2057.462
682.2661, 2038.587
682.7482, 2011.871
683.2303, 2004.914
683.7125, 2012.772
684.1946, 2017.733
684.6767, 2007.167
685.1588, 1996.993
685.6409, 1994.420
686.1230, 2000.501
686.6052, 2007.863
687.0873, 2018.984
687.5694, 2027.866
688.0515, 2030.479
688.5336, 2025.953
689.0157, 2023.129
689.4979, 2022.445
689.9800, 2021.327
690.4621, 2014.520
690.9442, 2005.218
691.4263, 2002.625
691.9084, 2009.837
692.3906, 2019.334
692.8727, 2028.840
693.3548, 2035.403
693.8369, 2034.902
694.3190, 2012.125
694.8011, 1997.874
695.2833, 2007.398
695.7654, 2030.397
696.2475, 2040.974
696.7296, 2030.264
697.2117, 2025.010
697.6938, 2035.146
698.1760, 2055.497
698.6581, 2062.163
699.1402, 2054.868
699.6223, 2004.866
700.1044, 2030.851
700.5865, 2045.956
701.0686, 2050.766
701.5507, 2014.446
702.0328, 2031.237
702.5150, 2026.744
702.9971, 2021.377
703.4792, 2045.644
703.9613, 2015.305
704.4434, 2039.102
704.9255, 2059.473
705.4077, 2065.786
705.8898, 2063.949
706.3719, 2047.086
706.8540, 2044.857
707.3361, 2064.139
707.8182, 2087.315
708.3004, 2088.263
708.7825, 2069.452
709.2646, 2049.854
709.7467, 2032.090
710.2288, 2019.574
710.7109, 2017.833
711.1931, 2024.432
711.6752, 2034.131
712.1573, 2051.436
712.6394, 2064.601
713.1215, 2066.233
713.6036, 2058.909
714.0858, 2053.830
714.5679, 2052.909
715.0500, 2052.746
715.5321, 2052.561
716.0142, 2052.366
716.4963, 2051.961
716.9785, 2051.275
717.4606, 2051.114
717.9427, 2054.419
718.4248, 2058.383
718.9069, 2052.598
719.3890, 2037.139
719.8712, 2025.195
720.3533, 2031.679
720.8354, 2043.511
721.3175, 2046.601
721.7996, 2035.441
722.2817, 2029.854
722.7639, 2043.900
723.2460, 2059.607
723.7281, 2060.620
724.2102, 2035.469
724.6923, 2025.473
725.1744, 2036.059
725.6566, 2055.796
726.1387, 2074.132
726.6208, 2089.846
727.1029, 2089.527
727.5850, 2064.182
728.0671, 2035.391
728.5493, 2032.781
729.0314, 2046.772
729.5135, 2057.266
729.9956, 2051.028
730.4777, 2045.107
730.9598, 2048.713
731.4420, 2058.608
731.9241, 2063.809
732.4062, 2063.687
732.8883, 2058.589
733.3704, 2045.290
733.8525, 2027.005
734.3347, 2022.488
734.8168, 2033.038
735.2989, 2044.457
735.7810, 2048.977
736.2631, 2048.684
736.7452, 2048.213
737.2274, 2047.452
737.7095, 2045.068
738.1916, 2035.048
738.6737, 2026.775
739.1558, 2028.071
739.6379, 2040.672
740.1201, 2055.880
740.6022, 2083.083
741.0843, 2102.813
741.5664, 2100.267
742.0485, 2065.504
742.5306, 2052.355
743.0128, 2066.061
743.4949, 2086.361
743.9770, 2091.638
744.4591, 2085.509
744.9412, 2081.079
745.4233, 2079.422
745.9055, 2084.115
746.3876, 2106.021
746.8697, 2133.543
747.3518, 2150.814
747.8339, 2149.174
748.3160, 2143.185
748.7982, 2129.635
749.2803, 2116.128
749.7624, 2114.529
750.2445, 2130.692
750.7266, 2143.873
751.2087, 2151.593
751.6909, 2153.583
752.1730, 2144.729
752.6551, 2127.270
753.1372, 2118.749
753.6193, 2130.450
754.1014, 2149.393
754.5836, 2163.070
755.0657, 2171.920
755.5478, 2177.464
756.0299, 2174.561
756.5120, 2174.199
756.9941, 2183.353
757.4763, 2200.227
757.9584, 2211.566
758.4405, 2215.970
758.9226, 2216.971
759.4047, 2213.391
759.8868, 2207.180
760.3690, 2211.129
760.8511, 2225.222
761.3332, 2242.331
761.8153, 2262.034
762.2974, 2279.908
762.7795, 2288.396
763.2617, 2287.711
763.7438, 2285.964
764.2259, 2279.299
764.7080, 2279.151
765.1901, 2296.968
765.6722, 2341.275
766.1544, 2365.623
766.6365, 2359.456
767.1186, 2349.332
767.6007, 2354.639
768.0828, 2375.410
768.5649, 2395.135
769.0471, 2413.852
769.5292, 2426.992
770.0113, 2427.629
770.4934, 2420.529
770.9755, 2412.230
771.4576, 2402.617
771.9398, 2397.600
772.4219, 2401.761
772.9040, 2411.110
773.3861, 2422.038
773.8682, 2436.730
774.3503, 2448.098
774.8325, 2453.131
775.3146, 2458.361
775.7967, 2474.229
776.2788, 2500.705
776.7609, 2520.015
777.2430, 2528.353
777.7252, 2531.591
778.2073, 2534.289
778.6894, 2537.736
779.1715, 2544.715
779.6536, 2558.531
780.1357, 2572.185
780.6179, 2584.617
781.1000, 2594.343
781.5821, 2598.366
782.0642, 2589.638
782.5463, 2588.465
783.0284, 2601.872
783.5105, 2620.219
783.9926, 2620.723
784.4747, 2603.981
784.9568, 2590.805
785.4390, 2589.022
785.9211, 2592.532
786.4032, 2593.275
786.8853, 2592.471
787.3674, 2593.067
787.8495, 2600.829
788.3317, 2605.526
788.8138, 2600.637
789.2959, 2588.751
789.7780, 2580.360
790.2601, 2578.093
790.7422, 2574.219
791.2244, 2565.886
791.7065, 2554.626
792.1886, 2543.282
792.6707, 2532.247
793.1528, 2528.823
793.6349, 2547.141
794.1171, 2568.236
794.5992, 2567.058
795.0813, 2548.083
795.5634, 2528.736
796.0455, 2515.654
796.5276, 2504.999
797.0098, 2495.955
797.4919, 2488.290
797.9740, 2480.336
798.4561, 2473.213
798.9382, 2462.714
799.4203, 2443.752
799.9025, 2420.318
800.3846, 2411.445
800.8667, 2416.299
801.3488, 2422.514
801.8309, 2424.269
802.3130, 2421.818
802.7952, 2413.250
803.2773, 2399.213
803.7594, 2387.488
804.2415, 2385.958
804.7236, 2381.928
805.2057, 2366.849
805.6879, 2340.475
806.1700, 2329.732
806.6521, 2338.495
807.1342, 2348.579
807.6163, 2347.460
808.0984, 2338.628
808.5806, 2333.598
809.0627, 2332.396
809.5448, 2332.613
810.0269, 2328.245
810.5090, 2327.720
810.9911, 2340.886
811.4733, 2369.805
811.9554, 2392.010
812.4375, 2398.203
812.9196, 2402.970
813.4017, 2415.759
813.8839, 2437.597
814.3660, 2438.516
814.8481, 2415.976
815.3302, 2392.644
815.8123, 2384.163
816.2944, 2387.822
816.7766, 2402.809
817.2587, 2428.681
817.7408, 2448.518
818.2229, 2443.251
818.7050, 2435.711
819.1871, 2446.121
819.6693, 2485.836
820.1514, 2495.290
820.6335, 2457.905
821.1156, 2417.933
821.5977, 2407.961
822.0798, 2425.487
822.5620, 2427.708
823.0441, 2413.650
823.5262, 2392.144
824.0083, 2366.321
824.4904, 2339.627
824.9725, 2318.028
825.4547, 2303.117
825.9368, 2281.038
826.4189, 2230.399
826.9010, 2184.856
827.3831, 2168.570
827.8652, 2189.462
828.3474, 2191.167
828.8295, 2169.460
829.3116, 2142.252
829.7937, 2123.683
830.2758, 2111.064
830.7579, 2095.529
831.2401, 2076.425
831.7222, 2059.116
832.2043, 2051.045
832.6864, 2044.155
833.1685, 2030.386
833.6506, 2006.524
834.1328, 1989.520
834.6149, 1982.587
835.0970, 1980.498
835.5791, 1982.719
836.0612, 1989.839
836.5433, 1985.135
837.0255, 1967.695
837.5076, 1949.385
837.9897, 1939.013
838.4718, 1934.228
838.9539, 1933.634
839.4360, 1937.210
839.9182, 1936.067
840.4003, 1916.251
840.8824, 1898.380
841.3645, 1898.136
841.8466, 1918.755
842.3287, 1930.790
842.8109, 1932.919
843.2930, 1929.610
843.7751, 1923.772
844.2572, 1915.025
844.7393, 1898.220
845.2214, 1873.819
845.7036, 1856.745
846.1857, 1867.257
846.6678, 1882.840
847.1499, 1881.878
847.6320, 1860.997
848.1141, 1850.703
848.5963, 1862.557
849.0784, 1876.652
849.5605, 1885.179
850.0426, 1888.210
850.5247, 1881.933
851.0068, 1865.536
851.4890, 1852.605
851.9711, 1855.584
852.4532, 1866.104
852.9353, 1873.681
853.4174, 1877.777
853.8995, 1878.747
854.3817, 1874.098
854.8638, 1868.590
855.3459, 1863.746
855.8280, 1859.616
856.3101, 1858.903
856.7922, 1862.454
857.2744, 1866.455
857.7565, 1869.425
858.2386, 1871.235
858.7207, 1870.398
859.2028, 1867.503
859.6849, 1865.983
860.1671, 1870.192
860.6492, 1874.526
861.1313, 1877.886
861.6134, 1879.251
862.0955, 1869.336
862.5776, 1833.731
863.0598, 1811.115
863.5419, 1818.768
864.0240, 1847.053
864.5061, 1856.227
864.9882, 1847.419
865.4703, 1840.309
865.9524, 1849.622
866.4345, 1861.859
866.9166, 1859.883
867.3987, 1848.587
867.8809, 1842.322
868.3630, 1858.598
868.8451, 1865.161
869.3272, 1846.821
869.8093, 1815.177
870.2914, 1804.629
870.7736, 1817.432
871.2557, 1831.344
871.7378, 1840.604
872.2199, 1845.635
872.7020, 1845.589
873.1841, 1841.894
873.6663, 1838.219
874.1484, 1836.604
874.6305, 1834.672
875.1126, 1832.164
875.5947, 1828.548
876.0768, 1821.929
876.5590, 1808.047
877.0411, 1804.103
877.5232, 1815.637
878.0053, 1832.655
878.4874, 1841.450
878.9695, 1842.355
879.4517, 1834.340
879.9338, 1811.381
880.4159, 1794.207
880.8980, 1803.890
881.3801, 1824.818
881.8622, 1837.743
882.3444, 1835.241
882.8265, 1831.275
883.3086, 1824.354
883.7907, 1818.327
884.2728, 1819.549
884.7549, 1826.762
885.2371, 1826.434
885.7192, 1815.354
886.2013, 1808.484
886.6834, 1830.493
887.1655, 1858.123
887.6476, 1861.411
888.1298, 1822.334
888.6119, 1807.174
889.0940, 1845.688
889.5761, 1887.836
890.0582, 1899.574
890.5403, 1878.794
891.0225, 1861.615
891.5046, 1847.997
891.9867, 1838.506
892.4688, 1835.770
892.9509, 1836.449
893.4330, 1837.317
893.9152, 1838.037
894.3973, 1836.866
894.8794, 1829.614
895.3615, 1823.979
895.8436, 1825.408
896.3257, 1833.203
896.8079, 1828.718
897.2900, 1809.901
897.7721, 1795.233
898.2542, 1798.300
898.7363, 1810.826
899.2184, 1818.993
899.7006, 1823.625
900.1827, 1827.719
900.6648, 1830.771
901.1469, 1835.662
901.6290, 1848.315
902.1111, 1863.915
902.5933, 1865.047
903.0754, 1847.856
903.5575, 1831.326
904.0396, 1820.572
904.5217, 1814.162
905.0038, 1809.810
905.4860, 1807.598
905.9681, 1807.760
906.4502, 1812.362
906.9323, 1816.818
907.4144, 1819.268
907.8965, 1820.105
908.3787, 1820.236
908.8608, 1820.551
909.3429, 1816.564
909.8250, 1805.094
910.3071, 1795.422
910.7892, 1803.787
911.2714, 1824.567
911.7535, 1841.952
912.2356, 1853.123
912.7177, 1859.065
913.1998, 1855.974
913.6819, 1850.611
914.1641, 1849.770
914.6462, 1856.881
915.1283, 1859.494
915.6104, 1856.371
916.0925, 1851.592
916.5746, 1847.308
917.0568, 1844.047
917.5389, 1846.222
918.0210, 1853.604
918.5031, 1856.629
918.9852, 1840.751
919.4673, 1824.742
919.9495, 1824.620
920.4316, 1841.636
920.9137, 1850.154
921.3958, 1845.673
921.8779, 1840.176
922.3600, 1836.873
922.8422, 1836.778
923.3243, 1846.059
923.8064, 1863.046
924.2885, 1878.434
924.7706, 1888.406
925.2527, 1893.598
925.7349, 1894.100
926.2170, 1890.015
926.6991, 1880.939
927.1812, 1859.600
927.6633, 1847.537
928.1454, 1849.652
928.6276, 1860.687
929.1097, 1874.619
929.5918, 1889.854
930.0739, 1897.775
930.5560, 1893.532
931.0381, 1889.254
931.5203, 1898.398
932.0024, 1910.715
932.4845, 1914.388
932.9666, 1901.363
933.4487, 1890.605
933.9308, 1879.531
934.4130, 1875.344
934.8951, 1891.440
935.3772, 1921.895
935.8593, 1931.786
936.3414, 1918.994
936.8235, 1903.423
937.3057, 1893.056
937.7878, 1891.111
938.2699, 1903.456
938.7520, 1931.269
939.2341, 1953.234
939.7162, 1968.128
940.1984, 1977.892
940.6805, 1982.610
941.1626, 1983.179
941.6447, 1981.182
942.1268, 1977.446
942.6089, 1976.667
943.0911, 1982.938
943.5732, 1991.397
944.0553, 2002.058
944.5374, 2012.432
945.0195, 2015.578
945.5016, 2010.271
945.9838, 1998.873
946.4659, 1977.722
946.9480, 1957.523
947.4301, 1956.715
947.9122, 1971.776
948.3943, 1991.760
948.8764, 2017.127
949.3585, 2036.012
949.8406, 2037.172
950.3228, 2030.365
950.8049, 2024.220
951.2870, 2017.621
951.7691, 2018.789
952.2512, 2030.536
952.7333, 2042.580
953.2155, 2047.275
953.6976, 2045.699
954.1797, 2038.806
954.6618, 2027.256
955.1439, 2017.658
955.6260, 2007.291
956.1082, 2006.203
956.5903, 2028.724
957.0724, 2069.035
957.5545, 2089.045
958.0366, 2085.596
958.5187, 2071.889
959.0009, 2047.018
959.4830, 2021.401
959.9651, 2016.681
960.4472, 2027.949
960.9293, 2042.274
961.4114, 2060.978
961.8936, 2073.518
962.3757, 2070.841
962.8578, 2062.191
963.3399, 2059.406
963.8220, 2064.123
964.3041, 2066.096
964.7863, 2063.467
965.2684, 2062.591
965.7505, 2074.746
966.2326, 2091.383
966.7147, 2096.914
967.1968, 2088.134
967.6790, 2083.563
968.1611, 2098.045
968.6432, 2110.568
969.1253, 2107.511
969.6074, 2090.610
970.0895, 2095.422
970.5717, 2123.158
971.0538, 2144.758
971.5359, 2137.822
972.0180, 2121.366
972.5001, 2118.477
972.9822, 2124.666
973.4644, 2127.356
973.9465, 2116.188
974.4286, 2110.255
974.9107, 2115.703
975.3928, 2124.949
975.8749, 2123.231
976.3571, 2111.868
976.8392, 2107.905
977.3213, 2116.062
977.8034, 2124.194
978.2855, 2117.125
978.7676, 2106.474
979.2498, 2104.913
979.7319, 2116.716
980.2140, 2130.237
980.6961, 2148.028
981.1782, 2161.700
981.6603, 2165.031
982.1425, 2159.750
982.6246, 2154.322
983.1067, 2148.652
983.5888, 2141.648
984.0709, 2128.074
984.5530, 2117.523
985.0352, 2116.600
985.5173, 2123.835
985.9994, 2133.024
986.4815, 2147.105
986.9636, 2153.844
987.4457, 2149.925
987.9279, 2139.881
988.4100, 2126.192
988.8921, 2112.575
989.3742, 2108.224
989.8563, 2118.001
990.3384, 2128.769
990.8206, 2138.901
991.3027, 2144.467
991.7848, 2139.860
992.2669, 2122.022
992.7490, 2123.052
993.2311, 2144.888
993.7133, 2166.193
994.1954, 2169.010
994.6775, 2163.273
995.1596, 2160.031
995.6417, 2159.302
996.1238, 2158.939
996.6060, 2161.459
997.0881, 2159.766
997.5702, 2149.209
998.0523, 2136.065
998.5344, 2136.351
999.0165, 2148.373
999.4987, 2157.198
999.9808, 2158.591
1000.463, 2156.858
1000.945, 2153.360
1001.427, 2150.051
1001.909, 2149.447
1002.391, 2154.119
1002.873, 2154.871
1003.356, 2150.179
1003.838, 2145.345
1004.320, 2144.271
1004.802, 2146.161
1005.284, 2148.436
1005.766, 2151.184
1006.248, 2155.118
1006.730, 2161.274
1007.213, 2168.062
1007.695, 2175.063
1008.177, 2182.062
1008.659, 2188.599
1009.141, 2194.544
1009.623, 2201.099
1010.105, 2209.681
1010.587, 2215.343
1011.069, 2206.492
1011.552, 2192.253
1012.034, 2187.232
1012.516, 2198.974
1012.998, 2206.919
1013.480, 2205.087
1013.962, 2201.703
1014.444, 2201.631
1014.926, 2204.755
1015.409, 2209.813
1015.891, 2216.629
1016.373, 2221.336
1016.855, 2221.548
1017.337, 2218.939
1017.819, 2210.989
1018.301, 2201.046
1018.783, 2200.324
1019.265, 2211.510
1019.748, 2226.681
1020.230, 2246.627
1020.712, 2264.853
1021.194, 2269.651
1021.676, 2265.505
1022.158, 2261.697
1022.640, 2259.581
1023.122, 2260.165
1023.604, 2264.125
1024.087, 2270.920
1024.569, 2281.851
1025.051, 2296.632
1025.533, 2300.503
1026.015, 2293.143
1026.497, 2290.043
1026.979, 2308.198
1027.461, 2328.735
1027.943, 2329.317
1028.426, 2317.224
1028.908, 2310.286
1029.390, 2314.883
1029.872, 2321.262
1030.354, 2329.809
1030.836, 2337.730
1031.318, 2338.836
1031.800, 2336.028
1032.283, 2340.738
1032.765, 2354.842
1033.247, 2368.597
1033.729, 2378.338
1034.211, 2383.505
1034.693, 2382.938
1035.175, 2377.172
1035.657, 2367.434
1036.140, 2352.658
1036.622, 2344.501
1037.104, 2350.808
1037.586, 2362.569
1038.068, 2366.333
1038.550, 2366.781
1039.032, 2372.456
1039.514, 2391.721
1039.996, 2408.282
1040.479, 2423.222
1040.961, 2432.512
1041.443, 2427.903
1041.925, 2413.110
1042.407, 2413.815
1042.889, 2430.250
1043.371, 2438.709
1043.853, 2408.191
1044.335, 2379.448
1044.818, 2384.274
1045.300, 2413.782
1045.782, 2427.033
1046.264, 2420.809
1046.746, 2414.392
1047.228, 2411.601
1047.710, 2413.635
1048.192, 2427.837
1048.675, 2445.739
1049.157, 2454.032
1049.639, 2447.769
1050.121, 2436.947
1050.603, 2417.563
1051.085, 2402.368
1051.567, 2401.053
1052.049, 2411.383
1052.531, 2421.823
1053.014, 2431.655
1053.496, 2435.542
1053.978, 2423.867
1054.460, 2412.474
1054.942, 2411.048
1055.424, 2416.024
1055.906, 2419.979
1056.388, 2423.803
1056.870, 2421.057
1057.353, 2409.477
1057.835, 2398.234
1058.317, 2401.266
1058.799, 2408.611
1059.281, 2404.879
1059.763, 2387.464
1060.245, 2379.315
1060.727, 2389.467
1061.210, 2401.839
1061.692, 2413.948
1062.174, 2422.057
1062.656, 2410.922
1063.138, 2385.432
1063.620, 2363.903
1064.102, 2348.756
1064.584, 2347.220
1065.067, 2385.044
1065.549, 2423.203
1066.031, 2419.008
1066.513, 2361.841
1066.995, 2323.448
1067.477, 2304.328
1067.959, 2299.781
1068.441, 2319.066
1068.923, 2341.144
1069.406, 2337.597
1069.888, 2315.639
1070.370, 2310.245
1070.852, 2341.470
1071.334, 2359.474
1071.816, 2351.354
1072.298, 2336.298
1072.780, 2348.395
1073.262, 2375.436
1073.745, 2386.162
1074.227, 2373.992
1074.709, 2358.283
1075.191, 2344.657
1075.673, 2333.230
1076.155, 2322.043
1076.637, 2312.573
1077.119, 2320.005
1077.601, 2343.067
1078.084, 2359.689
1078.566, 2355.370
1079.048, 2348.672
1079.530, 2355.256
1080.012, 2369.198
1080.494, 2382.413
1080.976, 2395.750
1081.458, 2403.929
1081.941, 2406.439
1082.423, 2405.337
1082.905, 2399.996
1083.387, 2393.341
1083.869, 2389.821
1084.351, 2389.441
1084.833, 2391.288
1085.315, 2391.115
1085.797, 2399.932
1086.280, 2424.866
1086.762, 2453.845
1087.244, 2463.257
1087.726, 2458.257
1088.208, 2463.901
1088.690, 2486.362
1089.172, 2497.572
1089.654, 2461.759
1090.136, 2425.524
1090.619, 2421.261
1091.101, 2444.847
1091.583, 2464.325
1092.065, 2479.588
1092.547, 2493.079
1093.029, 2505.456
1093.511, 2516.992
1093.993, 2528.424
1094.476, 2539.021
1094.958, 2548.030
1095.440, 2555.164
1095.922, 2561.495
1096.404, 2567.344
1096.886, 2571.574
1097.368, 2572.379
1097.850, 2571.334
1098.333, 2569.894
1098.815, 2569.044
1099.297, 2572.420
1099.779, 2586.471
1100.261, 2597.774
1100.743, 2602.749
1101.225, 2605.185
1101.707, 2610.110
1102.189, 2617.215
1102.672, 2623.767
1103.154, 2629.473
1103.636, 2639.873
1104.118, 2670.413
1104.600, 2695.235
1105.082, 2695.938
1105.564, 2678.499
1106.046, 2660.322
1106.528, 2640.901
1107.011, 2642.013
1107.493, 2677.155
1107.975, 2713.097
1108.457, 2715.725
1108.939, 2701.864
1109.421, 2687.616
1109.903, 2671.700
1110.385, 2676.691
1110.868, 2709.409
1111.350, 2736.679
1111.832, 2736.726
1112.314, 2723.039
1112.796, 2717.773
1113.278, 2717.727
1113.760, 2716.018
1114.242, 2697.943
1114.724, 2698.698
1115.207, 2729.319
1115.689, 2764.123
1116.171, 2778.757
1116.653, 2776.970
1117.135, 2767.328
1117.617, 2751.945
1118.099, 2743.245
1118.581, 2753.676
1119.063, 2765.047
1119.546, 2772.836
1120.028, 2775.998
1120.510, 2767.232
1120.992, 2748.812
1121.474, 2752.198
1121.956, 2784.661
1122.438, 2814.156
1122.920, 2819.251
1123.403, 2809.679
1123.885, 2783.771
1124.367, 2746.936
1124.849, 2735.327
1125.331, 2751.048
1125.813, 2769.554
1126.295, 2785.268
1126.777, 2794.697
1127.260, 2787.063
1127.742, 2774.154
1128.224, 2771.256
1128.706, 2784.393
1129.188, 2794.128
1129.670, 2799.595
1130.152, 2804.613
1130.634, 2812.791
1131.116, 2820.843
1131.599, 2820.616
1132.081, 2815.876
1132.563, 2815.535
1133.045, 2830.235
1133.527, 2837.358
1134.009, 2833.214
1134.491, 2824.956
1134.973, 2814.606
1135.455, 2806.035
1135.938, 2816.909
1136.420, 2844.031
1136.902, 2864.206
1137.384, 2866.173
1137.866, 2857.731
1138.348, 2832.291
1138.830, 2807.298
1139.312, 2817.393
1139.795, 2855.610
1140.277, 2874.382
1140.759, 2867.190
1141.241, 2858.545
1141.723, 2867.907
1142.205, 2877.421
1142.687, 2875.001
1143.169, 2864.538
1143.651, 2861.115
1144.134, 2864.605
1144.616, 2862.043
1145.098, 2847.627
1145.580, 2836.313
1146.062, 2848.651
1146.544, 2864.959
1147.026, 2863.816
1147.508, 2843.975
1147.990, 2836.340
1148.473, 2842.416
1148.955, 2847.014
1149.437, 2840.386
1149.919, 2834.023
1150.401, 2845.852
1150.883, 2864.890
1151.365, 2874.419
1151.847, 2867.820
1152.330, 2862.655
1152.812, 2858.737
1153.294, 2856.839
1153.776, 2862.521
1154.258, 2867.326
1154.740, 2854.229
1155.222, 2829.518
1155.704, 2808.712
1156.186, 2794.820
1156.669, 2789.139
1157.151, 2794.024
1157.633, 2801.875
1158.115, 2807.598
1158.597, 2810.036
1159.079, 2805.042
1159.561, 2793.595
1160.043, 2782.297
1160.526, 2767.987
1161.008, 2763.093
1161.490, 2773.152
1161.972, 2788.251
1162.454, 2794.774
1162.936, 2794.132
1163.418, 2788.371
1163.900, 2777.857
1164.382, 2772.556
1164.865, 2790.881
1165.347, 2797.645
1165.829, 2773.555
1166.311, 2735.804
1166.793, 2730.367
1167.275, 2750.226
1167.757, 2762.622
1168.239, 2760.846
1168.721, 2750.425
1169.204, 2723.065
1169.686, 2699.731
1170.168, 2694.730
1170.650, 2703.419
1171.132, 2702.451
1171.614, 2692.583
1172.096, 2679.197
1172.578, 2661.159
1173.061, 2647.199
1173.543, 2644.090
1174.025, 2646.715
1174.507, 2652.676
1174.989, 2661.656
1175.471, 2653.438
1175.953, 2628.981
1176.435, 2610.268
1176.917, 2613.682
1177.400, 2619.698
1177.882, 2612.765
1178.364, 2601.165
1178.846, 2597.157
1179.328, 2604.292
1179.810, 2596.156
1180.292, 2572.239
1180.774, 2550.313
1181.256, 2545.891
1181.739, 2544.539
1182.221, 2534.497
1182.703, 2518.809
1183.185, 2503.669
1183.667, 2488.549
1184.149, 2476.598
1184.631, 2467.604
1185.113, 2464.152
1185.596, 2474.668
1186.078, 2486.341
1186.560, 2486.678
1187.042, 2477.620
1187.524, 2468.019
1188.006, 2458.129
1188.488, 2448.597
1188.970, 2439.616
1189.453, 2430.159
1189.935, 2419.245
1190.417, 2407.160
1190.899, 2393.336
1191.381, 2378.312
1191.863, 2364.817
1192.345, 2350.667
1192.827, 2348.600
1193.309, 2365.037
1193.792, 2380.230
1194.274, 2368.587
1194.756, 2343.635
1195.238, 2317.769
1195.720, 2292.805
1196.202, 2281.451
1196.684, 2288.181
1197.166, 2294.145
1197.648, 2293.469
1198.131, 2291.002
1198.613, 2296.074
1199.095, 2302.104
1199.577, 2299.344
1200.059, 2284.838
1200.541, 2271.324
1201.023, 2259.321
1201.505, 2248.697
1201.988, 2241.262
1202.470, 2232.100
1202.952, 2205.034
1203.434, 2174.694
1203.916, 2166.523
1204.398, 2197.179
1204.880, 2205.871
1205.362, 2183.714
1205.844, 2163.244
1206.327, 2162.873
1206.809, 2171.915
1207.291, 2175.718
1207.773, 2174.854
1208.255, 2169.970
1208.737, 2157.821
1209.219, 2148.395
1209.701, 2140.003
1210.183, 2140.150
1210.666, 2165.637
1211.148, 2193.191
1211.630, 2170.166
1212.112, 2120.848
1212.594, 2095.979
1213.076, 2134.844
1213.558, 2153.515
1214.040, 2147.149
1214.523, 2136.396
1215.005, 2141.157
1215.487, 2149.033
1215.969, 2137.086
1216.451, 2111.758
1216.933, 2090.324
1217.415, 2073.796
1217.897, 2067.868
1218.380, 2075.373
1218.862, 2084.833
1219.344, 2084.168
1219.826, 2080.558
1220.308, 2087.266
1220.790, 2100.743
1221.272, 2107.151
1221.754, 2100.343
1222.236, 2094.974
1222.719, 2092.591
1223.201, 2090.668
1223.683, 2085.662
1224.165, 2080.279
1224.647, 2079.692
1225.129, 2082.543
1225.611, 2080.796
1226.093, 2070.292
1226.575, 2064.174
1227.058, 2063.953
1227.540, 2068.980
1228.022, 2086.282
1228.504, 2103.310
1228.986, 2099.286
1229.468, 2077.515
1229.950, 2070.344
1230.432, 2086.039
1230.915, 2094.352
1231.397, 2089.815
1231.879, 2079.283
1232.361, 2063.647
1232.843, 2050.867
1233.325, 2054.010
1233.807, 2071.207
1234.289, 2076.985
1234.771, 2067.441
1235.254, 2061.159
1235.736, 2062.476
1236.218, 2065.363
1236.700, 2062.257
1237.182, 2057.960
1237.664, 2059.507
1238.146, 2066.044
1238.628, 2060.438
1239.110, 2038.917
1239.593, 2033.571
1240.075, 2056.400
1240.557, 2078.760
1241.039, 2068.410
1241.521, 2046.635
1242.003, 2030.774
1242.485, 2022.251
1242.967, 2021.263
1243.449, 2027.942
1243.932, 2042.481
1244.414, 2067.874
1244.896, 2087.726
1245.378, 2077.666
1245.860, 2062.725
1246.342, 2069.028
1246.824, 2091.996
1247.306, 2098.679
1247.789, 2089.234
1248.271, 2079.704
1248.753, 2073.964
1249.235, 2071.559
1249.717, 2073.149
1250.199, 2077.126
1250.681, 2082.686
1251.163, 2089.427
1251.646, 2096.801
1252.128, 2104.096
1252.610, 2104.245
1253.092, 2092.396
1253.574, 2082.233
1254.056, 2082.697
1254.538, 2087.530
1255.020, 2094.260
1255.502, 2101.296
1255.984, 2098.129
1256.467, 2087.265
1256.949, 2080.915
1257.431, 2084.216
1257.913, 2088.240
1258.395, 2088.081
1258.877, 2088.568
1259.359, 2091.975
1259.841, 2098.016
1260.324, 2108.986
1260.806, 2121.699
1261.288, 2124.666
1261.770, 2108.565
1262.252, 2100.989
1262.734, 2117.927
1263.216, 2130.183
1263.698, 2120.126
1264.181, 2097.798
1264.663, 2086.341
1265.145, 2083.579
1265.627, 2085.027
1266.109, 2090.976
1266.591, 2096.874
1267.073, 2102.205
1267.555, 2107.594
1268.037, 2113.756
1268.520, 2119.736
1269.002, 2126.307
1269.484, 2130.714
1269.966, 2127.450
1270.448, 2111.708
1270.930, 2097.820
1271.412, 2085.252
1271.894, 2077.922
1272.376, 2080.422
1272.859, 2085.632
1273.341, 2080.417
1273.823, 2073.418
1274.305, 2079.236
1274.787, 2102.257
1275.269, 2117.152
1275.751, 2123.697
1276.233, 2123.607
1276.716, 2111.392
1277.198, 2103.438
1277.680, 2128.112
1278.162, 2156.543
1278.644, 2149.655
1279.126, 2105.214
1279.608, 2094.423
1280.090, 2115.443
1280.573, 2129.735
1281.055, 2111.856
1281.537, 2097.078
1282.019, 2113.345
1282.501, 2137.827
1282.983, 2151.379
1283.465, 2155.335
1283.947, 2166.381
1284.429, 2180.573
##END=



