##NAMES=Clinochlore
##RRUFFID=R060725
##IDEAL CHEMISTRY=Mg_5_Al(AlSi_3_O_10_)(OH)_8_
##LOCALITY=Crestmore Quarry, Riverside, California, USA
##OWNER=RRUFF
##SOURCE=Bob Jenkins
##DESCRIPTION=Green transparent books of mica
##STATUS=The identification of this mineral has been confirmed by X-ray diffraction and chemical analysis
##URL=rruff.info/R060725
##MEASURED CHEMISTRY=(Mg_4.65_Al_1.12_Fe^2+^_0.17_[box]_0.06_)_Σ=6_(Si_3.00_Al_1.00_)_Σ=4_O_10_(OH)_8_
119.600, 1034.532
120.082, 1047.072
120.564, 1083.197
121.046, 1132.769
121.528, 1212.267
122.010, 1284.501
122.492, 1349.861
122.974, 1387.772
123.456, 1461.130
123.939, 1520.279
124.421, 1578.844
124.903, 1657.194
125.385, 1699.087
125.867, 1777.137
126.349, 1840.744
126.831, 1910.956
127.313, 1966.869
127.796, 2027.198
128.278, 2101.831
128.760, 2168.556
129.242, 2222.823
129.724, 2293.455
130.206, 2334.848
130.688, 2401.898
131.170, 2480.019
131.652, 2535.016
132.135, 2605.909
132.617, 2670.744
133.099, 2708.046
133.581, 2793.230
134.063, 2857.707
134.545, 2900.934
135.027, 2984.477
135.509, 3030.623
135.992, 3090.118
136.474, 3159.658
136.956, 3218.726
137.438, 3294.317
137.920, 3353.989
138.402, 3412.241
138.884, 3473.725
139.366, 3536.916
139.848, 3627.462
140.331, 3734.531
140.813, 3852.802
141.295, 3982.516
141.777, 4108.498
142.259, 4233.283
142.741, 4351.995
143.223, 4458.096
143.705, 4551.016
144.188, 4638.929
144.670, 4734.444
145.152, 4833.493
145.634, 4908.008
146.116, 4942.879
146.598, 4956.583
147.080, 4973.150
147.562, 4997.344
148.044, 5008.651
148.527, 4978.592
149.009, 4917.046
149.491, 4857.794
149.973, 4810.568
150.455, 4770.231
150.937, 4729.995
151.419, 4690.348
151.901, 4647.189
152.383, 4594.165
152.866, 4533.969
153.348, 4474.548
153.830, 4417.131
154.312, 4363.026
154.794, 4318.437
155.276, 4292.554
155.758, 4258.531
156.240, 4188.766
156.723, 4091.932
157.205, 3997.869
157.687, 3917.041
158.169, 3850.177
158.651, 3800.354
159.133, 3772.283
159.615, 3756.460
160.097, 3749.000
160.579, 3747.558
161.062, 3742.702
161.544, 3727.729
162.026, 3704.020
162.508, 3678.358
162.990, 3647.679
163.472, 3619.800
163.954, 3602.015
164.436, 3592.096
164.919, 3579.762
165.401, 3554.063
165.883, 3516.830
166.365, 3489.689
166.847, 3482.860
167.329, 3477.352
167.811, 3463.915
168.293, 3442.645
168.775, 3415.822
169.258, 3382.947
169.740, 3344.235
170.222, 3309.247
170.704, 3286.165
171.186, 3259.200
171.668, 3217.979
172.150, 3164.689
172.632, 3110.026
173.115, 3062.827
173.597, 3023.290
174.079, 2984.637
174.561, 2944.038
175.043, 2906.615
175.525, 2873.352
176.007, 2844.903
176.489, 2823.343
176.971, 2813.508
177.454, 2816.861
177.936, 2814.341
178.418, 2802.235
178.900, 2786.432
179.382, 2768.006
179.864, 2747.581
180.346, 2726.587
180.828, 2706.671
181.311, 2688.185
181.793, 2667.688
182.275, 2642.123
182.757, 2616.928
183.239, 2596.380
183.721, 2579.011
184.203, 2559.064
184.685, 2529.348
185.167, 2488.139
185.650, 2451.813
186.132, 2418.169
186.614, 2392.079
187.096, 2377.006
187.578, 2371.907
188.060, 2372.754
188.542, 2376.924
189.024, 2384.875
189.507, 2392.012
189.989, 2395.524
190.471, 2400.637
190.953, 2410.245
191.435, 2423.543
191.917, 2437.326
192.399, 2448.096
192.881, 2455.143
193.363, 2466.644
193.846, 2486.242
194.328, 2507.547
194.810, 2532.481
195.292, 2558.108
195.774, 2576.876
196.256, 2578.241
196.738, 2559.832
197.220, 2561.241
197.702, 2605.975
198.185, 2650.633
198.667, 2674.726
199.149, 2686.299
199.631, 2707.924
200.113, 2760.188
200.595, 2844.088
201.077, 2923.755
201.559, 2995.801
202.042, 3066.863
202.524, 3143.195
203.006, 3220.294
203.488, 3288.424
203.970, 3341.550
204.452, 3379.685
204.934, 3398.342
205.416, 3391.669
205.898, 3368.127
206.380, 3327.275
206.863, 3270.984
207.345, 3201.619
207.827, 3119.081
208.309, 3024.559
208.791, 2931.584
209.273, 2833.870
209.755, 2745.364
210.238, 2673.672
210.720, 2613.465
211.202, 2556.099
211.684, 2496.335
212.166, 2435.231
212.648, 2378.778
213.130, 2326.776
213.612, 2281.269
214.094, 2243.672
214.577, 2212.542
215.059, 2185.366
215.541, 2160.893
216.023, 2139.856
216.505, 2125.825
216.987, 2128.269
217.469, 2124.309
217.951, 2107.559
218.434, 2083.065
218.916, 2056.146
219.398, 2029.016
219.880, 2002.461
220.362, 1978.609
220.844, 1957.226
221.326, 1939.287
221.808, 1927.609
222.290, 1917.725
222.773, 1904.302
223.255, 1884.861
223.737, 1863.492
224.219, 1849.417
224.701, 1846.269
225.183, 1842.994
225.665, 1837.514
226.147, 1831.197
226.629, 1824.586
227.112, 1817.882
227.594, 1812.279
228.076, 1810.142
228.558, 1812.963
229.040, 1815.098
229.522, 1817.430
230.004, 1817.742
230.486, 1812.569
230.969, 1801.585
231.451, 1790.680
231.933, 1789.412
232.415, 1801.798
232.897, 1806.759
233.379, 1792.550
233.861, 1776.794
234.343, 1767.845
234.825, 1767.055
235.307, 1771.962
235.790, 1782.996
236.272, 1801.516
236.754, 1812.498
237.236, 1808.102
237.718, 1801.246
238.200, 1795.723
238.682, 1792.830
239.165, 1795.326
239.647, 1809.158
240.129, 1833.742
240.611, 1850.437
241.093, 1854.979
241.575, 1855.171
242.057, 1856.090
242.539, 1856.634
243.021, 1853.090
243.503, 1838.350
243.986, 1816.293
244.468, 1807.522
244.950, 1820.371
245.432, 1833.125
245.914, 1833.461
246.396, 1825.668
246.878, 1818.070
247.361, 1815.126
247.843, 1814.828
248.325, 1812.239
248.807, 1806.365
249.289, 1800.785
249.771, 1799.030
250.253, 1798.306
250.735, 1794.084
251.217, 1782.246
251.699, 1769.153
252.182, 1764.873
252.664, 1770.849
253.146, 1776.614
253.628, 1776.459
254.110, 1773.673
254.592, 1772.560
255.074, 1774.974
255.556, 1776.828
256.039, 1772.728
256.521, 1762.902
257.003, 1755.575
257.485, 1753.791
257.967, 1756.259
258.449, 1761.909
258.931, 1772.761
259.413, 1779.666
259.896, 1771.381
260.378, 1752.795
260.860, 1745.433
261.342, 1759.970
261.824, 1780.894
262.306, 1785.343
262.788, 1771.583
263.270, 1762.736
263.752, 1772.374
264.234, 1792.225
264.717, 1806.402
265.199, 1811.357
265.681, 1812.209
266.163, 1812.346
266.645, 1811.573
267.127, 1817.733
267.609, 1838.191
268.091, 1863.292
268.574, 1884.009
269.056, 1899.226
269.538, 1907.735
270.020, 1904.537
270.502, 1889.646
270.984, 1890.151
271.466, 1919.225
271.948, 1953.241
272.431, 1975.771
272.913, 1988.037
273.395, 2000.447
273.877, 2019.602
274.359, 2045.065
274.841, 2072.935
275.323, 2110.292
275.805, 2142.211
276.287, 2160.220
276.770, 2169.004
277.252, 2177.855
277.734, 2191.392
278.216, 2208.145
278.698, 2223.547
279.180, 2247.603
279.662, 2257.771
280.144, 2242.019
280.626, 2215.157
281.109, 2194.647
281.591, 2186.220
282.073, 2182.818
282.555, 2172.136
283.037, 2147.676
283.519, 2127.470
284.001, 2112.480
284.483, 2100.638
284.966, 2092.817
285.448, 2087.831
285.930, 2080.510
286.412, 2064.624
286.894, 2038.080
287.376, 2012.549
287.858, 1986.437
288.340, 1962.709
288.823, 1942.693
289.305, 1926.361
289.787, 1913.667
290.269, 1905.596
290.751, 1901.447
291.233, 1891.601
291.715, 1864.309
292.197, 1846.163
292.679, 1852.540
293.161, 1869.773
293.644, 1877.328
294.126, 1863.405
294.608, 1837.824
295.090, 1825.297
295.572, 1830.881
296.054, 1837.697
296.536, 1839.599
297.018, 1841.617
297.501, 1849.426
297.983, 1864.878
298.465, 1881.306
298.947, 1890.744
299.429, 1892.844
299.911, 1892.117
300.393, 1884.134
300.875, 1878.342
301.358, 1883.637
301.840, 1899.881
302.322, 1916.044
302.804, 1924.082
303.286, 1925.912
303.768, 1928.673
304.250, 1933.285
304.732, 1938.656
305.214, 1943.452
305.697, 1948.113
306.179, 1954.403
306.661, 1967.460
307.143, 1980.298
307.625, 1981.641
308.107, 1970.576
308.589, 1959.933
309.071, 1958.532
309.553, 1964.162
310.036, 1967.287
310.518, 1964.543
311.000, 1962.409
311.482, 1964.948
311.964, 1971.233
312.446, 1978.692
312.928, 1986.595
313.410, 1994.331
313.892, 2000.230
314.375, 2004.009
314.857, 2007.061
315.339, 2009.697
315.821, 2011.757
316.303, 2011.684
316.785, 2009.264
317.267, 2008.686
317.750, 2015.875
318.232, 2034.227
318.714, 2050.636
319.196, 2068.071
319.678, 2081.278
320.160, 2083.463
320.642, 2077.200
321.124, 2073.060
321.606, 2080.407
322.089, 2099.082
322.571, 2112.550
323.053, 2114.939
323.535, 2118.288
324.017, 2125.861
324.499, 2135.899
324.981, 2145.622
325.463, 2153.615
325.945, 2160.472
326.428, 2168.359
326.910, 2181.255
327.392, 2186.515
327.874, 2175.977
328.356, 2162.004
328.838, 2154.261
329.320, 2154.709
329.802, 2158.641
330.284, 2161.944
330.767, 2164.722
331.249, 2164.582
331.731, 2156.416
332.213, 2150.765
332.695, 2158.158
333.177, 2174.554
333.659, 2184.534
334.141, 2170.834
334.624, 2145.524
335.106, 2139.231
335.588, 2155.661
336.070, 2178.371
336.552, 2199.584
337.034, 2220.060
337.516, 2241.360
337.998, 2265.315
338.480, 2288.261
338.963, 2306.209
339.445, 2320.102
339.927, 2333.748
340.409, 2345.511
340.891, 2361.951
341.373, 2399.793
341.855, 2467.131
342.337, 2526.349
342.819, 2555.390
343.302, 2575.514
343.784, 2614.702
344.266, 2678.964
344.748, 2754.400
345.230, 2826.201
345.712, 2891.736
346.194, 2968.332
346.677, 3061.878
347.159, 3159.862
347.641, 3252.229
348.123, 3343.243
348.605, 3447.168
349.087, 3574.337
349.569, 3720.191
350.051, 3856.487
350.533, 3972.237
351.016, 4091.521
351.498, 4223.516
351.980, 4357.259
352.462, 4481.960
352.944, 4593.960
353.426, 4694.468
353.908, 4785.516
354.390, 4868.862
354.872, 4936.524
355.355, 4992.561
355.837, 5026.718
356.319, 5030.006
356.801, 5004.769
357.283, 4961.401
357.765, 4907.029
358.247, 4840.534
358.729, 4756.175
359.211, 4653.353
359.694, 4534.566
360.176, 4387.897
360.658, 4229.069
361.140, 4079.174
361.622, 3945.942
362.104, 3819.873
362.586, 3690.709
363.069, 3559.490
363.551, 3437.589
364.033, 3330.719
364.515, 3233.590
364.997, 3136.391
365.479, 3035.646
365.961, 2947.599
366.443, 2884.098
366.925, 2832.347
367.408, 2777.928
367.890, 2718.742
368.372, 2659.398
368.854, 2603.200
369.336, 2549.984
369.818, 2510.657
370.300, 2494.268
370.782, 2480.382
371.264, 2462.841
371.747, 2441.692
372.229, 2416.690
372.711, 2387.341
373.193, 2357.418
373.675, 2337.535
374.157, 2337.991
374.639, 2331.065
375.121, 2307.474
375.603, 2282.220
376.086, 2265.749
376.568, 2259.647
377.050, 2259.278
377.532, 2264.213
378.014, 2274.587
378.496, 2268.579
378.978, 2229.517
379.460, 2196.706
379.943, 2193.589
380.425, 2208.002
380.907, 2216.837
381.389, 2208.431
381.871, 2193.362
382.353, 2185.563
382.835, 2185.105
383.317, 2189.325
383.799, 2199.658
384.282, 2212.335
384.764, 2220.948
385.246, 2224.288
385.728, 2229.514
386.210, 2238.193
386.692, 2251.074
387.174, 2271.441
387.656, 2299.969
388.138, 2328.001
388.621, 2346.262
389.103, 2353.914
389.585, 2369.534
390.067, 2405.268
390.549, 2436.048
391.031, 2453.003
391.513, 2456.485
391.996, 2447.379
392.478, 2425.847
392.960, 2394.870
393.442, 2361.710
393.924, 2323.715
394.406, 2288.249
394.888, 2255.347
395.370, 2225.138
395.852, 2197.392
396.335, 2172.328
396.817, 2150.565
397.299, 2131.889
397.781, 2116.590
398.263, 2110.323
398.745, 2122.057
399.227, 2127.975
399.709, 2112.956
400.191, 2087.646
400.674, 2067.595
401.156, 2058.513
401.638, 2054.688
402.120, 2049.199
402.602, 2042.644
403.084, 2042.590
403.566, 2054.418
404.048, 2069.121
404.530, 2075.054
405.013, 2072.602
405.495, 2065.832
405.977, 2050.139
406.459, 2034.147
406.941, 2026.069
407.423, 2026.493
407.905, 2034.216
408.387, 2050.380
408.870, 2072.956
409.352, 2084.473
409.834, 2073.742
410.316, 2066.769
410.798, 2071.019
411.280, 2080.485
411.762, 2088.509
412.244, 2093.001
412.727, 2095.596
413.209, 2099.401
413.691, 2106.343
414.173, 2106.290
414.655, 2084.856
415.137, 2069.871
415.619, 2076.493
416.101, 2097.657
416.583, 2116.246
417.065, 2121.518
417.548, 2120.841
418.030, 2130.848
418.512, 2154.220
418.994, 2169.421
419.476, 2161.796
419.958, 2147.438
420.440, 2146.209
420.922, 2159.863
421.405, 2177.663
421.887, 2199.146
422.369, 2220.068
422.851, 2232.403
423.333, 2235.067
423.815, 2235.438
424.297, 2238.882
424.779, 2245.417
425.262, 2254.058
425.744, 2266.414
426.226, 2278.759
426.708, 2291.453
427.190, 2302.874
427.672, 2310.924
428.154, 2314.805
428.636, 2315.161
429.118, 2312.897
429.601, 2307.763
430.083, 2300.599
430.565, 2288.160
431.047, 2276.768
431.529, 2270.714
432.011, 2268.048
432.493, 2263.453
432.975, 2253.500
433.457, 2240.120
433.940, 2225.955
434.422, 2209.825
434.904, 2199.760
435.386, 2203.228
435.868, 2211.008
436.350, 2212.588
436.832, 2207.045
437.314, 2199.131
437.797, 2189.625
438.279, 2179.725
438.761, 2170.239
439.243, 2161.265
439.725, 2156.918
440.207, 2161.968
440.689, 2175.272
441.171, 2181.383
441.654, 2181.118
442.136, 2174.024
442.618, 2154.522
443.100, 2130.223
443.582, 2111.605
444.064, 2101.573
444.546, 2093.996
445.028, 2079.407
445.510, 2054.628
445.992, 2037.403
446.475, 2032.213
446.957, 2030.686
447.439, 2033.432
447.921, 2037.291
448.403, 2036.415
448.885, 2027.116
449.367, 2013.887
449.849, 2002.685
450.332, 1993.591
450.814, 1986.067
451.296, 1978.338
451.778, 1974.302
452.260, 1980.669
452.742, 1997.684
453.224, 2010.901
453.706, 2010.504
454.189, 2008.118
454.671, 2016.688
455.153, 2035.363
455.635, 2054.519
456.117, 2068.599
456.599, 2078.430
457.081, 2087.124
457.563, 2090.305
458.045, 2098.156
458.527, 2118.446
459.010, 2138.661
459.492, 2145.745
459.974, 2139.942
460.456, 2133.907
460.938, 2141.186
461.420, 2159.846
461.902, 2167.891
462.384, 2161.002
462.867, 2151.200
463.349, 2142.332
463.831, 2133.592
464.313, 2124.633
464.795, 2115.903
465.277, 2104.544
465.759, 2086.550
466.241, 2064.216
466.724, 2044.324
467.206, 2028.302
467.688, 2013.320
468.170, 1996.675
468.652, 1978.467
469.134, 1961.672
469.616, 1947.057
470.098, 1933.125
470.580, 1917.876
471.063, 1903.245
471.545, 1892.592
472.027, 1887.071
472.509, 1884.229
472.991, 1880.787
473.473, 1877.031
473.955, 1871.420
474.437, 1859.699
474.919, 1850.192
475.402, 1847.404
475.884, 1848.863
476.366, 1849.835
476.848, 1848.512
477.330, 1845.069
477.812, 1837.936
478.294, 1827.292
478.776, 1822.082
479.259, 1827.529
479.741, 1834.925
480.223, 1832.099
480.705, 1819.750
481.187, 1811.802
481.669, 1814.830
482.151, 1820.111
482.633, 1821.210
483.116, 1818.838
483.598, 1815.093
484.080, 1810.531
484.562, 1808.161
485.044, 1816.022
485.526, 1845.465
486.008, 1863.920
486.490, 1863.871
486.972, 1860.643
487.454, 1862.459
487.937, 1868.979
488.419, 1876.186
488.901, 1881.442
489.383, 1885.802
489.865, 1891.410
490.347, 1898.145
490.829, 1907.147
491.311, 1921.051
491.794, 1935.331
492.276, 1944.347
492.758, 1947.840
493.240, 1950.735
493.722, 1952.636
494.204, 1956.098
494.686, 1965.508
495.168, 1979.785
495.651, 1992.096
496.133, 1998.148
496.615, 2000.304
497.097, 2005.720
497.579, 2015.435
498.061, 2027.262
498.543, 2045.852
499.025, 2062.726
499.507, 2069.271
499.990, 2067.665
500.472, 2068.260
500.954, 2078.735
501.436, 2096.483
501.918, 2115.540
502.400, 2137.271
502.882, 2153.718
503.364, 2160.650
503.846, 2161.781
504.329, 2159.548
504.811, 2152.911
505.293, 2154.075
505.775, 2176.620
506.257, 2203.648
506.739, 2213.674
507.221, 2208.188
507.703, 2204.317
508.185, 2211.873
508.668, 2229.210
509.150, 2251.354
509.632, 2292.521
510.114, 2316.607
510.596, 2309.307
511.078, 2296.503
511.560, 2294.123
512.042, 2303.007
512.525, 2317.263
513.007, 2334.465
513.489, 2352.657
513.971, 2365.492
514.453, 2371.658
514.935, 2380.771
515.417, 2398.321
515.899, 2418.194
516.381, 2431.463
516.864, 2437.311
517.346, 2446.776
517.828, 2470.787
518.310, 2494.379
518.792, 2499.355
519.274, 2489.558
519.756, 2483.594
520.239, 2491.683
520.721, 2509.185
521.203, 2524.056
521.685, 2534.271
522.167, 2545.568
522.649, 2558.092
523.131, 2571.495
523.613, 2585.102
524.095, 2599.352
524.578, 2616.765
525.060, 2642.635
525.542, 2666.770
526.024, 2665.494
526.506, 2638.800
526.988, 2623.172
527.470, 2631.475
527.952, 2651.156
528.434, 2669.818
528.917, 2687.745
529.399, 2699.326
529.881, 2700.379
530.363, 2698.062
530.845, 2696.468
531.327, 2695.181
531.809, 2692.306
532.291, 2687.046
532.773, 2681.083
533.256, 2676.478
533.738, 2671.606
534.220, 2674.076
534.702, 2691.821
535.184, 2708.677
535.666, 2715.345
536.148, 2716.873
536.630, 2722.382
537.112, 2733.988
537.595, 2753.177
538.077, 2784.675
538.559, 2825.510
539.041, 2862.684
539.523, 2892.383
540.005, 2925.777
540.487, 2972.637
540.969, 3033.027
541.452, 3106.811
541.934, 3202.298
542.416, 3299.039
542.898, 3391.280
543.380, 3482.446
543.862, 3575.516
544.344, 3672.024
544.826, 3774.958
545.308, 3885.307
545.791, 4004.210
546.273, 4142.138
546.755, 4305.751
547.237, 4472.715
547.719, 4635.153
548.201, 4794.903
548.683, 4956.499
549.166, 5123.823
549.648, 5273.098
550.130, 5403.729
550.612, 5504.759
551.094, 5572.505
551.576, 5601.102
552.058, 5563.735
552.540, 5440.330
553.022, 5245.552
553.505, 5026.767
553.987, 4766.263
554.469, 4514.088
554.951, 4269.573
555.433, 4035.006
555.915, 3805.804
556.397, 3586.339
556.879, 3387.598
557.362, 3215.490
557.844, 3067.425
558.326, 2944.024
558.808, 2843.412
559.290, 2750.320
559.772, 2659.793
560.254, 2575.981
560.736, 2505.379
561.218, 2449.866
561.701, 2392.409
562.183, 2325.928
562.665, 2265.090
563.147, 2219.783
563.629, 2183.177
564.111, 2145.709
564.593, 2104.100
565.075, 2061.954
565.557, 2022.998
566.040, 1987.077
566.522, 1955.745
567.004, 1929.827
567.486, 1906.591
567.968, 1887.217
568.450, 1868.758
568.932, 1847.448
569.414, 1822.649
569.896, 1795.775
570.379, 1761.658
570.861, 1728.928
571.343, 1712.064
571.825, 1709.599
572.307, 1704.989
572.789, 1687.033
573.271, 1660.499
573.753, 1640.845
574.235, 1632.332
574.718, 1622.527
575.200, 1609.667
575.682, 1596.243
576.164, 1582.895
576.646, 1570.072
577.128, 1558.488
577.610, 1548.255
578.093, 1539.718
578.575, 1535.305
579.057, 1533.453
579.539, 1526.263
580.021, 1511.134
580.503, 1493.738
580.985, 1480.028
581.467, 1470.210
581.949, 1459.702
582.432, 1445.171
582.914, 1434.058
583.396, 1431.179
583.878, 1431.064
584.360, 1427.757
584.842, 1420.072
585.324, 1410.811
585.806, 1402.240
586.289, 1394.164
586.771, 1385.409
587.253, 1375.690
587.735, 1366.887
588.217, 1359.163
588.699, 1353.347
589.181, 1351.766
589.663, 1355.549
590.145, 1356.967
590.628, 1351.335
591.110, 1346.135
591.592, 1347.318
592.074, 1352.816
592.556, 1358.217
593.038, 1361.592
593.520, 1361.875
594.002, 1355.500
594.484, 1341.308
594.967, 1333.683
595.449, 1335.549
595.931, 1340.088
596.413, 1345.400
596.895, 1350.304
597.377, 1352.061
597.859, 1348.054
598.341, 1346.485
598.823, 1356.402
599.306, 1367.844
599.788, 1366.437
600.270, 1352.815
600.752, 1338.544
601.234, 1330.925
601.716, 1329.413
602.198, 1332.760
602.680, 1342.516
603.162, 1353.209
603.645, 1369.389
604.127, 1381.490
604.609, 1381.813
605.091, 1373.534
605.573, 1366.584
606.055, 1366.134
606.537, 1365.507
607.019, 1357.404
607.502, 1345.366
607.984, 1337.782
608.466, 1336.301
608.948, 1336.059
609.430, 1331.969
609.912, 1324.866
610.394, 1325.413
610.876, 1342.082
611.359, 1353.361
611.841, 1353.877
612.323, 1350.221
612.805, 1346.306
613.287, 1342.926
613.769, 1340.743
614.251, 1340.385
614.733, 1341.202
615.216, 1340.932
615.698, 1340.719
616.180, 1347.653
616.662, 1364.849
617.144, 1381.750
617.626, 1384.673
618.108, 1371.980
618.590, 1366.107
619.072, 1377.031
619.555, 1382.591
620.037, 1370.621
620.519, 1355.695
621.001, 1353.849
621.483, 1366.834
621.965, 1382.944
622.447, 1396.746
622.929, 1406.569
623.411, 1407.757
623.894, 1400.840
624.376, 1392.668
624.858, 1385.402
625.340, 1379.082
625.822, 1373.182
626.304, 1366.508
626.786, 1366.199
627.268, 1378.724
627.750, 1389.465
628.233, 1392.411
628.715, 1391.283
629.197, 1391.208
629.679, 1393.390
630.161, 1394.927
630.643, 1390.814
631.125, 1384.641
631.607, 1386.738
632.089, 1397.380
632.572, 1408.191
633.054, 1416.133
633.536, 1420.973
634.018, 1421.762
634.500, 1416.313
634.982, 1413.828
635.464, 1416.847
635.946, 1419.943
636.429, 1419.513
636.911, 1418.205
637.393, 1420.181
637.875, 1426.653
638.357, 1434.905
638.839, 1443.474
639.321, 1451.629
639.803, 1455.618
640.286, 1455.008
640.768, 1458.670
641.250, 1472.497
641.732, 1490.385
642.214, 1499.797
642.696, 1493.499
643.178, 1498.672
643.660, 1529.321
644.143, 1556.242
644.625, 1563.195
645.107, 1558.943
645.589, 1557.611
646.071, 1563.776
646.553, 1572.716
647.035, 1579.902
647.517, 1586.319
647.999, 1593.907
648.482, 1602.725
648.964, 1616.972
649.446, 1640.144
649.928, 1667.617
650.410, 1689.194
650.892, 1699.833
651.374, 1718.447
651.856, 1751.963
652.338, 1785.634
652.821, 1812.852
653.303, 1836.070
653.785, 1858.268
654.267, 1880.296
654.749, 1905.224
655.231, 1937.813
655.713, 1974.779
656.195, 2007.042
656.677, 2034.399
657.160, 2065.715
657.642, 2106.683
658.124, 2150.800
658.606, 2184.980
659.088, 2202.570
659.570, 2230.927
660.052, 2279.331
660.534, 2327.534
661.016, 2364.742
661.499, 2398.728
661.981, 2441.641
662.463, 2496.930
662.945, 2551.444
663.427, 2591.569
663.909, 2626.345
664.391, 2672.698
664.873, 2729.854
665.356, 2787.733
665.838, 2841.183
666.320, 2894.858
666.802, 2957.042
667.284, 3030.407
667.766, 3099.143
668.248, 3162.051
668.730, 3221.194
669.213, 3267.482
669.695, 3315.293
670.177, 3385.815
670.659, 3482.257
671.141, 3575.869
671.623, 3649.238
672.105, 3711.295
672.587, 3771.313
673.070, 3829.310
673.552, 3880.137
674.034, 3921.907
674.516, 3967.884
674.998, 4038.877
675.480, 4137.140
675.962, 4214.445
676.444, 4262.120
676.926, 4303.161
677.409, 4347.129
677.891, 4386.012
678.373, 4410.695
678.855, 4420.924
679.337, 4426.995
679.819, 4428.155
680.301, 4430.610
680.783, 4443.291
681.265, 4459.627
681.748, 4469.934
682.230, 4470.479
682.712, 4455.909
683.194, 4417.789
683.676, 4360.302
684.158, 4309.011
684.640, 4266.117
685.122, 4221.486
685.604, 4171.027
686.087, 4118.779
686.569, 4068.966
687.051, 4021.282
687.533, 3972.073
688.015, 3918.295
688.497, 3865.946
688.979, 3821.448
689.461, 3777.284
689.943, 3723.524
690.426, 3660.292
690.908, 3596.036
691.390, 3537.015
691.872, 3480.379
692.354, 3418.459
692.836, 3351.594
693.318, 3290.918
693.800, 3239.544
694.283, 3192.436
694.765, 3147.134
695.247, 3102.713
695.729, 3055.306
696.211, 3001.210
696.693, 2949.042
697.175, 2898.768
697.657, 2851.218
698.140, 2809.134
698.622, 2770.255
699.104, 2729.381
699.586, 2683.900
700.068, 2637.213
700.550, 2589.795
701.032, 2544.582
701.514, 2512.391
701.997, 2493.321
702.479, 2471.761
702.961, 2437.843
703.443, 2396.381
703.925, 2356.100
704.407, 2307.529
704.889, 2286.988
705.371, 2255.102
705.853, 2247.896
706.336, 2234.698
706.818, 2215.832
707.300, 2174.319
707.782, 2161.650
708.264, 2137.252
708.746, 2119.336
709.228, 2102.686
709.710, 2082.398
710.192, 2059.039
710.675, 2035.132
711.157, 2011.580
711.639, 1987.179
712.121, 1958.116
712.603, 1925.660
713.085, 1907.639
713.567, 1908.412
714.049, 1906.280
714.531, 1894.658
715.014, 1875.887
715.496, 1848.954
715.978, 1813.427
716.460, 1788.468
716.942, 1784.418
717.424, 1780.027
717.906, 1765.106
718.388, 1747.994
718.870, 1739.380
719.353, 1738.875
719.835, 1736.507
720.317, 1724.222
720.799, 1708.849
721.281, 1702.661
721.763, 1702.983
722.245, 1697.789
722.727, 1684.664
723.210, 1666.861
723.692, 1645.578
724.174, 1622.901
724.656, 1608.567
725.138, 1608.550
725.620, 1604.708
726.102, 1593.580
726.584, 1580.658
727.067, 1566.151
727.549, 1552.187
728.031, 1542.848
728.513, 1539.769
728.995, 1538.756
729.477, 1541.911
729.959, 1543.013
730.441, 1532.291
730.924, 1513.668
731.406, 1498.919
731.888, 1493.089
732.370, 1493.754
732.852, 1501.564
733.334, 1515.192
733.816, 1514.498
734.298, 1496.918
734.780, 1478.353
735.263, 1463.887
735.745, 1452.491
736.227, 1442.169
736.709, 1432.413
737.191, 1428.431
737.673, 1435.724
738.155, 1441.667
738.637, 1441.754
739.119, 1439.548
739.602, 1440.134
740.084, 1442.632
740.566, 1439.715
741.048, 1423.109
741.530, 1405.276
742.012, 1401.053
742.494, 1405.771
742.976, 1408.583
743.458, 1407.775
743.941, 1408.066
744.423, 1413.698
744.905, 1420.411
745.387, 1414.460
745.869, 1391.715
746.351, 1374.338
746.833, 1360.416
747.315, 1358.353
747.797, 1385.211
748.280, 1423.297
748.762, 1435.001
749.244, 1408.494
749.726, 1392.937
750.208, 1408.589
750.690, 1426.991
751.172, 1431.766
751.654, 1427.076
752.137, 1420.466
752.619, 1414.234
753.101, 1408.142
753.583, 1397.402
754.065, 1388.749
754.547, 1400.450
755.029, 1428.075
755.511, 1447.215
755.994, 1450.780
756.476, 1444.155
756.958, 1430.805
757.440, 1412.415
757.922, 1403.523
758.404, 1408.526
758.886, 1412.844
759.368, 1414.288
759.851, 1414.627
760.333, 1415.130
760.815, 1415.500
761.297, 1414.474
761.779, 1409.191
762.261, 1408.202
762.743, 1424.270
763.225, 1437.343
763.707, 1423.619
764.190, 1394.097
764.672, 1376.243
765.154, 1380.538
765.636, 1392.504
766.118, 1397.270
766.600, 1397.607
767.082, 1403.676
767.564, 1414.531
768.046, 1414.836
768.529, 1397.786
769.011, 1375.549
769.493, 1361.942
769.975, 1356.972
770.457, 1358.951
770.939, 1372.746
771.421, 1384.099
771.903, 1392.046
772.385, 1394.900
772.868, 1388.973
773.350, 1376.595
773.832, 1366.793
774.314, 1362.515
774.796, 1358.748
775.278, 1349.908
775.760, 1343.834
776.242, 1351.936
776.724, 1368.565
777.207, 1377.331
777.689, 1370.968
778.171, 1362.208
778.653, 1366.372
779.135, 1378.572
779.617, 1387.318
780.099, 1392.048
780.581, 1391.249
781.064, 1383.412
781.546, 1377.817
782.028, 1388.334
782.510, 1414.651
782.992, 1425.152
783.474, 1411.049
783.956, 1401.435
784.438, 1404.682
784.920, 1412.616
785.403, 1420.328
785.885, 1427.131
786.367, 1429.992
786.849, 1425.411
787.331, 1421.587
787.813, 1420.598
788.295, 1421.159
788.778, 1423.546
789.260, 1426.396
789.742, 1426.775
790.224, 1423.443
790.706, 1419.722
791.188, 1418.633
791.670, 1419.146
792.152, 1421.169
792.634, 1423.470
793.117, 1420.710
793.599, 1411.081
794.081, 1397.316
794.563, 1381.408
795.045, 1364.335
795.527, 1355.434
796.009, 1357.491
796.491, 1354.643
796.973, 1340.919
797.456, 1326.234
797.938, 1319.476
798.420, 1318.762
798.902, 1314.016
799.384, 1301.657
799.866, 1291.331
800.348, 1282.055
800.830, 1276.581
801.312, 1280.481
801.795, 1287.723
802.277, 1287.838
802.759, 1278.044
803.241, 1267.176
803.723, 1258.658
804.205, 1252.901
804.687, 1250.776
805.169, 1251.650
805.652, 1255.096
806.134, 1260.518
806.616, 1265.376
807.098, 1267.739
807.580, 1267.761
808.062, 1266.675
808.544, 1264.175
809.026, 1253.451
809.508, 1231.894
809.991, 1215.045
810.473, 1214.628
810.955, 1223.708
811.437, 1223.734
811.919, 1209.195
812.401, 1202.808
812.883, 1210.928
813.365, 1218.408
813.847, 1218.465
814.330, 1215.754
814.812, 1216.199
815.294, 1220.081
815.776, 1220.215
816.258, 1210.694
816.740, 1202.527
817.222, 1200.633
817.705, 1202.120
818.187, 1205.690
818.669, 1209.717
819.151, 1210.340
819.633, 1204.812
820.115, 1198.348
820.597, 1196.029
821.079, 1196.497
821.561, 1198.562
822.044, 1201.286
822.526, 1200.585
823.008, 1194.695
823.490, 1188.697
823.972, 1190.742
824.454, 1199.046
824.936, 1197.973
825.418, 1186.397
825.900, 1174.531
826.383, 1164.167
826.865, 1156.595
827.347, 1152.706
827.829, 1152.692
828.311, 1158.145
828.793, 1175.789
829.275, 1186.904
829.757, 1187.349
830.239, 1184.646
830.722, 1179.268
831.204, 1174.084
831.686, 1174.364
832.168, 1181.688
832.650, 1187.313
833.132, 1189.256
833.614, 1188.095
834.096, 1180.388
834.578, 1171.874
835.061, 1172.013
835.543, 1180.055
836.025, 1184.723
836.507, 1177.800
836.989, 1167.662
837.471, 1162.516
837.953, 1161.720
838.435, 1165.905
838.917, 1173.755
839.400, 1179.207
839.882, 1179.248
840.364, 1175.134
840.846, 1167.535
841.328, 1156.990
841.810, 1148.773
842.292, 1142.940
842.774, 1139.179
843.257, 1137.464
843.739, 1137.543
844.221, 1139.153
844.703, 1142.330
845.185, 1147.819
845.667, 1160.423
846.149, 1165.260
846.631, 1154.933
847.114, 1143.599
847.596, 1137.565
848.078, 1135.861
848.560, 1138.087
849.042, 1145.945
849.524, 1148.976
850.006, 1138.945
850.488, 1130.757
850.971, 1132.962
851.453, 1139.773
851.935, 1145.339
852.417, 1148.529
852.899, 1149.562
853.381, 1148.144
853.863, 1145.407
854.345, 1139.938
854.827, 1135.108
855.310, 1137.952
855.792, 1146.067
856.274, 1149.284
856.756, 1143.312
857.238, 1136.223
857.720, 1138.938
858.202, 1147.766
858.684, 1150.977
859.166, 1149.289
859.649, 1149.582
860.131, 1153.789
860.613, 1155.799
861.095, 1149.373
861.577, 1138.349
862.059, 1136.711
862.541, 1146.212
863.023, 1154.868
863.505, 1162.805
863.988, 1167.273
864.470, 1166.881
864.952, 1162.148
865.434, 1151.764
865.916, 1132.646
866.398, 1127.781
866.880, 1153.937
867.362, 1171.875
867.844, 1167.297
868.327, 1159.087
868.809, 1163.002
869.291, 1175.306
869.773, 1181.321
870.255, 1174.182
870.737, 1170.732
871.219, 1183.534
871.701, 1194.407
872.184, 1189.757
872.666, 1175.345
873.148, 1158.040
873.630, 1140.663
874.112, 1131.274
874.594, 1138.368
875.076, 1151.745
875.558, 1164.842
876.041, 1176.424
876.523, 1185.851
877.005, 1191.989
877.487, 1190.327
877.969, 1178.090
878.451, 1163.650
878.933, 1156.405
879.415, 1156.027
879.898, 1164.575
880.380, 1180.354
880.862, 1191.628
881.344, 1194.803
881.826, 1192.287
882.308, 1185.305
882.790, 1176.086
883.272, 1173.587
883.754, 1178.690
884.237, 1179.508
884.719, 1173.558
885.201, 1168.474
885.683, 1168.370
886.165, 1171.359
886.647, 1174.185
887.129, 1176.674
887.611, 1180.905
888.093, 1190.232
888.576, 1195.056
889.058, 1191.724
889.540, 1184.751
890.022, 1174.366
890.504, 1163.057
890.986, 1160.213
891.468, 1173.690
891.950, 1179.880
892.432, 1168.748
892.915, 1158.465
893.397, 1158.460
893.879, 1163.565
894.361, 1168.279
894.843, 1171.509
895.325, 1171.288
895.807, 1161.313
896.289, 1154.673
896.771, 1164.159
897.254, 1174.841
897.736, 1169.543
898.218, 1153.329
898.700, 1140.647
899.182, 1136.423
899.664, 1139.126
900.146, 1153.534
900.628, 1169.397
901.111, 1173.827
901.593, 1170.956
902.075, 1168.780
902.557, 1169.101
903.039, 1170.859
903.521, 1173.451
904.003, 1176.779
904.485, 1182.984
904.968, 1189.357
905.450, 1184.236
905.932, 1169.838
906.414, 1165.689
906.896, 1178.627
907.378, 1195.497
907.860, 1203.000
908.342, 1202.290
908.825, 1194.550
909.307, 1180.019
909.789, 1175.014
910.271, 1182.585
910.753, 1194.314
911.235, 1207.287
911.717, 1215.995
912.199, 1208.309
912.681, 1182.711
913.164, 1171.176
913.646, 1178.167
914.128, 1184.579
914.610, 1186.355
915.092, 1185.203
915.574, 1181.047
916.056, 1175.584
916.538, 1175.170
917.020, 1182.337
917.503, 1188.891
917.985, 1199.575
918.467, 1203.031
918.949, 1187.530
919.431, 1168.296
919.913, 1162.921
920.395, 1170.353
920.877, 1174.454
921.359, 1167.656
921.842, 1167.070
922.324, 1182.834
922.806, 1197.442
923.288, 1200.965
923.770, 1196.518
924.252, 1188.122
924.734, 1176.119
925.216, 1167.903
925.698, 1168.746
926.181, 1169.993
926.663, 1165.768
927.145, 1161.757
927.627, 1166.492
928.109, 1175.918
928.591, 1176.849
929.073, 1163.448
929.555, 1152.987
930.038, 1159.441
930.520, 1169.103
931.002, 1168.491
931.484, 1164.331
931.966, 1168.887
932.448, 1182.005
932.930, 1193.578
933.412, 1198.749
933.894, 1198.860
934.377, 1191.357
934.859, 1182.083
935.341, 1180.395
935.823, 1184.055
936.305, 1185.349
936.787, 1182.587
937.269, 1181.577
937.752, 1188.352
938.234, 1196.957
938.716, 1189.821
939.198, 1179.396
939.680, 1167.281
940.162, 1184.717
940.644, 1194.981
941.126, 1198.456
941.608, 1174.813
942.091, 1186.188
942.573, 1183.529
943.055, 1180.295
943.537, 1188.871
944.019, 1186.086
944.501, 1186.433
944.983, 1186.210
945.465, 1183.174
945.947, 1179.262
946.430, 1177.295
946.912, 1177.318
947.394, 1180.438
947.876, 1186.697
948.358, 1193.073
948.840, 1199.283
949.322, 1200.566
949.804, 1192.339
950.286, 1179.081
950.769, 1170.829
951.251, 1167.474
951.733, 1172.091
952.215, 1186.490
952.697, 1199.865
953.179, 1209.522
953.661, 1214.917
954.143, 1214.839
954.625, 1210.557
955.108, 1207.516
955.590, 1205.881
956.072, 1205.208
956.554, 1206.805
957.036, 1205.342
957.518, 1196.190
958.000, 1187.233
958.482, 1189.529
958.965, 1201.670
959.447, 1204.049
959.929, 1189.536
960.411, 1182.723
960.893, 1190.428
961.375, 1197.916
961.857, 1196.371
962.339, 1192.120
962.821, 1196.524
963.304, 1210.770
963.786, 1212.267
964.268, 1187.058
964.750, 1172.574
965.232, 1182.240
965.714, 1193.364
966.196, 1192.725
966.679, 1185.182
967.161, 1178.700
967.643, 1172.466
968.125, 1171.671
968.607, 1184.042
969.089, 1191.249
969.571, 1187.550
970.053, 1179.866
970.535, 1167.266
971.018, 1155.450
971.500, 1159.617
971.982, 1187.308
972.464, 1203.125
972.946, 1189.964
973.428, 1181.511
973.910, 1194.297
974.392, 1210.221
974.875, 1214.025
975.357, 1208.444
975.839, 1203.786
976.321, 1201.459
976.803, 1199.938
977.285, 1197.397
977.767, 1197.452
978.249, 1205.746
978.731, 1214.135
979.214, 1212.962
979.696, 1204.549
980.178, 1199.944
980.660, 1203.759
981.142, 1205.124
981.624, 1198.837
982.106, 1191.992
982.588, 1185.692
983.070, 1182.693
983.553, 1188.213
984.035, 1200.344
984.517, 1208.902
984.999, 1211.166
985.481, 1209.760
985.963, 1201.033
986.445, 1193.871
986.927, 1197.284
987.409, 1203.314
987.892, 1200.472
988.374, 1189.061
988.856, 1179.427
989.338, 1173.942
989.820, 1172.602
990.302, 1177.896
990.784, 1184.742
991.266, 1194.451
991.748, 1200.819
992.231, 1190.795
992.713, 1166.357
993.195, 1152.300
993.677, 1162.579
994.159, 1176.161
994.641, 1183.873
995.123, 1191.292
995.606, 1205.948
996.088, 1221.555
996.570, 1226.341
997.052, 1219.830
997.534, 1215.195
998.016, 1220.788
998.498, 1224.516
998.980, 1218.865
999.462, 1210.805
999.945, 1206.961
1000.427, 1204.255
1000.909, 1194.648
1001.391, 1178.094
1001.873, 1168.315
1002.355, 1172.417
1002.837, 1182.618
1003.319, 1204.347
1003.801, 1222.012
1004.284, 1217.709
1004.766, 1202.140
1005.248, 1195.611
1005.730, 1200.901
1006.212, 1202.721
1006.694, 1191.488
1007.176, 1179.520
1007.658, 1173.033
1008.141, 1167.913
1008.623, 1159.612
1009.105, 1150.766
1009.587, 1148.059
1010.069, 1151.867
1010.551, 1151.029
1011.033, 1130.912
1011.515, 1118.397
1011.997, 1133.309
1012.480, 1153.280
1012.962, 1163.503
1013.444, 1164.351
1013.926, 1155.760
1014.408, 1138.987
1014.890, 1128.953
1015.372, 1141.309
1015.854, 1148.207
1016.336, 1129.952
1016.819, 1109.562
1017.301, 1105.473
1017.783, 1111.534
1018.265, 1117.278
1018.747, 1120.636
1019.229, 1120.607
1019.711, 1112.243
1020.193, 1106.786
1020.676, 1112.645
1021.158, 1118.505
1021.640, 1115.221
1022.122, 1107.017
1022.604, 1100.247
1023.086, 1095.969
1023.568, 1094.409
1024.050, 1098.829
1024.532, 1101.422
1025.015, 1096.915
1025.497, 1092.960
1025.979, 1097.218
1026.461, 1103.722
1026.943, 1102.073
1027.425, 1091.978
1027.907, 1086.093
1028.389, 1087.803
1028.872, 1093.051
1029.354, 1104.783
1029.836, 1115.656
1030.318, 1120.824
1030.800, 1123.097
1031.282, 1127.838
1031.764, 1134.664
1032.246, 1134.424
1032.729, 1112.674
1033.211, 1103.813
1033.693, 1125.087
1034.175, 1145.356
1034.657, 1145.627
1035.139, 1139.572
1035.621, 1144.534
1036.103, 1159.821
1036.585, 1171.950
1037.068, 1178.542
1037.550, 1184.599
1038.032, 1191.069
1038.514, 1196.131
1038.996, 1198.283
1039.478, 1199.290
1039.960, 1198.980
1040.442, 1198.544
1040.924, 1206.241
1041.407, 1234.243
1041.889, 1245.299
1042.371, 1222.211
1042.853, 1210.183
1043.335, 1233.407
1043.817, 1262.039
1044.299, 1267.122
1044.781, 1254.100
1045.264, 1245.657
1045.746, 1243.578
1046.228, 1240.498
1046.710, 1234.682
1047.192, 1232.341
1047.674, 1237.156
1048.156, 1242.316
1048.638, 1241.753
1049.120, 1237.728
1049.603, 1236.890
1050.085, 1239.842
1050.567, 1243.251
1051.049, 1249.042
1051.531, 1246.443
1052.013, 1230.333
1052.495, 1214.105
1052.977, 1207.135
1053.459, 1206.758
1053.942, 1207.715
1054.424, 1209.992
1054.906, 1213.910
1055.388, 1219.606
1055.870, 1225.032
1056.352, 1229.871
1056.834, 1233.142
1057.316, 1234.311
1057.799, 1233.042
1058.281, 1227.785
1058.763, 1219.740
1059.245, 1217.596
1059.727, 1220.581
1060.209, 1217.184
1060.691, 1206.182
1061.173, 1200.732
1061.656, 1207.500
1062.138, 1215.523
1062.620, 1209.415
1063.102, 1196.991
1063.584, 1203.709
1064.066, 1221.958
1064.548, 1220.428
1065.030, 1199.972
1065.512, 1184.493
1065.995, 1182.867
1066.477, 1188.460
1066.959, 1198.684
1067.441, 1206.308
1067.923, 1193.262
1068.405, 1172.708
1068.887, 1173.188
1069.369, 1189.401
1069.851, 1199.419
1070.334, 1198.434
1070.816, 1200.111
1071.298, 1215.317
1071.780, 1230.563
1072.262, 1230.569
1072.744, 1224.915
1073.226, 1220.896
1073.708, 1221.750
1074.190, 1237.631
1074.673, 1264.053
1075.155, 1275.199
1075.637, 1255.042
1076.119, 1237.875
1076.601, 1248.526
1077.083, 1265.217
1077.565, 1274.981
1078.047, 1279.454
1078.530, 1277.339
1079.012, 1272.938
1079.494, 1278.803
1079.976, 1300.357
1080.458, 1316.975
1080.940, 1316.327
1081.422, 1317.064
1081.904, 1331.541
1082.386, 1345.480
1082.869, 1343.841
1083.351, 1334.611
1083.833, 1335.439
1084.315, 1348.962
1084.797, 1359.559
1085.279, 1363.884
1085.761, 1368.427
1086.243, 1381.352
1086.725, 1385.490
1087.208, 1365.904
1087.690, 1338.891
1088.172, 1327.232
1088.654, 1329.132
1089.136, 1319.166
1089.618, 1290.894
1090.100, 1270.032
1090.582, 1262.214
1091.065, 1248.904
1091.547, 1221.026
1092.029, 1191.646
1092.511, 1173.224
1092.993, 1162.961
1093.475, 1152.366
1093.957, 1141.406
1094.439, 1131.780
1094.922, 1123.961
1095.404, 1107.354
1095.886, 1078.562
1096.368, 1055.310
1096.850, 1049.999
1097.332, 1053.388
1097.814, 1051.414
1098.296, 1044.842
1098.778, 1037.038
1099.260, 1027.482
1099.743, 1011.152
1100.225, 989.478
1100.707, 975.384
1101.189, 974.476
1101.671, 975.820
1102.153, 967.433
1102.635, 956.764
1103.117, 957.141
1103.600, 961.224
1104.082, 954.615
1104.564, 941.006
1105.046, 934.057
1105.528, 935.869
1106.010, 933.674
1106.492, 915.983
1106.974, 902.674
1107.457, 914.488
1107.939, 929.962
1108.421, 929.638
1108.903, 922.226
1109.385, 922.292
1109.867, 928.214
1110.349, 925.682
1110.831, 907.623
1111.313, 894.409
1111.796, 895.041
1112.278, 896.962
1112.760, 897.517
1113.242, 895.538
1113.724, 884.229
1114.206, 871.675
1114.688, 879.456
1115.170, 911.464
1115.652, 924.473
1116.135, 908.137
1116.617, 894.177
1117.099, 885.060
1117.581, 880.947
1118.063, 884.607
1118.545, 887.975
1119.027, 879.950
1119.509, 864.651
1119.992, 863.084
1120.474, 876.784
1120.956, 883.407
1121.438, 881.639
1121.920, 879.651
1122.402, 879.739
1122.884, 880.011
1123.366, 879.047
1123.849, 877.715
1124.331, 877.469
1124.813, 878.086
1125.295, 880.513
1125.777, 882.997
1126.259, 877.338
1126.741, 864.870
1127.223, 857.796
1127.705, 860.971
1128.188, 866.187
1128.670, 867.836
1129.152, 866.248
1129.634, 859.324
1130.116, 851.347
1130.598, 847.093
1131.080, 846.118
1131.562, 846.963
1132.044, 849.188
1132.527, 852.748
1133.009, 859.271
1133.491, 862.852
1133.973, 859.755
1134.455, 854.831
1134.937, 845.989
1135.419, 840.453
1135.901, 850.078
1136.384, 867.727
1136.866, 871.428
1137.348, 855.612
1137.830, 848.991
1138.312, 857.927
1138.794, 863.388
1139.276, 860.393
1139.758, 859.121
1140.240, 866.938
1140.723, 874.371
1141.205, 868.915
1141.687, 853.230
1142.169, 838.586
1142.651, 824.767
1143.133, 820.761
1143.615, 827.011
1144.097, 832.596
1144.579, 834.507
1145.062, 835.392
1145.544, 836.708
1146.026, 840.922
1146.508, 857.110
1146.990, 875.807
1147.472, 870.981
1147.954, 853.771
1148.436, 853.532
1148.919, 867.187
1149.401, 869.058
1149.883, 851.765
1150.365, 838.538
1150.847, 850.232
1151.329, 861.391
1151.811, 850.924
1152.293, 835.808
1152.776, 830.057
1153.258, 829.170
1153.740, 824.479
1154.222, 817.212
1154.704, 817.123
1155.186, 828.766
1155.668, 838.766
1156.150, 848.747
1156.632, 851.907
1157.115, 841.967
1157.597, 831.269
1158.079, 826.091
1158.561, 825.746
1159.043, 830.383
1159.525, 839.184
1160.007, 841.489
1160.489, 836.067
1160.971, 835.487
1161.454, 841.244
1161.936, 843.018
1162.418, 837.220
1162.900, 833.226
1163.382, 839.189
1163.864, 847.105
1164.346, 840.346
1164.828, 826.593
1165.311, 825.867
1165.793, 833.626
1166.275, 838.645
1166.757, 839.511
1167.239, 837.745
1167.721, 834.142
1168.203, 832.252
1168.685, 836.637
1169.167, 840.052
1169.650, 835.785
1170.132, 830.567
1170.614, 830.427
1171.096, 832.360
1171.578, 831.971
1172.060, 829.409
1172.542, 827.223
1173.024, 825.526
1173.506, 824.980
1173.989, 826.194
1174.471, 827.726
1174.953, 830.628
1175.435, 831.333
1175.917, 827.046
1176.399, 820.748
1176.881, 815.595
1177.363, 812.577
1177.846, 819.373
1178.328, 835.611
1178.810, 842.888
1179.292, 840.620
1179.774, 835.391
1180.256, 829.374
1180.738, 826.201
1181.220, 828.398
1181.703, 831.542
1182.185, 832.043
1182.667, 828.753
1183.149, 815.518
1183.631, 800.407
1184.113, 795.560
1184.595, 799.779
1185.077, 808.460
1185.559, 819.904
1186.042, 831.172
1186.524, 844.152
1187.006, 850.381
1187.488, 839.592
1187.970, 830.983
1188.452, 834.879
1188.934, 843.184
1189.416, 852.937
1189.898, 859.537
1190.381, 851.198
1190.863, 826.992
1191.345, 816.920
1191.827, 824.582
1192.309, 827.728
1192.791, 823.680
1193.273, 818.651
1193.755, 814.811
1194.238, 811.590
1194.720, 807.977
1195.202, 807.079
1195.684, 817.998
1196.166, 833.807
1196.648, 839.332
1197.130, 836.073
1197.612, 822.561
1198.094, 804.987
1198.577, 803.096
1199.059, 821.750
1199.541, 836.908
1200.023, 832.644
1200.505, 826.623
1200.987, 826.969
1201.469, 829.015
1201.951, 832.245
1202.433, 833.723
1202.916, 827.890
1203.398, 818.240
1203.880, 816.761
1204.362, 825.216
1204.844, 826.633
1205.326, 817.794
1205.808, 813.896
1206.290, 817.991
1206.773, 820.728
1207.255, 818.293
1207.737, 813.237
1208.219, 807.172
1208.701, 802.864
1209.183, 807.289
1209.665, 817.125
1210.147, 825.664
1210.630, 831.338
1211.112, 827.654
1211.594, 817.982
1212.076, 817.842
1212.558, 831.283
1213.040, 838.421
1213.522, 819.561
1214.004, 806.323
1214.486, 822.024
1214.969, 839.222
1215.451, 841.259
1215.933, 836.184
1216.415, 831.688
1216.897, 827.776
1217.379, 822.830
1217.861, 816.300
1218.343, 816.023
1218.825, 824.065
1219.308, 828.717
1219.790, 828.052
1220.272, 830.110
1220.754, 838.220
1221.236, 843.911
1221.718, 839.817
1222.200, 830.719
1222.682, 822.325
1223.165, 815.814
1223.647, 814.997
1224.129, 817.346
1224.611, 819.205
1225.093, 819.292
1225.575, 815.676
1226.057, 808.216
1226.539, 799.885
1227.021, 787.960
1227.504, 783.574
1227.986, 797.683
1228.468, 810.797
1228.950, 813.429
1229.432, 812.831
1229.914, 813.071
1230.396, 814.860
1230.878, 820.158
1231.360, 828.353
1231.843, 832.951
1232.325, 834.124
1232.807, 825.115
1233.289, 806.265
1233.771, 798.047
1234.253, 805.119
1234.735, 814.071
1235.217, 816.934
1235.700, 816.521
1236.182, 817.281
1236.664, 814.871
1237.146, 797.470
1237.628, 780.088
1238.110, 783.168
1238.592, 797.430
1239.074, 805.878
1239.557, 807.322
1240.039, 810.146
1240.521, 817.596
1241.003, 820.506
1241.485, 815.680
1241.967, 811.810
1242.449, 810.252
1242.931, 809.997
1243.413, 810.909
1243.896, 811.536
1244.378, 809.858
1244.860, 807.896
1245.342, 812.400
1245.824, 820.453
1246.306, 819.895
1246.788, 814.003
1247.270, 814.271
1247.752, 820.068
1248.235, 821.964
1248.717, 817.317
1249.199, 814.736
1249.681, 820.472
1250.163, 825.953
1250.645, 829.017
1251.127, 828.626
1251.609, 818.313
1252.092, 810.217
1252.574, 818.704
1253.056, 833.414
1253.538, 835.101
1254.020, 824.958
1254.502, 819.169
1254.984, 818.159
1255.466, 812.186
1255.948, 801.104
1256.431, 796.425
1256.913, 800.619
1257.395, 807.781
1257.877, 814.817
1258.359, 817.864
1258.841, 807.766
1259.323, 798.385
1259.805, 808.430
1260.287, 821.217
1260.770, 819.456
1261.252, 809.697
1261.734, 797.960
1262.216, 788.324
1262.698, 795.361
1263.180, 827.605
1263.662, 833.797
1264.144, 800.224
1264.627, 781.174
1265.109, 784.706
1265.591, 791.957
1266.073, 796.157
1266.555, 801.713
1267.037, 812.683
1267.519, 823.253
1268.001, 824.129
1268.484, 818.579
1268.966, 809.569
1269.448, 800.412
1269.930, 796.783
1270.412, 797.256
1270.894, 799.310
1271.376, 801.477
1271.858, 798.832
1272.340, 786.657
1272.823, 780.640
##END=



