##NAMES=Clinoptilolite-K
##RRUFFID=R110201
##IDEAL CHEMISTRY=K_6_(Si_30_Al_6_)O_72_&#183;20H_2_O
##LOCALITY=Conejo Volcanics, Agoura, Santa Monica Mountains, Los Angeles County, California, USA
##OWNER=RRUFF
##SOURCE=Donald Doell
##DESCRIPTION=Colorless tabular crystals associated with ferrierite-K R110200
##STATUS=The identification of this mineral has been confirmed only by single crystal X-ray diffraction.
##URL=rruff.info/R110201
234.1629, 733.5275
234.6451, 735.7468
235.1272, 736.8969
235.6093, 738.2906
236.0914, 740.1289
236.5735, 741.9349
237.0556, 743.4644
237.5378, 744.7308
238.0199, 745.6855
238.5020, 746.0842
238.9841, 746.1855
239.4662, 747.0297
239.9483, 749.0223
240.4305, 751.2499
240.9126, 753.3124
241.3947, 755.3634
241.8768, 756.9210
242.3589, 757.7053
242.8410, 758.0032
243.3232, 758.8695
243.8053, 760.5846
244.2874, 762.4717
244.7695, 764.1308
245.2516, 765.2839
245.7337, 766.8323
246.2159, 768.9886
246.6980, 771.5173
247.1801, 773.5989
247.6622, 774.9075
248.1443, 776.2617
248.6264, 778.1986
249.1086, 781.5394
249.5907, 783.3979
250.0728, 782.9247
250.5549, 781.1771
251.0370, 781.0603
251.5191, 783.4071
252.0013, 786.0957
252.4834, 788.3295
252.9655, 790.2230
253.4476, 791.2965
253.9297, 791.2069
254.4118, 790.4645
254.8940, 790.1198
255.3761, 790.0111
255.8582, 790.5886
256.3403, 792.2791
256.8224, 795.7354
257.3046, 798.0507
257.7867, 798.9179
258.2688, 798.7975
258.7509, 798.5123
259.2330, 797.9769
259.7151, 797.4244
260.1973, 796.9083
260.6794, 796.4030
261.1615, 796.0731
261.6436, 795.9345
262.1257, 795.9693
262.6078, 796.2324
263.0900, 796.9442
263.5721, 797.3978
264.0542, 797.3013
264.5363, 796.5724
265.0184, 795.9525
265.5005, 795.5007
265.9827, 795.1107
266.4648, 794.5939
266.9469, 793.8974
267.4290, 793.2561
267.9111, 792.7755
268.3932, 792.4726
268.8754, 791.8635
269.3575, 790.6602
269.8396, 789.5590
270.3217, 789.7489
270.8038, 791.7372
271.2859, 792.9167
271.7681, 792.1252
272.2502, 789.4658
272.7323, 788.4960
273.2144, 789.8376
273.6965, 791.6290
274.1786, 791.6263
274.6608, 789.3936
275.1429, 787.7495
275.6250, 787.4640
276.1071, 788.3799
276.5892, 789.5031
277.0714, 791.0135
277.5535, 792.1693
278.0356, 792.0956
278.5177, 790.6668
278.9998, 789.2333
279.4819, 787.9618
279.9641, 786.9040
280.4462, 786.6035
280.9283, 787.2989
281.4104, 787.7072
281.8925, 786.3478
282.3746, 783.1865
282.8568, 781.0794
283.3389, 780.7590
283.8210, 781.6048
284.3031, 782.1082
284.7852, 782.3301
285.2673, 781.8752
285.7495, 779.8458
286.2316, 776.4578
286.7137, 774.6057
287.1958, 775.0625
287.6779, 776.6395
288.1600, 776.8182
288.6422, 775.5762
289.1243, 774.2047
289.6064, 773.3660
290.0885, 773.0342
290.5706, 773.3347
291.0527, 774.4493
291.5349, 775.7189
292.0170, 775.8821
292.4991, 775.0323
292.9812, 774.3630
293.4633, 774.9200
293.9454, 776.2015
294.4276, 776.4626
294.9097, 775.4555
295.3918, 774.1219
295.8739, 773.4888
296.3560, 773.5226
296.8381, 774.0242
297.3203, 775.2534
297.8024, 776.8244
298.2845, 778.0586
298.7666, 778.9665
299.2487, 779.3510
299.7308, 778.3796
300.2130, 776.6299
300.6951, 775.7847
301.1772, 777.1932
301.6593, 779.5482
302.1414, 781.0082
302.6235, 781.5723
303.1057, 781.8552
303.5878, 782.2098
304.0699, 782.6514
304.5520, 783.2217
305.0341, 784.1270
305.5162, 784.9918
305.9984, 785.3806
306.4805, 785.3396
306.9626, 785.1998
307.4447, 784.7912
307.9268, 784.5401
308.4089, 785.0859
308.8911, 787.0010
309.3732, 789.1243
309.8553, 790.6422
310.3374, 791.6165
310.8195, 792.2786
311.3016, 792.4847
311.7838, 792.5632
312.2659, 792.8301
312.7480, 793.4211
313.2301, 794.0102
313.7122, 794.2508
314.1943, 794.3480
314.6765, 794.7322
315.1586, 796.3034
315.6407, 797.7296
316.1228, 797.7937
316.6049, 795.8075
317.0870, 794.7964
317.5692, 797.2081
318.0513, 801.1656
318.5334, 804.0315
319.0155, 804.4867
319.4976, 804.0809
319.9797, 803.0876
320.4619, 801.4314
320.9440, 800.4911
321.4261, 801.2361
321.9082, 802.6423
322.3903, 803.7382
322.8724, 804.1291
323.3546, 804.3605
323.8367, 804.6136
324.3188, 804.8791
324.8009, 804.8557
325.2830, 803.9787
325.7651, 803.1280
326.2473, 802.8809
326.7294, 804.4039
327.2115, 805.2822
327.6936, 804.8585
328.1757, 803.4755
328.6578, 802.7691
329.1400, 802.7711
329.6221, 803.4708
330.1042, 804.9883
330.5863, 808.7903
331.0684, 810.9611
331.5505, 810.5522
332.0327, 808.6637
332.5148, 807.6830
332.9969, 807.5956
333.4790, 808.4086
333.9611, 810.4005
334.4432, 814.1335
334.9254, 816.6017
335.4075, 817.2073
335.8896, 816.9821
336.3717, 817.4096
336.8538, 818.8730
337.3359, 819.9946
337.8180, 820.1799
338.3001, 819.4576
338.7823, 819.7092
339.2644, 821.2629
339.7465, 823.1747
340.2286, 824.5917
340.7107, 825.4874
341.1928, 826.0446
341.6750, 826.1363
342.1571, 825.9793
342.6392, 826.4676
343.1213, 827.7122
343.6034, 829.0787
344.0855, 830.1869
344.5677, 831.0336
345.0498, 831.5654
345.5319, 831.5775
346.0140, 831.5942
346.4961, 832.8644
346.9782, 835.3295
347.4604, 837.6926
347.9425, 838.8661
348.4246, 839.2816
348.9067, 840.5635
349.3888, 842.8995
349.8709, 845.5945
350.3531, 847.8998
350.8352, 849.8707
351.3173, 851.7062
351.7994, 853.3121
352.2815, 854.9036
352.7636, 856.7158
353.2458, 858.7416
353.7279, 861.3170
354.2100, 865.4965
354.6921, 870.2950
355.1742, 873.9332
355.6563, 875.1761
356.1385, 875.8073
356.6206, 877.4021
357.1027, 879.8593
357.5848, 882.6261
358.0669, 885.9554
358.5490, 889.1757
359.0312, 891.5162
359.5133, 892.4492
359.9954, 893.4387
360.4775, 895.4431
360.9596, 898.1451
361.4417, 900.8251
361.9239, 903.0205
362.4060, 905.2894
362.8881, 908.0519
363.3702, 911.4885
363.8523, 914.6989
364.3344, 917.1981
364.8166, 919.3873
365.2987, 921.7430
365.7808, 923.7784
366.2629, 926.5297
366.7450, 930.7847
367.2271, 936.5244
367.7093, 941.2926
368.1914, 943.9442
368.6735, 946.0644
369.1556, 948.6981
369.6377, 952.0022
370.1198, 955.5887
370.6020, 959.6525
371.0841, 964.0046
371.5662, 967.9794
372.0483, 971.2472
372.5304, 974.4600
373.0125, 977.8779
373.4947, 981.5107
373.9768, 985.1710
374.4589, 988.5794
374.9410, 992.2793
375.4231, 997.4895
375.9052, 1005.311
376.3874, 1011.646
376.8695, 1014.663
377.3516, 1014.525
377.8337, 1016.045
378.3158, 1019.356
378.7979, 1024.033
379.2801, 1030.144
379.7622, 1037.859
380.2443, 1044.540
380.7264, 1049.378
381.2085, 1053.200
381.6906, 1058.164
382.1728, 1064.241
382.6549, 1071.096
383.1370, 1078.630
383.6191, 1086.750
384.1012, 1094.812
384.5833, 1102.784
385.0655, 1110.788
385.5476, 1118.690
386.0297, 1126.693
386.5118, 1135.148
386.9939, 1144.477
387.4760, 1154.359
387.9582, 1164.277
388.4403, 1174.307
388.9224, 1184.854
389.4045, 1196.263
389.8866, 1208.288
390.3687, 1220.706
390.8509, 1233.641
391.3330, 1246.567
391.8151, 1259.182
392.2972, 1271.543
392.7793, 1284.064
393.2614, 1296.805
393.7436, 1309.801
394.2257, 1323.383
394.7078, 1337.631
395.1899, 1352.124
395.6720, 1366.859
396.1541, 1381.699
396.6363, 1396.435
397.1184, 1411.340
397.6005, 1425.810
398.0826, 1439.372
398.5647, 1451.828
399.0468, 1464.897
399.5290, 1480.069
400.0111, 1495.163
400.4932, 1508.465
400.9753, 1519.348
401.4574, 1529.321
401.9395, 1538.519
402.4217, 1546.899
402.9038, 1553.949
403.3859, 1559.172
403.8680, 1563.811
404.3501, 1568.770
404.8322, 1574.813
405.3144, 1578.337
405.7965, 1579.089
406.2786, 1577.582
406.7607, 1574.338
407.2428, 1569.158
407.7249, 1563.301
408.2071, 1557.367
408.6892, 1551.168
409.1713, 1543.749
409.6534, 1535.084
410.1355, 1525.045
410.6176, 1513.017
411.0998, 1499.263
411.5819, 1485.729
412.0640, 1472.988
412.5461, 1460.249
413.0282, 1445.926
413.5103, 1430.194
413.9925, 1413.833
414.4746, 1396.854
414.9567, 1379.486
415.4388, 1362.177
415.9209, 1344.750
416.4030, 1327.918
416.8852, 1312.727
417.3673, 1298.276
417.8494, 1283.057
418.3315, 1265.184
418.8136, 1247.329
419.2957, 1231.145
419.7779, 1216.563
420.2600, 1201.984
420.7421, 1186.435
421.2242, 1170.861
421.7063, 1156.421
422.1884, 1143.702
422.6706, 1130.920
423.1527, 1116.891
423.6348, 1102.506
424.1169, 1089.376
424.5990, 1078.230
425.0811, 1067.706
425.5633, 1057.343
426.0454, 1047.018
426.5275, 1037.489
427.0096, 1029.102
427.4917, 1021.100
427.9738, 1012.801
428.4560, 1003.911
428.9381, 995.3468
429.4202, 987.2984
429.9023, 979.7280
430.3844, 971.8946
430.8665, 963.4493
431.3487, 955.8752
431.8308, 950.3281
432.3129, 946.9720
432.7950, 942.6916
433.2771, 937.2784
433.7592, 931.4821
434.2414, 926.0250
434.7235, 920.9242
435.2056, 916.3607
435.6877, 912.6568
436.1698, 909.3734
436.6519, 905.2932
437.1341, 900.4816
437.6162, 896.0261
438.0983, 892.4481
438.5804, 889.7870
439.0625, 888.3159
439.5446, 888.3577
440.0268, 888.6453
440.5089, 888.1631
440.9910, 887.0833
441.4731, 885.7736
441.9552, 884.1193
442.4373, 882.4871
442.9195, 880.8992
443.4016, 879.3752
443.8837, 878.5131
444.3658, 879.0825
444.8479, 880.1014
445.3300, 880.7822
445.8122, 880.4346
446.2943, 880.4238
446.7764, 881.1586
447.2585, 882.3930
447.7406, 883.5046
448.2227, 883.9625
448.7049, 884.7838
449.1870, 886.2613
449.6691, 888.4135
450.1512, 891.1130
450.6333, 894.5826
451.1154, 898.3421
451.5976, 901.9535
452.0797, 905.3517
452.5618, 908.7556
453.0439, 912.2117
453.5260, 915.6951
454.0081, 919.2553
454.4903, 922.8784
454.9724, 926.7997
455.4545, 931.0658
455.9366, 935.6962
456.4187, 941.3282
456.9008, 948.0502
457.3830, 955.1097
457.8651, 961.2727
458.3472, 966.9003
458.8293, 972.9324
459.3114, 980.1190
459.7935, 987.4443
460.2757, 993.6014
460.7578, 998.7509
461.2399, 1003.894
461.7220, 1009.631
462.2041, 1015.670
462.6862, 1021.757
463.1684, 1027.911
463.6505, 1033.818
464.1326, 1039.594
464.6147, 1044.889
465.0968, 1049.335
465.5789, 1052.186
466.0611, 1054.720
466.5432, 1057.283
467.0253, 1059.880
467.5074, 1062.466
467.9895, 1064.649
468.4716, 1067.157
468.9538, 1070.348
469.4359, 1074.469
469.9180, 1078.636
470.4001, 1082.871
470.8822, 1087.159
471.3643, 1091.548
471.8465, 1096.123
472.3286, 1100.448
472.8107, 1104.125
473.2928, 1107.383
473.7749, 1112.171
474.2570, 1118.705
474.7392, 1125.473
475.2213, 1131.447
475.7034, 1136.685
476.1855, 1141.466
476.6676, 1145.708
477.1497, 1149.936
477.6319, 1155.406
478.1140, 1161.553
478.5961, 1166.421
479.0782, 1168.729
479.5603, 1169.593
480.0424, 1170.630
480.5246, 1171.639
481.0067, 1171.016
481.4888, 1166.665
481.9709, 1160.845
482.4530, 1155.676
482.9352, 1152.087
483.4173, 1147.818
483.8994, 1141.986
484.3815, 1134.871
484.8636, 1126.968
485.3457, 1118.848
485.8279, 1109.516
486.3100, 1098.432
486.7921, 1085.537
487.2742, 1072.568
487.7563, 1059.844
488.2384, 1046.607
488.7206, 1032.260
489.2027, 1015.739
489.6848, 1001.274
490.1669, 989.3790
490.6490, 979.0697
491.1311, 968.6038
491.6133, 958.0178
492.0954, 947.6605
492.5775, 937.6525
493.0596, 927.9427
493.5417, 917.9382
494.0238, 907.6484
494.5060, 898.0966
494.9881, 890.5208
495.4702, 884.2809
495.9523, 877.3817
496.4344, 869.3783
496.9165, 861.7264
497.3987, 855.8219
497.8808, 851.2891
498.3629, 847.5450
498.8450, 845.4411
499.3271, 843.1198
499.8092, 839.1334
500.2914, 833.7269
500.7735, 828.5817
501.2556, 823.9672
501.7377, 820.0031
502.2198, 816.8795
502.7019, 814.9728
503.1841, 812.9137
503.6662, 810.5402
504.1483, 807.9280
504.6304, 805.1428
505.1125, 801.7266
505.5946, 798.9487
506.0768, 797.1227
506.5589, 796.0839
507.0410, 794.9982
507.5231, 793.8549
508.0052, 792.6740
508.4873, 791.2996
508.9695, 789.7380
509.4516, 788.8453
509.9337, 788.7185
510.4158, 788.8419
510.8979, 788.6715
511.3800, 788.2452
511.8622, 787.7785
512.3443, 787.4196
512.8264, 786.9080
513.3085, 785.6815
513.7906, 783.9438
514.2728, 782.4182
514.7549, 781.7971
515.2370, 781.3900
515.7191, 780.6323
516.2012, 779.4741
516.6833, 778.1351
517.1655, 775.3818
517.6476, 773.2003
518.1297, 773.3324
518.6118, 779.4549
519.0939, 783.7839
519.5760, 784.6818
520.0582, 782.9649
520.5403, 780.6150
521.0224, 776.3238
521.5045, 773.2886
521.9866, 772.7783
522.4688, 774.7839
522.9509, 775.7142
523.4330, 775.1679
523.9151, 774.4702
524.3972, 774.8431
524.8793, 776.3139
525.3615, 776.9665
525.8436, 776.4543
526.3257, 775.5570
526.8078, 775.4808
527.2899, 776.0685
527.7720, 776.6139
528.2542, 777.0140
528.7363, 777.0752
529.2184, 776.1484
529.7005, 774.4694
530.1826, 773.2795
530.6647, 774.0629
531.1469, 775.2405
531.6290, 775.3390
532.1111, 773.9294
532.5932, 772.5999
533.0753, 771.9534
533.5574, 771.7246
534.0396, 771.6464
534.5217, 771.9336
535.0038, 772.0787
535.4859, 771.9912
535.9680, 771.7195
536.4501, 771.3943
536.9323, 771.0019
537.4144, 770.5770
537.8965, 770.0673
538.3786, 769.4605
538.8607, 769.2255
539.3428, 769.4349
539.8250, 769.7684
540.3071, 769.9592
540.7892, 770.0062
541.2713, 769.9312
541.7534, 769.6935
542.2355, 769.4393
542.7177, 769.4714
543.1998, 769.6769
543.6819, 769.6955
544.1640, 769.1454
544.6461, 768.4895
545.1282, 767.9635
545.6104, 767.6379
546.0925, 767.8976
546.5746, 769.7034
547.0567, 771.6300
547.5388, 772.5690
548.0209, 771.9098
548.5031, 771.8195
548.9852, 773.5537
549.4673, 775.6888
549.9494, 776.7031
550.4315, 775.7947
550.9136, 774.9374
551.3958, 774.1180
551.8779, 773.5208
552.3600, 773.8908
552.8421, 775.5730
553.3242, 777.0093
553.8063, 777.5879
554.2885, 777.3571
554.7706, 776.4948
555.2527, 774.9357
555.7348, 773.4629
556.2169, 772.6400
556.6990, 772.4451
557.1812, 773.0159
557.6633, 774.6259
558.1454, 776.0411
558.6275, 775.6482
559.1096, 774.2947
559.5917, 773.4614
560.0739, 774.2363
560.5560, 775.2254
561.0381, 775.9044
561.5202, 776.2518
562.0023, 776.2393
562.4844, 775.2021
562.9666, 774.3555
563.4487, 774.3439
563.9308, 775.3719
564.4129, 776.2043
564.8950, 776.9528
565.3771, 777.3695
565.8593, 777.0951
566.3414, 775.8282
566.8235, 775.1423
567.3056, 775.2294
567.7877, 775.8870
568.2698, 777.0632
568.7520, 778.7070
569.2341, 779.6988
569.7162, 779.2526
570.1983, 778.1640
570.6804, 778.0052
571.1625, 778.6506
571.6447, 779.1547
572.1268, 778.4271
572.6089, 777.5477
573.0910, 777.7394
573.5731, 779.2930
574.0552, 780.7258
574.5374, 781.0388
575.0195, 781.0823
575.5016, 781.6494
575.9837, 783.2972
576.4658, 784.9467
576.9479, 786.7343
577.4301, 788.3904
577.9122, 789.2426
578.3943, 788.3942
578.8764, 788.6016
579.3585, 791.2823
579.8406, 795.7862
580.3228, 797.2499
580.8049, 795.3028
581.2870, 792.7013
581.7691, 790.8403
582.2512, 789.8027
582.7333, 790.2084
583.2155, 792.2496
583.6975, 794.3316
584.1796, 794.9574
584.6617, 794.6527
585.1439, 794.2487
585.6260, 793.8593
586.1081, 793.6586
586.5902, 793.8060
587.0723, 794.2174
587.5544, 794.7192
588.0366, 795.1962
588.5187, 795.8144
589.0008, 796.4697
589.4829, 797.1953
589.9650, 798.6575
590.4471, 801.8757
590.9293, 804.4554
591.4114, 804.9323
591.8935, 802.8471
592.3756, 802.0108
592.8577, 802.7126
593.3398, 803.8694
593.8220, 804.3675
594.3041, 804.2916
594.7862, 804.2624
595.2683, 804.3795
595.7504, 804.6471
596.2325, 805.2693
596.7147, 806.0731
597.1968, 806.5831
597.6789, 806.0869
598.1610, 805.6666
598.6431, 806.3341
599.1252, 807.8478
599.6074, 809.0621
600.0895, 808.9793
600.5716, 809.0072
601.0537, 809.9430
601.5358, 812.0950
602.0179, 813.8917
602.5001, 815.1452
602.9822, 816.2107
603.4643, 817.3477
603.9464, 818.5990
604.4285, 819.7180
604.9106, 820.5403
605.3928, 821.5191
605.8749, 823.6807
606.3570, 826.9092
606.8391, 829.5092
607.3212, 830.6207
607.8033, 831.2662
608.2855, 833.1707
608.7676, 836.0093
609.2497, 838.6737
609.7318, 839.9216
610.2139, 841.1731
610.6960, 843.7639
611.1782, 847.6939
611.6603, 851.2889
612.1424, 853.9747
612.6245, 856.1710
613.1066, 858.0685
613.5887, 859.4150
614.0709, 861.1999
614.5530, 863.8572
615.0351, 866.6080
615.5172, 868.5881
615.9993, 869.6082
616.4814, 870.8192
616.9636, 872.3735
617.4457, 874.2095
617.9278, 876.4453
618.4099, 879.0056
618.8920, 881.1426
619.3741, 882.2048
619.8563, 882.9216
620.3384, 885.0227
620.8205, 888.0107
621.3026, 889.4289
621.7847, 886.0953
622.2668, 881.9083
622.7490, 880.1077
623.2311, 881.2232
623.7132, 881.7182
624.1953, 880.5056
624.6774, 878.4734
625.1595, 876.2038
625.6417, 873.4216
626.1238, 871.0865
626.6059, 869.5631
627.0880, 868.1516
627.5701, 865.7605
628.0522, 862.2523
628.5344, 859.1818
629.0165, 856.9550
629.4986, 855.2158
629.9807, 853.4111
630.4628, 851.5052
630.9449, 849.3954
631.4271, 846.1722
631.9092, 843.2285
632.3913, 842.7820
632.8734, 844.3499
633.3555, 844.9626
633.8376, 842.3113
634.3198, 838.8781
634.8019, 836.1502
635.2840, 834.4373
635.7661, 832.4904
636.2482, 829.3402
636.7303, 826.5893
637.2125, 825.5574
637.6946, 827.2724
638.1767, 827.6613
638.6588, 826.3044
639.1409, 824.0851
639.6230, 822.1775
640.1052, 820.5638
640.5873, 819.0239
641.0694, 817.5381
641.5515, 816.0789
642.0336, 814.5837
642.5157, 813.0995
642.9979, 811.7352
643.4800, 810.5653
643.9621, 809.5267
644.4442, 808.5277
644.9263, 807.5991
645.4084, 806.9622
645.8906, 807.2658
646.3727, 807.3828
646.8548, 806.5438
647.3369, 804.5112
647.8190, 803.5013
648.3011, 804.1761
648.7833, 804.8978
649.2654, 804.1873
649.7475, 801.8419
650.2296, 800.6766
650.7117, 801.0692
651.1938, 801.7708
651.6760, 800.6723
652.1581, 798.5495
652.6402, 798.1241
653.1223, 801.0281
653.6044, 803.8658
654.0865, 803.1041
654.5687, 800.1464
655.0508, 797.7103
655.5329, 796.6838
656.0150, 796.4573
656.4971, 797.4199
656.9792, 799.1942
657.4614, 799.8455
657.9435, 798.4990
658.4256, 797.1520
658.9077, 796.3951
659.3898, 796.2148
659.8719, 796.4529
660.3541, 797.2345
660.8362, 797.8386
661.3183, 797.4938
661.8004, 796.5189
662.2825, 796.3260
662.7646, 797.0413
663.2468, 797.6794
663.7289, 797.0879
664.2110, 796.0128
664.6931, 795.4520
665.1752, 795.7745
665.6573, 796.2474
666.1395, 796.8568
666.6216, 797.3339
667.1037, 797.3437
667.5858, 796.2498
668.0679, 795.4531
668.5500, 795.2024
669.0322, 795.2476
669.5143, 795.0231
669.9964, 794.4545
670.4785, 793.9491
670.9606, 793.5926
671.4427, 793.4001
671.9249, 793.4046
672.4070, 793.6055
672.8891, 794.0388
673.3712, 794.9923
673.8533, 796.0268
674.3354, 796.6086
674.8176, 796.7546
675.2997, 796.7594
675.7818, 796.5042
676.2639, 796.3617
676.7460, 796.6868
677.2281, 797.7684
677.7103, 798.2637
678.1924, 797.7000
678.6745, 796.9775
679.1566, 796.8094
679.6387, 797.3716
680.1208, 797.4795
680.6030, 796.8104
681.0851, 796.3660
681.5672, 798.0182
682.0493, 801.1329
682.5314, 803.0089
683.0135, 802.7657
683.4957, 801.5588
683.9778, 800.0970
684.4599, 798.5953
684.9420, 797.5121
685.4241, 796.8937
685.9063, 796.8271
686.3884, 797.9180
686.8705, 799.6730
687.3526, 800.3514
687.8347, 798.9856
688.3168, 797.8792
688.7990, 797.7903
689.2811, 798.5204
689.7632, 798.6143
690.2453, 797.9543
690.7274, 797.4999
691.2095, 797.8967
691.6917, 798.9188
692.1738, 799.9145
692.6559, 800.8683
693.1380, 801.9532
693.6201, 803.7377
694.1022, 805.4274
694.5844, 806.0812
695.0665, 805.3831
695.5486, 804.8948
696.0307, 805.1730
696.5128, 805.8463
696.9949, 806.6921
697.4771, 808.2302
697.9592, 808.7538
698.4413, 807.8422
698.9234, 806.4713
699.4055, 805.9251
699.8876, 806.2363
700.3698, 806.1939
700.8519, 805.5482
701.3340, 804.6496
701.8161, 803.9158
702.2982, 803.3282
702.7803, 802.8078
703.2625, 802.1061
703.7446, 801.7440
704.2267, 802.4180
704.7088, 803.6694
705.1909, 804.4863
705.6730, 803.7828
706.1552, 803.5079
706.6373, 804.1163
707.1194, 805.4955
707.6015, 807.3539
708.0836, 810.0201
708.5657, 812.0425
709.0479, 812.5908
709.5300, 812.0390
710.0121, 812.0302
710.4942, 812.5372
710.9763, 813.0473
711.4584, 813.3297
711.9406, 813.3575
712.4227, 812.9907
712.9048, 812.2443
713.3869, 811.5979
713.8690, 811.4241
714.3511, 811.3477
714.8333, 811.0721
715.3154, 810.4066
715.7975, 810.2093
716.2796, 810.9139
716.7617, 811.5963
717.2438, 811.3546
717.7260, 810.0517
718.2081, 809.5397
718.6902, 810.0408
719.1723, 810.9196
719.6544, 811.4661
720.1365, 811.8002
720.6187, 812.2454
721.1008, 812.9355
721.5829, 813.5457
722.0650, 813.8107
722.5471, 813.8450
723.0292, 813.8090
723.5114, 813.8388
723.9935, 813.6528
724.4756, 812.8088
724.9577, 811.8469
725.4398, 811.7309
725.9219, 812.6983
726.4041, 813.8147
726.8862, 815.0106
727.3683, 816.0853
727.8504, 816.4310
728.3325, 816.1282
728.8146, 815.7117
729.2968, 815.4545
729.7789, 815.1788
730.2610, 814.4363
730.7431, 813.4605
731.2252, 813.0259
731.7073, 814.1422
732.1895, 815.2175
732.6716, 815.5426
733.1537, 815.1303
733.6358, 814.6613
734.1179, 813.9889
734.6000, 813.5303
735.0822, 813.5919
735.5643, 814.0908
736.0464, 813.9441
736.5285, 813.1060
737.0106, 812.6340
737.4927, 814.0112
737.9749, 815.9874
738.4570, 816.0364
738.9391, 814.1045
739.4212, 812.5762
739.9033, 813.6407
740.3854, 815.0723
740.8676, 815.0765
741.3497, 812.8712
741.8318, 811.5721
742.3139, 811.6998
742.7960, 812.3624
743.2781, 813.0881
743.7603, 813.9482
744.2424, 814.2407
744.7245, 813.8111
745.2066, 813.4124
745.6887, 814.0657
746.1708, 815.3662
746.6530, 816.2018
747.1351, 816.3269
747.6172, 816.3125
748.0993, 816.5537
748.5814, 816.9044
749.0635, 817.1832
749.5457, 817.1135
750.0278, 817.3471
750.5099, 817.8703
750.9920, 818.7640
751.4741, 820.4551
751.9562, 823.4953
752.4384, 824.5928
752.9205, 822.7493
753.4026, 819.9156
753.8847, 819.2001
754.3668, 820.2038
754.8489, 821.3729
755.3311, 822.3061
755.8132, 823.0956
756.2953, 823.7101
756.7774, 824.2525
757.2595, 824.8882
757.7416, 826.2303
758.2238, 827.0345
758.7059, 826.4674
759.1880, 825.3419
759.6701, 825.5583
760.1522, 827.8419
760.6343, 829.0663
761.1165, 828.0154
761.5986, 825.8876
762.0807, 825.7514
762.5628, 827.3158
763.0449, 828.8696
763.5270, 829.8669
764.0092, 830.2731
764.4913, 829.6068
764.9734, 828.2610
765.4555, 827.4547
765.9376, 827.8958
766.4197, 828.6624
766.9019, 829.4824
767.3840, 830.3580
767.8661, 831.3682
768.3482, 832.5000
768.8303, 833.8303
769.3124, 835.7706
769.7946, 837.7850
770.2767, 837.4855
770.7588, 835.1446
771.2409, 833.3129
771.7230, 833.8360
772.2051, 835.4108
772.6873, 837.0471
773.1694, 838.6640
773.6515, 839.9338
774.1336, 841.0706
774.6157, 841.5248
775.0978, 840.7255
775.5800, 838.7581
776.0621, 837.6291
776.5442, 837.3309
777.0263, 837.9279
777.5084, 840.1765
777.9905, 843.4258
778.4727, 844.1080
778.9548, 842.3571
779.4369, 840.6535
779.9190, 840.7460
780.4011, 841.7471
780.8832, 843.0062
781.3654, 844.4406
781.8475, 845.5614
782.3296, 845.9454
782.8117, 846.2073
783.2938, 846.7285
783.7759, 847.5723
784.2581, 847.8857
784.7402, 847.4622
785.2223, 847.1917
785.7044, 848.1696
786.1865, 849.8675
786.6686, 849.8137
787.1508, 847.9736
787.6329, 846.3851
788.1150, 846.8729
788.5971, 848.1426
789.0792, 848.9484
789.5613, 849.0991
790.0435, 849.3337
790.5256, 849.6882
791.0077, 850.2871
791.4898, 851.4324
791.9719, 853.3785
792.4540, 853.5743
792.9362, 851.5817
793.4183, 849.5731
793.9004, 849.6694
794.3825, 851.1613
794.8646, 852.1503
795.3467, 852.5089
795.8289, 852.4811
796.3110, 852.1893
796.7931, 851.6487
797.2752, 850.8650
797.7573, 849.8206
798.2394, 848.6126
798.7216, 846.6401
799.2037, 845.1963
799.6858, 845.3870
800.1679, 847.5660
800.6500, 848.6558
801.1321, 848.5851
801.6143, 848.0101
802.0964, 847.3389
802.5785, 846.6427
803.0606, 845.9949
803.5427, 845.3898
804.0248, 845.0395
804.5070, 845.0067
804.9891, 845.2980
805.4712, 846.0099
805.9533, 847.4197
806.4354, 848.3473
806.9175, 848.6611
807.3997, 848.6592
807.8818, 848.3644
808.3639, 847.7950
808.8460, 848.0246
809.3281, 849.1531
809.8102, 850.2802
810.2924, 850.4352
810.7745, 850.1693
811.2566, 850.2010
811.7387, 850.6380
812.2208, 851.3036
812.7029, 852.4171
813.1851, 853.5306
813.6672, 854.3578
814.1493, 854.9032
814.6314, 855.0430
815.1135, 854.4850
815.5956, 854.2489
816.0778, 855.5010
816.5599, 857.8397
817.0420, 859.3021
817.5241, 859.7657
818.0062, 860.1033
818.4883, 861.0670
818.9705, 862.1911
819.4526, 863.0335
819.9347, 863.5152
820.4168, 863.8138
820.8989, 863.9588
821.3810, 863.9262
821.8632, 863.7744
822.3453, 863.5622
822.8274, 862.5984
823.3095, 860.8229
823.7916, 858.8606
824.2737, 857.4294
824.7559, 856.1461
825.2380, 854.0475
825.7201, 851.1334
826.2022, 848.3980
826.6843, 846.4143
827.1664, 844.8731
827.6486, 843.5634
828.1307, 842.4476
828.6128, 841.7512
829.0949, 841.5595
829.5770, 841.6234
830.0591, 842.1859
830.5413, 843.0626
831.0234, 841.7180
831.5055, 838.1824
831.9876, 835.1970
832.4697, 835.2241
832.9518, 836.4891
833.4340, 837.2499
833.9161, 837.4001
834.3982, 837.1827
834.8803, 836.4728
835.3624, 835.6044
835.8445, 834.5958
836.3267, 833.4801
836.8088, 833.0653
837.2909, 833.5362
837.7730, 833.8875
838.2551, 833.4095
838.7372, 832.4622
839.2194, 831.9572
839.7015, 831.8362
840.1836, 831.7502
840.6657, 831.3084
841.1478, 831.0033
841.6299, 831.2330
842.1121, 831.9407
842.5942, 832.5389
843.0763, 833.0568
843.5584, 833.3245
844.0405, 833.1784
844.5226, 832.7667
845.0048, 832.7112
845.4869, 832.9884
845.9690, 833.3137
846.4511, 833.5990
846.9332, 833.8109
847.4153, 833.9789
847.8975, 834.0551
848.3796, 833.8945
848.8617, 833.1290
849.3438, 832.5060
849.8259, 832.2267
850.3080, 832.2502
850.7902, 832.5255
851.2723, 833.0998
851.7544, 833.6981
852.2365, 834.3318
852.7186, 834.8137
853.2007, 834.5947
853.6829, 833.9388
854.1650, 833.5891
854.6471, 834.3981
855.1292, 834.8372
855.6113, 833.2542
856.0934, 831.0214
856.5756, 830.7985
857.0577, 834.2620
857.5398, 836.3192
858.0219, 836.0233
858.5040, 834.7434
858.9861, 834.8087
859.4683, 835.9296
859.9504, 836.5236
860.4325, 836.1307
860.9146, 835.3942
861.3967, 834.2731
861.8788, 833.4216
862.3610, 833.7744
862.8431, 837.2451
863.3252, 838.7836
863.8073, 836.9139
864.2894, 834.1554
864.7715, 833.1043
865.2537, 833.8818
865.7358, 834.0193
866.2179, 833.2552
866.7000, 832.4990
867.1821, 833.0225
867.6642, 834.0116
868.1464, 834.0520
868.6285, 832.7213
869.1106, 832.0408
869.5927, 833.4357
870.0748, 835.2186
870.5569, 836.2507
871.0391, 836.3896
871.5212, 836.6447
872.0033, 837.0613
872.4854, 837.2808
872.9675, 836.7178
873.4496, 835.7919
873.9318, 835.7247
874.4139, 836.4547
874.8960, 836.9727
875.3781, 836.3160
875.8602, 835.5728
876.3423, 835.5828
876.8245, 836.3751
877.3066, 836.5332
877.7887, 835.8021
878.2708, 835.1320
878.7529, 835.1116
879.2350, 835.4059
879.7172, 834.6087
880.1993, 832.9168
880.6814, 831.4232
881.1635, 830.6288
881.6456, 830.3489
882.1277, 830.5192
882.6099, 831.0861
883.0920, 831.9186
883.5741, 833.4144
884.0562, 834.5004
884.5383, 834.8547
885.0204, 834.7947
885.5026, 835.0214
885.9847, 835.5013
886.4668, 835.9641
886.9489, 836.2924
887.4310, 836.6365
887.9131, 837.0656
888.3953, 837.6525
888.8774, 838.5641
889.3595, 841.0887
889.8416, 841.9973
890.3237, 839.5901
890.8058, 836.5215
891.2880, 835.8755
891.7701, 837.9590
892.2522, 838.4348
892.7343, 836.7589
893.2164, 834.6165
893.6985, 833.3988
894.1807, 832.9912
894.6628, 833.4775
895.1449, 835.0555
895.6270, 836.0790
896.1091, 835.5786
896.5912, 834.6539
897.0734, 833.8129
897.5555, 833.0042
898.0376, 833.2965
898.5197, 834.8987
899.0018, 836.4002
899.4839, 836.6102
899.9661, 836.1330
900.4482, 836.1871
900.9303, 836.6785
901.4124, 836.8272
901.8945, 835.1237
902.3766, 834.0869
902.8588, 835.6619
903.3409, 839.0734
903.8230, 840.8038
904.3051, 840.5226
904.7872, 839.7766
905.2693, 838.8359
905.7515, 837.9912
906.2336, 838.0257
906.7157, 838.6586
907.1978, 839.0985
907.6799, 839.1253
908.1620, 838.7505
908.6442, 837.3073
909.1263, 835.7077
909.6084, 835.5457
910.0905, 837.6838
910.5726, 838.9809
911.0547, 839.0472
911.5369, 838.5366
912.0190, 838.1818
912.5011, 837.9636
912.9832, 837.8271
913.4653, 837.7709
913.9474, 837.7497
914.4296, 837.5033
914.9117, 837.4257
915.3938, 838.1103
915.8759, 840.1038
916.3580, 840.2120
916.8401, 837.5914
917.3223, 835.1364
917.8044, 835.0023
918.2865, 836.6653
918.7686, 838.5856
919.2507, 840.6445
919.7328, 841.9544
920.2150, 841.5457
920.6971, 840.6055
921.1792, 839.3729
921.6613, 838.1268
922.1434, 838.5847
922.6255, 842.1359
923.1077, 844.0862
923.5898, 842.5156
924.0719, 839.1323
924.5540, 837.7874
925.0361, 838.1309
925.5182, 838.8185
926.0004, 839.5908
926.4825, 840.1250
926.9646, 839.8054
927.4467, 839.2474
927.9288, 839.4543
928.4109, 841.1164
928.8931, 842.2255
929.3752, 842.7061
929.8573, 842.5659
930.3394, 841.3674
930.8215, 839.5414
931.3036, 838.7797
931.7858, 839.3595
932.2679, 839.8828
932.7500, 839.0720
933.2321, 838.0696
933.7142, 837.8590
934.1964, 838.6864
934.6785, 838.9911
935.1606, 838.5292
935.6427, 838.1754
936.1248, 838.4963
936.6069, 839.2471
937.0891, 839.5920
937.5712, 839.5821
938.0533, 839.4626
938.5354, 838.8856
939.0175, 838.6987
939.4996, 839.6446
939.9818, 841.3423
940.4639, 842.7667
940.9460, 844.1505
941.4281, 844.3040
941.9102, 842.5294
942.3923, 840.3369
942.8745, 840.4788
943.3566, 842.2255
943.8387, 843.4395
944.3208, 843.4830
944.8029, 843.3874
945.2850, 843.4738
945.7672, 843.8806
946.2493, 844.9850
946.7314, 847.3824
947.2135, 847.8384
947.6956, 845.8700
948.1777, 843.6473
948.6599, 842.7501
949.1420, 842.9033
949.6241, 843.8544
950.1062, 845.4299
950.5883, 846.4573
951.0704, 845.9279
951.5526, 845.0473
952.0347, 843.9748
952.5168, 843.0145
952.9989, 843.6696
953.4810, 846.4918
953.9631, 848.2142
954.4453, 847.6102
954.9274, 845.9670
955.4095, 845.1292
955.8916, 844.9362
956.3737, 845.0894
956.8558, 845.9456
957.3380, 846.2982
957.8201, 845.4670
958.3022, 844.1301
958.7843, 842.7486
959.2664, 841.1334
959.7485, 840.8013
960.2307, 841.9583
960.7128, 843.1985
961.1949, 842.8876
961.6770, 842.0808
962.1591, 842.4597
962.6412, 844.0547
963.1234, 845.3494
963.6055, 845.0106
964.0876, 845.2260
964.5697, 847.2190
965.0518, 850.3041
965.5339, 851.1900
966.0161, 849.8704
966.4982, 849.0010
966.9803, 849.8041
967.4624, 851.1506
967.9445, 852.0156
968.4266, 852.4770
968.9088, 852.6493
969.3909, 852.9014
969.8730, 852.2767
970.3551, 850.1221
970.8372, 847.8888
971.3193, 847.0258
971.8015, 847.4633
972.2836, 848.8442
972.7657, 851.1963
973.2478, 852.6804
973.7299, 850.8837
974.2120, 848.3665
974.6942, 847.0159
975.1763, 847.0398
975.6584, 848.3991
976.1405, 851.9548
976.6226, 854.8929
977.1047, 856.0197
977.5869, 855.9608
978.0690, 856.3863
978.5511, 857.1165
979.0332, 857.5052
979.5153, 857.1550
979.9974, 856.5855
980.4796, 856.0687
980.9617, 855.4904
981.4438, 854.6151
981.9259, 853.0463
982.4080, 852.5436
982.8901, 853.4352
983.3723, 854.4714
983.8544, 854.1262
984.3365, 853.1407
984.8186, 852.9918
985.3007, 853.7896
985.7828, 854.5572
986.2650, 854.9666
986.7471, 855.1357
987.2292, 854.9352
987.7113, 854.5331
988.1934, 854.9730
988.6755, 856.2891
989.1577, 857.4283
989.6398, 857.8658
990.1219, 858.1003
990.6040, 858.9103
991.0861, 859.8782
991.5682, 860.3000
992.0504, 859.5370
992.5325, 858.8134
993.0146, 857.8624
993.4967, 857.4503
993.9788, 858.8295
994.4609, 861.6628
994.9431, 862.6835
995.4252, 861.7375
995.9073, 860.6844
996.3894, 861.1920
996.8715, 861.8663
997.3536, 861.4537
997.8358, 860.0381
998.3179, 859.3905
998.8000, 859.8011
999.2821, 860.3339
999.7642, 860.7759
1000.246, 861.1106
1000.728, 861.1719
1001.211, 861.1000
1001.693, 861.3069
1002.175, 862.2089
1002.657, 862.7777
1003.139, 861.8646
1003.621, 860.9229
1004.103, 861.2764
1004.585, 863.1195
1005.068, 865.3986
1005.550, 868.2443
1006.032, 870.3369
1006.514, 870.2566
1006.996, 869.1248
1007.478, 867.9813
1007.960, 866.9688
1008.442, 866.5760
1008.924, 867.4077
1009.407, 868.2516
1009.889, 868.8550
1010.371, 869.3492
1010.853, 870.1699
1011.335, 871.2178
1011.817, 871.7673
1012.299, 871.6768
1012.781, 871.0645
1013.263, 869.4607
1013.746, 867.7630
1014.228, 866.8322
1014.710, 866.7845
1015.192, 867.4447
1015.674, 869.1159
1016.156, 870.5359
1016.638, 870.7024
1017.120, 870.2004
1017.603, 870.1561
1018.085, 870.5333
1018.567, 871.2336
1019.049, 872.7147
1019.531, 873.8343
1020.013, 873.8373
1020.495, 873.5296
1020.977, 874.2676
1021.459, 876.0748
1021.942, 877.1786
1022.424, 877.3001
1022.906, 877.1154
1023.388, 877.5822
1023.870, 877.8655
1024.352, 876.8727
1024.834, 874.3900
1025.316, 872.6222
1025.799, 871.7182
1026.281, 871.5826
1026.763, 872.4020
1027.245, 873.8100
1027.727, 874.9521
1028.209, 875.8793
1028.691, 876.7408
1029.173, 877.6361
1029.656, 878.4097
1030.138, 878.6676
1030.620, 878.9520
1031.102, 880.0663
1031.584, 882.4417
1032.066, 882.7674
1032.548, 880.7545
1033.030, 878.7170
1033.512, 878.3324
1033.995, 879.1572
1034.477, 881.3586
1034.959, 884.5424
1035.441, 886.5027
1035.923, 886.3082
1036.405, 885.3820
1036.887, 883.6053
1037.369, 881.7183
1037.851, 881.1608
1038.334, 881.7489
1038.816, 882.8071
1039.298, 884.2836
1039.780, 885.8056
1040.262, 887.9616
1040.744, 889.4453
1041.226, 888.8887
1041.708, 886.1408
1042.191, 884.6147
1042.673, 884.3680
1043.155, 884.6963
1043.637, 885.4467
1044.119, 886.3549
1044.601, 887.0945
1045.083, 887.7069
1045.565, 888.2587
1046.047, 889.2104
1046.530, 889.3451
1047.012, 888.0864
1047.494, 886.7026
1047.976, 886.6921
1048.458, 887.8173
1048.940, 889.0078
1049.422, 890.1762
1049.904, 891.2891
1050.386, 892.8338
1050.869, 893.8508
1051.351, 893.1266
1051.833, 891.3011
1052.315, 891.1474
1052.797, 892.9276
1053.279, 894.3554
1053.761, 894.7986
1054.243, 894.7371
1054.726, 894.2733
1055.208, 893.9173
1055.690, 894.6179
1056.172, 897.3344
1056.654, 898.4553
1057.136, 896.9669
1057.618, 895.2839
1058.100, 894.9570
1058.583, 895.5818
1059.065, 895.6030
1059.547, 895.1100
1060.029, 894.5040
1060.511, 893.6904
1060.993, 893.1735
1061.475, 893.1327
1061.957, 893.5540
1062.439, 894.5208
1062.922, 896.1204
1063.404, 897.6674
1063.886, 899.1670
1064.368, 899.9952
1064.850, 899.3328
1065.332, 897.9243
1065.814, 896.0923
1066.296, 894.0052
1066.778, 893.1483
1067.261, 894.0739
1067.743, 895.1537
1068.225, 896.0689
1068.707, 896.7391
1069.189, 896.8348
1069.671, 896.5782
1070.153, 896.5693
1070.635, 897.1130
1071.118, 897.2825
1071.600, 895.8700
1072.082, 894.8096
1072.564, 895.4912
1073.046, 897.7047
1073.528, 898.7092
1074.010, 898.5732
1074.492, 898.2180
1074.974, 898.3976
1075.457, 898.2532
1075.939, 896.3245
1076.421, 893.9307
1076.903, 893.3799
1077.385, 895.2779
1077.867, 897.5687
1078.349, 900.4114
1078.831, 902.4905
1079.313, 901.2167
1079.796, 899.1319
1080.278, 900.8094
1080.760, 905.8014
1081.242, 909.4920
1081.724, 909.1262
1082.206, 908.9218
1082.688, 909.3441
1083.170, 910.7766
1083.652, 914.6917
1084.135, 920.3261
1084.617, 924.2401
1085.099, 925.4590
1085.581, 927.5967
1086.063, 934.4500
1086.545, 941.3392
1087.027, 945.2883
1087.509, 946.5714
1087.992, 948.6335
1088.474, 951.5079
1088.956, 952.3055
1089.438, 948.8400
1089.920, 944.5878
1090.402, 942.5118
1090.884, 941.9438
1091.366, 942.0878
1091.849, 943.2155
1092.331, 943.9359
1092.813, 944.1218
1093.295, 944.3304
1093.777, 945.1736
1094.259, 946.2103
1094.741, 946.7283
1095.223, 946.7228
1095.705, 946.2328
1096.188, 944.6392
1096.670, 943.4413
1097.152, 943.1472
1097.634, 942.9531
1098.116, 941.9439
1098.598, 940.1199
1099.080, 937.0512
1099.562, 932.7264
1100.044, 929.4468
1100.527, 929.3797
1101.009, 930.0251
1101.491, 930.2815
1101.973, 930.1332
1102.455, 929.3900
1102.937, 928.0520
1103.419, 927.0753
1103.901, 926.7893
1104.384, 926.6205
1104.866, 925.9411
1105.348, 925.1608
1105.830, 924.7180
1106.312, 924.7088
1106.794, 924.5762
1107.276, 924.2827
1107.758, 923.9775
1108.240, 923.6763
1108.723, 923.4481
1109.205, 923.0641
1109.687, 922.8974
1110.169, 923.7067
1110.651, 926.5438
1111.133, 928.8350
1111.615, 930.4241
1112.097, 931.4339
1112.579, 931.8422
1113.062, 931.7595
1113.544, 931.4561
1114.026, 930.9949
1114.508, 930.6810
1114.990, 930.8977
1115.472, 930.9965
1115.954, 930.7706
1116.436, 930.3445
1116.919, 929.6192
1117.401, 928.6868
1117.883, 928.9367
1118.365, 930.5007
1118.847, 932.4214
1119.329, 934.6934
1119.811, 936.4691
1120.293, 937.0674
1120.776, 936.6832
1121.258, 935.7078
1121.740, 933.9749
1122.222, 933.3724
1122.704, 934.5162
1123.186, 935.8395
1123.668, 935.5753
1124.150, 934.7291
1124.632, 934.3221
1125.115, 934.5096
1125.597, 934.8953
1126.079, 935.6231
1126.561, 935.9871
1127.043, 935.4950
1127.525, 934.8905
1128.007, 935.9379
1128.489, 937.5927
1128.971, 937.8715
1129.454, 935.3786
1129.936, 934.1761
1130.418, 935.2103
1130.900, 936.4736
1131.382, 936.5814
1131.864, 936.0729
1132.346, 936.8831
1132.828, 938.5438
1133.311, 939.5154
1133.793, 937.8050
1134.275, 937.1082
1134.757, 938.8563
1135.239, 941.1896
1135.721, 942.3918
1136.203, 942.5602
1136.685, 942.8063
1137.167, 943.1074
1137.650, 943.0134
1138.132, 940.9517
1138.614, 939.8456
1139.096, 942.4885
1139.578, 946.3916
1140.060, 947.3817
1140.542, 945.4091
1141.024, 943.9024
1141.506, 943.2335
1141.989, 943.0911
1142.471, 943.7471
1142.953, 944.3976
1143.435, 944.0433
1143.917, 943.0925
1144.399, 943.6295
1144.881, 945.8939
1145.363, 948.0975
1145.846, 949.8986
1146.328, 951.1280
1146.810, 951.1525
1147.292, 950.7360
1147.774, 950.6576
1148.256, 951.0290
1148.738, 951.5040
1149.220, 952.1180
1149.703, 952.6569
1150.185, 953.0850
1150.667, 953.3146
1151.149, 953.0014
1151.631, 952.4864
1152.113, 952.4719
1152.595, 953.5775
1153.077, 953.2256
1153.559, 950.4420
1154.042, 948.2365
1154.524, 948.3841
1155.006, 950.0117
1155.488, 951.9229
1155.970, 953.6645
1156.452, 953.9839
1156.934, 951.0782
1157.416, 949.3944
1157.898, 949.8976
1158.381, 950.9483
1158.863, 951.2705
1159.345, 951.1244
1159.827, 951.6617
1160.309, 952.6985
1160.791, 953.4892
1161.273, 953.3279
1161.755, 953.3537
1162.238, 954.1376
1162.720, 954.8783
1163.202, 954.4545
1163.684, 953.1293
1164.166, 952.7383
1164.648, 953.2707
1165.130, 953.8812
1165.612, 954.2963
1166.094, 954.4381
1166.577, 954.2348
1167.059, 953.7846
1167.541, 953.0605
1168.023, 952.1277
1168.505, 951.8472
1168.987, 952.3157
1169.469, 952.9562
1169.951, 953.3560
1170.433, 953.8305
1170.916, 954.9459
1171.398, 954.7159
1171.880, 956.0456
1172.362, 954.5293
1172.844, 953.4293
1173.326, 953.0922
1173.808, 953.0869
1174.290, 953.1790
1174.773, 953.3485
1175.255, 953.7789
1175.737, 954.3082
1176.219, 953.8788
1176.701, 952.4216
1177.183, 951.4306
1177.665, 951.3600
1178.147, 951.6972
1178.630, 952.3633
1179.112, 952.9160
1179.594, 952.8566
1180.076, 952.1815
1180.558, 951.3297
1181.040, 950.2126
1181.522, 949.9449
1182.004, 951.5499
1182.486, 952.8788
1182.969, 950.5674
1183.451, 947.2108
1183.933, 946.2056
1184.415, 948.3546
1184.897, 949.5030
1185.379, 949.5363
1185.861, 949.2615
1186.343, 949.0501
1186.825, 948.7857
1187.308, 948.3561
1187.790, 947.7689
1188.272, 947.0370
1188.754, 946.1573
1189.236, 945.1563
1189.718, 944.0490
1190.200, 942.8232
1190.682, 941.0320
1191.165, 939.5035
1191.647, 939.7703
1192.129, 941.0179
1192.611, 941.5417
1193.093, 940.3437
1193.575, 940.1793
1194.057, 941.3647
1194.539, 942.4587
1195.021, 942.2921
1195.504, 941.3861
1195.986, 940.0355
1196.468, 938.5419
1196.950, 937.8323
1197.432, 938.6846
1197.914, 938.7371
1198.396, 937.6225
1198.878, 936.4767
1199.360, 936.6843
1199.843, 937.3474
1200.325, 937.3643
1200.807, 936.7026
1201.289, 935.3038
1201.771, 932.3290
1202.253, 930.6880
1202.735, 930.9324
1203.217, 931.8912
1203.700, 932.3415
1204.182, 932.6458
1204.664, 933.6569
1205.146, 935.1688
1205.628, 935.4583
1206.110, 933.2799
1206.592, 932.2582
1207.074, 933.3185
1207.557, 934.5478
1208.039, 932.8986
1208.521, 930.2292
1209.003, 929.4664
1209.485, 930.7106
1209.967, 931.3115
1210.449, 930.5955
1210.931, 930.0145
1211.413, 929.8481
1211.896, 930.0045
1212.378, 930.6738
1212.860, 931.4289
1213.342, 931.8104
1213.824, 931.7684
1214.306, 930.4813
1214.788, 927.1892
1215.270, 924.7628
1215.752, 924.1077
1216.235, 924.2848
1216.717, 924.0169
1217.199, 923.6739
1217.681, 924.0110
1218.163, 925.2272
1218.645, 925.3610
1219.127, 923.8643
1219.609, 922.6443
1220.092, 922.3395
1220.574, 922.4903
1221.056, 922.6385
1221.538, 922.6752
1222.020, 922.1830
1222.502, 922.7999
1222.984, 921.2031
1223.466, 923.7391
1223.948, 925.8508
1224.431, 926.5101
1224.913, 926.3680
1225.395, 926.3301
1225.877, 926.1172
1226.359, 925.1324
1226.841, 922.9323
1227.323, 922.0596
1227.805, 922.8044
1228.287, 923.8348
1228.770, 924.9112
1229.252, 925.4176
1229.734, 923.7874
1230.216, 921.4159
1230.698, 920.2736
1231.180, 920.9161
1231.662, 921.4987
1232.144, 922.0599
1232.627, 922.3849
1233.109, 922.3371
1233.591, 922.0951
1234.073, 922.1214
1234.555, 921.9775
1235.037, 920.8493
1235.519, 918.3846
1236.001, 917.0496
1236.484, 916.9726
1236.966, 917.0486
1237.448, 916.5040
1237.930, 916.2244
1238.412, 917.5334
1238.894, 919.4310
1239.376, 920.4810
1239.858, 920.4944
1240.340, 920.6300
1240.823, 920.8712
1241.305, 921.1113
1241.787, 921.1087
1242.269, 921.2977
1242.751, 922.4406
1243.233, 923.7263
1243.715, 923.9945
1244.197, 923.0499
1244.679, 923.2614
1245.162, 924.5993
1245.644, 925.3728
1246.126, 923.5870
1246.608, 922.4174
1247.090, 925.7561
1247.572, 929.6805
1248.054, 929.2581
1248.536, 924.2502
1249.019, 922.7911
1249.501, 924.5871
1249.983, 926.2883
1250.465, 925.6270
1250.947, 924.9339
1251.429, 925.7317
1251.911, 926.7851
1252.393, 926.8199
1252.875, 925.9005
1253.358, 925.4990
1253.840, 925.5912
1254.322, 926.1003
1254.804, 927.3503
1255.286, 928.5001
1255.768, 929.2842
1256.250, 929.8174
1256.732, 930.2327
1257.214, 930.4832
1257.697, 929.8753
1258.179, 928.7250
1258.661, 928.4366
1259.143, 930.9834
1259.625, 932.5067
1260.107, 931.8367
1260.589, 930.7999
1261.071, 931.1090
1261.554, 932.2492
1262.036, 932.5706
1262.518, 932.2430
1263.000, 931.9161
1263.482, 931.7366
1263.964, 931.7072
1264.446, 931.9059
1264.928, 932.0074
1265.411, 931.6218
1265.893, 931.0101
1266.375, 930.6221
1266.857, 930.4439
1267.339, 930.4105
1267.821, 930.0109
1268.303, 931.1110
1268.785, 934.3699
1269.267, 936.8768
1269.750, 935.1739
1270.232, 932.2750
1270.714, 932.5820
1271.196, 931.5164
1271.678, 930.8948
1272.160, 932.0889
1272.642, 931.2914
1273.124, 932.9350
1273.606, 934.8989
1274.089, 935.6360
1274.571, 935.9970
1275.053, 936.7740
1275.535, 937.6624
1276.017, 938.1525
1276.499, 938.1981
1276.981, 938.0438
1277.463, 937.7028
1277.946, 937.2822
1278.428, 936.8635
1278.910, 936.4114
1279.392, 935.5623
1279.874, 934.9541
1280.356, 935.5039
1280.838, 937.1738
1281.320, 938.1194
1281.802, 938.4001
1282.285, 938.7689
1282.767, 940.2601
1283.249, 941.0733
1283.731, 939.9193
1284.213, 938.5067
1284.695, 938.4358
1285.177, 939.3854
1285.659, 939.6760
1286.141, 939.5488
1286.624, 940.0594
1287.106, 942.5773
1287.588, 944.3841
1288.070, 945.0990
1288.552, 945.1608
1289.034, 944.7271
1289.516, 943.9830
1289.998, 943.1194
1290.481, 942.3157
1290.963, 942.0233
1291.445, 942.6506
1291.927, 943.4460
1292.409, 944.5350
1292.891, 945.2941
1293.373, 945.1160
1293.855, 944.4923
1294.338, 943.7842
1294.820, 943.1635
1295.302, 942.9440
1295.784, 942.9707
1296.266, 944.1215
1296.748, 946.4689
1297.230, 948.6192
1297.712, 949.8111
1298.194, 950.3555
1298.677, 950.1292
1299.159, 949.5623
1299.641, 949.2474
1300.123, 949.1922
1300.605, 948.1627
1301.087, 946.2843
1301.569, 944.7460
1302.051, 944.3835
1302.533, 943.9078
1303.016, 942.8784
##END=



