##NAMES=Clinoatacamite
##RRUFFID=R061066
##IDEAL CHEMISTRY=Cu^2+^_2_Cl(OH)_3_
##LOCALITY=Esperanza mine, Diego de Almagro, Chile
##OWNER=RRUFF
##SOURCE=Bob Jenkins
##DESCRIPTION=Aggregates of dark green pseudo-octahedral crystals associated with malachite
##STATUS=The identification of this mineral is confirmed by single-crystal X-ray diffraction and chemical analysis.
##URL=rruff.info/R061066
##MEASURED CHEMISTRY=Cu_2.00_Cl_1.00_(OH)_3_
118.1473, 6738.599
118.6294, 7224.188
119.1115, 7578.126
119.5937, 7853.801
120.0758, 8092.373
120.5579, 8270.128
121.0400, 8450.354
121.5221, 8671.225
122.0042, 8931.237
122.4864, 9215.167
122.9685, 9515.560
123.4506, 9833.074
123.9327, 10168.70
124.4148, 10515.81
124.8969, 10884.33
125.3791, 11286.53
125.8612, 11719.10
126.3433, 12183.82
126.8254, 12692.35
127.3075, 13193.75
127.7896, 13519.46
128.2718, 13709.37
128.7539, 13907.97
129.2360, 14103.92
129.7181, 14287.07
130.2002, 14486.54
130.6823, 14752.14
131.1645, 15079.58
131.6466, 15430.26
132.1287, 15757.87
132.6108, 16073.69
133.0929, 16462.48
133.5750, 16959.99
134.0572, 17529.27
134.5393, 18046.64
135.0214, 18502.99
135.5035, 18935.40
135.9856, 19364.31
136.4677, 19785.70
136.9498, 20234.92
137.4320, 20718.06
137.9141, 21237.53
138.3962, 21805.66
138.8783, 22439.12
139.3604, 23104.27
139.8425, 23789.64
140.3247, 24584.26
140.8068, 25171.60
141.2889, 25507.57
141.7710, 25724.66
142.2531, 25276.99
142.7352, 23999.08
143.2174, 22148.30
143.6995, 20360.70
144.1816, 18551.84
144.6637, 16934.41
145.1458, 15645.79
145.6279, 14741.90
146.1101, 14018.22
146.5922, 13495.28
147.0743, 13161.16
147.5564, 12838.50
148.0385, 12525.18
148.5206, 12224.52
149.0028, 11942.73
149.4849, 11693.35
149.9670, 11443.47
150.4491, 11170.74
150.9312, 10850.52
151.4133, 10623.12
151.8955, 10552.62
152.3776, 10555.11
152.8597, 10529.85
153.3418, 10415.96
153.8239, 10320.91
154.3060, 10278.08
154.7882, 10313.90
155.2703, 10347.64
155.7524, 10360.58
156.2345, 10364.46
156.7166, 10383.73
157.1987, 10414.37
157.6808, 10468.00
158.1630, 10552.20
158.6451, 10688.16
159.1272, 10827.20
159.6093, 10946.11
160.0914, 11053.75
160.5735, 11187.31
161.0557, 11387.06
161.5378, 11603.91
162.0199, 11801.42
162.5020, 11948.34
162.9841, 12090.45
163.4662, 12249.31
163.9484, 12424.01
164.4305, 12590.80
164.9126, 12734.17
165.3947, 12864.43
165.8768, 12993.71
166.3589, 13165.60
166.8411, 13310.43
167.3232, 13395.21
167.8053, 13420.58
168.2874, 13368.46
168.7695, 13223.40
169.2516, 12993.93
169.7338, 12695.33
170.2159, 12290.49
170.6980, 11841.37
171.1801, 11396.79
171.6622, 10949.71
172.1443, 10539.12
172.6265, 10203.85
173.1086, 9932.219
173.5907, 9693.478
174.0728, 9454.181
174.5549, 9236.436
175.0370, 9080.074
175.5192, 9014.836
176.0013, 8978.362
176.4834, 8895.705
176.9655, 8773.876
177.4476, 8666.570
177.9297, 8624.307
178.4118, 8623.709
178.8940, 8614.364
179.3761, 8567.304
179.8582, 8514.688
180.3403, 8517.383
180.8224, 8575.165
181.3046, 8635.788
181.7867, 8655.088
182.2688, 8639.362
182.7509, 8609.605
183.2330, 8566.433
183.7151, 8515.965
184.1973, 8471.047
184.6794, 8432.742
185.1615, 8394.489
185.6436, 8345.086
186.1257, 8286.466
186.6078, 8235.766
187.0900, 8206.653
187.5721, 8192.811
188.0542, 8166.210
188.5363, 8122.790
189.0184, 8075.302
189.5005, 8042.605
189.9827, 8024.718
190.4648, 8010.602
190.9469, 7993.866
191.4290, 7975.604
191.9111, 7961.875
192.3932, 7954.650
192.8754, 7950.309
193.3575, 7938.990
193.8396, 7919.744
194.3217, 7904.401
194.8038, 7904.607
195.2859, 7919.756
195.7681, 7927.732
196.2502, 7924.032
196.7323, 7911.670
197.2144, 7899.023
197.6965, 7885.616
198.1786, 7872.842
198.6607, 7867.971
199.1429, 7872.829
199.6250, 7853.765
200.1071, 7793.016
200.5892, 7702.866
201.0713, 7652.357
201.5534, 7649.700
202.0356, 7662.686
202.5177, 7664.256
202.9998, 7655.654
203.4819, 7628.058
203.9640, 7572.952
204.4461, 7492.576
204.9283, 7428.816
205.4104, 7384.669
205.8925, 7351.988
206.3746, 7323.483
206.8567, 7301.804
207.3388, 7273.934
207.8210, 7232.292
208.3031, 7174.927
208.7852, 7134.732
209.2673, 7116.623
209.7494, 7109.493
210.2315, 7097.164
210.7137, 7079.438
211.1958, 7056.571
211.6779, 7026.526
212.1600, 6985.827
212.6421, 6955.439
213.1242, 6938.248
213.6064, 6928.932
214.0885, 6918.324
214.5706, 6908.623
215.0527, 6892.241
215.5348, 6862.487
216.0169, 6812.487
216.4991, 6774.779
216.9812, 6753.911
217.4633, 6744.094
217.9454, 6729.395
218.4275, 6708.494
218.9096, 6685.076
219.3917, 6659.037
219.8739, 6625.852
220.3560, 6604.643
220.8381, 6603.353
221.3202, 6614.333
221.8023, 6606.208
222.2844, 6570.399
222.7666, 6528.540
223.2487, 6491.266
223.7308, 6454.908
224.2129, 6433.341
224.6950, 6432.498
225.1771, 6448.863
225.6593, 6460.807
226.1414, 6475.000
226.6235, 6476.135
227.1056, 6446.015
227.5877, 6350.490
228.0698, 6297.526
228.5520, 6316.381
229.0341, 6399.899
229.5162, 6444.955
229.9983, 6432.046
230.4804, 6401.809
230.9625, 6388.136
231.4447, 6402.678
231.9268, 6411.413
232.4089, 6407.766
232.8910, 6391.655
233.3731, 6377.122
233.8552, 6366.021
234.3374, 6354.876
234.8195, 6339.410
235.3016, 6313.402
235.7837, 6295.135
236.2658, 6291.246
236.7479, 6303.326
237.2301, 6306.103
237.7122, 6293.646
238.1943, 6277.350
238.6764, 6270.021
239.1585, 6277.280
239.6406, 6283.955
240.1227, 6285.340
240.6049, 6279.969
241.0870, 6282.229
241.5691, 6297.669
242.0512, 6316.421
242.5333, 6325.070
243.0154, 6316.070
243.4976, 6309.479
243.9797, 6308.185
244.4618, 6310.124
244.9439, 6330.408
245.4260, 6382.428
245.9081, 6443.038
246.3903, 6478.114
246.8724, 6474.659
247.3545, 6467.324
247.8366, 6464.971
248.3187, 6467.737
248.8008, 6475.080
249.2830, 6490.031
249.7651, 6507.639
250.2472, 6518.708
250.7293, 6517.071
251.2114, 6520.280
251.6935, 6535.224
252.1757, 6565.203
252.6578, 6593.974
253.1399, 6620.854
253.6220, 6646.989
254.1041, 6675.009
254.5862, 6709.159
255.0684, 6737.878
255.5505, 6755.907
256.0326, 6759.013
256.5147, 6766.897
256.9968, 6782.387
257.4789, 6800.888
257.9611, 6813.392
258.4432, 6818.867
258.9253, 6820.199
259.4074, 6818.098
259.8895, 6811.913
260.3716, 6804.001
260.8538, 6794.131
261.3359, 6782.636
261.8180, 6770.035
262.3001, 6755.123
262.7822, 6741.567
263.2643, 6731.696
263.7465, 6727.867
264.2286, 6719.610
264.7107, 6707.644
265.1928, 6690.833
265.6749, 6664.796
266.1570, 6623.399
266.6392, 6587.078
267.1213, 6566.669
267.6034, 6567.733
268.0855, 6562.028
268.5676, 6549.794
269.0497, 6530.258
269.5318, 6498.435
270.0139, 6448.954
270.4961, 6403.175
270.9782, 6372.555
271.4603, 6360.938
271.9424, 6343.174
272.4245, 6315.429
272.9066, 6284.868
273.3888, 6269.491
273.8709, 6274.601
274.3530, 6275.183
274.8351, 6255.232
275.3172, 6211.420
275.7993, 6179.561
276.2815, 6163.994
276.7636, 6156.936
277.2457, 6142.180
277.7278, 6118.170
278.2099, 6094.992
278.6920, 6078.076
279.1742, 6067.616
279.6563, 6058.667
280.1384, 6053.209
280.6205, 6045.411
281.1026, 6020.396
281.5847, 5975.768
282.0669, 5933.688
282.5490, 5905.583
283.0311, 5891.081
283.5132, 5882.198
283.9953, 5881.417
284.4774, 5880.592
284.9596, 5861.970
285.4417, 5824.896
285.9238, 5790.945
286.4059, 5772.826
286.8880, 5768.945
287.3701, 5764.889
287.8523, 5760.082
288.3344, 5755.515
288.8165, 5752.844
289.2986, 5752.064
289.7807, 5752.104
290.2628, 5754.019
290.7450, 5756.657
291.2271, 5753.042
291.7092, 5740.811
292.1913, 5728.508
292.6734, 5728.945
293.1555, 5740.941
293.6377, 5755.618
294.1198, 5772.152
294.6019, 5788.077
295.0840, 5793.246
295.5661, 5784.875
296.0482, 5776.812
296.5304, 5793.835
297.0125, 5828.961
297.4946, 5853.226
297.9767, 5843.064
298.4588, 5814.563
298.9409, 5796.195
299.4231, 5789.171
299.9052, 5794.500
300.3873, 5825.948
300.8694, 5872.830
301.3515, 5904.891
301.8336, 5894.765
302.3158, 5866.041
302.7979, 5850.691
303.2800, 5849.990
303.7621, 5858.432
304.2442, 5874.875
304.7263, 5896.539
305.2085, 5918.499
305.6906, 5945.596
306.1727, 5967.572
306.6548, 5971.220
307.1369, 5955.497
307.6190, 5935.748
308.1012, 5918.672
308.5833, 5906.183
309.0654, 5900.781
309.5475, 5913.587
310.0296, 5927.023
310.5117, 5926.317
310.9938, 5911.268
311.4760, 5894.696
311.9581, 5880.306
312.4402, 5869.861
312.9223, 5865.551
313.4044, 5868.084
313.8865, 5876.901
314.3687, 5895.247
314.8508, 5922.342
315.3329, 5946.229
315.8150, 5965.310
316.2971, 5976.999
316.7792, 5978.461
317.2614, 5955.025
317.7435, 5934.672
318.2256, 5930.864
318.7077, 5941.635
319.1898, 5949.889
319.6719, 5942.438
320.1541, 5934.624
320.6362, 5937.719
321.1183, 5967.339
321.6004, 5994.036
322.0825, 6007.863
322.5646, 6011.682
323.0468, 6020.864
323.5289, 6041.470
324.0110, 6066.207
324.4931, 6091.067
324.9752, 6116.543
325.4573, 6140.305
325.9395, 6157.944
326.4216, 6172.306
326.9037, 6195.317
327.3858, 6231.659
327.8679, 6273.428
328.3500, 6318.507
328.8322, 6382.212
329.3143, 6424.852
329.7964, 6430.392
330.2785, 6415.692
330.7606, 6422.785
331.2427, 6464.645
331.7249, 6513.879
332.2070, 6562.172
332.6891, 6615.776
333.1712, 6653.713
333.6533, 6670.003
334.1354, 6674.331
334.6176, 6683.009
335.0997, 6692.750
335.5818, 6713.435
336.0639, 6749.964
336.5460, 6805.261
337.0281, 6863.249
337.5103, 6927.098
337.9924, 6990.962
338.4745, 7043.371
338.9566, 7080.455
339.4387, 7121.639
339.9208, 7175.535
340.4030, 7241.307
340.8851, 7297.094
341.3672, 7338.429
341.8493, 7381.763
342.3314, 7448.784
342.8135, 7539.918
343.2957, 7635.447
343.7778, 7729.019
344.2599, 7821.792
344.7420, 7922.097
345.2241, 8028.793
345.7062, 8139.303
346.1884, 8244.347
346.6705, 8347.618
347.1526, 8467.296
347.6347, 8608.241
348.1168, 8767.974
348.5989, 8943.196
349.0811, 9131.249
349.5632, 9323.657
350.0453, 9502.426
350.5274, 9677.638
351.0095, 9878.272
351.4916, 10112.05
351.9737, 10366.58
352.4558, 10625.00
352.9380, 10889.49
353.4201, 11170.58
353.9022, 11486.78
354.3843, 11818.94
354.8664, 12140.66
355.3485, 12443.37
355.8307, 12746.97
356.3128, 13061.92
356.7949, 13386.18
357.2770, 13722.22
357.7591, 14096.50
358.2412, 14466.97
358.7234, 14799.93
359.2055, 15089.40
359.6876, 15359.28
360.1697, 15615.63
360.6518, 15860.07
361.1339, 16102.41
361.6161, 16374.09
362.0982, 16618.22
362.5803, 16802.14
363.0624, 16923.29
363.5445, 17017.31
364.0266, 17104.42
364.5088, 17164.43
364.9909, 17177.87
365.4730, 17128.12
365.9551, 17045.00
366.4372, 16927.39
366.9193, 16776.61
367.4015, 16616.06
367.8836, 16460.79
368.3657, 16289.63
368.8478, 16091.83
369.3299, 15870.73
369.8120, 15617.65
370.2942, 15332.51
370.7763, 15016.63
371.2584, 14680.21
371.7405, 14337.21
372.2226, 13957.10
372.7047, 13514.65
373.1869, 12980.24
373.6690, 12463.09
374.1511, 11968.56
374.6332, 11492.30
375.1153, 11028.41
375.5974, 10580.66
376.0796, 10146.00
376.5617, 9716.304
377.0438, 9296.768
377.5259, 8908.615
378.0080, 8555.295
378.4901, 8232.660
378.9723, 7945.533
379.4544, 7693.370
379.9365, 7458.862
380.4186, 7238.912
380.9007, 7031.784
381.3828, 6843.825
381.8650, 6672.449
382.3471, 6521.038
382.8292, 6401.601
383.3113, 6306.686
383.7934, 6207.959
384.2755, 6094.134
384.7577, 5975.815
385.2398, 5864.645
385.7219, 5761.666
386.2040, 5675.765
386.6861, 5621.217
387.1682, 5585.152
387.6504, 5545.316
388.1325, 5494.122
388.6146, 5445.829
389.0967, 5412.230
389.5788, 5390.869
390.0609, 5376.379
390.5431, 5369.640
391.0252, 5366.168
391.5073, 5360.276
391.9894, 5349.478
392.4715, 5347.129
392.9536, 5373.298
393.4357, 5408.521
393.9178, 5427.496
394.4000, 5390.618
394.8821, 5363.842
395.3642, 5380.556
395.8463, 5442.775
396.3284, 5498.783
396.8105, 5529.187
397.2927, 5552.386
397.7748, 5582.141
398.2569, 5621.827
398.7390, 5666.230
399.2211, 5713.460
399.7032, 5764.403
400.1854, 5824.141
400.6675, 5904.969
401.1496, 5982.790
401.6317, 6046.171
402.1138, 6083.519
402.5959, 6129.343
403.0781, 6187.229
403.5602, 6251.768
404.0423, 6311.076
404.5244, 6362.344
405.0065, 6415.815
405.4886, 6478.705
405.9708, 6552.156
406.4529, 6607.852
406.9350, 6637.950
407.4171, 6667.160
407.8992, 6722.119
408.3813, 6803.297
408.8635, 6911.659
409.3456, 7066.633
409.8277, 7241.009
410.3098, 7341.793
410.7919, 7367.074
411.2740, 7373.737
411.7562, 7405.709
412.2383, 7456.666
412.7204, 7503.294
413.2025, 7536.078
413.6846, 7574.521
414.1667, 7650.279
414.6489, 7755.125
415.1310, 7857.902
415.6131, 7941.242
416.0952, 8012.177
416.5773, 8076.793
417.0594, 8137.668
417.5416, 8188.573
418.0237, 8217.339
418.5058, 8236.000
418.9879, 8262.402
419.4700, 8324.779
419.9521, 8378.473
420.4343, 8400.077
420.9164, 8388.371
421.3985, 8366.943
421.8806, 8335.375
422.3627, 8300.538
422.8448, 8267.058
423.3270, 8256.023
423.8091, 8222.804
424.2912, 8147.243
424.7733, 8041.347
425.2554, 7950.949
425.7375, 7882.101
426.2197, 7824.160
426.7018, 7772.811
427.1839, 7728.386
427.6660, 7691.843
428.1481, 7665.057
428.6302, 7645.065
429.1124, 7627.585
429.5945, 7614.458
430.0766, 7598.689
430.5587, 7572.787
431.0408, 7539.284
431.5229, 7534.996
432.0051, 7563.594
432.4872, 7608.016
432.9693, 7655.314
433.4514, 7705.292
433.9335, 7754.527
434.4156, 7798.980
434.8977, 7846.326
435.3799, 7915.034
435.8620, 8003.189
436.3441, 8093.927
436.8262, 8175.141
437.3083, 8251.055
437.7904, 8327.148
438.2726, 8403.029
438.7547, 8484.044
439.2368, 8584.941
439.7189, 8693.898
440.2010, 8788.694
440.6831, 8846.338
441.1653, 8895.644
441.6474, 8960.443
442.1295, 9040.020
442.6116, 9107.271
443.0937, 9142.658
443.5758, 9164.555
444.0580, 9188.830
444.5401, 9245.669
445.0222, 9271.798
445.5043, 9241.233
445.9864, 9168.369
446.4685, 9095.753
446.9507, 9037.363
447.4328, 8971.390
447.9149, 8890.753
448.3970, 8797.743
448.8791, 8682.410
449.3612, 8533.011
449.8434, 8370.838
450.3255, 8222.407
450.8076, 8094.231
451.2897, 7967.132
451.7718, 7838.994
452.2539, 7709.065
452.7361, 7565.870
453.2182, 7404.414
453.7003, 7244.694
454.1824, 7102.623
454.6645, 6978.245
455.1466, 6846.391
455.6288, 6700.115
456.1109, 6553.384
456.5930, 6427.823
457.0751, 6322.241
457.5572, 6225.718
458.0393, 6141.712
458.5215, 6060.996
459.0036, 5962.800
459.4857, 5844.847
459.9678, 5739.970
460.4499, 5685.935
460.9320, 5658.673
461.4142, 5626.802
461.8963, 5580.054
462.3784, 5525.474
462.8605, 5458.705
463.3426, 5384.888
463.8247, 5324.959
464.3069, 5294.703
464.7890, 5274.838
465.2711, 5255.626
465.7532, 5236.905
466.2353, 5216.294
466.7174, 5192.309
467.1996, 5166.814
467.6817, 5142.077
468.1638, 5107.917
468.6459, 5087.398
469.1280, 5087.605
469.6101, 5107.565
470.0923, 5127.700
470.5744, 5149.153
471.0565, 5168.756
471.5386, 5182.699
472.0207, 5188.931
472.5028, 5202.097
472.9850, 5226.237
473.4671, 5253.636
473.9492, 5265.130
474.4313, 5260.408
474.9134, 5263.920
475.3955, 5289.903
475.8776, 5333.201
476.3597, 5377.390
476.8419, 5422.695
477.3240, 5467.520
477.8061, 5504.726
478.2882, 5541.008
478.7703, 5590.418
479.2524, 5662.541
479.7346, 5741.431
480.2167, 5816.847
480.6988, 5888.498
481.1809, 5954.374
481.6630, 5997.542
482.1451, 6046.139
482.6273, 6120.433
483.1094, 6227.439
483.5915, 6339.984
484.0736, 6457.231
484.5557, 6572.871
485.0378, 6679.754
485.5200, 6754.123
486.0021, 6845.606
486.4842, 6967.349
486.9663, 7114.843
487.4484, 7258.152
487.9305, 7390.393
488.4127, 7525.532
488.8948, 7671.635
489.3769, 7828.008
489.8590, 7991.927
490.3411, 8163.629
490.8232, 8342.867
491.3054, 8534.608
491.7875, 8738.566
492.2696, 8944.621
492.7517, 9147.374
493.2338, 9352.298
493.7159, 9584.560
494.1981, 9841.983
494.6802, 10108.69
495.1623, 10374.35
495.6444, 10638.01
496.1265, 10890.77
496.6086, 11125.27
497.0908, 11376.40
497.5729, 11686.69
498.0550, 12035.50
498.5371, 12390.99
499.0192, 12732.81
499.5013, 13080.17
499.9835, 13432.62
500.4656, 13790.54
500.9477, 14168.63
501.4298, 14575.27
501.9119, 14995.68
502.3940, 15425.03
502.8762, 15869.77
503.3583, 16308.50
503.8404, 16722.50
504.3225, 17134.79
504.8046, 17594.34
505.2867, 18128.07
505.7689, 18656.85
506.2510, 19148.25
506.7331, 19603.09
507.2152, 20081.68
507.6973, 20591.25
508.1794, 21102.49
508.6616, 21606.94
509.1437, 22100.66
509.6258, 22525.92
510.1079, 22873.51
510.5900, 23149.82
511.0721, 23360.33
511.5543, 23506.81
512.0364, 23597.56
512.5185, 23659.44
513.0006, 23656.64
513.4827, 23547.83
513.9648, 23331.94
514.4470, 23017.43
514.9291, 22580.89
515.4112, 22063.12
515.8933, 21498.55
516.3754, 20890.77
516.8575, 20245.95
517.3397, 19546.14
517.8218, 18813.96
518.3039, 18085.03
518.7860, 17353.05
519.2681, 16635.06
519.7502, 15939.66
520.2324, 15263.43
520.7145, 14611.56
521.1966, 13976.12
521.6787, 13373.75
522.1608, 12811.76
522.6429, 12292.65
523.1251, 11800.26
523.6072, 11334.78
524.0893, 10899.29
524.5714, 10498.98
525.0535, 10132.34
525.5356, 9783.861
526.0178, 9440.816
526.4999, 9108.216
526.9820, 8795.648
527.4641, 8508.228
527.9462, 8244.784
528.4283, 8011.000
528.9105, 7801.410
529.3926, 7604.374
529.8747, 7421.569
530.3568, 7246.795
530.8389, 7075.260
531.3210, 6910.831
531.8032, 6753.379
532.2853, 6608.650
532.7674, 6467.812
533.2495, 6326.372
533.7316, 6182.341
534.2137, 6053.666
534.6959, 5947.765
535.1780, 5852.113
535.6601, 5756.905
536.1422, 5657.218
536.6243, 5571.530
537.1064, 5503.461
537.5885, 5446.275
538.0706, 5386.468
538.5527, 5323.635
539.0349, 5262.357
539.5170, 5203.349
539.9991, 5147.192
540.4812, 5096.085
540.9633, 5049.560
541.4454, 5008.104
541.9276, 4973.228
542.4097, 4943.281
542.8918, 4915.905
543.3739, 4891.549
543.8560, 4866.208
544.3381, 4835.288
544.8203, 4801.145
545.3024, 4768.246
545.7845, 4730.060
546.2666, 4701.268
546.7487, 4694.697
547.2308, 4706.865
547.7130, 4712.202
548.1951, 4693.978
548.6772, 4676.838
549.1593, 4673.848
549.6414, 4691.961
550.1235, 4704.899
550.6057, 4711.641
551.0878, 4714.194
551.5699, 4715.295
552.0520, 4715.690
552.5341, 4709.624
553.0162, 4690.088
553.4984, 4667.724
553.9805, 4675.900
554.4626, 4714.675
554.9447, 4759.548
555.4268, 4799.067
555.9089, 4833.287
556.3911, 4859.144
556.8732, 4876.077
557.3553, 4895.365
557.8374, 4930.793
558.3195, 4973.218
558.8016, 5009.846
559.2838, 5036.224
559.7659, 5058.428
560.2480, 5071.805
560.7301, 5083.355
561.2122, 5107.988
561.6943, 5155.992
562.1765, 5211.692
562.6586, 5272.178
563.1407, 5337.937
563.6228, 5400.506
564.1049, 5457.237
564.5870, 5513.135
565.0692, 5572.256
565.5513, 5635.643
566.0334, 5693.269
566.5155, 5741.314
566.9976, 5789.351
567.4797, 5863.075
567.9619, 5959.062
568.4440, 6034.655
568.9261, 6062.198
569.4082, 6069.740
569.8903, 6110.806
570.3724, 6180.059
570.8546, 6247.982
571.3367, 6293.986
571.8188, 6329.321
572.3009, 6364.461
572.7830, 6401.624
573.2651, 6434.390
573.7473, 6461.498
574.2294, 6482.153
574.7115, 6494.874
575.1936, 6494.194
575.6757, 6492.381
576.1578, 6496.886
576.6400, 6501.188
577.1221, 6486.760
577.6042, 6445.583
578.0863, 6400.979
578.5684, 6363.336
579.0505, 6331.828
579.5327, 6289.381
580.0148, 6236.921
580.4969, 6170.008
580.9790, 6078.278
581.4611, 5966.494
581.9432, 5860.535
582.4254, 5764.910
582.9075, 5675.285
583.3896, 5592.596
583.8717, 5512.059
584.3538, 5425.398
584.8359, 5326.136
585.3181, 5222.234
585.8002, 5113.526
586.2823, 5003.505
586.7644, 4902.865
587.2465, 4824.456
587.7286, 4748.643
588.2108, 4663.482
588.6929, 4561.114
589.1750, 4476.778
589.6571, 4414.375
590.1392, 4366.259
590.6213, 4332.733
591.1035, 4327.009
591.5856, 4278.934
592.0677, 4167.927
592.5498, 4028.082
593.0319, 3925.159
593.5140, 3858.029
593.9962, 3802.131
594.4783, 3751.012
594.9604, 3702.918
595.4425, 3655.796
595.9246, 3609.815
596.4067, 3562.913
596.8889, 3512.961
597.3710, 3461.808
597.8531, 3409.608
598.3352, 3354.406
598.8173, 3308.652
599.2994, 3285.971
599.7816, 3271.133
600.2637, 3248.545
600.7458, 3207.195
601.2279, 3168.260
601.7100, 3132.345
602.1921, 3100.503
602.6743, 3078.140
603.1564, 3070.343
603.6385, 3058.339
604.1206, 3035.481
604.6027, 3002.837
605.0848, 2961.449
605.5670, 2910.273
606.0491, 2867.183
606.5312, 2850.008
607.0133, 2850.500
607.4954, 2851.555
607.9775, 2852.148
608.4597, 2847.166
608.9418, 2826.737
609.4239, 2799.661
609.9060, 2778.285
610.3881, 2776.349
610.8702, 2769.878
611.3524, 2744.928
611.8345, 2708.537
612.3166, 2681.500
612.7987, 2669.389
613.2808, 2663.802
613.7629, 2666.014
614.2451, 2676.021
614.7272, 2674.485
615.2093, 2659.033
615.6914, 2638.059
616.1735, 2613.480
616.6556, 2586.036
617.1378, 2574.748
617.6199, 2583.834
618.1020, 2595.130
618.5840, 2583.535
619.0662, 2557.623
619.5483, 2538.037
620.0304, 2533.826
620.5125, 2534.472
620.9946, 2534.606
621.4767, 2533.036
621.9589, 2526.972
622.4410, 2507.971
622.9231, 2491.095
623.4052, 2484.577
623.8873, 2489.112
624.3694, 2488.807
624.8516, 2480.949
625.3337, 2470.809
625.8158, 2461.114
626.2979, 2452.444
626.7800, 2440.887
627.2621, 2424.824
627.7443, 2409.998
628.2264, 2406.019
628.7085, 2411.025
629.1906, 2408.759
629.6727, 2392.110
630.1548, 2374.645
630.6370, 2379.934
631.1191, 2399.324
631.6012, 2409.385
632.0833, 2396.590
632.5654, 2373.141
633.0475, 2337.713
633.5297, 2294.199
634.0118, 2268.833
634.4939, 2288.543
634.9760, 2312.061
635.4581, 2319.448
635.9402, 2306.222
636.4224, 2294.390
636.9045, 2282.862
637.3866, 2274.443
637.8687, 2273.104
638.3508, 2279.476
638.8329, 2285.142
639.3151, 2291.036
639.7972, 2290.685
640.2793, 2263.472
640.7614, 2218.915
641.2435, 2194.121
641.7256, 2216.029
642.2078, 2250.566
642.6899, 2267.250
643.1720, 2268.545
643.6541, 2262.379
644.1362, 2245.646
644.6183, 2228.209
645.1005, 2213.886
645.5826, 2203.077
646.0647, 2196.734
646.5468, 2195.399
647.0289, 2197.965
647.5110, 2205.192
647.9932, 2220.345
648.4753, 2227.495
648.9574, 2224.728
649.4395, 2218.307
649.9216, 2216.051
650.4037, 2217.328
650.8859, 2217.776
651.3680, 2216.512
651.8501, 2213.747
652.3322, 2209.347
652.8143, 2203.699
653.2964, 2197.693
653.7786, 2190.958
654.2607, 2184.756
654.7428, 2179.017
655.2249, 2174.080
655.7070, 2172.195
656.1891, 2180.118
656.6713, 2185.195
657.1534, 2180.115
657.6355, 2162.161
658.1176, 2158.142
658.5997, 2175.906
659.0818, 2192.017
659.5640, 2182.677
660.0461, 2148.899
660.5282, 2127.035
661.0103, 2120.980
661.4924, 2123.143
661.9745, 2130.138
662.4567, 2138.189
662.9388, 2138.011
663.4209, 2122.158
663.9030, 2104.082
664.3851, 2089.934
664.8672, 2080.625
665.3494, 2078.065
665.8315, 2091.533
666.3136, 2103.051
666.7957, 2106.531
667.2778, 2102.886
667.7599, 2096.481
668.2421, 2083.817
668.7242, 2075.260
669.2063, 2079.688
669.6884, 2096.413
670.1705, 2093.118
670.6526, 2067.336
671.1348, 2041.163
671.6169, 2038.683
672.0990, 2049.814
672.5811, 2048.873
673.0632, 2029.100
673.5453, 2014.809
674.0275, 2035.704
674.5096, 2068.802
674.9917, 2086.150
675.4738, 2066.460
675.9559, 2046.310
676.4380, 2030.306
676.9202, 2019.783
677.4023, 2017.983
677.8844, 2030.588
678.3665, 2041.055
678.8486, 2045.830
679.3307, 2045.626
679.8129, 2042.759
680.2950, 2037.238
680.7771, 2029.747
681.2592, 2015.194
681.7413, 2000.377
682.2234, 2003.860
682.7056, 2024.645
683.1877, 2044.670
683.6698, 2053.606
684.1519, 2055.637
684.6340, 2053.913
685.1161, 2048.446
685.5983, 2040.991
686.0804, 2026.257
686.5625, 2013.302
687.0446, 2010.413
687.5267, 2026.473
688.0089, 2031.812
688.4910, 2020.794
688.9731, 2004.749
689.4552, 2004.307
689.9373, 2018.951
690.4194, 2021.121
690.9016, 1997.393
691.3837, 1968.128
691.8658, 1967.239
692.3479, 1986.701
692.8300, 2001.949
693.3121, 1998.337
693.7943, 1989.061
694.2764, 1978.624
694.7585, 1968.515
695.2406, 1965.316
695.7227, 1977.777
696.2048, 1990.394
696.6870, 1996.408
697.1691, 1995.182
697.6512, 1999.529
698.1333, 2012.047
698.6154, 2023.785
699.0975, 2027.035
699.5797, 2023.018
700.0618, 2022.768
700.5438, 2027.425
701.0259, 2030.821
701.5081, 2025.826
701.9902, 2015.960
702.4723, 2006.073
702.9544, 1995.546
703.4365, 1989.761
703.9186, 1991.441
704.4008, 1999.344
704.8829, 2011.870
705.3650, 2047.398
705.8471, 2062.172
706.3292, 2040.788
706.8113, 2001.528
707.2935, 1985.816
707.7756, 1997.185
708.2577, 2012.040
708.7398, 2025.803
709.2219, 2035.951
709.7040, 2032.691
710.1862, 2018.315
710.6683, 2006.135
711.1504, 2003.557
711.6325, 2006.896
712.1146, 2014.461
712.5967, 2025.721
713.0789, 2036.009
713.5610, 2044.688
714.0431, 2051.185
714.5252, 2054.716
715.0073, 2054.948
715.4894, 2055.321
715.9716, 2056.205
716.4537, 2056.612
716.9358, 2054.888
717.4179, 2050.986
717.9000, 2051.734
718.3821, 2058.540
718.8643, 2064.072
719.3464, 2055.751
719.8285, 2041.350
720.3106, 2036.759
720.7927, 2048.807
721.2748, 2063.300
721.7570, 2078.554
722.2391, 2088.354
722.7212, 2084.389
723.2033, 2044.621
723.6854, 2016.654
724.1675, 2009.343
724.6497, 2015.535
725.1318, 2021.039
725.6139, 2025.197
726.0960, 2031.907
726.5781, 2044.650
727.0602, 2058.504
727.5424, 2056.978
728.0245, 2043.413
728.5066, 2037.101
728.9887, 2060.763
729.4708, 2087.880
729.9529, 2089.223
730.4351, 2069.143
730.9172, 2055.977
731.3993, 2068.019
731.8814, 2082.864
732.3635, 2090.399
732.8456, 2090.354
733.3278, 2086.874
733.8099, 2078.238
734.2920, 2069.650
734.7741, 2065.693
735.2562, 2065.929
735.7383, 2057.021
736.2205, 2037.249
736.7026, 2024.066
737.1847, 2042.993
737.6668, 2075.890
738.1489, 2094.826
738.6310, 2093.720
739.1132, 2084.995
739.5953, 2066.955
740.0774, 2048.759
740.5595, 2039.181
741.0416, 2048.015
741.5237, 2053.171
742.0059, 2051.510
742.4880, 2049.077
742.9701, 2056.101
743.4522, 2073.974
743.9343, 2085.616
744.4164, 2086.392
744.8986, 2082.887
745.3807, 2085.753
745.8628, 2092.902
746.3449, 2098.401
746.8270, 2098.761
747.3091, 2098.021
747.7913, 2099.210
748.2734, 2101.250
748.7555, 2101.472
749.2376, 2096.391
749.7197, 2093.287
750.2018, 2100.505
750.6840, 2111.055
751.1661, 2086.730
751.6482, 2015.199
752.1303, 1966.394
752.6124, 1979.591
753.0945, 2033.642
753.5767, 2076.210
754.0588, 2107.664
754.5409, 2129.442
755.0230, 2137.131
755.5051, 2139.849
755.9872, 2144.844
756.4694, 2152.512
756.9515, 2160.828
757.4336, 2174.643
757.9157, 2183.809
758.3978, 2180.873
758.8799, 2162.825
759.3621, 2160.002
759.8442, 2176.805
760.3263, 2196.280
760.8084, 2202.268
761.2905, 2199.311
761.7726, 2212.990
762.2548, 2246.145
762.7369, 2274.563
763.2190, 2272.434
763.7011, 2256.893
764.1832, 2246.273
764.6653, 2243.022
765.1475, 2247.651
765.6296, 2264.833
766.1117, 2287.443
766.5938, 2310.240
767.0759, 2337.962
767.5580, 2352.412
768.0402, 2350.023
768.5223, 2339.927
769.0044, 2328.506
769.4865, 2318.062
769.9686, 2324.800
770.4507, 2356.528
770.9329, 2392.205
771.4150, 2411.317
771.8971, 2419.530
772.3792, 2425.098
772.8613, 2422.863
773.3434, 2427.984
773.8256, 2449.691
774.3077, 2479.600
774.7898, 2503.597
775.2719, 2519.628
775.7540, 2534.375
776.2361, 2546.814
776.7183, 2561.517
777.2004, 2593.239
777.6825, 2638.651
778.1646, 2674.013
778.6467, 2679.408
779.1288, 2683.608
779.6110, 2724.900
780.0931, 2788.315
780.5752, 2837.241
781.0573, 2841.703
781.5394, 2847.292
782.0215, 2867.060
782.5037, 2899.649
782.9857, 2943.058
783.4678, 3000.179
783.9500, 3057.362
784.4321, 3110.243
784.9142, 3159.632
785.3963, 3211.576
785.8784, 3265.254
786.3605, 3312.175
786.8427, 3333.448
787.3248, 3356.350
787.8069, 3412.720
788.2890, 3496.883
788.7711, 3573.487
789.2532, 3623.552
789.7354, 3671.877
790.2175, 3728.338
790.6996, 3792.299
791.1817, 3853.792
791.6638, 3912.322
792.1459, 3971.859
792.6281, 4037.367
793.1102, 4105.690
793.5923, 4168.182
794.0744, 4224.800
794.5565, 4275.033
795.0386, 4316.479
795.5208, 4354.128
796.0029, 4394.562
796.4850, 4438.084
796.9671, 4473.722
797.4492, 4499.997
797.9313, 4516.725
798.4135, 4523.278
798.8956, 4519.512
799.3777, 4509.058
799.8598, 4490.943
800.3419, 4470.973
800.8240, 4459.574
801.3062, 4448.693
801.7883, 4413.202
802.2704, 4352.924
802.7525, 4287.477
803.2346, 4236.265
803.7167, 4181.880
804.1989, 4107.365
804.6810, 4005.335
805.1631, 3911.501
805.6452, 3825.162
806.1273, 3751.322
806.6094, 3699.303
807.0916, 3673.273
807.5737, 3617.677
808.0558, 3528.367
808.5379, 3439.131
809.0200, 3388.341
809.5021, 3356.155
809.9843, 3303.098
810.4664, 3222.903
810.9485, 3149.079
811.4306, 3105.568
811.9127, 3071.922
812.3948, 3032.080
812.8770, 2979.825
813.3591, 2935.320
813.8412, 2900.637
814.3233, 2870.423
814.8054, 2840.690
815.2875, 2811.571
815.7697, 2784.336
816.2518, 2758.872
816.7339, 2736.436
817.2160, 2720.153
817.6981, 2706.550
818.1802, 2689.423
818.6624, 2665.258
819.1445, 2650.465
819.6266, 2657.017
820.1087, 2670.752
820.5908, 2680.571
821.0729, 2685.558
821.5551, 2689.523
822.0372, 2692.359
822.5193, 2694.337
823.0014, 2696.873
823.4835, 2698.838
823.9656, 2695.178
824.4478, 2684.689
824.9299, 2674.462
825.4120, 2672.285
825.8941, 2671.697
826.3762, 2665.244
826.8583, 2646.810
827.3405, 2636.445
827.8226, 2642.673
828.3047, 2650.460
828.7868, 2647.736
829.2689, 2633.632
829.7510, 2616.328
830.2332, 2594.806
830.7153, 2578.504
831.1974, 2583.931
831.6795, 2599.388
832.1616, 2603.605
832.6437, 2591.808
833.1259, 2577.534
833.6080, 2561.396
834.0901, 2549.576
834.5722, 2550.441
835.0543, 2576.281
835.5364, 2575.464
836.0186, 2537.171
836.5007, 2493.084
836.9828, 2472.564
837.4649, 2471.911
837.9470, 2470.417
838.4291, 2466.516
838.9113, 2460.845
839.3934, 2450.136
839.8755, 2440.112
840.3576, 2436.318
840.8397, 2439.229
841.3218, 2450.117
841.8040, 2482.938
842.2861, 2511.664
842.7682, 2515.634
843.2503, 2487.470
843.7324, 2486.628
844.2145, 2517.995
844.6967, 2548.633
845.1788, 2536.954
845.6609, 2507.233
846.1430, 2507.861
846.6251, 2545.031
847.1072, 2586.472
847.5894, 2623.012
848.0715, 2650.782
848.5536, 2661.527
849.0357, 2646.174
849.5178, 2661.402
849.9999, 2719.091
850.4821, 2781.702
850.9642, 2819.626
851.4463, 2837.816
851.9284, 2866.556
852.4105, 2906.757
852.8926, 2953.821
853.3748, 3009.698
853.8569, 3067.610
854.3390, 3119.281
854.8211, 3163.055
855.3032, 3215.599
855.7853, 3288.822
856.2675, 3362.914
856.7496, 3425.898
857.2317, 3478.589
857.7138, 3550.719
858.1959, 3642.986
858.6780, 3741.006
859.1602, 3833.363
859.6423, 3924.725
860.1244, 4025.415
860.6065, 4133.735
861.0886, 4240.344
861.5707, 4330.316
862.0529, 4425.599
862.5350, 4540.776
863.0171, 4672.896
863.4992, 4797.673
863.9813, 4913.933
864.4634, 5023.024
864.9456, 5126.922
865.4276, 5223.952
865.9097, 5315.132
866.3918, 5398.760
866.8740, 5467.664
867.3561, 5520.162
867.8382, 5554.409
868.3203, 5566.521
868.8024, 5558.606
869.2845, 5542.640
869.7667, 5533.433
870.2488, 5493.068
870.7309, 5371.933
871.2130, 5304.248
871.6951, 5231.351
872.1772, 5154.133
872.6594, 5026.072
873.1415, 4989.292
873.6236, 4931.607
874.1057, 4883.795
874.5878, 4891.843
875.0699, 4828.766
875.5521, 4858.482
876.0342, 4866.813
876.5163, 4901.243
876.9984, 4902.070
877.4805, 4958.655
877.9626, 5050.781
878.4448, 5137.894
878.9269, 5205.190
879.4090, 5277.578
879.8911, 5383.624
880.3732, 5521.277
880.8553, 5688.574
881.3375, 5906.792
881.8196, 6119.838
882.3017, 6289.373
882.7838, 6454.897
883.2659, 6666.747
883.7480, 6938.133
884.2302, 7209.473
884.7123, 7473.145
885.1944, 7742.938
885.6765, 8035.382
886.1586, 8346.900
886.6407, 8681.729
887.1229, 9042.862
887.6050, 9399.062
888.0871, 9734.383
888.5692, 10053.45
889.0513, 10358.47
889.5334, 10631.10
890.0156, 10936.31
890.4977, 11294.44
890.9798, 11643.80
891.4619, 11936.52
891.9440, 12174.91
892.4261, 12371.34
892.9083, 12523.17
893.3904, 12601.76
893.8725, 12579.84
894.3546, 12478.61
894.8367, 12305.75
895.3188, 12059.69
895.8010, 11781.61
896.2831, 11480.76
896.7652, 11140.47
897.2473, 10742.28
897.7294, 10296.80
898.2115, 9859.989
898.6937, 9434.822
899.1758, 9011.219
899.6579, 8574.089
900.1400, 8145.669
900.6221, 7754.269
901.1042, 7395.585
901.5864, 7070.738
902.0685, 6789.236
902.5506, 6533.147
903.0327, 6304.804
903.5148, 6098.585
903.9969, 5898.203
904.4791, 5703.982
904.9612, 5543.145
905.4433, 5432.723
905.9254, 5349.541
906.4075, 5269.022
906.8896, 5194.007
907.3718, 5129.321
907.8539, 5079.063
908.3360, 5035.827
908.8181, 4986.533
909.3002, 4950.928
909.7823, 4963.575
910.2645, 5028.502
910.7466, 5084.938
911.2287, 5121.458
911.7108, 5155.825
912.1929, 5199.147
912.6750, 5258.199
913.1572, 5346.184
913.6393, 5473.176
914.1214, 5605.047
914.6035, 5716.933
915.0856, 5841.765
915.5677, 6004.198
916.0499, 6208.875
916.5320, 6415.726
917.0141, 6623.402
917.4962, 6843.204
917.9783, 7083.939
918.4604, 7340.909
918.9426, 7605.188
919.4247, 7874.524
919.9068, 8158.524
920.3889, 8447.482
920.8710, 8766.445
921.3531, 9138.950
921.8353, 9557.726
922.3174, 9948.964
922.7995, 10306.64
923.2816, 10653.72
923.7637, 10984.28
924.2458, 11318.73
924.7280, 11720.18
925.2101, 12156.15
925.6922, 12538.09
926.1743, 12823.35
926.6564, 13052.51
927.1385, 13226.48
927.6207, 13353.45
928.1028, 13453.05
928.5849, 13543.10
929.0670, 13508.23
929.5491, 13316.88
930.0313, 13014.84
930.5134, 12631.40
930.9955, 12193.23
931.4776, 11733.74
931.9597, 11261.04
932.4418, 10784.03
932.9240, 10295.29
933.4061, 9812.592
933.8882, 9343.670
934.3703, 8889.782
934.8524, 8450.403
935.3345, 8024.160
935.8167, 7624.484
936.2988, 7267.945
936.7809, 6951.268
937.2630, 6668.204
937.7451, 6419.088
938.2272, 6189.568
938.7094, 5970.421
939.1915, 5773.659
939.6736, 5606.640
940.1557, 5467.359
940.6378, 5330.275
941.1199, 5193.228
941.6021, 5065.740
942.0842, 4950.311
942.5663, 4848.616
943.0484, 4766.137
943.5305, 4699.883
944.0126, 4641.522
944.4948, 4587.321
944.9769, 4540.910
945.4590, 4505.709
945.9411, 4478.477
946.4232, 4453.742
946.9053, 4430.755
947.3875, 4415.557
947.8695, 4409.076
948.3516, 4410.118
948.8337, 4420.472
949.3159, 4436.167
949.7980, 4450.472
950.2801, 4461.256
950.7622, 4473.625
951.2443, 4480.078
951.7264, 4496.967
952.2086, 4536.439
952.6907, 4600.261
953.1728, 4665.964
953.6549, 4732.822
954.1370, 4804.541
954.6191, 4886.721
955.1013, 4973.347
955.5834, 5050.415
956.0655, 5121.006
956.5476, 5213.788
957.0297, 5343.274
957.5118, 5490.278
957.9940, 5652.652
958.4761, 5827.330
958.9582, 5999.891
959.4403, 6171.239
959.9224, 6349.909
960.4045, 6538.005
960.8867, 6737.667
961.3688, 6955.918
961.8509, 7190.782
962.3330, 7440.219
962.8151, 7703.395
963.2972, 7980.158
963.7794, 8281.104
964.2615, 8582.880
964.7436, 8855.567
965.2257, 9105.516
965.7078, 9373.209
966.1899, 9664.389
966.6721, 9964.415
967.1542, 10290.69
967.6363, 10603.01
968.1184, 10866.59
968.6005, 11074.01
969.0826, 11277.12
969.5648, 11498.27
970.0469, 11683.70
970.5290, 11817.31
971.0111, 11896.37
971.4932, 11917.70
971.9753, 11875.74
972.4575, 11744.74
972.9396, 11449.71
973.4217, 11126.12
973.9038, 10856.68
974.3859, 10609.01
974.8680, 10324.08
975.3502, 9986.973
975.8323, 9645.790
976.3144, 9299.868
976.7965, 8966.621
977.2786, 8666.232
977.7607, 8392.646
978.2429, 8128.768
978.7250, 7872.683
979.2071, 7626.919
979.6892, 7408.252
980.1713, 7194.065
980.6534, 6969.288
981.1356, 6733.655
981.6177, 6504.469
982.0998, 6281.289
982.5819, 6054.139
983.0640, 5803.647
983.5461, 5554.228
984.0283, 5340.787
984.5104, 5157.483
984.9925, 4986.420
985.4746, 4830.681
985.9567, 4673.598
986.4388, 4502.190
986.9210, 4332.637
987.4031, 4201.043
987.8852, 4106.129
988.3673, 3997.441
988.8494, 3861.834
989.3315, 3732.718
989.8137, 3647.739
990.2958, 3585.028
990.7779, 3521.554
991.2600, 3452.236
991.7421, 3387.594
992.2242, 3332.366
992.7064, 3275.940
993.1885, 3207.791
993.6706, 3133.257
994.1527, 3081.901
994.6348, 3052.257
995.1169, 3027.624
995.5991, 3005.085
996.0812, 2978.264
996.5633, 2941.947
997.0454, 2898.392
997.5275, 2853.055
998.0096, 2801.215
998.4918, 2765.349
998.9739, 2753.602
999.4560, 2746.204
999.9381, 2708.862
1000.420, 2656.014
1000.902, 2621.304
1001.384, 2614.981
1001.867, 2604.837
1002.349, 2566.713
1002.831, 2529.807
1003.313, 2516.045
1003.795, 2525.990
1004.277, 2515.570
1004.759, 2483.733
1005.241, 2449.877
1005.724, 2420.930
1006.206, 2399.994
1006.688, 2398.400
1007.170, 2408.142
1007.652, 2405.992
1008.134, 2368.677
1008.616, 2342.684
1009.098, 2338.826
1009.580, 2342.863
1010.063, 2329.809
1010.545, 2303.701
1011.027, 2286.815
1011.509, 2284.300
1011.991, 2282.593
1012.473, 2272.472
1012.955, 2258.217
1013.437, 2242.937
1013.919, 2226.680
1014.402, 2211.361
1014.884, 2196.250
1015.366, 2184.612
1015.848, 2180.625
1016.330, 2179.594
1016.812, 2170.617
1017.294, 2156.286
1017.776, 2143.927
1018.259, 2144.569
1018.741, 2137.646
1019.223, 2111.153
1019.705, 2078.428
1020.187, 2057.588
1020.669, 2049.015
1021.151, 2038.874
1021.633, 2025.222
1022.115, 2013.326
1022.598, 2012.391
1023.080, 2012.805
1023.562, 2004.656
1024.044, 1986.399
1024.526, 1965.552
1025.008, 1936.988
1025.490, 1918.825
1025.972, 1924.635
1026.454, 1940.390
1026.937, 1920.311
1027.419, 1875.192
1027.901, 1844.718
1028.383, 1855.554
1028.865, 1868.474
1029.347, 1864.570
1029.829, 1853.995
1030.311, 1850.849
1030.794, 1858.982
1031.276, 1851.048
1031.758, 1823.690
1032.240, 1794.803
1032.722, 1783.566
1033.204, 1778.080
1033.686, 1761.746
1034.168, 1735.028
1034.651, 1714.643
1035.133, 1709.162
1035.615, 1704.447
1036.097, 1697.826
1036.579, 1688.932
1037.061, 1674.593
1037.543, 1656.580
1038.025, 1642.329
1038.507, 1634.567
1038.990, 1630.006
1039.472, 1632.081
1039.954, 1632.714
1040.436, 1622.452
1040.918, 1597.569
1041.400, 1580.875
1041.882, 1572.939
1042.364, 1569.011
1042.846, 1571.065
1043.329, 1571.852
1043.811, 1556.111
1044.293, 1528.909
1044.775, 1508.880
1045.257, 1512.202
1045.739, 1510.106
1046.221, 1495.682
1046.703, 1475.672
1047.186, 1458.226
1047.668, 1444.008
1048.150, 1441.251
1048.632, 1453.530
1049.114, 1458.337
1049.596, 1425.666
1050.078, 1389.594
1050.560, 1383.831
1051.042, 1408.492
1051.525, 1411.374
1052.007, 1388.842
1052.489, 1364.855
1052.971, 1349.247
1053.453, 1339.409
1053.935, 1332.918
1054.417, 1328.923
1054.899, 1325.714
1055.381, 1321.035
1055.864, 1320.417
1056.346, 1328.961
1056.828, 1335.224
1057.310, 1324.730
1057.792, 1300.999
1058.274, 1284.961
1058.756, 1277.564
1059.238, 1273.885
1059.721, 1276.654
1060.203, 1276.562
1060.685, 1263.913
1061.167, 1243.499
1061.649, 1233.761
1062.131, 1236.554
1062.613, 1237.454
1063.095, 1232.758
1063.578, 1226.358
1064.060, 1225.660
1064.542, 1225.125
1065.024, 1215.999
1065.506, 1194.020
1065.988, 1174.916
1066.470, 1159.570
1066.952, 1148.730
1067.434, 1144.604
1067.917, 1144.851
1068.399, 1139.564
1068.881, 1130.353
1069.363, 1123.994
1069.845, 1128.929
1070.327, 1131.196
1070.809, 1121.466
1071.291, 1107.787
1071.773, 1101.237
1072.255, 1102.930
1072.738, 1098.630
1073.220, 1086.807
1073.702, 1076.112
1074.184, 1074.454
1074.666, 1077.005
1075.148, 1081.249
1075.630, 1086.211
1076.112, 1085.280
1076.595, 1076.404
1077.077, 1065.751
1077.559, 1053.250
1078.041, 1042.915
1078.523, 1044.488
1079.005, 1052.818
1079.487, 1056.727
1079.969, 1053.049
1080.452, 1047.496
1080.934, 1038.346
1081.416, 1031.757
1081.898, 1032.714
1082.380, 1039.688
1082.862, 1037.883
1083.344, 1028.276
1083.826, 1019.467
1084.308, 1016.806
1084.791, 1015.396
1085.273, 1010.875
1085.755, 1006.184
1086.237, 1006.203
1086.719, 1012.373
1087.201, 1018.630
1087.683, 1025.186
1088.165, 1028.293
1088.647, 1020.165
1089.130, 1009.346
1089.612, 1009.849
1090.094, 1019.828
1090.576, 1020.027
1091.058, 997.3027
1091.540, 981.6781
1092.022, 981.1575
1092.504, 987.9110
1092.987, 988.3865
1093.469, 984.8909
1093.951, 984.4006
1094.433, 989.3121
1094.915, 991.5018
1095.397, 980.5286
1095.879, 972.9971
1096.361, 980.4040
1096.844, 999.6543
1097.326, 1006.397
1097.808, 1001.251
1098.290, 993.4821
1098.772, 986.8975
1099.254, 979.2341
1099.736, 964.6791
1100.218, 950.1176
1100.700, 945.2286
1101.182, 952.7921
1101.665, 962.9896
1102.147, 977.0671
1102.629, 985.9247
1103.111, 977.5886
1103.593, 963.0462
1104.075, 956.0693
1104.557, 955.5817
1105.039, 956.1834
1105.522, 958.2643
1106.004, 957.7982
1106.486, 951.9536
1106.968, 947.9329
1107.450, 960.8166
1107.932, 982.3148
1108.414, 991.4480
1108.896, 985.6375
1109.379, 973.8378
1109.861, 948.4008
1110.343, 931.6038
1110.825, 936.0090
1111.307, 953.0870
1111.789, 953.3777
1112.271, 939.5322
1112.753, 930.4572
1113.235, 932.5826
1113.718, 938.0009
1114.200, 944.9296
1114.682, 950.0435
1115.164, 950.0724
1115.646, 944.7866
1116.128, 938.5234
1116.610, 931.0869
1117.092, 925.5184
1117.574, 923.2881
1118.057, 923.8796
1118.539, 928.8967
1119.021, 935.7657
1119.503, 939.8195
1119.985, 940.1926
1120.467, 937.9712
1120.949, 932.6267
1121.431, 926.6829
1121.914, 921.8708
1122.396, 918.1946
1122.878, 915.8337
1123.360, 914.6624
1123.842, 914.0694
1124.324, 911.3644
1124.806, 913.6155
1125.288, 924.6830
1125.771, 936.7844
1126.253, 935.9751
1126.735, 926.7700
1127.217, 924.5691
1127.699, 931.7128
1128.181, 934.1633
1128.663, 915.3136
1129.145, 901.5168
1129.627, 906.7530
1130.109, 924.2028
1130.592, 931.0840
1131.074, 928.5516
1131.556, 924.9684
1132.038, 922.5047
1132.520, 919.9438
1133.002, 917.0500
1133.484, 913.1818
1133.966, 907.1503
1134.449, 898.8860
1134.931, 893.6125
1135.413, 891.3428
1135.895, 891.7446
1136.377, 897.5281
1136.859, 902.0114
1137.341, 897.0500
1137.823, 887.2882
1138.306, 880.6433
1138.788, 883.1795
1139.270, 870.2737
1139.752, 837.1201
1140.234, 812.1046
1140.716, 826.6323
1141.198, 854.9000
1141.680, 862.8934
1142.162, 854.2861
1142.645, 843.4025
1143.127, 831.5040
1143.609, 820.3167
1144.091, 808.9977
1144.573, 801.0567
1145.055, 803.3045
1145.537, 810.9470
1146.019, 814.4197
1146.501, 813.3326
1146.984, 811.9621
1147.466, 810.0936
1147.948, 810.7043
1148.430, 815.5649
1148.912, 821.8108
1149.394, 824.5983
1149.876, 824.2654
1150.358, 821.5162
1150.841, 816.3287
1151.323, 810.4645
1151.805, 805.3988
1152.287, 799.0190
1152.769, 789.7350
1153.251, 778.6083
1153.733, 768.4119
1154.215, 759.7257
1154.697, 756.9344
1155.180, 763.3509
1155.662, 769.7862
1156.144, 771.5876
1156.626, 770.4368
1157.108, 767.8186
1157.590, 763.7495
1158.072, 757.7346
1158.554, 749.9947
1159.036, 745.1533
1159.519, 747.4213
1160.001, 750.5055
1160.483, 749.3723
1160.965, 746.5861
1161.447, 746.4034
1161.929, 751.0713
1162.411, 743.7172
1162.893, 723.2866
1163.375, 709.4788
1163.858, 725.7505
1164.340, 745.7188
1164.822, 742.7877
1165.304, 726.1343
1165.786, 718.1508
1166.268, 723.7982
1166.750, 724.0361
1167.232, 717.0834
1167.715, 707.8387
1168.197, 695.4452
1168.679, 686.9903
1169.161, 695.3836
1169.643, 716.5154
1170.125, 727.3085
1170.607, 721.7951
1171.089, 718.0903
1171.572, 719.4795
1172.054, 721.5993
1172.536, 718.3375
1173.018, 713.0461
1173.500, 711.3055
1173.982, 713.4095
1174.464, 712.5679
1174.946, 707.0961
1175.428, 700.6559
1175.911, 693.9249
1176.393, 686.9634
1176.875, 677.3254
1177.357, 668.3824
1177.839, 667.6833
1178.321, 678.0786
1178.803, 682.5636
1179.285, 674.0612
1179.767, 667.7817
1180.250, 670.4357
1180.732, 677.2692
1181.214, 678.2466
1181.696, 675.2906
1182.178, 673.1254
1182.660, 674.4578
1183.142, 670.8952
1183.624, 654.5001
1184.107, 643.0269
1184.589, 648.0247
1185.071, 663.2712
1185.553, 670.8490
1186.035, 671.9464
1186.517, 669.7893
1186.999, 662.8605
1187.481, 658.2034
1187.964, 659.1675
1188.446, 660.5386
1188.928, 659.0235
1189.410, 654.8936
1189.892, 646.4620
1190.374, 636.0443
1190.856, 632.8330
1191.338, 650.9485
1191.820, 663.2650
1192.302, 660.5110
1192.785, 652.7924
1193.267, 649.5668
1193.749, 649.5031
1194.231, 643.1544
1194.713, 631.5922
1195.195, 622.7720
1195.677, 623.6937
1196.159, 624.3696
1196.642, 620.8571
1197.124, 616.1885
1197.606, 614.9434
1198.088, 616.1001
1198.570, 611.8761
1199.052, 602.4749
1199.534, 596.3840
1200.016, 603.0259
1200.499, 608.4239
1200.981, 606.6485
1201.463, 601.1177
1201.945, 596.9376
1202.427, 593.8239
1202.909, 587.7092
1203.391, 578.2789
1203.873, 575.4938
1204.355, 596.0363
1204.838, 611.8808
1205.320, 607.3706
1205.802, 592.8374
1206.284, 591.3120
1206.766, 600.2610
1207.248, 601.7704
1207.730, 592.2770
1208.212, 585.8886
1208.694, 597.3035
1209.177, 607.0349
1209.659, 604.4257
1210.141, 593.9047
1210.623, 586.5476
1211.105, 582.4828
1211.587, 583.8542
1212.069, 591.9839
1212.551, 599.5680
1213.034, 606.1855
1213.516, 606.3533
1213.998, 594.3048
1214.480, 575.2582
1214.962, 571.1550
1215.444, 579.6548
1215.926, 587.2816
1216.408, 589.6465
1216.891, 593.5242
1217.373, 607.4678
1217.855, 618.9781
1218.337, 620.0862
1218.819, 612.9044
1219.301, 606.3289
1219.783, 600.5649
1220.265, 597.5637
1220.747, 599.5740
1221.229, 599.8631
1221.712, 593.5189
1222.194, 585.7299
1222.676, 578.3871
1223.158, 572.3964
1223.640, 573.7546
1224.122, 581.1292
1224.604, 588.2623
1225.086, 592.6425
1225.569, 596.5976
1226.051, 601.6569
1226.533, 606.0734
1227.015, 609.6637
1227.497, 611.7031
1227.979, 605.4041
1228.461, 593.0526
1228.943, 584.7559
1229.426, 587.0424
1229.908, 590.4841
1230.390, 593.7787
1230.872, 595.1465
1231.354, 591.4824
1231.836, 584.6002
1232.318, 585.3917
1232.800, 592.2249
1233.282, 598.2301
1233.765, 602.1467
1234.247, 601.7830
1234.729, 592.5658
1235.211, 584.8445
1235.693, 589.0653
1236.175, 601.7237
1236.657, 610.6979
1237.139, 615.3009
1237.621, 613.8648
1238.104, 598.6940
1238.586, 587.4103
1239.068, 583.2593
1239.550, 582.1755
1240.032, 580.8578
1240.514, 579.5466
1240.996, 579.6420
1241.478, 580.5333
1241.960, 579.8576
1242.443, 574.3757
1242.925, 570.7677
1243.407, 569.6842
1243.889, 570.6335
1244.371, 573.1709
1244.853, 577.3624
1245.335, 585.6721
1245.817, 596.2202
1246.300, 601.7540
1246.782, 599.0725
1247.264, 591.2128
1247.746, 575.3428
1248.228, 562.4719
1248.710, 568.0449
1249.192, 581.3052
1249.674, 586.0486
1250.156, 582.8191
1250.639, 576.6198
1251.121, 565.1339
1251.603, 558.2689
1252.085, 557.2540
1252.567, 560.0341
1253.049, 567.9298
1253.531, 576.1837
1254.013, 578.1027
1254.495, 574.8871
1254.978, 572.2642
1255.460, 569.7964
1255.942, 572.2712
1256.424, 581.2086
1256.906, 588.7426
1257.388, 584.5541
1257.870, 577.7907
1258.352, 579.5953
1258.835, 586.6190
1259.317, 583.8170
1259.799, 568.2324
1260.281, 561.6758
1260.763, 567.0872
1261.245, 576.6099
1261.727, 590.6945
1262.209, 599.5854
1262.692, 591.7358
1263.174, 573.3304
1263.656, 557.7072
1264.138, 544.7845
1264.620, 548.1408
1265.102, 570.0642
1265.584, 584.5396
1266.066, 556.6776
1266.548, 532.1580
1267.031, 546.3788
1267.513, 577.6061
1267.995, 583.7869
1268.477, 568.3533
1268.959, 566.0939
1269.441, 580.7097
1269.923, 591.5128
1270.405, 578.9593
1270.887, 569.1909
1271.370, 573.0018
1271.852, 583.7783
1272.334, 593.5742
1272.816, 600.7353
1273.298, 595.9108
1273.780, 579.0488
1274.262, 566.9879
1274.744, 575.2093
1275.227, 576.3987
1275.709, 559.8190
1276.191, 541.6132
1276.673, 551.3483
1277.155, 575.3501
1277.637, 583.8516
1278.119, 575.4764
1278.601, 568.9092
1279.083, 568.7511
1279.566, 570.7441
1280.048, 575.3253
1280.530, 578.3862
1281.012, 572.0974
1281.494, 562.8463
1281.976, 559.4753
1282.458, 562.0306
1282.940, 564.2000
1283.422, 565.4655
1283.905, 566.8779
1284.387, 569.0578
1284.869, 568.9426
1285.351, 560.3665
1285.833, 550.6078
1286.315, 546.8210
1286.797, 548.3781
1287.279, 549.9605
1287.762, 551.4262
1288.244, 555.1879
1288.726, 561.7711
1289.208, 567.8148
1289.690, 569.1008
1290.172, 570.4895
1290.654, 578.0596
1291.136, 586.6970
1291.619, 583.2258
1292.101, 569.7995
1292.583, 569.7434
##END=



