##NAMES=Clinohumite
##RRUFFID=R070561
##IDEAL CHEMISTRY=Mg_9_(SiO_4_)_4_F_2_
##LOCALITY=Unknown
##OWNER=RRUFF
##SOURCE=www.multicolour.com
##DESCRIPTION=Brownish orange transparent fragments
##STATUS=The identification of this mineral has been confirmed by X-ray diffraction and chemical analysis
##URL=rruff.info/R070561
##MEASURED CHEMISTRY=(Mg_8.47_Fe_0.23_Ti_0.15_[box]_0.14_Mn_0.01_)_Σ=9_((Si_3.98_Al_0.02_)_Σ=1_O_4_)_4_(F_1.01_(OH)_0.99_)_Σ=2_ ; OH estimated by difference and charge balance
155.7619, 2451.896
156.2440, 2543.411
156.7261, 2589.721
157.2082, 2567.433
157.6903, 2499.212
158.1724, 2442.231
158.6546, 2399.909
159.1367, 2365.154
159.6188, 2348.232
160.1009, 2334.639
160.5830, 2298.361
161.0651, 2225.357
161.5473, 2138.839
162.0294, 2118.968
162.5115, 2265.640
162.9936, 2366.526
163.4757, 2371.650
163.9578, 2326.728
164.4400, 2297.045
164.9221, 2317.740
165.4042, 2373.728
165.8863, 2397.547
166.3684, 2341.503
166.8505, 2307.613
167.3327, 2331.930
167.8148, 2386.527
168.2969, 2421.704
168.7790, 2406.634
169.2611, 2355.375
169.7432, 2356.558
170.2254, 2501.691
170.7075, 2593.275
171.1896, 2542.619
171.6717, 2410.109
172.1538, 2306.848
172.6359, 2299.847
173.1181, 2376.614
173.6002, 2439.963
174.0823, 2487.393
174.5644, 2527.330
175.0465, 2575.202
175.5286, 2617.567
176.0108, 2615.894
176.4929, 2535.938
176.9750, 2393.741
177.4571, 2357.936
177.9392, 2508.776
178.4213, 2657.802
178.9035, 2756.391
179.3856, 2806.871
179.8677, 2818.555
180.3498, 2793.112
180.8319, 2734.081
181.3140, 2688.160
181.7962, 2666.998
182.2783, 2643.556
182.7604, 2595.094
183.2425, 2534.781
183.7246, 2495.846
184.2067, 2500.596
184.6889, 2546.942
185.1710, 2606.555
185.6531, 2734.231
186.1352, 2818.512
186.6173, 2787.142
187.0994, 2673.053
187.5816, 2566.634
188.0637, 2526.583
188.5458, 2549.337
189.0279, 2572.339
189.5100, 2622.196
189.9921, 2646.477
190.4743, 2595.823
190.9564, 2498.117
191.4385, 2432.564
191.9206, 2458.901
192.4027, 2568.850
192.8848, 2622.184
193.3670, 2572.309
193.8491, 2525.518
194.3312, 2534.845
194.8133, 2583.596
195.2954, 2618.923
195.7775, 2602.239
196.2597, 2539.374
196.7418, 2513.941
197.2239, 2555.995
197.7060, 2596.319
198.1881, 2606.440
198.6702, 2593.119
199.1524, 2572.268
199.6345, 2548.860
200.1166, 2526.507
200.5987, 2556.497
201.0808, 2690.052
201.5629, 2809.582
202.0451, 2878.587
202.5272, 2900.922
203.0093, 2883.494
203.4914, 2823.326
203.9735, 2729.350
204.4556, 2684.295
204.9378, 2722.015
205.4199, 2761.340
205.9020, 2765.224
206.3841, 2750.870
206.8662, 2760.725
207.3483, 2824.082
207.8305, 2929.854
208.3126, 3000.341
208.7947, 3052.481
209.2768, 3058.589
209.7589, 2973.936
210.2410, 2839.862
210.7232, 2730.786
211.2053, 2688.279
211.6874, 2703.237
212.1695, 2728.788
212.6516, 2802.912
213.1337, 2844.266
213.6159, 2821.818
214.0980, 2756.794
214.5801, 2676.303
215.0622, 2591.586
215.5443, 2511.676
216.0264, 2477.928
216.5086, 2523.191
216.9907, 2575.102
217.4728, 2651.035
217.9549, 2721.021
218.4370, 2734.077
218.9191, 2663.022
219.4013, 2538.654
219.8834, 2461.667
220.3655, 2483.875
220.8476, 2496.061
221.3297, 2473.099
221.8118, 2441.283
222.2940, 2435.478
222.7761, 2470.754
223.2582, 2531.468
223.7403, 2578.006
224.2224, 2597.817
224.7046, 2617.672
225.1867, 2617.630
225.6688, 2627.126
226.1509, 2692.945
226.6330, 2830.146
227.1151, 2987.982
227.5973, 3060.013
228.0794, 2983.246
228.5615, 2908.103
229.0436, 2813.916
229.5257, 2735.943
230.0078, 2707.210
230.4900, 2736.342
230.9721, 2803.824
231.4542, 2881.590
231.9363, 2994.082
232.4184, 3069.568
232.9005, 3119.744
233.3827, 3131.386
233.8648, 3066.647
234.3469, 2930.011
234.8290, 2793.738
235.3111, 2771.735
235.7932, 2935.964
236.2754, 3035.872
236.7575, 3056.977
237.2396, 3035.239
237.7217, 2970.277
238.2038, 2873.155
238.6859, 2780.762
239.1681, 2732.651
239.6502, 2732.631
240.1323, 2763.330
240.6144, 2908.114
241.0965, 3012.982
241.5786, 2983.612
242.0608, 2835.983
242.5429, 2664.994
243.0250, 2541.846
243.5071, 2463.224
243.9892, 2474.983
244.4713, 2703.767
244.9535, 2907.458
245.4356, 2985.480
245.9177, 2957.919
246.3998, 2899.792
246.8819, 2863.354
247.3640, 2846.273
247.8462, 2818.078
248.3283, 2759.439
248.8104, 2715.008
249.2925, 2700.975
249.7746, 2712.756
250.2567, 2742.309
250.7389, 2798.028
251.2210, 2865.453
251.7031, 2881.142
252.1852, 2796.514
252.6673, 2752.013
253.1494, 2868.036
253.6316, 3047.682
254.1137, 3133.144
254.5958, 3007.149
255.0779, 2793.776
255.5600, 2761.598
256.0421, 2984.411
256.5243, 3146.834
257.0064, 3024.017
257.4885, 2783.022
257.9706, 2606.567
258.4527, 2545.689
258.9348, 2560.367
259.4170, 2625.482
259.8991, 2747.063
260.3812, 2843.023
260.8633, 2872.988
261.3454, 2860.667
261.8275, 2833.438
262.3097, 2784.333
262.7918, 2743.671
263.2739, 2729.111
263.7560, 2741.241
264.2381, 2792.708
264.7202, 2919.658
265.2024, 3055.340
265.6845, 3097.250
266.1666, 3027.117
266.6487, 2944.072
267.1308, 2878.633
267.6129, 2836.365
268.0951, 2846.314
268.5772, 2936.785
269.0593, 3034.794
269.5414, 3010.567
270.0235, 2852.574
270.5056, 2729.391
270.9878, 2713.541
271.4699, 2746.434
271.9520, 2741.502
272.4341, 2679.107
272.9162, 2617.572
273.3983, 2630.325
273.8805, 2735.856
274.3626, 2805.044
274.8447, 2801.062
275.3268, 2779.140
275.8089, 2776.884
276.2910, 2800.062
276.7732, 2854.506
277.2553, 2963.531
277.7374, 3137.217
278.2195, 3180.266
278.7016, 2983.639
279.1837, 2775.499
279.6659, 2664.790
280.1480, 2638.660
280.6301, 2627.668
281.1122, 2579.234
281.5943, 2503.873
282.0764, 2522.616
282.5586, 2769.022
283.0407, 2954.965
283.5228, 2991.478
284.0049, 2930.454
284.4870, 2847.255
284.9691, 2778.480
285.4513, 2725.544
285.9334, 2693.264
286.4155, 2661.128
286.8976, 2684.923
287.3797, 2853.993
287.8618, 3035.244
288.3440, 3077.532
288.8261, 2936.714
289.3082, 2729.552
289.7903, 2665.757
290.2724, 2831.157
290.7545, 2914.982
291.2367, 2818.792
291.7188, 2695.452
292.2009, 2630.836
292.6830, 2638.431
293.1651, 2685.372
293.6472, 2756.014
294.1294, 2855.669
294.6115, 2908.491
295.0936, 2868.953
295.5757, 2822.590
296.0578, 2819.788
296.5399, 2850.480
297.0221, 2871.939
297.5042, 2842.477
297.9863, 2778.221
298.4684, 2747.203
298.9505, 2759.077
299.4326, 2785.518
299.9148, 2810.066
300.3969, 2836.374
300.8790, 2873.484
301.3611, 2945.395
301.8432, 3015.830
302.3253, 3012.937
302.8075, 2926.933
303.2896, 2883.955
303.7717, 3000.963
304.2538, 3185.450
304.7359, 3246.137
305.2180, 3104.463
305.7002, 2933.508
306.1823, 2813.580
306.6644, 2751.791
307.1465, 2796.368
307.6286, 3001.454
308.1107, 3272.123
308.5929, 3407.677
309.0750, 3388.888
309.5571, 3332.289
310.0392, 3219.209
310.5213, 3103.143
311.0034, 3074.134
311.4856, 3155.447
311.9677, 3268.390
312.4498, 3307.706
312.9319, 3230.836
313.4140, 3209.025
313.8961, 3298.581
314.3783, 3399.572
314.8604, 3440.965
315.3425, 3421.892
315.8246, 3380.398
316.3067, 3344.115
316.7888, 3311.224
317.2710, 3323.891
317.7531, 3446.457
318.2352, 3543.721
318.7173, 3557.222
319.1994, 3517.221
319.6815, 3481.740
320.1637, 3486.076
320.6458, 3515.896
321.1279, 3513.740
321.6100, 3437.990
322.0921, 3397.711
322.5742, 3432.103
323.0564, 3494.917
323.5385, 3550.847
324.0206, 3588.189
324.5027, 3595.272
324.9848, 3541.570
325.4669, 3409.958
325.9491, 3306.717
326.4312, 3262.642
326.9133, 3243.335
327.3954, 3236.022
327.8775, 3237.469
328.3596, 3234.371
328.8418, 3208.631
329.3239, 3167.963
329.8060, 3151.320
330.2881, 3175.764
330.7702, 3197.254
331.2523, 3186.375
331.7345, 3147.202
332.2166, 3085.215
332.6987, 2953.258
333.1808, 2826.406
333.6629, 2814.010
334.1451, 2916.875
334.6272, 3026.573
335.1093, 3090.333
335.5914, 3106.573
336.0735, 3086.141
336.5556, 2985.412
337.0378, 2899.321
337.5199, 2888.724
338.0020, 2922.301
338.4841, 2929.769
338.9662, 2880.946
339.4483, 2805.793
339.9305, 2763.783
340.4126, 2764.782
340.8947, 2784.251
341.3768, 2848.485
341.8589, 2914.463
342.3410, 2934.411
342.8232, 2906.286
343.3053, 2876.428
343.7874, 2899.615
344.2695, 2990.885
344.7516, 3048.344
345.2337, 3065.111
345.7159, 3056.944
346.1980, 3015.669
346.6801, 2953.747
347.1622, 2893.754
347.6443, 2848.830
348.1265, 2818.255
348.6086, 2801.547
349.0907, 2806.878
349.5728, 2811.388
350.0549, 2798.695
350.5370, 2786.732
351.0192, 2804.163
351.5013, 2865.026
351.9834, 2917.821
352.4655, 2882.448
352.9476, 2756.541
353.4297, 2670.382
353.9119, 2679.633
354.3940, 2712.256
354.8761, 2692.507
355.3582, 2620.551
355.8403, 2556.917
356.3224, 2535.115
356.8046, 2539.169
357.2867, 2545.235
357.7688, 2552.367
358.2509, 2546.130
358.7330, 2499.264
359.2151, 2419.703
359.6973, 2394.588
360.1794, 2471.899
360.6615, 2564.374
361.1436, 2633.296
361.6257, 2675.577
362.1078, 2685.902
362.5900, 2658.868
363.0721, 2603.873
363.5542, 2550.843
364.0363, 2472.600
364.5184, 2431.690
365.0005, 2459.811
365.4827, 2512.050
365.9648, 2548.139
366.4469, 2557.301
366.9290, 2547.823
367.4111, 2526.439
367.8932, 2486.086
368.3754, 2462.428
368.8575, 2460.058
369.3396, 2470.531
369.8217, 2499.803
370.3038, 2540.198
370.7859, 2576.018
371.2681, 2603.130
371.7502, 2615.149
372.2323, 2581.057
372.7144, 2474.410
373.1965, 2388.174
373.6786, 2380.431
374.1608, 2405.607
374.6429, 2414.299
375.1250, 2391.347
375.6071, 2364.653
376.0892, 2352.261
376.5714, 2355.236
377.0535, 2389.458
377.5356, 2480.390
378.0177, 2566.674
378.4998, 2547.145
378.9819, 2419.194
379.4641, 2317.557
379.9462, 2266.131
380.4283, 2258.649
380.9104, 2314.977
381.3925, 2425.857
381.8746, 2514.416
382.3568, 2519.291
382.8389, 2444.036
383.3210, 2370.715
383.8031, 2277.777
384.2852, 2210.094
384.7673, 2194.763
385.2495, 2208.001
385.7316, 2206.898
386.2137, 2174.141
386.6958, 2145.208
387.1779, 2202.240
387.6600, 2412.748
388.1422, 2546.609
388.6243, 2544.626
389.1064, 2506.198
389.5885, 2484.663
390.0706, 2482.617
390.5527, 2473.614
391.0349, 2422.162
391.5170, 2437.641
391.9991, 2350.467
392.4812, 2392.235
392.9633, 2401.305
393.4454, 2279.737
393.9276, 2326.859
394.4097, 2306.379
394.8918, 2283.126
395.3739, 2353.991
395.8560, 2251.424
396.3381, 2320.797
396.8203, 2321.534
397.3024, 2353.685
397.7845, 2330.517
398.2666, 2352.185
398.7487, 2386.028
399.2308, 2382.594
399.7130, 2301.270
400.1951, 2200.205
400.6772, 2127.558
401.1593, 2089.217
401.6414, 2073.697
402.1235, 2071.746
402.6057, 2083.469
403.0878, 2113.405
403.5699, 2184.353
404.0520, 2247.738
404.5341, 2308.111
405.0162, 2350.082
405.4984, 2347.577
405.9805, 2289.617
406.4626, 2210.068
406.9447, 2166.938
407.4268, 2169.580
407.9089, 2161.823
408.3911, 2093.247
408.8732, 2051.863
409.3553, 2120.763
409.8374, 2281.335
410.3195, 2411.592
410.8016, 2422.111
411.2838, 2360.402
411.7659, 2312.226
412.2480, 2278.416
412.7301, 2274.105
413.2122, 2324.528
413.6943, 2409.427
414.1765, 2461.078
414.6586, 2471.588
415.1407, 2459.136
415.6228, 2400.099
416.1049, 2330.140
416.5870, 2323.467
417.0692, 2403.026
417.5513, 2502.430
418.0334, 2529.047
418.5155, 2456.017
418.9976, 2392.756
419.4797, 2298.240
419.9619, 2249.406
420.4440, 2332.539
420.9261, 2494.322
421.4082, 2599.381
421.8903, 2549.792
422.3724, 2403.924
422.8546, 2363.790
423.3367, 2479.941
423.8188, 2584.025
424.3009, 2617.835
424.7830, 2631.549
425.2651, 2665.883
425.7473, 2727.795
426.2294, 2795.230
426.7115, 2858.285
427.1936, 2913.660
427.6757, 2951.415
428.1578, 2970.431
428.6400, 2970.521
429.1221, 2936.698
429.6042, 2877.991
430.0863, 2855.862
430.5684, 2905.512
431.0505, 2962.630
431.5327, 3011.144
432.0148, 3038.638
432.4969, 3008.080
432.9790, 2900.930
433.4611, 2760.563
433.9432, 2673.525
434.4254, 2665.896
434.9075, 2665.828
435.3896, 2690.129
435.8717, 2707.245
436.3538, 2697.762
436.8359, 2662.415
437.3181, 2611.398
437.8002, 2547.470
438.2823, 2475.844
438.7644, 2413.683
439.2465, 2351.394
439.7286, 2322.346
440.2108, 2352.414
440.6929, 2415.915
441.1750, 2501.242
441.6571, 2616.191
442.1392, 2702.313
442.6213, 2702.377
443.1035, 2642.086
443.5856, 2584.143
444.0677, 2537.358
444.5498, 2507.642
445.0319, 2508.214
445.5140, 2541.091
445.9962, 2546.323
446.4783, 2510.825
446.9604, 2461.436
447.4425, 2394.710
447.9246, 2325.910
448.4067, 2283.467
448.8889, 2280.561
449.3710, 2302.016
449.8531, 2318.885
450.3352, 2334.531
450.8173, 2337.538
451.2994, 2329.289
451.7816, 2307.719
452.2637, 2261.854
452.7458, 2199.161
453.2279, 2143.207
453.7100, 2102.061
454.1921, 2081.580
454.6743, 2114.006
455.1564, 2215.697
455.6385, 2274.248
456.1206, 2207.650
456.6027, 2086.716
457.0848, 2034.723
457.5670, 2073.117
458.0491, 2120.511
458.5312, 2164.956
459.0133, 2189.598
459.4954, 2157.011
459.9775, 2065.123
460.4597, 1968.549
460.9418, 1914.650
461.4239, 1903.849
461.9060, 1905.215
462.3881, 1931.378
462.8702, 1954.444
463.3524, 1958.717
463.8345, 1959.892
464.3166, 1989.066
464.7987, 2055.463
465.2808, 2112.643
465.7629, 2076.762
466.2451, 1936.529
466.7272, 1860.179
467.2093, 1891.967
467.6914, 1951.738
468.1735, 1988.568
468.6556, 2010.596
469.1378, 2041.537
469.6199, 2105.977
470.1020, 2167.711
470.5841, 2191.010
471.0662, 2180.640
471.5483, 2156.674
472.0305, 2126.280
472.5126, 2086.440
472.9947, 2028.377
473.4768, 1930.152
473.9589, 1868.998
474.4410, 1851.338
474.9232, 1865.381
475.4053, 1927.210
475.8874, 2016.264
476.3695, 2078.909
476.8516, 2076.006
477.3337, 2031.305
477.8159, 2025.149
478.2980, 2075.806
478.7801, 2119.609
479.2622, 2151.958
479.7443, 2165.290
480.2264, 2142.844
480.7086, 2085.497
481.1907, 2035.968
481.6728, 2029.979
482.1549, 2045.721
482.6370, 2043.918
483.1191, 2021.922
483.6013, 1989.797
484.0834, 1943.317
484.5655, 1894.598
485.0476, 1896.365
485.5297, 2013.805
486.0118, 2084.994
486.4940, 2051.007
486.9761, 1973.196
487.4582, 1894.958
487.9403, 1833.800
488.4224, 1815.181
488.9045, 1873.375
489.3867, 2005.332
489.8688, 2117.852
490.3509, 2231.271
490.8330, 2290.044
491.3151, 2251.996
491.7972, 2167.197
492.2794, 2088.393
492.7615, 2026.721
493.2436, 1983.477
493.7257, 1971.917
494.2078, 1980.293
494.6899, 1968.916
495.1721, 1928.146
495.6542, 1889.800
496.1363, 1877.225
496.6184, 1891.678
497.1005, 1928.357
497.5826, 2037.973
498.0648, 2110.500
498.5469, 2082.254
499.0290, 2004.203
499.5111, 1948.963
499.9932, 1937.823
500.4753, 1938.153
500.9575, 1898.241
501.4396, 1805.644
501.9217, 1768.190
502.4038, 1808.316
502.8859, 1877.559
503.3680, 1984.839
503.8502, 2098.061
504.3323, 2159.383
504.8144, 2136.349
505.2965, 2088.834
505.7786, 2078.981
506.2607, 2090.873
506.7429, 2056.759
507.2250, 1950.975
507.7071, 1848.245
508.1892, 1837.269
508.6713, 1934.357
509.1534, 1975.380
509.6356, 1876.571
510.1177, 1815.151
510.5998, 1898.364
511.0819, 2055.462
511.5641, 2184.808
512.0461, 2246.423
512.5283, 2242.580
513.0104, 2145.054
513.4925, 1932.934
513.9746, 1823.319
514.4567, 1898.185
514.9388, 1988.320
515.4210, 1985.381
515.9031, 1923.895
516.3852, 1884.031
516.8673, 1907.367
517.3494, 1933.925
517.8315, 1909.808
518.3137, 1851.012
518.7958, 1793.169
519.2779, 1744.347
519.7600, 1722.789
520.2421, 1759.788
520.7242, 1875.970
521.2064, 1929.092
521.6885, 1870.196
522.1706, 1811.589
522.6527, 1773.694
523.1348, 1767.813
523.6169, 1819.739
524.0991, 1940.993
524.5812, 2070.634
525.0633, 2116.859
525.5454, 2081.904
526.0275, 2071.295
526.5096, 2105.190
526.9918, 2148.128
527.4739, 2173.411
527.9560, 2186.077
528.4381, 2199.716
528.9202, 2251.359
529.4023, 2267.285
529.8845, 2152.513
530.3666, 1989.717
530.8487, 1943.657
531.3308, 2054.506
531.8129, 2199.710
532.2950, 2229.521
532.7772, 2126.861
533.2593, 2069.694
533.7414, 2087.158
534.2235, 2118.577
534.7056, 2164.885
535.1877, 2208.531
535.6699, 2225.127
536.1520, 2205.846
536.6341, 2176.743
537.1162, 2153.074
537.5983, 2138.521
538.0804, 2144.369
538.5626, 2171.199
539.0447, 2228.261
539.5268, 2344.779
540.0089, 2503.208
540.4910, 2567.385
540.9731, 2452.834
541.4553, 2361.463
541.9374, 2351.075
542.4195, 2380.675
542.9016, 2407.735
543.3837, 2424.139
543.8658, 2445.937
544.3480, 2490.884
544.8301, 2555.746
545.3122, 2614.230
545.7943, 2671.529
546.2764, 2709.692
546.7585, 2705.767
547.2407, 2686.803
547.7228, 2682.264
548.2049, 2695.630
548.6870, 2716.637
549.1691, 2750.698
549.6512, 2784.228
550.1334, 2808.020
550.6155, 2817.479
551.0976, 2793.522
551.5797, 2721.179
552.0618, 2612.132
552.5439, 2503.674
553.0261, 2372.157
553.5082, 2283.962
553.9903, 2254.769
554.4724, 2254.654
554.9545, 2286.990
555.4366, 2335.303
555.9188, 2348.222
556.4009, 2271.257
556.8830, 2163.098
557.3651, 2127.764
557.8472, 2159.281
558.3293, 2169.258
558.8115, 2119.612
559.2936, 2053.333
559.7757, 2026.403
560.2578, 2042.537
560.7399, 2092.332
561.2220, 2245.664
561.7042, 2362.714
562.1863, 2329.519
562.6684, 2219.424
563.1505, 2177.716
563.6326, 2266.435
564.1147, 2392.453
564.5969, 2401.501
565.0790, 2288.336
565.5611, 2246.007
566.0432, 2320.729
566.5253, 2413.642
567.0074, 2481.161
567.4896, 2516.218
567.9717, 2492.873
568.4538, 2366.902
568.9359, 2241.898
569.4180, 2149.458
569.9001, 2094.740
570.3823, 2104.944
570.8644, 2174.922
571.3465, 2232.060
571.8286, 2199.176
572.3107, 2091.338
572.7928, 2078.808
573.2750, 2242.718
573.7571, 2357.889
574.2392, 2341.827
574.7213, 2277.931
575.2034, 2222.125
575.6855, 2182.991
576.1677, 2180.597
576.6498, 2262.174
577.1319, 2366.515
577.6140, 2411.069
578.0961, 2398.320
578.5782, 2361.224
579.0604, 2310.738
579.5425, 2259.702
580.0246, 2232.750
580.5067, 2225.073
580.9888, 2254.787
581.4709, 2375.345
581.9531, 2475.482
582.4352, 2485.759
582.9173, 2438.301
583.3994, 2395.264
583.8815, 2377.212
584.3636, 2395.493
584.8458, 2496.208
585.3279, 2654.374
585.8100, 2739.705
586.2921, 2719.655
586.7742, 2667.153
587.2563, 2631.204
587.7385, 2613.796
588.2206, 2637.223
588.7027, 2751.861
589.1848, 2838.734
589.6669, 2864.387
590.1490, 2855.222
590.6312, 2820.766
591.1133, 2773.085
591.5954, 2749.581
592.0775, 2788.545
592.5597, 2872.760
593.0418, 2951.626
593.5239, 3028.138
594.0060, 3076.787
594.4882, 3078.521
594.9703, 3057.832
595.4524, 3036.727
595.9345, 3005.898
596.4166, 3037.992
596.8987, 3183.850
597.3809, 3358.178
597.8630, 3522.947
598.3451, 3672.355
598.8272, 3805.730
599.3093, 3922.344
599.7914, 4015.629
600.2736, 4057.949
600.7557, 4043.795
601.2378, 4094.688
601.7199, 4240.225
602.2020, 4405.645
602.6841, 4557.787
603.1663, 4697.490
603.6484, 4829.807
604.1305, 4973.744
604.6126, 5069.119
605.0947, 5064.021
605.5768, 5015.478
606.0590, 4988.391
606.5411, 4984.809
607.0232, 4969.987
607.5053, 4920.963
607.9874, 4841.074
608.4695, 4737.180
608.9517, 4602.923
609.4338, 4465.230
609.9159, 4333.148
610.3980, 4193.557
610.8801, 4040.923
611.3622, 3874.364
611.8444, 3692.877
612.3265, 3456.452
612.8086, 3245.121
613.2907, 3135.696
613.7728, 3081.164
614.2549, 2988.948
614.7371, 2837.685
615.2192, 2675.718
615.7013, 2549.294
616.1834, 2457.469
616.6655, 2395.124
617.1476, 2381.518
617.6298, 2361.941
618.1119, 2304.795
618.5940, 2245.760
619.0761, 2222.061
619.5582, 2236.047
620.0403, 2246.492
620.5225, 2249.973
621.0046, 2230.204
621.4867, 2151.737
621.9688, 2033.569
622.4509, 1936.154
622.9330, 1883.948
623.4152, 1860.577
623.8973, 1843.990
624.3794, 1837.373
624.8615, 1817.882
625.3436, 1744.203
625.8257, 1713.493
626.3079, 1806.535
626.7900, 1940.625
627.2721, 1998.352
627.7542, 1948.839
628.2363, 1877.964
628.7184, 1821.247
629.2006, 1778.564
629.6827, 1754.828
630.1648, 1746.636
630.6469, 1739.455
631.1290, 1726.494
631.6111, 1703.763
632.0933, 1653.849
632.5754, 1546.505
633.0575, 1498.079
633.5396, 1556.742
634.0217, 1629.552
634.5038, 1687.102
634.9860, 1725.241
635.4681, 1736.318
635.9502, 1712.630
636.4323, 1676.218
636.9144, 1640.378
637.3965, 1601.953
637.8787, 1540.247
638.3608, 1460.616
638.8429, 1422.901
639.3250, 1477.005
639.8071, 1590.246
640.2892, 1635.555
640.7714, 1571.022
641.2535, 1543.714
641.7356, 1644.382
642.2177, 1717.586
642.6998, 1628.824
643.1819, 1432.427
643.6641, 1312.263
644.1462, 1354.048
644.6283, 1445.344
645.1104, 1536.802
645.5925, 1615.883
646.0746, 1661.618
646.5568, 1670.138
647.0389, 1644.023
647.5210, 1578.426
648.0031, 1485.540
648.4852, 1434.919
648.9673, 1438.683
649.4495, 1453.572
649.9316, 1476.150
650.4137, 1503.115
650.8958, 1555.160
651.3779, 1618.464
651.8600, 1613.727
652.3422, 1414.147
652.8243, 1245.930
653.3064, 1299.625
653.7885, 1466.589
654.2706, 1568.268
654.7527, 1563.575
655.2349, 1503.859
655.7170, 1426.622
656.1991, 1340.514
656.6812, 1301.254
657.1633, 1317.131
657.6454, 1357.601
658.1276, 1443.874
658.6097, 1524.566
659.0918, 1536.760
659.5739, 1485.817
660.0560, 1462.315
660.5381, 1532.014
661.0203, 1584.480
661.5024, 1525.224
661.9845, 1421.490
662.4666, 1388.992
662.9487, 1447.901
663.4308, 1514.583
663.9130, 1497.972
664.3951, 1421.766
664.8772, 1414.323
665.3593, 1493.150
665.8414, 1546.502
666.3235, 1531.719
666.8057, 1486.018
667.2878, 1455.787
667.7699, 1442.041
668.2520, 1412.547
668.7341, 1324.902
669.2162, 1265.328
669.6984, 1300.233
670.1805, 1372.366
670.6626, 1403.932
671.1447, 1379.941
671.6268, 1344.958
672.1089, 1345.922
672.5911, 1365.004
673.0732, 1337.427
673.5553, 1261.595
674.0374, 1218.601
674.5195, 1247.798
675.0016, 1294.450
675.4838, 1278.746
675.9659, 1182.511
676.4480, 1155.741
676.9301, 1282.913
677.4122, 1372.497
677.8943, 1326.187
678.3765, 1236.941
678.8586, 1213.224
679.3407, 1269.491
679.8228, 1334.103
680.3049, 1372.877
680.7870, 1378.625
681.2692, 1309.850
681.7513, 1186.169
682.2334, 1129.624
682.7155, 1186.834
683.1976, 1276.932
683.6797, 1294.675
684.1619, 1232.063
684.6440, 1234.095
685.1261, 1377.300
685.6082, 1476.766
686.0903, 1464.930
686.5724, 1412.859
687.0546, 1377.617
687.5367, 1366.119
688.0188, 1372.035
688.5009, 1409.859
688.9830, 1448.867
689.4651, 1456.078
689.9473, 1443.214
690.4294, 1440.682
690.9115, 1456.103
691.3936, 1468.845
691.8757, 1454.359
692.3578, 1416.781
692.8400, 1399.105
693.3221, 1414.003
693.8042, 1408.692
694.2863, 1338.477
694.7684, 1270.672
695.2505, 1286.016
695.7327, 1378.042
696.2148, 1450.770
696.6969, 1484.161
697.1790, 1500.482
697.6611, 1497.336
698.1432, 1489.677
698.6254, 1507.435
699.1075, 1547.382
699.5896, 1561.086
700.0717, 1495.786
700.5538, 1391.383
701.0359, 1349.662
701.5181, 1369.396
702.0002, 1385.912
702.4823, 1381.716
702.9644, 1374.742
703.4465, 1381.284
703.9286, 1401.101
704.4108, 1427.518
704.8929, 1497.732
705.3750, 1524.547
705.8571, 1448.307
706.3392, 1362.574
706.8214, 1349.860
707.3035, 1399.927
707.7856, 1439.020
708.2677, 1415.575
708.7498, 1391.909
709.2319, 1455.492
709.7141, 1562.905
710.1962, 1599.396
710.6783, 1549.930
711.1604, 1500.008
711.6425, 1516.146
712.1246, 1581.207
712.6068, 1630.755
713.0889, 1662.583
713.5710, 1686.757
714.0531, 1723.114
714.5352, 1729.196
715.0173, 1643.659
715.4995, 1508.910
715.9816, 1437.317
716.4637, 1459.581
716.9458, 1518.713
717.4279, 1645.338
717.9100, 1762.208
718.3922, 1769.398
718.8743, 1697.637
719.3564, 1664.536
719.8385, 1736.482
720.3206, 1834.574
720.8027, 1830.690
721.2849, 1742.068
721.7670, 1687.928
722.2491, 1683.612
722.7312, 1676.563
723.2133, 1627.765
723.6954, 1567.018
724.1776, 1568.384
724.6597, 1666.812
725.1418, 1748.700
725.6239, 1816.102
726.1060, 1866.214
726.5881, 1882.901
727.0703, 1887.822
727.5524, 1922.691
728.0345, 2000.983
728.5166, 2049.250
728.9987, 1979.158
729.4808, 1884.800
729.9630, 1890.222
730.4451, 1972.925
730.9272, 2037.834
731.4093, 2049.680
731.8914, 2063.335
732.3735, 2163.321
732.8557, 2343.385
733.3378, 2449.395
733.8199, 2460.995
734.3020, 2465.950
734.7841, 2483.734
735.2662, 2518.463
735.7484, 2580.509
736.2305, 2671.078
736.7126, 2756.784
737.1947, 2875.843
737.6768, 2941.614
738.1589, 2857.647
738.6411, 2747.463
739.1232, 2754.749
739.6053, 2882.464
740.0874, 3016.419
740.5695, 3094.684
741.0516, 3129.841
741.5338, 3112.046
742.0159, 3064.539
742.4980, 3075.759
742.9801, 3162.038
743.4622, 3249.781
743.9443, 3282.002
744.4265, 3263.519
744.9086, 3205.433
745.3907, 3077.646
745.8728, 3001.079
746.3549, 3004.677
746.8370, 3044.117
747.3192, 3123.834
747.8013, 3214.245
748.2834, 3235.569
748.7655, 3134.241
749.2476, 3059.055
749.7297, 3088.600
750.2119, 3130.936
750.6940, 3088.087
751.1761, 3000.640
751.6582, 2988.889
752.1403, 3106.453
752.6224, 3227.551
753.1046, 3179.601
753.5867, 3031.970
754.0688, 2997.536
754.5509, 3078.668
755.0330, 3124.097
755.5151, 3062.918
755.9973, 2957.708
756.4794, 2906.975
756.9615, 2919.943
757.4436, 2907.981
757.9257, 2851.865
758.4078, 2802.193
758.8900, 2770.583
759.3721, 2754.528
759.8542, 2761.155
760.3363, 2788.880
760.8184, 2796.772
761.3005, 2761.428
761.7827, 2719.294
762.2648, 2669.659
762.7469, 2634.530
763.2290, 2657.469
763.7111, 2729.594
764.1932, 2783.816
764.6754, 2773.760
765.1575, 2722.766
765.6396, 2642.471
766.1217, 2549.861
766.6038, 2537.028
767.0859, 2621.852
767.5681, 2712.876
768.0502, 2744.710
768.5323, 2737.596
769.0144, 2755.936
769.4965, 2810.563
769.9786, 2859.380
770.4608, 2878.998
770.9429, 2921.023
771.4250, 3036.897
771.9071, 3182.056
772.3892, 3277.966
772.8713, 3299.430
773.3535, 3347.504
773.8356, 3450.676
774.3177, 3588.348
774.7998, 3769.695
775.2819, 3966.990
775.7640, 4130.233
776.2462, 4250.043
776.7283, 4375.274
777.2104, 4542.989
777.6925, 4746.867
778.1746, 4992.761
778.6567, 5267.562
779.1389, 5514.662
779.6210, 5716.736
780.1031, 5890.430
780.5852, 6053.225
781.0673, 6202.063
781.5494, 6324.040
782.0316, 6428.263
782.5137, 6475.361
782.9958, 6434.718
783.4779, 6367.394
783.9600, 6331.612
784.4421, 6305.915
784.9243, 6216.701
785.4064, 6039.004
785.8885, 5836.962
786.3706, 5602.727
786.8527, 5364.926
787.3348, 5159.409
787.8170, 4959.548
788.2991, 4695.874
788.7812, 4337.119
789.2633, 4010.547
789.7454, 3839.808
790.2275, 3747.627
790.7097, 3617.637
791.1918, 3460.388
791.6739, 3332.059
792.1560, 3252.280
792.6381, 3205.706
793.1202, 3182.572
793.6024, 3176.277
794.0845, 3136.408
794.5666, 3055.798
795.0487, 2985.718
795.5308, 2933.185
796.0129, 2907.941
796.4951, 2924.660
796.9772, 2979.573
797.4593, 3033.609
797.9414, 3094.453
798.4235, 3142.984
798.9056, 3164.145
799.3878, 3185.768
799.8699, 3233.312
800.3520, 3293.009
800.8341, 3326.094
801.3162, 3305.455
801.7983, 3318.718
802.2805, 3460.139
802.7626, 3616.646
803.2447, 3659.590
803.7268, 3629.537
804.2089, 3641.434
804.6910, 3733.261
805.1732, 3840.415
805.6553, 3903.325
806.1374, 3927.796
806.6195, 3915.596
807.1016, 3872.009
807.5837, 3847.465
808.0659, 3855.511
808.5480, 3898.243
809.0301, 3986.503
809.5122, 4108.871
809.9943, 4175.023
810.4764, 4151.513
810.9586, 4169.965
811.4407, 4273.361
811.9228, 4389.932
812.4049, 4456.504
812.8870, 4499.832
813.3691, 4598.820
813.8513, 4791.868
814.3334, 4961.784
814.8155, 5057.103
815.2976, 5159.966
815.7797, 5311.879
816.2618, 5505.313
816.7440, 5720.204
817.2261, 5952.026
817.7082, 6223.406
818.1903, 6540.941
818.6724, 6912.846
819.1545, 7368.851
819.6367, 7883.943
820.1188, 8393.320
820.6009, 8889.284
821.0830, 9421.360
821.5651, 10023.79
822.0472, 10702.18
822.5294, 11513.59
823.0115, 12440.63
823.4936, 13289.31
823.9757, 14020.76
824.4578, 14774.05
824.9399, 15650.76
825.4221, 16593.92
825.9042, 17465.51
826.3863, 18245.26
826.8684, 19020.84
827.3505, 19876.32
827.8326, 20595.22
828.3148, 21057.04
828.7969, 21353.04
829.2790, 21636.54
829.7611, 21925.99
830.2432, 21975.70
830.7253, 21658.24
831.2075, 21214.34
831.6896, 20697.97
832.1717, 20118.86
832.6538, 19431.52
833.1359, 18674.05
833.6180, 17983.14
834.1002, 17420.84
834.5823, 16934.86
835.0644, 16470.61
835.5465, 16061.04
836.0286, 15747.33
836.5107, 15532.14
836.9929, 15413.05
837.4750, 15389.57
837.9571, 15428.32
838.4392, 15486.28
838.9213, 15570.29
839.4034, 15709.82
839.8856, 15903.57
840.3677, 16157.58
840.8498, 16488.35
841.3319, 16767.03
841.8140, 16843.76
842.2961, 16742.35
842.7783, 16680.82
843.2604, 16703.30
843.7425, 16627.66
844.2246, 16433.84
844.7067, 16120.15
845.1888, 15644.38
845.6710, 15050.78
846.1531, 14482.98
846.6352, 13943.98
847.1173, 13422.69
847.5994, 12901.04
848.0815, 12413.67
848.5637, 11950.11
849.0458, 11542.93
849.5279, 11241.70
850.0100, 11052.29
850.4921, 10909.78
850.9742, 10770.97
851.4564, 10689.36
851.9385, 10720.78
852.4206, 10816.22
852.9027, 10898.92
853.3848, 10975.61
853.8669, 11122.45
854.3491, 11385.58
854.8312, 11722.33
855.3133, 12102.24
855.7954, 12510.67
856.2775, 12932.66
856.7596, 13353.91
857.2418, 13718.68
857.7239, 14003.94
858.2060, 14220.10
858.6881, 14396.35
859.1702, 14519.41
859.6523, 14490.32
860.1345, 14304.48
860.6166, 14033.22
861.0987, 13697.84
861.5808, 13273.88
862.0629, 12725.81
862.5450, 12075.00
863.0272, 11434.25
863.5093, 10791.00
863.9914, 10196.82
864.4735, 9662.820
864.9556, 9160.221
865.4377, 8671.727
865.9199, 8205.708
866.4020, 7772.741
866.8841, 7372.184
867.3662, 7005.073
867.8483, 6695.121
868.3304, 6389.764
868.8126, 6048.044
869.2947, 5716.495
869.7768, 5449.971
870.2589, 5246.083
870.7410, 5062.663
871.2231, 4893.371
871.7053, 4727.517
872.1874, 4532.568
872.6695, 4358.620
873.1516, 4281.117
873.6337, 4266.638
874.1158, 4222.126
874.5980, 4111.745
875.0801, 3973.834
875.5622, 3826.578
876.0443, 3683.228
876.5264, 3565.823
877.0085, 3469.193
877.4907, 3373.345
877.9728, 3274.426
878.4549, 3188.784
878.9370, 3131.830
879.4191, 3071.970
879.9012, 3051.789
880.3834, 3007.137
880.8655, 2986.496
881.3476, 2994.973
881.8297, 2961.400
882.3118, 2840.994
882.7939, 2678.306
883.2761, 2548.838
883.7582, 2452.242
884.2403, 2395.371
884.7224, 2393.676
885.2045, 2380.059
885.6866, 2329.039
886.1688, 2268.075
886.6509, 2210.277
887.1330, 2162.808
887.6151, 2192.764
888.0972, 2427.990
888.5793, 2522.360
889.0615, 2327.877
889.5436, 2127.368
890.0257, 2042.119
890.5078, 2039.692
890.9899, 2080.594
891.4720, 2176.787
891.9542, 2222.190
892.4363, 2172.286
892.9184, 2099.265
893.4005, 2000.900
893.8826, 1915.823
894.3647, 1893.478
894.8469, 1923.481
895.3290, 1945.231
895.8111, 1930.751
896.2932, 1915.897
896.7753, 1929.913
897.2574, 1946.171
897.7396, 1935.378
898.2217, 1905.940
898.7038, 1875.293
899.1859, 1850.130
899.6680, 1842.491
900.1501, 1878.273
900.6323, 1924.440
901.1144, 1941.721
901.5965, 1934.461
902.0786, 1902.193
902.5607, 1852.240
903.0428, 1815.768
903.5250, 1810.385
904.0071, 1837.175
904.4892, 1926.132
904.9713, 2047.516
905.4534, 2074.003
905.9355, 2010.058
906.4177, 1976.190
906.8998, 2017.666
907.3819, 2099.086
907.8640, 2190.300
908.3461, 2280.913
908.8282, 2306.336
909.3104, 2261.661
909.7925, 2247.116
910.2746, 2288.440
910.7567, 2308.694
911.2388, 2250.543
911.7209, 2153.411
912.2031, 2111.662
912.6852, 2143.033
913.1673, 2119.640
913.6494, 2002.188
914.1315, 1931.763
914.6136, 1976.464
915.0958, 2052.375
915.5779, 2071.824
916.0600, 2041.765
916.5421, 2035.668
917.0242, 2099.813
917.5063, 2108.889
917.9885, 1991.192
918.4706, 1888.726
918.9527, 1880.880
919.4348, 1924.316
919.9169, 1956.204
920.3990, 1975.629
920.8812, 1971.484
921.3633, 1896.013
921.8455, 1856.615
922.3276, 1909.689
922.8097, 1993.350
923.2918, 2069.441
923.7739, 2128.233
924.2560, 2154.495
924.7382, 2133.636
925.2203, 2108.990
925.7024, 2072.309
926.1845, 2062.099
926.6666, 2121.927
927.1487, 2216.821
927.6309, 2317.486
928.1130, 2407.032
928.5951, 2421.774
929.0772, 2252.105
929.5593, 2096.570
930.0414, 2139.116
930.5236, 2241.514
931.0057, 2229.805
931.4878, 2128.515
931.9699, 2064.806
932.4520, 2087.825
932.9341, 2093.392
933.4163, 1940.154
933.8984, 1761.804
934.3805, 1761.768
934.8626, 1858.314
935.3447, 1860.776
935.8268, 1749.323
936.3090, 1639.743
936.7911, 1600.054
937.2732, 1611.573
937.7553, 1684.812
938.2374, 1777.146
938.7195, 1771.914
939.2017, 1685.097
939.6838, 1610.871
940.1659, 1582.592
940.6480, 1591.960
941.1301, 1643.036
941.6122, 1709.641
942.0944, 1721.847
942.5765, 1688.577
943.0586, 1657.883
943.5407, 1636.711
944.0228, 1630.497
944.5049, 1644.183
944.9871, 1653.690
945.4692, 1597.327
945.9513, 1496.350
946.4334, 1570.082
946.9155, 1824.393
947.3976, 1940.259
947.8798, 1828.051
948.3619, 1694.021
948.8440, 1695.525
949.3261, 1789.438
949.8082, 1868.701
950.2903, 1934.213
950.7725, 1973.066
951.2546, 1981.953
951.7367, 1975.861
952.2188, 1953.435
952.7009, 1937.024
953.1830, 1951.729
953.6652, 1994.450
954.1473, 2042.765
954.6294, 2096.614
955.1115, 2156.108
955.5936, 2220.021
956.0757, 2290.886
956.5579, 2359.813
957.0400, 2451.037
957.5221, 2614.136
958.0042, 2858.918
958.4863, 3043.529
958.9684, 3138.436
959.4506, 3236.601
959.9327, 3338.778
960.4148, 3473.018
960.8969, 3681.467
961.3790, 3927.547
961.8611, 4102.208
962.3433, 4152.401
962.8254, 4299.610
963.3075, 4637.846
963.7896, 4935.138
964.2717, 5120.618
964.7538, 5244.012
965.2360, 5346.887
965.7181, 5426.256
966.2002, 5464.160
966.6823, 5481.792
967.1644, 5422.445
967.6465, 5253.959
968.1287, 5044.574
968.6108, 4795.205
969.0929, 4536.354
969.5750, 4311.071
970.0571, 4119.481
970.5392, 3901.509
971.0214, 3587.491
971.5035, 3340.593
971.9856, 3230.955
972.4677, 3149.685
972.9498, 3039.437
973.4319, 2911.118
973.9141, 2781.952
974.3962, 2651.635
974.8783, 2548.902
975.3604, 2495.429
975.8425, 2448.190
976.3246, 2396.382
976.8068, 2343.822
977.2889, 2296.137
977.7710, 2249.745
978.2531, 2195.370
978.7352, 2129.971
979.2173, 2062.910
979.6995, 1994.948
980.1816, 1927.782
980.6637, 1837.916
981.1458, 1767.793
981.6279, 1786.313
982.1100, 1866.792
982.5922, 1890.756
983.0743, 1797.296
983.5564, 1725.687
984.0385, 1770.064
984.5206, 1796.712
985.0027, 1691.640
985.4849, 1543.399
985.9670, 1457.510
986.4491, 1446.355
986.9312, 1486.663
987.4133, 1623.250
987.8954, 1721.613
988.3776, 1719.038
988.8597, 1668.709
989.3418, 1575.770
989.8239, 1477.427
990.3060, 1435.375
990.7881, 1455.413
991.2703, 1462.615
991.7524, 1404.005
992.2345, 1356.620
992.7166, 1354.253
993.1987, 1378.920
993.6808, 1431.731
994.1630, 1493.827
994.6451, 1540.218
995.1272, 1565.062
995.6093, 1551.177
996.0914, 1452.259
996.5735, 1359.990
997.0557, 1317.754
997.5378, 1309.381
998.0199, 1334.018
998.5020, 1374.488
998.9841, 1399.561
999.4662, 1402.606
999.9484, 1375.718
1000.430, 1260.297
1000.913, 1177.460
1001.395, 1227.006
1001.877, 1327.774
1002.359, 1410.353
1002.841, 1457.756
1003.323, 1442.179
1003.805, 1326.893
1004.287, 1272.347
1004.770, 1452.228
1005.252, 1610.297
1005.734, 1532.929
1006.216, 1366.175
1006.698, 1277.745
1007.180, 1282.160
1007.662, 1333.892
1008.144, 1451.158
1008.626, 1517.622
1009.109, 1414.148
1009.591, 1309.792
1010.073, 1343.077
1010.555, 1434.279
1011.037, 1481.554
1011.519, 1471.374
1012.001, 1426.395
1012.483, 1319.760
1012.966, 1251.160
1013.448, 1297.894
1013.930, 1361.915
1014.412, 1363.300
1014.894, 1343.018
1015.376, 1383.766
1015.858, 1482.508
1016.340, 1521.569
1016.822, 1391.044
1017.305, 1305.055
1017.787, 1415.915
1018.269, 1528.760
1018.751, 1460.407
1019.233, 1322.706
1019.715, 1324.166
1020.197, 1480.354
1020.679, 1560.110
1021.161, 1410.707
1021.644, 1283.136
1022.126, 1277.958
1022.608, 1306.106
1023.090, 1318.265
1023.572, 1314.803
1024.054, 1297.526
1024.536, 1267.392
1025.018, 1256.889
1025.500, 1293.155
1025.983, 1323.986
1026.465, 1334.776
1026.947, 1333.943
1027.429, 1317.013
1027.911, 1296.775
1028.393, 1297.438
1028.875, 1323.270
1029.357, 1341.270
1029.840, 1343.377
1030.322, 1339.917
1030.804, 1348.610
1031.286, 1337.319
1031.768, 1253.618
1032.250, 1146.501
1032.732, 1109.142
1033.214, 1155.386
1033.697, 1212.544
1034.179, 1289.684
1034.661, 1353.837
1035.143, 1425.407
1035.625, 1455.042
1036.107, 1373.432
1036.589, 1240.175
1037.071, 1178.060
1037.553, 1207.117
1038.036, 1213.790
1038.518, 1138.766
1039.000, 1129.435
1039.482, 1289.377
1039.964, 1428.603
1040.446, 1386.708
1040.928, 1494.287
1041.410, 1534.627
1041.892, 1494.563
1042.375, 1574.615
1042.857, 1452.637
1043.339, 1348.444
1043.821, 1310.190
1044.303, 1280.244
1044.785, 1205.995
1045.267, 1129.651
1045.749, 1150.740
1046.232, 1290.991
1046.714, 1321.699
1047.196, 1184.295
1047.678, 1107.301
1048.160, 1152.220
1048.642, 1220.686
1049.124, 1258.090
1049.606, 1266.601
1050.089, 1245.128
1050.571, 1191.497
1051.053, 1163.542
1051.535, 1163.136
1052.017, 1183.424
1052.499, 1230.410
1052.981, 1259.639
1053.463, 1235.859
1053.945, 1201.125
1054.427, 1245.023
1054.910, 1218.025
1055.392, 1205.818
1055.874, 1239.362
1056.356, 1188.442
1056.838, 1242.998
1057.320, 1286.133
1057.802, 1246.390
1058.284, 1178.941
1058.767, 1174.452
1059.249, 1149.748
1059.731, 1148.719
1060.213, 1168.989
1060.695, 1180.766
1061.177, 1255.423
1061.659, 1289.968
1062.141, 1227.569
1062.624, 1141.867
1063.106, 1132.555
1063.588, 1169.707
1064.070, 1171.897
1064.552, 1152.949
1065.034, 1165.148
1065.516, 1207.294
1065.998, 1230.514
1066.480, 1212.290
1066.963, 1181.784
1067.445, 1150.527
1067.927, 1140.460
1068.409, 1221.265
1068.891, 1332.157
1069.373, 1344.710
1069.855, 1272.256
1070.337, 1203.054
1070.819, 1171.531
1071.302, 1184.357
1071.784, 1293.596
1072.266, 1400.109
1072.748, 1406.099
1073.230, 1356.852
1073.712, 1288.943
1074.194, 1221.594
1074.676, 1180.974
1075.159, 1174.199
1075.641, 1180.158
1076.123, 1194.459
1076.605, 1209.798
1077.087, 1223.209
1077.569, 1235.089
1078.051, 1251.662
1078.533, 1264.633
1079.016, 1249.896
1079.498, 1205.495
1079.980, 1191.548
1080.462, 1253.727
1080.944, 1308.171
1081.426, 1350.227
1081.908, 1357.323
1082.390, 1271.474
1082.872, 1166.196
1083.354, 1158.715
1083.837, 1252.228
1084.319, 1318.923
1084.801, 1332.530
1085.283, 1348.567
1085.765, 1393.461
1086.247, 1408.179
1086.729, 1345.749
1087.212, 1264.461
1087.694, 1232.147
1088.176, 1241.796
1088.658, 1242.964
1089.140, 1242.154
1089.622, 1201.299
1090.104, 1081.816
1090.586, 1044.351
1091.068, 1171.542
1091.551, 1328.256
1092.033, 1389.438
1092.515, 1369.461
1092.997, 1299.039
1093.479, 1175.412
1093.961, 1102.488
1094.443, 1085.548
1094.925, 1065.001
1095.407, 1022.230
1095.890, 1027.485
1096.372, 1144.565
1096.854, 1295.645
1097.336, 1322.219
1097.818, 1257.328
1098.300, 1232.120
1098.782, 1236.787
1099.264, 1197.922
1099.747, 1112.041
1100.229, 1070.408
1100.711, 1128.723
1101.193, 1205.975
1101.675, 1195.593
1102.157, 1242.439
1102.639, 1189.134
1103.121, 1253.152
1103.604, 1258.539
1104.086, 1213.566
1104.568, 1197.189
1105.050, 1240.477
1105.532, 1262.955
1106.014, 1159.400
1106.496, 1073.764
1106.978, 1129.319
1107.460, 1240.496
1107.943, 1363.830
1108.425, 1452.908
1108.907, 1403.472
1109.389, 1195.821
1109.871, 1065.483
1110.353, 1148.677
1110.835, 1228.005
1111.317, 1252.850
1111.799, 1241.892
1112.282, 1160.202
1112.764, 1076.475
1113.246, 1117.857
1113.728, 1281.177
1114.210, 1336.269
1114.692, 1214.824
1115.174, 1116.476
1115.656, 1034.672
1116.139, 1004.727
1116.621, 1053.583
1117.103, 1136.116
1117.585, 1212.355
1118.067, 1281.349
1118.549, 1347.169
1119.031, 1417.292
1119.513, 1404.172
1119.995, 1295.709
1120.478, 1210.291
1120.960, 1179.677
1121.442, 1179.767
1121.924, 1197.770
1122.406, 1213.194
1122.888, 1176.370
1123.370, 1107.005
1123.852, 1085.557
1124.334, 1103.157
1124.817, 1120.144
1125.299, 1132.069
1125.781, 1165.167
1126.263, 1232.695
1126.745, 1285.011
1127.227, 1245.251
1127.709, 1188.730
1128.191, 1219.463
1128.674, 1286.400
1129.156, 1323.500
1129.638, 1328.078
1130.120, 1303.720
1130.602, 1256.183
1131.084, 1242.901
1131.566, 1352.953
1132.048, 1418.585
1132.531, 1305.967
1133.013, 1180.838
1133.495, 1166.752
1133.977, 1208.134
1134.459, 1224.836
1134.941, 1212.994
1135.423, 1203.652
1135.905, 1186.398
1136.387, 1198.348
1136.870, 1277.866
1137.352, 1327.012
1137.834, 1302.358
1138.316, 1259.052
1138.798, 1242.362
1139.280, 1240.794
1139.762, 1223.162
1140.244, 1187.665
1140.726, 1146.143
1141.209, 1091.052
1141.691, 1117.528
1142.173, 1254.531
1142.655, 1332.485
1143.137, 1249.457
1143.619, 1117.262
1144.101, 1090.370
1144.583, 1131.364
1145.066, 1132.269
1145.548, 1109.072
1146.030, 1116.604
1146.512, 1153.851
1146.994, 1193.370
1147.476, 1225.008
1147.958, 1249.527
1148.440, 1269.087
1148.922, 1278.288
1149.405, 1268.125
1149.887, 1248.457
1150.369, 1228.131
1150.851, 1206.651
1151.333, 1178.851
1151.815, 1147.169
1152.297, 1128.012
1152.779, 1137.023
1153.261, 1123.624
1153.744, 1020.511
1154.226, 961.3803
1154.708, 1048.622
1155.190, 1153.379
1155.672, 1159.078
1156.154, 1200.932
1156.636, 1206.275
1157.118, 1166.656
1157.601, 1156.957
1158.083, 1052.173
1158.565, 975.6940
1159.047, 934.5613
1159.529, 968.7780
1160.011, 1116.505
1160.493, 1258.341
1160.975, 1250.510
1161.458, 1140.251
1161.940, 1048.126
1162.422, 983.6651
1162.904, 1033.377
1163.386, 1170.418
1163.868, 1225.481
1164.350, 1167.573
1164.832, 1129.238
1165.314, 1197.776
1165.797, 1279.871
1166.279, 1263.536
1166.761, 1223.234
1167.243, 1262.397
1167.725, 1318.780
1168.207, 1292.026
1168.689, 1202.299
1169.171, 1127.823
1169.653, 1087.273
1170.136, 1080.742
1170.618, 1159.435
1171.100, 1199.039
1171.582, 1101.426
1172.064, 1023.290
1172.546, 1086.734
1173.028, 1198.464
1173.510, 1253.454
1173.993, 1254.727
1174.475, 1213.569
1174.957, 1238.667
1175.439, 1244.328
1175.921, 1198.974
1176.403, 1252.114
1176.885, 1175.744
1177.367, 1093.957
1177.849, 1095.765
1178.332, 1056.358
1178.814, 1115.440
1179.296, 1068.661
1179.778, 1085.492
1180.260, 1140.870
1180.742, 1147.424
1181.224, 1110.290
1181.706, 1099.293
1182.188, 1136.669
1182.671, 1173.340
1183.153, 1179.002
1183.635, 1165.632
1184.117, 1111.853
1184.599, 1073.657
1185.081, 1138.152
1185.563, 1224.604
1186.045, 1197.960
1186.528, 1080.189
1187.010, 1034.403
1187.492, 1125.642
1187.974, 1169.880
1188.456, 1091.243
1188.938, 1071.960
1189.420, 1189.068
1189.902, 1296.578
1190.385, 1299.657
1190.867, 1258.649
1191.349, 1268.991
1191.831, 1318.169
1192.313, 1322.799
1192.795, 1284.016
1193.277, 1215.992
1193.759, 1125.723
1194.241, 1081.172
1194.724, 1099.494
1195.206, 1115.872
1195.688, 1078.208
1196.170, 1045.010
1196.652, 1109.910
1197.134, 1198.586
1197.616, 1227.992
1198.098, 1209.584
1198.580, 1126.080
1199.063, 1022.610
1199.545, 1025.057
1200.027, 1169.070
1200.509, 1284.939
1200.991, 1330.070
1201.473, 1325.846
1201.955, 1229.590
1202.437, 1143.477
1202.920, 1111.750
1203.402, 1118.353
1203.884, 1164.022
1204.366, 1226.100
1204.848, 1200.823
1205.330, 1228.695
1205.812, 1239.623
1206.294, 1189.047
1206.776, 1232.112
1207.259, 1145.491
1207.741, 1091.873
1208.223, 1159.933
1208.705, 1246.894
1209.187, 1222.896
1209.669, 1282.101
1210.151, 1207.032
1210.633, 1280.636
1211.115, 1240.911
1211.598, 1142.277
1212.080, 1119.642
1212.562, 1187.295
1213.044, 1267.538
1213.526, 1355.497
1214.008, 1386.757
1214.490, 1330.253
1214.972, 1226.742
1215.455, 988.7767
1215.937, 824.5851
1216.419, 937.3052
1216.901, 1156.422
1217.383, 1177.095
1217.865, 1019.095
1218.347, 998.0171
1218.829, 1129.383
1219.312, 1203.382
1219.794, 1203.685
1220.276, 1217.115
1220.758, 1269.562
1221.240, 1301.033
1221.722, 1264.491
1222.204, 1206.887
1222.686, 1188.737
1223.168, 1187.545
1223.651, 1167.845
1224.133, 1145.795
1224.615, 1148.796
1225.097, 1171.792
1225.579, 1192.004
1226.061, 1205.145
1226.543, 1239.097
1227.025, 1364.792
1227.507, 1414.423
1227.990, 1280.863
1228.472, 1170.657
1228.954, 1176.327
1229.436, 1201.644
1229.918, 1158.086
1230.400, 1092.499
1230.882, 1133.488
1231.364, 1064.194
1231.847, 1227.026
1232.329, 1029.172
1232.811, 951.3572
1233.293, 1016.781
1233.775, 1113.788
1234.257, 1197.262
1234.739, 1247.161
1235.221, 1242.601
1235.703, 1213.910
1236.186, 1181.415
1236.668, 1149.284
1237.150, 1113.683
1237.632, 1087.231
1238.114, 1088.993
1238.596, 1112.653
1239.078, 1142.739
1239.560, 1180.761
1240.042, 1190.407
1240.525, 1142.320
1241.007, 1122.464
1241.489, 1137.975
1241.971, 1191.624
1242.453, 1305.608
1242.935, 1372.894
1243.417, 1286.896
1243.899, 1133.356
1244.382, 1088.697
1244.864, 1127.297
1245.346, 1188.063
1245.828, 1248.594
1246.310, 1227.955
1246.792, 1145.812
1247.274, 1101.650
1247.756, 1123.395
1248.239, 1153.225
1248.721, 1164.312
1249.203, 1168.683
1249.685, 1157.276
1250.167, 1158.490
1250.649, 1215.760
1251.131, 1266.433
1251.613, 1233.832
1252.095, 1163.910
1252.578, 1154.353
1253.060, 1205.087
1253.542, 1252.129
1254.024, 1297.839
1254.506, 1294.786
1254.988, 1240.544
1255.470, 1229.200
1255.952, 1287.079
1256.434, 1318.262
1256.917, 1248.467
1257.399, 1159.960
1257.881, 1145.839
1258.363, 1162.823
1258.845, 1172.272
1259.327, 1176.616
1259.809, 1173.888
1260.291, 1172.601
1260.774, 1193.261
1261.256, 1237.053
1261.738, 1266.721
1262.220, 1266.013
1262.702, 1275.844
1263.184, 1308.552
1263.666, 1320.115
1264.148, 1297.805
1264.630, 1255.896
1265.113, 1200.551
1265.595, 1144.184
1266.077, 1099.664
1266.559, 1072.197
1267.041, 1087.978
1267.523, 1068.624
1268.005, 1119.418
1268.487, 1091.934
1268.969, 1105.255
1269.452, 1153.270
1269.934, 1140.987
1270.416, 1011.486
1270.898, 944.3513
1271.380, 1037.093
1271.862, 1151.675
1272.344, 1315.575
1272.826, 1396.426
1273.309, 1282.491
1273.791, 1136.586
1274.273, 1148.262
1274.755, 1252.734
1275.237, 1235.774
1275.719, 1116.469
1276.201, 1066.425
1276.683, 1082.093
1277.166, 1155.622
1277.648, 1263.226
1278.130, 1310.457
1278.612, 1266.679
1279.094, 1207.434
1279.576, 1159.450
1280.058, 1148.875
1280.540, 1251.391
1281.022, 1322.719
1281.505, 1235.640
1281.987, 1113.421
1282.469, 1052.934
##END=



