##NAMES=Clinoclase
##RRUFFID=R070092
##IDEAL CHEMISTRY=Cu^2+^_3_As^5+^O_4_(OH)_3_
##LOCALITY=Majuba Hill, Antelope District, Pershing County, Nevada, USA
##OWNER=RRUFF
##SOURCE=James Shigley
##DESCRIPTION=Rich area of dark blue-green prismatic crystals
##STATUS=The identification of this mineral is confirmed by single-crystal X-ray diffraction and chemical analysis.
##URL=rruff.info/R070092
##MEASURED CHEMISTRY=(Cu_2.97_Al_0.02_[box]_0.01_)_Σ=3_(As_0.99_P_0.01_)_Σ=1_O_4_(OH)_3_ ; trace amounts of Fe and Zn; OH estimated by difference and charge balance
125.5927, 1303.880
126.0748, 1383.492
126.5569, 1464.257
127.0390, 1545.949
127.5211, 1625.237
128.0032, 1704.052
128.4854, 1791.985
128.9675, 1894.501
129.4496, 2007.796
129.9317, 2118.657
130.4138, 2225.387
130.8959, 2338.646
131.3781, 2471.764
131.8602, 2624.648
132.3423, 2786.023
132.8244, 2943.376
133.3065, 3100.354
133.7886, 3283.300
134.2708, 3497.570
134.7529, 3733.455
135.2350, 3974.805
135.7171, 4220.053
136.1992, 4468.033
136.6813, 4720.980
137.1635, 4980.856
137.6456, 5221.710
138.1277, 5445.676
138.6098, 5647.001
139.0919, 5815.492
139.5740, 5962.863
140.0562, 6054.978
140.5383, 6075.289
141.0204, 6041.184
141.5025, 5883.258
141.9846, 5561.816
142.4667, 5079.031
142.9489, 4597.870
143.4310, 4101.233
143.9131, 3625.122
144.3952, 3214.456
144.8773, 2872.424
145.3594, 2592.409
145.8416, 2375.788
146.3237, 2233.240
146.8058, 2119.538
147.2879, 2043.410
147.7700, 1993.154
148.2522, 1948.261
148.7343, 1907.539
149.2164, 1874.361
149.6985, 1849.762
150.1806, 1836.269
150.6627, 1827.413
151.1449, 1821.528
151.6270, 1820.193
152.1091, 1827.362
152.5912, 1852.319
153.0733, 1879.351
153.5554, 1901.319
154.0376, 1903.658
154.5197, 1917.619
155.0018, 1955.461
155.4839, 2011.911
155.9660, 2059.321
156.4481, 2082.509
156.9303, 2100.367
157.4124, 2126.137
157.8945, 2162.136
158.3766, 2206.865
158.8587, 2261.331
159.3408, 2325.702
159.8230, 2394.170
160.3051, 2469.079
160.7872, 2545.379
161.2693, 2618.954
161.7514, 2701.512
162.2335, 2770.488
162.7157, 2817.016
163.1978, 2840.662
163.6799, 2840.473
164.1620, 2809.678
164.6441, 2755.475
165.1262, 2689.226
165.6084, 2596.144
166.0905, 2504.594
166.5726, 2433.043
167.0547, 2383.804
167.5368, 2353.332
168.0189, 2345.836
168.5011, 2355.964
168.9832, 2371.617
169.4653, 2381.157
169.9474, 2395.482
170.4295, 2428.056
170.9116, 2487.572
171.3938, 2550.839
171.8759, 2595.934
172.3580, 2626.749
172.8401, 2659.073
173.3222, 2700.671
173.8043, 2749.928
174.2865, 2804.552
174.7686, 2863.035
175.2507, 2927.080
175.7328, 3001.890
176.2149, 3085.576
176.6970, 3169.148
177.1792, 3248.656
177.6613, 3321.978
178.1434, 3385.337
178.6255, 3434.704
179.1076, 3475.512
179.5897, 3516.026
180.0719, 3556.415
180.5540, 3596.183
181.0361, 3627.692
181.5182, 3656.535
182.0003, 3703.740
182.4824, 3784.907
182.9646, 3887.092
183.4467, 3978.680
183.9288, 4059.546
184.4109, 4138.038
184.8930, 4227.948
185.3751, 4326.501
185.8573, 4418.785
186.3394, 4511.056
186.8215, 4594.821
187.3036, 4632.250
187.7857, 4620.568
188.2678, 4574.250
188.7500, 4511.792
189.2321, 4432.017
189.7142, 4331.361
190.1963, 4196.071
190.6784, 4031.999
191.1605, 3880.797
191.6427, 3748.374
192.1248, 3619.555
192.6069, 3469.215
193.0890, 3296.412
193.5711, 3120.816
194.0532, 2950.631
194.5354, 2785.937
195.0175, 2627.138
195.4996, 2468.927
195.9817, 2321.171
196.4638, 2207.139
196.9459, 2129.977
197.4281, 2066.136
197.9102, 2000.670
198.3923, 1932.948
198.8744, 1876.952
199.3565, 1834.906
199.8386, 1804.864
200.3208, 1781.926
200.8029, 1766.550
201.2850, 1756.528
201.7671, 1752.550
202.2492, 1755.791
202.7313, 1754.410
203.2135, 1744.335
203.6956, 1728.870
204.1777, 1723.329
204.6598, 1730.078
205.1419, 1740.567
205.6240, 1747.744
206.1062, 1750.531
206.5883, 1755.127
207.0704, 1763.291
207.5525, 1774.359
208.0346, 1782.720
208.5167, 1787.083
208.9989, 1791.214
209.4810, 1798.114
209.9631, 1807.505
210.4452, 1820.508
210.9273, 1837.445
211.4094, 1858.293
211.8916, 1883.279
212.3737, 1914.736
212.8558, 1946.974
213.3379, 1974.255
213.8200, 1994.563
214.3021, 2014.747
214.7843, 2035.341
215.2664, 2056.311
215.7485, 2081.933
216.2306, 2115.052
216.7127, 2149.568
217.1948, 2178.520
217.6770, 2199.921
218.1591, 2220.532
218.6412, 2243.422
219.1233, 2269.296
219.6054, 2288.609
220.0875, 2299.512
220.5697, 2305.525
221.0518, 2311.431
221.5339, 2317.688
222.0160, 2322.630
222.4981, 2323.708
222.9802, 2318.252
223.4624, 2325.025
223.9445, 2348.653
224.4266, 2381.098
224.9087, 2409.457
225.3908, 2430.145
225.8729, 2453.246
226.3551, 2481.869
226.8372, 2517.198
227.3193, 2554.154
227.8014, 2592.665
228.2835, 2633.205
228.7657, 2677.144
229.2478, 2727.551
229.7299, 2777.288
230.2120, 2822.188
230.6941, 2859.238
231.1762, 2905.031
231.6584, 2967.749
232.1405, 3035.426
232.6226, 3082.617
233.1047, 3099.615
233.5868, 3111.195
234.0689, 3125.481
234.5511, 3142.810
235.0332, 3162.305
235.5153, 3185.341
235.9974, 3210.066
236.4795, 3232.360
236.9616, 3253.449
237.4438, 3270.315
237.9259, 3280.943
238.4080, 3282.449
238.8901, 3284.625
239.3722, 3282.616
239.8543, 3282.778
240.3365, 3300.029
240.8186, 3337.506
241.3007, 3387.552
241.7828, 3448.930
242.2649, 3527.080
242.7470, 3601.399
243.2292, 3666.239
243.7113, 3728.755
244.1934, 3808.483
244.6755, 3915.758
245.1576, 4025.093
245.6397, 4124.261
246.1219, 4201.045
246.6040, 4295.602
247.0861, 4423.785
247.5682, 4565.934
248.0503, 4669.044
248.5324, 4721.757
249.0146, 4751.188
249.4967, 4771.717
249.9788, 4798.223
250.4609, 4780.643
250.9430, 4712.886
251.4251, 4602.741
251.9073, 4464.190
252.3894, 4279.815
252.8715, 4094.627
253.3536, 3926.477
253.8357, 3774.645
254.3178, 3644.721
254.8000, 3535.145
255.2821, 3446.875
255.7642, 3386.266
256.2463, 3361.942
256.7284, 3349.542
257.2105, 3337.222
257.6927, 3320.483
258.1748, 3317.389
258.6569, 3335.725
259.1390, 3365.017
259.6211, 3377.722
260.1032, 3373.960
260.5854, 3353.630
261.0675, 3316.370
261.5496, 3261.174
262.0317, 3189.859
262.5138, 3097.609
262.9959, 2992.157
263.4781, 2890.392
263.9602, 2794.283
264.4423, 2699.444
264.9244, 2603.548
265.4065, 2502.707
265.8886, 2410.676
266.3708, 2326.535
266.8529, 2252.957
267.3350, 2203.397
267.8171, 2186.704
268.2992, 2169.646
268.7813, 2132.372
269.2635, 2066.652
269.7456, 2020.420
270.2277, 2001.040
270.7098, 1996.238
271.1919, 1978.735
271.6740, 1943.977
272.1562, 1912.313
272.6383, 1894.040
273.1204, 1890.532
273.6025, 1891.482
274.0846, 1898.955
274.5667, 1908.209
275.0489, 1909.203
275.5310, 1900.240
276.0131, 1891.000
276.4952, 1883.639
276.9773, 1877.600
277.4594, 1884.528
277.9416, 1909.428
278.4237, 1939.833
278.9058, 1951.882
279.3879, 1942.912
279.8700, 1936.233
280.3521, 1944.350
280.8343, 1967.271
281.3164, 1985.503
281.7985, 1996.739
282.2806, 2007.745
282.7627, 2030.738
283.2448, 2066.352
283.7270, 2102.018
284.2091, 2130.597
284.6912, 2153.077
285.1733, 2181.026
285.6554, 2214.773
286.1375, 2252.349
286.6197, 2291.014
287.1018, 2330.891
287.5839, 2371.179
288.0660, 2412.005
288.5481, 2453.087
289.0302, 2492.096
289.5124, 2527.892
289.9945, 2565.370
290.4766, 2611.353
290.9587, 2664.921
291.4408, 2718.196
291.9229, 2763.412
292.4051, 2805.820
292.8872, 2862.336
293.3693, 2934.449
293.8514, 3010.489
294.3335, 3079.841
294.8156, 3143.140
295.2978, 3205.940
295.7799, 3270.046
296.2620, 3334.445
296.7441, 3394.830
297.2262, 3450.427
297.7083, 3509.615
298.1905, 3578.895
298.6726, 3656.903
299.1547, 3739.307
299.6368, 3823.822
300.1189, 3911.862
300.6010, 4004.131
301.0832, 4101.324
301.5653, 4201.283
302.0474, 4305.790
302.5295, 4411.264
303.0116, 4513.576
303.4937, 4615.489
303.9759, 4708.579
304.4580, 4783.022
304.9401, 4839.704
305.4222, 4879.951
305.9043, 4909.549
306.3864, 4922.310
306.8686, 4910.981
307.3507, 4873.729
307.8328, 4811.643
308.3149, 4718.520
308.7970, 4598.343
309.2791, 4468.117
309.7613, 4329.110
310.2434, 4187.796
310.7255, 4049.441
311.2076, 3921.185
311.6897, 3786.589
312.1718, 3631.058
312.6540, 3461.097
313.1361, 3296.506
313.6182, 3140.143
314.1003, 2995.094
314.5824, 2860.756
315.0645, 2735.279
315.5467, 2625.219
316.0288, 2537.675
316.5109, 2467.028
316.9930, 2400.286
317.4751, 2333.223
317.9572, 2268.149
318.4394, 2205.875
318.9215, 2144.037
319.4036, 2091.164
319.8857, 2055.442
320.3678, 2029.324
320.8499, 2000.605
321.3321, 1961.866
321.8142, 1923.996
322.2963, 1890.519
322.7784, 1860.765
323.2605, 1838.221
323.7426, 1828.316
324.2248, 1824.024
324.7069, 1817.109
325.1890, 1800.663
325.6711, 1787.450
326.1532, 1780.483
326.6353, 1780.425
327.1175, 1783.417
327.5996, 1796.596
328.0817, 1809.099
328.5638, 1811.014
329.0459, 1788.518
329.5280, 1772.892
330.0102, 1769.177
330.4923, 1777.309
330.9744, 1789.888
331.4565, 1810.623
331.9386, 1832.344
332.4207, 1849.234
332.9029, 1856.207
333.3850, 1868.143
333.8671, 1888.433
334.3492, 1915.111
334.8313, 1939.483
335.3134, 1960.834
335.7956, 1981.154
336.2777, 2002.035
336.7598, 2024.152
337.2419, 2043.963
337.7240, 2059.037
338.2061, 2073.185
338.6883, 2098.459
339.1704, 2138.746
339.6525, 2177.342
340.1346, 2204.419
340.6167, 2218.829
341.0988, 2236.610
341.5810, 2259.524
342.0631, 2283.794
342.5452, 2300.854
343.0273, 2310.543
343.5094, 2321.028
343.9915, 2336.428
344.4737, 2356.063
344.9558, 2378.548
345.4379, 2405.642
345.9200, 2427.664
346.4021, 2428.000
346.8842, 2409.931
347.3664, 2394.925
347.8485, 2392.732
348.3306, 2398.651
348.8127, 2404.027
349.2948, 2409.072
349.7769, 2408.242
350.2591, 2391.864
350.7412, 2365.454
351.2233, 2343.302
351.7054, 2333.648
352.1876, 2326.757
352.6697, 2310.153
353.1518, 2284.542
353.6339, 2256.154
354.1160, 2225.262
354.5981, 2195.783
355.0803, 2173.513
355.5624, 2161.599
356.0445, 2153.641
356.5266, 2148.809
357.0087, 2144.645
357.4908, 2133.589
357.9730, 2104.487
358.4551, 2071.185
358.9372, 2043.580
359.4193, 2023.101
359.9014, 2008.873
360.3835, 2010.663
360.8657, 2017.271
361.3478, 2009.474
361.8299, 1961.125
362.3120, 1912.937
362.7941, 1884.977
363.2762, 1882.211
363.7584, 1880.065
364.2405, 1878.332
364.7226, 1871.994
365.2047, 1855.685
365.6868, 1808.013
366.1689, 1770.948
366.6511, 1759.308
367.1332, 1774.142
367.6153, 1782.043
368.0974, 1774.170
368.5795, 1763.487
369.0616, 1758.541
369.5438, 1762.366
370.0259, 1767.902
370.5080, 1778.364
370.9901, 1791.092
371.4722, 1789.402
371.9543, 1755.267
372.4365, 1731.276
372.9186, 1745.876
373.4007, 1823.941
373.8828, 1868.292
374.3649, 1865.273
374.8470, 1834.950
375.3292, 1817.732
375.8113, 1815.664
376.2934, 1820.171
376.7755, 1827.035
377.2576, 1836.059
377.7397, 1857.358
378.2219, 1894.866
378.7040, 1933.643
379.1861, 1948.462
379.6682, 1939.603
380.1503, 1939.690
380.6324, 1963.749
381.1146, 2003.637
381.5967, 2033.537
382.0788, 2052.867
382.5609, 2068.794
383.0430, 2086.542
383.5251, 2105.869
384.0073, 2126.984
384.4894, 2151.512
384.9715, 2175.391
385.4536, 2191.465
385.9357, 2200.626
386.4178, 2208.645
386.9000, 2222.023
387.3821, 2235.264
387.8642, 2240.958
388.3463, 2237.014
388.8284, 2228.249
389.3105, 2215.038
389.7927, 2199.830
390.2748, 2187.333
390.7569, 2189.106
391.2390, 2187.579
391.7211, 2166.228
392.2032, 2121.542
392.6854, 2083.974
393.1675, 2074.422
393.6496, 2076.128
394.1317, 2071.259
394.6138, 2050.223
395.0959, 2026.671
395.5781, 2004.906
396.0602, 1984.691
396.5423, 1961.949
397.0244, 1930.871
397.5065, 1900.378
397.9886, 1875.972
398.4708, 1863.014
398.9529, 1849.694
399.4350, 1836.483
399.9171, 1822.849
400.3992, 1807.087
400.8813, 1786.567
401.3635, 1767.306
401.8456, 1751.139
402.3277, 1737.940
402.8098, 1729.654
403.2919, 1729.302
403.7740, 1730.703
404.2562, 1723.925
404.7383, 1705.705
405.2204, 1691.160
405.7025, 1685.131
406.1846, 1686.597
406.6667, 1687.465
407.1489, 1687.776
407.6310, 1687.312
408.1131, 1684.770
408.5952, 1680.490
409.0773, 1679.348
409.5594, 1683.119
410.0416, 1689.284
410.5237, 1693.047
411.0058, 1694.672
411.4879, 1696.780
411.9700, 1699.617
412.4521, 1704.354
412.9343, 1713.682
413.4164, 1728.331
413.8985, 1745.638
414.3806, 1762.556
414.8627, 1780.186
415.3448, 1800.779
415.8270, 1833.019
416.3091, 1863.301
416.7912, 1875.114
417.2733, 1869.039
417.7554, 1868.726
418.2375, 1889.564
418.7197, 1921.143
419.2018, 1954.119
419.6839, 1985.625
420.1660, 2018.159
420.6481, 2053.652
421.1302, 2091.246
421.6124, 2125.930
422.0945, 2152.062
422.5766, 2179.404
423.0587, 2211.938
423.5408, 2249.968
424.0229, 2293.992
424.5051, 2345.852
424.9872, 2403.168
425.4693, 2462.646
425.9514, 2527.107
426.4335, 2588.140
426.9156, 2640.376
427.3978, 2683.385
427.8799, 2739.363
428.3620, 2811.958
428.8441, 2891.242
429.3262, 2969.849
429.8083, 3046.503
430.2905, 3124.491
430.7726, 3204.651
431.2547, 3285.250
431.7368, 3358.670
432.2189, 3423.536
432.7010, 3495.834
433.1832, 3589.777
433.6653, 3700.658
434.1474, 3799.326
434.6295, 3883.180
435.1116, 3964.848
435.5938, 4063.375
436.0759, 4172.801
436.5580, 4274.146
437.0401, 4358.038
437.5222, 4431.030
438.0043, 4503.257
438.4865, 4574.035
438.9686, 4637.178
439.4507, 4682.997
439.9328, 4721.384
440.4149, 4764.651
440.8970, 4823.271
441.3792, 4872.466
441.8613, 4892.398
442.3434, 4893.956
442.8255, 4900.449
443.3076, 4920.583
443.7897, 4946.764
444.2719, 4975.499
444.7540, 5005.991
445.2361, 5042.021
445.7182, 5091.065
446.2003, 5142.224
446.6824, 5185.100
447.1646, 5200.456
447.6467, 5232.721
448.1288, 5290.305
448.6109, 5369.998
449.0930, 5451.073
449.5751, 5525.771
450.0573, 5611.667
450.5394, 5721.046
451.0215, 5860.996
451.5036, 5993.320
451.9857, 6114.929
452.4678, 6233.898
452.9500, 6368.528
453.4321, 6519.376
453.9142, 6665.745
454.3963, 6798.667
454.8784, 6921.990
455.3605, 7059.465
455.8427, 7210.778
456.3248, 7353.230
456.8069, 7464.930
457.2890, 7551.248
457.7711, 7626.192
458.2532, 7697.449
458.7354, 7750.130
459.2175, 7767.364
459.6996, 7753.388
460.1817, 7720.876
460.6638, 7685.529
461.1459, 7628.682
461.6281, 7527.217
462.1102, 7376.353
462.5923, 7220.659
463.0744, 7093.451
463.5565, 6968.244
464.0386, 6816.473
464.5208, 6591.871
465.0029, 6382.350
465.4850, 6214.864
465.9671, 6082.095
466.4492, 5955.991
466.9313, 5834.901
467.4135, 5719.947
467.8956, 5610.175
468.3777, 5504.979
468.8598, 5407.640
469.3419, 5317.360
469.8240, 5236.971
470.3062, 5170.310
470.7883, 5118.890
471.2704, 5077.902
471.7525, 5047.643
472.2346, 5026.901
472.7167, 5007.272
473.1989, 4987.881
473.6810, 4976.672
474.1631, 4982.265
474.6452, 5002.255
475.1273, 5025.394
475.6094, 5051.263
476.0916, 5076.813
476.5737, 5097.813
477.0558, 5114.959
477.5379, 5131.167
478.0200, 5139.007
478.5021, 5151.724
478.9843, 5190.384
479.4664, 5253.989
479.9485, 5310.932
480.4306, 5336.971
480.9127, 5349.079
481.3948, 5363.944
481.8770, 5388.286
482.3591, 5411.660
482.8412, 5442.242
483.3233, 5469.412
483.8054, 5468.582
484.2875, 5418.937
484.7697, 5355.256
485.2518, 5287.185
485.7339, 5214.968
486.2160, 5138.994
486.6981, 5068.167
487.1802, 4986.445
487.6624, 4876.575
488.1445, 4726.865
488.6266, 4583.809
489.1087, 4455.872
489.5908, 4338.428
490.0729, 4212.360
490.5551, 4073.611
491.0372, 3948.918
491.5193, 3855.896
492.0014, 3790.658
492.4835, 3720.215
492.9656, 3642.749
493.4478, 3571.875
493.9299, 3522.068
494.4120, 3490.020
494.8941, 3465.571
495.3762, 3446.759
495.8583, 3433.278
496.3405, 3427.013
496.8226, 3426.561
497.3047, 3427.432
497.7868, 3429.332
498.2689, 3430.170
498.7510, 3425.456
499.2332, 3411.653
499.7153, 3408.428
500.1974, 3434.785
500.6795, 3470.395
501.1616, 3493.537
501.6437, 3482.963
502.1259, 3479.537
502.6080, 3490.607
503.0901, 3514.127
503.5722, 3542.625
504.0543, 3582.466
504.5364, 3618.393
505.0186, 3644.293
505.5007, 3659.778
505.9828, 3666.035
506.4649, 3658.456
506.9470, 3650.142
507.4291, 3658.158
507.9113, 3682.920
508.3934, 3712.563
508.8755, 3748.026
509.3576, 3782.450
509.8397, 3797.713
510.3218, 3795.175
510.8040, 3789.201
511.2861, 3790.605
511.7682, 3794.166
512.2503, 3792.412
512.7324, 3784.791
513.2145, 3770.788
513.6967, 3749.988
514.1788, 3722.311
514.6609, 3687.973
515.1430, 3646.320
515.6251, 3598.260
516.1072, 3540.721
516.5894, 3476.153
517.0715, 3415.667
517.5536, 3362.214
518.0357, 3312.927
518.5178, 3267.169
518.9999, 3225.923
519.4821, 3184.837
519.9642, 3147.165
520.4463, 3107.406
520.9284, 3058.097
521.4105, 2995.187
521.8926, 2935.281
522.3748, 2881.297
522.8569, 2832.309
523.3390, 2782.731
523.8211, 2731.830
524.3032, 2685.992
524.7853, 2649.318
525.2675, 2620.586
525.7496, 2598.921
526.2317, 2585.481
526.7138, 2568.858
527.1959, 2533.363
527.6780, 2487.584
528.1602, 2445.586
528.6423, 2409.856
529.1244, 2382.504
529.6065, 2370.163
530.0886, 2368.267
530.5707, 2363.632
531.0529, 2351.910
531.5350, 2335.049
532.0171, 2312.259
532.4992, 2281.671
532.9813, 2255.945
533.4634, 2235.573
533.9456, 2221.484
534.4277, 2214.085
534.9098, 2214.137
535.3919, 2220.869
535.8740, 2240.572
536.3561, 2263.790
536.8383, 2262.979
537.3204, 2230.626
537.8025, 2205.344
538.2846, 2205.198
538.7667, 2226.206
539.2488, 2244.461
539.7310, 2259.940
540.2131, 2272.349
540.6952, 2280.029
541.1773, 2284.692
541.6594, 2290.437
542.1415, 2297.410
542.6237, 2307.337
543.1058, 2326.763
543.5879, 2350.041
544.0700, 2365.989
544.5521, 2362.367
545.0342, 2356.602
545.5164, 2357.921
545.9985, 2366.303
546.4806, 2377.393
546.9627, 2399.360
547.4448, 2416.680
547.9269, 2419.668
548.4091, 2396.385
548.8912, 2381.498
549.3733, 2380.877
549.8554, 2384.736
550.3375, 2381.174
550.8196, 2371.056
551.3018, 2349.827
551.7839, 2312.805
552.2660, 2265.562
552.7481, 2229.219
553.2302, 2204.298
553.7123, 2182.625
554.1945, 2164.226
554.6766, 2145.175
555.1587, 2110.155
555.6408, 2057.844
556.1229, 2003.862
556.6050, 1963.315
557.0872, 1930.496
557.5693, 1896.015
558.0514, 1853.022
558.5335, 1813.327
559.0156, 1784.804
559.4977, 1765.316
559.9799, 1750.685
560.4620, 1747.561
560.9441, 1741.715
561.4262, 1724.403
561.9083, 1692.957
562.3904, 1672.993
562.8726, 1673.732
563.3547, 1677.180
563.8368, 1670.678
564.3189, 1649.891
564.8010, 1634.455
565.2831, 1627.120
565.7653, 1622.907
566.2474, 1611.035
566.7295, 1591.250
567.2116, 1579.239
567.6937, 1584.197
568.1758, 1597.031
568.6580, 1598.389
569.1401, 1589.270
569.6222, 1577.812
570.1043, 1569.286
570.5864, 1561.608
571.0685, 1551.279
571.5507, 1537.051
572.0328, 1526.324
572.5149, 1526.046
572.9970, 1529.917
573.4791, 1531.395
573.9612, 1524.902
574.4434, 1520.470
574.9255, 1520.436
575.4076, 1523.792
575.8897, 1527.997
576.3718, 1535.167
576.8539, 1539.837
577.3361, 1539.122
577.8182, 1533.150
578.3003, 1533.401
578.7824, 1542.666
579.2645, 1548.071
579.7466, 1531.905
580.2288, 1499.034
580.7109, 1486.194
581.1930, 1499.974
581.6751, 1523.649
582.1572, 1540.823
582.6393, 1552.040
583.1215, 1558.841
583.6036, 1557.871
584.0857, 1556.464
584.5678, 1561.267
585.0499, 1570.606
585.5320, 1578.237
586.0142, 1580.651
586.4963, 1581.589
586.9784, 1582.725
587.4605, 1584.169
587.9426, 1585.779
588.4247, 1584.140
588.9069, 1585.513
589.3890, 1595.656
589.8711, 1618.912
590.3532, 1638.231
590.8353, 1651.575
591.3174, 1661.767
591.7996, 1672.910
592.2817, 1684.992
592.7638, 1700.444
593.2459, 1721.386
593.7280, 1745.673
594.2101, 1767.689
594.6923, 1787.987
595.1744, 1809.100
595.6565, 1828.800
596.1386, 1852.293
596.6207, 1887.813
597.1028, 1937.679
597.5850, 1985.201
598.0671, 2018.902
598.5492, 2047.848
599.0314, 2079.892
599.5135, 2112.286
599.9956, 2153.845
600.4777, 2211.143
600.9598, 2276.199
601.4420, 2332.918
601.9241, 2377.675
602.4062, 2419.805
602.8883, 2461.087
603.3704, 2501.594
603.8525, 2542.878
604.3347, 2584.701
604.8168, 2631.014
605.2989, 2689.531
605.7810, 2755.002
606.2631, 2813.131
606.7452, 2862.572
607.2274, 2906.253
607.7095, 2945.970
608.1916, 2981.296
608.6737, 3011.001
609.1558, 3036.032
609.6379, 3053.989
610.1201, 3063.289
610.6022, 3065.155
611.0843, 3062.347
611.5664, 3053.388
612.0485, 3042.018
612.5306, 3033.268
613.0128, 3025.552
613.4949, 2996.668
613.9770, 2939.694
614.4591, 2875.914
614.9412, 2815.586
615.4233, 2758.194
615.9055, 2706.571
616.3876, 2661.532
616.8697, 2618.437
617.3518, 2573.472
617.8339, 2526.401
618.3160, 2474.043
618.7982, 2413.922
619.2803, 2352.846
619.7624, 2295.244
620.2445, 2242.073
620.7266, 2195.048
621.2087, 2159.957
621.6909, 2126.841
622.1730, 2090.844
622.6551, 2052.362
623.1372, 2018.517
623.6193, 1995.628
624.1014, 1971.679
624.5836, 1941.440
625.0657, 1903.412
625.5478, 1866.925
626.0299, 1829.948
626.5120, 1798.639
626.9941, 1783.099
627.4763, 1781.772
627.9584, 1771.253
628.4405, 1746.662
628.9226, 1717.161
629.4047, 1694.445
629.8868, 1676.676
630.3690, 1659.042
630.8511, 1639.334
631.3332, 1619.386
631.8153, 1598.474
632.2974, 1577.898
632.7795, 1562.554
633.2617, 1562.129
633.7438, 1559.981
634.2259, 1545.817
634.7080, 1516.810
635.1901, 1501.102
635.6722, 1505.950
636.1544, 1514.835
636.6365, 1517.519
637.1186, 1513.524
637.6007, 1506.473
638.0828, 1496.338
638.5649, 1483.604
639.0471, 1466.540
639.5292, 1446.748
640.0113, 1432.048
640.4934, 1425.177
640.9755, 1422.943
641.4576, 1424.071
641.9398, 1427.226
642.4219, 1429.180
642.9040, 1428.755
643.3861, 1426.559
643.8682, 1421.240
644.3503, 1413.370
644.8325, 1409.050
645.3146, 1414.068
645.7967, 1418.211
646.2788, 1417.251
646.7609, 1410.322
647.2430, 1403.502
647.7252, 1396.752
648.2073, 1390.047
648.6894, 1382.042
649.1715, 1373.190
649.6536, 1369.204
650.1357, 1370.958
650.6179, 1377.122
651.1000, 1391.775
651.5821, 1409.470
652.0642, 1416.905
652.5463, 1400.831
653.0284, 1382.712
653.5106, 1377.494
653.9927, 1381.250
654.4748, 1383.193
654.9569, 1380.428
655.4390, 1375.145
655.9211, 1365.616
656.4033, 1352.396
656.8854, 1347.010
657.3675, 1352.796
657.8496, 1360.364
658.3317, 1364.263
658.8138, 1364.327
659.2960, 1366.339
659.7781, 1370.798
660.2602, 1374.758
660.7423, 1374.053
661.2244, 1370.666
661.7065, 1369.777
662.1887, 1373.276
662.6708, 1376.827
663.1529, 1375.128
663.6350, 1371.629
664.1171, 1371.550
664.5992, 1384.361
665.0814, 1392.244
665.5635, 1385.106
666.0456, 1368.449
666.5277, 1362.160
667.0098, 1372.801
667.4919, 1382.935
667.9741, 1386.626
668.4562, 1384.958
668.9383, 1387.184
669.4204, 1393.747
669.9025, 1400.561
670.3846, 1405.048
670.8668, 1407.653
671.3489, 1409.097
671.8310, 1409.381
672.3131, 1410.040
672.7952, 1412.970
673.2773, 1416.614
673.7595, 1418.351
674.2416, 1414.476
674.7237, 1416.354
675.2058, 1437.133
675.6879, 1461.915
676.1700, 1471.149
676.6522, 1451.722
677.1343, 1438.488
677.6164, 1435.780
678.0985, 1441.141
678.5806, 1451.797
679.0627, 1468.822
679.5449, 1478.710
680.0270, 1472.239
680.5091, 1458.492
680.9912, 1459.002
681.4733, 1471.839
681.9554, 1485.405
682.4376, 1491.939
682.9197, 1496.617
683.4018, 1504.479
683.8839, 1515.760
684.3660, 1526.428
684.8481, 1537.510
685.3303, 1545.636
685.8124, 1546.971
686.2945, 1536.405
686.7766, 1535.321
687.2587, 1547.814
687.7408, 1564.168
688.2230, 1574.036
688.7051, 1576.922
689.1872, 1584.737
689.6693, 1600.641
690.1514, 1617.531
690.6335, 1623.323
691.1157, 1621.895
691.5978, 1623.309
692.0799, 1631.784
692.5620, 1643.528
693.0441, 1658.260
693.5262, 1674.137
694.0084, 1686.738
694.4905, 1690.633
694.9726, 1695.297
695.4547, 1705.319
695.9368, 1719.457
696.4189, 1728.858
696.9011, 1732.921
697.3832, 1733.346
697.8653, 1727.294
698.3474, 1716.531
698.8295, 1723.757
699.3116, 1749.868
699.7938, 1774.267
700.2759, 1775.915
700.7580, 1766.259
701.2401, 1765.064
701.7222, 1775.615
702.2043, 1785.362
702.6865, 1784.069
703.1686, 1779.808
703.6507, 1780.481
704.1328, 1794.048
704.6149, 1801.833
705.0970, 1800.475
705.5792, 1793.933
706.0613, 1787.267
706.5434, 1780.852
707.0255, 1771.920
707.5076, 1758.446
707.9897, 1744.510
708.4719, 1741.803
708.9540, 1747.675
709.4361, 1746.279
709.9182, 1722.456
710.4003, 1696.404
710.8824, 1693.464
711.3646, 1707.137
711.8467, 1715.843
712.3288, 1707.913
712.8109, 1695.264
713.2930, 1682.617
713.7751, 1670.246
714.2573, 1656.528
714.7394, 1639.397
715.2215, 1624.197
715.7036, 1613.119
716.1857, 1606.074
716.6678, 1606.205
717.1500, 1614.720
717.6321, 1621.999
718.1142, 1620.691
718.5963, 1612.150
719.0784, 1595.927
719.5605, 1570.528
720.0427, 1551.551
720.5248, 1557.913
721.0069, 1572.955
721.4890, 1578.965
721.9711, 1565.884
722.4532, 1554.916
722.9354, 1551.829
723.4175, 1550.777
723.8996, 1544.102
724.3817, 1528.290
724.8638, 1519.340
725.3459, 1521.642
725.8281, 1528.953
726.3102, 1528.133
726.7923, 1520.945
727.2744, 1519.278
727.7565, 1532.559
728.2386, 1547.435
728.7208, 1547.491
729.2029, 1536.827
729.6850, 1526.833
730.1671, 1519.439
730.6492, 1516.360
731.1313, 1520.677
731.6135, 1531.505
732.0956, 1538.463
732.5777, 1539.505
733.0598, 1540.195
733.5419, 1543.041
734.0240, 1547.677
734.5062, 1550.165
734.9883, 1550.424
735.4704, 1549.896
735.9525, 1551.462
736.4346, 1552.280
736.9167, 1545.145
737.3989, 1529.582
737.8810, 1517.447
738.3631, 1512.938
738.8452, 1516.723
739.3273, 1531.940
739.8094, 1567.396
740.2916, 1589.765
740.7737, 1591.086
741.2558, 1584.748
741.7379, 1580.958
742.2200, 1579.639
742.7021, 1582.131
743.1843, 1589.346
743.6664, 1597.888
744.1485, 1603.536
744.6306, 1606.896
745.1127, 1609.428
745.5948, 1610.444
746.0770, 1613.349
746.5591, 1623.486
747.0412, 1636.541
747.5233, 1645.981
748.0054, 1643.515
748.4875, 1644.984
748.9697, 1656.309
749.4518, 1672.461
749.9339, 1682.193
750.4160, 1683.063
750.8981, 1686.655
751.3802, 1697.249
751.8624, 1711.406
752.3445, 1718.507
752.8266, 1720.129
753.3087, 1724.994
753.7908, 1740.199
754.2729, 1758.715
754.7551, 1774.959
755.2372, 1789.014
755.7193, 1801.788
756.2014, 1808.361
756.6835, 1818.841
757.1656, 1839.304
757.6478, 1869.105
758.1299, 1895.697
758.6120, 1919.641
759.0941, 1938.797
759.5762, 1949.063
760.0583, 1952.486
760.5405, 1960.028
761.0226, 1971.774
761.5047, 1995.947
761.9868, 2049.693
762.4689, 2113.765
762.9510, 2165.019
763.4332, 2200.580
763.9153, 2234.591
764.3974, 2267.103
764.8795, 2304.197
765.3616, 2350.032
765.8438, 2405.677
766.3259, 2467.563
766.8080, 2537.401
767.2901, 2610.600
767.7722, 2681.316
768.2543, 2750.552
768.7365, 2832.419
769.2186, 2928.352
769.7007, 3033.949
770.1828, 3150.446
770.6649, 3272.255
771.1470, 3386.991
771.6292, 3483.759
772.1113, 3596.382
772.5934, 3748.914
773.0755, 3918.810
773.5576, 4079.646
774.0397, 4221.167
774.5219, 4372.841
775.0040, 4534.132
775.4861, 4707.105
775.9682, 4901.963
776.4503, 5116.621
776.9324, 5312.891
777.4146, 5477.666
777.8967, 5635.243
778.3788, 5816.547
778.8609, 6009.538
779.3430, 6190.838
779.8251, 6347.888
780.3073, 6496.193
780.7894, 6649.395
781.2715, 6796.548
781.7536, 6916.118
782.2357, 7002.728
782.7178, 7072.644
783.2000, 7134.928
783.6821, 7178.096
784.1642, 7167.448
784.6463, 7106.313
785.1284, 7026.769
785.6105, 6948.955
786.0927, 6853.016
786.5748, 6708.816
787.0569, 6527.367
787.5390, 6339.384
788.0211, 6153.399
788.5032, 5968.863
788.9854, 5792.864
789.4675, 5618.952
789.9496, 5428.856
790.4317, 5208.798
790.9138, 5002.057
791.3959, 4823.758
791.8781, 4669.117
792.3602, 4512.064
792.8423, 4355.695
793.3244, 4215.754
793.8065, 4116.769
794.2886, 4031.279
794.7708, 3932.839
795.2529, 3824.237
795.7350, 3723.351
796.2171, 3630.469
796.6992, 3554.615
797.1813, 3503.157
797.6635, 3474.911
798.1456, 3435.735
798.6277, 3378.375
799.1098, 3334.079
799.5919, 3332.606
800.0740, 3357.290
800.5562, 3341.431
801.0383, 3288.078
801.5204, 3239.096
802.0025, 3223.519
802.4846, 3222.896
802.9667, 3222.557
803.4489, 3221.327
803.9310, 3226.624
804.4131, 3245.701
804.8952, 3266.281
805.3773, 3280.006
805.8594, 3286.041
806.3416, 3314.438
806.8237, 3368.005
807.3058, 3426.336
807.7879, 3463.992
808.2700, 3497.235
808.7521, 3567.904
809.2343, 3676.990
809.7164, 3792.344
810.1985, 3900.356
810.6806, 4001.663
811.1627, 4090.695
811.6448, 4159.284
812.1270, 4262.384
812.6091, 4404.470
813.0912, 4577.145
813.5733, 4785.127
814.0554, 5029.687
814.5375, 5252.925
815.0197, 5449.548
815.5018, 5664.645
815.9839, 5948.114
816.4660, 6268.150
816.9481, 6578.131
817.4302, 6868.215
817.9124, 7188.578
818.3945, 7574.485
818.8766, 7990.793
819.3587, 8408.109
819.8408, 8821.697
820.3229, 9263.379
820.8051, 9726.059
821.2872, 10228.17
821.7693, 10800.03
822.2514, 11425.25
822.7335, 12035.73
823.2156, 12629.24
823.6978, 13228.67
824.1799, 13868.02
824.6620, 14513.78
825.1441, 15140.68
825.6262, 15738.09
826.1083, 16323.88
826.5905, 16881.16
827.0726, 17440.30
827.5547, 18016.78
828.0368, 18616.99
828.5189, 19198.04
829.0010, 19768.15
829.4832, 20302.22
829.9653, 20784.52
830.4474, 21219.34
830.9295, 21621.61
831.4116, 21998.23
831.8937, 22329.34
832.3759, 22637.45
832.8580, 22877.54
833.3401, 23009.59
833.8222, 23012.50
834.3043, 22947.49
834.7864, 22822.93
835.2686, 22617.25
835.7507, 22303.49
836.2328, 21885.42
836.7149, 21425.86
837.1970, 20925.70
837.6791, 20404.59
838.1613, 19882.18
838.6434, 19338.47
839.1255, 18741.21
839.6076, 18076.56
840.0897, 17432.33
840.5718, 16853.63
841.0540, 16292.77
841.5361, 15711.83
842.0182, 15104.29
842.5003, 14540.25
842.9824, 14025.83
843.4645, 13525.27
843.9467, 13001.91
844.4288, 12466.52
844.9109, 11940.54
845.3930, 11425.70
845.8751, 10938.93
846.3572, 10499.61
846.8394, 10086.98
847.3215, 9678.015
847.8036, 9264.731
848.2857, 8891.833
848.7678, 8566.082
849.2499, 8266.617
849.7321, 7984.052
850.2142, 7717.055
850.6963, 7459.541
851.1784, 7209.374
851.6605, 6982.452
852.1426, 6793.309
852.6248, 6628.797
853.1069, 6478.461
853.5890, 6342.319
854.0711, 6206.614
854.5532, 6061.423
855.0353, 5922.633
855.5175, 5797.629
855.9996, 5685.858
856.4817, 5594.035
856.9638, 5529.067
857.4459, 5449.034
857.9280, 5311.108
858.4102, 5145.985
858.8923, 5018.444
859.3744, 4924.536
859.8565, 4825.250
860.3386, 4693.284
860.8207, 4555.081
861.3029, 4417.694
861.7850, 4285.185
862.2671, 4173.008
862.7492, 4089.214
863.2313, 4010.436
863.7134, 3929.504
864.1956, 3846.131
864.6777, 3761.292
865.1598, 3674.366
865.6419, 3589.708
866.1240, 3507.303
866.6061, 3428.836
867.0883, 3356.070
867.5704, 3289.405
868.0525, 3228.683
868.5346, 3172.429
869.0167, 3125.575
869.4988, 3092.111
869.9810, 3068.104
870.4631, 3038.940
870.9452, 3004.213
871.4273, 2974.753
871.9094, 2957.772
872.3915, 2944.748
872.8737, 2922.222
873.3558, 2894.353
873.8379, 2870.747
874.3200, 2858.510
874.8021, 2847.299
875.2842, 2835.382
875.7664, 2822.036
876.2485, 2805.133
876.7306, 2783.115
877.2127, 2764.981
877.6948, 2754.385
878.1769, 2744.816
878.6591, 2726.329
879.1412, 2700.201
879.6233, 2669.884
880.1054, 2638.033
880.5875, 2599.550
881.0696, 2546.349
881.5518, 2486.727
882.0339, 2432.870
882.5160, 2388.653
882.9981, 2342.817
883.4802, 2294.918
883.9623, 2244.479
884.4445, 2188.623
884.9266, 2129.262
885.4087, 2073.436
885.8908, 2021.935
886.3729, 1974.983
886.8550, 1932.393
887.3372, 1894.635
887.8193, 1862.698
888.3014, 1842.756
888.7835, 1817.018
889.2656, 1783.500
889.7477, 1746.255
890.2299, 1705.314
890.7120, 1661.601
891.1941, 1634.755
891.6762, 1626.865
892.1583, 1622.403
892.6404, 1610.506
893.1226, 1593.609
893.6047, 1573.446
894.0868, 1549.887
894.5689, 1525.737
895.0510, 1495.113
895.5331, 1470.787
896.0153, 1461.434
896.4974, 1466.514
896.9795, 1462.748
897.4616, 1449.849
897.9437, 1432.429
898.4258, 1407.075
898.9080, 1382.633
899.3901, 1372.997
899.8722, 1376.467
900.3543, 1379.725
900.8364, 1379.690
901.3185, 1376.305
901.8007, 1368.106
902.2828, 1356.522
902.7649, 1349.202
903.2470, 1346.623
903.7291, 1344.142
904.2112, 1339.933
904.6934, 1334.663
905.1755, 1330.274
905.6576, 1325.851
906.1397, 1318.852
906.6218, 1301.870
907.1039, 1289.296
907.5861, 1290.447
908.0682, 1297.964
908.5503, 1298.525
909.0324, 1291.006
909.5145, 1280.240
909.9966, 1265.315
910.4788, 1251.768
910.9609, 1251.870
911.4430, 1259.773
911.9251, 1261.401
912.4072, 1248.828
912.8893, 1239.497
913.3715, 1247.657
913.8536, 1259.920
914.3357, 1260.793
914.8178, 1242.595
915.2999, 1235.837
915.7820, 1243.796
916.2642, 1255.070
916.7463, 1258.542
917.2284, 1256.155
917.7105, 1252.098
918.1926, 1246.770
918.6747, 1241.990
919.1569, 1238.047
919.6390, 1235.676
920.1211, 1237.067
920.6032, 1243.266
921.0853, 1240.529
921.5674, 1224.246
922.0496, 1212.314
922.5317, 1220.402
923.0138, 1239.865
923.4959, 1241.634
923.9780, 1228.092
924.4601, 1214.212
924.9423, 1209.109
925.4244, 1205.646
925.9065, 1199.105
926.3886, 1190.416
926.8707, 1185.580
927.3528, 1186.780
927.8350, 1186.485
928.3171, 1182.790
928.7993, 1176.259
929.2814, 1166.052
929.7635, 1153.798
930.2456, 1144.555
930.7277, 1141.367
931.2098, 1139.917
931.6920, 1138.295
932.1741, 1136.615
932.6562, 1135.148
933.1383, 1134.880
933.6204, 1132.656
934.1025, 1128.291
934.5847, 1121.922
935.0668, 1110.022
935.5489, 1096.256
936.0310, 1094.954
936.5131, 1109.905
936.9952, 1123.007
937.4774, 1120.286
937.9595, 1112.490
938.4416, 1108.074
938.9237, 1108.164
939.4058, 1109.122
939.8879, 1112.146
940.3701, 1112.789
940.8522, 1105.146
941.3343, 1093.138
941.8164, 1090.456
942.2985, 1096.008
942.7806, 1101.924
943.2628, 1105.255
943.7449, 1106.091
944.2270, 1101.763
944.7091, 1094.236
945.1912, 1094.787
945.6733, 1107.767
946.1555, 1115.474
946.6376, 1112.040
947.1197, 1101.850
947.6018, 1089.064
948.0839, 1076.752
948.5660, 1073.801
949.0482, 1091.957
949.5303, 1106.640
950.0124, 1104.866
950.4945, 1093.273
950.9766, 1079.743
951.4587, 1059.874
951.9409, 1054.030
952.4230, 1066.124
952.9051, 1082.882
953.3872, 1090.661
953.8693, 1092.021
954.3514, 1092.698
954.8336, 1093.569
955.3157, 1091.144
955.7978, 1076.893
956.2799, 1064.849
956.7620, 1065.291
957.2441, 1078.464
957.7263, 1085.972
958.2084, 1087.585
958.6905, 1085.244
959.1726, 1075.496
959.6547, 1065.059
960.1368, 1068.349
960.6190, 1081.522
961.1011, 1091.018
961.5832, 1084.179
962.0653, 1080.698
962.5474, 1092.020
963.0295, 1108.663
963.5117, 1109.014
963.9938, 1090.845
964.4759, 1081.969
964.9580, 1089.799
965.4401, 1104.258
965.9222, 1114.206
966.4044, 1121.819
966.8865, 1130.109
967.3686, 1140.272
967.8507, 1150.161
968.3328, 1158.681
968.8149, 1167.578
969.2971, 1177.913
969.7792, 1189.574
970.2613, 1204.538
970.7434, 1222.666
971.2255, 1240.942
971.7076, 1255.844
972.1898, 1270.275
972.6719, 1286.364
973.1540, 1304.403
973.6361, 1326.276
974.1182, 1354.074
974.6003, 1383.787
975.0825, 1415.770
975.5646, 1448.336
976.0467, 1473.393
976.5288, 1492.530
977.0109, 1517.221
977.4930, 1557.503
977.9752, 1594.647
978.4573, 1609.299
978.9394, 1614.164
979.4215, 1627.480
979.9036, 1652.059
980.3857, 1685.667
980.8679, 1733.626
981.3500, 1778.919
981.8321, 1801.166
982.3142, 1805.974
982.7963, 1806.725
983.2784, 1804.671
983.7606, 1806.094
984.2427, 1827.471
984.7248, 1842.892
985.2069, 1829.947
985.6890, 1791.012
986.1711, 1760.357
986.6533, 1738.658
987.1354, 1722.755
987.6175, 1716.341
988.0996, 1709.902
988.5817, 1683.056
989.0638, 1641.937
989.5460, 1601.953
990.0281, 1574.962
990.5102, 1542.711
990.9923, 1494.636
991.4744, 1442.340
991.9565, 1401.077
992.4387, 1371.472
992.9208, 1340.813
993.4029, 1307.197
993.8850, 1276.466
994.3671, 1257.509
994.8492, 1242.976
995.3314, 1225.093
995.8135, 1202.700
996.2956, 1176.659
996.7777, 1140.250
997.2598, 1111.256
997.7419, 1101.115
998.2241, 1104.526
998.7062, 1095.419
999.1883, 1074.760
999.6704, 1050.161
1000.153, 1014.450
1000.635, 987.3288
1001.117, 988.4600
1001.599, 1006.915
1002.081, 1019.383
1002.563, 1026.689
1003.045, 1021.488
1003.527, 999.2431
1004.009, 973.3364
1004.492, 961.8380
1004.974, 959.9181
1005.456, 956.4144
1005.938, 949.2527
1006.420, 943.7744
1006.902, 947.3617
1007.384, 949.0289
1007.866, 940.9189
1008.349, 923.3544
1008.831, 911.1919
1009.313, 904.4517
1009.795, 901.6385
1010.277, 904.5492
1010.759, 908.7182
1011.241, 906.8130
1011.723, 901.6730
1012.205, 900.0964
1012.688, 912.5453
1013.170, 916.1948
1013.652, 903.6113
1014.134, 887.1216
1014.616, 886.3785
1015.098, 898.5162
1015.580, 902.7829
1016.062, 895.7473
1016.544, 887.4322
1017.027, 885.1609
1017.509, 884.9377
1017.991, 884.4474
1018.473, 883.6683
1018.955, 877.8296
1019.437, 864.8831
1019.919, 853.8013
1020.401, 848.2037
1020.884, 847.8756
1021.366, 855.9638
1021.848, 869.2101
1022.330, 877.8209
1022.812, 874.6885
1023.294, 870.2234
1023.776, 867.5605
1024.258, 864.8388
1024.740, 858.8425
1025.223, 849.3630
1025.705, 844.2819
1026.187, 844.9142
1026.669, 845.2502
1027.151, 836.9452
1027.633, 827.5233
1028.115, 825.9193
1028.597, 833.5239
1029.079, 835.7761
1029.562, 828.3461
1030.044, 822.6115
1030.526, 823.6935
1031.008, 828.8500
1031.490, 830.9323
1031.972, 830.5637
1032.454, 829.7317
1032.936, 827.7433
1033.419, 827.6605
1033.901, 834.7304
1034.383, 842.1169
1034.865, 840.5491
1035.347, 827.2836
1035.829, 821.9752
1036.311, 826.2079
1036.793, 833.6950
1037.276, 840.8135
1037.758, 846.5981
1038.240, 850.2576
1038.722, 851.6390
1039.204, 849.9479
1039.686, 842.0126
1040.168, 835.4268
1040.650, 831.5938
1041.132, 830.9430
1041.615, 836.4543
1042.097, 846.4003
1042.579, 853.2269
1043.061, 853.3903
1043.543, 853.0266
1044.025, 856.6464
1044.507, 861.0303
1044.989, 862.8445
1045.471, 861.7042
1045.954, 858.4543
1046.436, 852.1016
1046.918, 850.2910
1047.400, 862.1547
1047.882, 879.9739
1048.364, 896.3410
1048.846, 909.5707
1049.328, 913.5848
1049.811, 897.2401
1050.293, 883.2072
1050.775, 874.2094
1051.257, 870.9136
1051.739, 878.5220
1052.221, 893.7394
1052.703, 900.7896
1053.185, 895.3342
1053.667, 888.4053
1054.150, 887.0599
1054.632, 887.3757
1055.114, 886.8383
1055.596, 885.4736
1056.078, 879.9308
1056.560, 869.4037
1057.042, 860.7999
1057.524, 857.9733
1058.006, 858.9685
1058.489, 863.2860
1058.971, 869.0922
1059.453, 872.0906
1059.935, 867.7186
1060.417, 865.1990
1060.899, 865.6348
1061.381, 867.6820
1061.863, 872.4178
1062.346, 877.7532
1062.828, 870.3054
1063.310, 849.1039
1063.792, 836.1310
1064.274, 854.6164
1064.756, 876.1354
1065.238, 883.7566
1065.720, 879.8204
1066.203, 873.2455
1066.685, 863.3444
1067.167, 857.6328
1067.649, 859.0646
1068.131, 863.8308
1068.613, 869.5167
1069.095, 874.7015
1069.577, 877.3646
1070.059, 877.0576
1070.542, 873.5140
1071.024, 865.0547
1071.506, 857.0557
1071.988, 854.2734
1072.470, 854.9650
1072.952, 854.1106
1073.434, 851.5745
1073.916, 846.8680
1074.398, 837.2211
1074.881, 828.2361
1075.363, 820.2481
1075.845, 815.1386
1076.327, 818.3977
1076.809, 830.2254
1077.291, 835.7518
1077.773, 832.3912
1078.255, 826.2816
1078.738, 820.8043
1079.220, 816.7184
1079.702, 815.2576
1080.184, 816.7852
1080.666, 816.8279
1081.148, 815.0143
1081.630, 812.7911
1082.112, 810.4384
1082.594, 808.3643
1083.077, 806.1618
1083.559, 804.9890
1084.041, 807.7147
1084.523, 819.4831
1085.005, 827.0121
1085.487, 826.5295
1085.969, 823.1830
1086.451, 821.5667
1086.933, 820.9951
1087.416, 813.4128
1087.898, 799.6893
1088.380, 790.2806
1088.862, 797.1504
1089.344, 804.6395
1089.826, 802.5315
1090.308, 794.9969
1090.790, 792.1356
1091.273, 794.5262
1091.755, 797.6463
1092.237, 801.0849
1092.719, 803.6824
1093.201, 804.5924
1093.683, 803.8796
1094.165, 799.8936
1094.647, 791.8113
1095.130, 792.1111
1095.612, 806.3198
1096.094, 816.6855
1096.576, 813.7458
1097.058, 805.2578
1097.540, 810.4095
1098.022, 823.1199
1098.504, 827.6777
1098.986, 813.6782
1099.469, 801.4490
1099.951, 797.2007
1100.433, 795.6786
1100.915, 792.4605
1101.397, 787.9347
1101.879, 790.1238
1102.361, 798.3813
1102.843, 804.7128
1103.326, 804.1115
1103.808, 799.8931
1104.290, 791.5794
1104.772, 781.5763
1105.254, 775.2278
1105.736, 773.2094
1106.218, 770.2548
1106.700, 765.3068
1107.182, 761.6733
1107.665, 764.4990
1108.147, 769.2393
1108.629, 771.0358
1109.111, 769.3438
1109.593, 767.1546
1110.075, 764.5632
1110.557, 761.9460
1111.039, 759.7178
1111.521, 757.1678
1112.004, 751.3896
1112.486, 744.6382
1112.968, 741.6431
1113.450, 744.7766
1113.932, 749.1015
1114.414, 755.6022
1114.896, 760.2214
1115.378, 759.1855
1115.861, 753.9235
1116.343, 753.9172
1116.825, 758.0828
1117.307, 760.0858
1117.789, 755.5569
1118.271, 749.2194
1118.753, 740.6683
1119.235, 732.9144
1119.718, 730.8698
1120.200, 735.0401
1120.682, 736.7785
1121.164, 735.4081
1121.646, 732.6137
1122.128, 727.8666
1122.610, 723.8542
1123.092, 721.7976
1123.574, 722.4798
1124.057, 729.0151
1124.539, 743.7371
1125.021, 754.4667
1125.503, 757.7842
1125.985, 758.5621
1126.467, 763.8288
1126.949, 770.1205
1127.431, 772.1522
1127.913, 768.1746
1128.396, 765.7150
1128.878, 765.1523
1129.360, 766.8092
1129.842, 771.4713
1130.324, 777.8138
1130.806, 782.5499
1131.288, 786.4567
1131.770, 791.9468
1132.253, 805.2743
1132.735, 809.5400
1133.217, 794.5801
1133.699, 777.7137
1134.181, 774.4584
1134.663, 781.8232
1135.145, 773.9796
1135.627, 752.9611
1136.109, 733.5737
1136.592, 725.4008
1137.074, 719.8881
1137.556, 715.9758
1138.038, 711.0433
1138.520, 699.8769
1139.002, 682.4352
1139.484, 670.1994
1139.966, 664.6292
1140.448, 659.8435
1140.931, 649.4833
1141.413, 639.7116
1141.895, 637.8772
1142.377, 641.4526
1142.859, 634.9052
1143.341, 616.0172
1143.823, 600.9318
1144.305, 593.4333
1144.788, 590.8823
1145.270, 593.3445
1145.752, 597.2808
1146.234, 598.1334
1146.716, 594.5346
1147.198, 594.0318
1147.680, 598.2641
1148.162, 600.4233
1148.645, 597.4866
1149.127, 590.9834
1149.609, 578.8733
1150.091, 566.2681
1150.573, 564.0072
1151.055, 585.3226
1151.537, 593.5895
1152.019, 581.6486
1152.501, 567.1569
1152.984, 564.3162
1153.466, 568.3047
1153.948, 563.3522
1154.430, 552.4254
1154.912, 546.4136
1155.394, 558.5261
1155.876, 563.0092
1156.358, 550.0870
1156.840, 535.4322
1157.323, 540.6921
1157.805, 560.1777
1158.287, 566.8852
1158.769, 560.1181
1159.251, 551.8004
1159.733, 543.7257
1160.215, 541.2797
1160.697, 549.8644
1161.180, 562.7490
1161.662, 567.0673
1162.144, 563.2872
1162.626, 552.8788
1163.108, 534.8196
1163.590, 524.5159
1164.072, 545.3714
1164.554, 565.8674
1165.036, 561.0450
1165.519, 537.6629
1166.001, 531.2599
1166.483, 541.3356
1166.965, 546.1063
1167.447, 537.5945
1167.929, 526.4868
1168.411, 519.4775
1168.893, 515.7640
1169.375, 515.3328
1169.858, 518.0595
1170.340, 520.2815
1170.822, 521.9436
1171.304, 523.6810
1171.786, 525.7649
1172.268, 528.1104
1172.750, 532.1509
1173.232, 535.7694
1173.715, 535.0289
1174.197, 526.9753
1174.679, 524.9750
1175.161, 529.9895
1175.643, 535.4547
1176.125, 536.8852
1176.607, 536.0673
1177.089, 533.6626
1177.572, 530.8238
1178.054, 531.0605
1178.536, 538.7654
1179.018, 538.2457
1179.500, 525.9508
1179.982, 515.2672
1180.464, 524.0992
1180.946, 539.8878
1181.428, 545.2188
1181.911, 540.6897
1182.393, 536.0244
1182.875, 533.6007
1183.357, 529.0984
1183.839, 520.3649
1184.321, 513.0748
1184.803, 516.2767
1185.285, 525.0533
1185.767, 531.4576
1186.250, 534.5861
1186.732, 536.7113
1187.214, 540.2136
1187.696, 538.6446
1188.178, 527.7952
1188.660, 515.0880
1189.142, 514.7686
1189.624, 522.4158
1190.107, 529.7225
1190.589, 535.4039
1191.071, 538.6937
1191.553, 539.5617
1192.035, 537.9094
1192.517, 532.6846
1192.999, 525.8384
1193.481, 521.6392
1193.964, 519.8547
1194.446, 520.3300
1194.928, 524.7092
1195.410, 526.4912
1195.892, 521.2911
1196.374, 517.6875
1196.856, 521.7394
1197.338, 530.8088
1197.820, 536.6559
1198.302, 539.4120
1198.785, 539.6373
1199.267, 536.1384
1199.749, 532.1061
1200.231, 526.4180
1200.713, 522.7425
1201.195, 526.1200
1201.677, 534.2807
1202.159, 533.2925
1202.642, 525.8273
1203.124, 525.5863
1203.606, 549.9329
1204.088, 567.6309
1204.570, 570.0479
1205.052, 564.7326
1205.534, 556.9344
1206.016, 548.3430
1206.499, 547.9233
1206.981, 555.2747
1207.463, 563.3779
1207.945, 572.8801
1208.427, 576.2253
1208.909, 566.0884
1209.391, 554.5975
1209.873, 563.9820
1210.355, 588.7202
1210.838, 604.2678
1211.320, 608.1745
1211.802, 606.1452
1212.284, 595.4250
1212.766, 585.8416
1213.248, 579.6982
1213.730, 578.0949
1214.212, 586.2968
1214.694, 601.4781
1215.177, 611.2272
1215.659, 613.2974
1216.141, 613.6265
1216.623, 614.2222
1217.105, 615.0762
1217.587, 616.9415
1218.069, 618.5178
1218.551, 613.9199
1219.034, 605.6315
1219.516, 604.1765
1219.998, 613.3724
1220.480, 622.7068
1220.962, 627.3333
1221.444, 630.8061
1221.926, 635.6693
1222.408, 640.3317
1222.891, 637.2668
1223.373, 628.5673
1223.855, 622.8340
1224.337, 623.3346
1224.819, 624.9641
1225.301, 627.7678
1225.783, 628.6785
1226.265, 624.7021
1226.747, 617.7769
1227.229, 617.2070
1227.712, 621.5209
1228.194, 625.3675
1228.676, 627.9978
1229.158, 627.2966
1229.640, 619.0424
1230.122, 611.5253
1230.604, 610.6581
1231.086, 615.0637
1231.569, 619.7443
1232.051, 624.0400
1232.533, 625.3811
1233.015, 620.6664
1233.497, 615.6422
1233.979, 610.8735
1234.461, 607.1555
1234.943, 605.8672
1235.426, 606.1927
1235.908, 605.3291
1236.390, 603.2308
1236.872, 599.8012
1237.354, 590.2273
1237.836, 586.7548
1238.318, 593.3580
1238.800, 602.5342
1239.282, 608.6545
1239.765, 611.1276
1240.247, 607.3433
1240.729, 598.1409
1241.211, 587.6861
1241.693, 573.0283
1242.175, 564.8041
1242.657, 566.5244
1243.139, 570.7495
1243.621, 569.2346
1244.104, 563.8436
1244.586, 556.9288
1245.068, 549.4246
1245.550, 546.3813
1246.032, 555.1948
1246.514, 559.0622
1246.996, 555.0131
1247.478, 547.2432
1247.961, 537.3964
1248.443, 529.1672
1248.925, 531.9722
1249.407, 544.6865
1249.889, 550.3853
1250.371, 542.4180
1250.853, 535.8667
1251.335, 533.2966
1251.818, 533.3762
1252.300, 537.2027
1252.782, 541.0098
1253.264, 538.7724
1253.746, 530.3398
1254.228, 521.9998
1254.710, 512.7025
1255.192, 509.6385
1255.674, 516.2592
1256.156, 522.8773
1256.639, 515.1950
1257.121, 502.5267
1257.603, 495.4748
1258.085, 495.1337
1258.567, 494.5767
1259.049, 493.0630
1259.531, 495.5253
1260.013, 504.7422
1260.496, 512.3526
1260.978, 507.4609
1261.460, 497.6474
1261.942, 490.7182
1262.424, 486.8094
1262.906, 479.4669
1263.388, 467.8939
1263.870, 465.3441
1264.353, 478.1913
1264.835, 490.7914
1265.317, 488.4700
1265.799, 479.7505
1266.281, 469.6657
1266.763, 459.4621
1267.245, 457.7958
1267.727, 464.2354
1268.209, 471.9116
1268.692, 480.3470
1269.174, 483.8831
1269.656, 471.9471
1270.138, 460.0387
1270.620, 460.7161
1271.102, 470.8618
1271.584, 473.2588
1272.066, 469.0800
1272.548, 464.8753
1273.031, 462.1869
1273.513, 461.4738
1273.995, 466.5766
1274.477, 469.6539
1274.959, 465.0293
1275.441, 455.6713
1275.923, 454.1668
1276.405, 457.8339
1276.888, 456.9744
1277.370, 444.9876
1277.852, 438.6440
1278.334, 447.3120
1278.816, 454.0298
1279.298, 447.9447
1279.780, 435.6216
1280.262, 434.0146
1280.745, 439.6206
1281.227, 444.4938
1281.709, 447.0091
1282.191, 446.2046
1282.673, 439.5784
1283.155, 436.7839
1283.637, 445.8885
1284.119, 458.9652
1284.601, 463.8118
1285.083, 462.0516
1285.566, 455.8720
1286.048, 442.8624
1286.530, 434.2263
1287.012, 430.3707
1287.494, 428.7936
1287.976, 428.7608
1288.458, 429.5014
1288.940, 430.1862
1289.423, 431.0573
1289.905, 432.8737
1290.387, 436.1819
1290.869, 436.0764
1291.351, 432.4547
1291.833, 429.2671
1292.315, 427.9798
1292.797, 428.8748
1293.280, 434.8175
1293.762, 441.1896
1294.244, 443.1443
1294.726, 440.6772
1295.208, 435.3569
1295.690, 427.6444
1296.172, 421.7514
1296.654, 419.2339
1297.136, 419.6936
1297.619, 426.5797
1298.101, 433.0788
1298.583, 434.3994
1299.065, 431.0492
1299.547, 422.9890
1300.029, 412.6520
1300.511, 409.1756
1300.993, 422.6813
1301.475, 432.8658
1301.958, 437.3421
1302.440, 437.5302
1302.922, 433.4943
1303.404, 426.4423
1303.886, 414.7061
1304.368, 402.7587
1304.850, 401.2651
1305.332, 425.8852
1305.815, 435.3899
1306.297, 423.9725
1306.779, 420.3015
1307.261, 461.0023
1307.743, 504.3590
1308.225, 489.4917
1308.707, 443.7349
1309.189, 416.5801
1309.672, 416.1785
1310.154, 411.9234
1310.636, 403.5542
1311.118, 399.4602
1311.600, 408.7391
1312.082, 419.6582
1312.564, 425.7574
1313.046, 427.1189
1313.528, 423.0587
##END=



