##NAMES=Clinoptilolite-Ca
##RRUFFID=R060662
##IDEAL CHEMISTRY=Ca_3_(Si_30_Al_6_)O_72_&#183;20H_2_O
##LOCALITY=Succor Creek, Malheur County, Oregon, USA
##OWNER=RRUFF
##SOURCE=Michael Scott
##DESCRIPTION=Group of colorless platy prismatic crystals
##STATUS=The identification of this mineral has been confirmed by X-ray diffraction and chemical analysis
##URL=rruff.info/R060662
##MEASURED CHEMISTRY=(Ca_1.02_Na_0.97_K_0.59_)_Σ=2.58_(Si_14.40_Al_3.60_)_Σ=18_O_36_·10.96H_2_O
115.738, 7659.193
116.220, 8003.052
116.702, 8391.359
117.184, 8824.509
117.666, 9277.402
118.148, 9740.202
118.630, 10220.040
119.113, 10712.170
119.595, 11252.750
120.077, 11785.960
120.559, 12281.810
121.041, 12741.770
121.523, 13143.660
122.005, 13469.500
122.487, 13725.530
122.969, 13923.430
123.451, 14070.460
123.934, 14166.090
124.416, 14202.110
124.898, 14159.230
125.380, 14081.290
125.862, 14006.740
126.344, 13936.630
126.826, 13881.070
127.308, 13849.780
127.791, 13839.750
128.273, 13843.610
128.755, 13853.160
129.237, 13877.020
129.719, 13932.460
130.201, 14019.750
130.683, 14136.960
131.165, 14290.390
131.648, 14475.970
132.130, 14666.760
132.612, 14841.590
133.094, 15006.360
133.576, 15207.590
134.058, 15452.960
134.540, 15718.060
135.022, 15957.290
135.504, 16169.830
135.986, 16372.050
136.469, 16581.570
136.951, 16801.289
137.433, 17000.330
137.915, 17178.240
138.397, 17334.750
138.879, 17468.750
139.361, 17588.420
139.844, 17670.990
140.326, 17691.561
140.808, 17635.109
141.290, 17568.520
141.772, 17504.711
142.254, 17444.029
142.736, 17368.381
143.218, 17269.510
143.700, 17162.801
144.182, 17061.930
144.665, 16962.520
145.147, 16876.400
145.629, 16808.131
146.111, 16759.670
146.593, 16721.279
147.075, 16721.711
147.557, 16725.279
148.040, 16655.221
148.522, 16463.330
149.004, 16244.900
149.486, 16031.340
149.968, 15806.920
150.450, 15611.570
150.932, 15456.510
151.414, 15334.570
151.896, 15211.270
152.378, 15089.910
152.861, 14964.070
153.343, 14830.910
153.825, 14673.000
154.307, 14526.120
154.789, 14404.880
155.271, 14309.460
155.753, 14197.970
156.235, 14045.680
156.718, 13884.200
157.200, 13741.920
157.682, 13636.780
158.164, 13538.140
158.646, 13434.790
159.128, 13323.840
159.610, 13216.710
160.092, 13122.820
160.574, 13033.100
161.057, 12936.310
161.539, 12825.120
162.021, 12705.930
162.503, 12575.950
162.985, 12423.400
163.467, 12290.380
163.949, 12219.390
164.431, 12184.270
164.913, 12123.140
165.396, 11981.420
165.878, 11817.470
166.360, 11676.250
166.842, 11572.580
167.324, 11487.200
167.806, 11422.880
168.288, 11373.260
168.770, 11307.530
169.253, 11181.560
169.735, 11038.830
170.217, 10929.560
170.699, 10905.260
171.181, 10891.220
171.663, 10811.740
172.145, 10672.150
172.627, 10540.860
173.109, 10463.350
173.592, 10366.611
174.074, 10322.410
174.556, 10265.441
175.038, 10196.419
175.520, 10079.185
176.002, 10024.205
176.484, 9944.277
176.966, 9863.326
177.449, 9803.357
177.931, 9701.753
178.413, 9619.442
178.895, 9547.781
179.377, 9470.260
179.859, 9381.675
180.341, 9299.102
180.823, 9251.543
181.305, 9231.743
181.788, 9206.476
182.270, 9146.178
182.752, 9064.610
183.234, 9001.618
183.716, 8967.523
184.198, 8943.175
184.680, 8892.233
185.162, 8817.228
185.645, 8745.678
186.127, 8706.094
186.609, 8689.955
187.091, 8659.927
187.573, 8601.504
188.055, 8531.197
188.537, 8493.705
189.019, 8490.978
189.501, 8488.591
189.984, 8449.823
190.466, 8378.862
190.948, 8318.346
191.430, 8281.360
191.912, 8262.510
192.394, 8241.656
192.876, 8219.021
193.358, 8195.225
193.840, 8174.555
194.323, 8157.125
194.805, 8129.398
195.287, 8083.756
195.769, 8022.634
196.251, 7964.114
196.733, 7907.378
197.215, 7855.803
197.697, 7814.034
198.180, 7782.395
198.662, 7757.980
199.144, 7742.222
199.626, 7735.375
200.108, 7723.806
200.590, 7704.308
201.072, 7685.014
201.554, 7685.397
202.036, 7711.254
202.519, 7727.020
203.001, 7710.818
203.483, 7658.081
203.965, 7612.435
204.447, 7574.450
204.929, 7544.407
205.411, 7525.775
205.893, 7521.154
206.376, 7518.073
206.858, 7509.424
207.340, 7494.226
207.822, 7478.063
208.304, 7460.818
208.786, 7443.140
209.268, 7429.127
209.750, 7422.335
210.232, 7411.614
210.715, 7388.860
211.197, 7351.681
211.679, 7311.938
212.161, 7266.783
212.643, 7220.015
213.125, 7193.563
213.607, 7194.044
214.089, 7202.658
214.572, 7205.949
215.054, 7204.636
215.536, 7194.816
216.018, 7171.886
216.500, 7137.343
216.982, 7111.979
217.464, 7096.618
217.946, 7088.931
218.428, 7087.744
218.911, 7094.942
219.393, 7103.349
219.875, 7111.868
220.357, 7120.523
220.839, 7128.913
221.321, 7138.378
221.803, 7146.291
222.285, 7149.934
222.768, 7149.150
223.250, 7144.621
223.732, 7133.363
224.214, 7113.196
224.696, 7109.089
225.178, 7128.112
225.660, 7157.537
226.142, 7180.909
226.624, 7196.908
227.107, 7209.659
227.589, 7219.696
228.071, 7226.378
228.553, 7232.564
229.035, 7235.231
229.517, 7239.111
229.999, 7253.097
230.481, 7285.117
230.964, 7313.673
231.446, 7329.099
231.928, 7323.524
232.410, 7333.985
232.892, 7371.234
233.374, 7419.561
233.856, 7444.234
234.338, 7423.884
234.820, 7414.617
235.303, 7442.774
235.785, 7533.955
236.267, 7591.732
236.749, 7599.159
237.231, 7579.121
237.713, 7585.107
238.195, 7633.410
238.677, 7683.815
239.160, 7718.226
239.642, 7724.244
240.124, 7743.035
240.606, 7780.871
241.088, 7830.357
241.570, 7869.518
242.052, 7888.294
242.534, 7911.011
243.016, 7950.387
243.499, 8017.702
243.981, 8077.605
244.463, 8130.952
244.945, 8175.954
245.427, 8205.874
245.909, 8213.201
246.391, 8214.742
246.873, 8219.206
247.355, 8230.380
247.838, 8234.225
248.320, 8221.767
248.802, 8201.435
249.284, 8209.162
249.766, 8263.492
250.248, 8319.396
250.730, 8353.275
251.212, 8363.370
251.695, 8354.487
252.177, 8315.744
252.659, 8257.780
253.141, 8232.024
253.623, 8257.584
254.105, 8288.659
254.587, 8298.213
255.069, 8280.555
255.551, 8254.043
256.034, 8211.943
256.516, 8160.886
256.998, 8140.043
257.480, 8168.470
257.962, 8198.041
258.444, 8195.471
258.926, 8146.539
259.408, 8102.011
259.891, 8066.938
260.373, 8040.047
260.855, 8015.892
261.337, 7993.415
261.819, 7975.233
262.301, 7963.621
262.783, 7959.869
263.265, 7959.292
263.747, 7966.727
264.229, 7977.441
264.712, 7963.531
265.194, 7917.450
265.676, 7860.614
266.158, 7808.024
266.640, 7758.001
267.122, 7716.851
267.604, 7690.160
268.086, 7673.288
268.569, 7640.787
269.051, 7587.390
269.533, 7529.147
270.015, 7478.817
270.497, 7437.412
270.979, 7396.143
271.461, 7352.869
271.943, 7308.795
272.426, 7273.106
272.908, 7249.161
273.390, 7225.154
273.872, 7188.242
274.354, 7134.802
274.836, 7095.868
275.318, 7082.220
275.800, 7085.045
276.282, 7065.376
276.765, 7018.021
277.247, 6965.288
277.729, 6922.173
278.211, 6888.615
278.693, 6866.073
279.175, 6859.601
279.657, 6862.209
280.139, 6844.562
280.621, 6801.709
281.104, 6761.347
281.586, 6746.946
282.068, 6758.804
282.550, 6775.848
283.032, 6800.029
283.514, 6823.562
283.996, 6818.624
284.478, 6782.093
284.961, 6742.305
285.443, 6723.022
285.925, 6722.897
286.407, 6718.741
286.889, 6704.208
287.371, 6686.066
287.853, 6680.222
288.335, 6686.951
288.818, 6701.060
289.300, 6722.985
289.782, 6750.864
290.264, 6771.397
290.746, 6781.234
291.228, 6784.358
291.710, 6786.861
292.192, 6788.759
292.674, 6792.994
293.156, 6804.494
293.639, 6820.771
294.121, 6832.438
294.603, 6838.282
295.085, 6838.694
295.567, 6833.642
296.049, 6845.912
296.531, 6853.977
297.013, 6858.063
297.496, 6846.253
297.978, 6854.970
298.460, 6855.460
298.942, 6855.613
299.424, 6862.689
299.906, 6856.458
300.388, 6853.841
300.870, 6832.760
301.353, 6801.414
301.835, 6773.477
302.317, 6751.464
302.799, 6732.575
303.281, 6713.952
303.763, 6695.858
304.245, 6680.416
304.727, 6674.842
305.209, 6669.899
305.691, 6651.547
306.174, 6614.275
306.656, 6575.382
307.138, 6548.103
307.620, 6530.502
308.102, 6517.299
308.584, 6517.758
309.066, 6515.174
309.548, 6489.983
310.031, 6435.411
310.513, 6380.043
310.995, 6336.308
311.477, 6305.335
311.959, 6288.673
312.441, 6304.978
312.923, 6323.776
313.405, 6319.819
313.888, 6286.031
314.370, 6256.371
314.852, 6250.925
315.334, 6259.432
315.816, 6266.544
316.298, 6264.433
316.780, 6261.212
317.262, 6260.225
317.744, 6261.622
318.227, 6266.688
318.709, 6279.306
319.191, 6294.866
319.673, 6308.042
320.155, 6313.037
320.637, 6319.479
321.119, 6318.601
321.601, 6306.604
322.083, 6339.709
322.566, 6360.424
323.048, 6397.464
323.530, 6430.542
324.012, 6459.875
324.494, 6474.221
324.976, 6507.650
325.458, 6542.273
325.940, 6572.749
326.422, 6593.132
326.905, 6605.844
327.387, 6612.542
327.869, 6599.377
328.351, 6595.787
328.833, 6610.275
329.315, 6640.907
329.797, 6660.577
330.280, 6662.017
330.762, 6658.642
331.244, 6658.356
331.726, 6662.765
332.208, 6667.552
332.690, 6669.699
333.172, 6671.539
333.654, 6685.469
334.136, 6720.072
334.618, 6755.248
335.101, 6778.617
335.583, 6780.884
336.065, 6787.539
336.547, 6761.662
337.029, 6757.602
337.511, 6775.775
337.993, 6805.528
338.475, 6832.476
338.958, 6856.759
339.440, 6870.415
339.922, 6897.794
340.404, 6919.672
340.886, 6941.325
341.368, 6970.640
341.850, 6985.843
342.332, 7015.030
342.815, 7038.635
343.297, 7064.794
343.779, 7085.421
344.261, 7107.763
344.743, 7135.634
345.225, 7160.439
345.707, 7180.431
346.189, 7206.752
346.671, 7224.283
347.154, 7244.459
347.636, 7280.565
348.118, 7333.457
348.600, 7392.799
349.082, 7449.327
349.564, 7503.646
350.046, 7559.207
350.528, 7614.389
351.010, 7672.685
351.493, 7743.799
351.975, 7826.479
352.457, 7906.975
352.939, 7971.681
353.421, 8025.913
353.903, 8077.763
354.385, 8121.402
354.867, 8173.628
355.349, 8260.851
355.832, 8376.040
356.314, 8484.150
356.796, 8558.366
357.278, 8617.015
357.760, 8679.686
358.242, 8750.840
358.724, 8824.454
359.207, 8896.624
359.689, 8968.309
360.171, 9041.934
360.653, 9123.625
361.135, 9204.054
361.617, 9273.468
362.099, 9322.017
362.581, 9384.790
363.063, 9434.095
363.546, 9511.946
364.028, 9564.920
364.510, 9638.965
364.992, 9707.908
365.474, 9771.996
365.956, 9816.749
366.438, 9886.473
366.920, 9946.188
367.402, 10005.495
367.885, 10078.745
368.367, 10126.311
368.849, 10199.323
369.331, 10260.320
369.813, 10323.670
370.295, 10388.310
370.777, 10451.820
371.259, 10517.890
371.741, 10590.360
372.224, 10673.990
372.706, 10755.400
373.188, 10832.250
373.670, 10905.000
374.152, 10976.210
374.634, 11046.260
375.116, 11110.490
375.598, 11161.540
376.081, 11192.450
376.563, 11239.720
377.045, 11307.000
377.527, 11390.780
378.009, 11494.570
378.491, 11622.700
378.973, 11733.430
379.455, 11789.720
379.938, 11797.060
380.420, 11841.860
380.902, 11932.050
381.384, 12043.970
381.866, 12145.800
382.348, 12239.520
382.830, 12346.260
383.312, 12476.880
383.794, 12627.030
384.276, 12785.890
384.759, 12955.270
385.241, 13122.880
385.723, 13270.530
386.205, 13407.550
386.687, 13555.040
387.169, 13713.750
387.651, 13890.590
388.134, 14100.340
388.616, 14336.970
389.098, 14572.710
389.580, 14778.010
390.062, 14974.970
390.544, 15186.380
391.026, 15428.410
391.508, 15672.430
391.990, 15892.110
392.473, 16099.710
392.955, 16328.720
393.437, 16606.930
393.919, 16901.000
394.401, 17189.311
394.883, 17470.150
395.365, 17750.000
395.847, 18032.510
396.329, 18315.881
396.812, 18593.051
397.294, 18846.131
397.776, 19109.920
398.258, 19398.039
398.740, 19717.061
399.222, 20017.869
399.704, 20307.270
400.186, 20572.480
400.668, 20802.570
401.151, 20981.811
401.633, 21150.330
402.115, 21320.830
402.597, 21485.971
403.079, 21608.350
403.561, 21679.330
404.043, 21722.551
404.525, 21749.881
405.008, 21761.070
405.490, 21762.119
405.972, 21761.070
406.454, 21741.990
406.936, 21669.789
407.418, 21540.449
407.900, 21381.131
408.382, 21195.891
408.865, 20986.561
409.347, 20776.730
409.829, 20571.029
410.311, 20351.641
410.793, 20097.010
411.275, 19809.699
411.757, 19516.590
412.239, 19226.590
412.721, 18932.590
413.203, 18620.480
413.686, 18289.010
414.168, 17962.660
414.650, 17668.910
415.132, 17389.551
415.614, 17097.150
416.096, 16784.680
416.578, 16462.551
417.060, 16142.620
417.543, 15819.870
418.025, 15497.210
418.507, 15161.200
418.989, 14828.970
419.471, 14510.510
419.953, 14214.710
420.435, 13914.480
420.917, 13590.370
421.400, 13260.270
421.882, 12952.610
422.364, 12689.070
422.846, 12435.820
423.328, 12182.170
423.810, 11928.900
424.292, 11679.180
424.774, 11434.860
425.256, 11190.830
425.738, 10942.990
426.221, 10685.630
426.703, 10432.330
427.185, 10177.770
427.667, 9926.665
428.149, 9708.492
428.631, 9538.016
429.113, 9373.179
429.595, 9186.910
430.078, 8968.379
430.560, 8785.491
431.042, 8644.374
431.524, 8526.320
432.006, 8410.325
432.488, 8296.999
432.970, 8175.134
433.452, 8035.135
433.935, 7883.447
434.417, 7748.517
434.899, 7630.660
435.381, 7521.171
435.863, 7420.340
436.345, 7323.493
436.827, 7212.618
437.309, 7070.019
437.791, 6933.290
438.274, 6861.896
438.756, 6841.301
439.238, 6819.399
439.720, 6757.970
440.202, 6684.377
440.684, 6626.099
441.166, 6588.515
441.648, 6555.517
442.130, 6522.404
442.613, 6487.270
443.095, 6447.173
443.577, 6393.940
444.059, 6342.320
444.541, 6299.109
445.023, 6264.298
445.505, 6228.515
445.987, 6183.398
446.470, 6141.750
446.952, 6112.016
447.434, 6097.726
447.916, 6092.010
448.398, 6097.940
448.880, 6112.132
449.362, 6125.211
449.844, 6134.416
450.327, 6146.784
450.809, 6164.467
451.291, 6187.000
451.773, 6217.896
452.255, 6260.205
452.737, 6305.393
453.219, 6338.517
453.701, 6357.308
454.183, 6396.022
454.665, 6470.582
455.148, 6567.241
455.630, 6644.417
456.112, 6702.062
456.594, 6765.012
457.076, 6859.173
457.558, 6973.530
458.040, 7079.578
458.522, 7171.543
459.005, 7259.464
459.487, 7344.789
459.969, 7432.654
460.451, 7537.115
460.933, 7680.370
461.415, 7832.467
461.897, 7961.465
462.379, 8066.408
462.862, 8178.675
463.344, 8325.993
463.826, 8481.350
464.308, 8618.786
464.790, 8719.311
465.272, 8815.593
465.754, 8908.809
466.236, 9001.632
466.718, 9101.673
467.201, 9213.691
467.683, 9330.861
468.165, 9450.892
468.647, 9573.342
469.129, 9697.285
469.611, 9812.904
470.093, 9936.739
470.575, 10093.900
471.057, 10295.430
471.540, 10495.880
472.022, 10680.620
472.504, 10856.860
472.986, 11051.690
473.468, 11264.620
473.950, 11502.220
474.432, 11776.100
474.914, 12083.140
475.397, 12404.670
475.879, 12741.890
476.361, 13084.160
476.843, 13416.790
477.325, 13743.760
477.807, 14071.120
478.289, 14404.350
478.771, 14742.350
479.254, 14982.780
479.736, 15161.204
480.218, 15505.119
480.700, 15808.854
481.182, 16074.579
481.664, 16188.522
482.146, 16498.496
482.628, 16729.875
483.110, 17000.180
483.592, 16974.971
484.075, 16955.711
484.557, 16880.631
485.039, 16756.900
485.521, 16586.580
486.003, 16365.610
486.485, 16103.940
486.967, 15794.700
487.449, 15448.840
487.931, 15074.440
488.414, 14676.010
488.896, 14247.120
489.378, 13771.820
489.860, 13274.140
490.342, 12802.040
490.824, 12355.650
491.306, 11929.880
491.789, 11526.300
492.271, 11144.770
492.753, 10734.240
493.235, 10280.680
493.717, 9843.148
494.199, 9483.158
494.681, 9188.470
495.163, 8905.539
495.645, 8620.827
496.128, 8337.855
496.610, 8059.159
497.092, 7784.482
497.574, 7535.034
498.056, 7329.712
498.538, 7144.898
499.020, 6957.547
499.502, 6756.818
499.984, 6574.364
500.467, 6424.519
500.949, 6298.061
501.431, 6183.703
501.913, 6088.042
502.395, 5991.801
502.877, 5889.567
503.359, 5780.795
503.841, 5674.631
504.323, 5564.842
504.806, 5464.252
505.288, 5382.437
505.770, 5328.479
506.252, 5267.998
506.734, 5199.785
507.216, 5125.793
507.698, 5046.012
508.181, 4958.505
508.663, 4885.586
509.145, 4839.172
509.627, 4811.944
510.109, 4779.123
510.591, 4740.877
511.073, 4700.942
511.555, 4662.976
512.037, 4625.374
512.519, 4583.449
513.002, 4535.044
513.484, 4488.709
513.966, 4451.032
514.448, 4420.950
514.930, 4396.455
515.412, 4379.829
515.894, 4365.736
516.376, 4353.352
516.859, 4342.135
517.341, 4326.133
517.823, 4299.096
518.305, 4269.659
518.787, 4242.800
519.269, 4216.009
519.751, 4196.869
520.233, 4191.972
520.716, 4191.763
521.198, 4178.636
521.680, 4143.550
522.162, 4116.741
522.644, 4111.008
523.126, 4122.490
523.608, 4115.910
524.090, 4087.700
524.572, 4057.643
525.055, 4040.532
525.537, 4035.032
526.019, 4033.872
526.501, 4037.990
526.983, 4040.300
527.465, 4033.744
527.947, 4018.263
528.429, 3993.468
528.911, 3937.212
529.394, 3887.309
529.876, 3890.422
530.358, 3938.986
530.840, 3973.036
531.322, 3947.550
531.804, 3905.244
532.286, 3876.704
532.768, 3874.116
533.250, 3871.801
533.733, 3858.470
534.215, 3844.516
534.697, 3846.321
535.179, 3885.142
535.661, 3910.799
536.143, 3910.996
536.625, 3888.444
537.107, 3867.645
537.589, 3846.078
538.072, 3831.679
538.554, 3832.378
539.036, 3848.470
539.518, 3857.808
540.000, 3857.022
540.482, 3856.966
540.964, 3877.137
541.446, 3911.883
541.929, 3938.071
542.411, 3941.833
542.893, 3938.137
543.375, 3947.237
543.857, 3966.419
544.339, 3983.012
544.821, 3984.965
545.303, 3984.035
545.786, 3991.197
546.268, 4010.472
546.750, 4024.358
547.232, 4012.427
547.714, 3998.355
548.196, 4006.739
548.678, 4066.322
549.160, 4118.599
549.643, 4158.282
550.125, 4186.392
550.607, 4205.476
551.089, 4212.496
551.571, 4216.703
552.053, 4220.441
552.535, 4223.541
553.017, 4234.975
553.499, 4257.362
553.982, 4278.170
554.464, 4284.415
554.946, 4277.953
555.428, 4266.748
555.910, 4249.126
556.392, 4234.370
556.874, 4238.447
557.356, 4255.752
557.838, 4269.947
558.321, 4276.035
558.803, 4273.427
559.285, 4258.237
559.767, 4230.795
560.249, 4205.442
560.731, 4182.889
561.213, 4167.571
561.695, 4163.543
562.177, 4187.238
562.660, 4195.854
563.142, 4177.093
563.624, 4145.973
564.106, 4123.878
564.588, 4110.698
565.070, 4108.046
565.552, 4119.863
566.034, 4142.629
566.516, 4158.166
566.999, 4166.077
567.481, 4169.140
567.963, 4166.558
568.445, 4160.280
568.927, 4157.869
569.409, 4159.854
569.891, 4165.705
570.373, 4180.295
570.856, 4197.647
571.338, 4205.383
571.820, 4188.069
572.302, 4174.632
572.784, 4187.537
573.266, 4219.497
573.748, 4250.404
574.230, 4277.497
574.713, 4297.962
575.195, 4306.594
575.677, 4299.766
576.159, 4304.944
576.641, 4331.990
577.123, 4362.421
577.605, 4382.017
578.087, 4383.233
578.570, 4397.353
579.052, 4428.453
579.534, 4471.071
580.016, 4515.707
580.498, 4562.355
580.980, 4613.201
581.462, 4672.242
581.944, 4733.524
582.426, 4778.526
582.909, 4810.220
583.391, 4851.001
583.873, 4928.001
584.355, 5015.787
584.837, 5082.876
585.319, 5121.374
585.801, 5163.739
586.283, 5228.782
586.765, 5305.459
587.248, 5382.578
587.730, 5442.627
588.212, 5519.449
588.694, 5627.743
589.176, 5755.866
589.658, 5875.963
590.140, 5986.202
590.622, 6091.606
591.104, 6192.541
591.587, 6289.715
592.069, 6386.844
592.551, 6483.011
593.033, 6586.531
593.515, 6707.611
593.997, 6842.139
594.479, 6968.730
594.961, 7083.141
595.443, 7198.792
595.926, 7338.144
596.408, 7490.441
596.890, 7632.395
597.372, 7746.392
597.854, 7857.643
598.336, 7986.982
598.818, 8128.189
599.300, 8252.899
599.783, 8366.996
600.265, 8453.615
600.747, 8495.536
601.229, 8484.424
601.711, 8491.802
602.193, 8547.438
602.675, 8585.447
603.157, 8543.589
603.640, 8405.120
604.122, 8292.472
604.604, 8222.877
605.086, 8168.131
605.568, 8037.467
606.050, 7856.016
606.532, 7811.721
607.014, 7704.208
607.497, 7677.714
607.979, 7631.573
608.461, 7566.807
608.943, 7427.667
609.425, 7384.565
609.907, 7302.985
610.389, 7219.800
610.871, 7169.031
611.353, 7078.175
611.836, 7024.322
612.318, 6980.988
612.800, 6927.057
613.282, 6849.037
613.764, 6781.392
614.246, 6718.678
614.728, 6672.128
615.210, 6571.532
615.692, 6541.965
616.175, 6495.132
616.657, 6432.012
617.139, 6303.705
617.621, 6259.561
618.103, 6181.688
618.585, 6102.441
619.067, 6070.125
619.549, 5951.307
620.031, 5918.263
620.514, 5850.977
620.996, 5775.750
621.478, 5729.343
621.960, 5696.288
622.442, 5646.501
622.924, 5561.683
623.406, 5479.711
623.888, 5411.112
624.370, 5347.901
624.853, 5277.112
625.335, 5190.801
625.817, 5111.276
626.299, 5038.794
626.781, 4977.519
627.263, 4956.044
627.745, 4982.195
628.227, 4979.132
628.710, 4879.757
629.192, 4718.164
629.674, 4602.531
630.156, 4534.471
630.638, 4478.479
631.120, 4404.915
631.602, 4326.210
632.084, 4258.563
632.567, 4208.179
633.049, 4160.572
633.531, 4105.434
634.013, 4049.732
634.495, 4003.330
634.977, 3977.001
635.459, 3948.653
635.941, 3915.318
636.424, 3877.710
636.906, 3837.021
637.388, 3791.336
637.870, 3748.759
638.352, 3711.645
638.834, 3680.598
639.316, 3657.532
639.798, 3642.718
640.280, 3628.519
640.763, 3608.781
641.245, 3585.282
641.727, 3560.985
642.209, 3535.977
642.691, 3512.616
643.173, 3494.669
643.655, 3478.307
644.137, 3459.254
644.619, 3429.874
645.102, 3405.434
645.584, 3391.808
646.066, 3385.236
646.548, 3376.315
647.030, 3364.173
647.512, 3351.027
647.994, 3336.826
648.476, 3321.987
648.958, 3307.598
649.441, 3293.037
649.923, 3283.446
650.405, 3290.010
650.887, 3303.817
651.369, 3294.780
651.851, 3261.414
652.333, 3225.618
652.815, 3205.433
653.297, 3192.635
653.780, 3176.995
654.262, 3154.938
654.744, 3133.967
655.226, 3123.513
655.708, 3113.920
656.190, 3092.458
656.672, 3032.996
657.154, 2994.067
657.636, 2989.203
658.119, 3006.761
658.601, 3015.549
659.083, 3014.616
659.565, 3009.076
660.047, 3001.277
660.529, 2990.304
661.011, 2968.515
661.494, 2936.520
661.976, 2911.260
662.458, 2910.548
662.940, 2920.564
663.422, 2924.245
663.904, 2919.824
664.386, 2911.734
664.868, 2900.630
665.350, 2887.988
665.833, 2874.757
666.315, 2857.898
666.797, 2845.610
667.279, 2839.916
667.761, 2837.765
668.243, 2835.073
668.725, 2831.437
669.207, 2828.529
669.690, 2827.843
670.172, 2826.620
670.654, 2813.490
671.136, 2790.050
671.618, 2776.926
672.100, 2801.059
672.582, 2832.589
673.064, 2820.138
673.546, 2771.314
674.029, 2732.638
674.511, 2736.899
674.993, 2754.874
675.475, 2768.925
675.957, 2777.388
676.439, 2781.963
676.921, 2780.490
677.403, 2777.269
677.885, 2775.085
678.368, 2774.621
678.850, 2773.066
679.332, 2770.240
679.814, 2766.236
680.296, 2762.632
680.778, 2758.666
681.260, 2745.172
681.742, 2735.637
682.224, 2747.058
682.707, 2753.393
683.189, 2754.913
683.671, 2737.203
684.153, 2744.325
684.635, 2741.496
685.117, 2738.259
685.599, 2748.876
686.081, 2733.963
686.563, 2744.361
687.046, 2744.655
687.528, 2749.574
688.010, 2744.479
688.492, 2742.477
688.974, 2750.491
689.456, 2752.959
689.938, 2746.712
690.420, 2741.424
690.903, 2733.315
691.385, 2757.519
691.867, 2782.641
692.349, 2771.419
692.831, 2743.497
693.313, 2727.645
693.795, 2737.598
694.277, 2747.100
694.760, 2739.638
695.242, 2725.846
695.724, 2721.390
696.206, 2739.146
696.688, 2752.096
697.170, 2755.125
697.652, 2752.180
698.134, 2755.331
698.617, 2766.348
699.099, 2773.309
699.581, 2768.983
700.063, 2758.855
700.545, 2758.858
701.027, 2767.936
701.509, 2778.088
701.991, 2785.287
702.473, 2790.400
702.956, 2791.835
703.438, 2789.648
703.920, 2793.835
704.402, 2819.097
704.884, 2844.052
705.366, 2853.169
705.848, 2839.755
706.330, 2831.075
706.812, 2828.884
707.295, 2828.960
707.777, 2827.400
708.259, 2824.212
708.741, 2819.596
709.223, 2812.265
709.705, 2808.044
710.187, 2817.511
710.669, 2836.058
711.151, 2852.758
711.634, 2863.643
712.116, 2871.903
712.598, 2877.822
713.080, 2882.883
713.562, 2890.050
714.044, 2905.606
714.526, 2917.041
715.008, 2919.417
715.490, 2915.063
715.973, 2914.504
716.455, 2918.511
716.937, 2923.538
717.419, 2927.112
717.901, 2930.500
718.383, 2940.835
718.865, 2957.992
719.347, 2974.031
719.830, 2979.531
720.312, 2983.221
720.794, 2998.640
721.276, 3027.259
721.758, 3050.577
722.240, 3055.910
722.722, 3055.874
723.204, 3059.728
723.687, 3071.187
724.169, 3078.149
724.651, 3072.498
725.133, 3072.031
725.615, 3101.307
726.097, 3164.028
726.579, 3202.187
727.061, 3203.561
727.544, 3195.152
728.026, 3209.413
728.508, 3242.331
728.990, 3285.379
729.472, 3344.398
729.954, 3398.766
730.436, 3431.784
730.918, 3450.039
731.400, 3466.698
731.883, 3496.072
732.365, 3510.185
732.847, 3493.386
733.329, 3458.282
733.811, 3451.996
734.293, 3484.341
734.775, 3509.745
735.257, 3510.962
735.739, 3492.303
736.222, 3458.169
736.704, 3411.303
737.186, 3377.658
737.668, 3387.293
738.150, 3409.611
738.632, 3412.987
739.114, 3396.880
739.596, 3379.625
740.078, 3311.889
740.561, 3293.088
741.043, 3302.123
741.525, 3304.403
742.007, 3300.286
742.489, 3270.626
742.971, 3273.952
743.453, 3264.058
743.935, 3253.622
744.417, 3261.591
744.900, 3235.645
745.382, 3241.517
745.864, 3244.377
746.346, 3266.061
746.828, 3284.574
747.310, 3294.750
747.792, 3302.353
748.274, 3307.622
748.757, 3312.854
749.239, 3321.000
749.721, 3333.535
750.203, 3348.048
750.685, 3367.017
751.167, 3386.168
751.649, 3396.568
752.131, 3397.706
752.614, 3404.096
753.096, 3421.475
753.578, 3442.735
754.060, 3456.666
754.542, 3465.048
755.024, 3473.034
755.506, 3476.724
755.988, 3486.307
756.471, 3506.030
756.953, 3535.968
757.435, 3576.355
757.917, 3654.307
758.399, 3708.030
758.881, 3712.958
759.363, 3680.139
759.845, 3677.163
760.327, 3707.532
760.810, 3743.767
761.292, 3775.038
761.774, 3801.210
762.256, 3816.668
762.738, 3823.331
763.220, 3834.672
763.702, 3857.079
764.184, 3889.099
764.666, 3934.557
765.148, 3995.385
765.631, 4044.540
766.113, 4069.119
766.595, 4089.242
767.077, 4114.672
767.559, 4146.880
768.041, 4170.172
768.523, 4181.262
769.005, 4196.133
769.487, 4238.486
769.970, 4294.938
770.452, 4323.996
770.934, 4318.963
771.416, 4316.874
771.898, 4347.862
772.380, 4394.662
772.862, 4441.791
773.344, 4490.134
773.827, 4528.414
774.309, 4549.651
774.791, 4564.726
775.273, 4580.077
775.755, 4591.720
776.237, 4626.531
776.719, 4693.752
777.201, 4766.222
777.683, 4807.708
778.166, 4825.467
778.648, 4836.452
779.130, 4833.384
779.612, 4853.992
780.094, 4885.508
780.576, 4936.282
781.058, 4982.386
781.541, 5024.075
782.023, 5048.071
782.505, 5094.899
782.987, 5132.580
783.469, 5174.784
783.951, 5223.596
784.433, 5280.435
784.915, 5327.871
785.397, 5362.604
785.880, 5366.773
786.362, 5351.563
786.844, 5354.803
787.326, 5408.963
787.808, 5469.936
788.290, 5502.988
788.772, 5519.548
789.254, 5547.784
789.737, 5612.762
790.219, 5667.152
790.701, 5695.278
791.183, 5706.848
791.665, 5739.407
792.147, 5797.427
792.629, 5843.751
793.111, 5853.346
793.593, 5850.802
794.076, 5890.028
794.558, 5962.865
795.040, 6034.440
795.522, 6085.354
796.004, 6130.874
796.486, 6176.027
796.968, 6223.036
797.450, 6282.316
797.932, 6352.748
798.415, 6438.815
798.897, 6547.387
799.379, 6673.350
799.861, 6777.399
800.343, 6855.876
800.825, 6952.208
801.307, 7101.679
801.789, 7280.186
802.271, 7443.299
802.754, 7595.302
803.236, 7775.809
803.718, 8002.137
804.200, 8262.757
804.682, 8556.166
805.164, 8882.726
805.646, 9227.075
806.128, 9563.484
806.610, 9962.183
807.093, 10463.710
807.575, 11064.600
808.057, 11693.100
808.539, 12351.510
809.021, 13072.110
809.503, 13905.820
809.985, 14799.990
810.468, 15728.090
810.950, 16687.561
811.432, 17540.881
811.914, 18355.381
812.396, 18949.650
812.878, 19240.980
813.360, 19241.971
813.842, 18877.311
814.324, 18094.029
814.807, 17074.119
815.289, 15871.910
815.771, 14528.240
816.253, 13205.690
816.735, 11905.090
817.217, 10731.420
817.699, 9742.369
818.181, 8913.622
818.664, 8237.849
819.146, 7727.580
819.628, 7288.826
820.110, 6906.255
820.592, 6582.662
821.074, 6332.779
821.556, 6163.176
822.038, 5995.447
822.520, 5828.993
823.003, 5672.448
823.485, 5537.490
823.967, 5415.595
824.449, 5282.336
824.931, 5136.497
825.413, 4997.978
825.895, 4884.221
826.377, 4780.321
826.859, 4677.083
827.342, 4573.731
827.824, 4470.240
828.306, 4362.642
828.788, 4262.525
829.270, 4181.646
829.752, 4119.482
830.234, 4040.461
830.716, 3943.814
831.198, 3851.855
831.681, 3787.008
832.163, 3738.220
832.645, 3690.698
833.127, 3642.121
833.609, 3603.407
834.091, 3579.606
834.573, 3566.182
835.055, 3559.711
835.537, 3560.881
836.020, 3565.956
836.502, 3575.939
836.984, 3586.341
837.466, 3593.994
837.948, 3599.184
838.430, 3602.879
838.912, 3605.158
839.394, 3605.727
839.877, 3601.379
840.359, 3597.318
840.841, 3597.916
841.323, 3604.348
841.805, 3607.883
842.287, 3564.640
842.769, 3525.696
843.251, 3519.921
843.734, 3506.095
844.216, 3484.653
844.698, 3432.762
845.180, 3420.187
845.662, 3391.856
846.144, 3362.880
846.626, 3355.834
847.108, 3308.379
847.591, 3300.979
848.073, 3277.596
848.555, 3261.529
849.037, 3226.338
849.519, 3209.367
850.001, 3192.221
850.483, 3175.429
850.965, 3156.779
851.447, 3132.577
851.930, 3105.701
852.412, 3086.131
852.894, 3073.697
853.376, 3061.870
853.858, 3045.702
854.340, 3029.067
854.822, 3014.839
855.304, 3003.351
855.786, 2991.675
856.269, 2975.333
856.751, 2965.387
857.233, 2971.983
857.715, 2991.469
858.197, 2987.498
858.679, 2960.332
859.161, 2932.563
859.643, 2918.945
860.125, 2913.260
860.608, 2909.117
861.090, 2906.453
861.572, 2907.189
862.054, 2920.406
862.536, 2928.050
863.018, 2919.519
863.500, 2897.646
863.982, 2887.030
864.464, 2866.951
864.947, 2883.652
865.429, 2891.425
865.911, 2890.750
866.393, 2856.323
866.875, 2865.480
867.357, 2857.170
867.839, 2848.144
868.321, 2863.435
868.804, 2833.917
869.286, 2846.437
869.768, 2867.783
870.250, 2887.857
870.732, 2900.616
871.214, 2902.113
871.696, 2896.707
872.178, 2895.152
872.661, 2897.203
873.143, 2901.386
873.625, 2912.327
874.107, 2919.599
874.589, 2908.836
875.071, 2888.593
875.553, 2879.298
876.035, 2890.550
876.518, 2908.169
877.000, 2937.892
877.482, 2967.094
877.964, 2962.547
878.446, 2925.205
878.928, 2899.506
879.410, 2902.375
879.892, 2912.720
880.374, 2903.879
880.857, 2885.755
881.339, 2875.440
881.821, 2892.500
882.303, 2900.028
882.785, 2881.352
883.267, 2854.787
883.749, 2844.693
884.231, 2854.504
884.713, 2857.173
885.196, 2848.023
885.678, 2835.222
886.160, 2827.994
886.642, 2824.900
887.124, 2823.804
887.606, 2825.301
888.088, 2825.233
888.570, 2819.996
889.052, 2813.503
889.534, 2809.548
890.017, 2809.787
890.499, 2806.069
890.981, 2794.650
891.463, 2790.109
891.945, 2813.522
892.427, 2854.281
892.909, 2884.597
893.391, 2901.368
893.874, 2907.582
894.356, 2891.959
894.838, 2875.914
895.320, 2876.489
895.802, 2898.425
896.284, 2919.290
896.766, 2938.753
897.248, 2957.856
897.731, 2979.615
898.213, 3002.151
898.695, 3014.873
899.177, 3018.169
899.659, 3018.534
900.141, 3018.562
900.623, 3018.829
901.105, 3017.957
901.588, 3016.665
902.070, 3023.193
902.552, 3044.488
903.034, 3062.995
903.516, 3072.115
903.998, 3074.448
904.480, 3078.848
904.962, 3085.300
905.444, 3094.185
905.927, 3104.936
906.409, 3118.848
906.891, 3141.604
907.373, 3168.351
907.855, 3186.936
908.337, 3182.929
908.819, 3183.899
909.301, 3187.392
909.783, 3203.113
910.266, 3191.340
910.748, 3219.253
911.230, 3237.534
911.712, 3246.698
912.194, 3219.439
912.676, 3239.212
913.158, 3244.486
913.640, 3256.403
914.122, 3219.206
914.605, 3194.197
915.087, 3196.164
915.569, 3208.625
916.051, 3220.302
916.533, 3232.293
917.015, 3222.348
917.497, 3186.147
917.979, 3148.262
918.461, 3132.668
918.944, 3129.310
919.426, 3125.112
919.908, 3117.891
920.390, 3113.962
920.872, 3117.993
921.354, 3123.210
921.836, 3125.179
922.318, 3123.726
922.801, 3131.941
923.283, 3151.056
923.765, 3164.734
924.247, 3156.907
924.729, 3140.238
925.211, 3129.654
925.693, 3125.767
926.175, 3128.969
926.657, 3151.085
927.140, 3167.182
927.622, 3165.953
928.104, 3152.952
928.586, 3147.073
929.068, 3148.604
929.550, 3155.603
930.032, 3168.383
930.515, 3184.995
930.997, 3209.911
931.479, 3235.695
931.961, 3247.774
932.443, 3205.409
932.925, 3192.763
933.407, 3184.480
933.889, 3220.209
934.371, 3245.255
934.854, 3260.191
935.336, 3234.734
935.818, 3261.436
936.300, 3267.238
936.782, 3272.178
937.264, 3306.221
937.746, 3286.640
938.228, 3320.220
938.710, 3332.579
939.193, 3354.655
939.675, 3351.350
940.157, 3356.181
940.639, 3374.075
941.121, 3384.260
941.603, 3385.665
942.085, 3391.944
942.567, 3420.678
943.049, 3455.634
943.532, 3469.469
944.014, 3466.101
944.496, 3471.924
944.978, 3501.262
945.460, 3536.988
945.942, 3577.684
946.424, 3619.613
946.906, 3644.573
947.388, 3651.713
947.871, 3665.493
948.353, 3698.568
948.835, 3734.986
949.317, 3753.586
949.799, 3761.283
950.281, 3770.578
950.763, 3773.032
951.245, 3795.612
951.728, 3853.175
952.210, 3920.111
952.692, 3963.661
953.174, 3983.370
953.656, 4023.659
954.138, 4091.751
954.620, 4157.652
955.102, 4180.240
955.584, 4191.029
956.067, 4226.142
956.549, 4293.725
957.031, 4363.427
957.513, 4435.055
957.995, 4501.812
958.477, 4557.107
958.959, 4603.210
959.442, 4666.607
959.924, 4745.840
960.406, 4824.666
960.888, 4893.650
961.370, 4957.628
961.852, 5022.521
962.334, 5086.023
962.816, 5137.463
963.298, 5162.186
963.781, 5195.760
964.263, 5246.732
964.745, 5306.608
965.227, 5363.964
965.709, 5417.864
966.191, 5459.914
966.673, 5488.383
967.155, 5506.192
967.638, 5511.125
968.120, 5509.447
968.602, 5508.402
969.084, 5512.384
969.566, 5507.979
970.048, 5494.117
970.530, 5474.603
971.012, 5453.198
971.494, 5428.739
971.977, 5392.414
972.459, 5345.373
972.941, 5310.493
973.423, 5310.215
973.905, 5318.629
974.387, 5316.398
974.869, 5307.138
975.351, 5319.882
975.833, 5359.430
976.316, 5403.306
976.798, 5445.326
977.280, 5486.691
977.762, 5528.717
978.244, 5571.599
978.726, 5616.398
979.208, 5665.953
979.690, 5713.011
980.172, 5749.165
980.655, 5785.077
981.137, 5835.139
981.619, 5903.548
982.101, 5953.633
982.583, 5981.187
983.065, 6003.559
983.547, 6042.672
984.029, 6084.331
984.511, 6109.430
984.994, 6115.852
985.476, 6113.761
985.958, 6088.013
986.440, 6075.123
986.922, 6094.651
987.404, 6138.871
987.886, 6162.945
988.369, 6167.479
988.851, 6164.450
989.333, 6157.964
989.815, 6148.153
990.297, 6131.491
990.779, 6112.285
991.261, 6099.150
991.743, 6104.089
992.225, 6097.211
992.708, 6071.124
993.190, 6041.713
993.672, 6033.063
994.154, 6038.715
994.636, 6031.373
995.118, 6006.541
995.600, 5978.906
996.082, 5971.245
996.565, 5954.701
997.047, 5898.300
997.529, 5799.310
998.011, 5733.813
998.493, 5714.104
998.975, 5681.396
999.457, 5605.913
999.939, 5498.945
1000.421, 5368.143
1000.904, 5221.014
1001.386, 5082.753
1001.868, 4965.221
1002.350, 4854.805
1002.832, 4749.399
1003.314, 4646.248
1003.796, 4542.708
1004.278, 4439.635
1004.760, 4325.163
1005.243, 4196.667
1005.725, 4070.120
1006.207, 3958.045
1006.689, 3860.452
1007.171, 3783.800
1007.653, 3730.326
1008.135, 3675.603
1008.617, 3618.000
1009.099, 3555.926
1009.582, 3483.354
1010.064, 3407.374
1010.546, 3360.053
1011.028, 3338.782
1011.510, 3323.777
1011.992, 3312.443
1012.474, 3296.188
1012.956, 3258.947
1013.438, 3216.223
1013.921, 3199.511
1014.403, 3220.512
1014.885, 3233.754
1015.367, 3233.412
1015.849, 3228.907
1016.331, 3234.844
1016.813, 3243.530
1017.295, 3235.449
1017.778, 3206.174
1018.260, 3190.205
1018.742, 3217.466
1019.224, 3245.547
1019.706, 3253.254
1020.188, 3243.661
1020.670, 3240.789
1021.152, 3244.620
1021.634, 3253.951
1022.117, 3273.364
1022.599, 3291.712
1023.081, 3299.733
1023.563, 3298.529
1024.045, 3289.722
1024.527, 3261.449
1025.009, 3246.065
1025.491, 3246.733
1025.974, 3257.586
1026.456, 3277.508
1026.938, 3301.595
1027.420, 3311.537
1027.902, 3305.508
1028.384, 3303.826
1028.866, 3325.259
1029.348, 3348.561
1029.830, 3362.991
1030.313, 3368.744
1030.795, 3361.599
1031.277, 3339.385
1031.759, 3326.945
1032.241, 3338.256
1032.723, 3357.136
1033.205, 3359.676
1033.687, 3354.308
1034.170, 3355.244
1034.652, 3369.804
1035.134, 3386.053
1035.616, 3404.232
1036.098, 3421.470
1036.580, 3434.824
1037.062, 3444.575
1037.544, 3444.704
1038.026, 3436.582
1038.509, 3422.496
1038.991, 3445.451
1039.473, 3459.414
1039.955, 3464.867
1040.437, 3436.324
1040.919, 3451.680
1041.401, 3449.443
1041.883, 3446.486
1042.365, 3468.020
1042.848, 3444.427
1043.330, 3465.573
1043.812, 3468.858
1044.294, 3480.317
1044.776, 3474.076
1045.258, 3473.302
1045.740, 3490.234
1046.222, 3497.362
1046.705, 3489.088
1047.187, 3501.067
1047.669, 3476.850
1048.151, 3487.338
1048.633, 3514.401
1049.115, 3534.063
1049.597, 3546.382
1050.079, 3547.063
1050.562, 3540.718
1051.044, 3540.290
1051.526, 3547.323
1052.008, 3553.993
1052.490, 3557.479
1052.972, 3566.085
1053.454, 3594.842
1053.936, 3633.616
1054.418, 3670.121
1054.901, 3704.059
1055.383, 3719.265
1055.865, 3690.974
1056.347, 3667.723
1056.829, 3670.708
1057.311, 3694.324
1057.793, 3717.132
1058.275, 3738.331
1058.757, 3752.368
1059.240, 3748.361
1059.722, 3748.202
1060.204, 3771.736
1060.686, 3804.710
1061.168, 3827.674
1061.650, 3840.845
1062.132, 3841.466
1062.614, 3828.304
1063.097, 3808.842
1063.579, 3780.721
1064.061, 3756.229
1064.543, 3759.727
1065.025, 3788.336
1065.507, 3804.564
1065.989, 3787.537
1066.471, 3770.980
1066.953, 3763.052
1067.436, 3759.393
1067.918, 3750.096
1068.400, 3736.646
1068.882, 3726.278
1069.364, 3722.161
1069.846, 3715.572
1070.328, 3695.433
1070.810, 3675.115
1071.292, 3665.943
1071.775, 3668.395
1072.257, 3671.566
1072.739, 3675.430
1073.221, 3679.608
1073.703, 3689.797
1074.185, 3695.240
1074.667, 3679.208
1075.149, 3649.647
1075.631, 3624.398
1076.114, 3604.989
1076.596, 3595.862
1077.078, 3601.011
1077.560, 3609.163
1078.042, 3604.208
1078.524, 3592.641
1079.006, 3590.070
1079.488, 3598.016
1079.971, 3616.005
1080.453, 3667.087
1080.935, 3701.705
1081.417, 3691.500
1081.899, 3651.943
1082.381, 3634.234
1082.863, 3637.510
1083.345, 3649.483
1083.828, 3668.718
1084.310, 3688.846
1084.792, 3702.336
1085.274, 3714.728
1085.756, 3733.125
1086.238, 3760.193
1086.720, 3781.503
1087.202, 3795.557
1087.684, 3810.152
1088.167, 3827.621
1088.649, 3850.490
1089.131, 3888.577
1089.613, 3935.530
1090.095, 3973.444
1090.577, 3994.744
1091.059, 4006.699
1091.541, 4002.093
1092.023, 4000.859
1092.506, 4034.749
1092.988, 4093.714
1093.470, 4136.406
1093.952, 4159.182
1094.434, 4178.703
1094.916, 4197.088
1095.398, 4221.478
1095.880, 4216.579
1096.363, 4237.641
1096.845, 4272.835
1097.327, 4304.590
1097.809, 4333.078
1098.291, 4348.545
1098.773, 4380.827
1099.255, 4406.375
1099.737, 4435.258
1100.219, 4438.193
1100.702, 4447.387
1101.184, 4475.229
1101.666, 4528.526
1102.148, 4577.003
1102.630, 4600.076
1103.112, 4610.394
1103.594, 4628.766
1104.076, 4653.579
1104.558, 4680.270
1105.041, 4708.326
1105.523, 4737.622
1106.005, 4771.373
1106.487, 4801.101
1106.969, 4810.321
1107.451, 4806.685
1107.933, 4828.591
1108.415, 4876.219
1108.898, 4918.480
1109.380, 4926.554
1109.862, 4938.135
1110.344, 4980.488
1110.826, 5036.109
1111.308, 5060.636
1111.790, 5054.920
1112.272, 5046.276
1112.755, 5038.364
1113.237, 5038.633
1113.719, 5059.894
1114.201, 5088.243
1114.683, 5109.434
1115.165, 5121.884
1115.647, 5142.332
1116.129, 5171.656
1116.611, 5206.307
1117.094, 5251.902
1117.576, 5291.603
1118.058, 5295.494
1118.540, 5277.729
1119.022, 5261.555
1119.504, 5239.540
1119.986, 5250.047
1120.468, 5307.119
1120.950, 5368.580
1121.433, 5402.889
1121.915, 5416.429
1122.397, 5422.362
1122.879, 5422.374
1123.361, 5422.289
1123.843, 5434.566
1124.325, 5433.314
1124.807, 5406.281
1125.290, 5370.077
1125.772, 5326.150
1126.254, 5296.780
1126.736, 5303.489
1127.218, 5301.438
1127.700, 5291.103
1128.182, 5247.659
1128.664, 5246.967
1129.146, 5229.141
1129.629, 5219.769
1130.111, 5204.954
1130.593, 5177.425
1131.075, 5146.810
1131.557, 5113.447
1132.039, 5086.600
1132.521, 5087.345
1133.003, 5091.479
1133.485, 5067.932
1133.968, 5009.848
1134.450, 4982.917
1134.932, 4994.294
1135.414, 5000.403
1135.896, 4974.446
1136.378, 4940.816
1136.860, 4935.431
1137.342, 4947.630
1137.825, 4960.070
1138.307, 4976.222
1138.789, 4974.236
1139.271, 4944.639
1139.753, 4919.545
1140.235, 4935.027
1140.717, 4969.048
1141.199, 4968.376
1141.682, 4940.460
1142.164, 4918.228
1142.646, 4914.416
1143.128, 4919.070
1143.610, 4934.142
1144.092, 4950.941
1144.574, 4958.878
1145.056, 4959.215
1145.538, 4952.462
1146.021, 4939.521
1146.503, 4936.095
1146.985, 4963.855
1147.467, 4987.788
1147.949, 4989.371
1148.431, 4979.946
1148.913, 4991.344
1149.395, 5019.608
1149.877, 5028.528
1150.360, 5006.126
1150.842, 4988.497
1151.324, 5009.792
1151.806, 5037.846
1152.288, 5046.729
1152.770, 5038.994
1153.252, 5040.819
1153.734, 5052.138
1154.217, 5070.656
1154.699, 5103.751
1155.181, 5126.559
1155.663, 5100.818
1156.145, 5061.296
1156.627, 5055.027
1157.109, 5093.310
1157.591, 5103.065
1158.073, 5081.285
1158.556, 5055.258
1159.038, 5039.709
1159.520, 5030.457
1160.002, 5024.508
1160.484, 5020.967
1160.966, 5018.236
1161.448, 5016.884
1161.930, 5014.335
1162.412, 5010.662
1162.895, 5004.936
1163.377, 5002.808
1163.859, 4994.292
1164.341, 4953.694
1164.823, 4891.070
1165.305, 4850.844
1165.787, 4857.096
1166.269, 4863.404
1166.752, 4865.372
1167.234, 4863.875
1167.716, 4852.765
1168.198, 4841.739
1168.680, 4826.704
1169.162, 4847.947
1169.644, 4860.383
1170.126, 4864.487
1170.609, 4835.302
1171.091, 4849.103
1171.573, 4845.677
1172.055, 4841.543
1172.537, 4861.396
1173.019, 4853.039
1173.501, 4868.394
1173.983, 4895.311
1174.465, 4937.989
1174.948, 4970.366
1175.430, 4978.736
1175.912, 4971.754
1176.394, 4974.590
1176.876, 4986.300
1177.358, 4996.517
1177.840, 4998.157
1178.322, 5037.334
1178.804, 5067.396
1179.287, 5088.878
1179.769, 5075.878
1180.251, 5107.352
1180.733, 5121.005
1181.215, 5143.477
1181.697, 5131.725
1182.179, 5131.782
1182.661, 5127.055
1183.144, 5105.489
1183.626, 5078.341
1184.108, 5057.794
1184.590, 5043.896
1185.072, 5012.805
1185.554, 4966.097
1186.036, 4925.116
1186.518, 4911.218
1187.000, 4896.666
1187.483, 4830.369
1187.965, 4775.008
1188.447, 4734.658
1188.929, 4728.227
1189.411, 4713.558
1189.893, 4691.106
1190.375, 4637.529
1190.857, 4624.136
1191.339, 4594.646
1191.822, 4573.072
1192.304, 4570.421
1192.786, 4553.390
1193.268, 4521.451
1193.750, 4479.978
1194.232, 4428.323
1194.714, 4382.124
1195.196, 4344.808
1195.678, 4328.058
1196.161, 4353.435
1196.643, 4408.728
1197.125, 4445.802
1197.607, 4463.540
1198.089, 4475.308
1198.571, 4482.480
1199.053, 4492.005
1199.535, 4531.731
1200.018, 4560.761
1200.500, 4535.427
1200.982, 4458.314
1201.464, 4376.400
1201.946, 4286.518
1202.428, 4230.682
1202.910, 4238.502
1203.392, 4235.892
1203.875, 4116.274
1204.357, 3969.283
1204.839, 3895.802
1205.321, 3903.816
1205.803, 3898.722
1206.285, 3878.560
1206.767, 3866.185
1207.249, 3815.340
1207.731, 3831.214
1208.214, 3830.846
1208.696, 3815.197
1209.178, 3738.333
1209.660, 3740.517
1210.142, 3711.025
1210.624, 3680.229
1211.106, 3693.544
1211.588, 3625.579
1212.070, 3638.196
1212.553, 3618.599
1213.035, 3613.766
1213.517, 3577.062
1213.999, 3550.199
1214.481, 3555.227
1214.963, 3542.594
1215.445, 3502.221
1215.927, 3464.899
1216.410, 3437.342
1216.892, 3422.821
1217.374, 3417.296
1217.856, 3411.790
1218.338, 3403.679
1218.820, 3407.407
1219.302, 3425.645
1219.784, 3435.280
1220.266, 3405.445
1220.749, 3370.158
1221.231, 3356.730
1221.713, 3363.558
1222.195, 3385.245
1222.677, 3426.510
1223.159, 3459.841
1223.641, 3484.229
1224.123, 3488.816
1224.605, 3437.508
1225.088, 3385.438
1225.570, 3388.747
1226.052, 3433.569
1226.534, 3462.154
1227.016, 3473.049
1227.498, 3470.492
1227.980, 3452.865
1228.462, 3440.237
1228.945, 3458.627
1229.427, 3482.790
1229.909, 3488.423
1230.391, 3480.419
1230.873, 3486.028
1231.355, 3507.071
1231.837, 3524.304
1232.319, 3534.413
1232.802, 3539.519
1233.284, 3529.679
1233.766, 3525.567
1234.248, 3553.138
1234.730, 3602.791
1235.212, 3629.745
1235.694, 3632.965
1236.176, 3627.789
1236.658, 3614.834
1237.141, 3609.338
1237.623, 3635.586
1238.105, 3665.213
1238.587, 3673.791
1239.069, 3665.490
1239.551, 3658.263
1240.033, 3652.234
1240.515, 3648.526
1240.997, 3648.464
1241.480, 3646.738
1241.962, 3633.671
1242.444, 3622.860
1242.926, 3627.604
1243.408, 3643.630
1243.890, 3647.592
1244.372, 3639.776
1244.854, 3621.649
1245.337, 3589.722
1245.819, 3560.822
1246.301, 3546.803
1246.783, 3538.928
1247.265, 3531.967
1247.747, 3525.176
1248.229, 3515.713
1248.711, 3502.955
1249.193, 3482.421
1249.676, 3447.746
1250.158, 3418.547
1250.640, 3415.635
1251.122, 3410.255
1251.604, 3382.106
1252.086, 3337.449
1252.568, 3309.457
1253.050, 3294.422
1253.532, 3277.037
1254.015, 3248.923
1254.497, 3224.295
1254.979, 3204.490
1255.461, 3194.570
1255.943, 3203.326
1256.425, 3222.661
1256.907, 3221.330
1257.389, 3203.913
1257.872, 3183.937
1258.354, 3163.772
1258.836, 3146.083
1259.318, 3131.515
1259.800, 3118.479
1260.282, 3104.275
1260.764, 3091.705
1261.246, 3093.114
1261.729, 3102.294
1262.211, 3103.140
1262.693, 3079.523
1263.175, 3069.532
1263.657, 3082.129
1264.139, 3091.605
1264.621, 3078.678
1265.103, 3051.693
1265.585, 3014.313
1266.068, 2976.674
1266.550, 2961.900
1267.032, 2996.925
1267.514, 3014.952
1267.996, 3012.874
1268.478, 3006.283
1268.960, 3005.360
1269.442, 3007.060
1269.924, 3007.878
1270.407, 3008.119
1270.889, 3009.066
1271.371, 3013.446
1271.853, 3007.790
1272.335, 2990.515
1272.817, 2975.940
1273.299, 2974.280
1273.781, 2979.982
1274.264, 2993.878
1274.746, 3009.253
##END=



