##NAMES=Coalingite
##RRUFFID=R110196
##IDEAL CHEMISTRY=Mg_10_Fe^3+^_2_CO_3_(OH)_24_&#183;2H_2_O
##LOCALITY=San Benito County, California (about 35 miles NW of Coalinga), USA
##OWNER=RRUFF
##SOURCE=James Shigley
##DESCRIPTION=Golden-reddish-brown flakes
##STATUS=The identification of this mineral has been confirmed by single-crystal X-ray diffraction.
##URL=rruff.info/R110196
113.7809, 1372.312
114.2630, 1369.898
114.7451, 1368.100
115.2272, 1367.209
115.7094, 1367.161
116.1915, 1366.945
116.6736, 1367.035
117.1557, 1366.518
117.6378, 1364.712
118.1199, 1361.881
118.6021, 1358.908
119.0842, 1356.416
119.5663, 1354.485
120.0484, 1353.340
120.5305, 1353.193
121.0126, 1353.640
121.4948, 1354.464
121.9769, 1355.664
122.4590, 1356.942
122.9411, 1358.464
123.4232, 1360.010
123.9053, 1360.292
124.3875, 1357.953
124.8696, 1353.947
125.3517, 1350.850
125.8338, 1348.817
126.3159, 1348.110
126.7980, 1349.297
127.2802, 1351.990
127.7623, 1354.385
128.2444, 1354.952
128.7265, 1353.537
129.2086, 1351.926
129.6907, 1351.243
130.1729, 1349.623
130.6550, 1346.067
131.1371, 1340.496
131.6192, 1333.551
132.1013, 1325.861
132.5834, 1316.107
133.0656, 1308.231
133.5477, 1303.390
134.0298, 1299.453
134.5119, 1294.759
134.9940, 1288.775
135.4761, 1282.144
135.9583, 1276.372
136.4404, 1271.501
136.9225, 1267.583
137.4046, 1264.959
137.8867, 1263.224
138.3688, 1262.274
138.8510, 1262.370
139.3331, 1262.504
139.8152, 1259.228
140.2973, 1250.719
140.7794, 1242.260
141.2615, 1236.241
141.7437, 1232.251
142.2258, 1228.329
142.7079, 1223.506
143.1900, 1218.091
143.6721, 1212.703
144.1542, 1206.841
144.6364, 1201.651
145.1185, 1198.999
145.6006, 1199.488
146.0827, 1198.850
146.5648, 1193.324
147.0469, 1185.953
147.5291, 1179.752
148.0112, 1175.969
148.4933, 1173.769
148.9754, 1171.301
149.4575, 1168.334
149.9396, 1165.484
150.4218, 1163.420
150.9039, 1161.470
151.3860, 1158.673
151.8681, 1154.311
152.3502, 1148.598
152.8323, 1143.645
153.3145, 1138.852
153.7966, 1135.588
154.2787, 1135.884
154.7608, 1137.975
155.2429, 1138.374
155.7250, 1134.013
156.2072, 1124.377
156.6893, 1117.809
157.1714, 1115.990
157.6535, 1114.968
158.1356, 1113.631
158.6177, 1111.694
159.0999, 1108.860
159.5820, 1104.598
160.0641, 1098.516
160.5462, 1094.245
161.0283, 1092.252
161.5104, 1091.638
161.9926, 1092.829
162.4747, 1095.794
162.9568, 1097.580
163.4389, 1094.050
163.9210, 1085.517
164.4031, 1078.340
164.8853, 1074.305
165.3674, 1072.031
165.8495, 1069.470
166.3316, 1066.060
166.8137, 1063.122
167.2958, 1062.398
167.7780, 1063.343
168.2601, 1063.972
168.7422, 1063.576
169.2243, 1062.162
169.7064, 1059.616
170.1885, 1055.101
170.6707, 1050.466
171.1528, 1046.573
171.6349, 1043.485
172.1170, 1041.303
172.5991, 1040.984
173.0812, 1042.725
173.5634, 1042.092
174.0455, 1035.514
174.5276, 1029.055
175.0097, 1025.230
175.4918, 1024.041
175.9739, 1024.131
176.4561, 1024.291
176.9382, 1024.794
177.4203, 1024.364
177.9024, 1022.417
178.3845, 1020.106
178.8666, 1017.854
179.3488, 1015.814
179.8309, 1014.027
180.3130, 1012.602
180.7951, 1011.711
181.2772, 1010.835
181.7593, 1010.253
182.2415, 1009.518
182.7236, 1008.393
183.2057, 1006.799
183.6878, 1004.652
184.1699, 1001.714
184.6520, 996.9172
185.1342, 993.6091
185.6163, 992.9051
186.0984, 993.2866
186.5805, 993.1155
187.0626, 991.8909
187.5447, 990.2865
188.0269, 989.6278
188.5090, 990.3671
188.9911, 990.1453
189.4732, 987.0965
189.9553, 982.9440
190.4374, 981.1790
190.9196, 983.5422
191.4017, 986.8969
191.8838, 986.2533
192.3659, 981.4163
192.8480, 976.9182
193.3301, 974.9684
193.8123, 975.0676
194.2944, 975.4252
194.7765, 975.7441
195.2586, 976.0016
195.7407, 976.4714
196.2228, 977.1684
196.7050, 977.1096
197.1871, 975.1184
197.6692, 971.3019
198.1513, 968.0617
198.6334, 966.1961
199.1155, 964.8271
199.5977, 963.2017
200.0798, 961.3202
200.5619, 959.8992
201.0440, 959.9739
201.5261, 961.8894
202.0082, 963.0245
202.4904, 962.7386
202.9725, 961.7906
203.4546, 960.0250
203.9367, 957.6398
204.4188, 955.5856
204.9009, 955.4430
205.3831, 958.4025
205.8652, 959.5527
206.3473, 957.6435
206.8294, 954.8773
207.3115, 952.1188
207.7936, 949.6910
208.2758, 947.7684
208.7579, 946.6310
209.2400, 946.4643
209.7221, 946.7875
210.2042, 947.3987
210.6863, 948.5231
211.1685, 950.8248
211.6506, 954.2086
212.1327, 957.4580
212.6148, 958.7731
213.0969, 957.0296
213.5790, 955.4645
214.0612, 953.5404
214.5433, 952.0956
215.0254, 952.0370
215.5075, 953.5063
215.9896, 955.5940
216.4717, 957.0554
216.9539, 957.7526
217.4360, 957.9724
217.9181, 957.1695
218.4002, 956.1642
218.8823, 955.9114
219.3644, 956.6485
219.8466, 957.5775
220.3287, 957.4923
220.8108, 956.1377
221.2929, 955.2681
221.7750, 955.2042
222.2571, 955.7182
222.7393, 956.7149
223.2214, 958.2598
223.7035, 959.7748
224.1856, 960.2281
224.6677, 959.7040
225.1498, 959.7842
225.6320, 961.4486
226.1141, 963.8300
226.5962, 965.4579
227.0783, 965.9724
227.5604, 966.0989
228.0425, 966.3969
228.5247, 966.8605
229.0068, 967.6262
229.4889, 968.8307
229.9710, 970.3605
230.4531, 972.0750
230.9352, 974.1579
231.4174, 975.9737
231.8995, 976.8935
232.3816, 977.1634
232.8637, 977.4174
233.3458, 978.1072
233.8279, 979.0306
234.3101, 979.5765
234.7922, 979.7936
235.2743, 979.4513
235.7564, 978.3307
236.2385, 976.6518
236.7206, 974.8114
237.2028, 972.8377
237.6849, 970.8762
238.1670, 969.6584
238.6491, 970.0710
239.1312, 969.8672
239.6133, 967.5175
240.0955, 964.0897
240.5776, 961.3551
241.0597, 960.4376
241.5418, 961.0293
242.0239, 961.6852
242.5060, 962.4121
242.9882, 963.2095
243.4703, 964.4086
243.9524, 965.6094
244.4345, 966.1171
244.9166, 965.3795
245.3987, 963.8177
245.8809, 963.5271
246.3630, 966.1993
246.8451, 967.9615
247.3272, 967.3671
247.8093, 965.6376
248.2914, 964.4206
248.7736, 964.6469
249.2557, 965.8739
249.7378, 966.2684
250.2199, 964.5499
250.7020, 963.5857
251.1841, 964.2043
251.6663, 965.6109
252.1484, 966.9478
252.6305, 967.8145
253.1126, 968.2278
253.5947, 968.2258
254.0768, 966.6264
254.5590, 966.0970
255.0411, 967.3994
255.5232, 969.6054
256.0053, 971.8057
256.4874, 973.6064
256.9695, 975.0590
257.4517, 976.2852
257.9338, 977.5251
258.4159, 978.1779
258.8980, 977.1915
259.3801, 976.0644
259.8622, 976.7409
260.3444, 979.8455
260.8265, 983.8711
261.3086, 985.9467
261.7907, 984.1992
262.2728, 983.3497
262.7549, 984.5392
263.2371, 986.1184
263.7192, 985.8013
264.2013, 983.0762
264.6834, 980.4099
265.1655, 981.8466
265.6476, 990.5480
266.1298, 995.5294
266.6119, 993.3050
267.0940, 989.1060
267.5761, 987.9250
268.0582, 990.7041
268.5403, 994.9421
269.0225, 998.0199
269.5046, 999.8494
269.9867, 1000.079
270.4688, 997.0686
270.9509, 993.4690
271.4330, 991.1967
271.9152, 990.5484
272.3973, 991.5983
272.8794, 995.2003
273.3615, 1001.537
273.8436, 1004.851
274.3257, 1002.645
274.8079, 999.0943
275.2900, 997.3184
275.7721, 997.4640
276.2542, 998.3217
276.7363, 999.2306
277.2184, 1000.096
277.7006, 1000.511
278.1827, 1000.158
278.6648, 999.5963
279.1469, 999.2278
279.6290, 999.0274
280.1111, 998.6933
280.5933, 997.8913
281.0754, 996.8870
281.5575, 996.5602
282.0396, 997.8449
282.5217, 998.6844
283.0038, 997.4639
283.4860, 994.5341
283.9681, 991.7477
284.4502, 990.0626
284.9323, 988.9192
285.4144, 987.0737
285.8965, 984.2428
286.3787, 981.4413
286.8608, 979.1588
287.3429, 977.3525
287.8250, 975.9355
288.3071, 975.1520
288.7892, 974.3662
289.2714, 972.5234
289.7535, 969.4923
290.2356, 966.6553
290.7177, 964.9069
291.1998, 963.8464
291.6819, 962.3449
292.1641, 960.0270
292.6462, 957.4554
293.1283, 955.3961
293.6104, 953.7736
294.0925, 951.7326
294.5746, 947.8963
295.0568, 943.5922
295.5389, 942.0374
296.0210, 944.5061
296.5031, 947.0215
296.9852, 945.2040
297.4673, 940.5355
297.9495, 936.9717
298.4316, 936.9267
298.9137, 938.2878
299.3958, 937.5295
299.8779, 934.0636
300.3600, 930.9947
300.8422, 931.5665
301.3243, 933.7803
301.8064, 934.0583
302.2885, 930.3217
302.7706, 925.5944
303.2527, 923.7027
303.7349, 924.8672
304.2170, 925.5839
304.6991, 923.6868
305.1812, 920.6198
305.6633, 918.3525
306.1454, 917.2874
306.6276, 916.6428
307.1097, 916.1804
307.5918, 915.8353
308.0739, 914.1509
308.5560, 909.1808
309.0381, 904.0296
309.5203, 902.5896
310.0024, 905.3060
310.4845, 907.9799
310.9666, 907.3981
311.4487, 904.2034
311.9308, 901.5460
312.4130, 900.0978
312.8951, 899.2807
313.3772, 898.6586
313.8593, 898.1932
314.3414, 897.6675
314.8235, 897.1034
315.3057, 896.3926
315.7878, 895.1845
316.2699, 893.3152
316.7520, 891.2793
317.2341, 889.3372
317.7162, 887.5121
318.1984, 885.8712
318.6805, 884.3105
319.1626, 883.0192
319.6447, 882.5596
320.1268, 883.1838
320.6089, 883.3887
321.0911, 881.8937
321.5732, 879.5522
322.0553, 877.4645
322.5374, 875.7838
323.0195, 874.5102
323.5016, 874.0402
323.9838, 874.3846
324.4659, 873.8631
324.9480, 871.2102
325.4301, 867.7774
325.9122, 864.9847
326.3943, 862.7644
326.8765, 861.8189
327.3586, 863.7926
327.8407, 867.9508
328.3228, 869.9495
328.8049, 867.8937
329.2870, 864.5856
329.7692, 862.9652
330.2513, 862.8884
330.7334, 862.8555
331.2155, 862.1311
331.6976, 860.9379
332.1797, 859.6379
332.6619, 858.0560
333.1440, 856.9687
333.6261, 857.5276
334.1082, 859.1116
334.5903, 860.2799
335.0724, 860.4650
335.5546, 860.0676
336.0367, 859.6395
336.5188, 859.2188
337.0009, 858.3873
337.4830, 856.5015
337.9651, 854.1647
338.4473, 852.4746
338.9294, 851.5272
339.4115, 851.2865
339.8936, 852.2240
340.3757, 854.1267
340.8578, 855.2719
341.3400, 854.6572
341.8221, 853.3419
342.3042, 852.9503
342.7863, 853.5685
343.2684, 854.4866
343.7505, 855.8677
344.2327, 857.2755
344.7148, 857.4127
345.1969, 855.6466
345.6790, 853.5319
346.1611, 853.2542
346.6432, 854.4824
347.1254, 854.9476
347.6075, 853.3586
348.0896, 851.0328
348.5717, 849.6757
349.0538, 849.4522
349.5359, 849.3578
350.0181, 848.3887
350.5002, 846.9343
350.9823, 846.6331
351.4644, 848.8300
351.9465, 851.1298
352.4286, 851.9420
352.9108, 851.4457
353.3929, 850.4447
353.8750, 849.1575
354.3571, 847.7660
354.8392, 846.7546
355.3214, 846.3252
355.8035, 845.7672
356.2856, 844.7488
356.7677, 843.4484
357.2498, 842.0018
357.7319, 840.3510
358.2141, 839.1118
358.6962, 839.4519
359.1783, 841.7727
359.6604, 843.0995
360.1425, 842.7186
360.6246, 841.4418
361.1068, 839.6249
361.5889, 837.4193
362.0710, 835.7604
362.5531, 835.6412
363.0352, 837.0186
363.5173, 837.2888
363.9995, 834.3137
364.4816, 832.4369
364.9637, 835.2641
365.4458, 840.9527
365.9279, 844.3992
366.4100, 842.6282
366.8922, 837.5822
367.3743, 835.6644
367.8564, 839.7711
368.3385, 842.6674
368.8206, 842.6224
369.3027, 841.2382
369.7849, 840.2076
370.2670, 840.0308
370.7491, 840.4437
371.2312, 841.2568
371.7133, 843.1337
372.1954, 843.1200
372.6776, 839.1210
373.1597, 835.1339
373.6418, 833.9684
374.1239, 835.2908
374.6060, 836.6951
375.0881, 836.1283
375.5703, 833.7032
376.0524, 833.2245
376.5345, 836.8504
377.0166, 839.9091
377.4987, 841.0363
377.9808, 841.0367
378.4630, 841.2607
378.9451, 842.3359
379.4272, 843.6610
379.9093, 843.7043
380.3914, 841.0295
380.8735, 839.4820
381.3557, 839.8395
381.8378, 840.7862
382.3199, 841.5370
382.8020, 841.8818
383.2841, 841.7949
383.7662, 840.8807
384.2484, 838.6788
384.7305, 838.8649
385.2126, 844.3626
385.6947, 849.5147
386.1768, 852.6843
386.6589, 854.1218
387.1411, 854.4768
387.6232, 853.9078
388.1053, 852.9060
388.5874, 853.4399
389.0695, 856.8078
389.5516, 859.2383
390.0338, 859.7070
390.5159, 859.0994
390.9980, 858.1472
391.4801, 857.0579
391.9622, 855.6848
392.4443, 853.9942
392.9265, 852.0677
393.4086, 849.0778
393.8907, 844.0452
394.3728, 838.7116
394.8549, 833.8651
395.3370, 829.5650
395.8192, 825.8302
396.3013, 822.6328
396.7834, 820.0080
397.2655, 818.1307
397.7476, 817.0986
398.2297, 816.5763
398.7119, 817.2097
399.1940, 817.9950
399.6761, 817.3727
400.1582, 814.4015
400.6403, 811.1498
401.1224, 810.1194
401.6046, 811.1335
402.0867, 811.1318
402.5688, 808.0869
403.0509, 804.9409
403.5330, 805.6917
404.0151, 810.4242
404.4973, 814.3812
404.9794, 815.0974
405.4615, 813.8001
405.9436, 812.2802
406.4257, 810.6436
406.9078, 809.6750
407.3900, 810.4476
407.8721, 812.5753
408.3542, 813.9290
408.8363, 814.0361
409.3184, 813.6299
409.8005, 812.9375
410.2827, 812.0733
410.7648, 811.3690
411.2469, 810.9166
411.7290, 810.8121
412.2111, 811.4161
412.6932, 813.1148
413.1754, 814.4376
413.6575, 814.8282
414.1396, 814.8799
414.6217, 815.0331
415.1038, 815.4208
415.5859, 816.4306
416.0681, 818.7695
416.5502, 822.7610
417.0323, 824.0455
417.5144, 819.4388
417.9965, 815.8857
418.4786, 817.5691
418.9608, 822.2206
419.4429, 824.9395
419.9250, 823.0949
420.4071, 818.6890
420.8892, 817.3113
421.3713, 821.3975
421.8535, 825.0193
422.3356, 828.6636
422.8177, 831.3808
423.2998, 831.8945
423.7819, 830.3863
424.2640, 828.5585
424.7462, 828.0630
425.2283, 828.9268
425.7104, 830.7213
426.1925, 834.9549
426.6746, 838.4873
427.1567, 840.1675
427.6389, 840.6273
428.1210, 840.7597
428.6031, 840.9146
429.0852, 841.2715
429.5673, 842.1631
430.0494, 843.5865
430.5316, 845.5535
431.0137, 847.9993
431.4958, 851.0795
431.9779, 855.7872
432.4600, 861.8588
432.9421, 866.5397
433.4243, 866.5551
433.9064, 863.1865
434.3885, 862.1923
434.8706, 864.5646
435.3527, 867.6233
435.8348, 870.0548
436.3170, 871.9456
436.7991, 873.2549
437.2812, 873.2894
437.7633, 873.6852
438.2454, 876.4835
438.7275, 881.3087
439.2097, 885.4191
439.6918, 887.6384
440.1739, 889.0594
440.6560, 891.4059
441.1381, 894.7708
441.6202, 897.7611
442.1024, 900.2473
442.5845, 902.0159
443.0666, 902.4890
443.5487, 901.7166
444.0308, 900.8703
444.5129, 900.8894
444.9951, 901.6393
445.4772, 901.8009
445.9593, 901.1063
446.4414, 900.2379
446.9235, 899.6199
447.4056, 898.8950
447.8878, 897.5043
448.3699, 895.2615
448.8520, 892.4019
449.3341, 889.1783
449.8162, 885.2214
450.2983, 882.0247
450.7805, 879.8125
451.2626, 878.0323
451.7447, 876.9026
452.2268, 875.9811
452.7089, 874.2679
453.1910, 871.0394
453.6732, 866.6426
454.1553, 862.5235
454.6374, 858.6573
455.1195, 855.1406
455.6016, 852.8156
456.0837, 850.2850
456.5659, 845.6544
457.0480, 838.8508
457.5301, 832.7117
458.0122, 831.0613
458.4943, 833.7659
458.9764, 833.9606
459.4586, 829.9989
459.9407, 825.6131
460.4228, 822.7629
460.9049, 820.8802
461.3870, 818.9989
461.8691, 816.8639
462.3513, 814.4644
462.8334, 811.6263
463.3155, 808.3782
463.7976, 805.4117
464.2797, 802.8174
464.7618, 800.7741
465.2440, 799.6197
465.7261, 799.3582
466.2082, 799.0592
466.6903, 798.6241
467.1724, 797.8701
467.6545, 796.2857
468.1367, 793.9161
468.6188, 791.9121
469.1009, 791.2410
469.5830, 791.5220
470.0651, 790.7855
470.5472, 787.6172
471.0294, 785.3606
471.5115, 785.5429
471.9936, 786.8166
472.4757, 787.4698
472.9578, 787.0737
473.4399, 786.3625
473.9221, 786.2782
474.4042, 787.0594
474.8863, 787.0466
475.3684, 785.3412
475.8505, 783.8871
476.3326, 783.4354
476.8148, 783.7222
477.2969, 784.4093
477.7790, 785.3598
478.2611, 786.1504
478.7432, 785.7386
479.2253, 783.6198
479.7075, 781.7397
480.1896, 779.6423
480.6717, 778.4089
481.1538, 779.4924
481.6359, 782.2755
482.1180, 784.1935
482.6002, 782.6713
483.0823, 779.2960
483.5644, 778.9848
484.0465, 782.6776
484.5286, 786.0036
485.0107, 786.8568
485.4929, 786.3710
485.9750, 785.6182
486.4571, 784.5271
486.9392, 784.0876
487.4213, 785.6503
487.9034, 788.1924
488.3856, 789.1406
488.8677, 787.9075
489.3498, 786.5908
489.8319, 787.1013
490.3140, 789.3178
490.7961, 790.9059
491.2783, 790.8213
491.7604, 791.2314
492.2425, 793.6989
492.7246, 797.2560
493.2067, 800.0286
493.6888, 801.3508
494.1710, 802.0413
494.6531, 803.2958
495.1352, 805.1947
495.6173, 807.4750
496.0994, 810.8531
496.5815, 813.8654
497.0637, 814.9761
497.5458, 815.2098
498.0279, 816.8938
498.5100, 821.4431
498.9921, 827.7049
499.4742, 833.0032
499.9564, 837.4424
500.4385, 840.5593
500.9206, 839.8635
501.4027, 839.7684
501.8848, 843.0878
502.3669, 849.7379
502.8491, 857.8400
503.3312, 867.0356
503.8133, 876.5422
504.2954, 883.8567
504.7775, 888.4668
505.2596, 893.1697
505.7418, 898.9958
506.2239, 905.8024
506.7060, 913.5353
507.1881, 922.4448
507.6702, 931.1522
508.1523, 938.5302
508.6345, 945.4023
509.1166, 953.0839
509.5987, 961.8025
510.0808, 971.1974
510.5629, 981.0626
511.0450, 991.3559
511.5272, 1001.959
512.0093, 1012.526
512.4914, 1023.812
512.9735, 1036.741
513.4556, 1050.258
513.9377, 1063.212
514.4199, 1075.176
514.9020, 1086.421
515.3841, 1097.052
515.8662, 1106.943
516.3483, 1116.982
516.8304, 1126.887
517.3126, 1137.240
517.7947, 1149.231
518.2768, 1161.433
518.7589, 1171.599
519.2410, 1178.773
519.7231, 1184.643
520.2053, 1192.194
520.6874, 1201.699
521.1695, 1208.470
521.6516, 1210.611
522.1337, 1211.418
522.6158, 1213.652
523.0980, 1216.525
523.5801, 1217.733
524.0622, 1216.058
524.5443, 1212.775
525.0264, 1209.132
525.5085, 1205.047
525.9907, 1200.342
526.4728, 1195.135
526.9549, 1188.824
527.4370, 1180.288
527.9191, 1169.208
528.4012, 1157.706
528.8834, 1145.088
529.3655, 1132.883
529.8476, 1123.042
530.3297, 1114.566
530.8118, 1104.319
531.2939, 1090.434
531.7761, 1074.814
532.2582, 1062.533
532.7403, 1056.892
533.2224, 1048.489
533.7045, 1035.166
534.1866, 1021.194
534.6688, 1008.453
535.1509, 997.2444
535.6330, 987.6511
536.1151, 980.2057
536.5972, 973.7760
537.0793, 964.7170
537.5615, 952.1028
538.0436, 940.9179
538.5257, 933.8251
539.0078, 927.9445
539.4899, 920.7754
539.9720, 912.2817
540.4542, 903.8681
540.9363, 896.3054
541.4184, 889.2171
541.9005, 881.9155
542.3826, 874.4220
542.8647, 867.5974
543.3469, 862.0014
543.8290, 857.1986
544.3111, 852.0667
544.7932, 846.5916
545.2753, 840.9271
545.7574, 834.2789
546.2396, 827.9859
546.7217, 823.6523
547.2038, 820.9407
547.6859, 818.0332
548.1680, 813.5637
548.6501, 808.0007
549.1323, 803.4115
549.6144, 800.0596
550.0965, 797.3319
550.5786, 795.6376
551.0607, 794.0707
551.5428, 792.0694
552.0250, 789.5618
552.5071, 786.6877
552.9892, 783.3873
553.4713, 779.8421
553.9534, 776.5244
554.4355, 773.4528
554.9177, 770.5150
555.3998, 767.5266
555.8819, 764.7609
556.3640, 762.5944
556.8461, 761.1014
557.3282, 759.6490
557.8104, 757.9180
558.2925, 756.1299
558.7746, 754.6822
559.2567, 753.5132
559.7388, 752.1055
560.2209, 750.1253
560.7031, 747.6973
561.1852, 745.2159
561.6673, 742.3975
562.1494, 739.9023
562.6315, 737.6530
563.1136, 735.7986
563.5958, 734.6423
564.0779, 734.0140
564.5600, 733.4420
565.0421, 732.6536
565.5242, 731.5626
566.0063, 729.7330
566.4885, 726.7748
566.9706, 724.2404
567.4527, 722.6737
567.9348, 721.5471
568.4169, 720.7816
568.8990, 720.2531
569.3812, 719.2994
569.8633, 717.0563
570.3454, 714.4717
570.8275, 713.1495
571.3096, 713.0001
571.7917, 712.4948
572.2739, 710.8773
572.7560, 708.7342
573.2381, 707.1189
573.7202, 706.1667
574.2023, 705.1509
574.6844, 703.5436
575.1666, 702.2509
575.6487, 702.3314
576.1308, 703.2506
576.6129, 703.6151
577.0950, 702.6949
577.5771, 700.8466
578.0593, 698.6358
578.5414, 695.4003
579.0235, 693.6164
579.5056, 695.2611
579.9877, 696.6520
580.4698, 695.5367
580.9520, 692.8930
581.4341, 691.1779
581.9162, 691.6944
582.3983, 693.1743
582.8804, 694.5192
583.3625, 695.5945
583.8447, 694.4775
584.3268, 689.8290
584.8089, 684.9298
585.2910, 683.5439
585.7731, 685.3131
586.2552, 686.5153
586.7374, 687.2784
587.2195, 686.9413
587.7016, 683.8175
588.1837, 679.7086
588.6658, 677.9567
589.1479, 679.4939
589.6301, 682.3368
590.1122, 684.2189
590.5943, 685.1526
591.0764, 684.8978
591.5585, 681.6364
592.0406, 679.3035
592.5228, 679.8948
593.0049, 681.3954
593.4870, 680.9373
593.9691, 677.8624
594.4512, 675.1885
594.9333, 676.8861
595.4155, 681.6008
595.8976, 683.0631
596.3797, 680.3480
596.8618, 676.9792
597.3439, 674.7740
597.8260, 673.4078
598.3082, 671.9241
598.7903, 669.9981
599.2724, 668.7816
599.7545, 669.6451
600.2366, 670.7860
600.7188, 669.6437
601.2009, 666.5223
601.6830, 664.5004
602.1651, 665.9150
602.6472, 669.3627
603.1293, 669.3948
603.6115, 662.8401
604.0936, 658.7175
604.5757, 659.4350
605.0578, 660.9094
605.5399, 660.8434
606.0220, 659.3176
606.5042, 657.3544
606.9863, 655.3189
607.4684, 653.4677
607.9505, 652.0756
608.4326, 651.1532
608.9147, 651.3000
609.3969, 653.1805
609.8790, 655.2490
610.3611, 655.7781
610.8432, 654.8850
611.3253, 653.7499
611.8074, 652.7550
612.2896, 651.2756
612.7717, 647.9435
613.2538, 644.1955
613.7359, 642.8700
614.2180, 644.6610
614.7001, 647.2138
615.1823, 647.7239
615.6644, 646.0798
616.1465, 644.6429
616.6286, 643.2203
617.1107, 642.3131
617.5928, 642.5428
618.0750, 643.0313
618.5571, 642.7253
619.0392, 641.4652
619.5213, 640.3127
620.0034, 640.6748
620.4855, 641.5759
620.9677, 640.3954
621.4498, 636.9540
621.9319, 633.9882
622.4140, 632.9418
622.8961, 633.0869
623.3782, 632.8635
623.8604, 631.9993
624.3425, 631.6741
624.8246, 632.9540
625.3067, 633.9890
625.7888, 632.8962
626.2709, 630.5562
626.7531, 629.5479
627.2352, 631.1860
627.7173, 633.5098
628.1994, 632.3676
628.6815, 626.6774
629.1636, 623.5919
629.6458, 625.2809
630.1279, 627.3526
630.6100, 627.9629
631.0921, 627.3457
631.5742, 625.7139
632.0563, 622.7347
632.5385, 619.9293
633.0206, 618.1872
633.5027, 617.4503
633.9848, 617.9757
634.4669, 619.7570
634.9490, 621.4202
635.4312, 622.0941
635.9133, 621.7730
636.3954, 620.3956
636.8775, 616.0477
637.3596, 613.2527
637.8417, 613.3467
638.3239, 614.0733
638.8060, 613.9028
639.2881, 612.8851
639.7702, 611.7586
640.2523, 610.8869
640.7344, 610.3515
641.2166, 610.4023
641.6987, 611.0612
642.1808, 611.8500
642.6629, 612.9484
643.1450, 613.7139
643.6271, 613.2443
644.1093, 611.8919
644.5914, 610.9365
645.0735, 610.7274
645.5556, 610.7529
646.0377, 611.1114
646.5198, 611.4230
647.0020, 610.9674
647.4841, 609.7083
647.9662, 608.3571
648.4483, 607.4459
648.9304, 607.0540
649.4125, 607.9313
649.8947, 611.5072
650.3768, 613.6229
650.8589, 612.5684
651.3410, 610.6752
651.8231, 609.4286
652.3052, 608.8502
652.7874, 608.2874
653.2695, 607.4434
653.7516, 606.4219
654.2337, 605.2563
654.7158, 604.0026
655.1979, 602.8696
655.6801, 601.8824
656.1622, 601.2801
656.6443, 601.5359
657.1264, 602.7578
657.6085, 602.6907
658.0906, 599.4932
658.5728, 597.4937
659.0549, 598.6644
659.5370, 600.9560
660.0191, 602.3302
660.5012, 602.4499
660.9833, 602.1130
661.4655, 602.0091
661.9476, 601.9297
662.4297, 600.9532
662.9118, 598.8641
663.3939, 597.6384
663.8760, 598.1611
664.3582, 599.4735
664.8403, 600.5024
665.3224, 601.2750
665.8045, 602.1678
666.2866, 603.8981
666.7687, 605.0762
667.2509, 604.5826
667.7330, 603.1276
668.2151, 601.8045
668.6972, 600.9284
669.1793, 600.2640
669.6614, 599.4559
670.1436, 598.5847
670.6257, 598.9476
671.1078, 601.5563
671.5899, 603.3062
672.0720, 602.6877
672.5541, 601.3285
673.0363, 600.1064
673.5184, 599.1906
674.0005, 599.2311
674.4826, 601.5601
674.9647, 604.1219
675.4468, 604.3178
675.9290, 603.0134
676.4111, 603.2206
676.8932, 605.9092
677.3753, 608.7563
677.8574, 608.8770
678.3395, 606.1269
678.8217, 604.4154
679.3038, 604.0789
679.7859, 604.4305
680.2680, 605.8323
680.7501, 607.5513
681.2322, 608.8732
681.7144, 609.7786
682.1965, 610.8728
682.6786, 612.9766
683.1607, 615.1975
683.6428, 615.6061
684.1249, 614.4825
684.6071, 614.2994
685.0892, 615.9131
685.5713, 618.2968
686.0534, 620.3168
686.5355, 621.9230
687.0176, 623.8945
687.4998, 626.9286
687.9819, 629.4034
688.4640, 631.4374
688.9461, 632.3870
689.4282, 630.9990
689.9103, 627.5850
690.3925, 624.3369
690.8746, 622.9730
691.3567, 622.8840
691.8388, 622.9415
692.3209, 623.1906
692.8030, 622.3227
693.2852, 619.4614
693.7673, 616.3956
694.2494, 615.3614
694.7315, 616.1430
695.2136, 615.3723
695.6957, 611.7071
696.1779, 607.9481
696.6600, 604.7649
697.1421, 602.1570
697.6242, 600.2820
698.1063, 599.0307
698.5884, 597.9094
699.0706, 596.5601
699.5527, 595.0422
700.0348, 593.3357
700.5169, 591.2766
700.9990, 590.1809
701.4811, 590.7784
701.9633, 591.7312
702.4454, 591.8589
702.9275, 591.3986
703.4096, 591.1320
703.8917, 591.3512
704.3738, 591.5155
704.8560, 591.2516
705.3381, 590.8927
705.8202, 591.0140
706.3023, 591.5260
706.7844, 591.6689
707.2665, 590.8857
707.7487, 589.5098
708.2308, 588.5159
708.7129, 588.0543
709.1950, 587.2272
709.6771, 585.5244
710.1592, 583.9795
710.6414, 583.3325
711.1235, 583.3029
711.6056, 583.3495
712.0877, 583.4921
712.5698, 583.4548
713.0519, 582.9877
713.5341, 582.3434
714.0162, 581.9566
714.4983, 581.7301
714.9804, 580.9708
715.4625, 579.2142
715.9446, 577.1764
716.4268, 576.6119
716.9089, 578.1219
717.3910, 578.3019
717.8731, 575.7610
718.3552, 573.6668
718.8373, 573.7297
719.3195, 575.0172
719.8016, 576.3377
720.2837, 577.5880
720.7658, 578.4894
721.2479, 579.0688
721.7300, 579.1214
722.2122, 578.0920
722.6943, 576.2943
723.1764, 574.6996
723.6585, 573.7255
724.1406, 573.3757
724.6227, 573.8589
725.1049, 575.3788
725.5870, 575.7419
726.0691, 574.1443
726.5512, 572.6852
727.0333, 572.1083
727.5154, 571.9871
727.9976, 572.0675
728.4797, 572.3040
728.9618, 572.2560
729.4439, 571.3987
729.9260, 570.4672
730.4081, 570.1608
730.8903, 570.3078
731.3724, 570.6116
731.8545, 570.9482
732.3366, 570.8644
732.8187, 569.6856
733.3008, 567.6059
733.7830, 567.0675
734.2651, 568.9854
734.7472, 570.4744
735.2293, 570.8637
735.7114, 570.6281
736.1935, 569.7941
736.6757, 568.5529
737.1578, 567.6647
737.6399, 567.8430
738.1220, 567.8096
738.6041, 566.1075
739.0862, 563.8809
739.5684, 563.0678
740.0505, 563.8465
740.5326, 565.1810
741.0147, 566.4182
741.4968, 567.3949
741.9789, 567.4318
742.4611, 566.0236
742.9432, 565.6184
743.4253, 567.6326
743.9074, 569.1720
744.3895, 567.8393
744.8716, 565.1236
745.3538, 563.9401
745.8359, 565.2863
746.3180, 566.3646
746.8001, 565.1055
747.2822, 563.5546
747.7643, 564.4224
748.2465, 566.9738
748.7286, 568.2949
749.2107, 567.0552
749.6928, 564.7816
750.1749, 563.7880
750.6570, 564.1507
751.1392, 564.1929
751.6213, 563.8691
752.1034, 563.3083
752.5855, 562.1844
753.0676, 561.1094
753.5497, 560.9099
754.0319, 561.6166
754.5140, 562.2935
754.9961, 562.9684
755.4782, 563.2839
755.9603, 562.4328
756.4424, 561.3145
756.9246, 561.7117
757.4067, 563.7210
757.8888, 565.3068
758.3709, 564.6115
758.8530, 562.2794
759.3351, 560.2281
759.8173, 558.3456
760.2994, 557.8735
760.7815, 559.6981
761.2636, 561.9025
761.7457, 562.9448
762.2278, 562.9837
762.7100, 562.8990
763.1921, 562.7194
763.6742, 562.4041
764.1563, 561.9645
764.6384, 561.3758
765.1205, 560.6526
765.6027, 559.7584
766.0848, 558.4725
766.5669, 556.6522
767.0490, 554.9943
767.5311, 554.6362
768.0132, 555.3155
768.4954, 555.5573
768.9775, 555.2354
769.4596, 554.7298
769.9417, 554.0325
770.4238, 553.5408
770.9059, 554.1773
771.3881, 556.6083
771.8702, 557.3730
772.3523, 554.5491
772.8344, 552.4013
773.3165, 552.7805
773.7986, 554.3771
774.2808, 555.9992
774.7629, 557.2893
775.2450, 557.9436
775.7271, 557.4833
776.2092, 556.5306
776.6913, 555.9833
777.1735, 555.7552
777.6556, 555.5743
778.1377, 555.3894
778.6198, 554.8829
779.1019, 553.6733
779.5840, 551.9929
780.0662, 551.0489
780.5483, 551.0865
781.0304, 551.4053
781.5125, 551.9267
781.9946, 552.7496
782.4767, 554.6359
782.9589, 556.6849
783.4410, 557.0085
783.9231, 554.8195
784.4052, 552.6058
784.8873, 552.2490
785.3694, 552.4291
785.8516, 551.5002
786.3337, 549.6215
786.8158, 547.4758
787.2979, 545.3546
787.7800, 543.9456
788.2621, 544.3627
788.7443, 546.5306
789.2264, 548.0245
789.7085, 548.6881
790.1906, 549.1062
790.6727, 549.3499
791.1548, 549.5096
791.6370, 549.6611
792.1191, 549.8054
792.6012, 549.9548
793.0833, 550.3115
793.5654, 550.4207
794.0475, 549.7791
794.5297, 549.0331
795.0118, 548.9371
795.4939, 549.3959
795.9760, 549.7402
796.4581, 549.5682
796.9402, 549.3189
797.4224, 550.1651
797.9045, 551.7225
798.3866, 550.7252
798.8687, 546.4836
799.3508, 543.7230
799.8329, 545.2908
800.3151, 549.0814
800.7972, 551.2995
801.2793, 551.7306
801.7614, 551.4114
802.2435, 549.9146
802.7256, 548.2722
803.2078, 546.1547
803.6899, 544.4506
804.1720, 544.2442
804.6541, 545.4832
805.1362, 546.9772
805.6183, 548.1913
806.1005, 549.2624
806.5826, 550.5944
807.0647, 551.8328
807.5468, 552.0143
808.0289, 551.0599
808.5110, 549.7821
808.9932, 548.6751
809.4753, 547.9042
809.9574, 548.1695
810.4395, 550.0226
810.9216, 550.2845
811.4037, 547.7028
811.8859, 545.3526
812.3680, 545.4837
812.8501, 546.4335
813.3322, 545.4771
813.8143, 542.0904
814.2964, 539.8776
814.7786, 540.2308
815.2607, 541.3646
815.7428, 542.2220
816.2249, 543.2179
816.7070, 545.5562
817.1891, 549.0471
817.6713, 551.5207
818.1534, 551.0777
818.6355, 548.9503
819.1176, 547.3214
819.5997, 546.1566
820.0818, 545.0662
820.5640, 543.9039
821.0461, 543.5999
821.5282, 545.0783
822.0103, 547.5998
822.4924, 548.9493
822.9745, 549.0723
823.4567, 548.1388
823.9388, 544.4187
824.4209, 541.6277
824.9030, 542.0065
825.3851, 543.5825
825.8672, 543.6509
826.3494, 541.8571
826.8315, 540.3752
827.3136, 540.3235
827.7957, 540.9061
828.2778, 541.7548
828.7599, 542.6586
829.2421, 543.4573
829.7242, 544.0059
830.2063, 543.7004
830.6884, 541.9148
831.1705, 539.4112
831.6526, 537.9911
832.1348, 537.6663
832.6169, 538.1585
833.0990, 539.5756
833.5811, 541.4344
834.0632, 543.9269
834.5453, 546.3207
835.0275, 546.9535
835.5096, 545.2306
835.9917, 543.4083
836.4738, 540.7473
836.9559, 538.8605
837.4380, 538.6784
837.9202, 539.3654
838.4023, 540.2009
838.8844, 540.9741
839.3665, 541.4040
839.8486, 541.2684
840.3307, 540.8257
840.8129, 540.3279
841.2950, 539.7272
841.7771, 538.8343
842.2592, 537.6855
842.7413, 536.7057
843.2234, 536.2136
843.7056, 535.7783
844.1877, 534.1532
844.6698, 531.1064
845.1519, 530.0306
845.6340, 531.6926
846.1161, 533.4554
846.5983, 534.4081
847.0804, 534.7130
847.5625, 534.3458
848.0446, 533.2220
848.5267, 532.8286
849.0089, 533.9667
849.4910, 534.8798
849.9731, 534.6813
850.4552, 534.3591
850.9373, 535.3924
851.4194, 537.1513
851.9016, 537.3069
852.3837, 534.4997
852.8658, 531.1032
853.3479, 529.0581
853.8300, 527.9855
854.3121, 527.6755
854.7943, 527.7982
855.2764, 526.7415
855.7585, 523.7936
856.2406, 521.1511
856.7227, 522.0352
857.2048, 526.0753
857.6870, 528.4280
858.1691, 528.7783
858.6512, 528.5745
859.1333, 527.9990
859.6154, 527.2239
860.0975, 526.1302
860.5797, 524.9150
861.0618, 524.6334
861.5439, 525.6854
862.0260, 526.9745
862.5081, 529.3075
862.9902, 530.9274
863.4724, 530.3232
863.9545, 528.4803
864.4366, 526.9274
864.9187, 526.0500
865.4008, 525.6476
865.8829, 526.1146
866.3651, 526.5603
866.8472, 525.6989
867.3293, 524.0375
867.8114, 522.8504
868.2935, 522.3746
868.7756, 522.0024
869.2578, 521.3063
869.7399, 520.2812
870.2220, 518.6671
870.7041, 516.3923
871.1862, 515.2926
871.6683, 515.9051
872.1505, 516.1774
872.6326, 514.5848
873.1147, 512.6067
873.5968, 512.9800
874.0789, 516.4056
874.5610, 518.3761
875.0432, 518.2482
875.5253, 517.5735
876.0074, 516.3569
876.4895, 515.0060
876.9716, 513.7252
877.4537, 512.5972
877.9359, 511.7609
878.4180, 511.2722
878.9001, 511.0538
879.3822, 511.7023
879.8643, 512.1304
880.3464, 510.4482
880.8286, 507.5026
881.3107, 505.7992
881.7928, 506.2168
882.2749, 507.5302
882.7570, 508.7223
883.2391, 509.6444
883.7213, 509.6989
884.2034, 508.9325
884.6855, 508.0846
885.1676, 507.3224
885.6497, 506.4516
886.1318, 505.1580
886.6140, 503.8140
887.0961, 503.8455
887.5782, 506.2949
888.0603, 507.3951
888.5424, 506.1621
889.0245, 504.9042
889.5067, 505.0209
889.9888, 505.3100
890.4709, 504.0068
890.9530, 501.0709
891.4351, 499.2326
891.9172, 499.8557
892.3994, 500.6660
892.8815, 501.1355
893.3636, 501.0611
893.8457, 499.8421
894.3278, 497.9379
894.8099, 496.6530
895.2921, 496.5899
895.7742, 496.8629
896.2563, 496.9067
896.7384, 496.5935
897.2205, 495.1429
897.7026, 493.0596
898.1848, 492.7640
898.6669, 494.8979
899.1490, 496.7498
899.6311, 495.5186
900.1132, 492.1108
900.5953, 489.8219
901.0775, 488.6678
901.5596, 488.6764
902.0417, 490.3043
902.5238, 491.5640
903.0059, 491.0142
903.4880, 489.6159
903.9702, 489.4909
904.4523, 491.3017
904.9344, 491.6907
905.4165, 489.0698
905.8986, 487.0791
906.3807, 487.0211
906.8629, 487.5059
907.3450, 487.2960
907.8271, 486.5180
908.3092, 486.0089
908.7913, 485.9572
909.2734, 486.2468
909.7556, 487.1933
910.2377, 488.1429
910.7198, 488.4072
911.2019, 488.2502
911.6840, 488.3726
912.1661, 488.9300
912.6483, 489.2184
913.1304, 488.2702
913.6125, 487.0370
914.0946, 487.0984
914.5767, 488.1978
915.0588, 489.9896
915.5410, 492.2148
916.0231, 492.9468
916.5052, 490.7821
916.9873, 487.5047
917.4694, 486.9069
917.9515, 489.1380
918.4337, 489.5342
918.9158, 487.4988
919.3979, 486.3739
919.8800, 487.6514
920.3621, 489.5243
920.8442, 489.8880
921.3264, 488.9945
921.8085, 489.5583
922.2906, 494.3454
922.7727, 496.0397
923.2548, 490.7868
923.7369, 486.3697
924.2191, 487.6949
924.7012, 491.5982
925.1833, 493.1153
925.6654, 491.5934
926.1475, 490.1547
926.6296, 490.2516
927.1118, 490.0328
927.5939, 487.5842
928.0760, 485.0127
928.5581, 485.0789
929.0402, 487.2574
929.5223, 489.0313
930.0045, 489.3456
930.4866, 488.6725
930.9687, 486.3643
931.4508, 483.9893
931.9329, 484.8889
932.4150, 487.8957
932.8972, 488.8719
933.3793, 486.8076
933.8614, 484.0968
934.3435, 482.7694
934.8256, 482.3625
935.3077, 481.6812
935.7899, 480.7813
936.2720, 480.7603
936.7541, 481.8795
937.2362, 481.9537
937.7183, 479.5716
938.2004, 476.6539
938.6826, 476.1533
939.1647, 478.1273
939.6468, 480.0608
940.1289, 482.4425
940.6110, 483.5761
941.0931, 482.8029
941.5753, 481.1252
942.0574, 478.7073
942.5395, 476.0047
943.0216, 474.2310
943.5037, 473.6286
943.9858, 473.2380
944.4680, 472.7645
944.9501, 472.7610
945.4322, 474.2487
945.9143, 475.7265
946.3964, 475.3064
946.8785, 473.3146
947.3607, 471.9836
947.8428, 472.5493
948.3249, 472.7946
948.8070, 470.6945
949.2891, 468.4391
949.7712, 468.3343
950.2534, 469.6313
950.7355, 470.7639
951.2176, 471.2348
951.6997, 471.0853
952.1818, 469.9635
952.6639, 468.7276
953.1461, 468.8712
953.6282, 469.7337
954.1103, 469.6547
954.5924, 468.5904
955.0745, 467.6959
955.5566, 467.5486
956.0388, 467.3662
956.5209, 465.8182
957.0030, 463.3203
957.4851, 462.0565
957.9672, 462.0177
958.4493, 462.2621
958.9315, 462.6169
959.4136, 462.9478
959.8957, 463.2087
960.3778, 463.2722
960.8599, 462.6820
961.3420, 461.1553
961.8242, 460.4818
962.3063, 460.9836
962.7884, 461.5955
963.2705, 462.3064
963.7526, 462.5253
964.2347, 461.1600
964.7169, 458.6078
965.1990, 457.7925
965.6811, 460.8330
966.1632, 462.3624
966.6453, 461.4691
967.1274, 460.1040
967.6096, 458.7393
968.0917, 457.5605
968.5738, 456.8534
969.0559, 456.6015
969.5380, 456.2693
970.0201, 455.4352
970.5023, 454.8843
970.9844, 454.7810
971.4665, 455.1676
971.9486, 456.5916
972.4307, 458.3737
972.9128, 459.1418
973.3950, 458.5561
973.8771, 457.8380
974.3592, 457.8623
974.8413, 457.9110
975.3234, 457.1678
975.8055, 456.1443
976.2877, 455.6989
976.7698, 455.7556
977.2519, 455.6147
977.7340, 454.9449
978.2161, 454.1174
978.6982, 453.2993
979.1804, 452.7220
979.6625, 453.0427
980.1446, 454.0050
980.6267, 454.9029
981.1088, 455.5032
981.5909, 455.3697
982.0731, 454.1313
982.5552, 452.3976
983.0373, 451.1025
983.5194, 450.2754
984.0015, 450.2007
984.4836, 450.8833
984.9658, 451.7982
985.4479, 452.8114
985.9300, 453.8062
986.4121, 454.7892
986.8942, 455.4930
987.3763, 454.5458
987.8585, 451.3964
988.3406, 450.5091
988.8227, 452.8883
989.3048, 454.8368
989.7869, 454.7809
990.2690, 453.7132
990.7512, 452.6340
991.2333, 451.5808
991.7154, 451.1032
992.1975, 451.5859
992.6796, 451.8075
993.1617, 451.2925
993.6439, 451.0557
994.1260, 451.8556
994.6081, 453.0506
995.0902, 453.7139
995.5723, 453.8288
996.0544, 453.9707
996.5366, 454.7500
997.0187, 454.7166
997.5008, 452.8163
997.9829, 450.8786
998.4650, 449.8766
998.9471, 449.6493
999.4293, 450.1035
999.9114, 451.2844
1000.393, 451.7490
1000.876, 450.6501
1001.358, 449.3280
1001.840, 448.0164
1002.322, 447.0030
1002.804, 446.4174
1003.286, 446.3523
1003.768, 447.1223
1004.250, 448.8672
1004.733, 450.3948
1005.215, 451.3309
1005.697, 451.5268
1006.179, 450.1178
1006.661, 448.3765
1007.143, 448.2426
1007.625, 449.3630
1008.107, 449.8687
1008.589, 448.9483
1009.072, 447.7301
1009.554, 446.9923
1010.036, 446.6133
1010.518, 446.4471
1011.000, 446.5267
1011.482, 446.9860
1011.964, 447.7868
1012.446, 448.7832
1012.929, 449.9526
1013.411, 450.8027
1013.893, 450.6671
1014.375, 449.8340
1014.857, 448.6124
1015.339, 447.2256
1015.821, 446.3789
1016.303, 446.1950
1016.785, 446.1561
1017.268, 445.8705
1017.750, 445.7962
1018.232, 447.2200
1018.714, 449.5027
1019.196, 449.7519
1019.678, 448.0970
1020.160, 446.2355
1020.642, 444.6450
1021.125, 444.1768
1021.607, 445.6987
1022.089, 448.0959
1022.571, 448.7534
1023.053, 447.7630
1023.535, 446.6370
1024.017, 445.3936
1024.499, 445.1501
1024.981, 446.4504
1025.464, 447.3824
1025.946, 446.1098
1026.428, 443.3226
1026.910, 441.1050
1027.392, 439.4738
1027.874, 438.1893
1028.356, 437.1427
1028.838, 437.0522
1029.321, 438.4329
1029.803, 440.0805
1030.285, 440.8370
1030.767, 440.8696
1031.249, 440.9218
1031.731, 440.9914
1032.213, 441.2118
1032.695, 442.1012
1033.177, 441.5223
1033.660, 437.2458
1034.142, 433.7160
1034.624, 436.6568
1035.106, 444.4503
1035.588, 446.5793
1036.070, 439.1152
1036.552, 435.5543
1037.034, 438.2600
1037.516, 441.2570
1037.999, 442.5826
1038.481, 442.9217
1038.963, 442.6774
1039.445, 441.9996
1039.927, 442.0428
1040.409, 442.9336
1040.891, 444.3394
1041.373, 447.0554
1041.855, 449.2605
1042.338, 450.1588
1042.820, 450.3101
1043.302, 449.9303
1043.784, 449.1812
1044.266, 449.2787
1044.748, 451.0035
1045.230, 452.3204
1045.712, 453.0557
1046.195, 453.4496
1046.677, 453.2290
1047.159, 452.9798
1047.641, 453.4780
1048.123, 454.5958
1048.605, 455.3220
1049.087, 455.3369
1049.569, 455.3443
1050.052, 455.6019
1050.534, 455.6798
1051.016, 454.8341
1051.498, 454.0854
1051.980, 454.5136
1052.462, 456.1156
1052.944, 458.4730
1053.426, 462.6469
1053.908, 465.2675
1054.391, 464.7482
1054.873, 463.4457
1055.355, 461.5819
1055.837, 460.2505
1056.319, 461.2760
1056.801, 464.0884
1057.283, 465.3961
1057.765, 463.6865
1058.248, 462.2055
1058.730, 462.5461
1059.212, 462.6258
1059.694, 461.1267
1060.176, 458.8492
1060.658, 456.7037
1061.140, 454.7175
1061.622, 452.4032
1062.104, 449.2474
1062.587, 446.8837
1063.069, 446.9068
1063.551, 446.7577
1064.033, 444.4983
1064.515, 441.5660
1064.997, 439.6717
1065.479, 438.7464
1065.961, 437.7978
1066.443, 436.6152
1066.926, 435.1346
1067.408, 432.4468
1067.890, 430.4590
1068.372, 430.9077
1068.854, 432.2342
1069.336, 432.8776
1069.818, 432.7012
1070.300, 431.9347
1070.782, 430.4515
1071.265, 429.3264
1071.747, 429.0162
1072.229, 429.2159
1072.711, 430.4444
1073.193, 431.5531
1073.675, 430.7614
1074.157, 428.8101
1074.639, 428.3264
1075.122, 430.3466
1075.604, 431.4202
1076.086, 428.6398
1076.568, 426.0399
1077.050, 426.6657
1077.532, 428.1203
1078.014, 427.7077
1078.496, 425.9685
1078.979, 424.9068
1079.461, 425.0629
1079.943, 425.3393
1080.425, 424.9060
1080.907, 424.8676
1081.389, 427.1754
1081.871, 429.0155
1082.353, 426.4786
1082.835, 421.6876
1083.318, 419.6606
1083.800, 421.5024
1084.282, 423.5312
1084.764, 424.1674
1085.246, 424.6069
1085.728, 426.0344
1086.210, 426.9821
1086.692, 425.7548
1087.175, 423.2755
1087.657, 421.2237
1088.139, 419.9156
1088.621, 418.8603
1089.103, 418.0235
1089.585, 417.1723
1090.067, 415.4605
1090.549, 414.4324
1091.031, 416.1935
1091.514, 418.9454
1091.996, 419.7393
1092.478, 418.4167
1092.960, 417.3578
1093.442, 417.3055
1093.924, 417.7179
1094.406, 418.9229
1094.888, 419.9571
1095.370, 420.4347
1095.853, 420.2176
1096.335, 418.8456
1096.817, 416.5881
1097.299, 414.6887
1097.781, 413.0714
1098.263, 412.8853
1098.745, 416.3634
1099.227, 419.1662
1099.709, 418.4449
1100.192, 416.3280
1100.674, 414.7322
1101.156, 413.8607
1101.638, 413.7361
1102.120, 414.6920
1102.602, 415.1130
1103.084, 413.1004
1103.566, 412.4048
1104.049, 416.2494
1104.531, 420.4577
1105.013, 420.9408
1105.495, 419.0808
1105.977, 418.8537
1106.459, 421.1736
1106.941, 422.0546
1107.423, 419.4383
1107.906, 417.2568
1108.388, 417.0366
1108.870, 417.0837
1109.352, 416.0943
1109.834, 414.7027
1110.316, 414.2159
1110.798, 414.7669
1111.280, 414.7378
1111.762, 412.7686
1112.245, 412.0833
1112.727, 415.5236
1113.209, 417.5249
1113.691, 413.1289
1114.173, 407.2273
1114.655, 406.6789
1115.137, 410.9959
1115.619, 413.2714
1116.102, 412.3861
1116.584, 411.3920
1117.066, 409.9180
1117.548, 408.9593
1118.030, 409.3354
1118.512, 409.8353
1118.994, 409.1244
1119.476, 407.5960
1119.958, 406.8175
1120.441, 406.8042
1120.923, 407.6310
1121.405, 410.2520
1121.887, 411.5102
1122.369, 409.9372
1122.851, 407.9835
1123.333, 407.2713
1123.815, 407.6526
1124.297, 409.1269
1124.780, 408.1370
1125.262, 411.9145
1125.744, 407.7510
1126.226, 405.2044
1126.708, 405.6923
1127.190, 406.3300
1127.672, 405.3732
1128.154, 404.1416
1128.636, 404.7269
1129.119, 404.3409
1129.601, 404.7533
1130.083, 406.0067
1130.565, 406.5855
1131.047, 409.7159
1131.529, 412.0379
1132.011, 412.1861
1132.493, 411.0461
1132.976, 409.2877
1133.458, 407.3911
1133.940, 407.0094
1134.422, 407.9691
1134.904, 407.9874
1135.386, 407.0089
1135.868, 405.8955
1136.350, 404.8989
1136.833, 404.5905
1137.315, 405.4719
1137.797, 406.6236
1138.279, 406.3108
1138.761, 405.0236
1139.243, 404.2660
1139.725, 404.0795
1140.207, 405.0124
1140.689, 406.8355
1141.172, 407.4987
1141.654, 406.0488
1142.136, 404.2901
1142.618, 404.3925
1143.100, 405.1349
1143.582, 404.2875
1144.064, 402.5794
1144.546, 401.0713
1145.029, 400.1956
1145.511, 401.2629
1145.993, 404.2818
1146.475, 406.2690
1146.957, 404.6767
1147.439, 402.5983
1147.921, 403.2158
1148.403, 404.9573
1148.885, 406.6088
1149.368, 407.6256
1149.850, 406.9448
1150.332, 404.8623
1150.814, 402.8182
1151.296, 401.1827
1151.778, 401.0744
1152.260, 405.6518
1152.742, 409.1078
1153.224, 405.6847
1153.707, 400.5768
1154.189, 399.7047
1154.671, 401.7491
1155.153, 402.2443
1155.635, 400.2670
1156.117, 399.5349
1156.599, 402.1863
1157.081, 404.8731
1157.563, 406.9450
1158.046, 408.3168
1158.528, 408.9140
1159.010, 408.7885
1159.492, 407.6495
1159.974, 405.7023
1160.456, 404.5249
1160.938, 404.5159
1161.420, 404.7509
1161.903, 405.2819
1162.385, 405.9348
1162.867, 406.9991
1163.349, 407.7823
1163.831, 407.8076
1164.313, 407.1140
1164.795, 405.6645
1165.277, 403.2718
1165.760, 401.6370
1166.242, 400.7776
1166.724, 400.7632
1167.206, 401.9775
1167.688, 402.7718
1168.170, 402.1218
1168.652, 401.1270
1169.134, 401.1435
1169.616, 402.0820
1170.099, 403.9633
1170.581, 406.8229
1171.063, 407.3038
1171.545, 405.1844
1172.027, 403.4597
1172.509, 403.0312
1172.991, 403.3134
1173.473, 403.9497
1173.956, 404.4937
1174.438, 404.0375
1174.920, 402.8924
1175.402, 401.9186
1175.884, 401.1820
1176.366, 401.0348
1176.848, 401.3766
1177.330, 401.4093
1177.813, 400.8161
1178.295, 400.3869
1178.777, 401.1465
1179.259, 401.9568
1179.741, 400.5929
1180.223, 398.9531
1180.705, 400.4664
1181.187, 403.6936
1181.669, 405.2134
1182.151, 404.5677
1182.634, 403.6242
1183.116, 403.2786
1183.598, 402.5584
1184.080, 399.6227
1184.562, 397.6005
1185.044, 399.3223
1185.526, 402.4099
1186.008, 405.0201
1186.490, 406.7136
1186.973, 406.8151
1187.455, 405.0914
1187.937, 404.0912
1188.419, 404.8167
1188.901, 405.5481
1189.383, 406.3014
1189.865, 406.5806
1190.347, 405.3985
1190.830, 404.2135
1191.312, 405.1639
1191.794, 407.5080
1192.276, 407.4326
1192.758, 403.8784
1193.240, 401.4532
1193.722, 400.1752
1194.204, 400.1738
1194.687, 401.9219
1195.169, 403.4910
1195.651, 403.5640
1196.133, 403.1016
1196.615, 403.8934
1197.097, 405.4361
1197.579, 403.9570
1198.061, 399.7152
1198.543, 398.3515
1199.026, 400.1640
1199.508, 400.9535
1199.990, 399.3961
1200.472, 398.7526
1200.954, 401.9073
1201.436, 405.8915
1201.918, 405.8875
1202.400, 403.6694
1202.883, 402.5359
1203.365, 402.2303
1203.847, 401.7657
1204.329, 401.2351
1204.811, 401.7445
1205.293, 403.6433
1205.775, 405.2020
1206.257, 405.0227
1206.740, 404.3847
1207.222, 404.0252
1207.704, 403.8116
1208.186, 403.6160
1208.668, 403.4922
1209.150, 403.4250
1209.632, 403.5034
1210.114, 404.2698
1210.596, 406.5290
1211.078, 407.1872
1211.561, 404.1534
1212.043, 401.4855
1212.525, 400.9312
1213.007, 400.5367
1213.489, 398.7003
1213.971, 396.4703
1214.453, 395.3127
1214.935, 395.2411
1215.417, 396.7806
1215.900, 400.7595
1216.382, 403.1602
1216.864, 403.5989
1217.346, 402.8507
1217.828, 400.7622
1218.310, 399.8219
1218.792, 402.1829
1219.274, 405.8497
1219.757, 407.2434
1220.239, 406.6900
1220.721, 405.2515
1221.203, 403.2747
1221.685, 402.6119
1222.167, 403.2963
1222.649, 404.4033
1223.131, 405.4800
1223.614, 405.5656
1224.096, 403.6905
1224.578, 401.2660
1225.060, 399.0480
1225.542, 397.8610
1226.024, 399.9159
1226.506, 402.9551
1226.988, 402.9810
1227.470, 400.7408
1227.953, 400.0729
1228.435, 402.1136
1228.917, 403.3344
1229.399, 401.3864
1229.881, 399.8346
1230.363, 400.4193
1230.845, 401.0666
1231.327, 400.2379
1231.810, 399.0405
1232.292, 398.9942
1232.774, 399.7493
1233.256, 399.7806
1233.738, 398.6674
1234.220, 398.7520
1234.702, 400.5709
1235.184, 401.7514
1235.667, 401.6346
1236.149, 401.8181
1236.631, 403.2338
1237.113, 404.8608
1237.595, 405.5851
1238.077, 405.3790
1238.559, 403.6145
1239.041, 400.8208
1239.523, 400.3300
1240.005, 401.5201
1240.488, 399.9620
1240.970, 395.4940
1241.452, 393.2756
1241.934, 395.8658
1242.416, 399.0585
1242.898, 398.6283
1243.380, 397.3321
1243.862, 398.2501
1244.344, 399.5447
1244.827, 398.5070
1245.309, 396.6389
1245.791, 396.8296
1246.273, 399.0937
1246.755, 401.3487
1247.237, 403.2776
1247.719, 404.4473
1248.201, 404.9878
1248.684, 404.4472
1249.166, 401.0817
1249.648, 398.5027
1250.130, 399.5474
1250.612, 401.6936
1251.094, 401.4518
1251.576, 399.2650
1252.058, 397.9615
1252.541, 397.6009
1253.023, 397.8794
1253.505, 398.8875
1253.987, 399.2183
1254.469, 398.5293
1254.951, 397.9173
1255.433, 398.0162
1255.915, 398.4102
1256.397, 398.6562
1256.880, 398.7691
1257.362, 398.9987
1257.844, 398.9973
1258.326, 396.9386
1258.808, 394.4230
1259.290, 396.4603
1259.772, 402.4312
1260.254, 405.2984
1260.737, 401.7584
1261.219, 398.6246
1261.701, 400.8226
1262.183, 402.5197
1262.665, 399.3235
1263.147, 396.2582
1263.629, 398.1557
1264.111, 401.7270
1264.594, 401.9035
1265.076, 399.1938
1265.558, 397.3295
1266.040, 396.0558
1266.522, 396.8438
1267.004, 400.7148
1267.486, 402.7289
1267.968, 401.3787
1268.450, 401.2839
1268.932, 405.1715
1269.415, 408.6572
1269.897, 406.3066
1270.379, 401.1362
1270.861, 400.5914
1271.343, 403.2212
1271.825, 404.8618
1272.307, 405.6596
1272.789, 406.7972
1273.271, 408.2728
1273.754, 409.3118
1274.236, 409.6037
1274.718, 408.7607
1275.200, 405.0687
1275.682, 402.3922
1276.164, 404.1523
1276.646, 406.4904
1277.128, 406.7084
1277.611, 405.9070
1278.093, 405.3386
1278.575, 405.0049
1279.057, 404.4454
1279.539, 403.4822
1280.021, 403.9125
1280.503, 406.5239
1280.985, 407.9557
1281.468, 407.6640
1281.950, 407.4336
1282.432, 407.8934
1282.914, 408.7361
1283.396, 409.8109
1283.878, 410.7166
1284.360, 410.3564
1284.842, 409.1760
1285.324, 408.5013
##END=



