##NAMES=Cobaltite
##RRUFFID=R100119
##IDEAL CHEMISTRY=Co^3+^(AsS)^3-^
##LOCALITY=Deerhorn mine, Cobalt, Ontario, Canada
##OWNER=RRUFF
##SOURCE=Robert Woodside
##DESCRIPTION=Metallic silver-gray cubes
##STATUS=The identification of this mineral has been confirmed by single-crystal X-ray diffraction.
##URL=rruff.info/R100119
185.5301, 58.55264
186.0123, 59.36059
186.4944, 61.31916
186.9765, 62.67183
187.4586, 63.31978
187.9407, 63.56245
188.4228, 63.74258
188.9050, 63.86274
189.3871, 63.95942
189.8692, 63.92152
190.3513, 63.82873
190.8334, 64.14599
191.3155, 64.95452
191.7977, 66.01303
192.2798, 67.05746
192.7619, 68.08973
193.2440, 68.87011
193.7261, 68.93598
194.2082, 68.41386
194.6904, 68.89055
195.1725, 70.60458
195.6546, 73.02490
196.1367, 75.22750
196.6188, 77.22873
197.1009, 78.98723
197.5831, 80.53276
198.0652, 81.87946
198.5473, 82.85448
199.0294, 83.59145
199.5115, 83.76204
199.9937, 82.32272
200.4758, 79.02845
200.9579, 75.81849
201.4400, 73.79481
201.9221, 73.01722
202.4042, 72.59850
202.8864, 72.63718
203.3685, 72.85695
203.8506, 72.46976
204.3327, 71.28393
204.8148, 70.27986
205.2969, 70.12173
205.7791, 70.96263
206.2612, 71.52001
206.7433, 71.67819
207.2254, 71.54568
207.7075, 71.31495
208.1896, 70.87379
208.6718, 70.65855
209.1539, 70.97313
209.6360, 71.92799
210.1181, 72.81779
210.6002, 73.55323
211.0823, 74.23045
211.5645, 75.15418
212.0466, 76.43019
212.5287, 77.71697
213.0108, 78.80789
213.4929, 79.64072
213.9750, 80.52654
214.4572, 81.39905
214.9393, 82.36577
215.4214, 83.98744
215.9035, 86.87029
216.3856, 89.18582
216.8678, 89.81843
217.3499, 88.35147
217.8320, 86.59691
218.3141, 84.59146
218.7962, 82.37400
219.2783, 80.01064
219.7605, 77.30317
220.2426, 74.84159
220.7247, 73.01222
221.2068, 72.04653
221.6889, 71.03187
222.1710, 69.79538
222.6532, 68.52056
223.1353, 67.84162
223.6174, 67.91555
224.0995, 68.31207
224.5816, 68.90786
225.0637, 69.99562
225.5459, 70.50149
226.0280, 70.07873
226.5101, 69.12434
226.9922, 68.94102
227.4743, 70.05126
227.9564, 71.10670
228.4386, 71.38918
228.9207, 70.41570
229.4028, 69.84940
229.8849, 69.89876
230.3670, 70.32381
230.8492, 70.42848
231.3313, 70.00017
231.8134, 69.57186
232.2955, 69.37923
232.7776, 69.48611
233.2597, 69.72195
233.7419, 70.27070
234.2240, 70.89913
234.7061, 70.87386
235.1882, 69.54539
235.6703, 68.55347
236.1524, 68.71789
236.6346, 70.85744
237.1167, 72.27260
237.5988, 72.79842
238.0809, 72.67371
238.5630, 72.37537
239.0451, 71.57365
239.5273, 71.09953
240.0094, 71.40794
240.4915, 73.04826
240.9736, 74.00483
241.4557, 73.99289
241.9378, 73.42947
242.4200, 73.17432
242.9021, 73.33073
243.3842, 73.63206
243.8663, 74.03274
244.3484, 74.67032
244.8306, 74.95988
245.3127, 74.66235
245.7948, 74.14103
246.2769, 74.13289
246.7590, 75.06351
247.2411, 75.78071
247.7233, 75.78917
248.2054, 74.78216
248.6875, 74.20348
249.1696, 74.08322
249.6517, 74.37325
250.1338, 75.08208
250.6160, 76.56584
251.0981, 77.82690
251.5802, 78.45265
252.0623, 78.25813
252.5444, 78.44271
253.0265, 79.23856
253.5087, 80.22263
253.9908, 80.72769
254.4729, 80.44494
254.9550, 80.31375
255.4371, 80.57649
255.9192, 81.24136
256.4014, 82.30107
256.8835, 84.20372
257.3656, 86.05629
257.8477, 86.76801
258.3298, 85.98282
258.8120, 84.83387
259.2941, 83.47912
259.7762, 81.88437
260.2583, 80.53381
260.7404, 79.29015
261.2225, 78.44202
261.7047, 78.27992
262.1868, 78.88393
262.6689, 80.00105
263.1510, 81.79117
263.6331, 84.20711
264.1152, 85.98171
264.5974, 86.71535
265.0795, 87.40805
265.5616, 89.19253
266.0437, 92.65600
266.5258, 95.38786
267.0079, 97.02092
267.4901, 97.58028
267.9722, 97.12272
268.4543, 95.57031
268.9364, 93.15349
269.4185, 89.80538
269.9006, 85.19824
270.3828, 81.06792
270.8649, 77.53687
271.3470, 74.66949
271.8291, 72.81808
272.3112, 72.19016
272.7933, 71.97826
273.2755, 71.51595
273.7576, 70.67823
274.2397, 70.49584
274.7218, 71.34262
275.2039, 72.77646
275.6860, 73.41869
276.1682, 73.15012
276.6503, 72.56181
277.1324, 71.91284
277.6145, 71.18559
278.0966, 70.75163
278.5787, 70.71821
279.0609, 70.90468
279.5430, 70.88296
280.0251, 70.61311
280.5072, 70.39600
280.9893, 70.48337
281.4715, 70.87266
281.9536, 70.93340
282.4357, 70.51378
282.9178, 70.00069
283.3999, 70.15905
283.8820, 71.02719
284.3642, 71.85288
284.8463, 72.14249
285.3284, 71.97154
285.8105, 72.32152
286.2926, 73.32578
286.7747, 74.43639
287.2569, 74.92967
287.7390, 74.81622
288.2211, 74.39122
288.7032, 73.45494
289.1853, 72.25443
289.6674, 72.03989
290.1496, 72.92533
290.6317, 74.03519
291.1138, 74.32549
291.5959, 73.91042
292.0780, 73.58620
292.5602, 73.74373
293.0423, 74.12215
293.5244, 73.88439
294.0065, 72.99969
294.4886, 72.26070
294.9707, 72.68699
295.4529, 73.92805
295.9350, 74.70451
296.4171, 74.61797
296.8992, 73.95659
297.3813, 72.92728
297.8634, 71.59586
298.3456, 70.67876
298.8277, 71.05118
299.3098, 72.23196
299.7919, 73.19987
300.2740, 73.76842
300.7561, 73.98499
301.2383, 73.72539
301.7204, 73.08336
302.2025, 72.50126
302.6846, 72.08638
303.1667, 71.95216
303.6488, 72.39653
304.1310, 73.64322
304.6131, 74.90025
305.0952, 75.38230
305.5773, 75.23495
306.0594, 74.85326
306.5415, 74.08189
307.0237, 73.36057
307.5058, 73.21797
307.9879, 73.76360
308.4700, 74.48096
308.9521, 75.15236
309.4343, 75.70921
309.9164, 76.05025
310.3985, 75.99860
310.8806, 75.80720
311.3627, 75.67142
311.8448, 75.60007
312.3270, 75.48931
312.8091, 75.05729
313.2912, 74.62008
313.7733, 74.55109
314.2554, 75.76341
314.7375, 76.70358
315.2197, 76.18038
315.7018, 74.39409
316.1839, 73.09193
316.6660, 73.37778
317.1481, 74.31683
317.6302, 75.16009
318.1124, 75.90967
318.5945, 76.31763
319.0766, 76.12560
319.5587, 75.48428
320.0408, 74.91680
320.5229, 74.43413
321.0051, 74.17691
321.4872, 74.27524
321.9693, 75.04408
322.4514, 75.60905
322.9335, 75.63844
323.4156, 75.35818
323.8978, 75.20375
324.3799, 75.37783
324.8620, 75.57883
325.3441, 75.70263
325.8262, 75.72300
326.3083, 75.72230
326.7905, 75.67014
327.2726, 75.61201
327.7547, 75.60432
328.2368, 75.79129
328.7189, 75.88067
329.2010, 75.82308
329.6832, 75.61752
330.1653, 75.26585
330.6474, 74.29469
331.1295, 73.51900
331.6116, 73.67143
332.0938, 75.76323
332.5759, 77.16740
333.0580, 77.38290
333.5401, 76.56274
334.0222, 75.81036
334.5043, 75.04317
334.9865, 74.44714
335.4686, 74.13712
335.9507, 74.17168
336.4328, 74.34618
336.9149, 74.69912
337.3970, 75.16480
337.8792, 75.57905
338.3613, 75.97921
338.8434, 76.24265
339.3255, 76.28432
339.8076, 76.07183
340.2898, 75.91483
340.7719, 75.86795
341.2540, 75.78345
341.7361, 75.31540
342.2182, 74.40301
342.7003, 73.78667
343.1825, 73.95347
343.6646, 74.70641
344.1467, 74.52335
344.6288, 73.22379
345.1109, 71.89121
345.5930, 71.79652
346.0752, 72.81042
346.5573, 73.57193
347.0394, 73.62267
347.5215, 73.33765
348.0036, 73.64951
348.4857, 74.54208
348.9679, 75.40305
349.4500, 75.70149
349.9321, 75.61015
350.4142, 75.66736
350.8963, 76.02424
351.3784, 76.38078
351.8606, 76.27512
352.3427, 75.80936
352.8248, 75.35545
353.3069, 75.13005
353.7890, 75.04289
354.2711, 74.99302
354.7533, 74.98090
355.2354, 74.93751
355.7175, 74.79328
356.1996, 74.57885
356.6817, 74.34742
357.1638, 73.72929
357.6460, 73.38754
358.1281, 74.23776
358.6102, 76.14713
359.0923, 77.47866
359.5744, 76.75733
360.0565, 75.23645
360.5387, 74.12261
361.0208, 73.81575
361.5029, 73.89242
361.9850, 74.44195
362.4671, 75.28034
362.9492, 75.83226
363.4314, 75.73829
363.9135, 75.42101
364.3956, 75.09216
364.8777, 74.75665
365.3598, 74.46867
365.8419, 74.11791
366.3241, 73.84719
366.8062, 73.87502
367.2883, 74.56419
367.7704, 75.23378
368.2526, 75.69211
368.7347, 75.89877
369.2168, 76.10416
369.6989, 76.42928
370.1810, 76.68482
370.6631, 76.71748
371.1453, 76.45961
371.6274, 76.06570
372.1095, 75.42992
372.5916, 74.62612
373.0737, 74.18291
373.5558, 74.25896
374.0380, 74.45332
374.5201, 74.50094
375.0022, 74.24998
375.4843, 74.41785
375.9664, 75.26640
376.4485, 76.33507
376.9307, 76.64109
377.4128, 76.01028
377.8949, 75.34319
378.3770, 74.99998
378.8591, 74.96582
379.3412, 74.91957
379.8234, 74.83940
380.3055, 74.82484
380.7876, 75.10265
381.2697, 75.64611
381.7518, 75.91151
382.2339, 75.65836
382.7161, 75.11484
383.1982, 74.78320
383.6803, 74.66271
384.1624, 74.64701
384.6445, 74.78103
385.1266, 74.95847
385.6088, 74.82254
386.0909, 74.19774
386.5730, 73.63737
387.0551, 73.92905
387.5372, 74.83922
388.0193, 75.70712
388.5015, 76.14118
388.9836, 76.37496
389.4657, 76.74068
389.9478, 77.26763
390.4299, 77.51905
390.9120, 76.99470
391.3942, 76.08435
391.8763, 75.27222
392.3584, 74.58596
392.8405, 74.17122
393.3226, 74.16048
393.8047, 74.50710
394.2869, 74.99772
394.7690, 75.96335
395.2511, 76.76549
395.7332, 76.93176
396.2154, 75.96229
396.6975, 75.25333
397.1796, 75.16855
397.6617, 75.51323
398.1438, 75.94765
398.6259, 76.95682
399.1081, 77.53855
399.5902, 77.17820
400.0723, 75.64788
400.5544, 74.77061
401.0365, 74.97726
401.5186, 75.51539
402.0008, 75.74451
402.4829, 75.34825
402.9650, 75.26719
403.4471, 75.78857
403.9292, 76.70210
404.4113, 77.03814
404.8935, 76.52511
405.3756, 76.06460
405.8577, 76.26341
406.3398, 77.28139
406.8219, 77.68945
407.3040, 77.32111
407.7862, 76.63474
408.2683, 76.28259
408.7504, 76.27427
409.2325, 76.31684
409.7146, 76.38486
410.1967, 76.41434
410.6789, 76.02224
411.1610, 75.18397
411.6431, 74.57643
412.1252, 75.09010
412.6073, 76.32353
413.0894, 77.10938
413.5716, 77.13357
414.0537, 76.79719
414.5358, 76.45387
415.0179, 76.12698
415.5000, 75.88239
415.9821, 75.72020
416.4643, 75.67889
416.9464, 75.88936
417.4285, 76.38140
417.9106, 76.75205
418.3927, 76.43811
418.8748, 75.95414
419.3570, 75.91605
419.8391, 77.35059
420.3212, 78.47792
420.8033, 78.27795
421.2854, 77.03194
421.7675, 76.07008
422.2497, 75.90193
422.7318, 76.04778
423.2139, 76.32177
423.6960, 76.92478
424.1781, 77.16811
424.6602, 76.49839
425.1424, 75.55513
425.6245, 75.30443
426.1066, 76.61583
426.5887, 77.50867
427.0709, 77.29798
427.5530, 75.98460
428.0351, 75.61546
428.5172, 76.73319
428.9993, 78.04639
429.4814, 78.60540
429.9636, 78.22185
430.4457, 77.78239
430.9278, 77.30504
431.4099, 76.86288
431.8920, 76.66980
432.3741, 76.76246
432.8563, 76.80131
433.3384, 76.50131
433.8205, 75.96261
434.3026, 76.02506
434.7847, 76.77190
435.2668, 77.45796
435.7490, 77.08553
436.2311, 75.96577
436.7132, 75.24311
437.1953, 75.34329
437.6774, 75.79864
438.1595, 75.92581
438.6417, 75.82970
439.1238, 75.94443
439.6059, 77.03159
440.0880, 78.20805
440.5701, 78.35172
441.0522, 77.18896
441.5344, 76.08440
442.0165, 76.06731
442.4986, 76.54763
442.9807, 76.80360
443.4628, 76.14421
443.9449, 75.65913
444.4271, 75.95158
444.9092, 76.87025
445.3913, 77.53504
445.8734, 77.63073
446.3555, 77.48080
446.8376, 77.18513
447.3198, 76.44186
447.8019, 76.18602
448.2840, 76.88020
448.7661, 77.88155
449.2482, 78.27846
449.7303, 77.72890
450.2125, 77.13972
450.6946, 76.63943
451.1767, 76.23691
451.6588, 76.11083
452.1409, 76.34782
452.6230, 76.65842
453.1052, 76.84241
453.5873, 76.89412
454.0694, 76.91328
454.5515, 76.90369
455.0337, 76.87247
455.5158, 76.78978
455.9979, 76.66466
456.4800, 76.65019
456.9621, 76.94075
457.4442, 77.34924
457.9264, 77.37064
458.4085, 77.01928
458.8906, 76.66249
459.3727, 76.52212
459.8548, 76.59431
460.3369, 76.96613
460.8191, 77.87309
461.3012, 78.57431
461.7833, 78.26845
462.2654, 77.32493
462.7475, 76.51369
463.2296, 76.11461
463.7118, 75.97515
464.1939, 76.12728
464.6760, 76.57678
465.1581, 76.85201
465.6402, 76.45676
466.1223, 76.04031
466.6045, 76.06554
467.0866, 77.27431
467.5687, 78.07971
468.0508, 78.15317
468.5329, 77.79347
469.0150, 77.68073
469.4972, 78.07610
469.9793, 78.32653
470.4614, 78.22745
470.9435, 77.76891
471.4256, 77.10719
471.9077, 76.09187
472.3899, 75.17596
472.8720, 74.87062
473.3541, 75.24193
473.8362, 75.32134
474.3183, 74.80602
474.8004, 74.20084
475.2826, 74.66422
475.7647, 76.12312
476.2468, 77.54420
476.7289, 78.66077
477.2110, 79.31795
477.6931, 78.80556
478.1753, 77.12688
478.6574, 75.67770
479.1395, 76.10562
479.6216, 77.35897
480.1037, 77.80962
480.5858, 76.63396
481.0680, 75.33029
481.5501, 74.87708
482.0322, 75.04961
482.5143, 75.38819
482.9964, 75.99007
483.4786, 76.47933
483.9607, 76.58158
484.4428, 76.24380
484.9249, 76.10079
485.4070, 76.61765
485.8892, 77.15858
486.3713, 77.24989
486.8534, 76.17072
487.3355, 75.72620
487.8176, 76.39293
488.2997, 77.57291
488.7819, 77.92380
489.2640, 77.00967
489.7461, 76.25143
490.2282, 76.13949
490.7103, 76.63559
491.1924, 77.21490
491.6746, 77.97889
492.1567, 78.42309
492.6388, 77.74775
493.1209, 76.13896
493.6030, 75.42727
494.0851, 76.03600
494.5673, 77.07974
495.0494, 77.26140
495.5315, 76.77518
496.0136, 76.31656
496.4957, 76.22134
496.9778, 76.31590
497.4600, 76.40935
497.9421, 76.50700
498.4242, 76.67140
498.9063, 77.05435
499.3884, 77.45712
499.8705, 77.70848
500.3527, 77.74119
500.8348, 77.69975
501.3169, 77.65318
501.7990, 77.55858
502.2811, 77.35326
502.7632, 76.59963
503.2454, 76.19749
503.7275, 76.61736
504.2096, 77.73852
504.6917, 78.19650
505.1738, 77.49670
505.6559, 76.80162
506.1381, 76.77698
506.6202, 77.64175
507.1023, 78.32041
507.5844, 78.84200
508.0665, 79.12838
508.5486, 78.93538
509.0308, 78.24666
509.5129, 77.76142
509.9950, 77.71162
510.4771, 77.91801
510.9592, 78.00191
511.4413, 77.97498
511.9235, 77.96481
512.4056, 78.10511
512.8877, 78.29109
513.3698, 78.32366
513.8519, 78.17353
514.3340, 78.09083
514.8162, 78.40207
515.2983, 78.83340
515.7804, 79.04951
516.2625, 78.77580
516.7446, 78.49479
517.2267, 78.42985
517.7089, 78.50448
518.1910, 78.53043
518.6731, 78.12463
519.1552, 77.98878
519.6373, 78.60027
520.1194, 80.10104
520.6016, 80.83372
521.0837, 80.34407
521.5658, 79.58501
522.0479, 79.31296
522.5300, 79.80294
523.0121, 79.68067
523.4943, 78.56624
523.9764, 77.18697
524.4585, 77.07139
524.9406, 78.25605
525.4227, 79.07552
525.9048, 78.69697
526.3870, 77.65841
526.8691, 77.30273
527.3513, 77.59957
527.8334, 78.08817
528.3155, 78.55222
528.7976, 78.96190
529.2797, 79.25283
529.7618, 79.40133
530.2440, 79.54504
530.7261, 80.08327
531.2082, 80.57800
531.6903, 80.46004
532.1724, 78.69312
532.6545, 77.18693
533.1367, 76.56424
533.6188, 76.68922
534.1009, 77.03907
534.5830, 78.07583
535.0651, 78.80146
535.5472, 78.75959
536.0294, 77.78677
536.5115, 77.24139
536.9936, 77.27839
537.4757, 77.52659
537.9578, 77.68566
538.4399, 77.73701
538.9221, 77.81925
539.4042, 77.93555
539.8863, 78.10938
540.3684, 78.49129
540.8505, 79.04638
541.3326, 79.34971
541.8148, 79.12155
542.2969, 78.60069
542.7790, 78.09241
543.2611, 77.62435
543.7432, 77.39127
544.2253, 77.88145
544.7075, 78.48441
545.1896, 78.44405
545.6717, 77.51489
546.1538, 76.76369
546.6359, 76.89000
547.1180, 77.39174
547.6002, 77.73463
548.0823, 77.66623
548.5644, 77.57751
549.0465, 77.49210
549.5286, 77.43410
550.0107, 77.47728
550.4929, 77.68980
550.9750, 77.89188
551.4571, 77.95238
551.9392, 77.86983
552.4213, 78.34064
552.9034, 79.61478
553.3856, 80.67100
553.8677, 80.45499
554.3498, 79.09406
554.8319, 78.10954
555.3140, 77.65235
555.7961, 77.59414
556.2783, 78.00326
556.7604, 78.70005
557.2425, 79.15955
557.7246, 79.01817
558.2067, 78.73570
558.6888, 78.82642
559.1710, 79.17065
559.6531, 79.35914
560.1352, 78.96066
560.6173, 78.52987
561.0994, 78.44437
561.5815, 78.78400
562.0637, 79.02205
562.5458, 79.01995
563.0279, 78.90101
563.5100, 78.75379
563.9921, 78.53886
564.4742, 78.36713
564.9564, 78.26494
565.4385, 78.18661
565.9206, 78.00909
566.4027, 77.67371
566.8848, 77.56268
567.3669, 77.90268
567.8491, 78.48341
568.3312, 78.51427
568.8133, 78.01899
569.2954, 77.62595
569.7775, 77.89748
570.2596, 78.50430
570.7418, 78.87538
571.2239, 78.98006
571.7060, 78.87649
572.1881, 78.27114
572.6702, 77.63284
573.1523, 77.52468
573.6345, 78.42281
574.1166, 79.25830
574.5987, 79.69690
575.0808, 79.79923
575.5629, 79.66853
576.0450, 79.10328
576.5272, 78.54467
577.0093, 78.03856
577.4914, 77.59877
577.9735, 77.29222
578.4556, 77.07897
578.9377, 77.09174
579.4199, 77.55239
579.9020, 78.47263
580.3841, 78.80120
580.8662, 78.47350
581.3483, 77.91048
581.8304, 77.36950
582.3126, 76.92226
582.7947, 76.88628
583.2768, 77.42811
583.7589, 78.06377
584.2410, 78.26198
584.7231, 78.17585
585.2053, 78.10871
585.6874, 78.35464
586.1696, 78.49695
586.6517, 78.08608
587.1338, 77.30534
587.6159, 76.97417
588.0980, 77.73322
588.5801, 78.60270
589.0623, 79.23267
589.5444, 79.64030
590.0265, 79.63814
590.5086, 78.95335
590.9907, 78.20885
591.4728, 77.89021
591.9550, 78.05019
592.4371, 78.37627
592.9192, 78.92836
593.4013, 79.44387
593.8834, 79.52909
594.3655, 79.22178
594.8477, 78.72158
595.3298, 77.97679
595.8119, 77.22835
596.2940, 76.72099
596.7761, 76.47483
597.2582, 76.54060
597.7404, 77.15061
598.2225, 77.92331
598.7046, 78.72559
599.1867, 79.53323
599.6688, 79.95606
600.1509, 79.48869
600.6331, 78.88470
601.1152, 78.64629
601.5973, 79.06509
602.0794, 79.17606
602.5615, 78.80776
603.0436, 78.29469
603.5258, 78.04623
604.0079, 78.13261
604.4900, 78.09386
604.9721, 77.80875
605.4542, 77.43696
605.9363, 77.26498
606.4185, 77.29189
606.9006, 77.50246
607.3827, 78.11021
607.8648, 78.75851
608.3469, 78.82588
608.8290, 78.40141
609.3112, 77.98137
609.7933, 77.78511
610.2754, 77.75552
610.7575, 77.92525
611.2396, 78.33937
611.7217, 78.57154
612.2039, 78.41189
612.6860, 78.07796
613.1681, 77.71006
613.6502, 77.01849
614.1323, 76.85193
614.6144, 77.55460
615.0966, 78.49000
615.5787, 78.63150
616.0608, 77.80843
616.5429, 77.30277
617.0250, 77.50327
617.5071, 78.09229
617.9893, 78.34751
618.4714, 78.30806
618.9535, 78.26663
619.4356, 78.40166
619.9177, 78.61024
620.3998, 78.79571
620.8820, 78.94935
621.3641, 79.01121
621.8462, 79.03407
622.3283, 78.89232
622.8104, 78.39901
623.2925, 77.36254
623.7747, 76.65513
624.2568, 76.36337
624.7389, 76.51683
625.2210, 77.23446
625.7031, 79.16391
626.1852, 80.16757
626.6674, 79.83418
627.1495, 78.86089
627.6316, 78.39423
628.1137, 78.45576
628.5958, 78.48544
629.0779, 78.28487
629.5601, 78.00362
630.0422, 78.00061
630.5243, 78.20942
631.0064, 78.31264
631.4885, 78.04211
631.9706, 77.64809
632.4528, 77.30032
632.9349, 77.02096
633.4170, 76.91618
633.8991, 77.17912
634.3812, 77.52200
634.8633, 77.77528
635.3455, 77.89005
635.8276, 78.00833
636.3097, 78.15022
636.7918, 78.28200
637.2739, 78.37416
637.7560, 78.41875
638.2382, 78.44231
638.7203, 78.43436
639.2024, 78.42550
639.6845, 78.46317
640.1666, 78.54343
640.6487, 78.65430
641.1309, 78.85131
641.6130, 78.99137
642.0951, 78.74941
642.5772, 78.26905
643.0594, 77.96751
643.5415, 78.13748
644.0236, 78.46620
644.5057, 78.86181
644.9879, 79.29462
645.4700, 79.54790
645.9521, 79.51385
646.4342, 79.34217
646.9163, 79.08370
647.3984, 78.71916
647.8806, 78.40159
648.3627, 78.15027
648.8448, 77.91015
649.3269, 77.65687
649.8090, 77.39060
650.2911, 76.93796
650.7733, 76.20448
651.2554, 75.62278
651.7375, 75.94505
652.2196, 76.80867
652.7017, 77.28456
653.1838, 76.91996
653.6660, 76.47693
654.1481, 76.55279
654.6302, 76.95545
655.1123, 77.34893
655.5944, 77.92787
656.0765, 78.15034
656.5587, 77.51289
657.0408, 76.28547
657.5229, 75.72006
658.0050, 76.03163
658.4871, 76.68037
658.9692, 77.65458
659.4514, 78.87682
659.9335, 79.38036
660.4156, 79.08891
660.8977, 78.70072
661.3798, 78.74404
661.8619, 79.07375
662.3441, 79.36338
662.8262, 79.59903
663.3083, 79.62878
663.7904, 79.13689
664.2725, 78.46908
664.7546, 77.99684
665.2368, 77.80788
665.7189, 77.78628
666.2010, 77.99573
666.6831, 78.30629
667.1652, 78.57335
667.6473, 78.82415
668.1295, 78.98621
668.6116, 79.08308
669.0937, 79.07042
669.5758, 78.75568
670.0579, 78.07419
670.5400, 77.73112
671.0222, 78.07641
671.5043, 78.72979
671.9864, 78.84232
672.4685, 78.51655
672.9506, 78.26440
673.4327, 78.50554
673.9149, 78.84892
674.3970, 78.86638
674.8791, 78.61270
675.3612, 78.53586
675.8433, 79.08332
676.3254, 79.62631
676.8076, 79.80802
677.2897, 79.54678
677.7718, 79.33615
678.2539, 79.24059
678.7360, 79.11295
679.2181, 78.84036
679.7003, 78.41090
680.1824, 77.97977
680.6645, 77.53754
681.1466, 77.16441
681.6287, 76.87132
682.1108, 76.71547
682.5930, 76.91654
683.0751, 77.60288
683.5572, 78.35483
684.0393, 78.88338
684.5214, 79.23692
685.0035, 79.48975
685.4857, 79.77987
685.9678, 79.83747
686.4499, 79.34649
686.9320, 78.60617
687.4141, 78.30917
687.8962, 78.86778
688.3784, 79.06180
688.8605, 78.44688
689.3426, 77.35234
689.8247, 76.93370
690.3068, 77.20614
690.7889, 77.68972
691.2711, 78.36584
691.7532, 78.99886
692.2353, 78.95173
692.7174, 78.32944
693.1995, 77.78898
693.6816, 77.86890
694.1638, 78.08144
694.6459, 78.01456
695.1280, 77.62138
695.6101, 77.37476
696.0922, 77.45429
696.5743, 77.66686
697.0565, 77.97260
697.5386, 78.50510
698.0207, 78.47382
698.5028, 77.58498
698.9849, 76.75716
699.4670, 77.16037
699.9492, 78.61496
700.4313, 79.11010
700.9135, 78.29958
701.3956, 77.16481
701.8777, 76.60674
702.3598, 76.49128
702.8419, 76.61494
703.3240, 77.00735
703.8062, 77.45055
704.2883, 77.94173
704.7704, 78.37901
705.2525, 78.60509
705.7346, 78.48769
706.2167, 78.27816
706.6989, 77.89162
707.1810, 77.47702
707.6631, 77.44125
708.1452, 77.87807
708.6273, 78.12897
709.1094, 77.91365
709.5916, 77.47315
710.0737, 77.31973
710.5558, 77.43465
711.0379, 77.71164
711.5200, 78.34748
712.0021, 78.92806
712.4843, 79.04373
712.9664, 78.75794
713.4485, 78.43216
713.9306, 77.99734
714.4127, 77.73878
714.8948, 77.94258
715.3770, 78.61886
715.8591, 78.82069
716.3412, 78.32949
716.8233, 77.79494
717.3054, 77.56850
717.7875, 77.64156
718.2697, 77.90788
718.7518, 78.39286
719.2339, 78.76505
719.7160, 78.54256
720.1981, 78.09349
720.6802, 78.10867
721.1624, 78.72408
721.6445, 79.17937
722.1266, 78.76364
722.6087, 78.14107
723.0908, 77.91590
723.5729, 78.53378
724.0551, 78.81864
724.5372, 78.49175
725.0193, 78.02554
725.5014, 77.92245
725.9835, 78.25264
726.4656, 78.51025
726.9478, 78.62675
727.4299, 78.70956
727.9120, 79.07316
728.3941, 79.54834
728.8762, 79.47702
729.3583, 78.34335
729.8405, 77.33909
730.3226, 77.67696
730.8047, 78.77266
731.2868, 79.65000
731.7689, 80.17434
732.2510, 80.26728
732.7332, 79.56004
733.2153, 78.48398
733.6974, 77.88065
734.1795, 77.85048
734.6616, 78.06333
735.1437, 78.53100
735.6259, 79.10567
736.1080, 79.43879
736.5901, 79.53171
737.0722, 79.39145
737.5543, 78.78170
738.0364, 78.12316
738.5186, 78.02371
739.0007, 78.32543
739.4828, 78.46129
739.9649, 77.80123
740.4470, 77.29097
740.9291, 77.52117
741.4113, 78.43249
741.8934, 78.92360
742.3755, 78.88532
742.8576, 78.59809
743.3397, 77.95798
743.8218, 77.10225
744.3040, 77.46380
744.7861, 79.07710
745.2682, 80.43014
745.7503, 80.14500
746.2324, 79.08034
746.7145, 78.64456
747.1967, 78.84982
747.6788, 79.05746
748.1609, 78.82098
748.6430, 78.53870
749.1251, 78.47865
749.6072, 78.71087
750.0894, 78.95478
750.5715, 79.28142
751.0536, 79.51025
751.5357, 79.50204
752.0178, 79.23679
752.4999, 78.95708
752.9821, 78.64977
753.4642, 78.40865
753.9463, 78.34178
754.4284, 78.40258
754.9105, 78.49734
755.3926, 78.61295
755.8748, 78.77788
756.3569, 79.27542
756.8390, 79.67411
757.3211, 79.51573
757.8032, 78.23891
758.2853, 77.51865
758.7675, 77.66031
759.2496, 78.15742
759.7318, 78.60424
760.2139, 79.00363
760.6960, 79.29468
761.1781, 79.45705
761.6602, 79.56151
762.1423, 79.81190
762.6245, 80.06291
763.1066, 79.86317
763.5887, 78.94134
764.0708, 78.16141
764.5529, 78.39961
765.0350, 79.01488
765.5172, 79.24667
765.9993, 78.32421
766.4814, 77.84064
766.9635, 78.10908
767.4456, 78.67273
767.9277, 78.90715
768.4099, 78.74278
768.8920, 78.73680
769.3741, 79.01903
769.8562, 79.38295
770.3383, 79.50375
770.8204, 79.46163
771.3026, 79.49694
771.7847, 79.80002
772.2668, 79.98302
772.7489, 79.60387
773.2310, 78.97996
773.7131, 78.61378
774.1953, 79.20840
774.6774, 79.25248
775.1595, 78.19424
775.6416, 76.74520
776.1237, 76.32787
776.6058, 77.10234
777.0880, 77.62558
777.5701, 77.41233
778.0522, 77.03916
778.5343, 77.65625
779.0164, 78.93357
779.4985, 79.92242
779.9807, 80.20257
780.4628, 80.10697
780.9449, 79.53794
781.4270, 78.77019
781.9091, 78.36364
782.3912, 78.63499
782.8734, 79.05376
783.3555, 79.68320
783.8376, 80.35557
784.3197, 80.56057
784.8018, 80.24817
785.2839, 80.13009
785.7661, 80.55880
786.2482, 81.10836
786.7303, 81.08593
787.2124, 80.59003
787.6945, 79.90147
788.1766, 78.66521
788.6588, 77.75766
789.1409, 77.84590
789.6230, 78.60371
790.1051, 79.10709
790.5872, 79.30085
791.0693, 79.13266
791.5515, 78.33297
792.0336, 77.29936
792.5157, 77.38026
792.9978, 78.58216
793.4799, 79.60057
793.9620, 79.93999
794.4442, 79.86145
794.9263, 79.55222
795.4084, 79.13396
795.8905, 78.94079
796.3726, 79.44808
796.8547, 79.86960
797.3369, 79.77776
797.8190, 79.32227
798.3011, 79.06295
798.7832, 79.12043
799.2653, 79.12971
799.7474, 78.93559
800.2296, 78.68294
800.7117, 78.87788
801.1938, 79.47129
801.6759, 79.91938
802.1580, 79.85810
802.6401, 79.68557
803.1223, 79.94778
803.6044, 80.47019
804.0865, 80.79234
804.5686, 80.59325
805.0507, 80.34038
805.5328, 80.17968
806.0150, 80.07645
806.4971, 79.91965
806.9792, 79.66753
807.4613, 79.51272
807.9434, 79.56202
808.4255, 79.68103
808.9077, 79.52065
809.3898, 79.13806
809.8719, 78.78988
810.3540, 78.53990
810.8361, 78.41856
811.3182, 78.41038
811.8004, 78.55024
812.2825, 78.91989
812.7646, 80.09982
813.2467, 80.80619
813.7288, 80.65736
814.2109, 79.95159
814.6931, 79.35212
815.1752, 78.82349
815.6573, 78.73827
816.1394, 79.33814
816.6215, 80.21380
817.1037, 80.83982
817.5858, 81.18531
818.0679, 81.18080
818.5500, 80.45272
819.0322, 79.74036
819.5143, 79.38525
819.9964, 79.30730
820.4785, 79.38235
820.9606, 79.80238
821.4427, 79.94212
821.9249, 79.53518
822.4070, 78.97560
822.8891, 79.29826
823.3712, 80.38591
823.8533, 80.86929
824.3354, 80.12129
824.8176, 79.13538
825.2997, 79.20907
825.7818, 79.80209
826.2639, 79.98690
826.7460, 78.76767
827.2281, 77.94366
827.7103, 78.21127
828.1924, 78.95734
828.6745, 79.45011
829.1566, 79.71722
829.6387, 79.49433
830.1208, 78.54696
830.6030, 77.55668
831.0851, 77.75383
831.5672, 78.76952
832.0493, 79.64040
832.5314, 80.17095
833.0135, 80.31750
833.4957, 79.56593
833.9778, 78.61899
834.4599, 78.29388
834.9420, 79.82907
835.4241, 80.37294
835.9063, 79.37951
836.3884, 78.04607
836.8705, 77.98383
837.3526, 79.14390
837.8347, 79.58218
838.3168, 78.94412
838.7990, 78.23384
839.2811, 78.74446
839.7632, 79.74142
840.2453, 80.15580
840.7274, 79.59299
841.2095, 79.09092
841.6917, 78.91675
842.1738, 79.00937
842.6559, 79.38535
843.1380, 80.28159
843.6201, 80.50735
844.1022, 79.88346
844.5844, 79.20605
845.0665, 79.41040
845.5486, 80.13367
846.0307, 80.29595
846.5128, 79.79052
846.9949, 79.29733
847.4771, 79.31578
847.9592, 79.49754
848.4413, 79.55494
848.9234, 79.40517
849.4055, 79.45649
849.8876, 79.90920
850.3698, 80.25185
850.8519, 80.08588
851.3340, 79.47124
851.8161, 79.25488
852.2982, 79.43307
852.7803, 79.58926
853.2625, 79.36438
853.7446, 78.99447
854.2267, 78.65005
854.7088, 78.36042
855.1909, 78.29186
855.6730, 78.67789
856.1552, 79.12198
856.6373, 79.55238
857.1194, 79.93344
857.6015, 79.90388
858.0836, 79.39726
858.5657, 78.98518
859.0479, 78.94995
859.5300, 79.17199
860.0121, 79.48203
860.4942, 79.85851
860.9763, 80.22329
861.4584, 80.75240
861.9406, 81.03148
862.4227, 80.62020
862.9048, 79.77858
863.3869, 79.47544
863.8690, 80.06184
864.3511, 80.24809
864.8333, 79.52089
865.3154, 78.49637
865.7975, 78.70884
866.2796, 79.83726
866.7617, 80.44172
867.2438, 79.69235
867.7260, 78.82211
868.2081, 78.81893
868.6902, 79.29133
869.1723, 79.62222
869.6544, 79.56530
870.1365, 79.52225
870.6187, 79.46159
871.1008, 79.48202
871.5829, 79.82224
872.0650, 80.45450
872.5471, 80.74731
873.0292, 80.55106
873.5114, 80.29150
873.9935, 80.46071
874.4756, 80.80351
874.9577, 81.01527
875.4399, 81.05714
875.9220, 80.90088
876.4041, 80.16258
876.8862, 79.54417
877.3683, 79.66830
877.8505, 80.77732
878.3326, 80.77180
878.8147, 79.49947
879.2968, 78.22746
879.7789, 78.26810
880.2610, 78.95421
880.7432, 79.19725
881.2253, 78.93441
881.7074, 78.61741
882.1895, 78.24498
882.6716, 78.07287
883.1537, 78.35527
883.6359, 79.05208
884.1180, 79.50466
884.6001, 79.71372
885.0822, 79.68668
885.5643, 79.34639
886.0464, 78.81979
886.5286, 78.32850
887.0107, 77.90331
887.4928, 77.66948
887.9749, 77.89545
888.4570, 78.13050
888.9391, 78.07400
889.4213, 77.84112
889.9034, 77.81889
890.3855, 78.08933
890.8676, 78.42033
891.3497, 78.85208
891.8318, 79.19670
892.3140, 79.00169
892.7961, 78.39770
893.2782, 77.85088
893.7603, 77.37653
894.2424, 77.30234
894.7245, 78.42744
895.2067, 79.85423
895.6888, 80.47911
896.1709, 79.35348
896.6530, 78.68263
897.1351, 78.69682
897.6172, 78.81338
898.0994, 78.22831
898.5815, 77.10820
899.0636, 76.88387
899.5457, 77.74602
900.0278, 78.49168
900.5099, 77.71107
900.9921, 76.63941
901.4742, 76.55767
901.9563, 77.78718
902.4384, 78.53394
902.9205, 78.23868
903.4026, 77.95358
903.8848, 78.25380
904.3669, 79.03292
904.8490, 79.39428
905.3311, 79.34586
905.8132, 79.17803
906.2953, 79.03207
906.7775, 78.87702
907.2596, 78.52644
907.7417, 78.11460
908.2238, 78.10259
908.7059, 79.32807
909.1880, 80.07116
909.6702, 79.86808
910.1523, 79.04668
910.6344, 78.23692
911.1165, 77.44730
911.5986, 77.14715
912.0807, 77.63908
912.5629, 78.23156
913.0450, 78.07465
913.5271, 77.52071
914.0092, 77.06921
914.4913, 76.72107
914.9734, 76.77637
915.4556, 77.70454
915.9377, 78.63882
916.4198, 78.63799
916.9019, 77.61468
917.3840, 77.30165
917.8661, 77.84808
918.3483, 78.52977
918.8304, 78.72317
919.3125, 78.65884
919.7946, 78.67886
920.2767, 78.81981
920.7589, 78.64206
921.2410, 77.51270
921.7231, 76.56086
922.2052, 76.22947
922.6873, 76.46967
923.1694, 77.06056
923.6516, 78.02180
924.1337, 78.44161
924.6158, 77.38047
925.0979, 75.94406
925.5800, 75.57612
926.0621, 76.01205
926.5443, 76.58958
927.0264, 77.14999
927.5085, 77.75613
927.9906, 78.51366
928.4727, 79.26767
928.9548, 79.81863
929.4370, 80.17522
929.9191, 79.93880
930.4012, 78.87064
930.8833, 77.94638
931.3654, 78.68130
931.8475, 80.06290
932.3297, 80.70346
932.8118, 80.18551
933.2939, 79.42062
933.7761, 78.25233
934.2582, 77.26263
934.7403, 76.81037
935.2224, 76.89917
935.7045, 77.35184
936.1866, 78.19395
936.6688, 78.77035
937.1509, 78.30865
937.6330, 77.55024
938.1151, 77.43885
938.5972, 77.84731
939.0793, 78.00784
939.5615, 77.34236
940.0436, 76.83898
940.5257, 76.84480
941.0078, 77.12070
941.4899, 76.97545
941.9720, 76.42828
942.4542, 75.93584
942.9363, 75.51485
943.4184, 75.46542
943.9005, 76.59741
944.3826, 78.11206
944.8647, 78.88352
945.3469, 78.06745
945.8290, 77.58571
946.3111, 77.78986
946.7932, 78.11543
947.2753, 78.06482
947.7574, 77.65568
948.2396, 77.16842
948.7217, 76.60863
949.2038, 76.43999
949.6859, 77.60293
950.1680, 78.88801
950.6501, 78.99764
951.1323, 77.95500
951.6144, 77.49841
952.0965, 78.35454
952.5786, 78.90720
953.0607, 78.55384
953.5428, 77.63646
954.0250, 77.10840
954.5071, 76.94321
954.9892, 77.00142
955.4713, 77.30305
955.9534, 77.68284
956.4355, 78.25474
956.9177, 78.73740
957.3998, 78.69974
957.8819, 77.67426
958.3640, 76.93210
958.8461, 76.53275
959.3282, 76.34949
959.8104, 76.22012
960.2925, 76.19747
960.7746, 76.62179
961.2567, 77.51618
961.7388, 78.15627
962.2209, 77.83121
962.7031, 77.30424
963.1852, 77.07259
963.6673, 77.14853
964.1494, 77.28261
964.6315, 77.55054
965.1136, 77.58853
965.5958, 77.15695
966.0779, 76.52184
966.5600, 76.09793
967.0421, 75.92332
967.5242, 76.12852
968.0063, 77.14700
968.4885, 78.02435
968.9706, 78.48380
969.4527, 78.55782
969.9348, 78.19202
970.4169, 77.18742
970.8990, 76.82774
971.3812, 77.27644
971.8633, 77.86108
972.3454, 78.00926
972.8275, 77.81752
973.3096, 77.18392
973.7917, 76.12760
974.2739, 75.69998
974.7560, 77.05843
975.2381, 78.25938
975.7202, 78.48420
976.2023, 77.94948
976.6844, 77.79453
977.1666, 78.01206
977.6487, 78.07912
978.1308, 77.79845
978.6129, 77.25856
979.0950, 76.08927
979.5771, 74.85027
980.0593, 74.44910
980.5414, 75.91544
981.0235, 77.09761
981.5056, 77.90173
981.9877, 78.42361
982.4698, 78.84030
982.9520, 79.09567
983.4341, 78.64506
983.9162, 77.46551
984.3983, 76.47354
984.8804, 76.43462
985.3625, 76.73943
985.8447, 77.03483
986.3268, 77.28503
986.8089, 77.40617
987.2910, 77.37327
987.7731, 77.27869
988.2552, 77.13594
988.7374, 76.97197
989.2195, 76.81221
989.7016, 76.67902
990.1837, 76.65550
990.6658, 76.91198
991.1479, 76.99853
991.6301, 76.46455
992.1122, 75.84628
992.5944, 75.70998
993.0765, 76.19884
993.5586, 76.35567
994.0407, 76.13548
994.5228, 75.86720
995.0049, 75.77166
995.4871, 75.81718
995.9692, 75.93778
996.4513, 76.14757
996.9334, 76.54858
997.4155, 77.85280
997.8976, 78.43928
998.3798, 77.60400
998.8619, 76.04300
999.3440, 75.37556
999.8261, 75.54583
1000.308, 76.12720
1000.790, 77.18618
1001.272, 78.02190
1001.755, 77.89812
1002.237, 77.32867
1002.719, 76.83443
1003.201, 76.45757
1003.683, 76.21935
1004.165, 76.05614
1004.647, 76.19012
1005.129, 77.03941
1005.612, 78.24325
1006.094, 78.72866
1006.576, 78.59619
1007.058, 78.34028
1007.540, 78.07700
1008.022, 77.89297
1008.504, 77.89486
1008.986, 77.97070
1009.468, 77.90390
1009.951, 77.66257
1010.433, 77.52626
1010.915, 77.52696
1011.397, 77.68429
1011.879, 78.31358
1012.361, 78.95024
1012.843, 78.90957
1013.325, 77.98979
1013.807, 77.27991
1014.290, 76.91775
1014.772, 76.87973
1015.254, 77.36388
1015.736, 78.11290
1016.218, 77.76314
1016.700, 76.56760
1017.182, 76.03005
1017.664, 77.69530
1018.147, 79.08391
1018.629, 77.92125
1019.111, 75.75841
1019.593, 75.05897
1020.075, 76.61262
1020.557, 77.36100
1021.039, 77.01606
1021.521, 76.50907
1022.003, 76.88726
1022.486, 77.64713
1022.968, 77.87605
1023.450, 77.55588
1023.932, 77.13913
1024.414, 76.61455
1024.896, 76.24117
1025.378, 76.05502
1025.860, 76.08842
1026.343, 76.54785
1026.825, 77.38785
1027.307, 78.10615
1027.789, 78.60143
1028.271, 78.81808
1028.753, 78.54736
1029.235, 78.05692
1029.717, 77.60623
1030.199, 77.15199
1030.682, 77.08037
1031.164, 77.52463
1031.646, 77.97903
1032.128, 78.15665
1032.610, 78.10734
1033.092, 77.89047
1033.574, 77.54739
1034.056, 77.23684
1034.539, 76.84516
1035.021, 76.73378
1035.503, 77.38145
1035.985, 78.13143
1036.467, 77.91744
1036.949, 76.70029
1037.431, 76.17587
1037.913, 76.56030
1038.396, 77.37097
1038.878, 78.73319
1039.360, 79.92188
1039.842, 80.12820
1040.324, 79.28311
1040.806, 78.59858
1041.288, 78.19771
1041.770, 77.81593
1042.252, 77.32130
1042.734, 76.84676
1043.217, 76.61494
1043.699, 76.62429
1044.181, 76.91311
1044.663, 77.70164
1045.145, 78.27857
1045.627, 78.15742
1046.109, 77.89262
1046.591, 77.91283
1047.074, 78.23475
1047.556, 78.40219
1048.038, 78.41626
1048.520, 78.36487
1049.002, 78.27435
1049.484, 78.17355
1049.966, 78.15345
1050.448, 78.14129
1050.931, 77.88909
1051.413, 77.03185
1051.895, 76.78432
1052.377, 77.49004
1052.859, 78.31828
1053.341, 78.09852
1053.823, 77.27686
1054.305, 76.86518
1054.787, 76.98177
1055.270, 77.12112
1055.752, 77.17430
1056.234, 77.05939
1056.716, 76.67675
1057.198, 76.12887
1057.680, 75.78143
1058.162, 75.63635
1058.644, 75.78606
1059.126, 76.41899
1059.609, 76.94726
1060.091, 76.44588
1060.573, 75.76579
1061.055, 76.02854
1061.537, 77.79272
1062.019, 78.55106
1062.501, 78.09560
1062.983, 77.40185
1063.466, 77.13103
1063.948, 77.04684
1064.430, 76.56571
1064.912, 75.88095
1065.394, 75.57004
1065.876, 76.22210
1066.358, 76.79109
1066.840, 77.15319
1067.323, 77.30193
1067.805, 77.03353
1068.287, 76.47178
1068.769, 76.75278
1069.251, 77.95724
1069.733, 78.77238
1070.215, 77.73463
1070.697, 76.48557
1071.179, 76.06323
1071.661, 76.37426
1072.144, 77.06716
1072.626, 78.23515
1073.108, 79.12724
1073.590, 79.56331
1074.072, 79.59444
1074.554, 79.00352
1075.036, 78.17706
1075.518, 77.67016
1076.001, 77.70096
1076.483, 77.42972
1076.965, 76.43932
1077.447, 75.90220
1077.929, 76.69836
1078.411, 78.22376
1078.893, 78.75223
1079.375, 78.48709
1079.858, 78.07677
1080.340, 77.50452
1080.822, 77.22537
1081.304, 77.84464
1081.786, 78.48875
1082.268, 78.15318
1082.750, 76.80566
1083.232, 76.64279
1083.714, 77.69852
1084.197, 78.53130
1084.679, 77.67199
1085.161, 76.59826
1085.643, 76.42552
1086.125, 76.97916
1086.607, 77.56650
1087.089, 78.31470
1087.571, 78.48184
1088.054, 77.82222
1088.536, 77.08633
1089.018, 77.27430
1089.500, 77.89342
1089.982, 78.25574
1090.464, 78.28174
1090.946, 78.20082
1091.428, 78.05840
1091.911, 77.79984
1092.393, 77.32449
1092.875, 76.80860
1093.357, 76.79259
1093.839, 77.09852
1094.321, 77.07154
1094.803, 76.28114
1095.285, 75.95754
1095.767, 77.29259
1096.250, 78.75478
1096.732, 79.35215
1097.214, 79.11283
1097.696, 78.58003
1098.178, 77.76451
1098.660, 76.93224
1099.142, 76.02608
1099.624, 75.37508
1100.106, 75.40646
1100.589, 75.79366
1101.071, 75.97616
1101.553, 75.72313
1102.035, 76.08731
1102.517, 77.23997
1102.999, 78.15907
1103.481, 77.60287
1103.963, 76.55156
1104.446, 76.35669
1104.928, 76.85866
1105.410, 77.21769
1105.892, 77.18464
1106.374, 77.09328
1106.856, 76.97688
1107.338, 76.83019
1107.820, 76.63780
1108.302, 76.41032
1108.785, 76.11738
1109.267, 75.75899
1109.749, 75.56016
1110.231, 75.57565
1110.713, 75.85518
1111.195, 76.57251
1111.677, 77.45534
1112.159, 77.73170
1112.641, 77.46760
1113.124, 76.98896
1113.606, 76.26659
1114.088, 75.81570
1114.570, 76.50520
1115.052, 77.16867
1115.534, 76.59538
1116.016, 74.88895
1116.498, 74.77442
1116.981, 76.31823
1117.463, 77.32832
1117.945, 76.42020
1118.427, 75.24741
1118.909, 75.69604
1119.391, 76.82833
1119.873, 77.25285
1120.355, 76.45719
1120.838, 76.14776
1121.320, 76.46481
1121.802, 76.65983
1122.284, 75.90518
1122.766, 74.90334
1123.248, 74.76295
1123.730, 75.25636
1124.212, 75.74931
1124.694, 76.30514
1125.177, 76.38879
1125.659, 75.69445
1126.141, 75.05832
1126.623, 75.70637
1127.105, 77.03088
1127.587, 77.29009
1128.069, 76.53658
1128.551, 75.87282
1129.033, 75.72862
1129.516, 75.84252
1129.998, 76.24753
1130.480, 76.72697
1130.962, 76.93246
1131.444, 76.88807
1131.926, 76.62933
1132.408, 76.14140
1132.890, 75.91447
1133.373, 76.84964
1133.855, 77.51534
1134.337, 76.73521
1134.819, 75.12523
1135.301, 75.09238
1135.783, 76.56471
1136.265, 77.39677
1136.747, 76.92461
1137.229, 76.13455
1137.712, 75.54256
1138.194, 75.25346
1138.676, 75.56574
1139.158, 76.46048
1139.640, 76.64819
1140.122, 76.05543
1140.604, 75.46597
1141.086, 75.16960
1141.569, 75.06241
1142.051, 75.08565
1142.533, 75.18722
1143.015, 75.27846
1143.497, 75.27508
1143.979, 75.59214
1144.461, 76.35573
1144.943, 76.92426
1145.426, 76.72664
1145.908, 76.23550
1146.390, 76.15878
1146.872, 76.38170
1147.354, 76.66537
1147.836, 77.09964
1148.318, 77.34930
1148.800, 77.43169
1149.282, 77.27542
1149.765, 76.65337
1150.247, 75.81418
1150.729, 75.30062
1151.211, 75.08045
1151.693, 74.95168
1152.175, 74.65843
1152.657, 74.75630
1153.139, 75.49046
1153.621, 76.37374
1154.104, 76.85702
1154.586, 77.00771
1155.068, 76.96651
1155.550, 76.77148
1156.032, 76.68887
1156.514, 77.12510
1156.996, 77.32444
1157.478, 76.89064
1157.961, 76.25998
1158.443, 76.42483
1158.925, 77.15883
1159.407, 76.93251
1159.889, 75.49666
1160.371, 74.56501
1160.853, 75.85255
1161.335, 77.20900
1161.818, 77.42404
1162.300, 76.91371
1162.782, 76.87899
1163.264, 77.28513
1163.746, 77.79489
1164.228, 78.41642
1164.710, 78.63657
1165.192, 77.61037
1165.674, 76.45203
1166.156, 76.12035
1166.639, 76.43567
1167.121, 76.02597
1167.603, 74.90313
1168.085, 74.59621
1168.567, 75.95397
1169.049, 77.18076
1169.531, 76.17180
1170.013, 74.65035
1170.496, 74.54827
1170.978, 75.92878
1171.460, 76.45500
1171.942, 76.08952
1172.424, 75.56631
1172.906, 75.05975
1173.388, 74.79917
1173.870, 75.31310
1174.353, 76.06788
1174.835, 76.25893
1175.317, 75.66031
1175.799, 75.72414
1176.281, 76.56098
1176.763, 77.17414
1177.245, 76.77952
1177.727, 76.12034
1178.209, 76.02794
1178.692, 76.26786
1179.174, 76.44845
1179.656, 76.51381
1180.138, 76.52234
1180.620, 76.45852
1181.102, 76.41492
1181.584, 76.46755
1182.066, 76.57038
1182.548, 76.73028
1183.031, 76.88438
1183.513, 76.89164
1183.995, 76.80028
1184.477, 76.31482
1184.959, 75.26891
1185.441, 74.41653
1185.923, 74.47105
1186.405, 75.08934
1186.888, 76.08366
1187.370, 77.25120
1187.852, 77.89509
1188.334, 77.63423
1188.816, 77.40150
1189.298, 77.28709
1189.780, 77.18433
1190.262, 76.95316
1190.745, 76.68040
1191.227, 76.49625
1191.709, 76.39734
1192.191, 76.32734
1192.673, 76.35282
1193.155, 76.20628
1193.637, 75.75302
1194.119, 75.38975
1194.601, 75.80105
1195.084, 76.50800
1195.566, 76.68129
1196.048, 76.31406
1196.530, 76.05749
1197.012, 76.08324
1197.494, 76.12466
1197.976, 76.11036
1198.458, 76.14624
1198.941, 76.61543
1199.423, 77.13331
1199.905, 76.82837
1200.387, 75.64568
1200.869, 75.03747
1201.351, 75.51976
1201.833, 76.10684
1202.315, 76.60004
1202.797, 77.01366
1203.280, 77.38499
1203.762, 77.68157
1204.244, 77.85140
1204.726, 77.88506
1205.208, 77.80019
1205.690, 77.61691
1206.172, 77.26022
1206.654, 76.57755
1207.136, 75.93940
1207.619, 76.09570
1208.101, 76.71744
1208.583, 77.31071
1209.065, 77.83125
1209.547, 77.92928
1210.029, 77.39973
1210.511, 76.83713
1210.993, 76.42620
1211.476, 76.12904
1211.958, 75.87540
1212.440, 75.67174
1212.922, 75.53907
1213.404, 75.48692
1213.886, 75.47474
1214.368, 75.49569
1214.850, 75.55263
1215.333, 75.65691
1215.815, 75.78376
1216.297, 75.95207
1216.779, 76.09014
1217.261, 76.03373
1217.743, 75.65612
1218.225, 75.46159
1218.707, 75.50721
1219.189, 75.71029
1219.672, 76.21852
1220.154, 76.62059
1220.636, 75.78188
1221.118, 74.41015
1221.600, 73.77713
1222.082, 74.37654
1222.564, 75.26633
1223.046, 76.61675
1223.528, 77.57530
1224.011, 77.54788
1224.493, 77.04971
1224.975, 76.97550
1225.457, 77.06207
1225.939, 76.79359
1226.421, 75.71983
1226.903, 75.32399
1227.385, 75.82020
1227.868, 76.26246
1228.350, 76.03317
1228.832, 75.54774
1229.314, 75.43786
1229.796, 75.52823
1230.278, 75.49358
1230.760, 75.60704
1231.242, 75.94141
1231.724, 75.89828
1232.207, 76.56200
1232.689, 76.78944
1233.171, 76.72620
1233.653, 76.35927
1234.135, 75.91091
1234.617, 75.79306
1235.099, 76.22820
1235.581, 76.36593
1236.063, 76.16526
1236.546, 75.95445
1237.028, 76.01724
1237.510, 76.09009
1237.992, 75.72636
1238.474, 75.24675
1238.956, 75.27780
1239.438, 76.11951
1239.920, 76.20454
1240.403, 75.48458
1240.885, 74.65445
1241.367, 73.75795
1241.849, 73.36131
1242.331, 74.46182
1242.813, 76.15361
1243.295, 77.04179
1243.777, 76.94188
1244.260, 76.97346
1244.742, 77.13677
1245.224, 77.15526
1245.706, 76.65514
1246.188, 76.17105
1246.670, 76.14413
1247.152, 76.30732
1247.634, 76.33357
1248.116, 76.23624
1248.599, 75.51883
1249.081, 74.27608
1249.563, 73.88187
1250.045, 76.42670
1250.527, 78.57105
1251.009, 77.96856
1251.491, 76.47034
1251.973, 75.97773
1252.455, 76.43889
1252.938, 76.60055
1253.420, 76.47623
1253.902, 76.28916
1254.384, 75.83983
1254.866, 75.77954
1255.348, 76.81083
1255.830, 77.85681
1256.313, 77.82567
1256.795, 76.92062
1257.277, 76.37793
1257.759, 76.15984
1258.241, 76.00794
1258.723, 75.75928
1259.205, 75.63076
1259.687, 75.68799
1260.169, 75.82249
1260.651, 75.98111
1261.134, 76.13190
1261.616, 76.07704
1262.098, 75.91282
1262.580, 75.97523
1263.062, 76.91362
1263.544, 77.17607
1264.026, 76.31961
1264.508, 75.52446
1264.991, 76.04490
1265.473, 77.16203
1265.955, 77.41482
1266.437, 77.10866
1266.919, 77.08727
1267.401, 78.02680
1267.883, 78.37845
1268.365, 78.04231
1268.848, 77.42786
1269.330, 76.70657
1269.812, 76.00611
1270.294, 75.27931
1270.776, 74.73756
1271.258, 74.98649
1271.740, 76.60118
1272.222, 77.05789
1272.704, 76.20947
1273.187, 75.22424
1273.669, 74.72694
1274.151, 74.62618
1274.633, 75.07643
1275.115, 75.77338
1275.597, 76.21687
1276.079, 76.33718
1276.561, 76.67207
1277.043, 77.21280
1277.526, 77.61616
1278.008, 77.71796
1278.490, 77.56556
1278.972, 76.79609
1279.454, 76.08215
1279.936, 76.31248
1280.418, 77.42350
1280.900, 77.27259
1281.383, 76.09458
1281.865, 75.40624
1282.347, 76.60496
1282.829, 77.47835
1283.311, 76.96961
1283.793, 76.26612
1284.275, 76.34852
1284.757, 76.96176
1285.240, 77.01962
1285.722, 76.66701
1286.204, 76.37710
1286.686, 76.47385
1287.168, 76.33553
1287.650, 75.70996
1288.132, 75.29441
1288.614, 75.87871
1289.096, 76.77756
1289.578, 76.40077
1290.061, 75.29077
1290.543, 74.53226
1291.025, 74.32670
1291.507, 74.84353
1291.989, 76.28159
1292.471, 77.51049
1292.953, 77.88152
1293.435, 77.70816
1293.918, 76.89753
1294.400, 76.01102
1294.882, 76.04732
1295.364, 77.19602
1295.846, 77.48552
1296.328, 76.90180
1296.810, 76.35234
1297.292, 76.13295
1297.775, 76.31577
1298.257, 77.57182
1298.739, 78.75494
1299.221, 78.75772
1299.703, 77.70513
1300.185, 76.62496
1300.667, 75.60828
1301.149, 75.27528
1301.631, 76.20393
1302.114, 76.91664
1302.596, 77.02977
##END=



