##NAMES=Cobaltomenite
##RRUFFID=R110040
##IDEAL CHEMISTRY=Co^2+^Se^4+^O_3_&#183;2H_2_O
##LOCALITY=Musonoi mine extension, Kolwezi, Katanga, Congo
##OWNER=RRUFF
##SOURCE=William W Pinch
##DESCRIPTION=Pale pink to purple grains scattered through a matrix of chalcomenite, demesmaekerite, and derriksite
##STATUS=The identification of this mineral has been confirmed by single-crystal X-ray diffraction.
##URL=rruff.info/R110040
181.6122, 654.8017
182.0944, 654.7819
182.5765, 655.5078
183.0586, 658.6481
183.5407, 662.6121
184.0228, 663.7469
184.5049, 661.7050
184.9871, 658.5875
185.4692, 656.7208
185.9513, 655.9167
186.4334, 655.3394
186.9155, 654.4774
187.3976, 653.4915
187.8798, 652.9599
188.3619, 652.9254
188.8440, 653.1852
189.3261, 653.9088
189.8082, 655.0049
190.2903, 655.1506
190.7725, 653.2215
191.2546, 649.5663
191.7367, 646.1299
192.2188, 642.7624
192.7009, 640.1603
193.1830, 640.4620
193.6652, 643.6895
194.1473, 645.8422
194.6294, 643.4512
195.1115, 637.0496
195.5936, 633.7522
196.0757, 634.3543
196.5579, 637.4694
197.0400, 641.3174
197.5221, 646.1188
198.0042, 649.4260
198.4863, 648.9284
198.9684, 644.5659
199.4506, 642.2971
199.9327, 642.9521
200.4148, 645.3588
200.8969, 646.9687
201.3790, 647.6364
201.8611, 648.4010
202.3433, 649.9197
202.8254, 652.2532
203.3075, 654.7546
203.7896, 657.6258
204.2717, 660.3978
204.7538, 661.2659
205.2360, 659.4662
205.7181, 658.5287
206.2002, 661.1617
206.6823, 668.1145
207.1644, 673.5968
207.6465, 676.8932
208.1287, 678.5560
208.6108, 680.1451
209.0929, 681.4805
209.5750, 683.2190
210.0571, 685.9072
210.5392, 689.8317
211.0214, 693.5300
211.5035, 697.2686
211.9856, 700.5856
212.4677, 701.6634
212.9498, 699.7276
213.4319, 697.3410
213.9140, 696.1895
214.3962, 696.8157
214.8783, 696.5482
215.3604, 694.2131
215.8425, 690.9499
216.3246, 691.9828
216.8067, 699.3351
217.2889, 707.0759
217.7710, 711.5866
218.2531, 712.0224
218.7352, 711.5742
219.2173, 709.8700
219.6994, 707.4501
220.1816, 707.1242
220.6637, 709.7780
221.1458, 712.9305
221.6279, 714.8665
222.1100, 714.8190
222.5921, 715.6891
223.0743, 718.2106
223.5564, 721.8550
224.0385, 723.9799
224.5206, 723.3149
225.0027, 723.0856
225.4848, 725.6316
225.9670, 732.7339
226.4491, 738.2910
226.9312, 741.6827
227.4133, 743.1889
227.8954, 744.0161
228.3775, 743.2626
228.8597, 743.1264
229.3418, 745.1904
229.8239, 750.8053
230.3060, 755.4303
230.7881, 758.4420
231.2702, 760.1569
231.7524, 761.8400
232.2345, 762.9240
232.7166, 764.6956
233.1987, 768.1159
233.6808, 774.4276
234.1629, 779.5045
234.6451, 782.5416
235.1272, 784.1119
235.6093, 787.1260
236.0914, 793.5190
236.5735, 798.7111
237.0556, 799.5536
237.5378, 792.4235
238.0199, 789.1215
238.5020, 792.2066
238.9841, 799.6539
239.4662, 802.8757
239.9483, 799.4335
240.4305, 795.1624
240.9126, 793.2435
241.3947, 795.1537
241.8768, 796.2281
242.3589, 796.2793
242.8410, 795.3751
243.3232, 793.6924
243.8053, 791.1842
244.2874, 787.9489
244.7695, 784.1011
245.2516, 779.7866
245.7337, 774.2484
246.2159, 766.1700
246.6980, 756.9661
247.1801, 751.5995
247.6622, 751.9913
248.1443, 753.2004
248.6264, 753.0345
249.1086, 751.4130
249.5907, 748.4186
250.0728, 742.8782
250.5549, 736.3026
251.0370, 733.0380
251.5191, 735.1552
252.0013, 737.3243
252.4834, 736.9266
252.9655, 732.2832
253.4476, 729.6718
253.9297, 730.1968
254.4118, 732.2766
254.8940, 732.1954
255.3761, 728.7676
255.8582, 725.2636
256.3403, 723.1912
256.8224, 723.2303
257.3046, 722.3353
257.7867, 719.9932
258.2688, 717.0300
258.7509, 715.0647
259.2330, 714.3196
259.7151, 714.1276
260.1973, 714.2840
260.6794, 714.8116
261.1615, 715.6172
261.6436, 716.9228
262.1257, 718.3143
262.6078, 718.8967
263.0900, 718.0823
263.5721, 717.9362
264.0542, 719.7117
264.5363, 724.1057
265.0184, 725.7134
265.5005, 723.5391
265.9827, 719.8289
266.4648, 717.6250
266.9469, 717.0623
267.4290, 717.7473
267.9111, 720.2284
268.3932, 724.7394
268.8754, 726.4501
269.3575, 724.2384
269.8396, 720.9256
270.3217, 720.4408
270.8038, 723.6633
271.2859, 726.2289
271.7681, 726.8204
272.2502, 725.4926
272.7323, 723.9787
273.2144, 722.2284
273.6965, 720.4349
274.1786, 718.1931
274.6608, 714.8983
275.1429, 714.6600
275.6250, 720.0291
276.1071, 729.7393
276.5892, 733.6901
277.0714, 730.5903
277.5535, 725.2388
278.0356, 721.9938
278.5177, 721.0545
278.9998, 720.0987
279.4819, 718.6024
279.9641, 716.7284
280.4462, 715.2419
280.9283, 714.1591
281.4104, 713.3650
281.8925, 712.6818
282.3746, 712.1060
282.8568, 712.2343
283.3389, 713.6567
283.8210, 715.4876
284.3031, 714.6381
284.7852, 710.7651
285.2673, 707.2604
285.7495, 707.0521
286.2316, 709.8556
286.7137, 711.6668
287.1958, 711.6748
287.6779, 710.9266
288.1600, 711.8536
288.6422, 714.4854
289.1243, 716.8448
289.6064, 717.2180
290.0885, 716.0504
290.5706, 715.7782
291.0527, 716.8093
291.5349, 718.2863
292.0170, 718.6458
292.4991, 717.9901
292.9812, 717.6278
293.4633, 718.5477
293.9454, 720.3408
294.4276, 721.5809
294.9097, 722.0487
295.3918, 722.5585
295.8739, 724.7096
296.3560, 728.0378
296.8381, 730.4318
297.3203, 729.9193
297.8024, 727.9449
298.2845, 727.5849
298.7666, 728.9997
299.2487, 731.0260
299.7308, 732.3744
300.2130, 733.3835
300.6951, 735.0351
301.1772, 739.2248
301.6593, 743.5372
302.1414, 743.5234
302.6235, 739.2869
303.1057, 735.3577
303.5878, 737.1757
304.0699, 741.8256
304.5520, 743.7332
305.0341, 738.9417
305.5162, 732.6306
305.9984, 730.2181
306.4805, 731.3427
306.9626, 733.3693
307.4447, 734.4896
307.9268, 735.4495
308.4089, 737.4997
308.8911, 742.3815
309.3732, 746.2437
309.8553, 744.8097
310.3374, 739.4571
310.8195, 734.7952
311.3016, 733.9598
311.7838, 734.7615
312.2659, 735.3558
312.7480, 735.4920
313.2301, 735.1190
313.7122, 733.3594
314.1943, 731.0512
314.6765, 730.0043
315.1586, 732.8024
315.6407, 735.8722
316.1228, 736.9538
316.6049, 735.4980
317.0870, 733.1400
317.5692, 729.8125
318.0513, 726.2128
318.5334, 723.3387
319.0155, 721.9611
319.4976, 720.9902
319.9797, 719.6168
320.4619, 717.6415
320.9440, 717.1552
321.4261, 720.9951
321.9082, 725.6542
322.3903, 727.7921
322.8724, 723.6029
323.3546, 719.9284
323.8367, 719.3815
324.3188, 721.8166
324.8009, 722.2945
325.2830, 716.9221
325.7651, 711.2675
326.2473, 708.9518
326.7294, 714.0803
327.2115, 718.2316
327.6936, 720.2595
328.1757, 720.5595
328.6578, 721.1786
329.1400, 722.5828
329.6221, 723.9747
330.1042, 725.0256
330.5863, 725.5164
331.0684, 726.0740
331.5505, 727.2305
332.0327, 728.3417
332.5148, 727.8497
332.9969, 724.3683
333.4790, 721.0666
333.9611, 718.8182
334.4432, 717.5440
334.9254, 717.7078
335.4075, 720.1276
335.8896, 723.2521
336.3717, 724.5472
336.8538, 722.4861
337.3359, 722.3584
337.8180, 726.5477
338.3001, 734.9256
338.7823, 739.7838
339.2644, 740.1885
339.7465, 738.8699
340.2286, 738.2682
340.7107, 738.4583
341.1928, 739.0678
341.6750, 740.1049
342.1571, 741.5018
342.6392, 742.7916
343.1213, 743.8870
343.6034, 745.4348
344.0855, 748.4880
344.5677, 752.9158
345.0498, 755.7242
345.5319, 756.0269
346.0140, 755.3969
346.4961, 756.8428
346.9782, 760.2980
347.4604, 764.4499
347.9425, 768.8403
348.4246, 773.3675
348.9067, 777.5421
349.3888, 781.3522
349.8709, 784.7522
350.3531, 787.2285
350.8352, 789.1130
351.3173, 791.6295
351.7994, 795.5241
352.2815, 800.3236
352.7636, 805.2208
353.2458, 810.2080
353.7279, 815.6575
354.2100, 822.5097
354.6921, 829.9365
355.1742, 836.3942
355.6563, 840.5574
356.1385, 844.5482
356.6206, 850.6041
357.1027, 858.4224
357.5848, 866.3199
358.0669, 873.1378
358.5490, 879.7120
359.0312, 887.1680
359.5133, 896.8553
359.9954, 905.0611
360.4775, 908.1503
360.9596, 908.2416
361.4417, 909.7689
361.9239, 915.9201
362.4060, 922.9623
362.8881, 929.4805
363.3702, 935.7322
363.8523, 939.2423
364.3344, 937.0732
364.8166, 932.4866
365.2987, 929.1765
365.7808, 931.6534
366.2629, 931.9288
366.7450, 926.8010
367.2271, 916.2685
367.7093, 906.8627
368.1914, 899.2840
368.6735, 893.0794
369.1556, 887.9481
369.6377, 887.0750
370.1198, 883.3287
370.6020, 874.7819
371.0841, 862.9232
371.5662, 853.1213
372.0483, 846.2937
372.5304, 840.5311
373.0125, 835.2708
373.4947, 831.0978
373.9768, 825.5421
374.4589, 817.0280
374.9410, 808.3281
375.4231, 804.6125
375.9052, 807.9586
376.3874, 810.3737
376.8695, 809.0071
377.3516, 803.9775
377.8337, 800.7863
378.3158, 799.6749
378.7979, 799.6357
379.2801, 800.3781
379.7622, 802.0401
380.2443, 801.4131
380.7264, 796.8709
381.2085, 790.4702
381.6906, 787.8155
382.1728, 788.9454
382.6549, 791.3738
383.1370, 794.0329
383.6191, 796.7053
384.1012, 798.4040
384.5833, 798.9440
385.0655, 798.7716
385.5476, 798.4189
386.0297, 797.8419
386.5118, 796.9246
386.9939, 794.8517
387.4760, 792.7061
387.9582, 792.1076
388.4403, 793.0970
388.9224, 794.9211
389.4045, 797.7060
389.8866, 800.7458
390.3687, 803.0546
390.8509, 804.1815
391.3330, 804.6029
391.8151, 804.1837
392.2972, 803.2023
392.7793, 802.7621
393.2614, 803.3675
393.7436, 804.7410
394.2257, 806.9742
394.7078, 810.8271
395.1899, 813.6352
395.6720, 812.8894
396.1541, 810.7601
396.6363, 810.7410
397.1184, 816.6843
397.6005, 822.0623
398.0826, 824.2098
398.5647, 822.5250
399.0468, 821.7000
399.5290, 823.2543
400.0111, 825.2405
400.4932, 826.0675
400.9753, 824.1545
401.4574, 823.2089
401.9395, 823.7165
402.4217, 825.4796
402.9038, 827.6621
403.3859, 830.7496
403.8680, 833.5557
404.3501, 835.6577
404.8322, 837.2564
405.3144, 837.1914
405.7965, 834.8302
406.2786, 831.5598
406.7607, 829.6121
407.2428, 829.1592
407.7249, 829.0875
408.2071, 829.1022
408.6892, 829.1963
409.1713, 828.9052
409.6534, 827.9540
410.1355, 828.2370
410.6176, 833.5151
411.0998, 842.4365
411.5819, 846.2847
412.0640, 841.7510
412.5461, 834.1302
413.0282, 832.0042
413.5103, 834.7071
413.9925, 838.1973
414.4746, 840.2918
414.9567, 841.6401
415.4388, 843.0530
415.9209, 844.5593
416.4030, 846.5721
416.8852, 850.3322
417.3673, 854.7089
417.8494, 857.8759
418.3315, 858.3862
418.8136, 858.1243
419.2957, 857.8763
419.7779, 857.7597
420.2600, 858.4154
420.7421, 862.2649
421.2242, 865.7227
421.7063, 865.6341
422.1884, 858.2777
422.6706, 853.4188
423.1527, 854.4573
423.6348, 859.4475
424.1169, 864.6813
424.5990, 871.1872
425.0811, 876.4097
425.5633, 878.8073
426.0454, 877.6684
426.5275, 878.7902
427.0096, 884.1338
427.4917, 890.1736
427.9738, 893.9650
428.4560, 894.4421
428.9381, 894.8968
429.4202, 895.9570
429.9023, 897.1686
430.3844, 896.7412
430.8665, 894.0561
431.3487, 891.4972
431.8308, 891.0866
432.3129, 893.1066
432.7950, 890.9171
433.2771, 883.1924
433.7592, 874.6793
434.2414, 872.5006
434.7235, 876.0558
435.2056, 877.9044
435.6877, 874.8671
436.1698, 869.2577
436.6519, 865.7389
437.1341, 864.2656
437.6162, 863.7342
438.0983, 863.9737
438.5804, 864.4426
439.0625, 864.2370
439.5446, 863.2209
440.0268, 861.4801
440.5089, 858.0494
440.9910, 853.9647
441.4731, 851.3899
441.9552, 853.9232
442.4373, 856.1676
442.9195, 853.8552
443.4016, 846.9916
443.8837, 840.8497
444.3658, 837.6041
444.8479, 835.9237
445.3300, 834.7999
445.8122, 833.8583
446.2943, 833.6389
446.7764, 835.4454
447.2585, 838.0776
447.7406, 838.4601
448.2227, 832.6970
448.7049, 828.3604
449.1870, 828.2601
449.6691, 833.4820
450.1512, 836.3981
450.6333, 836.1205
451.1154, 834.4994
451.5976, 833.2720
452.0797, 832.7120
452.5618, 831.5842
453.0439, 829.1695
453.5260, 826.3683
454.0081, 826.2869
454.4903, 829.3601
454.9724, 832.3624
455.4545, 833.1631
455.9366, 832.1342
456.4187, 832.4313
456.9008, 834.4633
457.3830, 836.0322
457.8651, 832.6752
458.3472, 826.3582
458.8293, 823.9445
459.3114, 830.1778
459.7935, 838.7400
460.2757, 841.6528
460.7578, 839.6729
461.2399, 836.7993
461.7220, 834.5684
462.2041, 833.1223
462.6862, 832.8873
463.1684, 834.2254
463.6505, 835.4208
464.1326, 835.0609
464.6147, 834.2081
465.0968, 834.2354
465.5789, 836.9368
466.0611, 839.1922
466.5432, 839.5837
467.0253, 838.3401
467.5074, 838.1417
467.9895, 839.1754
468.4716, 841.4515
468.9538, 845.2906
469.4359, 852.5997
469.9180, 857.0814
470.4001, 857.5656
470.8822, 856.0513
471.3643, 855.3290
471.8465, 855.2418
472.3286, 856.4308
472.8107, 859.4128
473.2928, 863.8026
473.7749, 867.7529
474.2570, 871.2514
474.7392, 874.2258
475.2213, 876.4032
475.7034, 877.9096
476.1855, 879.5232
476.6676, 881.2548
477.1497, 883.3811
477.6319, 886.0525
478.1140, 889.3745
478.5961, 893.6862
479.0782, 901.5842
479.5603, 909.0478
480.0424, 909.3586
480.5246, 903.5712
481.0067, 900.2336
481.4888, 906.9023
481.9709, 917.1653
482.4530, 925.4312
482.9352, 930.2366
483.4173, 933.9302
483.8994, 937.4348
484.3815, 940.4067
484.8636, 942.2922
485.3457, 941.3121
485.8279, 940.9215
486.3100, 941.9379
486.7921, 944.4252
487.2742, 948.0453
487.7563, 955.4041
488.2384, 961.3240
488.7206, 962.4521
489.2027, 956.3056
489.6848, 952.2131
490.1669, 950.8884
490.6490, 951.0167
491.1311, 950.7067
491.6133, 950.0042
492.0954, 948.4581
492.5775, 945.2668
493.0596, 941.2908
493.5417, 940.5305
494.0238, 943.0410
494.5060, 944.7881
494.9881, 941.5480
495.4702, 935.2943
495.9523, 931.1912
496.4344, 930.3045
496.9165, 929.7893
497.3987, 926.2638
497.8808, 921.1146
498.3629, 917.0316
498.8450, 916.3450
499.3271, 916.0638
499.8092, 914.8688
500.2914, 912.6154
500.7735, 908.7011
501.2556, 900.0812
501.7377, 891.7609
502.2198, 887.0230
502.7019, 887.8701
503.1841, 887.9345
503.6662, 885.5990
504.1483, 882.4340
504.6304, 880.3557
505.1125, 880.7031
505.5946, 879.9406
506.0768, 876.8796
506.5589, 872.2099
507.0410, 869.4905
507.5231, 869.2074
508.0052, 869.4788
508.4873, 869.6107
508.9695, 869.5993
509.4516, 868.4674
509.9337, 866.0468
510.4158, 863.1512
510.8979, 860.3219
511.3800, 857.6931
511.8622, 856.2089
512.3443, 856.8588
512.8264, 857.6619
513.3085, 855.2048
513.7906, 850.4117
514.2728, 846.5905
514.7549, 845.9357
515.2370, 846.8514
515.7191, 848.6295
516.2012, 851.3172
516.6833, 852.6286
517.1655, 849.8616
517.6476, 846.1599
518.1297, 844.2328
518.6118, 846.8278
519.0939, 848.5117
519.5760, 848.1788
520.0582, 846.3738
520.5403, 844.3855
521.0224, 841.5570
521.5045, 839.5036
521.9866, 838.8793
522.4688, 839.6760
522.9509, 839.9619
523.4330, 839.4762
523.9151, 839.0602
524.3972, 839.1630
524.8793, 839.7707
525.3615, 841.9942
525.8436, 846.6355
526.3257, 850.9830
526.8078, 849.8268
527.2899, 844.3342
527.7720, 840.0762
528.2542, 839.7301
528.7363, 841.4567
529.2184, 843.3990
529.7005, 845.4174
530.1826, 846.8505
530.6647, 847.0609
531.1469, 846.6520
531.6290, 846.0944
532.1111, 845.4408
532.5932, 844.7605
533.0753, 843.9659
533.5574, 843.2233
534.0396, 842.7170
534.5217, 842.2239
535.0038, 842.2936
535.4859, 843.9365
535.9680, 846.2653
536.4501, 846.2550
536.9323, 842.3165
537.4144, 838.7264
537.8965, 836.9978
538.3786, 837.1494
538.8607, 838.3525
539.3428, 840.9994
539.8250, 843.4250
540.3071, 843.4603
540.7892, 841.4504
541.2713, 841.0042
541.7534, 843.0290
542.2355, 845.7521
542.7177, 846.4667
543.1998, 845.7665
543.6819, 845.5264
544.1640, 847.8611
544.6461, 850.1761
545.1282, 849.5102
545.6104, 846.3259
546.0925, 843.5088
546.5746, 841.5541
547.0567, 841.1888
547.5388, 843.8952
548.0209, 851.8825
548.5031, 856.0053
548.9852, 850.5245
549.4673, 842.1102
549.9494, 837.8269
550.4315, 840.1436
550.9136, 842.9838
551.3958, 846.3080
551.8779, 849.6133
552.3600, 851.2880
552.8421, 851.0800
553.3242, 850.1271
553.8063, 848.5914
554.2885, 846.6183
554.7706, 845.2117
555.2527, 844.3372
555.7348, 844.4119
556.2169, 846.4841
556.6990, 849.7674
557.1812, 852.4581
557.6633, 854.4327
558.1454, 855.1727
558.6275, 853.5172
559.1096, 850.3810
559.5917, 847.3325
560.0739, 843.6418
560.5560, 841.5227
561.0381, 843.3948
561.5202, 848.1946
562.0023, 851.3226
562.4844, 849.7847
562.9666, 847.8859
563.4487, 847.3089
563.9308, 848.0135
564.4129, 850.5250
564.8950, 857.0869
565.3771, 862.9853
565.8593, 863.6854
566.3414, 857.4966
566.8235, 853.4847
567.3056, 853.0530
567.7877, 854.2994
568.2698, 853.3531
568.7520, 850.3979
569.2341, 848.6866
569.7162, 850.2325
570.1983, 853.2656
570.6804, 854.9068
571.1625, 855.1850
571.6447, 854.3240
572.1268, 850.5590
572.6089, 846.8414
573.0910, 846.3658
573.5731, 849.7892
574.0552, 854.0190
574.5374, 858.7845
575.0195, 863.1526
575.5016, 866.2686
575.9837, 867.5056
576.4658, 868.0161
576.9479, 868.1440
577.4301, 867.5419
577.9122, 865.1039
578.3943, 858.5573
578.8764, 854.7402
579.3585, 856.3875
579.8406, 862.5194
580.3228, 866.4107
580.8049, 867.9235
581.2870, 868.0671
581.7691, 866.6678
582.2512, 864.3434
582.7333, 864.0294
583.2155, 866.1272
583.6975, 868.0427
584.1796, 866.8693
584.6617, 864.0045
585.1439, 861.7332
585.6260, 860.7625
586.1081, 860.4068
586.5902, 860.0974
587.0723, 860.1278
587.5544, 861.0483
588.0366, 864.2403
588.5187, 867.1020
589.0008, 868.8281
589.4829, 869.3926
589.9650, 869.3497
590.4471, 868.0976
590.9293, 866.9662
591.4114, 866.5939
591.8935, 867.0512
592.3756, 867.8047
592.8577, 869.0739
593.3398, 870.0319
593.8220, 869.1879
594.3041, 866.9245
594.7862, 866.5720
595.2683, 869.3563
595.7504, 872.6202
596.2325, 872.5817
596.7147, 870.2570
597.1968, 868.2846
597.6789, 867.7401
598.1610, 868.0460
598.6431, 869.0352
599.1252, 870.6013
599.6074, 872.2627
600.0895, 874.8542
600.5716, 876.6594
601.0537, 876.5370
601.5358, 873.8508
602.0179, 871.8021
602.5001, 869.5317
602.9822, 868.7987
603.4643, 871.7202
603.9464, 880.2337
604.4285, 884.4717
604.9106, 882.8362
605.3928, 878.6816
605.8749, 876.8435
606.3570, 877.2040
606.8391, 878.4180
607.3212, 880.6732
607.8033, 882.7880
608.2855, 882.2062
608.7676, 879.7130
609.2497, 878.1976
609.7318, 880.8513
610.2139, 883.9429
610.6960, 883.8977
611.1782, 880.6976
611.6603, 878.7170
612.1424, 880.7805
612.6245, 883.5906
613.1066, 884.9359
613.5887, 883.2787
614.0709, 883.6113
614.5530, 888.0675
615.0351, 892.6237
615.5172, 892.4597
615.9993, 886.0928
616.4814, 881.9108
616.9636, 881.5833
617.4457, 883.2872
617.9278, 883.4539
618.4099, 882.2549
618.8920, 881.5035
619.3741, 881.9471
619.8563, 883.2402
620.3384, 885.4774
620.8205, 888.3401
621.3026, 890.2672
621.7847, 889.3626
622.2668, 887.8889
622.7490, 887.7822
623.2311, 889.3904
623.7132, 890.2560
624.1953, 888.9706
624.6774, 887.2590
625.1595, 886.3674
625.6417, 887.0541
626.1238, 887.0637
626.6059, 885.8383
627.0880, 884.5806
627.5701, 885.2604
628.0522, 888.1760
628.5344, 890.2234
629.0165, 890.7529
629.4986, 890.0668
629.9807, 887.6901
630.4628, 884.1707
630.9449, 882.5204
631.4271, 886.3793
631.9092, 891.4293
632.3913, 892.3458
632.8734, 889.7680
633.3555, 887.9276
633.8376, 890.2563
634.3198, 892.9090
634.8019, 893.0490
635.2840, 889.5373
635.7661, 888.1512
636.2482, 890.9967
636.7303, 894.8666
637.2125, 897.7306
637.6946, 899.5826
638.1767, 900.3606
638.6588, 899.7892
639.1409, 898.6475
639.6230, 898.1156
640.1052, 898.1423
640.5873, 897.7910
641.0694, 896.6170
641.5515, 895.3398
642.0336, 894.5244
642.5157, 894.4435
642.9979, 895.9070
643.4800, 901.6379
643.9621, 907.1096
644.4442, 908.9904
644.9263, 907.6442
645.4084, 905.4407
645.8906, 900.2551
646.3727, 896.9068
646.8548, 899.0403
647.3369, 907.9256
647.8190, 911.8029
648.3011, 907.9026
648.7833, 903.0997
649.2654, 902.8904
649.7475, 907.7428
650.2296, 911.5817
650.7117, 914.1495
651.1938, 915.4248
651.6760, 914.0346
652.1581, 911.1667
652.6402, 910.9023
653.1223, 915.5060
653.6044, 920.4657
654.0865, 921.4608
654.5687, 919.9572
655.0508, 918.8044
655.5329, 918.9620
656.0150, 919.7511
656.4971, 921.1266
656.9792, 922.9881
657.4614, 924.8840
657.9435, 927.1613
658.4256, 928.9545
658.9077, 929.9609
659.3898, 930.1942
659.8719, 929.8563
660.3541, 928.7620
660.8362, 927.9572
661.3183, 928.2806
661.8004, 929.5188
662.2825, 931.0266
662.7646, 932.8051
663.2468, 934.2194
663.7289, 933.4373
664.2110, 932.4573
664.6931, 934.4980
665.1752, 942.1320
665.6573, 947.8624
666.1395, 946.4752
666.6216, 942.1523
667.1037, 940.0364
667.5858, 942.7390
668.0679, 945.3822
668.5500, 947.8002
669.0322, 949.8536
669.5143, 950.9166
669.9964, 950.6326
670.4785, 951.2061
670.9606, 953.7892
671.4427, 957.3448
671.9249, 958.3388
672.4070, 957.1622
672.8891, 956.9852
673.3712, 960.9422
673.8533, 966.1572
674.3354, 969.2446
674.8176, 970.2734
675.2997, 970.8599
675.7818, 970.5381
676.2639, 970.9943
676.7460, 973.8121
677.2281, 980.2170
677.7103, 984.4346
678.1924, 984.4922
678.6745, 984.1223
679.1566, 986.1237
679.6387, 990.9639
680.1208, 996.1332
680.6030, 1001.726
681.0851, 1007.177
681.5672, 1012.129
682.0493, 1016.475
682.5314, 1019.890
683.0135, 1022.063
683.4957, 1023.724
683.9778, 1024.708
684.4599, 1025.833
684.9420, 1028.582
685.4241, 1034.523
685.9063, 1041.154
686.3884, 1048.850
686.8705, 1056.706
687.3526, 1061.512
687.8347, 1059.188
688.3168, 1059.820
688.7990, 1067.323
689.2811, 1080.341
689.7632, 1088.804
690.2453, 1092.128
690.7274, 1094.840
691.2095, 1099.280
691.6917, 1105.083
692.1738, 1111.356
692.6559, 1118.013
693.1380, 1125.139
693.6201, 1133.211
694.1022, 1141.463
694.5844, 1149.217
695.0665, 1156.270
695.5486, 1163.193
696.0307, 1169.625
696.5128, 1176.329
696.9949, 1184.097
697.4771, 1194.048
697.9592, 1202.615
698.4413, 1209.344
698.9234, 1215.218
699.4055, 1221.458
699.8876, 1228.096
700.3698, 1234.399
700.8519, 1240.238
701.3340, 1245.623
701.8161, 1249.924
702.2982, 1253.759
702.7803, 1258.706
703.2625, 1266.293
703.7446, 1274.079
704.2267, 1280.285
704.7088, 1285.451
705.1909, 1290.724
705.6730, 1297.237
706.1552, 1302.770
706.6373, 1305.781
707.1194, 1307.216
707.6015, 1312.295
708.0836, 1322.911
708.5657, 1331.093
709.0479, 1332.356
709.5300, 1328.719
710.0121, 1329.411
710.4942, 1334.245
710.9763, 1338.710
711.4584, 1339.357
711.9406, 1338.145
712.4227, 1337.118
712.9048, 1336.439
713.3869, 1336.705
713.8690, 1339.741
714.3511, 1342.720
714.8333, 1343.754
715.3154, 1342.094
715.7975, 1340.162
716.2796, 1337.655
716.7617, 1335.309
717.2438, 1334.051
717.7260, 1334.159
718.2081, 1332.668
718.6902, 1329.373
719.1723, 1324.725
719.6544, 1317.703
720.1365, 1309.850
720.6187, 1305.731
721.1008, 1307.693
721.5829, 1309.278
722.0650, 1304.562
722.5471, 1296.848
723.0292, 1290.458
723.5114, 1288.313
723.9935, 1285.618
724.4756, 1281.024
724.9577, 1275.633
725.4398, 1271.413
725.9219, 1269.155
726.4041, 1265.505
726.8862, 1259.231
727.3683, 1251.645
727.8504, 1245.618
728.3325, 1241.189
728.8146, 1238.820
729.2968, 1240.471
729.7789, 1242.830
730.2610, 1242.227
730.7431, 1239.162
731.2252, 1235.297
731.7073, 1230.604
732.1895, 1225.983
732.6716, 1221.142
733.1537, 1216.349
733.6358, 1214.543
734.1179, 1218.146
734.6000, 1220.523
735.0822, 1218.008
735.5643, 1211.389
736.0464, 1209.073
736.5285, 1211.264
737.0106, 1213.853
737.4927, 1214.307
737.9749, 1213.080
738.4570, 1210.248
738.9391, 1205.935
739.4212, 1202.555
739.9033, 1202.452
740.3854, 1203.154
740.8676, 1202.847
741.3497, 1200.998
741.8318, 1199.408
742.3139, 1198.687
742.7960, 1197.685
743.2781, 1195.186
743.7603, 1190.682
744.2424, 1188.662
744.7245, 1189.690
745.2066, 1191.378
745.6887, 1192.043
746.1708, 1191.368
746.6530, 1187.810
747.1351, 1180.443
747.6172, 1173.868
748.0993, 1173.172
748.5814, 1174.382
749.0635, 1172.983
749.5457, 1165.635
750.0278, 1159.263
750.5099, 1154.409
750.9920, 1151.215
751.4741, 1150.407
751.9562, 1152.811
752.4384, 1154.109
752.9205, 1153.792
753.4026, 1151.933
753.8847, 1147.394
754.3668, 1141.126
754.8489, 1137.028
755.3311, 1136.982
755.8132, 1138.173
756.2953, 1139.139
756.7774, 1139.445
757.2595, 1138.306
757.7416, 1133.493
758.2238, 1129.567
758.7059, 1128.396
759.1880, 1128.590
759.6701, 1127.082
760.1522, 1123.179
760.6343, 1119.826
761.1165, 1117.706
761.5986, 1116.639
762.0807, 1116.610
762.5628, 1117.392
763.0449, 1117.620
763.5270, 1115.731
764.0092, 1113.827
764.4913, 1114.297
764.9734, 1116.436
765.4555, 1118.050
765.9376, 1117.761
766.4197, 1117.405
766.9019, 1117.601
767.3840, 1118.243
767.8661, 1118.866
768.3482, 1119.434
768.8303, 1120.043
769.3124, 1120.637
769.7946, 1121.320
770.2767, 1122.778
770.7588, 1124.888
771.2409, 1126.505
771.7230, 1126.073
772.2051, 1125.427
772.6873, 1126.329
773.1694, 1128.737
773.6515, 1131.840
774.1336, 1137.239
774.6157, 1141.453
775.0978, 1142.320
775.5800, 1140.033
776.0621, 1139.410
776.5442, 1140.453
777.0263, 1143.209
777.5084, 1148.631
777.9905, 1155.875
778.4727, 1160.253
778.9548, 1161.943
779.4369, 1164.276
779.9190, 1170.781
780.4011, 1178.301
780.8832, 1183.230
781.3654, 1185.338
781.8475, 1188.981
782.3296, 1196.220
782.8117, 1204.781
783.2938, 1213.781
783.7759, 1223.308
784.2581, 1232.199
784.7402, 1240.256
785.2223, 1248.174
785.7044, 1256.514
786.1865, 1265.159
786.6686, 1273.880
787.1508, 1282.721
787.6329, 1291.738
788.1150, 1300.292
788.5971, 1309.668
789.0792, 1320.882
789.5613, 1334.251
790.0435, 1348.783
790.5256, 1365.109
791.0077, 1381.877
791.4898, 1398.355
791.9719, 1414.099
792.4540, 1431.118
792.9362, 1448.583
793.4183, 1469.411
793.9004, 1497.961
794.3825, 1531.483
794.8646, 1560.265
795.3467, 1583.781
795.8289, 1609.557
796.3110, 1644.219
796.7931, 1682.539
797.2752, 1718.917
797.7573, 1751.482
798.2394, 1789.288
798.7216, 1834.452
799.2037, 1883.763
799.6858, 1935.364
800.1679, 1989.739
800.6500, 2044.116
801.1321, 2099.144
801.6143, 2154.764
802.0964, 2211.501
802.5785, 2268.607
803.0606, 2325.141
803.5427, 2380.832
804.0248, 2437.493
804.5070, 2499.479
804.9891, 2561.226
805.4712, 2619.273
805.9533, 2675.459
806.4354, 2721.024
806.9175, 2754.680
807.3997, 2779.471
807.8818, 2798.586
808.3639, 2811.730
808.8460, 2812.851
809.3281, 2801.815
809.8102, 2777.809
810.2924, 2736.388
810.7745, 2683.254
811.2566, 2625.573
811.7387, 2564.855
812.2208, 2499.194
812.7029, 2425.679
813.1851, 2348.626
813.6672, 2270.059
814.1493, 2188.680
814.6314, 2111.796
815.1135, 2040.264
815.5956, 1972.600
816.0778, 1908.009
816.5599, 1846.778
817.0420, 1792.509
817.5241, 1745.261
818.0062, 1700.857
818.4883, 1654.454
818.9705, 1609.410
819.4526, 1569.452
819.9347, 1535.433
820.4168, 1504.318
820.8989, 1476.587
821.3810, 1450.695
821.8632, 1425.689
822.3453, 1401.516
822.8274, 1378.644
823.3095, 1357.402
823.7916, 1337.902
824.2737, 1320.865
824.7559, 1305.803
825.2380, 1292.273
825.7201, 1280.305
826.2022, 1268.306
826.6843, 1253.938
827.1664, 1240.452
827.6486, 1230.793
828.1307, 1225.955
828.6128, 1218.565
829.0949, 1206.900
829.5770, 1195.468
830.0591, 1186.148
830.5413, 1179.029
831.0234, 1175.844
831.5055, 1176.524
831.9876, 1176.236
832.4697, 1170.623
832.9518, 1162.788
833.4340, 1155.728
833.9161, 1149.645
834.3982, 1143.983
834.8803, 1138.310
835.3624, 1133.298
835.8445, 1129.179
836.3267, 1125.958
836.8088, 1123.554
837.2909, 1122.162
837.7730, 1120.792
838.2551, 1119.112
838.7372, 1117.000
839.2194, 1113.627
839.7015, 1109.300
840.1836, 1105.764
840.6657, 1105.033
841.1478, 1104.502
841.6299, 1102.656
842.1121, 1099.498
842.5942, 1095.745
843.0763, 1090.058
843.5584, 1086.282
844.0405, 1086.374
844.5226, 1089.043
845.0048, 1088.966
845.4869, 1086.311
845.9690, 1083.807
846.4511, 1083.769
846.9332, 1083.801
847.4153, 1079.886
847.8975, 1073.818
848.3796, 1070.656
848.8617, 1077.002
849.3438, 1080.878
849.8259, 1077.515
850.3080, 1069.781
850.7902, 1065.008
851.2723, 1063.665
851.7544, 1062.655
852.2365, 1060.864
852.7186, 1059.337
853.2007, 1061.030
853.6829, 1064.550
854.1650, 1066.038
854.6471, 1061.894
855.1292, 1058.056
855.6113, 1057.954
856.0934, 1059.911
856.5756, 1060.863
857.0577, 1060.603
857.5398, 1059.222
858.0219, 1056.021
858.5040, 1052.756
858.9861, 1053.217
859.4683, 1056.507
859.9504, 1057.401
860.4325, 1053.965
860.9146, 1050.188
861.3967, 1049.783
861.8788, 1051.161
862.3610, 1052.478
862.8431, 1054.340
863.3252, 1054.123
863.8073, 1050.571
864.2894, 1046.102
864.7715, 1042.740
865.2537, 1040.458
865.7358, 1040.963
866.2179, 1044.943
866.7000, 1048.068
867.1821, 1044.351
867.6642, 1037.689
868.1464, 1033.678
868.6285, 1033.301
869.1106, 1034.438
869.5927, 1038.402
870.0748, 1041.820
870.5569, 1042.125
871.0391, 1038.593
871.5212, 1036.832
872.0033, 1037.023
872.4854, 1038.184
872.9675, 1040.284
873.4496, 1042.598
873.9318, 1043.126
874.4139, 1041.912
874.8960, 1040.437
875.3781, 1039.428
875.8602, 1038.554
876.3423, 1037.427
876.8245, 1036.098
877.3066, 1035.938
877.7887, 1037.899
878.2708, 1038.898
878.7529, 1037.142
879.2350, 1033.800
879.7172, 1033.016
880.1993, 1034.462
880.6814, 1035.789
881.1635, 1035.925
881.6456, 1035.298
882.1277, 1033.680
882.6099, 1031.510
883.0920, 1030.091
883.5741, 1029.927
884.0562, 1030.113
884.5383, 1030.456
885.0204, 1031.044
885.5026, 1032.323
885.9847, 1034.198
886.4668, 1035.594
886.9489, 1036.251
887.4310, 1036.152
887.9131, 1034.192
888.3953, 1031.817
888.8774, 1031.259
889.3595, 1035.064
889.8416, 1037.869
890.3237, 1039.109
890.8058, 1038.959
891.2880, 1036.872
891.7701, 1032.528
892.2522, 1031.152
892.7343, 1033.592
893.2164, 1036.403
893.6985, 1035.653
894.1807, 1033.114
894.6628, 1031.103
895.1449, 1029.908
895.6270, 1029.859
896.1091, 1032.104
896.5912, 1034.656
897.0734, 1036.478
897.5555, 1037.573
898.0376, 1037.832
898.5197, 1037.266
899.0018, 1035.880
899.4839, 1032.857
899.9661, 1029.370
900.4482, 1027.189
900.9303, 1026.440
901.4124, 1027.649
901.8945, 1034.072
902.3766, 1039.561
902.8588, 1040.322
903.3409, 1037.437
903.8230, 1035.963
904.3051, 1036.179
904.7872, 1036.655
905.2693, 1037.165
905.7515, 1037.316
906.2336, 1035.669
906.7157, 1032.955
907.1978, 1031.326
907.6799, 1032.390
908.1620, 1033.816
908.6442, 1034.909
909.1263, 1035.586
909.6084, 1035.728
910.0905, 1035.179
910.5726, 1034.534
911.0547, 1033.753
911.5369, 1033.135
912.0190, 1033.079
912.5011, 1033.505
912.9832, 1034.277
913.4653, 1035.443
913.9474, 1036.463
914.4296, 1037.347
914.9117, 1037.690
915.3938, 1036.769
915.8759, 1033.838
916.3580, 1032.924
916.8401, 1034.483
917.3223, 1036.885
917.8044, 1039.850
918.2865, 1042.729
918.7686, 1042.272
919.2507, 1038.903
919.7328, 1036.634
920.2150, 1039.896
920.6971, 1043.329
921.1792, 1042.944
921.6613, 1039.278
922.1434, 1037.616
922.6255, 1039.205
923.1077, 1040.165
923.5898, 1039.311
924.0719, 1037.223
924.5540, 1033.831
925.0361, 1030.068
925.5182, 1030.160
926.0004, 1038.672
926.4825, 1046.453
926.9646, 1045.982
927.4467, 1041.781
927.9288, 1040.905
928.4109, 1047.005
928.8931, 1049.664
929.3752, 1047.616
929.8573, 1043.626
930.3394, 1040.024
930.8215, 1037.080
931.3036, 1035.893
931.7858, 1036.689
932.2679, 1037.892
932.7500, 1038.535
933.2321, 1039.078
933.7142, 1040.288
934.1964, 1042.520
934.6785, 1042.310
935.1606, 1038.595
935.6427, 1035.075
936.1248, 1033.660
936.6069, 1033.945
937.0891, 1034.798
937.5712, 1036.189
938.0533, 1037.948
938.5354, 1040.598
939.0175, 1042.943
939.4996, 1044.236
939.9818, 1044.638
940.4639, 1044.619
940.9460, 1043.842
941.4281, 1043.649
941.9102, 1044.584
942.3923, 1045.570
942.8745, 1044.032
943.3566, 1041.109
943.8387, 1040.362
944.3208, 1043.129
944.8029, 1046.370
945.2850, 1049.897
945.7672, 1052.139
946.2493, 1050.966
946.7314, 1044.752
947.2135, 1042.380
947.6956, 1044.730
948.1777, 1047.952
948.6599, 1049.267
949.1420, 1049.153
949.6241, 1048.296
950.1062, 1046.873
950.5883, 1046.013
951.0704, 1047.109
951.5526, 1048.135
952.0347, 1047.576
952.5168, 1046.031
952.9989, 1045.989
953.4810, 1047.847
953.9631, 1049.337
954.4453, 1049.844
954.9274, 1049.597
955.4095, 1048.705
955.8916, 1047.400
956.3737, 1046.074
956.8558, 1044.338
957.3380, 1043.602
957.8201, 1044.399
958.3022, 1046.441
958.7843, 1049.848
959.2664, 1055.214
959.7485, 1058.677
960.2307, 1060.057
960.7128, 1060.024
961.1949, 1058.626
961.6770, 1056.441
962.1591, 1054.561
962.6412, 1052.952
963.1234, 1050.163
963.6055, 1041.290
964.0876, 1036.289
964.5697, 1040.469
965.0518, 1050.967
965.5339, 1054.632
966.0161, 1051.460
966.4982, 1048.374
966.9803, 1047.811
967.4624, 1048.838
967.9445, 1051.510
968.4266, 1054.769
968.9088, 1056.810
969.3909, 1057.014
969.8730, 1055.970
970.3551, 1052.673
970.8372, 1049.575
971.3193, 1049.777
971.8015, 1052.834
972.2836, 1054.081
972.7657, 1053.113
973.2478, 1052.417
973.7299, 1055.731
974.2120, 1058.801
974.6942, 1056.918
975.1763, 1049.758
975.6584, 1046.272
976.1405, 1048.055
976.6226, 1050.748
977.1047, 1052.728
977.5869, 1054.542
978.0690, 1058.652
978.5511, 1064.049
979.0332, 1067.036
979.5153, 1065.048
979.9974, 1061.870
980.4796, 1058.040
980.9617, 1054.916
981.4438, 1054.549
981.9259, 1058.288
982.4080, 1060.755
982.8901, 1061.731
983.3723, 1061.396
983.8544, 1058.556
984.3365, 1055.031
984.8186, 1054.915
985.3007, 1058.441
985.7828, 1061.164
986.2650, 1060.299
986.7471, 1059.065
987.2292, 1058.577
987.7113, 1058.906
988.1934, 1060.783
988.6755, 1064.279
989.1577, 1067.553
989.6398, 1070.362
990.1219, 1071.774
990.6040, 1069.474
991.0861, 1065.273
991.5682, 1062.239
992.0504, 1061.487
992.5325, 1061.661
993.0146, 1062.936
993.4967, 1064.636
993.9788, 1067.103
994.4609, 1069.877
994.9431, 1067.216
995.4252, 1058.868
995.9073, 1052.978
996.3894, 1057.658
996.8715, 1065.224
997.3536, 1071.321
997.8358, 1075.254
998.3179, 1074.916
998.8000, 1068.036
999.2821, 1063.053
999.7642, 1063.102
1000.246, 1065.384
1000.728, 1063.140
1001.211, 1058.577
1001.693, 1057.816
1002.175, 1064.922
1002.657, 1071.228
1003.139, 1073.120
1003.621, 1072.308
1004.103, 1069.740
1004.585, 1064.426
1005.068, 1063.863
1005.550, 1068.513
1006.032, 1073.262
1006.514, 1073.779
1006.996, 1072.456
1007.478, 1072.260
1007.960, 1073.038
1008.442, 1073.318
1008.924, 1072.869
1009.407, 1071.349
1009.889, 1067.512
1010.371, 1063.633
1010.853, 1065.746
1011.335, 1072.741
1011.817, 1076.884
1012.299, 1075.998
1012.781, 1073.946
1013.263, 1074.451
1013.746, 1074.715
1014.228, 1070.841
1014.710, 1060.724
1015.192, 1057.999
1015.674, 1064.705
1016.156, 1072.298
1016.638, 1075.643
1017.120, 1076.276
1017.603, 1077.269
1018.085, 1078.452
1018.567, 1079.221
1019.049, 1079.336
1019.531, 1078.860
1020.013, 1077.227
1020.495, 1075.349
1020.977, 1074.533
1021.459, 1074.776
1021.942, 1075.678
1022.424, 1077.270
1022.906, 1078.843
1023.388, 1080.038
1023.870, 1080.722
1024.352, 1080.548
1024.834, 1079.427
1025.316, 1078.884
1025.799, 1079.393
1026.281, 1079.747
1026.763, 1079.312
1027.245, 1078.571
1027.727, 1078.985
1028.209, 1080.193
1028.691, 1080.940
1029.173, 1080.325
1029.656, 1079.803
1030.138, 1080.254
1030.620, 1080.983
1031.102, 1081.457
1031.584, 1081.896
1032.066, 1079.791
1032.548, 1074.607
1033.030, 1071.257
1033.512, 1075.296
1033.995, 1082.474
1034.477, 1089.107
1034.959, 1094.544
1035.441, 1096.437
1035.923, 1091.497
1036.405, 1086.947
1036.887, 1083.843
1037.369, 1082.289
1037.851, 1082.969
1038.334, 1085.399
1038.816, 1087.948
1039.298, 1090.469
1039.780, 1092.101
1040.262, 1091.533
1040.744, 1090.500
1041.226, 1090.610
1041.708, 1092.023
1042.191, 1091.801
1042.673, 1089.673
1043.155, 1088.287
1043.637, 1090.028
1044.119, 1092.488
1044.601, 1092.397
1045.083, 1090.396
1045.565, 1087.963
1046.047, 1084.089
1046.530, 1081.881
1047.012, 1081.514
1047.494, 1082.970
1047.976, 1087.974
1048.458, 1095.112
1048.940, 1096.241
1049.422, 1090.934
1049.904, 1086.001
1050.386, 1086.593
1050.869, 1088.012
1051.351, 1086.510
1051.833, 1088.349
1052.315, 1084.140
1052.797, 1089.870
1053.279, 1093.648
1053.761, 1093.234
1054.243, 1091.378
1054.726, 1090.673
1055.208, 1091.141
1055.690, 1093.143
1056.172, 1097.755
1056.654, 1100.672
1057.136, 1101.873
1057.618, 1100.870
1058.100, 1095.617
1058.583, 1088.233
1059.065, 1087.830
1059.547, 1093.246
1060.029, 1099.134
1060.511, 1104.208
1060.993, 1107.359
1061.475, 1107.565
1061.957, 1105.756
1062.439, 1102.619
1062.922, 1097.764
1063.404, 1095.369
1063.886, 1095.931
1064.368, 1097.448
1064.850, 1098.920
1065.332, 1099.896
1065.814, 1099.443
1066.296, 1097.698
1066.778, 1097.151
1067.261, 1098.349
1067.743, 1099.993
1068.225, 1102.104
1068.707, 1103.868
1069.189, 1102.969
1069.671, 1100.624
1070.153, 1099.935
1070.635, 1102.228
1071.118, 1104.023
1071.600, 1103.094
1072.082, 1102.031
1072.564, 1102.487
1073.046, 1104.285
1073.528, 1104.851
1074.010, 1104.319
1074.492, 1104.499
1074.974, 1107.525
1075.457, 1110.306
1075.939, 1109.607
1076.421, 1107.434
1076.903, 1107.541
1077.385, 1111.921
1077.867, 1112.397
1078.349, 1107.728
1078.831, 1102.890
1079.313, 1102.867
1079.796, 1105.380
1080.278, 1107.292
1080.760, 1108.487
1081.242, 1109.494
1081.724, 1111.952
1082.206, 1111.868
1082.688, 1107.123
1083.170, 1101.078
1083.652, 1100.536
1084.135, 1104.139
1084.617, 1106.685
1085.099, 1107.059
1085.581, 1107.478
1086.063, 1110.808
1086.545, 1113.054
1087.027, 1110.579
1087.509, 1104.267
1087.992, 1104.069
1088.474, 1110.069
1088.956, 1115.040
1089.438, 1115.593
1089.920, 1114.722
1090.402, 1115.509
1090.884, 1116.667
1091.366, 1116.344
1091.849, 1113.730
1092.331, 1110.881
1092.813, 1107.281
1093.295, 1105.202
1093.777, 1107.732
1094.259, 1112.224
1094.741, 1113.425
1095.223, 1112.148
1095.705, 1111.459
1096.188, 1112.923
1096.670, 1114.436
1097.152, 1115.428
1097.634, 1116.562
1098.116, 1119.141
1098.598, 1122.703
1099.080, 1125.132
1099.562, 1126.243
1100.044, 1126.361
1100.527, 1124.423
1101.009, 1122.830
1101.491, 1122.811
1101.973, 1124.187
1102.455, 1127.468
1102.937, 1132.743
1103.419, 1133.919
1103.901, 1128.584
1104.384, 1122.471
1104.866, 1120.489
1105.348, 1120.993
1105.830, 1123.139
1106.312, 1127.267
1106.794, 1127.661
1107.276, 1123.099
1107.758, 1119.638
1108.240, 1120.335
1108.723, 1123.301
1109.205, 1126.776
1109.687, 1129.968
1110.169, 1131.322
1110.651, 1129.054
1111.133, 1127.338
1111.615, 1126.399
1112.097, 1126.152
1112.579, 1126.375
1113.062, 1127.242
1113.544, 1130.255
1114.026, 1134.781
1114.508, 1137.645
1114.990, 1136.235
1115.472, 1134.204
1115.954, 1132.400
1116.436, 1130.880
1116.919, 1129.532
1117.401, 1128.430
1117.883, 1128.863
1118.365, 1130.957
1118.847, 1133.179
1119.329, 1134.360
1119.811, 1135.378
1120.293, 1137.568
1120.776, 1140.047
1121.258, 1138.895
1121.740, 1133.398
1122.222, 1132.030
1122.704, 1137.659
1123.186, 1142.920
1123.668, 1138.102
1124.150, 1130.304
1124.632, 1127.346
1125.115, 1130.701
1125.597, 1132.662
1126.079, 1132.749
1126.561, 1132.762
1127.043, 1133.553
1127.525, 1134.393
1128.007, 1133.266
1128.489, 1131.610
1128.971, 1132.281
1129.454, 1137.941
1129.936, 1140.316
1130.418, 1137.120
1130.900, 1133.729
1131.382, 1133.678
1131.864, 1135.790
1132.346, 1136.931
1132.828, 1137.094
1133.311, 1136.271
1133.793, 1131.319
1134.275, 1129.752
1134.757, 1136.032
1135.239, 1143.089
1135.721, 1143.423
1136.203, 1138.022
1136.685, 1135.397
1137.167, 1135.656
1137.650, 1137.338
1138.132, 1140.950
1138.614, 1144.226
1139.096, 1145.873
1139.578, 1146.580
1140.060, 1147.642
1140.542, 1149.127
1141.024, 1148.089
1141.506, 1144.051
1141.989, 1141.148
1142.471, 1145.254
1142.953, 1149.510
1143.435, 1147.034
1143.917, 1139.741
1144.399, 1138.221
1144.881, 1143.548
1145.363, 1147.324
1145.846, 1147.407
1146.328, 1146.540
1146.810, 1147.805
1147.292, 1149.619
1147.774, 1150.176
1148.256, 1149.120
1148.738, 1148.560
1149.220, 1148.555
1149.703, 1148.878
1150.185, 1149.396
1150.667, 1150.290
1151.149, 1152.708
1151.631, 1155.363
1152.113, 1155.886
1152.595, 1152.670
1153.077, 1151.483
1153.559, 1153.311
1154.042, 1155.747
1154.524, 1158.145
1155.006, 1159.805
1155.488, 1158.753
1155.970, 1155.725
1156.452, 1152.438
1156.934, 1148.148
1157.416, 1146.166
1157.898, 1147.219
1158.381, 1149.759
1158.863, 1153.624
1159.345, 1157.983
1159.827, 1158.617
1160.309, 1156.449
1160.791, 1155.204
1161.273, 1157.241
1161.755, 1159.581
1162.238, 1161.770
1162.720, 1163.570
1163.202, 1164.576
1163.684, 1164.903
1164.166, 1166.086
1164.648, 1167.871
1165.130, 1167.307
1165.612, 1158.664
1166.094, 1152.032
1166.577, 1153.348
1167.059, 1158.124
1167.541, 1159.041
1168.023, 1156.582
1168.505, 1157.199
1168.987, 1161.586
1169.469, 1165.566
1169.951, 1166.131
1170.433, 1165.513
1170.916, 1164.576
1171.398, 1163.611
1171.880, 1163.363
1172.362, 1163.816
1172.844, 1163.907
1173.326, 1163.397
1173.808, 1162.784
1174.290, 1161.311
1174.773, 1160.869
1175.255, 1164.410
1175.737, 1170.646
1176.219, 1172.300
1176.701, 1169.153
1177.183, 1165.999
1177.665, 1163.807
1178.147, 1163.143
1178.630, 1165.609
1179.112, 1169.109
1179.594, 1171.654
1180.076, 1173.133
1180.558, 1175.059
1181.040, 1177.753
1181.522, 1177.516
1182.004, 1171.286
1182.486, 1165.138
1182.969, 1166.635
1183.451, 1171.441
1183.933, 1174.216
1184.415, 1173.944
1184.897, 1174.747
1185.379, 1176.756
1185.861, 1179.072
1186.343, 1181.995
1186.825, 1183.926
1187.308, 1181.650
1187.790, 1177.574
1188.272, 1175.736
1188.754, 1178.098
1189.236, 1177.812
1189.718, 1174.125
1190.200, 1171.764
1190.682, 1176.136
1191.165, 1181.636
1191.647, 1180.020
1192.129, 1174.270
1192.611, 1170.267
1193.093, 1168.304
1193.575, 1170.672
1194.057, 1178.672
1194.539, 1185.862
1195.021, 1185.772
1195.504, 1182.908
1195.986, 1183.795
1196.468, 1187.093
1196.950, 1188.550
1197.432, 1186.617
1197.914, 1184.498
1198.396, 1182.090
1198.878, 1180.522
1199.360, 1181.182
1199.843, 1183.163
1200.325, 1185.871
1200.807, 1188.837
1201.289, 1190.180
1201.771, 1188.203
1202.253, 1188.195
1202.735, 1191.500
1203.217, 1194.471
1203.700, 1190.793
1204.182, 1185.563
1204.664, 1187.685
1205.146, 1196.183
1205.628, 1200.783
1206.110, 1198.118
1206.592, 1195.568
1207.074, 1194.167
1207.557, 1193.404
1208.039, 1192.123
1208.521, 1191.318
1209.003, 1193.592
1209.485, 1192.590
1209.967, 1191.625
1210.449, 1193.813
1210.931, 1190.295
1211.413, 1192.043
1211.896, 1195.495
1212.378, 1196.595
1212.860, 1195.933
1213.342, 1193.405
1213.824, 1189.045
1214.306, 1188.259
1214.788, 1193.945
1215.270, 1196.201
1215.752, 1191.433
1216.235, 1184.710
1216.717, 1183.048
1217.199, 1184.235
1217.681, 1185.256
1218.163, 1185.699
1218.645, 1185.986
1219.127, 1186.318
1219.609, 1185.954
1220.092, 1184.263
1220.574, 1182.654
1221.056, 1183.477
1221.538, 1185.592
1222.020, 1187.280
1222.502, 1188.104
1222.984, 1190.012
1223.466, 1193.673
1223.948, 1196.189
1224.431, 1196.109
1224.913, 1195.149
1225.395, 1196.262
1225.877, 1197.877
1226.359, 1197.458
1226.841, 1193.824
1227.323, 1192.569
1227.805, 1194.277
1228.287, 1196.205
1228.770, 1197.516
1229.252, 1197.914
1229.734, 1195.843
1230.216, 1193.169
1230.698, 1192.764
1231.180, 1195.765
1231.662, 1196.962
1232.144, 1196.041
1232.627, 1195.312
1233.109, 1196.420
1233.591, 1197.254
1234.073, 1193.979
1234.555, 1189.545
1235.037, 1188.316
1235.519, 1191.385
1236.001, 1192.803
1236.484, 1192.277
1236.966, 1193.091
1237.448, 1199.319
1237.930, 1203.838
1238.412, 1195.308
1238.894, 1182.753
1239.376, 1179.099
1239.858, 1185.777
1240.340, 1193.535
1240.823, 1202.450
1241.305, 1207.298
1241.787, 1202.226
1242.269, 1196.174
1242.751, 1197.033
1243.233, 1201.212
1243.715, 1204.299
1244.197, 1206.101
1244.679, 1207.590
1245.162, 1208.759
1245.644, 1208.549
1246.126, 1205.255
1246.608, 1201.953
1247.090, 1201.476
1247.572, 1201.589
1248.054, 1199.383
1248.536, 1194.690
1249.019, 1192.632
1249.501, 1193.107
1249.983, 1194.843
1250.465, 1197.825
1250.947, 1201.038
1251.429, 1205.205
1251.911, 1208.286
1252.393, 1207.560
1252.875, 1203.347
1253.358, 1202.272
1253.840, 1204.059
1254.322, 1206.924
1254.804, 1211.853
1255.286, 1215.114
1255.768, 1214.139
1256.250, 1212.342
1256.732, 1212.860
1257.214, 1215.137
1257.697, 1215.368
1258.179, 1214.052
1258.661, 1213.486
1259.143, 1217.189
1259.625, 1217.864
1260.107, 1211.851
1260.589, 1206.401
1261.071, 1208.949
1261.554, 1216.704
1262.036, 1221.789
1262.518, 1224.175
1263.000, 1224.238
1263.482, 1218.923
1263.964, 1216.344
1264.446, 1218.055
1264.928, 1220.396
1265.411, 1219.778
1265.893, 1217.955
1266.375, 1219.047
1266.857, 1221.759
1267.339, 1222.450
1267.821, 1217.126
1268.303, 1215.848
1268.785, 1219.743
1269.267, 1224.329
1269.750, 1226.135
1270.232, 1226.510
1270.714, 1227.445
1271.196, 1228.298
1271.678, 1227.244
1272.160, 1223.060
1272.642, 1220.530
1273.124, 1219.792
1273.606, 1220.413
1274.089, 1222.942
1274.571, 1225.807
1275.053, 1227.829
1275.535, 1229.047
1276.017, 1229.437
1276.499, 1228.635
1276.981, 1230.052
1277.463, 1233.710
1277.946, 1236.641
1278.428, 1235.844
1278.910, 1234.904
1279.392, 1236.937
1279.874, 1239.452
1280.356, 1239.047
1280.838, 1235.851
1281.320, 1235.877
1281.802, 1238.686
1282.285, 1239.780
1282.767, 1234.846
1283.249, 1230.085
1283.731, 1226.358
1284.213, 1225.169
1284.695, 1229.749
1285.177, 1238.202
1285.659, 1241.374
1286.141, 1240.003
1286.624, 1237.386
1287.106, 1231.490
1287.588, 1230.254
1288.070, 1236.760
1288.552, 1243.234
1289.034, 1242.118
1289.516, 1236.803
1289.998, 1234.212
1290.481, 1233.905
1290.963, 1234.669
1291.445, 1237.230
1291.927, 1239.177
1292.409, 1240.707
1292.891, 1240.817
1293.373, 1237.446
1293.855, 1233.351
1294.338, 1232.043
1294.820, 1232.577
1295.302, 1233.077
1295.784, 1232.700
1296.266, 1235.701
1296.748, 1242.391
1297.230, 1246.793
1297.712, 1242.272
1298.194, 1237.521
1298.677, 1241.631
1299.159, 1247.889
1299.641, 1247.505
1300.123, 1240.224
1300.605, 1235.884
1301.087, 1234.390
1301.569, 1235.076
1302.051, 1239.506
1302.533, 1242.732
1303.016, 1243.024
##END=



