##NAMES=Cobaltite
##RRUFFID=R060907
##IDEAL CHEMISTRY=Co^3+^(AsS)^3-^
##LOCALITY=Espanola, Ontario, Canada
##OWNER=RRUFF
##SOURCE=Royal Ontario Museum
##DESCRIPTION=Group of sharp metallic cubes with a thin surface alteration, broken crystals have fresher surfaces.
##STATUS=The identification of this mineral has been confirmed by X-ray diffraction and chemical analysis
##URL=rruff.info/R060907
##MEASURED CHEMISTRY=(Co_0.55_Fe_0.24_Ni_0.21_)_Î£=1_As_0.94_S_1.06_
152.3829, 4679.348
152.8650, 4657.094
153.3471, 4626.157
153.8292, 4598.907
154.3114, 4577.215
154.7935, 4556.785
155.2756, 4531.945
155.7577, 4498.260
156.2398, 4474.748
156.7219, 4465.915
157.2041, 4463.156
157.6862, 4460.389
158.1683, 4456.538
158.6504, 4454.002
159.1325, 4454.843
159.6146, 4455.699
160.0968, 4472.258
160.5789, 4514.538
161.0610, 4566.146
161.5431, 4615.421
162.0252, 4659.404
162.5073, 4697.873
162.9895, 4729.134
163.4716, 4746.682
163.9537, 4774.352
164.4358, 4822.884
164.9179, 4877.043
165.4000, 4921.477
165.8822, 4952.235
166.3643, 4976.204
166.8464, 5003.555
167.3285, 5037.180
167.8106, 5064.711
168.2927, 5080.943
168.7749, 5092.110
169.2570, 5109.322
169.7391, 5136.376
170.2212, 5158.399
170.7033, 5148.938
171.1854, 5098.240
171.6676, 5055.742
172.1497, 5033.737
172.6318, 5022.627
173.1139, 5010.728
173.5960, 4994.996
174.0781, 4977.901
174.5603, 4962.533
175.0424, 4947.954
175.5245, 4938.047
176.0066, 4941.023
176.4887, 4947.188
176.9708, 4939.043
177.4530, 4909.521
177.9351, 4875.119
178.4172, 4861.592
178.8993, 4869.313
179.3814, 4882.973
179.8635, 4906.374
180.3457, 4931.577
180.8278, 4943.959
181.3099, 4937.553
181.7920, 4924.680
182.2741, 4924.642
182.7562, 4937.931
183.2384, 4950.165
183.7205, 4953.746
184.2026, 4954.288
184.6847, 4962.808
185.1668, 4983.587
185.6489, 5007.874
186.1311, 5022.609
186.6132, 5027.871
187.0953, 5032.803
187.5774, 5037.239
188.0595, 5043.653
188.5416, 5058.029
189.0238, 5083.704
189.5059, 5112.229
189.9880, 5132.899
190.4701, 5146.476
190.9522, 5156.244
191.4343, 5159.796
191.9165, 5160.910
192.3986, 5166.209
192.8807, 5177.172
193.3628, 5192.512
193.8449, 5213.986
194.3270, 5241.719
194.8092, 5263.396
195.2913, 5269.300
195.7734, 5267.877
196.2555, 5274.905
196.7376, 5294.648
197.2197, 5319.203
197.7019, 5339.980
198.1840, 5357.547
198.6661, 5374.155
199.1482, 5392.220
199.6303, 5409.468
200.1124, 5419.779
200.5946, 5419.894
201.0767, 5420.793
201.5588, 5438.128
202.0409, 5469.362
202.5230, 5498.543
203.0051, 5524.628
203.4873, 5544.792
203.9694, 5551.861
204.4515, 5542.286
204.9336, 5529.515
205.4157, 5527.671
205.8978, 5535.009
206.3800, 5543.361
206.8621, 5550.455
207.3442, 5557.494
207.8263, 5566.394
208.3084, 5577.557
208.7905, 5589.358
209.2727, 5600.768
209.7548, 5611.678
210.2369, 5620.999
210.7190, 5623.275
211.2011, 5626.150
211.6832, 5641.712
212.1654, 5672.294
212.6475, 5702.991
213.1296, 5717.132
213.6117, 5718.795
214.0938, 5699.036
214.5759, 5755.282
215.0581, 5793.535
215.5402, 5814.754
216.0223, 5767.938
216.5044, 5808.976
216.9865, 5814.806
217.4686, 5819.192
217.9508, 5872.598
218.4329, 5835.678
218.9150, 5888.303
219.3971, 5872.722
219.8792, 5878.030
220.3613, 5898.455
220.8435, 5944.352
221.3256, 6006.785
221.8077, 6044.233
222.2898, 6032.142
222.7719, 6012.870
223.2540, 6018.326
223.7362, 6046.542
224.2183, 6077.721
224.7004, 6099.740
225.1825, 6115.502
225.6646, 6137.160
226.1467, 6170.638
226.6289, 6204.313
227.1110, 6227.246
227.5931, 6242.981
228.0752, 6268.734
228.5573, 6318.322
229.0394, 6381.200
229.5216, 6421.129
230.0037, 6417.797
230.4858, 6419.465
230.9679, 6455.580
231.4500, 6514.428
231.9321, 6563.263
232.4143, 6586.180
232.8964, 6591.849
233.3785, 6603.813
233.8606, 6623.816
234.3427, 6645.547
234.8248, 6667.049
235.3070, 6689.013
235.7891, 6712.549
236.2712, 6738.289
236.7533, 6765.849
237.2354, 6795.292
237.7175, 6831.104
238.1997, 6859.341
238.6818, 6877.375
239.1639, 6886.470
239.6460, 6887.417
240.1281, 6880.221
240.6102, 6867.657
241.0924, 6853.625
241.5745, 6837.176
242.0566, 6821.660
242.5387, 6810.562
243.0208, 6798.973
243.5029, 6779.172
243.9851, 6750.208
244.4672, 6722.805
244.9493, 6713.385
245.4314, 6736.494
245.9135, 6728.740
246.3956, 6667.100
246.8778, 6591.744
247.3599, 6530.070
247.8420, 6485.487
248.3241, 6450.329
248.8062, 6417.989
249.2883, 6389.660
249.7705, 6355.874
250.2526, 6306.463
250.7347, 6261.031
251.2168, 6235.693
251.6989, 6225.400
252.1810, 6210.106
252.6632, 6172.045
253.1453, 6110.516
253.6274, 6064.911
254.1095, 6042.993
254.5916, 6026.597
255.0737, 6016.251
255.5559, 6006.871
256.0380, 5987.584
256.5201, 5949.727
257.0022, 5898.396
257.4843, 5867.771
257.9665, 5895.079
258.4486, 5902.729
258.9307, 5865.079
259.4128, 5805.156
259.8949, 5752.412
260.3770, 5720.918
260.8592, 5674.985
261.3413, 5698.292
261.8234, 5703.604
262.3055, 5691.885
262.7876, 5612.131
263.2697, 5620.230
263.7519, 5593.120
264.2340, 5564.568
264.7161, 5585.033
265.1982, 5515.175
265.6803, 5534.863
266.1624, 5518.805
266.6446, 5519.105
267.1267, 5483.981
267.6088, 5420.111
268.0909, 5397.395
268.5730, 5382.821
269.0551, 5346.934
269.5373, 5284.743
270.0194, 5227.276
270.5015, 5171.984
270.9836, 5125.100
271.4657, 5098.849
271.9478, 5086.884
272.4300, 5065.924
272.9121, 5007.551
273.3942, 4915.567
273.8763, 4851.644
274.3584, 4833.279
274.8405, 4823.315
275.3227, 4809.194
275.8048, 4790.020
276.2869, 4763.722
276.7690, 4723.938
277.2511, 4678.290
277.7332, 4619.810
278.2154, 4639.646
278.6975, 4641.490
279.1796, 4626.306
279.6617, 4543.084
280.1438, 4547.718
280.6259, 4517.145
281.1081, 4485.122
281.5902, 4502.119
282.0723, 4428.795
282.5544, 4445.016
283.0365, 4425.492
283.5186, 4422.329
284.0008, 4383.734
284.4829, 4356.086
284.9650, 4363.876
285.4471, 4352.043
285.9292, 4309.376
286.4113, 4264.452
286.8935, 4233.527
287.3756, 4200.788
287.8577, 4172.417
288.3398, 4149.033
288.8219, 4124.950
289.3040, 4095.609
289.7862, 4064.678
290.2683, 4038.982
290.7504, 4020.658
291.2325, 4004.873
291.7146, 3986.168
292.1967, 3964.512
292.6789, 3944.457
293.1610, 3928.323
293.6431, 3913.156
294.1252, 3898.313
294.6073, 3883.117
295.0894, 3861.610
295.5716, 3825.664
296.0537, 3776.123
296.5358, 3745.219
297.0179, 3745.125
297.5000, 3749.575
297.9821, 3750.778
298.4643, 3746.761
298.9464, 3732.954
299.4285, 3705.371
299.9106, 3668.492
300.3927, 3641.219
300.8748, 3631.046
301.3570, 3621.201
301.8391, 3612.318
302.3212, 3601.488
302.8033, 3583.327
303.2854, 3556.012
303.7675, 3526.083
304.2497, 3505.689
304.7318, 3502.313
305.2139, 3495.834
305.6960, 3479.477
306.1781, 3465.264
306.6602, 3465.486
307.1424, 3479.263
307.6245, 3492.729
308.1066, 3490.632
308.5887, 3470.974
309.0708, 3448.805
309.5529, 3414.357
310.0351, 3386.699
310.5172, 3377.896
310.9993, 3381.681
311.4814, 3382.983
311.9635, 3370.342
312.4456, 3347.522
312.9278, 3332.026
313.4099, 3326.695
313.8920, 3324.382
314.3741, 3322.646
314.8562, 3322.143
315.3383, 3324.141
315.8205, 3329.683
316.3026, 3336.247
316.7847, 3340.868
317.2668, 3343.748
317.7489, 3343.232
318.2310, 3337.724
318.7132, 3329.108
319.1953, 3316.112
319.6774, 3297.539
320.1595, 3286.435
320.6416, 3298.858
321.1237, 3327.949
321.6059, 3345.802
322.0880, 3344.509
322.5701, 3336.410
323.0522, 3331.861
323.5343, 3330.595
324.0164, 3334.574
324.4986, 3346.589
324.9807, 3362.963
325.4628, 3380.329
325.9449, 3398.352
326.4270, 3415.047
326.9091, 3428.760
327.3913, 3439.638
327.8734, 3450.285
328.3555, 3462.963
328.8376, 3473.215
329.3197, 3477.898
329.8018, 3478.438
330.2840, 3479.026
330.7661, 3482.144
331.2482, 3485.136
331.7303, 3480.472
332.2124, 3455.351
332.6945, 3440.272
333.1767, 3445.064
333.6588, 3456.696
334.1409, 3462.924
334.6230, 3460.714
335.1051, 3454.128
335.5872, 3448.240
336.0694, 3443.921
336.5515, 3437.381
337.0336, 3422.999
337.5157, 3411.906
337.9978, 3411.888
338.4799, 3420.034
338.9621, 3427.587
339.4442, 3428.493
339.9263, 3423.083
340.4084, 3413.118
340.8905, 3392.024
341.3727, 3376.206
341.8548, 3368.723
342.3369, 3368.709
342.8190, 3377.129
343.3011, 3395.735
343.7832, 3415.992
344.2654, 3425.560
344.7475, 3423.590
345.2296, 3415.811
345.7117, 3392.253
346.1938, 3372.438
346.6759, 3376.751
347.1581, 3406.132
347.6402, 3433.176
348.1223, 3440.154
348.6044, 3431.425
349.0865, 3416.399
349.5686, 3391.897
350.0508, 3373.993
350.5329, 3383.717
351.0150, 3413.952
351.4971, 3435.476
351.9792, 3446.204
352.4613, 3443.797
352.9435, 3416.973
353.4256, 3370.839
353.9077, 3333.989
354.3898, 3323.103
354.8719, 3332.480
355.3540, 3342.726
355.8362, 3366.024
356.3183, 3373.698
356.8004, 3347.342
357.2825, 3306.197
357.7646, 3275.016
358.2467, 3260.725
358.7289, 3254.493
359.2110, 3243.940
359.6931, 3227.307
360.1752, 3211.496
360.6573, 3201.415
361.1394, 3187.867
361.6216, 3163.879
362.1037, 3131.631
362.5858, 3097.549
363.0679, 3064.858
363.5500, 3035.017
364.0321, 3020.199
364.5143, 3038.077
364.9964, 3045.037
365.4785, 3020.125
365.9606, 2984.655
366.4427, 2963.915
366.9248, 2967.309
367.4070, 2979.531
367.8891, 2978.780
368.3712, 2963.599
368.8533, 2953.018
369.3354, 2954.113
369.8175, 2957.560
370.2997, 2955.872
370.7818, 2949.247
371.2639, 2941.859
371.7460, 2937.094
372.2281, 2932.719
372.7102, 2922.101
373.1924, 2903.344
373.6745, 2888.862
374.1566, 2888.664
374.6387, 2900.392
375.1208, 2911.630
375.6029, 2922.922
376.0851, 2932.597
376.5672, 2941.749
377.0493, 2948.661
377.5314, 2947.220
378.0135, 2933.810
378.4956, 2916.437
378.9778, 2911.020
379.4599, 2929.673
379.9420, 2938.069
380.4241, 2927.598
380.9062, 2912.560
381.3883, 2903.837
381.8705, 2902.162
382.3526, 2901.863
382.8347, 2897.356
383.3168, 2888.632
383.7989, 2885.863
384.2810, 2894.900
384.7632, 2903.802
385.2453, 2912.371
385.7274, 2918.511
386.2095, 2918.416
386.6916, 2909.967
387.1737, 2898.843
387.6559, 2896.200
388.1380, 2904.581
388.6201, 2906.847
389.1022, 2889.231
389.5843, 2873.192
390.0664, 2879.281
390.5486, 2905.918
391.0307, 2925.598
391.5128, 2917.109
391.9949, 2891.413
392.4770, 2871.001
392.9591, 2857.323
393.4413, 2849.285
393.9234, 2817.000
394.4055, 2851.570
394.8876, 2868.142
395.3697, 2867.686
395.8518, 2799.193
396.3340, 2818.553
396.8161, 2802.707
397.2982, 2785.417
397.7803, 2817.143
398.2624, 2758.547
398.7445, 2789.495
399.2267, 2784.698
399.7088, 2796.262
400.1909, 2772.400
400.6730, 2759.480
401.1551, 2781.997
401.6372, 2784.892
402.1194, 2756.951
402.6015, 2769.554
403.0836, 2709.720
403.5657, 2713.451
404.0478, 2744.607
404.5299, 2711.589
405.0121, 2699.827
405.4942, 2686.246
405.9763, 2682.290
406.4584, 2691.338
406.9405, 2701.139
407.4226, 2694.167
407.9048, 2671.028
408.3869, 2657.360
408.8690, 2659.033
409.3511, 2667.715
409.8332, 2681.234
410.3153, 2697.127
410.7975, 2704.828
411.2796, 2691.966
411.7617, 2674.744
412.2438, 2672.203
412.7259, 2683.315
413.2080, 2695.921
413.6902, 2705.106
414.1723, 2710.541
414.6544, 2710.006
415.1365, 2697.163
415.6186, 2691.011
416.1007, 2700.796
416.5829, 2715.820
417.0650, 2726.035
417.5471, 2729.337
418.0292, 2727.524
418.5113, 2721.798
418.9934, 2711.767
419.4756, 2703.765
419.9577, 2695.032
420.4398, 2691.510
420.9219, 2701.836
421.4040, 2716.280
421.8861, 2719.089
422.3683, 2702.812
422.8504, 2680.741
423.3325, 2677.988
423.8146, 2698.937
424.2967, 2708.076
424.7788, 2687.046
425.2610, 2664.337
425.7431, 2662.802
426.2252, 2680.006
426.7073, 2696.153
427.1894, 2702.156
427.6715, 2701.418
428.1537, 2698.658
428.6358, 2694.023
429.1179, 2685.979
429.6000, 2671.537
430.0821, 2654.216
430.5642, 2645.055
431.0464, 2648.537
431.5285, 2651.680
432.0106, 2651.613
432.4927, 2649.083
432.9748, 2643.205
433.4569, 2634.513
433.9391, 2628.161
434.4212, 2630.708
434.9033, 2643.752
435.3854, 2649.713
435.8675, 2642.684
436.3496, 2634.906
436.8318, 2629.341
437.3139, 2625.272
437.7960, 2620.327
438.2781, 2613.224
438.7602, 2607.803
439.2423, 2612.303
439.7245, 2628.438
440.2066, 2640.087
440.6887, 2643.765
441.1708, 2642.684
441.6529, 2638.943
442.1350, 2632.781
442.6172, 2625.504
443.0993, 2614.175
443.5814, 2603.887
444.0635, 2601.849
444.5456, 2607.831
445.0277, 2617.427
445.5099, 2630.506
445.9920, 2643.708
446.4741, 2645.643
446.9562, 2624.723
447.4383, 2616.071
447.9204, 2641.568
448.4026, 2672.021
448.8847, 2675.932
449.3668, 2651.844
449.8489, 2621.960
450.3310, 2605.775
450.8131, 2602.978
451.2953, 2601.542
451.7774, 2601.672
452.2595, 2603.166
452.7416, 2605.158
453.2237, 2608.814
453.7059, 2616.850
454.1880, 2630.148
454.6701, 2642.666
455.1522, 2647.440
455.6343, 2644.962
456.1165, 2640.658
456.5986, 2634.507
457.0807, 2627.725
457.5628, 2620.075
458.0449, 2612.296
458.5270, 2607.080
459.0092, 2605.678
459.4913, 2606.302
459.9734, 2607.469
460.4555, 2609.601
460.9376, 2615.362
461.4197, 2626.369
461.9019, 2637.054
462.3840, 2637.257
462.8661, 2620.260
463.3482, 2610.194
463.8303, 2609.696
464.3124, 2613.223
464.7946, 2622.959
465.2767, 2634.198
465.7588, 2635.836
466.2409, 2619.596
466.7230, 2594.138
467.2051, 2583.237
467.6873, 2590.882
468.1694, 2600.577
468.6515, 2615.238
469.1336, 2625.731
469.6157, 2622.188
470.0978, 2605.318
470.5800, 2590.719
471.0621, 2590.631
471.5442, 2596.547
472.0263, 2593.254
472.5084, 2580.178
472.9905, 2568.217
473.4727, 2563.370
473.9548, 2564.063
474.4369, 2565.299
474.9190, 2564.232
475.4011, 2568.225
475.8832, 2587.208
476.3654, 2606.574
476.8475, 2610.086
477.3296, 2597.334
477.8117, 2580.948
478.2938, 2571.615
478.7759, 2569.039
479.2581, 2568.963
479.7402, 2570.308
480.2223, 2576.238
480.7044, 2592.730
481.1865, 2610.789
481.6686, 2621.490
482.1508, 2622.810
482.6329, 2618.626
483.1150, 2610.747
483.5971, 2599.967
484.0792, 2588.341
484.5613, 2575.448
485.0435, 2564.472
485.5256, 2556.783
486.0077, 2553.163
486.4898, 2555.055
486.9719, 2567.194
487.4540, 2579.272
487.9362, 2586.204
488.4183, 2591.011
488.9004, 2600.315
489.3825, 2614.990
489.8646, 2625.906
490.3467, 2621.217
490.8289, 2598.642
491.3110, 2583.444
491.7931, 2579.060
492.2752, 2578.852
492.7573, 2588.121
493.2394, 2598.026
493.7216, 2594.801
494.2037, 2573.021
494.6858, 2548.491
495.1679, 2540.125
495.6500, 2545.805
496.1321, 2548.007
496.6143, 2542.555
497.0964, 2537.872
497.5785, 2541.751
498.0606, 2552.522
498.5427, 2562.630
499.0248, 2576.579
499.5070, 2584.245
499.9891, 2573.554
500.4712, 2554.611
500.9533, 2547.754
501.4354, 2558.777
501.9175, 2573.167
502.3997, 2571.039
502.8818, 2548.416
503.3639, 2532.877
503.8460, 2526.828
504.3281, 2525.722
504.8102, 2530.426
505.2924, 2538.694
505.7745, 2548.552
506.2566, 2559.791
506.7387, 2568.695
507.2208, 2567.338
507.7029, 2557.620
508.1851, 2558.925
508.6672, 2579.214
509.1493, 2599.063
509.6314, 2600.807
510.1135, 2587.406
510.5956, 2574.372
511.0778, 2560.833
511.5599, 2550.188
512.0420, 2546.282
512.5241, 2545.816
513.0062, 2541.052
513.4883, 2530.172
513.9705, 2522.596
514.4526, 2532.964
514.9347, 2566.051
515.4168, 2582.479
515.8989, 2561.986
516.3810, 2547.046
516.8632, 2557.207
517.3453, 2577.389
517.8274, 2584.371
518.3095, 2569.272
518.7916, 2551.575
519.2737, 2553.713
519.7559, 2571.365
520.2380, 2586.073
520.7201, 2596.798
521.2022, 2597.363
521.6843, 2575.298
522.1664, 2535.983
522.6486, 2520.185
523.1307, 2552.032
523.6128, 2578.884
524.0949, 2578.900
524.5770, 2565.080
525.0591, 2551.895
525.5413, 2543.729
526.0234, 2541.334
526.5055, 2546.598
526.9876, 2559.503
527.4697, 2570.180
527.9518, 2581.661
528.4340, 2585.773
528.9161, 2574.977
529.3982, 2558.916
529.8803, 2548.104
530.3624, 2544.754
530.8445, 2544.930
531.3267, 2551.536
531.8088, 2558.430
532.2909, 2547.290
532.7730, 2515.886
533.2551, 2491.676
533.7372, 2496.847
534.2194, 2522.458
534.7015, 2526.801
535.1836, 2479.544
535.6657, 2453.622
536.1478, 2475.012
536.6299, 2508.135
537.1121, 2521.522
537.5942, 2514.165
538.0763, 2505.376
538.5584, 2510.911
539.0405, 2526.154
539.5226, 2533.006
540.0048, 2528.787
540.4869, 2525.557
540.9690, 2528.016
541.4511, 2532.226
541.9332, 2533.514
542.4153, 2531.707
542.8975, 2532.144
543.3796, 2542.606
543.8617, 2552.070
544.3438, 2546.563
544.8259, 2529.234
545.3080, 2515.355
545.7902, 2512.727
546.2723, 2515.666
546.7544, 2511.949
547.2365, 2496.708
547.7186, 2485.666
548.2007, 2476.579
548.6829, 2473.387
549.1650, 2482.515
549.6471, 2498.483
550.1292, 2509.857
550.6113, 2510.684
551.0934, 2507.139
551.5756, 2508.337
552.0577, 2513.220
552.5398, 2512.022
553.0219, 2500.513
553.5040, 2488.931
553.9861, 2486.223
554.4683, 2492.792
554.9504, 2503.064
555.4325, 2527.929
555.9146, 2544.061
556.3967, 2535.887
556.8788, 2517.022
557.3610, 2504.743
557.8431, 2503.416
558.3252, 2506.887
558.8073, 2509.105
559.2894, 2510.118
559.7715, 2511.368
560.2537, 2514.985
560.7358, 2514.488
561.2179, 2499.397
561.7000, 2482.808
562.1821, 2481.574
562.6642, 2499.912
563.1464, 2513.611
563.6285, 2508.094
564.1106, 2492.781
564.5927, 2477.323
565.0748, 2463.108
565.5569, 2452.064
566.0391, 2445.353
566.5212, 2442.182
567.0033, 2440.656
567.4854, 2443.776
567.9675, 2442.857
568.4496, 2428.948
568.9318, 2419.609
569.4139, 2428.643
569.8960, 2450.130
570.3781, 2468.575
570.8602, 2477.432
571.3423, 2477.967
571.8245, 2466.265
572.3066, 2445.420
572.7887, 2436.326
573.2708, 2445.753
573.7529, 2460.915
574.2350, 2470.365
574.7172, 2473.920
575.1993, 2475.897
575.6814, 2472.727
576.1635, 2472.327
576.6456, 2481.161
577.1277, 2491.941
577.6099, 2494.046
578.0920, 2486.541
578.5741, 2480.848
579.0562, 2492.490
579.5383, 2516.123
580.0204, 2516.362
580.5026, 2484.756
580.9847, 2459.689
581.4668, 2459.872
581.9489, 2472.132
582.4310, 2478.306
582.9131, 2478.111
583.3953, 2474.008
583.8774, 2459.956
584.3595, 2447.723
584.8416, 2452.016
585.3237, 2466.760
585.8058, 2471.112
586.2880, 2454.696
586.7701, 2432.813
587.2522, 2437.136
587.7343, 2477.608
588.2164, 2501.949
588.6985, 2502.303
589.1807, 2493.968
589.6628, 2479.254
590.1449, 2462.572
590.6270, 2451.182
591.1091, 2446.859
591.5912, 2448.294
592.0734, 2458.828
592.5555, 2473.115
593.0376, 2480.836
593.5197, 2481.058
594.0018, 2481.745
594.4839, 2489.907
594.9661, 2502.171
595.4482, 2501.587
595.9303, 2473.744
596.4124, 2456.855
596.8945, 2458.131
597.3766, 2466.171
597.8588, 2476.508
598.3409, 2487.195
598.8230, 2494.596
599.3051, 2496.374
599.7872, 2494.674
600.2693, 2490.272
600.7515, 2448.868
601.2336, 2492.042
601.7157, 2517.220
602.1978, 2525.368
602.6799, 2465.481
603.1620, 2493.447
603.6442, 2486.207
604.1263, 2477.521
604.6084, 2517.853
605.0905, 2467.861
605.5726, 2507.415
606.0547, 2511.224
606.5369, 2531.394
607.0190, 2516.137
607.5011, 2511.822
607.9832, 2542.944
608.4653, 2554.444
608.9474, 2535.110
609.4296, 2556.319
609.9117, 2505.090
610.3938, 2500.407
610.8759, 2494.054
611.3580, 2509.896
611.8401, 2515.290
612.3223, 2494.750
612.8044, 2479.327
613.2865, 2491.646
613.7686, 2515.149
614.2507, 2522.988
614.7328, 2507.342
615.2150, 2484.177
615.6971, 2468.069
616.1792, 2459.280
616.6613, 2462.677
617.1434, 2482.278
617.6255, 2495.492
618.1077, 2486.686
618.5898, 2468.523
619.0719, 2466.263
619.5540, 2483.165
620.0361, 2501.000
620.5182, 2522.775
621.0004, 2539.174
621.4825, 2543.219
621.9646, 2536.713
622.4467, 2520.751
622.9288, 2495.679
623.4109, 2474.271
623.8931, 2480.763
624.3752, 2514.781
624.8573, 2530.667
625.3394, 2518.367
625.8215, 2507.778
626.3036, 2521.728
626.7858, 2546.958
627.2679, 2551.899
627.7500, 2524.826
628.2321, 2506.580
628.7142, 2516.133
629.1964, 2532.326
629.6785, 2537.178
630.1606, 2532.225
630.6427, 2528.262
631.1248, 2531.231
631.6069, 2535.097
632.0891, 2525.880
632.5712, 2501.958
633.0533, 2489.760
633.5354, 2497.088
634.0175, 2505.618
634.4996, 2501.521
634.9818, 2490.370
635.4639, 2485.196
635.9460, 2489.086
636.4281, 2494.348
636.9102, 2499.874
637.3923, 2504.632
637.8745, 2509.715
638.3566, 2513.334
638.8387, 2508.729
639.3208, 2490.835
639.8029, 2468.359
640.2850, 2461.695
640.7672, 2473.065
641.2493, 2477.577
641.7314, 2468.601
642.2135, 2459.032
642.6956, 2457.687
643.1777, 2462.509
643.6599, 2468.842
644.1420, 2479.738
644.6241, 2486.198
645.1062, 2479.721
645.5883, 2471.147
646.0704, 2473.867
646.5526, 2485.739
647.0347, 2493.732
647.5168, 2489.436
647.9989, 2478.157
648.4810, 2471.268
648.9631, 2469.324
649.4453, 2464.946
649.9274, 2455.040
650.4095, 2446.553
650.8916, 2445.061
651.3737, 2449.000
651.8558, 2453.475
652.3380, 2459.202
652.8201, 2463.815
653.3022, 2469.689
653.7843, 2471.889
654.2664, 2460.890
654.7485, 2440.921
655.2307, 2428.744
655.7128, 2435.624
656.1949, 2450.231
656.6770, 2448.344
657.1591, 2429.299
657.6412, 2419.090
658.1234, 2422.651
658.6055, 2431.878
659.0876, 2442.741
659.5697, 2454.807
660.0518, 2466.765
660.5339, 2486.801
661.0161, 2493.389
661.4982, 2470.647
661.9803, 2441.866
662.4624, 2423.143
662.9445, 2415.853
663.4266, 2418.358
663.9088, 2431.002
664.3909, 2446.524
664.8730, 2451.635
665.3551, 2447.670
665.8372, 2450.925
666.3193, 2465.761
666.8015, 2477.559
667.2836, 2475.802
667.7657, 2463.598
668.2478, 2451.823
668.7299, 2437.689
669.2120, 2428.689
669.6942, 2427.847
670.1763, 2430.163
670.6584, 2433.903
671.1405, 2437.924
671.6226, 2440.419
672.1047, 2440.413
672.5869, 2439.965
673.0690, 2442.604
673.5511, 2446.878
674.0332, 2446.799
674.5153, 2441.589
674.9974, 2435.984
675.4796, 2432.387
675.9617, 2430.872
676.4438, 2431.734
676.9259, 2436.262
677.4080, 2440.608
677.8901, 2448.894
678.3723, 2452.730
678.8544, 2443.963
679.3365, 2429.523
679.8186, 2420.370
680.3007, 2419.762
680.7828, 2424.761
681.2650, 2440.120
681.7471, 2456.612
682.2292, 2453.876
682.7113, 2433.484
683.1934, 2415.923
683.6755, 2411.207
684.1577, 2414.073
684.6398, 2415.436
685.1219, 2414.755
685.6040, 2415.236
686.0861, 2423.339
686.5682, 2423.879
687.0504, 2400.932
687.5325, 2373.696
688.0146, 2365.943
688.4967, 2381.609
688.9788, 2404.513
689.4609, 2440.208
689.9431, 2469.482
690.4252, 2469.443
690.9073, 2447.763
691.3894, 2421.650
691.8715, 2397.682
692.3536, 2384.671
692.8358, 2397.990
693.3179, 2435.358
693.8000, 2452.904
694.2821, 2445.379
694.7642, 2432.627
695.2463, 2417.203
695.7285, 2402.719
696.2106, 2391.707
696.6927, 2384.080
697.1748, 2385.445
697.6569, 2410.422
698.1390, 2429.101
698.6212, 2421.075
699.1033, 2401.747
699.5854, 2390.530
700.0675, 2390.787
700.5496, 2395.325
701.0317, 2400.723
701.5139, 2404.036
701.9960, 2393.303
702.4781, 2369.236
702.9602, 2362.235
703.4423, 2384.059
703.9244, 2407.930
704.4066, 2408.142
704.8887, 2387.479
705.3708, 2377.072
705.8529, 2386.989
706.3350, 2393.099
706.8171, 2389.470
707.2993, 2384.571
707.7814, 2385.034
708.2635, 2389.602
708.7456, 2393.098
709.2277, 2393.209
709.7098, 2391.891
710.1920, 2391.266
710.6741, 2390.522
711.1562, 2387.414
711.6383, 2381.940
712.1204, 2376.860
712.6025, 2374.098
713.0847, 2372.161
713.5668, 2367.078
714.0489, 2357.525
714.5310, 2349.351
715.0131, 2341.809
715.4952, 2336.983
715.9774, 2335.316
716.4595, 2337.043
716.9416, 2343.850
717.4237, 2357.546
717.9058, 2368.083
718.3879, 2372.992
718.8701, 2372.457
719.3522, 2361.567
719.8343, 2346.363
720.3164, 2339.915
720.7985, 2346.201
721.2806, 2355.760
721.7628, 2359.113
722.2449, 2356.684
722.7270, 2347.914
723.2091, 2331.457
723.6912, 2323.830
724.1733, 2333.365
724.6555, 2348.512
725.1376, 2356.563
725.6197, 2357.514
726.1018, 2350.824
726.5839, 2321.430
727.0660, 2304.738
727.5482, 2320.866
728.0303, 2343.482
728.5124, 2344.898
728.9945, 2328.706
729.4766, 2323.397
729.9587, 2353.492
730.4409, 2384.301
730.9230, 2372.571
731.4051, 2337.116
731.8872, 2321.984
732.3693, 2332.048
732.8514, 2339.866
733.3336, 2325.115
733.8157, 2298.293
734.2978, 2289.376
734.7799, 2302.722
735.2620, 2315.335
735.7441, 2326.389
736.2263, 2335.271
736.7084, 2342.098
737.1905, 2346.381
737.6726, 2339.843
738.1547, 2297.189
738.6368, 2341.706
739.1190, 2368.226
739.6011, 2377.716
740.0832, 2319.170
740.5653, 2348.479
741.0474, 2342.579
741.5295, 2335.236
742.0117, 2376.910
742.4938, 2320.661
742.9759, 2307.969
743.4580, 2312.910
743.9401, 2333.124
744.4222, 2340.114
744.9044, 2322.654
745.3865, 2302.118
745.8686, 2303.519
746.3507, 2325.853
746.8328, 2339.438
747.3149, 2339.925
747.7971, 2338.828
748.2792, 2338.902
748.7613, 2337.195
749.2434, 2330.307
749.7255, 2319.772
750.2076, 2310.937
750.6898, 2304.911
751.1719, 2301.317
751.6540, 2298.676
752.1361, 2299.217
752.6182, 2309.533
753.1003, 2325.717
753.5825, 2333.053
754.0646, 2323.445
754.5467, 2311.057
755.0288, 2322.521
755.5109, 2351.963
755.9930, 2357.303
756.4752, 2333.795
756.9573, 2315.734
757.4394, 2320.623
757.9215, 2335.641
758.4036, 2340.306
758.8857, 2333.140
759.3679, 2323.878
759.8500, 2301.106
760.3321, 2290.618
760.8142, 2311.597
761.2963, 2337.893
761.7784, 2344.729
762.2606, 2331.558
762.7427, 2315.024
763.2248, 2297.850
763.7069, 2283.725
764.1890, 2275.000
764.6711, 2270.907
765.1533, 2272.517
765.6354, 2278.231
766.1175, 2281.394
766.5996, 2277.419
767.0817, 2269.560
767.5638, 2263.678
768.0460, 2259.703
768.5281, 2255.271
769.0102, 2249.226
769.4923, 2249.066
769.9744, 2261.653
770.4565, 2279.302
770.9387, 2285.156
771.4208, 2273.993
771.9029, 2267.616
772.3850, 2268.764
772.8671, 2271.375
773.3492, 2275.959
773.8314, 2279.707
774.3135, 2280.443
774.7956, 2277.688
775.2777, 2269.811
775.7598, 2250.396
776.2419, 2231.464
776.7241, 2217.032
777.2062, 2211.081
777.6883, 2226.982
778.1704, 2261.062
778.6525, 2285.559
779.1346, 2278.917
779.6168, 2257.483
780.0989, 2256.094
780.5810, 2272.220
781.0631, 2276.010
781.5452, 2262.139
782.0273, 2248.858
782.5095, 2246.887
782.9916, 2252.778
783.4737, 2259.409
783.9558, 2268.590
784.4379, 2272.766
784.9200, 2265.366
785.4022, 2260.927
785.8843, 2269.000
786.3664, 2279.142
786.8485, 2276.896
787.3306, 2261.608
787.8127, 2252.976
788.2949, 2265.420
788.7770, 2277.510
789.2591, 2273.479
789.7412, 2263.137
790.2233, 2261.347
790.7054, 2267.883
791.1876, 2269.635
791.6697, 2256.252
792.1518, 2240.208
792.6339, 2244.415
793.1160, 2262.885
793.5981, 2270.983
794.0803, 2266.047
794.5624, 2255.216
795.0445, 2241.114
795.5266, 2228.166
796.0087, 2225.967
796.4908, 2237.361
796.9730, 2242.806
797.4551, 2242.300
797.9372, 2235.609
798.4193, 2217.742
798.9014, 2197.261
799.3835, 2183.126
799.8657, 2175.329
800.3478, 2171.577
800.8299, 2138.914
801.3120, 2183.231
801.7941, 2209.552
802.2762, 2218.843
802.7584, 2160.099
803.2405, 2189.208
803.7226, 2183.110
804.2047, 2175.568
804.6868, 2217.042
805.1689, 2168.193
805.6511, 2208.891
806.1332, 2213.843
806.6153, 2235.155
807.0974, 2221.041
807.5795, 2217.869
808.0616, 2250.134
808.5438, 2262.778
809.0259, 2244.586
809.5080, 2266.937
809.9901, 2216.851
810.4722, 2230.330
810.9543, 2271.234
811.4365, 2239.565
811.9186, 2233.821
812.4007, 2226.195
812.8828, 2222.264
813.3649, 2223.358
813.8470, 2226.207
814.3292, 2235.667
814.8113, 2241.730
815.2934, 2237.909
815.7755, 2227.127
816.2576, 2213.616
816.7397, 2196.604
817.2219, 2185.789
817.7040, 2188.692
818.1861, 2195.952
818.6682, 2203.833
819.1503, 2209.632
819.6324, 2208.552
820.1146, 2200.373
820.5967, 2190.649
821.0788, 2182.026
821.5609, 2176.669
822.0430, 2182.163
822.5251, 2194.362
823.0073, 2196.421
823.4894, 2185.990
823.9716, 2173.895
824.4537, 2166.713
824.9358, 2164.439
825.4179, 2169.329
825.9000, 2183.673
826.3821, 2186.049
826.8643, 2170.368
827.3464, 2158.579
827.8285, 2161.381
828.3106, 2170.752
828.7927, 2175.574
829.2748, 2175.104
829.7570, 2177.673
830.2391, 2185.957
830.7212, 2193.539
831.2033, 2203.677
831.6854, 2208.837
832.1675, 2198.755
832.6497, 2178.755
833.1318, 2164.937
833.6139, 2162.160
834.0960, 2165.352
834.5781, 2179.250
835.0602, 2191.768
835.5424, 2188.529
836.0245, 2175.165
836.5066, 2164.251
836.9887, 2160.077
837.4708, 2161.195
837.9529, 2168.821
838.4351, 2179.272
838.9172, 2187.231
839.3993, 2191.915
839.8814, 2188.365
840.3635, 2175.958
840.8456, 2162.467
841.3278, 2153.366
841.8099, 2148.700
842.2920, 2150.076
842.7741, 2158.603
843.2562, 2160.948
843.7383, 2153.846
844.2205, 2148.912
844.7026, 2153.314
845.1847, 2160.469
845.6668, 2158.723
846.1489, 2145.344
846.6310, 2143.281
847.1132, 2170.227
847.5953, 2184.613
848.0774, 2165.948
848.5595, 2144.176
849.0416, 2146.483
849.5237, 2165.551
850.0059, 2172.639
850.4880, 2155.297
850.9701, 2139.831
851.4522, 2132.905
851.9343, 2134.020
852.4164, 2151.000
852.8986, 2172.938
853.3807, 2179.205
853.8628, 2165.346
854.3449, 2149.147
854.8270, 2144.555
855.3091, 2144.071
855.7913, 2137.272
856.2734, 2127.771
856.7555, 2123.334
857.2376, 2125.199
857.7197, 2131.744
858.2018, 2142.589
858.6840, 2153.861
859.1661, 2157.334
859.6482, 2154.284
860.1303, 2154.920
860.6124, 2159.963
861.0945, 2164.460
861.5767, 2166.593
862.0588, 2166.347
862.5409, 2163.258
863.0230, 2157.536
863.5051, 2153.967
863.9872, 2154.302
864.4694, 2151.334
864.9515, 2139.596
865.4336, 2130.745
865.9157, 2135.924
866.3978, 2149.806
866.8799, 2156.299
867.3621, 2154.590
867.8442, 2148.062
868.3263, 2126.939
868.8084, 2112.693
869.2905, 2118.747
869.7726, 2132.818
870.2548, 2142.723
870.7369, 2146.888
871.2190, 2145.833
871.7011, 2135.860
872.1832, 2125.573
872.6653, 2120.287
873.1475, 2115.698
873.6296, 2106.444
874.1117, 2094.260
874.5938, 2082.879
875.0759, 2073.434
875.5580, 2071.934
876.0402, 2089.096
876.5223, 2113.135
877.0044, 2130.137
877.4865, 2140.230
877.9686, 2143.532
878.4507, 2141.160
878.9329, 2140.716
879.4150, 2149.851
879.8971, 2158.744
880.3792, 2143.460
880.8613, 2108.887
881.3434, 2083.101
881.8256, 2068.844
882.3077, 2066.941
882.7898, 2079.628
883.2719, 2094.145
883.7540, 2090.683
884.2361, 2070.808
884.7183, 2066.993
885.2004, 2084.958
885.6825, 2093.453
886.1646, 2081.764
886.6467, 2068.915
887.1288, 2070.343
887.6110, 2080.879
888.0931, 2083.590
888.5752, 2073.908
889.0573, 2067.639
889.5394, 2067.162
890.0215, 2066.977
890.5037, 2061.932
890.9858, 2058.536
891.4679, 2066.202
891.9500, 2083.925
892.4321, 2095.743
892.9142, 2095.661
893.3964, 2094.775
893.8785, 2096.480
894.3606, 2097.541
894.8427, 2095.003
895.3248, 2090.307
895.8069, 2085.890
896.2891, 2082.232
896.7712, 2080.960
897.2533, 2086.443
897.7354, 2090.876
898.2175, 2087.388
898.6996, 2079.981
899.1818, 2072.061
899.6639, 2065.712
900.1460, 2066.234
900.6281, 2078.614
901.1102, 2089.059
901.5923, 2078.185
902.0745, 2059.510
902.5566, 2055.241
903.0387, 2062.795
903.5208, 2069.927
904.0029, 2072.795
904.4850, 2075.815
904.9672, 2083.843
905.4493, 2093.418
905.9314, 2099.294
906.4135, 2100.321
906.8956, 2086.307
907.3777, 2057.284
907.8599, 2036.039
908.3420, 2034.816
908.8241, 2044.883
909.3062, 2055.050
909.7883, 2064.728
910.2704, 2065.243
910.7526, 2055.695
911.2347, 2045.069
911.7168, 2034.262
912.1989, 2028.522
912.6810, 2033.329
913.1631, 2044.809
913.6453, 2051.956
914.1274, 2056.125
914.6095, 2049.134
915.0916, 2021.861
915.5737, 2004.170
916.0558, 2011.825
916.5380, 2028.193
917.0201, 2035.424
917.5022, 2033.860
917.9843, 2029.794
918.4664, 2016.332
918.9485, 2011.438
919.4307, 2026.047
919.9128, 2038.656
920.3949, 2036.173
920.8770, 2026.496
921.3591, 2020.962
921.8412, 2020.121
922.3234, 2024.442
922.8055, 2041.267
923.2876, 2053.706
923.7697, 2050.558
924.2518, 2046.328
924.7339, 2058.030
925.2161, 2077.804
925.6982, 2083.227
926.1803, 2066.614
926.6624, 2046.683
927.1445, 2022.313
927.6266, 2006.186
928.1088, 2010.649
928.5909, 2025.411
929.0730, 2039.830
929.5551, 2050.971
930.0372, 2056.275
930.5193, 2052.482
931.0015, 2048.004
931.4836, 2048.987
931.9657, 2052.256
932.4478, 2056.119
932.9299, 2058.957
933.4120, 2057.990
933.8942, 2052.689
934.3763, 2045.008
934.8584, 2034.123
935.3405, 2024.830
935.8226, 2021.159
936.3047, 2023.906
936.7869, 2043.005
937.2690, 2070.736
937.7511, 2075.813
938.2332, 2045.912
938.7153, 2008.929
939.1974, 1992.707
939.6796, 1991.371
940.1617, 1993.295
940.6438, 1999.333
941.1259, 2017.101
941.6080, 2045.203
942.0901, 2062.306
942.5723, 2055.166
943.0544, 2038.597
943.5365, 2038.029
944.0186, 2048.400
944.5007, 2041.427
944.9828, 2018.906
945.4650, 2007.520
945.9471, 2014.307
946.4292, 2024.823
946.9113, 2028.077
947.3934, 2026.637
947.8755, 2026.848
948.3577, 2028.651
948.8398, 2026.851
949.3219, 2020.642
949.8040, 2019.964
950.2861, 2029.808
950.7682, 2037.775
951.2504, 2029.148
951.7325, 2009.945
952.2146, 2010.607
952.6967, 2036.565
953.1788, 2044.759
953.6609, 2026.719
954.1431, 2011.069
954.6252, 2010.882
955.1073, 2018.491
955.5894, 2024.767
956.0715, 2029.585
956.5536, 2030.717
957.0358, 2027.454
957.5179, 2022.440
958.0000, 2014.631
958.4821, 2008.010
958.9642, 2004.706
959.4464, 2003.942
959.9285, 2003.847
960.4106, 2003.869
960.8927, 2011.309
961.3748, 2032.453
961.8569, 2048.538
962.3391, 2055.828
962.8212, 2057.980
963.3033, 2056.260
963.7854, 2051.492
964.2675, 2044.975
964.7496, 2035.459
965.2318, 2029.232
965.7139, 2029.460
966.1960, 2028.444
966.6781, 2022.217
967.1602, 2016.323
967.6423, 2017.915
968.1245, 2022.945
968.6066, 2017.504
969.0887, 1991.557
969.5708, 1981.481
970.0529, 2003.158
970.5350, 2022.991
971.0172, 2030.691
971.4993, 2032.113
971.9814, 2032.244
972.4635, 2030.834
972.9456, 2024.790
973.4277, 2005.403
973.9099, 2000.066
974.3920, 2031.426
974.8741, 2055.092
975.3562, 2043.202
975.8383, 2020.262
976.3204, 2015.387
976.8026, 2026.383
977.2847, 2027.711
977.7668, 2008.415
978.2489, 1990.750
978.7310, 1978.935
979.2131, 1970.426
979.6953, 1962.034
980.1774, 1957.194
980.6595, 1963.137
981.1416, 1978.626
981.6237, 1988.951
982.1058, 1985.670
982.5880, 1984.132
983.0701, 1994.221
983.5522, 2001.907
984.0343, 1994.177
984.5164, 1980.175
984.9985, 1974.033
985.4807, 1977.110
985.9628, 1980.471
986.4449, 1983.297
986.9270, 1983.069
987.4091, 1976.448
987.8912, 1968.801
988.3734, 1962.797
988.8555, 1959.221
989.3376, 1960.150
989.8197, 1965.487
990.3018, 1967.904
990.7839, 1959.198
991.2661, 1954.118
991.7482, 1967.463
992.2303, 1979.318
992.7124, 1967.478
993.1945, 1943.896
993.6766, 1932.276
994.1588, 1937.336
994.6409, 1946.326
995.1230, 1955.003
995.6051, 1965.210
996.0872, 1985.499
996.5693, 2000.914
997.0515, 1991.654
997.5336, 1969.248
998.0157, 1959.344
998.4978, 1967.784
998.9799, 1974.221
999.4620, 1964.425
999.9442, 1956.961
1000.426, 1965.956
1000.908, 1978.003
1001.391, 1980.911
1001.873, 1976.527
1002.355, 1968.698
1002.837, 1958.148
1003.319, 1957.192
1003.801, 1982.609
1004.283, 2005.180
1004.765, 2008.462
1005.247, 2002.359
1005.730, 1994.142
1006.212, 1985.357
1006.694, 1974.744
1007.176, 1961.665
1007.658, 1957.572
1008.140, 1980.212
1008.622, 1997.645
1009.104, 1985.331
1009.586, 1966.186
1010.069, 1960.544
1010.551, 1966.639
1011.033, 1976.902
1011.515, 1989.811
1011.997, 1999.779
1012.479, 2005.568
1012.961, 2006.278
1013.443, 1997.214
1013.926, 1986.436
1014.408, 1981.217
1014.890, 1980.401
1015.372, 1978.190
1015.854, 1972.671
1016.336, 1976.712
1016.818, 2012.620
1017.300, 2037.178
1017.782, 2022.099
1018.265, 1994.026
1018.747, 1970.287
1019.229, 1954.546
1019.711, 1952.578
1020.193, 1966.697
1020.675, 1974.117
1021.157, 1959.641
1021.639, 1946.921
1022.122, 1951.094
1022.604, 1956.137
1023.086, 1943.788
1023.568, 1923.832
1024.050, 1919.416
1024.532, 1935.634
1025.014, 1947.174
1025.496, 1944.522
1025.978, 1939.744
1026.461, 1928.497
1026.943, 1924.737
1027.425, 1951.120
1027.907, 1987.599
1028.389, 1992.503
1028.871, 1957.928
1029.353, 1938.254
1029.835, 1957.626
1030.318, 1974.184
1030.800, 1975.857
1031.282, 1972.760
1031.764, 1971.345
1032.246, 1969.875
1032.728, 1963.753
1033.210, 1952.227
1033.692, 1944.676
1034.174, 1939.294
1034.656, 1942.155
1035.139, 1966.494
1035.621, 1986.208
1036.103, 1983.426
1036.585, 1968.510
1037.067, 1956.514
1037.549, 1948.007
1038.031, 1939.570
1038.513, 1916.682
1038.996, 1916.393
1039.478, 1966.847
1039.960, 2009.224
1040.442, 2015.327
1040.924, 1999.892
1041.406, 1977.230
1041.888, 1947.999
1042.370, 1931.568
1042.853, 1931.154
1043.335, 1937.478
1043.817, 1955.189
1044.299, 1971.223
1044.781, 1983.600
1045.263, 1987.140
1045.745, 1970.911
1046.227, 1939.478
1046.709, 1929.737
1047.192, 1952.469
1047.674, 1964.234
1048.156, 1960.165
1048.638, 1952.555
1049.120, 1943.766
1049.602, 1937.954
1050.084, 1940.669
1050.566, 1948.908
1051.048, 1948.805
1051.531, 1937.438
1052.013, 1935.883
1052.495, 1947.153
1052.977, 1956.031
1053.459, 1957.180
1053.941, 1958.056
1054.423, 1966.424
1054.905, 1976.409
1055.388, 1969.808
1055.870, 1946.195
1056.352, 1930.482
1056.834, 1922.734
1057.316, 1934.004
1057.798, 1968.796
1058.280, 1996.410
1058.762, 1994.365
1059.245, 1975.868
1059.727, 1962.860
1060.209, 1955.051
1060.691, 1950.157
1061.173, 1948.345
1061.655, 1954.053
1062.137, 1966.943
1062.619, 1970.356
1063.101, 1954.363
1063.583, 1932.699
1064.066, 1922.287
1064.548, 1920.704
1065.030, 1922.678
1065.512, 1927.720
1065.994, 1938.127
1066.476, 1950.924
1066.958, 1948.795
1067.440, 1924.882
1067.923, 1901.997
1068.405, 1903.538
1068.887, 1917.124
1069.369, 1930.532
1069.851, 1939.738
1070.333, 1931.471
1070.815, 1913.012
1071.297, 1908.533
1071.780, 1924.005
1072.262, 1940.358
1072.744, 1945.715
1073.226, 1945.389
1073.708, 1941.193
1074.190, 1936.198
1074.672, 1932.958
1075.154, 1931.922
1075.636, 1936.386
1076.119, 1944.494
1076.601, 1942.541
1077.083, 1916.855
1077.565, 1898.852
1078.047, 1913.621
1078.529, 1931.880
1079.011, 1930.170
1079.493, 1922.067
1079.976, 1929.064
1080.458, 1947.048
1080.940, 1950.318
1081.422, 1925.369
1081.904, 1911.384
1082.386, 1926.296
1082.868, 1942.948
1083.350, 1956.981
1083.833, 1963.274
1084.315, 1951.006
1084.797, 1929.436
1085.279, 1923.346
1085.761, 1939.167
1086.243, 1945.243
1086.725, 1936.387
1087.207, 1925.632
1087.689, 1909.125
1088.172, 1899.649
1088.654, 1908.767
1089.136, 1924.428
1089.618, 1926.746
1090.100, 1916.322
1090.582, 1915.818
1091.064, 1928.454
1091.546, 1938.850
1092.028, 1945.828
1092.511, 1949.423
1092.993, 1949.346
1093.475, 1946.586
1093.957, 1941.473
1094.439, 1935.629
1094.921, 1935.222
1095.403, 1940.131
1095.885, 1945.865
1096.368, 1952.089
1096.850, 1950.698
1097.332, 1939.523
1097.814, 1931.380
1098.296, 1936.178
1098.778, 1946.079
1099.260, 1946.345
1099.742, 1941.735
1100.224, 1949.680
1100.707, 1964.906
1101.189, 1967.179
1101.671, 1955.672
1102.153, 1945.112
1102.635, 1942.450
1103.117, 1940.744
1103.599, 1934.176
1104.081, 1924.130
1104.563, 1907.588
1105.046, 1891.820
1105.528, 1888.579
1106.010, 1895.271
1106.492, 1905.359
1106.974, 1916.139
1107.456, 1921.156
1107.938, 1912.015
1108.420, 1904.788
1108.903, 1911.460
1109.385, 1920.121
1109.867, 1921.948
1110.349, 1919.885
1110.831, 1916.776
1111.313, 1914.061
1111.795, 1916.878
1112.277, 1931.736
1112.760, 1937.711
1113.242, 1917.695
1113.724, 1906.383
1114.206, 1927.217
1114.688, 1949.606
1115.170, 1948.227
1115.652, 1932.418
1116.134, 1923.284
1116.616, 1922.296
1117.099, 1914.855
1117.581, 1894.871
1118.063, 1886.880
1118.545, 1897.747
1119.027, 1911.546
1119.509, 1921.416
1119.991, 1927.675
1120.473, 1930.575
1120.955, 1930.464
1121.438, 1927.103
1121.920, 1920.786
1122.402, 1925.610
1122.884, 1941.774
1123.366, 1950.104
1123.848, 1944.996
1124.330, 1939.033
1124.812, 1942.306
1125.295, 1946.364
1125.777, 1931.618
1126.259, 1911.146
1126.741, 1919.713
1127.223, 1945.320
1127.705, 1956.255
1128.187, 1950.572
1128.669, 1944.004
1129.151, 1942.987
1129.634, 1942.029
1130.116, 1933.610
1130.598, 1927.423
1131.080, 1933.514
1131.562, 1944.017
1132.044, 1955.268
1132.526, 1962.631
1133.008, 1956.130
1133.490, 1936.755
1133.973, 1924.088
1134.455, 1924.268
1134.937, 1930.752
1135.419, 1952.819
1135.901, 1967.292
1136.383, 1954.963
1136.865, 1938.288
1137.347, 1940.963
1137.830, 1955.521
1138.312, 1961.694
1138.794, 1958.295
1139.276, 1952.977
1139.758, 1944.230
1140.240, 1937.354
1140.722, 1932.018
1141.204, 1932.943
1141.687, 1943.974
1142.169, 1958.393
1142.651, 1968.520
1143.133, 1973.979
1143.615, 1971.857
1144.097, 1963.046
1144.579, 1956.059
1145.061, 1951.690
1145.543, 1953.163
1146.026, 1960.419
1146.508, 1961.618
1146.990, 1947.711
1147.472, 1931.820
1147.954, 1932.141
1148.436, 1939.616
1148.918, 1941.143
1149.400, 1939.096
1149.882, 1936.460
1150.365, 1935.092
1150.847, 1939.204
1151.329, 1949.755
1151.811, 1958.497
1152.293, 1959.241
1152.775, 1959.783
1153.257, 1964.627
1153.739, 1969.698
1154.222, 1973.963
1154.704, 1975.601
1155.186, 1969.892
1155.668, 1958.987
1156.150, 1955.427
1156.632, 1963.482
1157.114, 1969.858
1157.596, 1972.835
1158.078, 1978.330
1158.561, 1993.107
1159.043, 1997.768
1159.525, 1975.417
1160.007, 1946.308
1160.489, 1944.196
1160.971, 1963.518
1161.453, 1963.171
1161.935, 1944.001
1162.417, 1935.659
1162.900, 1940.470
1163.382, 1954.034
1163.864, 1974.124
1164.346, 1988.260
1164.828, 1986.653
1165.310, 1978.781
1165.792, 1977.496
1166.274, 1978.560
1166.757, 1976.513
1167.239, 1971.005
1167.721, 1958.616
1168.203, 1942.963
1168.685, 1934.132
1169.167, 1935.030
1169.649, 1940.635
1170.131, 1951.938
1170.614, 1962.341
1171.096, 1969.726
1171.578, 1974.543
1172.060, 1977.282
1172.542, 1977.484
1173.024, 1972.178
1173.506, 1963.584
1173.988, 1963.492
1174.470, 1978.947
1174.953, 1974.414
1175.435, 1936.082
1175.917, 1916.555
1176.399, 1930.556
1176.881, 1947.291
1177.363, 1949.706
1177.845, 1949.295
1178.327, 1962.247
1178.809, 1982.272
1179.292, 1984.374
1179.774, 1973.218
1180.256, 1978.809
1180.738, 1996.630
1181.220, 1990.104
1181.702, 1955.918
1182.184, 1933.137
1182.666, 1944.096
1183.149, 1963.450
1183.631, 1971.946
1184.113, 1972.931
1184.595, 1964.487
1185.077, 1954.602
1185.559, 1954.844
1186.041, 1959.660
1186.523, 1953.703
1187.005, 1936.887
1187.488, 1933.304
1187.970, 1961.096
1188.452, 1978.229
1188.934, 1963.587
1189.416, 1960.180
1189.898, 1994.234
1190.380, 2022.198
1190.862, 2008.025
1191.344, 1973.612
1191.827, 1960.001
1192.309, 1965.625
1192.791, 1966.975
1193.273, 1963.970
1193.755, 1965.718
1194.237, 1972.901
1194.719, 1982.192
1195.201, 1992.011
1195.684, 1994.093
1196.166, 1980.903
1196.648, 1965.559
1197.130, 1965.141
1197.612, 1972.900
1198.094, 1983.014
1198.576, 1992.252
1199.058, 1993.778
1199.541, 1990.942
1200.023, 1995.743
1200.505, 2009.924
1200.987, 2014.883
1201.469, 1997.918
1201.951, 1980.839
1202.433, 1963.794
1202.915, 1954.411
1203.397, 1963.776
1203.880, 1974.326
1204.362, 1970.447
1204.844, 1959.741
1205.326, 1960.034
1205.808, 1971.384
1206.290, 1974.855
1206.772, 1969.824
1207.254, 1963.249
1207.736, 1955.903
1208.219, 1962.321
1208.701, 1987.200
1209.183, 2008.347
1209.665, 2007.642
1210.147, 1997.656
1210.629, 1993.888
1211.111, 1993.341
1211.593, 1989.725
1212.076, 1987.055
1212.558, 1991.911
1213.040, 2003.804
1213.522, 2022.659
1214.004, 2047.205
1214.486, 2061.057
1214.968, 2050.372
1215.450, 2042.062
1215.932, 2043.631
1216.415, 2047.601
1216.897, 2057.086
1217.379, 2060.393
1217.861, 2044.539
1218.343, 2020.874
1218.825, 2012.430
1219.307, 2018.148
1219.789, 2019.141
1220.271, 2015.316
1220.754, 2012.994
1221.236, 2012.895
1221.718, 2016.849
1222.200, 2025.222
1222.682, 2036.114
1223.164, 2049.272
1223.646, 2056.482
1224.128, 2043.863
1224.611, 2024.752
1225.093, 2012.455
1225.575, 2005.059
1226.057, 2000.707
1226.539, 1998.513
1227.021, 1996.495
1227.503, 1994.992
1227.985, 1999.756
1228.468, 2016.529
1228.950, 2029.960
1229.432, 2040.562
1229.914, 2043.457
1230.396, 2030.758
1230.878, 2024.998
1231.360, 2043.721
1231.842, 2066.879
1232.324, 2065.280
1232.807, 2045.408
1233.289, 2027.182
1233.771, 2013.235
1234.253, 2028.517
1234.735, 2063.336
1235.217, 2066.591
1235.699, 2034.940
1236.181, 2012.283
1236.663, 2019.006
1237.146, 2026.778
1237.628, 2009.463
1238.110, 1993.284
1238.592, 1990.347
1239.074, 2000.361
1239.556, 2040.838
1240.038, 2081.187
1240.520, 2074.078
1241.003, 2032.396
1241.485, 2017.923
1241.967, 2035.084
1242.449, 2053.111
1242.931, 2075.719
1243.413, 2079.251
1243.895, 2057.145
1244.377, 2050.104
1244.859, 2074.965
1245.342, 2095.813
1245.824, 2079.956
1246.306, 2054.973
1246.788, 2070.923
1247.270, 2100.193
1247.752, 2093.922
1248.234, 2069.301
1248.716, 2053.989
1249.198, 2047.773
1249.681, 2039.159
1250.163, 2027.278
1250.645, 2027.191
1251.127, 2050.047
1251.609, 2070.389
1252.091, 2090.271
1252.573, 2096.738
1253.055, 2080.815
1253.538, 2061.595
1254.020, 2050.674
1254.502, 2040.997
1254.984, 2021.243
1255.466, 1997.263
1255.948, 1992.040
1256.430, 2002.084
1256.912, 2012.192
1257.395, 2019.886
1257.877, 2015.640
1258.359, 2002.133
1258.841, 2000.054
1259.323, 2017.078
1259.805, 2028.676
1260.287, 2013.303
1260.769, 1997.815
1261.251, 1996.632
1261.734, 1999.069
1262.216, 2002.239
1262.698, 2002.468
1263.180, 1993.830
1263.662, 1981.250
1264.144, 1974.111
1264.626, 1972.445
1265.108, 1978.665
1265.590, 1993.771
1266.073, 2001.403
1266.555, 2000.506
1267.037, 1994.100
1267.519, 1983.882
1268.001, 1978.833
1268.483, 1984.418
1268.965, 1993.775
1269.447, 2004.417
1269.930, 2010.629
1270.412, 2000.794
##END=



