##NAMES=Cobaltite
##RRUFFID=R060907
##IDEAL CHEMISTRY=Co^3+^(AsS)^3-^
##LOCALITY=Espanola, Ontario, Canada
##OWNER=RRUFF
##SOURCE=Royal Ontario Museum
##DESCRIPTION=Group of sharp metallic cubes with a thin surface alteration, broken crystals have fresher surfaces.
##STATUS=The identification of this mineral has been confirmed by X-ray diffraction and chemical analysis
##URL=rruff.info/R060907
##MEASURED CHEMISTRY=(Co_0.55_Fe_0.24_Ni_0.21_)_Î£=1_As_0.94_S_1.06_
138.8792, 1681.761
139.3613, 1695.861
139.8434, 1712.580
140.3256, 1735.967
140.8077, 1755.138
141.2898, 1757.225
141.7719, 1733.521
142.2540, 1716.102
142.7361, 1713.626
143.2183, 1727.730
143.7004, 1739.131
144.1825, 1746.708
144.6646, 1752.381
145.1467, 1758.024
145.6288, 1760.302
146.1110, 1767.444
146.5931, 1784.281
147.0752, 1820.328
147.5573, 1840.193
148.0394, 1833.503
148.5215, 1812.085
149.0037, 1801.193
149.4858, 1817.974
149.9679, 1830.134
150.4500, 1825.382
150.9321, 1779.865
151.4142, 1750.468
151.8964, 1744.641
152.3785, 1757.133
152.8606, 1768.340
153.3427, 1778.286
153.8248, 1786.276
154.3069, 1792.001
154.7890, 1792.395
155.2712, 1794.077
155.7533, 1802.317
156.2354, 1815.482
156.7175, 1818.630
157.1996, 1795.835
157.6817, 1768.365
158.1639, 1752.453
158.6460, 1759.575
159.1281, 1771.448
159.6102, 1783.657
160.0923, 1795.958
160.5744, 1807.090
161.0566, 1814.536
161.5387, 1821.023
162.0208, 1829.655
162.5029, 1847.866
162.9850, 1863.417
163.4671, 1869.071
163.9493, 1862.953
164.4314, 1854.567
164.9135, 1848.631
165.3956, 1843.396
165.8777, 1836.040
166.3598, 1817.017
166.8420, 1800.552
167.3241, 1800.451
167.8062, 1824.886
168.2883, 1846.228
168.7704, 1840.100
169.2525, 1816.273
169.7346, 1798.847
170.2168, 1809.240
170.6989, 1829.161
171.1810, 1840.044
171.6631, 1836.517
172.1452, 1826.603
172.6273, 1814.293
173.1095, 1800.534
173.5916, 1788.817
174.0737, 1780.720
174.5558, 1776.215
175.0379, 1775.854
175.5201, 1782.340
176.0022, 1790.055
176.4843, 1792.375
176.9664, 1789.617
177.4485, 1784.701
177.9306, 1777.251
178.4128, 1769.301
178.8949, 1765.050
179.3770, 1766.078
179.8591, 1771.442
180.3412, 1783.061
180.8233, 1801.186
181.3055, 1814.880
181.7876, 1808.920
182.2697, 1788.883
182.7518, 1773.296
183.2339, 1769.645
183.7160, 1775.333
184.1982, 1786.320
184.6803, 1803.238
185.1624, 1820.462
185.6445, 1833.686
186.1266, 1842.506
186.6087, 1845.262
187.0908, 1835.397
187.5730, 1817.604
188.0551, 1811.723
188.5372, 1819.775
189.0193, 1833.761
189.5014, 1844.163
189.9835, 1851.102
190.4657, 1855.151
190.9478, 1854.898
191.4299, 1851.197
191.9120, 1850.830
192.3941, 1855.161
192.8762, 1860.761
193.3584, 1860.495
193.8405, 1854.075
194.3226, 1848.807
194.8047, 1851.048
195.2868, 1860.332
195.7689, 1863.309
196.2511, 1856.849
196.7332, 1846.134
197.2153, 1843.633
197.6974, 1850.161
198.1795, 1859.113
198.6616, 1867.209
199.1438, 1874.598
199.6259, 1879.696
200.1080, 1881.779
200.5901, 1881.820
201.0722, 1882.243
201.5543, 1882.662
202.0364, 1884.874
202.5186, 1892.639
203.0007, 1907.608
203.4828, 1913.582
203.9649, 1904.655
204.4470, 1885.339
204.9291, 1877.580
205.4113, 1883.936
205.8934, 1894.454
206.3755, 1900.602
206.8576, 1900.819
207.3397, 1904.584
207.8218, 1915.553
208.3040, 1932.073
208.7861, 1940.252
209.2682, 1937.145
209.7503, 1931.517
210.2324, 1932.189
210.7145, 1941.664
211.1967, 1948.505
211.6788, 1949.520
212.1609, 1945.158
212.6430, 1944.419
213.1251, 1949.528
213.6072, 1955.026
214.0894, 1953.883
214.5715, 1941.758
215.0536, 1935.319
215.5357, 1939.761
216.0178, 1955.365
216.4999, 1969.534
216.9820, 1984.140
217.4642, 1994.677
217.9463, 1994.895
218.4284, 1980.469
218.9105, 1965.736
219.3926, 1953.972
219.8747, 1945.402
220.3569, 1938.332
220.8390, 1932.866
221.3211, 1928.847
221.8032, 1926.243
222.2853, 1926.222
222.7674, 1925.337
223.2496, 1922.189
223.7317, 1916.074
224.2138, 1911.916
224.6959, 1908.709
225.1780, 1908.314
225.6601, 1914.019
226.1423, 1928.958
226.6244, 1944.084
227.1065, 1956.575
227.5886, 1966.002
228.0707, 1975.628
228.5528, 1988.641
229.0350, 1999.825
229.5171, 1999.368
229.9992, 1978.820
230.4813, 1961.020
230.9634, 1953.818
231.4455, 1959.966
231.9276, 1966.551
232.4098, 1974.191
232.8919, 1981.979
233.3740, 1987.635
233.8561, 1988.817
234.3382, 1991.862
234.8203, 2000.356
235.3025, 2018.522
235.7846, 2028.199
236.2667, 2025.624
236.7488, 2016.357
237.2309, 2011.092
237.7130, 2010.831
238.1952, 2013.187
238.6773, 2018.861
239.1594, 2032.451
239.6415, 2035.254
240.1236, 2020.105
240.6057, 1997.082
241.0879, 1987.807
241.5700, 2000.656
242.0521, 2014.493
242.5342, 2021.505
243.0163, 2019.415
243.4984, 2016.380
243.9806, 2011.915
244.4627, 2006.603
244.9448, 2001.433
245.4269, 1994.879
245.9090, 1990.641
246.3911, 1991.219
246.8732, 2001.258
247.3554, 2003.585
247.8375, 1995.724
248.3196, 1980.961
248.8017, 1966.238
249.2838, 1950.283
249.7659, 1936.651
250.2481, 1927.106
250.7302, 1923.555
251.2123, 1919.285
251.6944, 1914.466
252.1765, 1909.029
252.6586, 1902.101
253.1408, 1891.395
253.6229, 1883.234
254.1050, 1881.446
254.5871, 1890.856
255.0692, 1892.625
255.5513, 1882.950
256.0334, 1867.466
256.5156, 1859.408
256.9977, 1863.997
257.4798, 1866.537
257.9619, 1859.424
258.4440, 1836.768
258.9261, 1822.802
259.4083, 1820.029
259.8904, 1824.346
260.3725, 1826.662
260.8546, 1825.454
261.3367, 1825.222
261.8188, 1829.018
262.3010, 1839.845
262.7831, 1843.359
263.2652, 1836.950
263.7473, 1825.007
264.2294, 1816.221
264.7115, 1811.323
265.1937, 1808.044
265.6758, 1805.420
266.1579, 1803.262
266.6400, 1803.512
267.1221, 1808.412
267.6042, 1813.810
268.0864, 1810.884
268.5685, 1797.369
269.0506, 1781.854
269.5327, 1766.340
270.0148, 1749.667
270.4969, 1740.926
270.9791, 1742.475
271.4612, 1749.260
271.9433, 1752.997
272.4254, 1753.873
272.9075, 1751.098
273.3896, 1741.006
273.8718, 1721.797
274.3539, 1717.723
274.8360, 1734.886
275.3181, 1758.159
275.8002, 1760.512
276.2823, 1737.896
276.7645, 1715.280
277.2466, 1701.654
277.7287, 1697.252
278.2108, 1697.838
278.6929, 1704.896
279.1750, 1713.814
279.6572, 1717.942
280.1393, 1716.951
280.6214, 1713.973
281.1035, 1710.859
281.5856, 1707.325
282.0677, 1698.209
282.5499, 1682.440
283.0320, 1664.048
283.5141, 1646.406
283.9962, 1629.367
284.4783, 1618.411
284.9604, 1617.883
285.4425, 1626.061
285.9247, 1631.595
286.4068, 1634.602
286.8889, 1634.580
287.3710, 1627.445
287.8531, 1613.985
288.3352, 1607.513
288.8174, 1617.455
289.2995, 1638.011
289.7816, 1645.537
290.2637, 1638.720
290.7458, 1627.862
291.2279, 1626.096
291.7101, 1631.183
292.1922, 1628.240
292.6743, 1604.905
293.1564, 1561.431
293.6385, 1577.274
294.1206, 1587.228
294.6028, 1591.610
295.0849, 1573.730
295.5670, 1584.596
296.0491, 1583.942
296.5312, 1582.816
297.0133, 1597.728
297.4955, 1583.086
297.9776, 1597.744
298.4597, 1600.706
298.9418, 1609.021
299.4239, 1605.744
299.9060, 1606.048
300.3882, 1617.947
300.8703, 1623.426
301.3524, 1618.814
301.8345, 1603.263
302.3166, 1592.937
302.7987, 1590.086
303.2809, 1590.542
303.7630, 1586.464
304.2451, 1572.161
304.7272, 1558.421
305.2093, 1560.488
305.6914, 1574.851
306.1736, 1585.570
306.6557, 1575.783
307.1378, 1559.498
307.6199, 1555.173
308.1020, 1571.604
308.5841, 1589.662
309.0663, 1592.999
309.5484, 1585.457
310.0305, 1577.908
310.5126, 1575.310
310.9947, 1575.720
311.4768, 1578.348
311.9590, 1584.387
312.4411, 1588.620
312.9232, 1584.195
313.4053, 1575.629
313.8874, 1572.265
314.3695, 1587.454
314.8517, 1602.623
315.3337, 1604.294
315.8159, 1587.890
316.2980, 1570.947
316.7801, 1557.529
317.2622, 1548.887
317.7443, 1546.778
318.2264, 1560.159
318.7086, 1573.361
319.1907, 1577.875
319.6728, 1571.366
320.1549, 1567.547
320.6370, 1573.383
321.1191, 1582.952
321.6013, 1589.668
322.0834, 1588.577
322.5655, 1587.603
323.0476, 1588.348
323.5297, 1590.804
324.0118, 1596.157
324.4940, 1606.774
324.9761, 1619.241
325.4582, 1630.710
325.9403, 1644.734
326.4224, 1653.564
326.9045, 1653.448
327.3867, 1644.655
327.8688, 1639.354
328.3509, 1639.760
328.8330, 1642.418
329.3151, 1645.276
329.7972, 1648.558
330.2794, 1651.751
330.7615, 1654.545
331.2436, 1657.182
331.7257, 1661.222
332.2078, 1670.781
332.6899, 1677.177
333.1721, 1674.802
333.6542, 1656.429
334.1363, 1644.464
334.6184, 1639.549
335.1005, 1641.399
335.5826, 1650.737
336.0648, 1672.818
336.5469, 1692.271
337.0290, 1701.642
337.5111, 1698.238
337.9932, 1695.457
338.4753, 1694.106
338.9575, 1692.415
339.4396, 1685.515
339.9217, 1670.927
340.4038, 1661.323
340.8859, 1663.419
341.3680, 1677.149
341.8502, 1687.960
342.3323, 1696.035
342.8144, 1700.261
343.2965, 1697.095
343.7786, 1686.368
344.2607, 1677.566
344.7429, 1673.866
345.2250, 1674.549
345.7071, 1677.297
346.1892, 1682.521
346.6713, 1687.130
347.1534, 1687.352
347.6355, 1684.039
348.1176, 1681.494
348.5998, 1680.033
349.0819, 1680.570
349.5640, 1686.120
350.0461, 1696.422
350.5282, 1706.490
351.0103, 1711.642
351.4925, 1713.926
351.9746, 1717.953
352.4567, 1725.329
352.9388, 1733.281
353.4209, 1740.606
353.9030, 1746.398
354.3852, 1747.275
354.8673, 1737.143
355.3494, 1722.869
355.8315, 1712.273
356.3136, 1706.878
356.7957, 1703.672
357.2779, 1701.861
357.7600, 1700.669
358.2421, 1698.572
358.7242, 1694.344
359.2063, 1689.369
359.6884, 1684.913
360.1706, 1681.234
360.6527, 1676.167
361.1348, 1668.754
361.6169, 1659.294
362.0990, 1648.257
362.5811, 1629.628
363.0633, 1615.073
363.5454, 1610.125
364.0275, 1614.583
364.5096, 1620.229
364.9917, 1627.345
365.4738, 1633.526
365.9560, 1637.078
366.4381, 1637.941
366.9202, 1635.909
367.4023, 1628.897
367.8844, 1618.209
368.3665, 1610.431
368.8487, 1607.375
369.3308, 1606.146
369.8129, 1605.740
370.2950, 1607.760
370.7771, 1607.694
371.2592, 1603.543
371.7414, 1597.844
372.2235, 1596.161
372.7056, 1601.323
373.1877, 1605.938
373.6698, 1606.886
374.1519, 1603.106
374.6341, 1602.209
375.1162, 1606.131
375.5983, 1610.401
376.0804, 1608.253
376.5625, 1597.646
377.0446, 1589.155
377.5267, 1586.152
378.0089, 1587.922
378.4910, 1589.168
378.9731, 1589.933
379.4552, 1590.139
379.9373, 1590.068
380.4194, 1589.696
380.9016, 1586.851
381.3837, 1578.984
381.8658, 1570.838
382.3479, 1575.339
382.8300, 1591.943
383.3121, 1608.030
383.7943, 1614.516
384.2764, 1613.736
384.7585, 1610.843
385.2406, 1605.375
385.7227, 1601.425
386.2048, 1607.551
386.6870, 1620.015
387.1691, 1627.803
387.6512, 1617.371
388.1333, 1602.924
388.6154, 1603.953
389.0975, 1622.442
389.5797, 1639.162
390.0618, 1636.472
390.5439, 1623.999
391.0260, 1614.896
391.5081, 1617.707
391.9902, 1622.256
392.4724, 1623.198
392.9545, 1620.835
393.4366, 1617.651
393.9187, 1614.876
394.4008, 1611.708
394.8829, 1607.457
395.3651, 1601.232
395.8472, 1595.069
396.3293, 1587.334
396.8114, 1579.850
397.2935, 1577.434
397.7756, 1588.645
398.2578, 1598.426
398.7399, 1600.817
399.2220, 1592.950
399.7041, 1583.920
400.1862, 1570.946
400.6683, 1558.048
401.1505, 1550.365
401.6326, 1549.266
402.1147, 1551.588
402.5968, 1558.796
403.0789, 1570.954
403.5610, 1574.576
404.0432, 1564.353
404.5253, 1553.763
405.0074, 1556.976
405.4895, 1579.828
405.9716, 1589.881
406.4537, 1578.483
406.9359, 1554.476
407.4180, 1543.638
407.9001, 1547.303
408.3822, 1555.107
408.8643, 1562.604
409.3464, 1569.544
409.8285, 1572.700
410.3106, 1570.712
410.7928, 1568.656
411.2749, 1575.807
411.7570, 1590.202
412.2391, 1601.059
412.7212, 1602.645
413.2033, 1598.078
413.6855, 1592.146
414.1676, 1584.888
414.6497, 1577.471
415.1318, 1568.183
415.6139, 1559.966
416.0960, 1558.051
416.5782, 1567.520
417.0603, 1578.919
417.5424, 1585.223
418.0245, 1587.258
418.5066, 1587.970
418.9887, 1587.855
419.4709, 1587.569
419.9530, 1588.196
420.4351, 1591.307
420.9172, 1591.216
421.3993, 1576.684
421.8814, 1559.882
422.3636, 1558.706
422.8457, 1602.759
423.3278, 1637.921
423.8099, 1643.255
424.2920, 1614.872
424.7741, 1595.754
425.2563, 1594.551
425.7384, 1598.686
426.2205, 1599.328
426.7026, 1593.183
427.1847, 1589.172
427.6668, 1588.466
428.1490, 1590.409
428.6311, 1592.913
429.1132, 1596.659
429.5953, 1599.542
430.0774, 1600.631
430.5595, 1599.931
431.0417, 1596.088
431.5238, 1586.704
432.0059, 1578.759
432.4880, 1585.898
432.9701, 1608.446
433.4522, 1625.471
433.9344, 1628.294
434.4165, 1620.876
434.8986, 1614.628
435.3807, 1609.556
435.8628, 1606.222
436.3449, 1606.873
436.8271, 1609.618
437.3092, 1609.342
437.7913, 1603.604
438.2734, 1597.377
438.7555, 1595.205
439.2376, 1596.849
439.7197, 1601.598
440.2018, 1616.000
440.6840, 1629.050
441.1661, 1628.374
441.6482, 1610.962
442.1303, 1596.326
442.6124, 1597.977
443.0945, 1606.655
443.5767, 1611.757
444.0588, 1604.438
444.5409, 1599.073
445.0230, 1602.565
445.5051, 1613.436
445.9872, 1619.660
446.4694, 1616.836
446.9515, 1610.852
447.4336, 1604.121
447.9157, 1592.345
448.3978, 1587.732
448.8799, 1593.802
449.3621, 1605.677
449.8442, 1614.182
450.3263, 1616.352
450.8084, 1621.786
451.2905, 1637.777
451.7726, 1663.723
452.2548, 1663.203
452.7369, 1625.406
453.2190, 1588.705
453.7011, 1596.150
454.1832, 1648.344
454.6653, 1681.740
455.1475, 1682.609
455.6296, 1663.779
456.1117, 1646.879
456.5938, 1632.279
457.0759, 1622.433
457.5580, 1622.470
458.0402, 1627.659
458.5223, 1627.483
459.0044, 1620.700
459.4865, 1614.971
459.9686, 1617.621
460.4507, 1625.885
460.9329, 1635.321
461.4150, 1650.097
461.8971, 1660.061
462.3792, 1653.923
462.8613, 1635.276
463.3434, 1621.663
463.8256, 1624.553
464.3077, 1632.651
464.7898, 1639.386
465.2719, 1644.745
465.7540, 1646.253
466.2361, 1639.785
466.7183, 1630.056
467.2004, 1624.322
467.6825, 1625.288
468.1646, 1627.804
468.6467, 1631.016
469.1288, 1634.916
469.6110, 1640.098
470.0930, 1647.876
470.5752, 1655.050
471.0573, 1659.125
471.5394, 1659.229
472.0215, 1659.962
472.5036, 1662.679
472.9857, 1665.057
473.4679, 1661.270
473.9500, 1651.021
474.4321, 1640.850
474.9142, 1633.314
475.3963, 1628.262
475.8784, 1624.582
476.3606, 1622.190
476.8427, 1623.080
477.3248, 1633.782
477.8069, 1648.881
478.2890, 1655.929
478.7711, 1648.194
479.2533, 1637.166
479.7354, 1631.844
480.2175, 1631.917
480.6996, 1636.452
481.1817, 1651.933
481.6638, 1666.685
482.1460, 1672.038
482.6281, 1666.001
483.1102, 1657.453
483.5923, 1643.801
484.0744, 1631.499
484.5565, 1626.871
485.0387, 1637.367
485.5208, 1648.463
486.0029, 1660.895
486.4850, 1672.992
486.9671, 1676.587
487.4492, 1663.541
487.9314, 1652.467
488.4135, 1651.626
488.8956, 1663.169
489.3777, 1677.867
489.8598, 1701.106
490.3419, 1719.429
490.8241, 1709.490
491.3062, 1667.613
491.7883, 1640.529
492.2704, 1644.425
492.7525, 1667.586
493.2346, 1680.094
493.7168, 1681.900
494.1989, 1677.495
494.6810, 1666.620
495.1631, 1652.196
495.6452, 1639.130
496.1273, 1627.604
496.6095, 1620.026
497.0916, 1621.201
497.5737, 1627.581
498.0558, 1633.413
498.5379, 1635.684
499.0201, 1637.348
499.5022, 1640.100
499.9843, 1643.798
500.4664, 1647.332
500.9485, 1646.678
501.4306, 1648.398
501.9127, 1657.592
502.3948, 1682.917
502.8770, 1698.570
503.3591, 1700.066
503.8412, 1691.847
504.3233, 1677.949
504.8054, 1650.249
505.2875, 1630.689
505.7697, 1623.511
506.2518, 1627.979
506.7339, 1641.131
507.2160, 1666.537
507.6981, 1689.713
508.1802, 1699.815
508.6624, 1697.253
509.1445, 1695.850
509.6266, 1697.031
510.1087, 1697.683
510.5908, 1691.750
511.0729, 1681.055
511.5551, 1673.241
512.0372, 1671.709
512.5193, 1674.268
513.0014, 1679.593
513.4835, 1687.115
513.9656, 1693.398
514.4478, 1693.375
514.9299, 1692.827
515.4120, 1698.833
515.8941, 1716.291
516.3762, 1726.938
516.8583, 1714.265
517.3405, 1693.343
517.8226, 1683.197
518.3047, 1702.048
518.7868, 1716.492
519.2689, 1715.438
519.7510, 1701.567
520.2332, 1696.421
520.7153, 1707.040
521.1974, 1717.174
521.6795, 1718.258
522.1616, 1707.459
522.6437, 1698.673
523.1259, 1690.874
523.6080, 1687.102
524.0901, 1694.054
524.5722, 1712.089
525.0543, 1727.108
525.5364, 1737.230
526.0186, 1740.661
526.5007, 1726.462
526.9828, 1697.418
527.4649, 1677.127
527.9470, 1689.884
528.4291, 1717.286
528.9113, 1734.923
529.3934, 1739.961
529.8755, 1737.836
530.3576, 1729.264
530.8397, 1716.659
531.3218, 1702.798
531.8040, 1681.105
532.2861, 1666.224
532.7682, 1667.716
533.2503, 1680.983
533.7324, 1689.990
534.2145, 1687.736
534.6967, 1685.394
535.1788, 1687.072
535.6609, 1693.710
536.1430, 1699.636
536.6251, 1705.792
537.1072, 1709.947
537.5894, 1708.295
538.0715, 1698.973
538.5536, 1695.216
539.0357, 1699.962
539.5178, 1709.937
539.9999, 1720.749
540.4821, 1731.958
540.9642, 1737.856
541.4463, 1731.679
541.9284, 1719.164
542.4105, 1711.313
542.8926, 1708.213
543.3748, 1709.219
543.8569, 1716.751
544.3390, 1726.948
544.8211, 1735.297
545.3032, 1740.711
545.7853, 1744.454
546.2675, 1748.198
546.7495, 1750.548
547.2316, 1749.123
547.7137, 1740.126
548.1959, 1730.572
548.6780, 1721.928
549.1601, 1714.310
549.6422, 1707.455
550.1243, 1696.917
550.6064, 1692.461
551.0886, 1702.042
551.5707, 1732.460
552.0528, 1751.100
552.5349, 1756.107
553.0170, 1751.963
553.4991, 1741.707
553.9813, 1725.548
554.4634, 1713.393
554.9455, 1708.710
555.4276, 1709.017
555.9097, 1709.685
556.3918, 1710.922
556.8740, 1713.961
557.3561, 1720.611
557.8382, 1728.955
558.3203, 1738.923
558.8024, 1751.089
559.2845, 1756.639
559.7667, 1742.800
560.2488, 1723.760
560.7309, 1713.269
561.2130, 1724.977
561.6951, 1732.804
562.1772, 1728.290
562.6594, 1716.576
563.1415, 1710.814
563.6236, 1714.458
564.1057, 1719.489
564.5878, 1724.552
565.0699, 1729.515
565.5521, 1731.102
566.0342, 1728.085
566.5163, 1725.020
566.9984, 1725.733
567.4805, 1729.973
567.9626, 1734.696
568.4448, 1740.655
568.9269, 1743.411
569.4090, 1733.408
569.8911, 1715.182
570.3732, 1701.567
570.8553, 1697.502
571.3375, 1700.286
571.8196, 1711.221
572.3017, 1727.984
572.7838, 1741.115
573.2659, 1744.267
573.7480, 1744.023
574.2302, 1744.099
574.7123, 1745.073
575.1944, 1745.367
575.6765, 1742.057
576.1586, 1739.672
576.6407, 1741.802
577.1229, 1749.958
577.6050, 1760.847
578.0871, 1778.677
578.5692, 1796.087
579.0513, 1793.725
579.5334, 1768.008
580.0156, 1745.769
580.4977, 1738.369
580.9798, 1741.389
581.4619, 1740.652
581.9440, 1736.205
582.4261, 1729.080
582.9083, 1713.909
583.3904, 1698.618
583.8725, 1698.224
584.3546, 1717.060
584.8367, 1735.237
585.3188, 1739.604
585.8010, 1735.306
586.2831, 1728.854
586.7652, 1711.499
587.2473, 1704.045
587.7294, 1721.911
588.2115, 1755.245
588.6937, 1770.968
589.1758, 1754.097
589.6579, 1737.255
590.1400, 1730.578
590.6221, 1734.360
591.1042, 1734.509
591.5864, 1729.316
592.0685, 1725.083
592.5506, 1727.316
593.0327, 1735.636
593.5148, 1744.503
593.9969, 1753.772
594.4791, 1762.209
594.9612, 1768.963
595.4433, 1773.738
595.9254, 1775.479
596.4075, 1771.794
596.8896, 1767.159
597.3718, 1766.652
597.8539, 1768.617
598.3360, 1767.766
598.8181, 1755.112
599.3002, 1744.793
599.7823, 1745.424
600.2645, 1759.231
600.7466, 1770.585
601.2287, 1779.621
601.7108, 1784.619
602.1929, 1783.218
602.6750, 1771.027
603.1572, 1765.370
603.6393, 1768.448
604.1214, 1775.895
604.6035, 1781.858
605.0856, 1786.342
605.5677, 1789.121
606.0499, 1790.718
606.5320, 1789.985
607.0141, 1781.381
607.4962, 1767.133
607.9783, 1758.027
608.4604, 1764.255
608.9425, 1776.414
609.4246, 1788.238
609.9067, 1799.399
610.3889, 1802.940
610.8710, 1781.725
611.3531, 1760.450
611.8352, 1758.748
612.3173, 1800.368
612.7994, 1825.919
613.2816, 1824.876
613.7637, 1811.529
614.2458, 1805.025
614.7279, 1807.661
615.2100, 1810.692
615.6921, 1812.932
616.1743, 1814.091
616.6564, 1813.058
617.1385, 1809.840
617.6206, 1805.420
618.1027, 1797.815
618.5848, 1790.020
619.0670, 1788.188
619.5491, 1792.295
620.0312, 1799.633
620.5133, 1811.881
620.9954, 1824.537
621.4775, 1833.814
621.9597, 1840.214
622.4418, 1839.408
622.9239, 1816.785
623.4060, 1791.345
623.8881, 1786.151
624.3702, 1832.627
624.8524, 1859.300
625.3345, 1850.314
625.8166, 1819.214
626.2987, 1805.130
626.7808, 1811.470
627.2629, 1820.906
627.7451, 1826.955
628.2272, 1830.734
628.7093, 1838.925
629.1914, 1851.547
629.6735, 1860.714
630.1556, 1857.183
630.6378, 1847.337
631.1199, 1840.718
631.6020, 1838.584
632.0841, 1838.409
632.5662, 1841.888
633.0483, 1844.990
633.5305, 1843.083
634.0126, 1824.515
634.4947, 1814.794
634.9768, 1826.402
635.4589, 1848.277
635.9410, 1859.301
636.4232, 1854.881
636.9053, 1848.121
637.3874, 1840.774
637.8695, 1833.497
638.3516, 1828.967
638.8337, 1826.994
639.3159, 1828.940
639.7980, 1838.976
640.2801, 1853.433
640.7622, 1860.503
641.2443, 1859.959
641.7264, 1857.584
642.2086, 1859.486
642.6907, 1861.589
643.1728, 1858.201
643.6549, 1845.693
644.1370, 1835.083
644.6191, 1832.328
645.1013, 1833.459
645.5834, 1833.400
646.0655, 1826.033
646.5476, 1824.667
647.0297, 1832.979
647.5118, 1847.430
647.9940, 1859.522
648.4761, 1870.789
648.9582, 1873.133
649.4403, 1857.394
649.9224, 1831.566
650.4045, 1829.979
650.8867, 1851.952
651.3688, 1874.928
651.8509, 1882.766
652.3330, 1881.781
652.8151, 1881.966
653.2972, 1884.566
653.7794, 1881.508
654.2615, 1854.718
654.7436, 1827.337
655.2257, 1821.686
655.7078, 1864.343
656.1899, 1891.732
656.6721, 1885.475
657.1542, 1863.980
657.6363, 1850.528
658.1184, 1848.510
658.6005, 1844.644
659.0826, 1834.067
659.5648, 1822.049
660.0469, 1826.734
660.5290, 1847.832
661.0111, 1863.351
661.4932, 1857.457
661.9753, 1841.447
662.4575, 1835.078
662.9396, 1837.413
663.4217, 1841.292
663.9038, 1842.631
664.3859, 1843.521
664.8680, 1847.089
665.3502, 1854.976
665.8323, 1856.659
666.3144, 1840.254
666.7965, 1822.880
667.2786, 1817.595
667.7607, 1831.803
668.2429, 1842.061
668.7250, 1846.317
669.2071, 1848.283
669.6892, 1854.634
670.1713, 1865.369
670.6534, 1870.042
671.1355, 1863.671
671.6176, 1853.993
672.0997, 1856.727
672.5818, 1867.694
673.0640, 1873.493
673.5461, 1859.107
674.0282, 1844.247
674.5103, 1846.136
674.9924, 1861.865
675.4745, 1873.349
675.9567, 1876.301
676.4388, 1872.415
676.9209, 1858.685
677.4030, 1832.880
677.8851, 1821.280
678.3672, 1830.320
678.8494, 1842.534
679.3315, 1843.763
679.8136, 1833.703
680.2957, 1829.744
680.7778, 1833.310
681.2599, 1840.688
681.7421, 1851.743
682.2242, 1863.030
682.7063, 1865.409
683.1884, 1852.893
683.6705, 1838.988
684.1526, 1829.753
684.6348, 1826.604
685.1169, 1831.817
685.5990, 1859.140
686.0811, 1880.439
686.5632, 1885.694
687.0453, 1879.718
687.5275, 1876.714
688.0096, 1878.314
688.4917, 1879.665
688.9738, 1879.979
689.4559, 1878.758
689.9380, 1870.075
690.4202, 1853.676
690.9023, 1842.431
691.3844, 1852.294
691.8665, 1870.907
692.3486, 1875.154
692.8307, 1863.572
693.3129, 1852.662
693.7950, 1854.994
694.2771, 1861.475
694.7592, 1863.460
695.2413, 1854.996
695.7234, 1853.414
696.2056, 1871.106
696.6877, 1890.442
697.1698, 1893.514
697.6519, 1873.047
698.1340, 1859.606
698.6161, 1857.577
699.0983, 1861.990
699.5804, 1866.755
700.0625, 1871.272
700.5446, 1870.115
701.0267, 1857.360
701.5089, 1843.720
701.9910, 1845.285
702.4731, 1857.118
702.9552, 1865.462
703.4373, 1858.664
703.9194, 1851.710
704.4016, 1853.959
704.8837, 1864.407
705.3658, 1868.396
705.8479, 1854.790
706.3300, 1847.439
706.8121, 1860.936
707.2943, 1896.099
707.7764, 1898.504
708.2585, 1860.702
708.7406, 1826.177
709.2227, 1840.993
709.7048, 1886.925
710.1870, 1902.224
710.6691, 1879.647
711.1512, 1856.029
711.6333, 1866.146
712.1154, 1889.453
712.5975, 1902.138
713.0797, 1895.242
713.5618, 1886.622
714.0439, 1880.594
714.5260, 1864.820
715.0081, 1879.073
715.4902, 1887.436
715.9724, 1890.228
716.4545, 1870.758
716.9366, 1880.034
717.4187, 1877.790
717.9008, 1875.073
718.3829, 1888.396
718.8651, 1872.163
719.3472, 1885.231
719.8293, 1886.603
720.3114, 1893.328
720.7935, 1888.461
721.2756, 1887.174
721.7578, 1897.483
722.2399, 1901.371
722.7220, 1895.170
723.2041, 1902.235
723.6862, 1882.284
724.1683, 1874.594
724.6505, 1874.555
725.1326, 1882.098
725.6147, 1883.345
726.0968, 1876.947
726.5789, 1869.854
727.0610, 1865.696
727.5432, 1864.773
728.0253, 1869.773
728.5074, 1880.920
728.9895, 1891.209
729.4716, 1895.885
729.9537, 1896.193
730.4359, 1892.133
730.9180, 1881.169
731.4001, 1874.679
731.8822, 1884.304
732.3643, 1894.750
732.8464, 1889.927
733.3285, 1855.457
733.8106, 1840.802
734.2927, 1854.723
734.7748, 1879.698
735.2570, 1889.066
735.7391, 1884.524
736.2212, 1885.786
736.7033, 1901.181
737.1854, 1916.359
737.6675, 1908.856
738.1497, 1888.158
738.6318, 1873.851
739.1139, 1883.351
739.5960, 1890.951
740.0781, 1880.357
740.5602, 1859.220
741.0424, 1852.247
741.5245, 1870.858
742.0066, 1887.828
742.4887, 1896.574
742.9708, 1898.272
743.4529, 1896.767
743.9351, 1881.202
744.4172, 1894.388
744.8993, 1901.685
745.3814, 1903.410
745.8635, 1882.873
746.3456, 1891.083
746.8278, 1887.772
747.3099, 1883.989
747.7920, 1896.244
748.2741, 1878.945
748.7562, 1890.946
749.2383, 1891.251
749.7205, 1896.909
750.2026, 1890.976
750.6847, 1888.623
751.1668, 1897.865
751.6489, 1900.686
752.1310, 1893.419
752.6132, 1899.417
753.0953, 1881.713
753.5774, 1884.808
754.0595, 1896.877
754.5416, 1890.192
755.0237, 1896.402
755.5059, 1897.701
755.9880, 1876.681
756.4701, 1894.476
756.9522, 1895.485
757.4343, 1879.258
757.9164, 1895.723
758.3986, 1881.872
758.8807, 1892.839
759.3628, 1908.929
759.8449, 1916.485
760.3270, 1911.564
760.8091, 1902.630
761.2913, 1903.989
761.7734, 1912.901
762.2555, 1917.652
762.7376, 1913.732
763.2197, 1907.280
763.7018, 1901.507
764.1840, 1897.555
764.6661, 1897.349
765.1482, 1906.985
765.6303, 1914.094
766.1124, 1912.456
766.5945, 1906.886
767.0767, 1908.403
767.5588, 1918.876
768.0409, 1930.795
768.5230, 1943.961
769.0051, 1955.472
769.4872, 1955.908
769.9694, 1947.020
770.4515, 1939.969
770.9336, 1943.713
771.4157, 1949.396
771.8978, 1948.395
772.3799, 1942.004
772.8621, 1935.526
773.3442, 1931.087
773.8263, 1926.607
774.3084, 1919.752
774.7905, 1911.393
775.2726, 1910.256
775.7548, 1918.738
776.2369, 1927.757
776.7190, 1933.532
777.2011, 1936.271
777.6832, 1935.192
778.1653, 1930.665
778.6475, 1927.305
779.1296, 1930.266
779.6117, 1934.585
780.0938, 1935.241
780.5759, 1931.875
781.0580, 1927.920
781.5402, 1921.075
782.0223, 1916.973
782.5044, 1920.002
782.9865, 1931.834
783.4686, 1934.836
783.9507, 1925.977
784.4329, 1916.776
784.9150, 1916.285
785.3971, 1922.769
785.8792, 1931.000
786.3613, 1940.976
786.8434, 1944.485
787.3256, 1924.294
787.8077, 1900.410
788.2898, 1895.277
788.7719, 1917.606
789.2540, 1934.469
789.7361, 1931.511
790.2183, 1924.936
790.7004, 1926.225
791.1825, 1939.078
791.6646, 1946.079
792.1467, 1946.265
792.6288, 1943.013
793.1110, 1937.222
793.5930, 1930.752
794.0751, 1931.009
794.5573, 1940.314
795.0394, 1948.408
795.5215, 1943.728
796.0036, 1934.986
796.4857, 1932.103
796.9678, 1944.629
797.4500, 1948.570
797.9321, 1934.732
798.4142, 1916.815
798.8963, 1908.782
799.3784, 1912.250
799.8605, 1916.767
800.3427, 1922.341
800.8248, 1925.488
801.3069, 1916.077
801.7890, 1901.066
802.2711, 1899.260
802.7532, 1920.333
803.2354, 1941.575
803.7175, 1949.923
804.1996, 1949.953
804.6817, 1947.500
805.1638, 1940.877
805.6459, 1935.217
806.1281, 1929.062
806.6102, 1925.481
807.0923, 1931.435
807.5744, 1947.259
808.0565, 1956.201
808.5386, 1953.262
809.0208, 1947.646
809.5029, 1955.625
809.9850, 1969.481
810.4671, 1972.700
810.9492, 1948.391
811.4313, 1930.254
811.9135, 1939.479
812.3956, 1961.446
812.8777, 1971.479
813.3598, 1960.289
813.8419, 1955.101
814.3240, 1961.451
814.8062, 1972.302
815.2883, 1974.316
815.7704, 1968.661
816.2525, 1965.516
816.7346, 1969.446
817.2167, 1973.429
817.6989, 1966.613
818.1810, 1955.136
818.6631, 1949.894
819.1452, 1963.978
819.6273, 1973.389
820.1094, 1965.155
820.5916, 1951.381
821.0737, 1953.577
821.5558, 1977.854
822.0379, 1994.067
822.5200, 1994.769
823.0021, 1987.143
823.4843, 1982.255
823.9664, 1979.620
824.4485, 1977.432
824.9306, 1974.555
825.4127, 1972.598
825.8948, 1974.096
826.3770, 1976.940
826.8591, 1977.432
827.3412, 1968.930
827.8233, 1966.283
828.3054, 1975.459
828.7875, 1988.203
829.2697, 1985.704
829.7518, 1967.213
830.2339, 1953.401
830.7160, 1950.582
831.1981, 1952.516
831.6802, 1952.092
832.1624, 1949.592
832.6445, 1945.527
833.1266, 1933.478
833.6087, 1927.679
834.0908, 1940.423
834.5729, 1960.992
835.0551, 1968.151
835.5372, 1954.110
836.0193, 1945.849
836.5014, 1948.360
836.9835, 1957.606
837.4656, 1970.828
837.9478, 1985.347
838.4299, 1987.227
838.9120, 1965.002
839.3941, 1942.142
839.8762, 1941.627
840.3583, 1953.682
840.8405, 1962.264
841.3226, 1958.047
841.8047, 1957.026
842.2868, 1966.275
842.7689, 1976.025
843.2510, 1963.869
843.7332, 1926.048
844.2153, 1912.879
844.6974, 1941.397
845.1795, 1980.695
845.6616, 1988.075
846.1437, 1973.260
846.6259, 1954.743
847.1080, 1931.975
847.5901, 1917.365
848.0722, 1921.606
848.5543, 1935.239
849.0364, 1944.188
849.5186, 1946.229
850.0007, 1948.301
850.4828, 1950.693
850.9649, 1954.024
851.4470, 1961.627
851.9291, 1971.576
852.4113, 1974.135
852.8934, 1965.148
853.3755, 1955.512
853.8576, 1955.107
854.3397, 1959.130
854.8218, 1961.623
855.3040, 1959.523
855.7860, 1958.670
856.2681, 1960.300
856.7502, 1962.446
857.2324, 1962.679
857.7145, 1960.860
858.1966, 1958.602
858.6787, 1954.844
859.1608, 1956.468
859.6429, 1980.173
860.1251, 2011.114
860.6072, 2025.539
861.0893, 2013.975
861.5714, 2000.610
862.0535, 1989.378
862.5356, 1983.750
863.0178, 1987.483
863.4999, 2006.785
863.9820, 2015.965
864.4641, 2013.676
864.9462, 2004.543
865.4283, 1989.294
865.9105, 1971.255
866.3926, 1959.024
866.8747, 1953.758
867.3568, 1953.466
867.8389, 1960.754
868.3210, 1969.864
868.8032, 1975.703
869.2853, 1975.629
869.7674, 1980.638
870.2495, 1995.222
870.7316, 2007.649
871.2137, 2007.672
871.6959, 1996.904
872.1780, 1993.278
872.6601, 1997.103
873.1422, 2000.897
873.6243, 1996.448
874.1064, 1990.727
874.5886, 1992.208
875.0707, 2001.690
875.5528, 2007.207
876.0349, 2004.139
876.5170, 1997.976
876.9991, 1987.701
877.4813, 1974.163
877.9634, 1979.007
878.4455, 2003.646
878.9276, 2026.624
879.4097, 2034.390
879.8918, 2032.094
880.3740, 2021.899
880.8561, 2006.546
881.3382, 1999.587
881.8203, 2015.644
882.3024, 2032.628
882.7845, 2042.472
883.2667, 2045.552
883.7488, 2041.633
884.2309, 2027.936
884.7130, 2020.039
885.1951, 2027.237
885.6772, 2040.778
886.1594, 2042.191
886.6415, 2034.095
887.1236, 2025.312
887.6057, 2015.124
888.0878, 2010.374
888.5699, 2017.978
889.0521, 2033.502
889.5342, 2035.766
890.0163, 2049.230
890.4984, 2056.806
890.9805, 2058.810
891.4626, 2038.551
891.9448, 2047.039
892.4269, 2044.007
892.9090, 2040.502
893.3911, 2053.036
893.8732, 2036.016
894.3553, 2048.296
894.8375, 2048.879
895.3196, 2054.816
895.8017, 2049.161
896.2838, 2047.086
896.7659, 2056.607
897.2480, 2059.708
897.7302, 2052.718
898.2123, 2058.995
898.6944, 2041.570
899.1765, 2044.943
899.6586, 2057.291
900.1407, 2050.885
900.6229, 2057.374
901.1050, 2058.951
901.5871, 2038.209
902.0692, 2056.283
902.5513, 2057.571
903.0334, 2041.622
903.5156, 2058.366
903.9977, 2044.793
904.4798, 2042.042
904.9619, 2047.434
905.4440, 2044.337
905.9261, 2054.625
906.4083, 2052.018
906.8904, 2048.259
907.3725, 2049.527
907.8546, 2036.549
908.3367, 2050.002
908.8188, 2045.400
909.3010, 2049.772
909.7831, 2056.179
910.2652, 2044.105
910.7473, 2044.497
911.2294, 2047.338
911.7115, 2056.194
912.1937, 2065.582
912.6758, 2064.810
913.1579, 2057.588
913.6400, 2055.826
914.1221, 2071.368
914.6042, 2084.493
915.0864, 2087.821
915.5685, 2085.438
916.0506, 2088.005
916.5327, 2096.666
917.0148, 2100.447
917.4969, 2095.780
917.9790, 2087.074
918.4611, 2078.904
918.9432, 2071.667
919.4254, 2065.660
919.9075, 2056.613
920.3896, 2056.090
920.8717, 2082.449
921.3538, 2110.415
921.8359, 2108.846
922.3181, 2068.464
922.8002, 2049.229
923.2823, 2058.714
923.7644, 2074.504
924.2465, 2066.572
924.7286, 2049.676
925.2108, 2053.208
925.6929, 2084.475
926.1750, 2106.621
926.6571, 2094.646
927.1392, 2076.033
927.6213, 2067.450
928.1035, 2069.579
928.5856, 2076.970
929.0677, 2091.194
929.5498, 2102.335
930.0319, 2101.488
930.5140, 2094.327
930.9962, 2092.168
931.4783, 2093.984
931.9604, 2092.788
932.4425, 2077.607
932.9246, 2066.802
933.4067, 2071.411
933.8889, 2086.542
934.3710, 2096.558
934.8531, 2100.996
935.3352, 2101.949
935.8173, 2098.682
936.2994, 2094.393
936.7816, 2093.772
937.2637, 2096.359
937.7458, 2101.334
938.2279, 2113.349
938.7100, 2120.913
939.1921, 2116.218
939.6743, 2106.957
940.1564, 2103.126
940.6385, 2106.887
941.1206, 2103.483
941.6027, 2089.315
942.0848, 2077.321
942.5670, 2088.847
943.0491, 2110.109
943.5312, 2115.837
944.0133, 2099.600
944.4954, 2087.909
944.9775, 2097.382
945.4597, 2109.602
945.9418, 2113.284
946.4239, 2107.935
946.9060, 2101.713
947.3881, 2093.973
947.8702, 2090.754
948.3524, 2102.094
948.8345, 2117.084
949.3166, 2114.885
949.7987, 2099.754
950.2808, 2092.300
950.7629, 2110.873
951.2451, 2127.264
951.7272, 2131.635
952.2093, 2127.745
952.6914, 2126.676
953.1735, 2128.840
953.6556, 2125.860
954.1378, 2111.649
954.6199, 2099.507
955.1020, 2114.084
955.5841, 2140.124
956.0662, 2151.627
956.5483, 2125.818
957.0305, 2111.430
957.5126, 2127.479
957.9947, 2148.524
958.4768, 2148.637
958.9589, 2127.110
959.4410, 2116.213
959.9232, 2118.550
960.4053, 2122.806
960.8874, 2117.741
961.3695, 2109.936
961.8516, 2106.208
962.3337, 2107.265
962.8159, 2111.458
963.2980, 2122.761
963.7801, 2131.418
964.2622, 2133.501
964.7443, 2129.899
965.2264, 2121.994
965.7086, 2110.894
966.1907, 2108.984
966.6728, 2137.238
967.1549, 2162.674
967.6370, 2148.162
968.1191, 2110.530
968.6013, 2088.076
969.0834, 2095.840
969.5655, 2105.508
970.0476, 2114.965
970.5297, 2124.351
971.0118, 2135.237
971.4940, 2146.625
971.9761, 2154.761
972.4582, 2159.553
972.9403, 2158.104
973.4224, 2137.606
973.9045, 2117.068
974.3867, 2116.662
974.8688, 2145.084
975.3509, 2157.402
975.8330, 2147.422
976.3151, 2138.370
976.7972, 2151.419
977.2794, 2175.861
977.7615, 2178.581
978.2436, 2162.761
978.7257, 2147.208
979.2078, 2138.495
979.6899, 2135.966
980.1720, 2145.303
980.6541, 2160.037
981.1362, 2160.826
981.6183, 2143.429
982.1005, 2133.923
982.5826, 2140.132
983.0647, 2152.042
983.5468, 2154.724
984.0289, 2152.489
984.5110, 2153.825
984.9932, 2163.257
985.4753, 2170.333
985.9574, 2166.580
986.4395, 2163.736
986.9216, 2174.003
987.4037, 2200.607
987.8859, 2198.672
988.3680, 2166.324
988.8501, 2139.226
989.3322, 2153.686
989.8143, 2181.406
990.2964, 2191.296
990.7786, 2184.237
991.2607, 2179.794
991.7428, 2187.132
992.2249, 2190.335
992.7070, 2183.767
993.1891, 2171.948
993.6713, 2166.620
994.1534, 2167.100
994.6355, 2170.131
995.1176, 2176.535
995.5997, 2181.046
996.0818, 2178.148
996.5640, 2171.765
997.0461, 2165.883
997.5282, 2154.904
998.0103, 2160.971
998.4924, 2190.353
998.9745, 2220.592
999.4567, 2230.167
999.9388, 2225.624
1000.421, 2223.181
1000.903, 2223.353
1001.385, 2221.630
1001.867, 2214.236
1002.349, 2205.544
1002.831, 2193.776
1003.314, 2182.236
1003.796, 2188.214
1004.278, 2214.378
1004.760, 2234.724
1005.242, 2239.389
1005.724, 2237.665
1006.206, 2242.489
1006.688, 2249.972
1007.171, 2253.401
1007.653, 2249.338
1008.135, 2243.870
1008.617, 2236.917
1009.099, 2230.006
1009.581, 2223.282
1010.063, 2217.033
1010.545, 2217.462
1011.027, 2224.688
1011.510, 2234.493
1011.992, 2248.370
1012.474, 2259.623
1012.956, 2261.780
1013.438, 2255.265
1013.920, 2248.940
1014.402, 2242.263
1014.884, 2238.633
1015.367, 2240.310
1015.849, 2243.735
1016.331, 2241.091
1016.813, 2234.381
1017.295, 2228.107
1017.777, 2220.352
1018.259, 2220.681
1018.741, 2241.865
1019.223, 2266.650
1019.706, 2279.609
1020.188, 2278.542
1020.670, 2279.509
1021.152, 2283.027
1021.634, 2284.637
1022.116, 2276.342
1022.598, 2267.101
1023.080, 2268.202
1023.563, 2278.813
1024.045, 2289.490
1024.527, 2301.200
1025.009, 2307.514
1025.491, 2303.871
1025.973, 2296.957
1026.455, 2303.776
1026.937, 2321.181
1027.419, 2334.667
1027.901, 2339.379
1028.384, 2341.523
1028.866, 2346.705
1029.348, 2350.284
1029.830, 2347.459
1030.312, 2337.848
1030.794, 2322.576
1031.276, 2299.208
1031.758, 2282.315
1032.241, 2287.181
1032.723, 2302.966
1033.205, 2317.202
1033.687, 2327.421
1034.169, 2325.271
1034.651, 2288.167
1035.133, 2262.953
1035.615, 2261.639
1036.098, 2276.480
1036.580, 2299.489
1037.062, 2328.103
1037.544, 2335.403
1038.026, 2311.327
1038.508, 2288.045
1038.990, 2297.028
1039.472, 2316.382
1039.954, 2324.476
1040.437, 2316.778
1040.919, 2314.480
1041.401, 2312.962
1041.883, 2326.164
1042.365, 2333.477
1042.847, 2335.217
1043.329, 2314.695
1043.811, 2322.921
1044.293, 2319.625
1044.776, 2315.857
1045.258, 2328.129
1045.740, 2310.845
1046.222, 2322.862
1046.704, 2323.183
1047.186, 2328.856
1047.668, 2322.938
1048.150, 2320.601
1048.633, 2329.858
1049.115, 2332.696
1049.597, 2325.443
1050.079, 2331.458
1050.561, 2313.769
1051.043, 2316.880
1051.525, 2328.965
1052.007, 2309.963
1052.490, 2314.386
1052.972, 2323.434
1053.454, 2330.514
1053.936, 2336.357
1054.418, 2342.826
1054.900, 2351.177
1055.382, 2358.894
1055.864, 2366.006
1056.346, 2371.431
1056.828, 2373.234
1057.311, 2371.401
1057.793, 2373.908
1058.275, 2380.933
1058.757, 2385.619
1059.239, 2380.789
1059.721, 2373.798
1060.203, 2369.354
1060.685, 2367.817
1061.168, 2368.980
1061.650, 2373.326
1062.132, 2379.662
1062.614, 2389.381
1063.096, 2396.986
1063.578, 2388.539
1064.060, 2373.705
1064.542, 2372.302
1065.025, 2392.499
1065.507, 2407.111
1065.989, 2405.456
1066.471, 2398.099
1066.953, 2388.561
1067.435, 2377.338
1067.917, 2369.214
1068.399, 2363.769
1068.881, 2357.898
1069.364, 2342.972
1069.846, 2334.167
1070.328, 2345.004
1070.810, 2367.396
1071.292, 2387.046
1071.774, 2404.947
1072.256, 2413.824
1072.738, 2411.299
1073.220, 2407.583
1073.703, 2418.970
1074.185, 2432.531
1074.667, 2423.409
1075.149, 2391.708
1075.631, 2377.744
1076.113, 2407.586
1076.595, 2433.689
1077.077, 2442.141
1077.559, 2439.608
1078.042, 2442.934
1078.524, 2449.606
1079.006, 2448.729
1079.488, 2433.519
1079.970, 2421.135
1080.452, 2424.613
1080.934, 2432.144
1081.416, 2432.373
1081.899, 2424.217
1082.381, 2423.954
1082.863, 2431.732
1083.345, 2444.512
1083.827, 2468.611
1084.309, 2489.647
1084.791, 2490.777
1085.273, 2477.987
1085.755, 2466.955
1086.238, 2457.620
1086.720, 2455.307
1087.202, 2462.114
1087.684, 2471.981
1088.166, 2479.313
1088.648, 2483.956
1089.130, 2485.854
1089.612, 2485.027
1090.094, 2481.329
1090.577, 2469.244
1091.059, 2461.004
1091.541, 2463.150
1092.023, 2471.269
1092.505, 2469.612
1092.987, 2460.000
1093.469, 2455.726
1093.951, 2463.742
1094.434, 2469.924
1094.916, 2461.918
1095.398, 2448.639
1095.880, 2437.870
1096.362, 2428.803
1096.844, 2430.521
1097.326, 2444.091
1097.808, 2458.506
1098.291, 2468.312
1098.773, 2473.951
1099.255, 2474.076
1099.737, 2470.540
1100.219, 2467.802
1100.701, 2467.907
1101.183, 2466.682
1101.665, 2462.857
1102.147, 2459.779
1102.630, 2461.393
1103.112, 2466.749
1103.594, 2476.241
1104.076, 2489.290
1104.558, 2495.579
1105.040, 2483.804
1105.522, 2471.642
1106.004, 2463.875
1106.486, 2460.929
1106.969, 2467.205
1107.451, 2480.830
1107.933, 2489.206
1108.415, 2488.536
1108.897, 2483.543
1109.379, 2472.391
1109.861, 2462.337
1110.343, 2460.070
1110.826, 2465.756
1111.308, 2474.301
1111.790, 2486.045
1112.272, 2496.556
1112.754, 2503.791
1113.236, 2508.438
1113.718, 2513.485
1114.200, 2515.993
1114.682, 2509.179
1115.165, 2477.095
1115.647, 2468.476
1116.129, 2490.739
1116.611, 2519.322
1117.093, 2537.275
1117.575, 2542.964
1118.057, 2523.917
1118.539, 2485.411
1119.021, 2462.872
1119.504, 2485.101
1119.986, 2504.229
1120.468, 2509.204
1120.950, 2507.140
1121.432, 2510.480
1121.914, 2517.931
1122.396, 2524.088
1122.878, 2527.803
1123.361, 2532.909
1123.843, 2548.707
1124.325, 2559.117
1124.807, 2551.976
1125.289, 2531.579
1125.771, 2522.917
1126.253, 2525.656
1126.735, 2534.920
1127.218, 2553.816
1127.700, 2568.172
1128.182, 2558.055
1128.664, 2541.387
1129.146, 2541.720
1129.628, 2564.836
1130.110, 2574.278
1130.592, 2567.851
1131.074, 2563.559
1131.557, 2577.609
1132.039, 2597.247
1132.521, 2610.583
1133.003, 2616.609
1133.485, 2611.547
1133.967, 2584.282
1134.449, 2567.535
1134.931, 2564.653
1135.413, 2569.348
1135.896, 2578.837
1136.378, 2589.526
1136.860, 2592.153
1137.342, 2587.600
1137.824, 2589.738
1138.306, 2616.571
1138.788, 2631.859
1139.270, 2622.105
1139.752, 2603.375
1140.235, 2610.773
1140.717, 2634.656
1141.199, 2643.781
1141.681, 2630.320
1142.163, 2615.890
1142.645, 2608.230
1143.127, 2605.514
1143.609, 2607.114
1144.092, 2612.608
1144.574, 2621.261
1145.056, 2632.547
1145.538, 2641.814
1146.020, 2648.133
1146.502, 2650.716
1146.984, 2644.251
1147.466, 2637.330
1147.948, 2637.969
1148.431, 2646.697
1148.913, 2658.708
1149.395, 2674.173
1149.877, 2687.645
1150.359, 2697.034
1150.841, 2701.639
1151.323, 2696.389
1151.805, 2687.215
1152.287, 2686.302
1152.770, 2696.998
1153.252, 2703.918
1153.734, 2705.491
1154.216, 2707.858
1154.698, 2720.722
1155.180, 2734.388
1155.662, 2734.872
1156.144, 2724.887
1156.627, 2722.695
1157.109, 2733.437
1157.591, 2741.700
1158.073, 2743.049
1158.555, 2746.899
1159.037, 2778.899
1159.519, 2815.261
1160.001, 2810.696
1160.484, 2758.404
1160.966, 2725.883
1161.448, 2734.019
1161.930, 2746.937
1162.412, 2754.731
1162.894, 2759.947
1163.376, 2771.267
1163.858, 2783.504
1164.340, 2781.005
1164.823, 2752.440
1165.305, 2740.307
1165.787, 2771.544
1166.269, 2800.331
1166.751, 2802.127
1167.233, 2784.973
1167.715, 2775.211
1168.197, 2771.886
1168.679, 2771.528
1169.162, 2773.537
1169.644, 2776.957
1170.126, 2782.623
1170.608, 2788.350
1171.090, 2791.835
1171.572, 2793.355
1172.054, 2799.286
1172.536, 2808.704
1173.019, 2814.975
1173.501, 2813.598
1173.983, 2809.137
1174.465, 2799.904
1174.947, 2791.008
1175.429, 2788.045
1175.911, 2791.056
1176.393, 2802.997
1176.875, 2823.749
1177.358, 2840.784
1177.840, 2842.060
1178.322, 2839.745
1178.804, 2840.138
1179.286, 2842.929
1179.768, 2848.448
1180.250, 2856.957
1180.732, 2857.568
1181.214, 2847.600
1181.697, 2838.510
1182.179, 2839.349
1182.661, 2845.512
1183.143, 2858.111
1183.625, 2873.728
1184.107, 2871.862
1184.589, 2850.704
1185.071, 2831.723
1185.554, 2819.656
1186.036, 2814.853
1186.518, 2823.043
1187.000, 2835.408
1187.482, 2840.365
1187.964, 2836.737
1188.446, 2848.148
1188.928, 2877.541
1189.411, 2901.102
1189.893, 2907.949
1190.375, 2907.552
1190.857, 2913.348
1191.339, 2917.554
1191.821, 2906.710
1192.303, 2872.267
1192.785, 2854.065
1193.267, 2852.541
1193.750, 2865.374
1194.232, 2904.652
1194.714, 2943.915
1195.196, 2943.504
1195.678, 2920.790
1196.160, 2908.181
1196.642, 2916.886
1197.124, 2922.631
1197.606, 2925.659
1198.089, 2924.354
1198.571, 2910.789
1199.053, 2896.870
1199.535, 2904.159
1200.017, 2924.624
1200.499, 2933.024
1200.981, 2915.455
1201.463, 2908.958
1201.945, 2917.920
1202.428, 2932.118
1202.910, 2943.431
1203.392, 2952.740
1203.874, 2961.580
1204.356, 2969.833
1204.838, 2976.499
1205.320, 2985.052
1205.802, 2982.227
1206.285, 2962.268
1206.767, 2942.388
1207.249, 2948.986
1207.731, 2966.448
1208.213, 2968.815
1208.695, 2955.021
1209.177, 2954.192
1209.659, 2977.145
1210.141, 2994.807
1210.624, 2999.549
1211.106, 2998.020
1211.588, 3004.146
1212.070, 3008.359
1212.552, 2989.219
1213.034, 2941.015
1213.516, 2919.175
1213.998, 2940.009
1214.480, 2957.080
1214.963, 2952.434
1215.445, 2942.127
1215.927, 2955.337
1216.409, 2980.625
1216.891, 2999.927
1217.373, 3009.613
1217.855, 3012.929
1218.337, 3009.155
1218.820, 3002.822
1219.302, 2994.685
1219.784, 2986.895
1220.266, 2983.560
1220.748, 2983.354
1221.230, 2984.037
1221.712, 2984.835
1222.194, 2988.037
1222.677, 2995.390
1223.159, 3000.105
1223.641, 2995.978
1224.123, 2988.998
1224.605, 2991.732
1225.087, 2999.231
1225.569, 3001.495
1226.051, 2990.376
1226.533, 2984.176
1227.016, 2983.235
1227.498, 2986.877
1227.980, 2993.689
1228.462, 3005.312
1228.944, 3032.701
1229.426, 3066.093
1229.908, 3081.859
1230.390, 3063.812
1230.872, 3047.044
1231.355, 3031.957
1231.837, 3020.369
1232.319, 3012.020
1232.801, 3009.505
1233.283, 3021.613
1233.765, 3042.834
1234.247, 3055.406
1234.729, 3049.095
1235.212, 3054.097
1235.694, 3075.805
1236.176, 3094.720
1236.658, 3086.870
1237.140, 3069.374
1237.622, 3061.433
1238.104, 3063.059
1238.586, 3070.450
1239.068, 3086.031
1239.551, 3096.636
1240.033, 3100.339
1240.515, 3101.408
1240.997, 3107.156
1241.479, 3110.539
1241.961, 3097.978
1242.443, 3074.495
1242.925, 3070.609
1243.407, 3094.701
1243.890, 3102.711
1244.372, 3084.889
1244.854, 3065.448
1245.336, 3066.208
1245.818, 3080.076
1246.300, 3109.075
1246.782, 3147.541
1247.264, 3156.073
1247.747, 3127.460
1248.229, 3125.163
1248.711, 3167.218
1249.193, 3209.565
1249.675, 3210.333
1250.157, 3193.467
1250.639, 3176.689
1251.121, 3161.677
1251.604, 3149.649
1252.086, 3140.754
1252.568, 3136.059
1253.050, 3136.814
1253.532, 3137.446
1254.014, 3130.194
1254.496, 3123.421
1254.978, 3122.651
1255.460, 3128.026
1255.943, 3143.863
1256.425, 3169.560
1256.907, 3193.606
1257.389, 3214.443
1257.871, 3227.329
1258.353, 3221.703
1258.835, 3213.491
1259.317, 3215.363
1259.799, 3224.299
1260.281, 3224.300
1260.764, 3216.225
1261.246, 3203.590
1261.728, 3184.036
1262.210, 3172.205
1262.692, 3187.292
1263.174, 3200.385
1263.656, 3190.100
1264.138, 3165.992
1264.621, 3171.656
1265.103, 3199.786
1265.585, 3222.747
1266.067, 3232.142
1266.549, 3233.428
1267.031, 3219.822
1267.513, 3209.183
1267.995, 3211.822
1268.478, 3223.475
1268.960, 3230.151
1269.442, 3234.542
1269.924, 3245.693
1270.406, 3275.128
1270.888, 3286.921
1271.370, 3265.481
1271.852, 3248.650
1272.334, 3264.007
1272.817, 3293.783
1273.299, 3296.768
1273.781, 3283.379
1274.263, 3275.873
1274.745, 3282.079
1275.227, 3292.711
1275.709, 3310.461
1276.191, 3323.211
1276.673, 3320.155
1277.156, 3311.548
1277.638, 3311.912
1278.120, 3318.906
1278.602, 3329.220
1279.084, 3346.879
1279.566, 3353.065
1280.048, 3346.814
1280.530, 3335.547
1281.013, 3315.886
1281.495, 3301.685
1281.977, 3317.338
1282.459, 3343.389
1282.941, 3346.406
1283.423, 3317.578
1283.905, 3307.879
1284.387, 3317.502
1284.870, 3333.432
1285.352, 3354.458
1285.834, 3370.862
1286.316, 3375.537
1286.798, 3371.708
1287.280, 3362.561
1287.762, 3347.680
1288.244, 3339.364
1288.726, 3337.616
1289.208, 3341.206
1289.691, 3357.528
1290.173, 3369.195
1290.655, 3362.022
1291.137, 3352.947
1291.619, 3360.020
1292.101, 3378.953
1292.583, 3378.107
1293.065, 3362.824
1293.548, 3355.929
1294.030, 3383.297
1294.512, 3395.969
1294.994, 3381.340
1295.476, 3359.473
1295.958, 3345.915
##END=



