##NAMES=Cobaltite
##RRUFFID=R100119
##IDEAL CHEMISTRY=Co^3+^(AsS)^3-^
##LOCALITY=Deerhorn mine, Cobalt, Ontario, Canada
##OWNER=RRUFF
##SOURCE=Robert Woodside
##DESCRIPTION=Metallic silver-gray cubes
##STATUS=The identification of this mineral has been confirmed by single-crystal X-ray diffraction.
##URL=rruff.info/R100119
165.3335, 68.04736
165.8156, 69.17612
166.2977, 69.85872
166.7798, 69.51669
167.2620, 68.64495
167.7441, 68.01180
168.2262, 67.97919
168.7083, 68.31433
169.1904, 68.39011
169.6725, 68.29466
170.1547, 67.89490
170.6368, 66.97579
171.1189, 65.66608
171.6010, 64.31351
172.0831, 62.77179
172.5652, 61.59749
173.0474, 61.81060
173.5295, 64.18292
174.0116, 66.46659
174.4937, 66.62611
174.9758, 64.66890
175.4579, 62.93740
175.9401, 62.42467
176.4222, 62.70955
176.9043, 63.42670
177.3864, 64.61038
177.8685, 65.98805
178.3506, 67.29183
178.8328, 68.57827
179.3149, 69.57800
179.7970, 70.28125
180.2791, 70.64262
180.7612, 70.55186
181.2433, 69.94926
181.7255, 68.95382
182.2076, 67.64864
182.6897, 65.27360
183.1718, 64.09973
183.6539, 65.40739
184.1360, 67.59564
184.6181, 68.95368
185.1003, 68.61878
185.5824, 67.13640
186.0645, 66.45897
186.5466, 67.51143
187.0287, 68.28965
187.5108, 68.33884
187.9930, 68.01843
188.4751, 67.83614
188.9572, 68.09206
189.4393, 68.65258
189.9214, 68.75474
190.4035, 67.75295
190.8857, 67.01107
191.3678, 66.80483
191.8499, 67.03065
192.3320, 67.55912
192.8141, 68.37166
193.2962, 69.37807
193.7784, 69.84858
194.2605, 68.94209
194.7426, 68.50994
195.2247, 69.42928
195.7068, 71.38187
196.1889, 73.52969
196.6711, 75.55165
197.1532, 77.24766
197.6353, 77.91713
198.1174, 76.87100
198.5995, 75.55168
199.0816, 74.82136
199.5638, 74.57792
200.0459, 74.08167
200.5280, 72.62332
201.0101, 70.68718
201.4922, 69.65300
201.9743, 69.87390
202.4565, 70.69510
202.9386, 71.98289
203.4207, 73.77693
203.9028, 74.74502
204.3849, 73.31490
204.8670, 70.87390
205.3492, 69.46121
205.8313, 69.79964
206.3134, 70.82763
206.7955, 71.37273
207.2776, 71.43343
207.7597, 71.00852
208.2419, 69.51706
208.7240, 67.74986
209.2061, 66.52396
209.6882, 66.19780
210.1703, 66.31776
210.6524, 66.08094
211.1346, 65.31513
211.6167, 64.63910
212.0988, 64.29247
212.5809, 64.10164
213.0630, 63.93448
213.5451, 63.75438
214.0273, 63.51328
214.5094, 63.11405
214.9915, 62.58671
215.4736, 61.80872
215.9557, 60.45159
216.4378, 59.01044
216.9200, 57.96659
217.4021, 57.54220
217.8842, 57.59369
218.3663, 57.74804
218.8484, 58.14194
219.3305, 58.44029
219.8127, 58.77472
220.2948, 58.94011
220.7769, 58.68706
221.2590, 57.90179
221.7411, 56.72575
222.2232, 55.56377
222.7054, 53.94402
223.1875, 52.96516
223.6696, 52.85050
224.1517, 53.34269
224.6338, 54.29641
225.1159, 55.65563
225.5980, 57.16771
226.0802, 58.09103
226.5623, 57.92234
227.0444, 57.73543
227.5265, 57.58866
228.0086, 57.46892
228.4907, 57.33767
228.9729, 57.17344
229.4550, 57.03321
229.9371, 57.08281
230.4192, 57.48344
230.9013, 57.80973
231.3834, 57.93036
231.8656, 57.95199
232.3477, 58.01112
232.8298, 58.15029
233.3119, 58.38716
233.7940, 58.81834
234.2761, 59.58091
234.7583, 60.16602
235.2404, 60.00453
235.7225, 59.64706
236.2046, 60.19688
236.6867, 62.19657
237.1688, 64.79235
237.6510, 66.64128
238.1331, 67.86491
238.6152, 68.31738
239.0973, 67.24641
239.5794, 65.40414
240.0615, 64.56196
240.5437, 65.49812
241.0258, 66.91889
241.5079, 66.97916
241.9900, 65.71307
242.4721, 64.53661
242.9542, 64.20475
243.4364, 64.41113
243.9185, 64.31328
244.4006, 63.58808
244.8827, 62.83210
245.3648, 62.72952
245.8469, 63.19172
246.3290, 63.60920
246.8112, 63.83505
247.2933, 63.80304
247.7754, 63.22541
248.2575, 61.79635
248.7396, 60.25897
249.2217, 59.04309
249.7039, 58.15274
250.1860, 57.67492
250.6681, 58.00696
251.1502, 58.85131
251.6323, 59.01746
252.1144, 58.02714
252.5966, 57.04940
253.0787, 57.05914
253.5608, 57.61916
254.0429, 57.71857
254.5250, 56.48724
255.0071, 54.33610
255.4893, 52.84768
255.9714, 52.19252
256.4535, 52.01178
256.9356, 52.51402
257.4177, 53.24630
257.8998, 53.40790
258.3820, 52.33860
258.8641, 50.48560
259.3462, 49.51781
259.8283, 50.15648
260.3104, 50.50346
260.7925, 49.74629
261.2747, 48.42961
261.7568, 47.20190
262.2389, 46.31606
262.7210, 45.83090
263.2031, 46.03524
263.6852, 47.68853
264.1674, 48.70582
264.6495, 48.16878
265.1316, 47.02789
265.6137, 46.33722
266.0958, 46.57021
266.5779, 47.29796
267.0601, 47.47152
267.5422, 46.66876
268.0243, 46.05574
268.5064, 45.70088
268.9885, 45.62607
269.4706, 46.05640
269.9528, 47.03870
270.4349, 48.05253
270.9170, 47.98932
271.3991, 45.97714
271.8812, 44.60070
272.3633, 44.21961
272.8455, 44.30823
273.3276, 44.53591
273.8097, 44.79566
274.2918, 45.10456
274.7739, 45.51865
275.2560, 46.20030
275.7382, 46.62526
276.2202, 46.84359
276.7024, 46.83222
277.1845, 46.33704
277.6666, 45.45706
278.1487, 44.77449
278.6308, 45.13364
279.1129, 47.16512
279.5951, 48.00594
280.0772, 46.77204
280.5593, 45.33854
281.0414, 44.65129
281.5235, 44.73094
282.0056, 45.07082
282.4878, 45.16842
282.9699, 44.94057
283.4520, 45.10261
283.9341, 46.23151
284.4162, 47.13990
284.8983, 47.16143
285.3805, 46.52258
285.8626, 45.91179
286.3447, 45.87605
286.8268, 46.40289
287.3089, 46.71456
287.7910, 46.76530
288.2732, 46.67327
288.7553, 46.35230
289.2374, 45.91656
289.7195, 45.56300
290.2016, 45.41062
290.6837, 45.43415
291.1659, 45.49889
291.6480, 45.65968
292.1301, 45.79631
292.6122, 45.94921
293.0943, 46.05084
293.5764, 45.95555
294.0586, 45.58702
294.5407, 45.10002
295.0228, 44.91368
295.5049, 45.69393
295.9870, 45.95433
296.4691, 45.47398
296.9513, 44.52104
297.4334, 43.09965
297.9155, 41.26152
298.3976, 39.63147
298.8797, 39.31439
299.3618, 41.36389
299.8440, 42.83848
300.3261, 43.69827
300.8082, 44.01793
301.2903, 43.57781
301.7724, 42.44850
302.2545, 41.33450
302.7367, 41.08606
303.2188, 41.97942
303.7009, 42.78117
304.1830, 43.65416
304.6651, 44.32161
305.1472, 44.49685
305.6294, 44.24556
306.1115, 43.94352
306.5936, 43.92162
307.0757, 44.20195
307.5578, 44.33440
308.0399, 43.90012
308.5221, 43.75130
309.0042, 44.61947
309.4863, 46.12016
309.9684, 47.20397
310.4505, 47.15206
310.9326, 46.14930
311.4148, 45.47682
311.8969, 45.16854
312.3790, 45.08616
312.8611, 45.28035
313.3432, 45.66615
313.8253, 46.25144
314.3075, 47.08134
314.7896, 47.82485
315.2717, 47.57654
315.7538, 44.91920
316.2359, 43.32256
316.7180, 43.87153
317.2001, 45.25756
317.6823, 46.09015
318.1644, 45.96485
318.6465, 45.30230
319.1286, 44.68417
319.6107, 43.99821
320.0928, 43.70990
320.5750, 44.20629
321.0571, 44.82001
321.5392, 45.09830
322.0213, 44.96661
322.5034, 44.50716
322.9855, 43.72592
323.4677, 42.50579
323.9498, 41.89018
324.4319, 42.38396
324.9140, 42.91349
325.3961, 42.86551
325.8782, 42.36802
326.3604, 41.94794
326.8425, 42.00008
327.3246, 42.46230
327.8067, 42.62038
328.2888, 42.05073
328.7709, 41.70124
329.2531, 42.16717
329.7352, 42.95110
330.2173, 43.11997
330.6994, 42.19611
331.1815, 40.69595
331.6636, 40.01540
332.1458, 40.99402
332.6279, 41.80046
333.1100, 42.58021
333.5921, 43.06350
334.0742, 42.78451
334.5563, 41.67287
335.0385, 40.35246
335.5206, 39.76422
336.0027, 40.32539
336.4848, 40.57295
336.9669, 40.01870
337.4490, 39.56620
337.9312, 40.07137
338.4133, 41.39427
338.8954, 42.52820
339.3775, 42.45840
339.8596, 41.03279
340.3417, 40.31726
340.8239, 41.20422
341.3060, 41.78078
341.7881, 41.12777
342.2702, 39.65259
342.7523, 38.23952
343.2344, 37.43468
343.7166, 37.13544
344.1987, 36.85374
344.6808, 36.11523
345.1629, 35.97955
345.6450, 37.24674
346.1271, 38.88234
346.6093, 39.60476
347.0914, 38.97102
347.5735, 37.72444
348.0556, 37.32395
348.5377, 38.57573
349.0198, 39.21819
349.5020, 38.70577
349.9841, 38.07430
350.4662, 38.14710
350.9483, 38.93128
351.4304, 39.77189
351.9125, 39.94990
352.3947, 39.37093
352.8768, 38.75438
353.3589, 37.80819
353.8410, 37.11381
354.3231, 37.12494
354.8052, 37.54859
355.2874, 37.72654
355.7695, 37.15369
356.2516, 36.02924
356.7337, 35.48879
357.2158, 35.88362
357.6979, 36.44028
358.1800, 37.30353
358.6621, 38.12368
359.1443, 38.49632
359.6264, 38.26984
360.1085, 37.66875
360.5906, 36.99294
361.0727, 35.99361
361.5548, 35.59959
362.0370, 36.49413
362.5191, 37.53275
363.0012, 38.02412
363.4833, 37.91063
363.9654, 37.55064
364.4475, 37.29142
364.9297, 37.14462
365.4118, 36.88578
365.8939, 36.22122
366.3760, 35.78086
366.8581, 35.86431
367.3402, 36.34873
367.8224, 37.00802
368.3045, 37.81371
368.7866, 38.61519
369.2687, 38.93032
369.7508, 38.59441
370.2329, 38.11644
370.7151, 37.77891
371.1972, 37.34771
371.6793, 36.40272
372.1614, 34.74714
372.6435, 33.19820
373.1256, 32.93607
373.6078, 34.06157
374.0899, 35.01392
374.5720, 35.39518
375.0541, 35.55669
375.5362, 35.80214
376.0183, 36.11561
376.5005, 36.25154
376.9826, 35.88124
377.4647, 35.17984
377.9468, 34.82839
378.4289, 34.99055
378.9110, 35.23104
379.3932, 35.23231
379.8753, 35.10242
380.3574, 35.05035
380.8395, 35.20258
381.3216, 35.40409
381.8037, 35.37204
382.2859, 35.09618
382.7680, 35.12776
383.2501, 36.15203
383.7322, 37.30324
384.2143, 37.09678
384.6964, 35.06364
385.1786, 33.24571
385.6607, 33.00434
386.1428, 33.88255
386.6249, 34.71117
387.1070, 35.24786
387.5891, 35.59924
388.0713, 35.78433
388.5534, 35.82261
389.0355, 36.04511
389.5176, 36.94098
389.9997, 37.78886
390.4818, 37.77860
390.9640, 36.90271
391.4461, 35.75848
391.9282, 34.57932
392.4103, 33.49872
392.8924, 33.08843
393.3745, 33.64867
393.8567, 34.48250
394.3388, 35.75317
394.8209, 37.05883
395.3030, 37.42649
395.7851, 36.40993
396.2672, 34.85030
396.7494, 34.25289
397.2315, 35.10455
397.7136, 35.80447
398.1957, 36.45405
398.6778, 36.81960
399.1599, 36.51525
399.6420, 35.61816
400.1241, 34.74437
400.6063, 34.45965
401.0884, 34.78436
401.5705, 34.98075
402.0526, 34.75483
402.5347, 34.74176
403.0168, 35.52394
403.4990, 36.57034
403.9811, 36.91132
404.4632, 36.06978
404.9453, 34.60021
405.4274, 33.86866
405.9095, 34.45137
406.3917, 34.83708
406.8738, 34.84803
407.3559, 34.76103
407.8380, 34.78407
408.3201, 34.93266
408.8022, 35.08302
409.2844, 35.13292
409.7665, 35.08610
410.2486, 34.84069
410.7307, 33.72978
411.2128, 33.17464
411.6949, 34.13081
412.1771, 35.80472
412.6592, 36.87439
413.1413, 36.62172
413.6234, 35.64282
414.1055, 35.30969
414.5876, 35.98162
415.0698, 36.19361
415.5519, 34.85852
416.0340, 33.44115
416.5161, 33.10431
416.9982, 33.92915
417.4803, 34.86061
417.9625, 34.82418
418.4446, 34.01612
418.9267, 33.91603
419.4088, 35.11649
419.8909, 36.12942
420.3730, 35.85678
420.8552, 34.72985
421.3373, 33.54273
421.8194, 32.33583
422.3015, 31.41556
422.7836, 31.33480
423.2657, 32.08214
423.7479, 32.69680
424.2300, 32.67294
424.7121, 32.42911
425.1942, 32.78064
425.6763, 33.95235
426.1584, 34.57408
426.6406, 33.34270
427.1227, 31.38251
427.6048, 30.81061
428.0869, 32.05525
428.5690, 33.58362
429.0511, 33.95230
429.5333, 33.14813
430.0154, 32.78241
430.4975, 33.46264
430.9796, 34.01496
431.4617, 33.60130
431.9438, 32.52328
432.4260, 31.52169
432.9081, 30.91230
433.3902, 30.73002
433.8723, 31.12331
434.3544, 33.07636
434.8365, 33.93489
435.3187, 32.73341
435.8008, 30.98932
436.2829, 29.85951
436.7650, 29.51332
437.2471, 29.57303
437.7292, 29.70096
438.2114, 29.89508
438.6935, 30.26617
439.1756, 31.50561
439.6577, 32.14706
440.1398, 31.29082
440.6219, 29.81565
441.1040, 28.96718
441.5862, 29.26972
442.0683, 30.12092
442.5504, 30.33343
443.0325, 29.50897
443.5146, 29.27755
443.9967, 30.57924
444.4789, 31.83597
444.9610, 32.23860
445.4431, 31.83191
445.9252, 31.05016
446.4073, 29.90563
446.8894, 28.67427
447.3716, 28.57889
447.8537, 30.10505
448.3358, 31.55582
448.8179, 32.39641
449.3000, 32.68104
449.7821, 32.17888
450.2643, 30.62438
450.7464, 29.32493
451.2285, 29.77127
451.7106, 31.57847
452.1927, 32.78518
452.6748, 32.90352
453.1570, 32.53934
453.6391, 32.15530
454.1212, 31.76541
454.6033, 31.46487
455.0854, 31.34344
455.5675, 31.27220
456.0497, 31.25809
456.5318, 31.24112
457.0139, 30.80440
457.4960, 29.55407
457.9781, 27.96956
458.4602, 27.41526
458.9424, 28.20179
459.4245, 29.14768
459.9066, 30.44825
460.3887, 31.58634
460.8708, 31.87887
461.3529, 31.30488
461.8351, 30.53632
462.3172, 30.19734
462.7993, 30.30533
463.2814, 30.36835
463.7635, 30.46298
464.2456, 30.42944
464.7278, 29.92426
465.2099, 29.36656
465.6920, 29.42503
466.1741, 30.34130
466.6562, 31.59519
467.1383, 32.34315
467.6205, 32.52813
468.1026, 32.39155
468.5847, 31.61856
469.0668, 30.81081
469.5489, 30.35058
470.0310, 30.09245
470.5132, 29.55022
470.9953, 28.20798
471.4774, 26.58964
471.9595, 26.25859
472.4416, 27.66674
472.9237, 28.67145
473.4059, 27.88661
473.8880, 26.73514
474.3701, 26.48779
474.8522, 27.29591
475.3343, 28.55372
475.8164, 30.62828
476.2986, 32.78975
476.7807, 32.74555
477.2628, 29.79578
477.7449, 27.09826
478.2270, 27.57061
478.7091, 30.33530
479.1913, 31.53974
479.6734, 29.68637
480.1555, 27.69070
480.6376, 27.00943
481.1197, 27.27697
481.6018, 27.84180
482.0839, 28.52012
482.5660, 29.10562
483.0482, 29.27322
483.5303, 28.83561
484.0124, 28.65691
484.4945, 28.89425
484.9766, 29.22529
485.4587, 29.53594
485.9409, 29.79859
486.4230, 30.05200
486.9051, 30.33999
487.3872, 30.50489
487.8693, 29.99734
488.3514, 27.99513
488.8336, 26.88637
489.3157, 27.17180
489.7978, 27.99541
490.2799, 29.16352
490.7620, 30.41916
491.2441, 31.11110
491.7263, 30.46649
492.2084, 28.83797
492.6905, 28.01186
493.1726, 28.34981
493.6547, 28.62409
494.1368, 28.06296
494.6190, 27.31516
495.1011, 27.11951
495.5832, 27.66936
496.0653, 28.24509
496.5474, 28.09882
497.0295, 27.53813
497.5117, 27.63272
497.9938, 28.70149
498.4759, 29.73494
498.9580, 29.77151
499.4401, 29.01684
499.9222, 28.64112
500.4044, 29.11131
500.8865, 29.56420
501.3686, 29.29000
501.8507, 28.71014
502.3328, 28.88371
502.8149, 30.20312
503.2971, 31.69403
503.7792, 31.89172
504.2613, 30.21469
504.7434, 29.33631
505.2255, 29.68073
505.7076, 30.31046
506.1898, 31.12403
506.6719, 31.84136
507.1540, 31.91956
507.6361, 31.04697
508.1182, 29.67665
508.6003, 28.85874
509.0825, 28.73778
509.5646, 28.78242
510.0467, 29.20370
510.5288, 29.55427
511.0109, 29.56101
511.4930, 29.26713
511.9752, 28.88657
512.4573, 28.47771
512.9394, 28.11815
513.4215, 27.98145
513.9036, 28.07418
514.3857, 28.36033
514.8679, 28.98074
515.3500, 29.68027
515.8321, 30.14930
516.3142, 30.37359
516.7963, 30.44173
517.2784, 30.22989
517.7606, 29.95974
518.2427, 30.00698
518.7248, 30.38531
519.2069, 30.72104
519.6890, 30.75706
520.1711, 30.55253
520.6533, 30.39965
521.1354, 30.72607
521.6175, 30.53566
522.0996, 28.77663
522.5817, 26.93396
523.0638, 26.90788
523.5460, 28.75005
524.0281, 30.66413
524.5102, 30.87826
524.9923, 29.44735
525.4744, 28.21950
525.9565, 27.01914
526.4387, 26.31051
526.9208, 26.32250
527.4029, 26.76758
527.8850, 27.43329
528.3671, 28.24529
528.8492, 29.04212
529.3314, 29.91754
529.8135, 30.77089
530.2956, 30.34249
530.7777, 27.76280
531.2598, 25.56625
531.7419, 25.77775
532.2241, 27.32193
532.7062, 28.59952
533.1883, 29.40145
533.6704, 29.73188
534.1525, 29.30775
534.6346, 28.44382
535.1168, 27.93967
535.5989, 28.00328
536.0810, 28.12083
536.5631, 27.68901
537.0452, 26.67188
537.5273, 26.28339
538.0095, 26.85747
538.4916, 27.62355
538.9737, 28.41122
539.4558, 29.17573
539.9379, 30.04043
540.4200, 30.99675
540.9022, 31.55051
541.3843, 30.81690
541.8664, 28.39921
542.3485, 26.94507
542.8306, 27.30830
543.3127, 27.76451
543.7948, 27.70897
544.2769, 27.42218
544.7590, 27.40067
545.2411, 27.85333
545.7233, 28.41596
546.2054, 28.64893
546.6875, 28.56756
547.1696, 28.34212
547.6517, 27.87233
548.1339, 27.50253
548.6160, 27.65191
549.0981, 28.14745
549.5802, 28.51348
550.0623, 28.47387
550.5444, 28.48067
551.0266, 29.23101
551.5087, 30.21536
551.9908, 29.97607
552.4729, 28.01981
552.9550, 25.83163
553.4371, 25.32138
553.9193, 26.84584
554.4014, 27.92437
554.8835, 28.44693
555.3656, 28.71754
555.8477, 28.60407
556.3298, 28.39137
556.8120, 28.62808
557.2941, 29.48219
557.7762, 30.28738
558.2583, 29.84658
558.7404, 27.90370
559.2225, 26.92566
559.7047, 27.68835
560.1868, 28.51856
560.6689, 28.57983
561.1510, 28.18860
561.6331, 27.88488
562.1152, 27.85022
562.5974, 27.88349
563.0795, 27.71766
563.5616, 27.45329
564.0437, 27.55584
564.5258, 28.21295
565.0079, 28.78973
565.4901, 28.60489
565.9722, 27.70380
566.4543, 27.21307
566.9364, 27.46355
567.4185, 27.74194
567.9006, 27.77643
568.3828, 27.67436
568.8649, 27.59272
569.3470, 27.57332
569.8291, 27.53720
570.3112, 27.31756
570.7933, 26.86527
571.2755, 27.14793
571.7576, 29.38052
572.2397, 30.80391
572.7218, 30.12442
573.2039, 28.64190
573.6860, 27.83671
574.1682, 28.06897
574.6503, 28.60958
575.1324, 28.95043
575.6145, 29.04850
576.0966, 28.48380
576.5787, 26.92843
577.0609, 25.94790
577.5430, 27.05160
578.0251, 29.23321
578.5072, 30.02958
578.9893, 28.87457
579.4714, 27.50320
579.9536, 26.01204
580.4357, 24.96059
580.9178, 25.42441
581.3999, 27.30038
581.8820, 29.06430
582.3641, 29.53542
582.8463, 28.92331
583.3284, 28.46756
583.8105, 28.57519
584.2926, 28.22840
584.7747, 26.59758
585.2568, 25.07434
585.7390, 24.89182
586.2211, 25.94022
586.7032, 27.14627
587.1853, 27.80927
587.6674, 28.03749
588.1495, 28.03154
588.6317, 27.73095
589.1138, 27.57434
589.5959, 27.73159
590.0780, 28.07428
590.5601, 28.52269
591.0422, 29.07463
591.5244, 29.40043
592.0065, 29.39707
592.4886, 29.12588
592.9707, 28.59980
593.4528, 27.84899
593.9349, 26.80372
594.4171, 25.37608
594.8992, 24.10630
595.3813, 23.99492
595.8634, 25.51253
596.3455, 26.82691
596.8276, 28.39032
597.3098, 29.31416
597.7919, 28.57533
598.2740, 27.11088
598.7561, 26.63885
599.2382, 27.90020
599.7203, 29.55930
600.2025, 29.57928
600.6846, 28.02309
601.1667, 27.36001
601.6488, 28.28108
602.1309, 29.21990
602.6130, 28.97590
603.0952, 27.99881
603.5773, 27.11548
604.0594, 26.27294
604.5415, 25.83002
605.0236, 26.34295
605.5057, 27.22540
605.9879, 27.52640
606.4700, 27.12095
606.9521, 26.50519
607.4342, 26.03631
607.9163, 25.73862
608.3984, 25.80523
608.8806, 26.54632
609.3627, 27.24108
609.8448, 28.09984
610.3269, 28.69033
610.8090, 28.42858
611.2911, 27.48875
611.7733, 26.77514
612.2554, 27.07756
612.7375, 27.88134
613.2196, 27.83390
613.7017, 26.81792
614.1838, 26.23961
614.6660, 26.77148
615.1481, 27.60748
615.6302, 27.70233
616.1123, 27.11850
616.5944, 26.82666
617.0765, 27.17337
617.5587, 27.73067
618.0408, 28.42488
618.5229, 29.08150
619.0050, 29.30960
619.4871, 28.97877
619.9692, 28.38833
620.4514, 27.93163
620.9335, 27.62551
621.4156, 27.30206
621.8977, 26.49926
622.3798, 26.25618
622.8619, 27.47298
623.3441, 29.06714
623.8262, 29.68105
624.3083, 29.01284
624.7904, 28.13174
625.2725, 28.08405
625.7546, 28.50459
626.2367, 28.25140
626.7188, 27.19570
627.2009, 26.31934
627.6830, 26.12769
628.1652, 26.43598
628.6473, 26.97931
629.1294, 28.08812
629.6115, 28.37967
630.0936, 26.46321
630.5757, 24.67918
631.0579, 25.08928
631.5400, 27.08225
632.0221, 28.78923
632.5042, 29.25713
632.9863, 28.99594
633.4684, 28.93174
633.9506, 29.12642
634.4327, 29.22506
634.9148, 29.36299
635.3969, 29.18976
635.8790, 28.06695
636.3611, 26.66589
636.8433, 26.29229
637.3254, 27.60085
637.8075, 28.90732
638.2896, 28.83548
638.7717, 27.95324
639.2538, 27.22174
639.7360, 26.79487
640.2181, 26.83039
640.7002, 27.54172
641.1823, 28.71322
641.6644, 29.47239
642.1465, 29.58740
642.6287, 29.57588
643.1108, 29.46637
643.5929, 29.21487
644.0750, 28.57298
644.5571, 27.75873
645.0392, 27.37425
645.5214, 27.83349
646.0035, 28.62360
646.4856, 28.97980
646.9677, 28.90184
647.4498, 28.17150
647.9319, 26.30866
648.4141, 24.70751
648.8962, 24.85106
649.3783, 26.25877
649.8604, 27.09890
650.3425, 26.68341
650.8246, 26.42657
651.3068, 27.13602
651.7889, 28.17607
652.2710, 28.88614
652.7531, 29.11219
653.2352, 28.75835
653.7173, 27.63123
654.1995, 26.06230
654.6816, 25.47950
655.1637, 26.22280
655.6458, 27.14528
656.1279, 28.49896
656.6100, 29.61997
657.0922, 29.86610
657.5743, 29.50938
658.0564, 29.53560
658.5385, 30.69385
659.0206, 31.86290
659.5027, 31.95783
659.9849, 31.20368
660.4670, 30.05361
660.9491, 28.59072
661.4312, 27.42663
661.9133, 27.19320
662.3954, 27.80883
662.8776, 28.10853
663.3597, 27.46304
663.8418, 27.33252
664.3239, 28.46011
664.8060, 29.70346
665.2881, 30.06552
665.7703, 29.61037
666.2524, 29.06835
666.7345, 28.87239
667.2166, 28.89588
667.6987, 28.89014
668.1808, 28.85963
668.6630, 29.02276
669.1451, 29.54189
669.6272, 29.99645
670.1093, 29.89028
670.5914, 29.27874
671.0735, 28.93282
671.5557, 29.02601
672.0378, 29.18740
672.5199, 29.12871
673.0020, 29.17680
673.4841, 29.98169
673.9662, 31.40272
674.4484, 32.39311
674.9305, 32.07143
675.4126, 30.83353
675.8947, 30.00714
676.3768, 29.69932
676.8589, 29.33121
677.3411, 28.76193
677.8232, 28.12304
678.3053, 27.24699
678.7874, 26.34119
679.2695, 26.22211
679.7516, 27.65022
680.2338, 29.18161
680.7159, 29.94887
681.1980, 30.27632
681.6801, 30.82017
682.1622, 31.61386
682.6443, 31.91538
683.1265, 31.01166
683.6086, 29.24151
684.0907, 28.30808
684.5728, 28.74066
685.0549, 28.85427
685.5370, 27.99036
686.0192, 27.13534
686.5013, 26.82775
686.9834, 26.99961
687.4655, 27.39969
687.9476, 28.10208
688.4297, 28.69868
688.9119, 28.61863
689.3940, 28.18983
689.8761, 28.26763
690.3582, 28.98978
690.8403, 29.71236
691.3224, 29.95605
691.8046, 29.78080
692.2867, 29.44413
692.7688, 28.42325
693.2509, 28.10804
693.7330, 29.40250
694.2151, 30.58665
694.6973, 30.32757
695.1794, 29.14352
695.6615, 28.54146
696.1436, 29.36501
696.6257, 30.29072
697.1078, 29.50986
697.5900, 27.59449
698.0721, 26.63763
698.5542, 26.98454
699.0363, 27.53744
699.5184, 27.51559
700.0005, 27.16776
700.4827, 27.38804
700.9648, 29.03688
701.4469, 29.83098
701.9290, 28.96544
702.4111, 27.96838
702.8932, 27.74735
703.3754, 28.10333
703.8575, 28.50462
704.3396, 28.73801
704.8217, 28.85895
705.3038, 28.85385
705.7859, 28.77473
706.2681, 28.95075
706.7502, 29.46706
707.2323, 29.80364
707.7144, 29.62856
708.1965, 29.12489
708.6786, 28.67095
709.1607, 28.17101
709.6428, 27.99289
710.1249, 28.43432
710.6071, 28.93041
711.0892, 29.19558
711.5713, 29.28104
712.0534, 29.28471
712.5355, 29.24652
713.0176, 29.22177
713.4998, 29.29110
713.9819, 29.43263
714.4640, 29.55035
714.9461, 29.65763
715.4282, 29.61563
715.9103, 29.22953
716.3925, 28.81468
716.8746, 28.95626
717.3567, 29.74341
717.8388, 30.23091
718.3209, 29.96028
718.8030, 29.78779
719.2852, 30.33641
719.7673, 31.12932
720.2494, 31.47068
720.7315, 31.22696
721.2136, 30.80076
721.6957, 30.48159
722.1779, 30.30856
722.6600, 30.52893
723.1421, 31.21893
723.6242, 31.65931
724.1063, 31.67582
724.5884, 31.31534
725.0706, 30.33768
725.5527, 28.83599
726.0348, 28.17284
726.5169, 29.04194
726.9990, 29.99004
727.4811, 30.67516
727.9633, 31.10581
728.4454, 31.23717
728.9275, 31.11148
729.4096, 30.84513
729.8917, 30.46772
730.3738, 30.12927
730.8560, 30.29313
731.3381, 30.98523
731.8202, 31.16053
732.3023, 30.44355
732.7844, 29.69221
733.2665, 29.53748
733.7487, 29.86092
734.2308, 30.18339
734.7129, 30.66987
735.1950, 30.84333
735.6771, 30.15181
736.1592, 29.49591
736.6414, 29.84980
737.1235, 30.81510
737.6056, 31.20995
738.0877, 30.48779
738.5698, 29.48143
739.0519, 29.37649
739.5341, 30.07650
740.0162, 30.79780
740.4983, 31.58136
740.9804, 31.95923
741.4625, 31.46251
741.9446, 30.63069
742.4268, 30.58327
742.9089, 31.57084
743.3910, 31.98070
743.8731, 31.07060
744.3552, 30.21774
744.8373, 30.13746
745.3195, 30.50496
745.8016, 30.85776
746.2837, 31.07169
746.7658, 31.25943
747.2479, 31.52355
747.7300, 31.83231
748.2122, 32.19255
748.6943, 32.61077
749.1764, 32.52473
749.6585, 31.57155
750.1406, 30.61475
750.6227, 30.63605
751.1049, 31.59876
751.5870, 32.09791
752.0691, 31.98236
752.5512, 31.65005
753.0333, 30.63661
753.5154, 29.85063
753.9976, 30.35101
754.4797, 31.78982
754.9618, 32.86758
755.4439, 32.86012
755.9260, 32.44913
756.4081, 32.56608
756.8903, 33.05822
757.3724, 33.34150
757.8545, 33.35313
758.3366, 32.95380
758.8187, 31.89780
759.3008, 30.58751
759.7830, 30.05462
760.2651, 30.75681
760.7472, 31.16214
761.2293, 31.05257
761.7114, 30.91036
762.1935, 31.00266
762.6757, 31.14656
763.1578, 30.92576
763.6399, 30.28350
764.1220, 30.02797
764.6041, 31.20844
765.0862, 32.85525
765.5684, 33.41468
766.0505, 33.05595
766.5326, 32.72768
767.0147, 32.73930
767.4968, 32.73386
767.9789, 32.25644
768.4611, 31.34405
768.9432, 30.98085
769.4253, 31.65174
769.9074, 32.03912
770.3895, 31.63019
770.8716, 31.16053
771.3538, 31.36929
771.8359, 31.94856
772.3180, 31.73301
772.8001, 29.63617
773.2822, 28.13756
773.7643, 29.72904
774.2465, 32.56704
774.7286, 34.00198
775.2107, 33.88762
775.6928, 33.18169
776.1749, 32.36698
776.6570, 31.70487
777.1392, 31.81793
777.6213, 32.86593
778.1034, 33.52840
778.5855, 33.70168
779.0676, 33.66024
779.5497, 33.22682
780.0319, 32.82049
780.5140, 33.17048
780.9961, 34.37469
781.4782, 34.99608
781.9603, 34.54734
782.4424, 33.57443
782.9246, 31.77322
783.4067, 29.92355
783.8888, 29.29281
784.3709, 29.98310
784.8530, 30.95492
785.3351, 31.44290
785.8173, 31.54072
786.2994, 31.28503
786.7815, 30.67485
787.2636, 30.72635
787.7457, 31.79183
788.2278, 33.00459
788.7100, 33.78376
789.1921, 34.16888
789.6742, 34.28540
790.1563, 33.98536
790.6384, 33.70368
791.1205, 33.55894
791.6026, 33.34197
792.0847, 32.74426
792.5668, 32.05958
793.0490, 31.83461
793.5311, 32.22212
794.0132, 32.67612
794.4953, 32.72763
794.9774, 32.56103
795.4595, 32.37175
795.9417, 32.22826
796.4238, 32.61607
796.9059, 33.73626
797.3880, 34.75836
797.8701, 34.67303
798.3522, 33.58307
798.8344, 33.23289
799.3165, 34.21442
799.7986, 34.79243
800.2807, 34.35611
800.7628, 33.73751
801.2449, 33.29638
801.7271, 33.06818
802.2092, 33.17677
802.6913, 33.94378
803.1734, 34.31272
803.6555, 33.24863
804.1376, 31.86409
804.6198, 31.28736
805.1019, 31.48943
805.5840, 32.09314
806.0661, 32.92911
806.5482, 33.91888
807.0303, 35.17423
807.5125, 36.57928
807.9946, 36.86194
808.4767, 35.84503
808.9588, 34.61439
809.4409, 33.21244
809.9230, 32.27065
810.4052, 32.75894
810.8873, 34.67823
811.3694, 35.86699
811.8515, 35.89057
812.3336, 35.78366
812.8157, 35.69098
813.2979, 35.58886
813.7800, 35.54983
814.2621, 35.47598
814.7442, 35.06565
815.2263, 34.11799
815.7084, 33.20131
816.1906, 32.72681
816.6727, 32.73968
817.1548, 33.70649
817.6369, 35.43634
818.1190, 36.43310
818.6011, 35.99725
819.0833, 34.88367
819.5654, 34.12300
820.0475, 33.71845
820.5296, 33.56915
821.0117, 33.69547
821.4938, 34.04086
821.9760, 34.84243
822.4581, 35.63782
822.9402, 36.11348
823.4223, 36.26491
823.9044, 36.07031
824.3865, 35.15835
824.8687, 34.45551
825.3508, 34.32660
825.8329, 34.56334
826.3150, 35.35666
826.7971, 36.30963
827.2792, 36.29808
827.7614, 34.80867
828.2435, 33.19538
828.7256, 33.54354
829.2077, 35.16010
829.6898, 35.03371
830.1719, 33.09660
830.6541, 32.01534
831.1362, 32.94100
831.6183, 34.47802
832.1004, 34.94224
832.5825, 34.35228
833.0646, 34.24205
833.5468, 35.08966
834.0289, 35.67421
834.5110, 35.72455
834.9931, 35.60185
835.4752, 35.41088
835.9573, 35.24284
836.4395, 35.32178
836.9216, 35.81485
837.4037, 36.18534
837.8858, 35.93095
838.3679, 35.58342
838.8500, 35.89948
839.3322, 36.57616
839.8143, 36.65963
840.2964, 35.86698
840.7785, 35.00720
841.2606, 35.09643
841.7427, 35.79807
842.2249, 35.50841
842.7070, 34.14813
843.1891, 33.95235
843.6712, 35.88449
844.1533, 37.68805
844.6354, 37.24434
845.1176, 35.08795
845.5997, 33.84797
846.0818, 34.21240
846.5639, 34.42741
847.0460, 34.53992
847.5281, 34.45950
848.0103, 33.80320
848.4924, 33.07501
848.9745, 33.09947
849.4566, 34.03708
849.9387, 35.01113
850.4208, 35.89394
850.9030, 36.32079
851.3851, 35.44862
851.8672, 34.04457
852.3493, 33.67321
852.8314, 34.53405
853.3135, 35.64723
853.7957, 36.32690
854.2778, 36.58638
854.7599, 36.34919
855.2420, 35.62609
855.7241, 34.86989
856.2062, 34.02826
856.6884, 33.73158
857.1705, 34.61542
857.6526, 35.85278
858.1347, 35.78017
858.6168, 33.88002
859.0989, 33.01888
859.5811, 34.33772
860.0632, 35.19203
860.5453, 34.58372
861.0274, 33.56434
861.5095, 32.88865
861.9916, 32.66695
862.4738, 33.01751
862.9559, 34.54118
863.4380, 35.56372
863.9201, 34.14718
864.4022, 32.19991
864.8843, 32.42567
865.3665, 34.31414
865.8486, 35.51257
866.3307, 35.04059
866.8128, 34.09205
867.2949, 34.22129
867.7770, 35.11842
868.2592, 35.39042
868.7413, 35.02866
869.2234, 34.50329
869.7055, 33.87371
870.1876, 33.44666
870.6697, 33.65007
871.1519, 34.26615
871.6340, 33.99724
872.1161, 31.86559
872.5981, 30.72802
873.0803, 31.72310
873.5624, 32.64400
874.0445, 32.38208
874.5266, 31.57797
875.0087, 31.18451
875.4908, 31.34315
875.9730, 31.48635
876.4551, 31.32714
876.9372, 31.19692
877.4193, 31.49968
877.9014, 31.84493
878.3835, 31.60776
878.8657, 30.83207
879.3478, 30.06083
879.8299, 29.56593
880.3120, 29.42480
880.7941, 29.97947
881.2762, 30.95676
881.7584, 31.50803
882.2405, 31.57194
882.7226, 31.15950
883.2047, 30.19968
883.6868, 29.38363
884.1689, 29.80746
884.6511, 31.40404
885.1332, 31.87574
885.6153, 30.78282
886.0974, 29.74058
886.5795, 28.80412
887.0616, 28.34185
887.5438, 29.02863
888.0259, 30.39178
888.5080, 30.97030
888.9901, 30.35678
889.4722, 29.85694
889.9543, 29.78126
890.4365, 29.72441
890.9186, 29.43568
891.4007, 29.05611
891.8828, 28.85479
892.3649, 28.82887
892.8470, 28.62176
893.3292, 27.86807
893.8113, 27.05485
894.2934, 26.55988
894.7755, 26.37058
895.2576, 26.50312
895.7397, 26.93418
896.2219, 27.68960
896.7040, 28.79666
897.1861, 29.77755
897.6682, 29.78269
898.1503, 28.95202
898.6324, 28.40908
899.1146, 28.17392
899.5967, 27.99725
900.0788, 27.79812
900.5609, 27.64643
901.0430, 27.59833
901.5251, 27.65916
902.0073, 27.90392
902.4894, 28.74619
902.9715, 28.90912
903.4536, 27.46749
903.9357, 26.34650
904.4178, 26.96794
904.9000, 28.12170
905.3821, 28.01785
905.8642, 26.45125
906.3463, 25.06996
906.8284, 23.85319
907.3105, 23.41012
907.7927, 24.87256
908.2748, 26.64766
908.7569, 26.72916
909.2390, 25.54752
909.7211, 25.21116
910.2032, 26.80713
910.6854, 28.53032
911.1675, 28.67806
911.6496, 27.90702
912.1317, 27.28406
912.6138, 26.72832
913.0959, 25.52028
913.5781, 23.52003
914.0602, 21.77085
914.5423, 21.21522
915.0244, 21.68917
915.5065, 23.14849
915.9886, 25.61367
916.4708, 26.17452
916.9529, 24.08807
917.4350, 22.20463
917.9171, 22.06664
918.3992, 23.06973
918.8813, 24.24792
919.3635, 25.68714
919.8456, 26.70431
920.3277, 27.19302
920.8098, 27.43539
921.2919, 27.41710
921.7740, 27.23359
922.2562, 26.76744
922.7383, 26.19274
923.2204, 26.06412
923.7025, 26.70245
924.1846, 27.12012
924.6667, 27.08772
925.1489, 26.74948
925.6310, 25.82396
926.1131, 24.84404
926.5952, 24.65330
927.0773, 25.25537
927.5594, 25.72828
928.0416, 25.52199
928.5237, 25.05709
929.0058, 24.46350
929.4879, 23.99414
929.9700, 24.21661
930.4521, 24.96925
930.9343, 25.56754
931.4164, 25.71642
931.8985, 25.51785
932.3806, 25.02080
932.8627, 24.29732
933.3448, 23.40008
933.8270, 22.39746
934.3091, 22.14741
934.7912, 22.86567
935.2733, 23.86753
935.7554, 24.74394
936.2375, 25.38383
936.7197, 25.41968
937.2018, 24.66345
937.6839, 24.46866
938.1660, 25.24562
938.6481, 25.50683
939.1302, 24.39935
939.6124, 23.02698
940.0945, 22.48077
940.5766, 22.69859
941.0587, 23.10532
941.5408, 24.01269
942.0229, 24.62618
942.5051, 24.59731
942.9872, 24.60900
943.4693, 25.31033
943.9514, 26.08849
944.4335, 25.97525
944.9156, 24.88983
945.3978, 23.90842
945.8799, 23.43163
946.3620, 23.10402
946.8441, 22.59447
947.3262, 22.26528
947.8083, 22.68308
948.2905, 23.58735
948.7726, 24.33806
949.2547, 24.70377
949.7368, 24.57295
950.2189, 23.34613
950.7010, 21.94588
951.1832, 21.69666
951.6653, 22.26789
952.1474, 22.89907
952.6295, 23.40534
953.1116, 23.82065
953.5938, 24.17559
954.0759, 24.40259
954.5580, 24.40419
955.0400, 24.18099
955.5222, 23.63364
956.0043, 22.77058
956.4864, 22.14236
956.9685, 21.94134
957.4506, 21.85969
957.9327, 21.56079
958.4149, 21.17957
958.8970, 21.34008
959.3791, 22.15760
959.8612, 23.02617
960.3433, 24.16156
960.8254, 24.59404
961.3076, 23.43916
961.7897, 21.90077
962.2718, 21.77349
962.7539, 23.10037
963.2360, 23.53599
963.7181, 22.22795
964.2003, 21.34224
964.6824, 21.01214
965.1645, 21.20235
965.6466, 22.30058
966.1287, 23.74958
966.6108, 24.66834
967.0930, 24.97806
967.5751, 24.79499
968.0572, 23.63285
968.5393, 22.62474
969.0214, 22.44362
969.5035, 22.43159
969.9857, 21.74162
970.4678, 20.72636
970.9499, 20.50315
971.4320, 21.51880
971.9141, 22.56354
972.3962, 22.99861
972.8784, 23.09382
973.3605, 23.01996
973.8426, 22.79679
974.3247, 22.32377
974.8068, 21.69136
975.2889, 21.24054
975.7711, 21.15160
976.2532, 21.35829
976.7353, 22.05206
977.2174, 22.85426
977.6995, 23.02826
978.1816, 22.67355
978.6638, 22.21214
979.1459, 21.77658
979.6280, 21.35728
980.1101, 20.91668
980.5922, 20.58453
981.0743, 20.78629
981.5565, 21.38831
982.0386, 21.51388
982.5207, 21.11283
983.0028, 20.66625
983.4849, 20.34078
983.9670, 20.23815
984.4492, 20.48799
984.9313, 21.03723
985.4134, 21.74187
985.8955, 22.69223
986.3776, 22.98379
986.8597, 22.28564
987.3419, 21.93574
987.8240, 22.88991
988.3061, 23.91817
988.7882, 23.06176
989.2703, 20.33966
989.7524, 18.88191
990.2346, 19.08739
990.7167, 19.73837
991.1988, 21.41513
991.6809, 22.46234
992.1630, 21.25351
992.6451, 19.18281
993.1273, 18.96423
993.6094, 20.98082
994.0915, 22.02360
994.5736, 20.93322
995.0557, 20.42678
995.5378, 21.49993
996.0200, 22.83754
996.5021, 23.90496
996.9842, 24.49186
997.4663, 24.05400
997.9484, 22.31255
998.4305, 21.12822
998.9127, 21.50961
999.3948, 21.86085
999.8769, 21.16852
1000.359, 20.41135
1000.841, 20.69279
1001.323, 21.68764
1001.805, 22.36908
1002.287, 22.43136
1002.770, 22.25587
1003.252, 21.77898
1003.734, 21.41131
1004.216, 21.50757
1004.698, 21.86033
1005.180, 22.29766
1005.662, 22.70837
1006.144, 22.85081
1006.627, 22.57997
1007.109, 22.33874
1007.591, 22.99656
1008.073, 23.46621
1008.555, 21.77806
1009.037, 19.16868
1009.519, 18.25939
1010.001, 19.24516
1010.483, 20.39414
1010.966, 20.70157
1011.448, 20.89278
1011.930, 22.15231
1012.412, 23.74183
1012.894, 24.21139
1013.376, 23.70358
1013.858, 22.65345
1014.340, 21.28470
1014.823, 20.23887
1015.305, 19.95984
1015.787, 20.26315
1016.269, 21.11843
1016.751, 22.28267
1017.233, 22.72231
1017.715, 22.49286
1018.197, 22.40911
1018.679, 22.69277
1019.162, 22.70195
1019.644, 21.79909
1020.126, 20.68391
1020.608, 21.35352
1021.090, 23.57897
1021.572, 23.96099
1022.054, 22.30724
1022.536, 21.00183
1023.018, 20.83246
1023.501, 20.93287
1023.983, 20.47964
1024.465, 19.78893
1024.947, 20.03525
1025.429, 21.36682
1025.911, 21.70410
1026.393, 20.73133
1026.875, 20.05474
1027.358, 20.19478
1027.840, 20.96267
1028.322, 22.36306
1028.804, 24.08274
1029.286, 24.77113
1029.768, 24.26759
1030.250, 23.32517
1030.732, 21.70279
1031.214, 20.36139
1031.697, 19.69865
1032.179, 19.32797
1032.661, 18.79062
1033.143, 18.21996
1033.625, 18.35065
1034.107, 19.65233
1034.589, 20.45287
1035.071, 20.43801
1035.553, 20.47474
1036.036, 20.92980
1036.518, 21.48467
1037.000, 21.78559
1037.482, 22.23576
1037.964, 22.19552
1038.446, 22.91754
1038.928, 23.37377
1039.410, 23.57006
1039.893, 23.48858
1040.375, 22.85617
1040.857, 22.15279
1041.339, 21.98882
1041.821, 21.36813
1042.303, 20.80066
1042.785, 20.66427
1043.267, 19.88307
1043.750, 19.85451
1044.232, 20.08250
1044.714, 20.85708
1045.196, 21.45220
1045.678, 20.83683
1046.160, 19.35532
1046.642, 18.69699
1047.124, 19.48121
1047.606, 20.04072
1048.089, 20.09349
1048.571, 19.96591
1049.053, 19.41335
1049.535, 19.03547
1050.017, 19.72998
1050.499, 21.14579
1050.981, 21.76106
1051.463, 20.95486
1051.945, 20.37446
1052.428, 20.69790
1052.910, 20.91580
1053.392, 20.30182
1053.874, 19.57554
1054.356, 19.44771
1054.838, 19.86264
1055.320, 20.53000
1055.802, 21.66377
1056.285, 22.09164
1056.767, 20.53183
1057.249, 19.33588
1057.731, 20.35056
1058.213, 21.73280
1058.695, 21.29732
1059.177, 19.59315
1059.659, 18.71426
1060.141, 19.22995
1060.624, 20.16555
1061.106, 21.85607
1061.588, 23.07000
1062.070, 23.00344
1062.552, 22.30364
1063.034, 21.30803
1063.516, 20.30711
1063.998, 19.98160
1064.480, 20.64563
1064.963, 20.74343
1065.445, 18.43480
1065.927, 16.90096
1066.409, 18.87866
1066.891, 21.53434
1067.373, 21.94416
1067.855, 20.73421
1068.337, 19.91656
1068.820, 19.97445
1069.302, 20.36906
1069.784, 21.38178
1070.266, 22.03901
1070.748, 21.42731
1071.230, 20.58177
1071.712, 20.67780
1072.194, 21.23864
1072.677, 20.98037
1073.159, 19.64611
1073.641, 18.59568
1074.123, 18.34095
1074.605, 18.61695
1075.087, 19.84369
1075.569, 21.03339
1076.051, 21.24439
1076.533, 20.80790
1077.016, 20.33360
1077.498, 19.97486
1077.980, 19.89141
1078.462, 20.42291
1078.944, 20.84723
1079.426, 20.88989
1079.908, 20.61509
1080.390, 19.82836
1080.872, 18.88615
1081.354, 18.27065
1081.837, 18.06489
1082.319, 18.13292
1082.801, 18.31432
1083.283, 18.97402
1083.765, 21.16534
1084.247, 22.97805
1084.729, 22.74326
1085.211, 21.42369
1085.694, 20.26712
1086.176, 19.43530
1086.658, 18.57973
1087.140, 17.41128
1087.622, 16.70588
1088.104, 17.05903
1088.586, 17.66896
1089.068, 18.04630
1089.551, 18.38186
1090.033, 19.22710
1090.515, 20.26489
1090.997, 20.13884
1091.479, 18.02155
1091.961, 16.87671
1092.443, 19.01216
1092.925, 20.94950
1093.407, 20.55390
1093.890, 19.35682
1094.372, 18.85721
1094.854, 18.86886
1095.336, 18.48289
1095.818, 17.43896
1096.300, 16.77733
1096.782, 17.03743
1097.264, 17.46204
1097.746, 17.78301
1098.229, 18.12438
1098.711, 18.74008
1099.193, 19.39277
1099.675, 19.59453
1100.157, 19.27796
1100.639, 19.02898
1101.121, 19.01445
1101.603, 19.05354
1102.086, 19.53057
1102.568, 19.58261
1103.050, 17.65482
1103.532, 15.56487
1104.014, 16.58220
1104.496, 20.45101
1104.978, 22.17044
1105.460, 18.95817
1105.943, 16.84116
1106.425, 17.66226
1106.907, 18.66586
1107.389, 18.51133
1107.871, 18.01234
1108.353, 18.29404
1108.835, 19.08392
1109.317, 18.87662
1109.799, 16.78126
1110.281, 15.62691
1110.764, 16.13423
1111.246, 16.91869
1111.728, 18.04560
1112.210, 18.88467
1112.692, 18.64594
1113.174, 17.79727
1113.656, 17.66462
1114.138, 18.60121
1114.621, 18.62722
1115.103, 16.63285
1115.585, 15.55468
1116.067, 16.23587
1116.549, 17.46412
1117.031, 19.02155
1117.513, 20.32555
1117.995, 20.25279
1118.478, 18.78268
1118.960, 17.92250
1119.442, 17.80151
1119.924, 18.03857
1120.406, 18.88472
1120.888, 19.49276
1121.370, 19.40494
1121.852, 19.06017
1122.334, 18.93815
1122.817, 19.00665
1123.299, 19.14531
1123.781, 19.49854
1124.263, 19.15981
1124.745, 17.67762
1125.227, 17.21932
1125.709, 18.80825
1126.191, 20.43490
1126.673, 20.39710
1127.156, 19.28391
1127.638, 18.46621
1128.120, 17.95115
1128.602, 17.66241
1129.084, 17.63190
1129.566, 17.41057
1130.048, 16.83848
1130.530, 16.86558
1131.013, 18.17845
1131.495, 19.62046
1131.977, 19.33040
1132.459, 17.76068
1132.941, 17.13915
1133.423, 17.40605
1133.905, 17.85854
1134.387, 18.40364
1134.870, 18.97622
1135.352, 19.55059
1135.834, 19.71245
1136.316, 19.00725
1136.798, 17.78297
1137.280, 16.50602
1137.762, 15.37629
1138.244, 15.21294
1138.726, 15.90933
1139.208, 16.91221
1139.691, 18.01120
1140.173, 18.83253
1140.655, 19.13436
1141.137, 19.20367
1141.619, 19.34972
1142.101, 19.55045
1142.583, 20.09764
1143.065, 20.54744
1143.548, 19.40132
1144.030, 17.12208
1144.512, 16.16171
1144.994, 17.40459
1145.476, 18.80072
1145.958, 18.38136
1146.440, 17.77899
1146.922, 19.23931
1147.405, 18.51545
1147.887, 20.53210
1148.369, 18.73492
1148.851, 17.98931
1149.333, 18.66736
1149.815, 19.60531
1150.297, 20.50146
1150.779, 20.88685
1151.261, 20.00885
1151.744, 19.04493
1152.226, 19.33415
1152.708, 19.68383
1153.190, 17.86799
1153.672, 14.86081
1154.154, 14.27933
1154.636, 17.39826
1155.118, 19.55841
1155.600, 18.53973
1156.083, 17.51136
1156.565, 17.57386
1157.047, 17.99546
1157.529, 18.78959
1158.011, 19.31295
1158.493, 18.00161
1158.975, 14.86320
1159.457, 13.86331
1159.940, 17.50062
1160.422, 19.55978
1160.904, 18.44646
1161.386, 17.81989
1161.868, 19.71682
1162.350, 21.61754
1162.832, 20.91766
1163.314, 18.57360
1163.796, 17.59542
1164.279, 18.23412
1164.761, 18.92959
1165.243, 19.83967
1165.725, 20.16221
1166.207, 19.54084
1166.689, 19.00581
1167.171, 19.13947
1167.653, 19.72657
1168.135, 20.56287
1168.618, 21.51831
1169.100, 21.87077
1169.582, 21.62188
1170.064, 20.76175
1170.546, 19.31202
1171.028, 18.28173
1171.510, 18.00708
1171.992, 18.33289
1172.474, 19.22785
1172.957, 20.16438
1173.439, 20.08620
1173.921, 19.35271
1174.403, 19.01784
1174.885, 18.98087
1175.367, 18.79839
1175.849, 18.44720
1176.331, 18.22156
1176.814, 18.24770
1177.296, 18.40409
1177.778, 18.71685
1178.260, 18.92417
1178.742, 18.46065
1179.224, 17.89813
1179.706, 18.12631
1180.188, 18.84119
1180.671, 19.43098
1181.153, 19.71463
1181.635, 19.55924
1182.117, 18.74109
1182.599, 18.07436
1183.081, 17.86206
1183.563, 18.09997
1184.045, 19.26760
1184.527, 20.47018
1185.010, 20.87900
1185.492, 20.60795
1185.974, 19.88013
1186.456, 18.66680
1186.938, 18.22016
1187.420, 19.45721
1187.902, 20.38613
1188.384, 20.52617
1188.866, 20.50083
1189.349, 20.52000
1189.831, 20.56517
1190.313, 20.66422
1190.795, 20.76335
1191.277, 20.60293
1191.759, 20.67627
1192.241, 20.83773
1192.723, 20.61813
1193.206, 21.04254
1193.688, 21.03806
1194.170, 20.69560
1194.652, 20.00189
1195.134, 19.23400
1195.616, 18.77784
1196.098, 18.59043
1196.580, 18.49973
1197.063, 18.50871
1197.545, 18.69392
1198.027, 19.03105
1198.509, 19.30056
1198.991, 19.42447
1199.473, 19.22585
1199.955, 18.52883
1200.437, 17.90474
1200.919, 18.43666
1201.401, 17.79399
1201.884, 18.80947
1202.366, 17.69206
1202.848, 17.44300
1203.330, 17.99523
1203.812, 18.76928
1204.294, 19.48389
1204.776, 19.35191
1205.258, 17.22076
1205.741, 15.49623
1206.223, 15.83950
1206.705, 17.05927
1207.187, 19.00727
1207.669, 20.72766
1208.151, 20.88193
1208.633, 19.86625
1209.115, 19.24453
1209.598, 19.35326
1210.080, 19.39160
1210.562, 19.08464
1211.044, 18.92555
1211.526, 19.22032
1212.008, 19.42279
1212.490, 19.25788
1212.972, 18.89253
1213.454, 18.45660
1213.937, 18.00464
1214.419, 17.81705
1214.901, 17.94498
1215.383, 18.10308
1215.865, 18.31549
1216.347, 18.36721
1216.829, 18.18098
1217.311, 18.06488
1217.793, 18.18778
1218.276, 18.58716
1218.758, 19.48877
1219.240, 20.46815
1219.722, 20.02010
1220.204, 18.64754
1220.686, 18.19133
1221.168, 18.57875
1221.650, 18.92594
1222.133, 19.02980
1222.615, 19.31517
1223.097, 20.09713
1223.579, 20.40730
1224.061, 18.97642
1224.543, 17.06891
1225.025, 15.14383
1225.507, 14.08884
1225.990, 15.87716
1226.472, 18.94775
1226.954, 19.98730
1227.436, 18.66292
1227.918, 17.79234
1228.400, 18.55661
1228.882, 19.04403
1229.364, 18.34273
1229.846, 17.90291
1230.328, 18.82468
1230.811, 19.66694
1231.293, 19.20873
1231.775, 18.00429
1232.257, 16.83875
1232.739, 15.72379
1233.221, 16.62827
1233.703, 20.42415
1234.185, 22.21821
1234.668, 21.32121
1235.150, 20.19855
1235.632, 19.60663
1236.114, 19.48189
1236.596, 19.85734
1237.078, 20.23690
1237.560, 19.42701
1238.042, 20.07174
1238.525, 18.49399
1239.007, 20.05135
1239.489, 20.22569
1239.971, 19.14052
1240.453, 18.37457
1240.935, 18.39356
1241.417, 18.66679
1241.899, 18.96644
1242.381, 19.07022
1242.864, 18.36446
1243.346, 17.87125
1243.828, 18.95692
1244.310, 20.30716
1244.792, 20.25200
1245.274, 19.28964
1245.756, 18.71510
1246.238, 18.72377
1246.720, 19.01616
1247.203, 20.04814
1247.685, 20.52630
1248.167, 20.00676
1248.649, 19.43808
1249.131, 18.82893
1249.613, 18.77840
1250.095, 20.08787
1250.577, 21.75385
1251.059, 21.70983
1251.542, 20.12504
1252.024, 19.04182
1252.506, 18.45295
1252.988, 17.54836
1253.470, 16.33881
1253.952, 16.80122
1254.434, 19.38528
1254.916, 21.25165
1255.399, 20.33350
1255.881, 18.47827
1256.363, 17.68640
1256.845, 17.64904
1257.327, 18.19783
1257.809, 19.02491
1258.291, 19.72361
1258.773, 20.29488
1259.255, 21.00857
1259.738, 21.80623
1260.220, 21.96717
1260.702, 20.97022
1261.184, 20.06231
1261.666, 19.40831
1262.148, 19.22788
1262.630, 20.40024
1263.112, 21.22619
1263.594, 19.84716
1264.077, 17.90450
1264.559, 18.00718
1265.041, 19.82827
1265.523, 20.49860
1266.005, 19.74017
1266.487, 19.51332
1266.969, 19.94681
1267.451, 20.13462
1267.934, 19.85123
1268.416, 19.77468
1268.898, 20.30456
1269.380, 20.83831
1269.862, 20.51052
1270.344, 19.98734
1270.826, 21.03071
1271.308, 20.11721
1271.791, 21.51905
1272.273, 19.26624
1272.755, 17.69885
1273.237, 17.27672
1273.719, 18.20492
1274.201, 20.67387
1274.683, 22.40540
1275.165, 22.21431
1275.647, 21.34928
1276.130, 19.30384
1276.612, 17.85796
1277.094, 18.38853
1277.576, 19.77231
1278.058, 21.17923
1278.540, 22.28196
1279.022, 21.93826
1279.504, 22.71829
1279.986, 23.06554
1280.469, 22.33169
1280.951, 23.13778
1281.433, 21.73682
1281.915, 20.20056
1282.397, 19.26392
1282.879, 19.05768
1283.361, 19.75087
1283.843, 20.78293
1284.326, 21.48980
1284.808, 21.86990
##END=



