##NAMES=Cobaltite
##RRUFFID=R070372
##IDEAL CHEMISTRY=Co^3+^(AsS)^3-^
##LOCALITY=Hakansboda, Vastmanland, Sweden
##OWNER=RRUFF
##SOURCE=Royal Ontario Museum
##DESCRIPTION=Light grey metallic pyritohedron
##STATUS=The identification of this mineral has been confirmed by X-ray diffraction.
##URL=rruff.info/R070372
163.1611, 3017.690
163.6432, 3033.728
164.1253, 3051.546
164.6075, 3062.509
165.0896, 3066.310
165.5717, 3068.231
166.0538, 3066.581
166.5359, 3065.728
167.0180, 3071.826
167.5002, 3096.157
167.9823, 3122.975
168.4644, 3137.134
168.9465, 3135.161
169.4286, 3136.994
169.9107, 3165.818
170.3929, 3209.493
170.8750, 3243.204
171.3571, 3247.354
171.8392, 3237.721
172.3213, 3230.320
172.8034, 3227.242
173.2856, 3226.329
173.7677, 3225.297
174.2498, 3224.679
174.7319, 3226.290
175.2140, 3230.978
175.6961, 3238.610
176.1783, 3250.723
176.6604, 3271.271
177.1425, 3289.500
177.6246, 3287.291
178.1067, 3267.666
178.5888, 3250.095
179.0710, 3251.577
179.5531, 3265.634
180.0352, 3278.166
180.5173, 3285.264
180.9994, 3289.714
181.4815, 3295.072
181.9637, 3301.408
182.4458, 3309.419
182.9279, 3323.530
183.4100, 3340.904
183.8921, 3350.536
184.3742, 3344.704
184.8564, 3331.141
185.3385, 3328.261
185.8206, 3336.519
186.3027, 3349.619
186.7848, 3363.183
187.2669, 3376.870
187.7491, 3388.742
188.2312, 3399.927
188.7133, 3408.837
189.1954, 3406.621
189.6775, 3390.975
190.1596, 3374.601
190.6418, 3374.788
191.1239, 3391.171
191.6060, 3407.878
192.0881, 3418.261
192.5702, 3423.049
193.0524, 3429.657
193.5345, 3439.372
194.0166, 3447.561
194.4987, 3444.540
194.9808, 3429.442
195.4629, 3416.188
195.9451, 3410.873
196.4272, 3413.344
196.9093, 3421.908
197.3914, 3438.737
197.8735, 3458.160
198.3556, 3468.205
198.8378, 3467.377
199.3199, 3466.504
199.8020, 3472.314
200.2841, 3485.370
200.7662, 3495.652
201.2483, 3501.723
201.7305, 3505.499
202.2126, 3511.945
202.6947, 3521.702
203.1768, 3531.737
203.6589, 3540.516
204.1410, 3547.986
204.6232, 3554.183
205.1053, 3559.561
205.5874, 3563.468
206.0695, 3563.145
206.5516, 3557.446
207.0337, 3550.531
207.5159, 3543.071
207.9980, 3532.956
208.4801, 3534.281
208.9622, 3554.229
209.4443, 3586.842
209.9264, 3600.872
210.4086, 3589.730
210.8907, 3573.197
211.3728, 3566.670
211.8549, 3572.718
212.3370, 3579.643
212.8191, 3584.865
213.3013, 3589.143
213.7834, 3601.505
214.2655, 3628.425
214.7476, 3653.059
215.2297, 3658.004
215.7118, 3633.850
216.1940, 3616.352
216.6761, 3612.932
217.1582, 3622.944
217.6403, 3633.162
218.1224, 3643.621
218.6045, 3654.081
219.0867, 3664.261
219.5688, 3673.875
220.0509, 3683.925
220.5330, 3695.712
221.0151, 3709.567
221.4972, 3715.599
221.9794, 3707.990
222.4615, 3699.111
222.9436, 3704.021
223.4257, 3732.652
223.9078, 3754.414
224.3899, 3759.239
224.8721, 3745.135
225.3542, 3742.131
225.8363, 3756.884
226.3184, 3776.394
226.8005, 3784.639
227.2827, 3775.092
227.7648, 3766.629
228.2469, 3764.568
228.7290, 3770.056
229.2111, 3772.108
229.6932, 3765.168
230.1754, 3759.262
230.6575, 3769.510
231.1396, 3807.701
231.6217, 3841.023
232.1038, 3859.413
232.5859, 3859.786
233.0681, 3861.288
233.5502, 3862.097
234.0323, 3865.302
234.5144, 3876.327
234.9965, 3900.204
235.4786, 3923.252
235.9608, 3940.609
236.4429, 3949.910
236.9250, 3963.990
237.4071, 3986.383
237.8892, 4011.259
238.3713, 4028.756
238.8535, 4033.880
239.3356, 4040.032
239.8177, 4052.511
240.2998, 4074.512
240.7819, 4090.629
241.2640, 4100.192
241.7462, 4104.526
242.2283, 4105.772
242.7104, 4103.153
243.1925, 4098.657
243.6746, 4091.842
244.1567, 4080.188
244.6389, 4074.924
245.1210, 4077.142
245.6031, 4085.050
246.0852, 4097.275
246.5673, 4121.281
247.0494, 4136.725
247.5316, 4133.263
248.0137, 4101.248
248.4958, 4083.563
248.9779, 4085.673
249.4600, 4099.175
249.9421, 4109.171
250.4243, 4116.327
250.9064, 4118.908
251.3885, 4115.294
251.8706, 4102.840
252.3527, 4092.681
252.8348, 4084.239
253.3170, 4078.436
253.7991, 4077.603
254.2812, 4083.697
254.7633, 4091.036
255.2454, 4097.966
255.7275, 4104.898
256.2097, 4109.649
256.6918, 4111.955
257.1739, 4112.213
257.6560, 4110.510
258.1381, 4104.902
258.6202, 4101.442
259.1024, 4104.770
259.5845, 4119.569
260.0666, 4120.030
260.5487, 4098.742
261.0308, 4068.741
261.5129, 4053.720
261.9951, 4058.093
262.4772, 4067.322
262.9593, 4078.290
263.4414, 4093.976
263.9235, 4095.178
264.4056, 4073.440
264.8878, 4045.124
265.3699, 4041.411
265.8520, 4071.240
266.3341, 4100.111
266.8162, 4114.938
267.2983, 4113.917
267.7805, 4108.529
268.2626, 4096.206
268.7447, 4082.432
269.2268, 4076.767
269.7089, 4080.354
270.1910, 4087.948
270.6732, 4098.142
271.1553, 4111.056
271.6374, 4125.795
272.1195, 4143.845
272.6016, 4161.571
273.0837, 4172.597
273.5659, 4176.494
274.0480, 4176.219
274.5301, 4170.846
275.0122, 4160.041
275.4943, 4155.193
275.9764, 4157.439
276.4586, 4163.506
276.9407, 4167.191
277.4228, 4167.476
277.9049, 4173.723
278.3870, 4194.060
278.8691, 4227.350
279.3513, 4246.214
279.8334, 4248.360
280.3155, 4241.967
280.7976, 4235.513
281.2798, 4228.854
281.7619, 4226.899
282.2440, 4233.782
282.7261, 4247.974
283.2082, 4258.417
283.6903, 4265.277
284.1725, 4267.784
284.6546, 4263.539
285.1367, 4252.805
285.6188, 4241.390
286.1009, 4230.881
286.5830, 4221.313
287.0652, 4211.015
287.5473, 4199.087
288.0294, 4192.333
288.5115, 4204.543
288.9936, 4232.718
289.4757, 4251.494
289.9579, 4248.722
290.4400, 4231.492
290.9221, 4218.059
291.4042, 4208.455
291.8863, 4202.214
292.3684, 4200.305
292.8506, 4201.850
293.3327, 4202.880
293.8148, 4201.028
294.2969, 4198.532
294.7790, 4200.949
295.2611, 4208.301
295.7433, 4215.065
296.2254, 4214.559
296.7075, 4209.478
297.1896, 4207.853
297.6717, 4215.301
298.1538, 4224.494
298.6360, 4223.349
299.1181, 4212.510
299.6002, 4199.704
300.0823, 4187.474
300.5644, 4177.758
301.0465, 4174.791
301.5287, 4183.217
302.0108, 4194.380
302.4929, 4199.326
302.9750, 4198.512
303.4571, 4194.283
303.9392, 4182.729
304.4214, 4170.353
304.9035, 4166.856
305.3856, 4179.422
305.8677, 4193.722
306.3498, 4194.159
306.8319, 4184.751
307.3141, 4179.739
307.7962, 4191.856
308.2783, 4210.450
308.7604, 4225.701
309.2425, 4235.649
309.7246, 4241.282
310.2068, 4239.206
310.6889, 4232.805
311.1710, 4230.819
311.6531, 4244.680
312.1352, 4260.173
312.6173, 4264.357
313.0995, 4249.423
313.5816, 4239.918
314.0637, 4257.455
314.5458, 4287.814
315.0279, 4304.387
315.5100, 4279.392
315.9922, 4251.179
316.4743, 4241.195
316.9564, 4255.595
317.4385, 4272.955
317.9206, 4290.846
318.4027, 4306.424
318.8849, 4315.708
319.3670, 4315.741
319.8491, 4310.962
320.3312, 4299.106
320.8133, 4276.940
321.2954, 4266.801
321.7776, 4284.147
322.2597, 4311.247
322.7418, 4329.200
323.2239, 4325.374
323.7060, 4322.055
324.1881, 4324.313
324.6703, 4332.644
325.1524, 4342.439
325.6345, 4356.413
326.1166, 4370.030
326.5987, 4379.715
327.0808, 4379.496
327.5630, 4382.416
328.0451, 4392.912
328.5272, 4410.314
329.0093, 4419.686
329.4914, 4414.861
329.9735, 4407.422
330.4557, 4404.912
330.9378, 4410.344
331.4199, 4415.200
331.9020, 4416.452
332.3841, 4416.228
332.8662, 4427.230
333.3484, 4460.575
333.8305, 4488.116
334.3126, 4490.437
334.7947, 4453.535
335.2768, 4435.489
335.7589, 4444.378
336.2411, 4470.848
336.7232, 4492.721
337.2053, 4509.702
337.6874, 4522.456
338.1695, 4529.251
338.6516, 4528.622
339.1338, 4536.461
339.6159, 4557.323
340.0980, 4579.783
340.5801, 4579.843
341.0622, 4554.490
341.5443, 4534.611
342.0265, 4534.939
342.5086, 4553.260
342.9907, 4569.820
343.4728, 4584.696
343.9549, 4596.949
344.4370, 4604.936
344.9192, 4608.817
345.4013, 4610.192
345.8834, 4608.277
346.3655, 4604.585
346.8476, 4602.908
347.3297, 4603.246
347.8119, 4605.404
348.2940, 4607.985
348.7761, 4612.107
349.2582, 4621.552
349.7403, 4641.022
350.2225, 4662.792
350.7046, 4675.943
351.1867, 4681.190
351.6688, 4683.093
352.1509, 4680.625
352.6331, 4678.037
353.1152, 4682.660
353.5973, 4699.301
354.0794, 4717.534
354.5615, 4732.845
355.0436, 4743.123
355.5258, 4741.940
356.0079, 4709.347
356.4900, 4672.849
356.9721, 4659.073
357.4542, 4678.213
357.9363, 4699.363
358.4185, 4705.297
358.9006, 4701.510
359.3827, 4697.513
359.8648, 4691.526
360.3469, 4690.633
360.8290, 4703.615
361.3112, 4734.754
361.7933, 4753.240
362.2754, 4735.786
362.7575, 4705.864
363.2396, 4688.915
363.7217, 4707.820
364.2039, 4723.330
364.6860, 4721.282
365.1681, 4701.211
365.6502, 4689.895
366.1323, 4698.477
366.6144, 4711.750
367.0966, 4719.237
367.5787, 4711.639
368.0608, 4709.250
368.5429, 4717.345
369.0250, 4732.943
369.5071, 4740.542
369.9893, 4736.690
370.4714, 4728.896
370.9535, 4720.123
371.4356, 4708.601
371.9177, 4700.718
372.3998, 4698.833
372.8820, 4699.450
373.3641, 4694.736
373.8462, 4683.564
374.3283, 4669.961
374.8104, 4653.689
375.2925, 4633.674
375.7747, 4623.614
376.2568, 4626.460
376.7389, 4633.235
377.2210, 4629.028
377.7031, 4612.531
378.1852, 4604.371
378.6674, 4614.104
379.1495, 4637.021
379.6316, 4653.890
380.1137, 4664.340
380.5958, 4670.816
381.0779, 4676.407
381.5601, 4680.253
382.0422, 4676.782
382.5243, 4661.145
383.0064, 4642.220
383.4885, 4636.833
383.9706, 4643.215
384.4528, 4648.707
384.9349, 4640.305
385.4170, 4626.498
385.8991, 4622.049
386.3812, 4630.909
386.8633, 4643.425
387.3455, 4653.525
387.8276, 4660.520
388.3097, 4662.928
388.7918, 4649.878
389.2739, 4638.376
389.7560, 4645.313
390.2382, 4673.567
390.7203, 4700.933
391.2024, 4720.839
391.6845, 4731.418
392.1666, 4730.655
392.6487, 4700.048
393.1309, 4674.509
393.6130, 4672.299
394.0951, 4691.321
394.5772, 4705.634
395.0593, 4706.639
395.5414, 4702.142
396.0236, 4696.976
396.5057, 4688.038
396.9878, 4682.912
397.4699, 4681.881
397.9520, 4685.169
398.4341, 4693.794
398.9163, 4720.833
399.3984, 4739.551
399.8805, 4737.703
400.3626, 4704.248
400.8447, 4683.513
401.3268, 4681.148
401.8090, 4687.357
402.2911, 4687.622
402.7732, 4678.256
403.2553, 4672.757
403.7374, 4676.206
404.2195, 4687.913
404.7017, 4694.397
405.1838, 4693.803
405.6659, 4693.063
406.1480, 4701.723
406.6301, 4720.122
407.1122, 4727.063
407.5944, 4714.267
408.0765, 4692.443
408.5586, 4689.846
409.0407, 4706.077
409.5228, 4721.932
410.0049, 4722.916
410.4871, 4713.586
410.9692, 4707.055
411.4513, 4705.235
411.9334, 4703.758
412.4155, 4692.628
412.8976, 4676.908
413.3798, 4671.364
413.8619, 4695.850
414.3440, 4726.122
414.8261, 4733.861
415.3082, 4718.583
415.7903, 4703.473
416.2725, 4706.838
416.7546, 4717.536
417.2367, 4722.641
417.7188, 4705.614
418.2009, 4695.872
418.6830, 4715.021
419.1652, 4754.878
419.6473, 4784.688
420.1294, 4792.165
420.6115, 4788.645
421.0937, 4777.691
421.5758, 4749.929
422.0579, 4736.557
422.5400, 4753.756
423.0221, 4785.186
423.5042, 4804.332
423.9864, 4798.831
424.4685, 4793.777
424.9506, 4795.986
425.4327, 4806.445
425.9148, 4810.742
426.3969, 4805.879
426.8791, 4798.282
427.3612, 4793.911
427.8433, 4794.604
428.3254, 4792.529
428.8075, 4785.524
429.2896, 4775.432
429.7718, 4768.889
430.2539, 4766.386
430.7360, 4764.698
431.2181, 4759.912
431.7002, 4752.740
432.1823, 4755.205
432.6645, 4769.734
433.1466, 4787.830
433.6287, 4795.688
434.1108, 4795.725
434.5929, 4800.317
435.0750, 4820.142
435.5572, 4845.242
436.0393, 4857.568
436.5214, 4857.508
437.0035, 4853.308
437.4856, 4849.068
437.9677, 4845.407
438.4499, 4843.070
438.9320, 4841.692
439.4141, 4842.632
439.8962, 4847.001
440.3783, 4854.444
440.8604, 4864.178
441.3426, 4885.636
441.8247, 4901.757
442.3068, 4898.786
442.7889, 4869.618
443.2710, 4848.634
443.7531, 4852.283
444.2353, 4865.968
444.7174, 4873.616
445.1995, 4861.881
445.6816, 4856.063
446.1637, 4864.068
446.6458, 4884.082
447.1280, 4897.245
447.6101, 4898.798
448.0922, 4898.765
448.5743, 4903.692
449.0564, 4919.058
449.5385, 4923.705
450.0207, 4912.348
450.5028, 4894.390
450.9849, 4889.243
451.4670, 4899.866
451.9491, 4908.242
452.4312, 4904.134
452.9134, 4890.460
453.3955, 4892.065
453.8776, 4910.556
454.3597, 4932.609
454.8418, 4946.194
455.3239, 4952.428
455.8061, 4954.994
456.2882, 4953.694
456.7703, 4950.785
457.2524, 4947.397
457.7345, 4944.507
458.2166, 4946.132
458.6988, 4963.114
459.1809, 4981.622
459.6630, 4984.163
460.1451, 4966.992
460.6272, 4948.787
461.1093, 4941.459
461.5915, 4940.007
462.0736, 4938.400
462.5557, 4931.813
463.0378, 4927.482
463.5199, 4927.824
464.0020, 4932.729
464.4842, 4941.150
464.9663, 4955.963
465.4484, 4971.919
465.9305, 4986.762
466.4126, 5004.419
466.8947, 5013.974
467.3769, 5011.277
467.8590, 5002.307
468.3411, 4996.723
468.8232, 4996.023
469.3053, 4995.867
469.7874, 4995.409
470.2696, 4994.611
470.7517, 4992.942
471.2338, 4990.642
471.7159, 4986.779
472.1980, 4976.999
472.6801, 4961.686
473.1623, 4960.179
473.6444, 4979.556
474.1265, 5005.246
474.6086, 5009.727
475.0907, 4996.059
475.5728, 4984.043
476.0550, 4981.686
476.5371, 4988.537
477.0192, 5009.941
477.5013, 5046.462
477.9834, 5074.716
478.4655, 5067.849
478.9477, 5044.598
479.4298, 5029.731
479.9119, 5035.548
480.3940, 5044.981
480.8761, 5049.641
481.3582, 5050.963
481.8404, 5053.001
482.3225, 5055.885
482.8046, 5060.766
483.2867, 5068.941
483.7688, 5082.115
484.2509, 5093.008
484.7331, 5098.748
485.2152, 5103.064
485.6973, 5110.120
486.1794, 5125.779
486.6615, 5133.935
487.1436, 5130.687
487.6258, 5118.188
488.1079, 5105.278
488.5900, 5090.177
489.0721, 5079.861
489.5542, 5082.109
490.0363, 5097.133
490.5185, 5098.364
491.0006, 5082.096
491.4827, 5062.106
491.9648, 5057.554
492.4470, 5065.935
492.9291, 5073.654
493.4112, 5074.395
493.8933, 5073.313
494.3754, 5079.389
494.8575, 5091.606
495.3397, 5103.195
495.8218, 5111.888
496.3039, 5116.705
496.7860, 5114.772
497.2681, 5103.146
497.7502, 5094.844
498.2324, 5098.601
498.7145, 5109.277
499.1966, 5119.965
499.6787, 5131.649
500.1608, 5139.925
500.6429, 5139.735
501.1251, 5132.103
501.6072, 5133.215
502.0893, 5158.437
502.5714, 5180.035
503.0535, 5183.453
503.5356, 5156.397
504.0178, 5140.817
504.4999, 5139.953
504.9820, 5147.821
505.4641, 5157.492
505.9462, 5170.555
506.4283, 5176.193
506.9105, 5166.649
507.3926, 5148.306
507.8747, 5147.521
508.3568, 5164.911
508.8389, 5189.325
509.3210, 5224.037
509.8032, 5259.614
510.2853, 5264.013
510.7674, 5226.317
511.2495, 5187.173
511.7316, 5199.535
512.2137, 5240.727
512.6959, 5264.473
513.1780, 5231.867
513.6601, 5191.919
514.1422, 5175.487
514.6243, 5180.588
515.1064, 5190.955
515.5886, 5210.117
516.0707, 5225.685
516.5528, 5228.280
517.0349, 5206.048
517.5170, 5193.298
517.9991, 5201.697
518.4813, 5218.105
518.9634, 5225.145
519.4455, 5211.908
519.9276, 5208.468
520.4097, 5224.471
520.8918, 5256.039
521.3740, 5280.231
521.8561, 5297.021
522.3382, 5306.525
522.8203, 5301.896
523.3024, 5284.979
523.7845, 5293.840
524.2667, 5337.582
524.7488, 5380.436
525.2309, 5369.632
525.7130, 5319.609
526.1951, 5281.144
526.6772, 5277.362
527.1594, 5288.012
527.6415, 5291.803
528.1236, 5289.909
528.6057, 5287.518
529.0878, 5285.472
529.5699, 5285.461
530.0521, 5291.385
530.5342, 5307.148
531.0163, 5313.420
531.4984, 5287.200
531.9805, 5255.604
532.4626, 5247.313
532.9448, 5306.595
533.4269, 5340.226
533.9090, 5324.337
534.3911, 5273.779
534.8732, 5246.971
535.3553, 5250.277
535.8375, 5265.409
536.3196, 5289.168
536.8017, 5323.058
537.2838, 5337.534
537.7659, 5328.597
538.2480, 5313.854
538.7302, 5312.725
539.2123, 5323.344
539.6944, 5334.091
540.1765, 5345.061
540.6586, 5350.277
541.1407, 5333.134
541.6229, 5300.975
542.1050, 5279.878
542.5871, 5292.013
543.0692, 5316.099
543.5513, 5333.812
544.0334, 5344.041
544.5156, 5354.112
544.9977, 5371.126
545.4798, 5387.279
545.9619, 5396.032
546.4440, 5391.549
546.9261, 5386.518
547.4083, 5381.845
547.8904, 5377.831
548.3725, 5375.146
548.8546, 5374.530
549.3367, 5374.069
549.8188, 5373.864
550.3010, 5373.682
550.7831, 5368.191
551.2652, 5353.553
551.7473, 5346.435
552.2294, 5367.924
552.7115, 5413.424
553.1937, 5432.209
553.6758, 5416.306
554.1579, 5390.129
554.6400, 5382.659
555.1221, 5389.327
555.6042, 5396.950
556.0864, 5398.053
556.5685, 5400.957
557.0506, 5419.106
557.5327, 5447.388
558.0148, 5466.421
558.4969, 5458.550
558.9791, 5444.692
559.4612, 5438.170
559.9433, 5442.335
560.4254, 5443.733
560.9075, 5440.833
561.3896, 5433.521
561.8718, 5420.423
562.3539, 5384.087
562.8360, 5373.918
563.3181, 5408.125
563.8002, 5463.779
564.2823, 5482.105
564.7645, 5454.504
565.2466, 5427.395
565.7287, 5418.814
566.2108, 5425.758
566.6929, 5436.545
567.1750, 5451.383
567.6572, 5463.371
568.1393, 5463.189
568.6214, 5456.404
569.1035, 5454.436
569.5856, 5459.802
570.0677, 5467.015
570.5499, 5476.683
571.0320, 5484.171
571.5141, 5482.274
571.9962, 5445.693
572.4783, 5421.762
572.9604, 5441.736
573.4426, 5495.521
573.9247, 5530.781
574.4068, 5524.010
574.8889, 5510.493
575.3710, 5503.634
575.8531, 5505.674
576.3353, 5501.639
576.8174, 5485.596
577.2995, 5472.341
577.7816, 5478.209
578.2637, 5505.128
578.7458, 5532.321
579.2280, 5559.896
579.7101, 5580.779
580.1922, 5576.164
580.6743, 5550.529
581.1564, 5529.169
581.6385, 5524.974
582.1207, 5531.009
582.6028, 5541.584
583.0849, 5555.781
583.5670, 5567.150
584.0491, 5568.912
584.5313, 5568.199
585.0134, 5572.532
585.4955, 5587.782
585.9776, 5592.433
586.4597, 5563.923
586.9418, 5529.173
587.4240, 5519.806
587.9061, 5558.092
588.3882, 5588.133
588.8703, 5603.978
589.3524, 5607.768
589.8345, 5603.637
590.3167, 5588.860
590.7988, 5576.641
591.2809, 5573.876
591.7630, 5578.642
592.2451, 5583.764
592.7272, 5589.533
593.2094, 5588.511
593.6915, 5561.077
594.1736, 5525.165
594.6557, 5519.517
595.1378, 5556.686
595.6199, 5597.572
596.1021, 5615.530
596.5842, 5617.997
597.0663, 5615.566
597.5485, 5601.819
598.0306, 5594.286
598.5127, 5603.669
598.9948, 5625.307
599.4769, 5638.658
599.9590, 5632.811
600.4412, 5630.636
600.9233, 5643.023
601.4054, 5672.018
601.8875, 5681.969
602.3696, 5666.827
602.8517, 5647.278
603.3339, 5640.733
603.8160, 5646.325
604.2981, 5655.635
604.7802, 5669.031
605.2623, 5681.068
605.7444, 5683.527
606.2266, 5678.781
606.7087, 5673.234
607.1908, 5671.276
607.6729, 5667.270
608.1550, 5648.862
608.6371, 5623.269
609.1193, 5613.309
609.6014, 5643.960
610.0835, 5679.003
610.5656, 5702.624
611.0477, 5713.430
611.5298, 5714.481
612.0120, 5694.928
612.4941, 5676.792
612.9762, 5676.685
613.4583, 5701.872
613.9404, 5718.703
614.4225, 5724.893
614.9047, 5723.945
615.3868, 5719.107
615.8689, 5710.712
616.3510, 5703.688
616.8331, 5699.604
617.3152, 5697.455
617.7974, 5695.824
618.2795, 5694.804
618.7616, 5694.638
619.2437, 5692.817
619.7258, 5693.856
620.2079, 5704.736
620.6901, 5725.500
621.1722, 5738.982
621.6543, 5728.056
622.1364, 5715.745
622.6185, 5718.521
623.1006, 5749.325
623.5828, 5768.050
624.0649, 5770.401
624.5470, 5764.611
625.0291, 5758.364
625.5112, 5750.019
625.9933, 5751.522
626.4755, 5768.772
626.9576, 5791.892
627.4397, 5797.511
627.9218, 5788.035
628.4039, 5781.806
628.8860, 5793.893
629.3682, 5811.285
629.8503, 5812.815
630.3324, 5800.933
630.8145, 5794.404
631.2966, 5813.212
631.7787, 5835.033
632.2609, 5842.823
632.7430, 5830.507
633.2251, 5819.571
633.7072, 5815.347
634.1893, 5813.491
634.6714, 5809.788
635.1536, 5799.915
635.6357, 5798.771
636.1178, 5811.389
636.5999, 5829.043
637.0820, 5834.594
637.5641, 5827.496
638.0463, 5820.878
638.5284, 5820.214
639.0105, 5821.536
639.4926, 5814.617
639.9747, 5801.190
640.4568, 5791.448
640.9390, 5793.194
641.4211, 5800.305
641.9032, 5809.049
642.3853, 5819.096
642.8674, 5824.954
643.3495, 5821.587
643.8317, 5815.140
644.3138, 5809.107
644.7959, 5798.942
645.2780, 5799.993
645.7601, 5820.693
646.2422, 5845.186
646.7244, 5853.963
647.2065, 5843.965
647.6886, 5832.495
648.1707, 5819.870
648.6528, 5811.169
649.1349, 5821.178
649.6171, 5847.061
650.0992, 5869.024
650.5813, 5874.733
651.0634, 5873.403
651.5455, 5877.230
652.0276, 5884.765
652.5098, 5888.020
652.9919, 5877.611
653.4740, 5865.583
653.9561, 5859.916
654.4382, 5862.578
654.9203, 5864.266
655.4025, 5860.783
655.8846, 5858.457
656.3667, 5863.744
656.8488, 5884.867
657.3309, 5885.082
657.8130, 5853.968
658.2952, 5818.374
658.7773, 5822.095
659.2594, 5861.415
659.7415, 5891.860
660.2236, 5902.115
660.7057, 5897.696
661.1879, 5876.677
661.6700, 5846.360
662.1521, 5827.437
662.6342, 5839.560
663.1163, 5857.968
663.5984, 5868.044
664.0806, 5870.321
664.5627, 5872.767
665.0448, 5878.875
665.5269, 5884.065
666.0090, 5886.114
666.4911, 5884.491
666.9733, 5883.022
667.4554, 5880.333
667.9375, 5880.521
668.4196, 5891.204
668.9017, 5911.654
669.3839, 5915.130
669.8660, 5896.017
670.3481, 5875.133
670.8302, 5877.828
671.3123, 5896.965
671.7944, 5918.510
672.2766, 5944.651
672.7587, 5961.084
673.2408, 5945.000
673.7229, 5914.139
674.2050, 5902.907
674.6871, 5950.956
675.1693, 5987.094
675.6514, 5986.571
676.1335, 5956.687
676.6156, 5933.889
677.0977, 5918.163
677.5798, 5909.729
678.0620, 5910.455
678.5441, 5919.408
679.0262, 5929.985
679.5083, 5942.785
679.9904, 5948.713
680.4725, 5930.224
680.9547, 5903.006
681.4368, 5897.274
681.9189, 5918.427
682.4010, 5942.958
682.8831, 5960.127
683.3652, 5970.089
683.8474, 5972.201
684.3295, 5959.037
684.8116, 5949.599
685.2937, 5949.462
685.7758, 5953.250
686.2579, 5953.484
686.7401, 5947.018
687.2222, 5946.436
687.7043, 5956.807
688.1864, 5971.668
688.6685, 5974.541
689.1506, 5966.038
689.6328, 5955.980
690.1149, 5946.014
690.5970, 5938.763
691.0791, 5940.752
691.5612, 5950.070
692.0433, 5956.923
692.5255, 5952.179
693.0076, 5946.511
693.4897, 5948.309
693.9718, 5959.192
694.4539, 5964.468
694.9360, 5950.491
695.4182, 5941.293
695.9003, 5953.143
696.3824, 5995.046
696.8645, 6017.636
697.3466, 6017.100
697.8287, 6007.249
698.3109, 6000.712
698.7930, 5997.338
699.2751, 5997.075
699.7572, 6000.835
700.2393, 6004.328
700.7214, 6004.112
701.2036, 6000.340
701.6857, 5993.001
702.1678, 5969.717
702.6499, 5957.321
703.1320, 5977.693
703.6141, 6016.095
704.0963, 6034.819
704.5784, 6017.964
705.0605, 6003.322
705.5426, 5999.784
706.0247, 6004.521
706.5068, 6006.155
706.9890, 6005.000
707.4711, 5998.208
707.9532, 5977.557
708.4353, 5951.681
708.9174, 5943.755
709.3995, 5952.827
709.8817, 5970.536
710.3638, 6002.127
710.8459, 6032.581
711.3280, 6045.838
711.8101, 6038.323
712.2922, 6032.661
712.7744, 6033.891
713.2565, 6040.234
713.7386, 6051.785
714.2207, 6076.274
714.7028, 6084.598
715.1849, 6071.880
715.6671, 6051.577
716.1492, 6035.197
716.6313, 6023.310
717.1134, 6022.769
717.5955, 6036.971
718.0776, 6055.692
718.5598, 6071.487
719.0419, 6081.890
719.5240, 6081.611
720.0061, 6055.482
720.4882, 6034.512
720.9703, 6038.990
721.4525, 6058.505
721.9346, 6069.405
722.4167, 6064.994
722.8988, 6055.919
723.3809, 6040.071
723.8630, 6021.400
724.3452, 6016.950
724.8273, 6028.104
725.3094, 6043.830
725.7915, 6064.984
726.2736, 6084.789
726.7557, 6078.084
727.2379, 6048.838
727.7200, 6028.296
728.2021, 6047.571
728.6842, 6076.372
729.1663, 6088.320
729.6484, 6080.610
730.1306, 6076.551
730.6127, 6090.606
731.0948, 6103.504
731.5769, 6103.990
732.0590, 6088.225
732.5411, 6076.102
733.0233, 6068.381
733.5054, 6062.597
733.9875, 6053.753
734.4696, 6043.506
734.9517, 6047.138
735.4338, 6068.510
735.9160, 6090.599
736.3981, 6091.070
736.8802, 6082.673
737.3623, 6086.604
737.8444, 6122.908
738.3266, 6144.124
738.8087, 6111.881
739.2908, 6060.646
739.7729, 6042.243
740.2551, 6080.819
740.7372, 6111.301
741.2193, 6126.239
741.7014, 6129.263
742.1835, 6127.434
742.6656, 6120.740
743.1478, 6107.245
743.6299, 6080.298
744.1120, 6053.667
744.5941, 6052.542
745.0762, 6070.654
745.5583, 6088.516
746.0405, 6092.424
746.5226, 6097.118
747.0047, 6118.091
747.4868, 6150.044
747.9689, 6160.424
748.4510, 6122.193
748.9332, 6092.257
749.4153, 6092.392
749.8974, 6119.108
750.3795, 6129.927
750.8616, 6123.249
751.3438, 6113.047
751.8259, 6101.589
752.3080, 6094.427
752.7901, 6112.833
753.2722, 6155.308
753.7543, 6187.146
754.2365, 6174.542
754.7186, 6149.109
755.2007, 6137.338
755.6828, 6145.470
756.1649, 6147.153
756.6470, 6127.447
757.1292, 6109.399
757.6113, 6107.430
758.0934, 6125.046
758.5755, 6145.597
759.0576, 6172.278
759.5397, 6191.736
760.0219, 6182.399
760.5040, 6154.138
760.9861, 6138.482
761.4682, 6141.232
761.9503, 6152.533
762.4324, 6174.871
762.9146, 6197.028
763.3967, 6205.181
763.8788, 6184.369
764.3609, 6168.327
764.8430, 6162.896
765.3251, 6164.848
765.8073, 6172.647
766.2894, 6189.571
766.7715, 6195.826
767.2536, 6180.904
767.7357, 6151.616
768.2178, 6185.539
768.7000, 6205.147
769.1821, 6211.210
769.6642, 6163.158
770.1463, 6184.984
770.6284, 6178.806
771.1105, 6171.479
771.5927, 6203.141
772.0748, 6162.959
772.5569, 6194.002
773.0390, 6196.613
773.5211, 6212.237
774.0032, 6199.684
774.4854, 6201.958
774.9675, 6215.196
775.4496, 6224.045
775.9317, 6227.085
776.4138, 6217.498
776.8959, 6197.489
777.3781, 6178.572
777.8602, 6160.870
778.3423, 6151.637
778.8244, 6165.342
779.3065, 6195.036
779.7886, 6211.533
780.2708, 6192.597
780.7529, 6172.643
781.2350, 6158.889
781.7171, 6152.423
782.1992, 6169.027
782.6813, 6216.823
783.1635, 6254.670
783.6456, 6255.294
784.1277, 6230.672
784.6098, 6220.671
785.0919, 6223.948
785.5740, 6226.627
786.0562, 6213.135
786.5383, 6200.015
787.0204, 6205.527
787.5025, 6230.481
787.9846, 6246.054
788.4667, 6227.026
788.9489, 6215.432
789.4310, 6236.348
789.9131, 6293.273
790.3952, 6308.370
790.8773, 6274.066
791.3594, 6232.695
791.8416, 6213.137
792.3237, 6211.337
792.8058, 6220.589
793.2879, 6240.353
793.7700, 6257.437
794.2521, 6258.251
794.7343, 6255.547
795.2164, 6260.069
795.6985, 6274.864
796.1806, 6290.013
796.6627, 6316.501
797.1448, 6330.217
797.6270, 6307.076
798.1091, 6238.128
798.5912, 6209.168
799.0733, 6225.599
799.5554, 6254.711
800.0375, 6270.856
800.5197, 6275.294
801.0018, 6265.290
801.4839, 6237.812
801.9660, 6219.451
802.4481, 6232.821
802.9302, 6258.344
803.4124, 6280.030
803.8945, 6295.279
804.3766, 6307.504
804.8587, 6317.887
805.3408, 6323.662
805.8229, 6323.802
806.3051, 6318.265
806.7872, 6293.755
807.2693, 6244.359
807.7514, 6205.046
808.2335, 6227.370
808.7156, 6277.514
809.1978, 6301.240
809.6799, 6278.045
810.1620, 6259.399
810.6441, 6275.124
811.1262, 6300.750
811.6083, 6311.965
812.0905, 6301.946
812.5726, 6290.447
813.0547, 6273.934
813.5368, 6263.704
814.0189, 6278.931
814.5010, 6314.571
814.9832, 6342.667
815.4653, 6359.624
815.9474, 6363.423
816.4295, 6337.541
816.9116, 6303.681
817.3937, 6290.386
817.8759, 6318.398
818.3580, 6340.254
818.8401, 6344.937
819.3222, 6339.992
819.8043, 6329.856
820.2864, 6311.521
820.7686, 6302.388
821.2507, 6305.061
821.7328, 6314.178
822.2149, 6325.938
822.6970, 6338.418
823.1791, 6347.757
823.6613, 6354.335
824.1434, 6353.094
824.6255, 6329.027
825.1076, 6300.534
825.5897, 6288.448
826.0718, 6311.617
826.5540, 6330.076
827.0361, 6343.636
827.5182, 6352.764
828.0003, 6357.947
828.4824, 6359.158
828.9645, 6357.073
829.4467, 6351.497
829.9288, 6343.844
830.4109, 6327.658
830.8930, 6313.044
831.3751, 6318.988
831.8572, 6365.515
832.3394, 6397.977
832.8215, 6386.735
833.3036, 6357.448
833.7857, 6338.052
834.2678, 6328.379
834.7499, 6331.148
835.2321, 6349.736
835.7142, 6373.420
836.1963, 6393.824
836.6784, 6408.621
837.1605, 6404.638
837.6426, 6374.799
838.1248, 6347.240
838.6069, 6346.118
839.0890, 6358.147
839.5711, 6369.340
840.0532, 6380.455
840.5353, 6383.177
841.0175, 6371.382
841.4996, 6357.278
841.9817, 6353.731
842.4638, 6361.086
842.9459, 6370.059
843.4280, 6380.311
843.9102, 6389.333
844.3923, 6395.447
844.8744, 6398.135
845.3565, 6394.282
845.8386, 6379.329
846.3207, 6372.800
846.8029, 6388.488
847.2850, 6412.434
847.7671, 6433.458
848.2492, 6455.210
848.7313, 6462.053
849.2134, 6450.213
849.6956, 6432.938
850.1777, 6421.857
850.6598, 6416.205
851.1419, 6413.775
851.6240, 6414.485
852.1061, 6416.599
852.5883, 6421.521
853.0704, 6425.568
853.5525, 6423.845
854.0346, 6410.711
854.5167, 6408.383
854.9988, 6425.268
855.4810, 6443.576
855.9631, 6450.616
856.4452, 6446.232
856.9273, 6439.502
857.4094, 6430.379
857.8915, 6422.838
858.3737, 6425.098
858.8558, 6428.722
859.3379, 6418.583
859.8200, 6391.406
860.3021, 6376.088
860.7842, 6393.993
861.2664, 6418.401
861.7485, 6435.431
862.2306, 6445.218
862.7127, 6444.029
863.1948, 6427.905
863.6769, 6418.193
864.1591, 6440.995
864.6412, 6478.932
865.1233, 6485.603
865.6054, 6462.239
866.0875, 6443.700
866.5696, 6457.356
867.0518, 6476.928
867.5339, 6486.836
868.0160, 6485.490
868.4981, 6479.030
868.9802, 6460.896
869.4623, 6452.313
869.9445, 6472.784
870.4266, 6510.480
870.9087, 6498.795
871.3908, 6443.209
871.8729, 6403.080
872.3550, 6427.318
872.8372, 6471.476
873.3193, 6505.485
873.8014, 6528.039
874.2835, 6537.302
874.7656, 6517.338
875.2477, 6502.836
875.7299, 6506.024
876.2120, 6520.452
876.6941, 6519.188
877.1762, 6502.300
877.6583, 6485.881
878.1404, 6477.437
878.6226, 6472.763
879.1047, 6466.959
879.5869, 6460.466
880.0690, 6454.273
880.5511, 6441.733
881.0332, 6437.750
881.5153, 6448.031
881.9974, 6469.118
882.4796, 6500.583
882.9617, 6548.514
883.4438, 6568.728
883.9259, 6541.952
884.4080, 6500.618
884.8901, 6498.531
885.3723, 6522.077
885.8544, 6539.006
886.3365, 6531.427
886.8186, 6526.078
887.3007, 6542.935
887.7828, 6565.390
888.2650, 6568.694
888.7471, 6540.815
889.2292, 6526.032
889.7113, 6530.074
890.1934, 6543.239
890.6755, 6557.732
891.1577, 6571.008
891.6398, 6574.444
892.1219, 6565.156
892.6040, 6552.400
893.0861, 6537.604
893.5682, 6525.419
894.0504, 6521.088
894.5325, 6529.950
895.0146, 6535.158
895.4967, 6536.366
895.9788, 6534.563
896.4609, 6526.590
896.9431, 6515.023
897.4252, 6520.513
897.9073, 6544.384
898.3894, 6564.170
898.8715, 6557.826
899.3536, 6543.943
899.8358, 6539.960
900.3179, 6519.570
900.8000, 6553.686
901.2821, 6573.486
901.7642, 6579.742
902.2463, 6531.883
902.7285, 6553.902
903.2106, 6547.917
903.6927, 6540.783
904.1748, 6572.637
904.6569, 6532.648
905.1390, 6563.884
905.6212, 6566.688
906.1033, 6582.505
906.5854, 6570.145
907.0675, 6566.487
907.5496, 6591.016
908.0317, 6599.938
908.5139, 6584.333
908.9960, 6600.977
909.4781, 6560.004
909.9602, 6569.591
910.4423, 6600.991
910.9244, 6586.804
911.4066, 6603.963
911.8887, 6609.184
912.3708, 6560.149
912.8529, 6605.469
913.3350, 6609.984
913.8171, 6572.601
914.2993, 6614.688
914.7814, 6583.082
915.2635, 6577.779
915.7456, 6592.271
916.2277, 6586.128
916.7098, 6612.521
917.1920, 6607.569
917.6741, 6599.817
918.1562, 6604.286
918.6383, 6574.124
919.1204, 6608.210
919.6025, 6598.409
920.0847, 6610.423
920.5668, 6627.382
921.0489, 6606.479
921.5310, 6625.660
922.0131, 6582.681
922.4952, 6591.713
922.9774, 6619.683
923.4595, 6623.253
923.9416, 6625.296
924.4237, 6626.107
924.9058, 6629.422
925.3879, 6647.113
925.8701, 6656.231
926.3522, 6640.227
926.8343, 6604.956
927.3164, 6603.233
927.7985, 6639.212
928.2806, 6670.235
928.7628, 6674.573
929.2449, 6664.436
929.7270, 6654.000
930.2091, 6644.813
930.6912, 6640.764
931.1733, 6640.529
931.6555, 6649.474
932.1376, 6681.926
932.6197, 6719.056
933.1018, 6726.188
933.5839, 6698.836
934.0660, 6674.189
934.5482, 6657.265
935.0303, 6649.800
935.5124, 6666.635
935.9945, 6690.777
936.4766, 6687.693
936.9587, 6632.164
937.4409, 6597.290
937.9230, 6625.222
938.4051, 6668.846
938.8872, 6691.766
939.3693, 6689.587
939.8514, 6696.726
940.3336, 6715.579
940.8157, 6726.046
941.2978, 6700.090
941.7799, 6660.831
942.2620, 6641.845
942.7441, 6644.615
943.2263, 6653.092
943.7084, 6669.405
944.1905, 6681.391
944.6726, 6684.174
945.1547, 6678.633
945.6368, 6665.403
946.1190, 6643.032
946.6011, 6637.455
947.0832, 6673.493
947.5653, 6717.984
948.0474, 6723.552
948.5295, 6703.102
949.0117, 6686.657
949.4938, 6690.077
949.9759, 6691.272
950.4580, 6681.978
950.9401, 6671.304
951.4222, 6675.752
951.9044, 6695.706
952.3865, 6706.528
952.8686, 6702.208
953.3507, 6698.169
953.8328, 6720.231
954.3149, 6747.909
954.7971, 6751.223
955.2792, 6713.905
955.7613, 6693.509
956.2434, 6708.800
956.7255, 6730.828
957.2076, 6743.000
957.6898, 6745.615
958.1719, 6747.826
958.6540, 6749.664
959.1361, 6751.989
959.6182, 6756.159
960.1003, 6760.515
960.5825, 6761.844
961.0646, 6761.318
961.5467, 6766.592
962.0288, 6791.471
962.5109, 6802.009
962.9930, 6784.229
963.4752, 6752.219
963.9573, 6742.757
964.4394, 6752.505
964.9215, 6760.173
965.4036, 6757.340
965.8857, 6753.105
966.3679, 6753.047
966.8500, 6756.715
967.3321, 6763.930
967.8142, 6780.572
968.2963, 6789.010
968.7784, 6786.357
969.2606, 6781.042
969.7427, 6782.056
970.2248, 6787.558
970.7069, 6791.478
971.1890, 6793.330
971.6711, 6792.509
972.1533, 6780.725
972.6354, 6772.702
973.1175, 6783.927
973.5996, 6813.757
974.0817, 6825.524
974.5638, 6815.250
975.0460, 6800.350
975.5281, 6784.343
976.0102, 6771.597
976.4923, 6770.868
976.9744, 6781.100
977.4565, 6799.191
977.9387, 6844.716
978.4208, 6873.366
978.9029, 6855.229
979.3850, 6818.012
979.8671, 6797.272
980.3492, 6794.353
980.8314, 6804.892
981.3135, 6832.353
981.7956, 6855.499
982.2777, 6792.579
982.7598, 6825.491
983.2419, 6844.089
983.7241, 6849.142
984.2062, 6800.080
984.6883, 6820.896
985.1704, 6813.707
985.6525, 6805.371
986.1346, 6836.022
986.6168, 6794.831
987.0989, 6824.864
987.5810, 6826.465
988.0631, 6841.079
988.5452, 6827.516
989.0273, 6822.656
989.5095, 6845.982
989.9916, 6853.701
990.4737, 6836.895
990.9558, 6835.550
991.4379, 6861.642
991.9200, 6886.246
992.4022, 6876.776
992.8843, 6842.144
993.3664, 6821.474
993.8485, 6823.563
994.3306, 6830.903
994.8127, 6830.402
995.2949, 6830.606
995.7770, 6840.729
996.2591, 6863.117
996.7412, 6880.285
997.2233, 6892.606
997.7054, 6897.745
998.1876, 6885.137
998.6697, 6867.988
999.1518, 6887.932
999.6339, 6932.534
1000.116, 6952.551
1000.598, 6893.991
1001.080, 6844.138
1001.562, 6835.492
1002.044, 6852.998
1002.527, 6873.383
1003.009, 6896.810
1003.491, 6919.154
1003.973, 6939.915
1004.455, 6956.708
1004.937, 6970.501
1005.419, 6976.593
1005.901, 6965.349
1006.384, 6928.322
1006.866, 6903.284
1007.348, 6893.667
1007.830, 6897.728
1008.312, 6920.746
1008.794, 6957.388
1009.276, 6975.589
1009.758, 6976.716
1010.240, 6973.119
1010.723, 6972.576
1011.205, 6969.019
1011.687, 6954.675
1012.169, 6934.715
1012.651, 6922.818
1013.133, 6920.242
1013.615, 6920.965
1014.097, 6921.431
1014.580, 6932.102
1015.062, 6989.040
1015.544, 7060.447
1016.026, 7079.333
1016.508, 7024.782
1016.990, 6967.834
1017.472, 6913.876
1017.954, 6889.795
1018.436, 6925.699
1018.919, 7016.032
1019.401, 7028.433
1019.883, 6962.658
1020.365, 6910.019
1020.847, 6945.037
1021.329, 7000.114
1021.811, 7005.329
1022.293, 6977.799
1022.776, 6960.043
1023.258, 6966.526
1023.740, 6972.162
1024.222, 6972.220
1024.704, 6974.600
1025.186, 6995.479
1025.668, 7027.975
1026.150, 7047.436
1026.632, 7050.072
1027.115, 7046.379
1027.597, 7035.729
1028.079, 7026.917
1028.561, 7030.338
1029.043, 7044.839
1029.525, 7033.616
1030.007, 6991.714
1030.489, 6967.382
1030.972, 6993.217
1031.454, 7037.207
1031.936, 7053.344
1032.418, 7053.563
1032.900, 7063.183
1033.382, 7117.256
1033.864, 7140.556
1034.346, 7112.934
1034.828, 7070.628
1035.311, 7054.255
1035.793, 7060.277
1036.275, 7068.967
1036.757, 7078.819
1037.239, 7082.797
1037.721, 7062.604
1038.203, 7046.197
1038.685, 7062.718
1039.167, 7106.912
1039.650, 7119.440
1040.132, 7092.082
1040.614, 7068.038
1041.096, 7061.557
1041.578, 7066.934
1042.060, 7081.870
1042.542, 7100.653
1043.024, 7112.186
1043.507, 7107.391
1043.989, 7106.580
1044.471, 7115.381
1044.953, 7126.965
1045.435, 7139.173
1045.917, 7151.065
1046.399, 7145.806
1046.881, 7124.093
1047.364, 7106.265
1047.846, 7111.210
1048.328, 7120.001
1048.810, 7118.068
1049.292, 7108.540
1049.774, 7106.948
1050.256, 7115.290
1050.738, 7125.336
1051.220, 7136.213
1051.703, 7146.079
1052.185, 7150.434
1052.667, 7152.303
1053.149, 7157.340
1053.631, 7167.777
1054.113, 7176.051
1054.595, 7183.157
1055.077, 7183.902
1055.559, 7173.040
1056.042, 7152.975
1056.524, 7139.434
1057.006, 7131.972
1057.488, 7126.959
1057.970, 7115.948
1058.452, 7113.478
1058.934, 7134.512
1059.416, 7168.868
1059.899, 7198.873
1060.381, 7229.600
1060.863, 7232.432
1061.345, 7199.011
1061.827, 7163.237
1062.309, 7162.379
1062.791, 7180.291
1063.273, 7197.138
1063.755, 7210.781
1064.238, 7213.098
1064.720, 7187.814
1065.202, 7169.343
1065.684, 7169.522
1066.166, 7182.121
1066.648, 7189.350
1067.130, 7192.997
1067.612, 7204.248
1068.094, 7235.243
1068.577, 7253.786
1069.059, 7220.088
1069.541, 7178.637
1070.023, 7175.033
1070.505, 7218.665
1070.987, 7249.876
1071.469, 7269.266
1071.951, 7274.658
1072.434, 7256.241
1072.916, 7229.262
1073.398, 7205.853
1073.880, 7188.688
1074.362, 7186.098
1074.844, 7212.732
1075.326, 7232.102
1075.808, 7238.736
1076.291, 7238.661
1076.773, 7237.025
1077.255, 7235.944
1077.737, 7242.183
1078.219, 7256.826
1078.701, 7274.123
1079.183, 7298.107
1079.665, 7316.309
1080.147, 7320.875
1080.630, 7314.687
1081.112, 7316.734
1081.594, 7326.586
1082.076, 7330.345
1082.558, 7319.268
1083.040, 7306.899
1083.522, 7307.893
1084.004, 7313.824
1084.486, 7312.405
1084.969, 7296.040
1085.451, 7291.568
1085.933, 7301.762
1086.415, 7313.541
1086.897, 7318.709
1087.379, 7317.885
1087.861, 7305.858
1088.343, 7287.344
1088.826, 7281.757
1089.308, 7316.766
1089.790, 7335.905
1090.272, 7319.364
1090.754, 7294.649
1091.236, 7314.318
1091.718, 7365.704
1092.200, 7388.412
1092.682, 7372.050
1093.165, 7346.458
1093.647, 7314.604
1094.129, 7294.263
1094.611, 7302.271
1095.093, 7332.968
1095.575, 7346.762
1096.057, 7342.948
1096.539, 7339.771
1097.022, 7344.427
1097.504, 7351.576
1097.986, 7353.027
1098.468, 7354.748
1098.950, 7368.043
1099.432, 7412.974
1099.914, 7412.027
1100.396, 7349.281
1100.879, 7292.430
1101.361, 7297.007
1101.843, 7338.202
1102.325, 7376.201
1102.807, 7409.024
1103.289, 7430.714
1103.771, 7436.835
1104.253, 7433.698
1104.735, 7420.347
1105.218, 7401.990
1105.700, 7383.364
1106.182, 7365.733
1106.664, 7355.794
1107.146, 7354.204
1107.628, 7359.511
1108.110, 7378.107
1108.592, 7396.060
1109.074, 7404.809
1109.557, 7406.466
1110.039, 7409.647
1110.521, 7414.449
1111.003, 7412.132
1111.485, 7394.964
1111.967, 7385.747
1112.449, 7417.329
1112.931, 7462.272
1113.414, 7491.710
1113.896, 7501.503
1114.378, 7497.577
1114.860, 7476.078
1115.342, 7457.694
1115.824, 7455.135
1116.306, 7461.825
1116.788, 7473.581
1117.271, 7485.601
1117.753, 7487.254
1118.235, 7454.157
1118.717, 7443.734
1119.199, 7466.532
1119.681, 7498.690
1120.163, 7517.511
1120.645, 7526.572
1121.127, 7541.050
1121.609, 7559.303
1122.092, 7559.656
1122.574, 7503.923
1123.056, 7461.930
1123.538, 7458.098
1124.020, 7479.200
1124.502, 7504.884
1124.984, 7533.590
1125.466, 7553.137
1125.949, 7561.465
1126.431, 7556.733
1126.913, 7516.429
1127.395, 7480.667
1127.877, 7483.782
1128.359, 7520.294
1128.841, 7550.954
1129.323, 7576.132
1129.806, 7588.921
1130.288, 7583.791
1130.770, 7571.939
1131.252, 7553.127
1131.734, 7539.966
1132.216, 7551.739
1132.698, 7598.443
1133.180, 7644.633
1133.662, 7695.818
1134.145, 7721.676
1134.627, 7683.542
1135.109, 7621.209
1135.591, 7590.366
1136.073, 7586.939
1136.555, 7601.417
1137.037, 7661.207
1137.519, 7692.092
1138.001, 7683.813
1138.484, 7658.571
1138.966, 7627.896
1139.448, 7601.084
1139.930, 7612.050
1140.412, 7656.845
1140.894, 7684.695
1141.376, 7654.582
1141.858, 7631.327
1142.341, 7636.550
1142.823, 7652.846
1143.305, 7644.250
1143.787, 7617.605
1144.269, 7604.115
1144.751, 7609.659
1145.233, 7620.820
1145.715, 7637.353
1146.198, 7649.586
1146.680, 7649.226
1147.162, 7640.868
1147.644, 7646.492
1148.126, 7665.483
1148.608, 7690.230
1149.090, 7723.191
1149.572, 7749.047
1150.054, 7753.307
1150.536, 7746.898
1151.019, 7740.737
1151.501, 7735.854
1151.983, 7717.485
1152.465, 7684.276
1152.947, 7669.030
1153.429, 7708.336
1153.911, 7752.222
1154.393, 7738.976
1154.876, 7701.407
1155.358, 7701.827
1155.840, 7769.723
1156.322, 7791.206
1156.804, 7757.039
1157.286, 7715.868
1157.768, 7708.094
1158.250, 7715.000
1158.733, 7712.871
1159.215, 7704.607
1159.697, 7704.077
1160.179, 7716.238
1160.661, 7729.044
1161.143, 7740.325
1161.625, 7754.384
1162.107, 7788.624
1162.589, 7823.568
1163.072, 7818.348
1163.554, 7773.113
1164.036, 7739.938
1164.518, 7730.490
1165.000, 7737.889
1165.482, 7766.345
1165.964, 7802.095
1166.446, 7824.606
1166.928, 7833.771
1167.411, 7823.210
1167.893, 7786.619
1168.375, 7769.414
1168.857, 7809.503
1169.339, 7841.976
1169.821, 7837.124
1170.303, 7811.015
1170.785, 7811.136
1171.268, 7830.542
1171.750, 7846.213
1172.232, 7848.954
1172.714, 7852.030
1173.196, 7862.493
1173.678, 7873.061
1174.160, 7878.858
1174.642, 7880.802
1175.125, 7886.704
1175.607, 7894.836
1176.089, 7895.089
1176.571, 7867.352
1177.053, 7851.099
1177.535, 7882.101
1178.017, 7918.736
1178.499, 7917.684
1178.981, 7879.600
1179.464, 7862.290
1179.946, 7866.035
1180.428, 7882.508
1180.910, 7928.251
1181.392, 7961.452
1181.874, 7945.033
1182.356, 7909.395
1182.838, 7904.888
1183.320, 7933.152
1183.803, 7938.167
1184.285, 7914.855
1184.767, 7892.579
1185.249, 7894.743
1185.731, 7904.116
1186.213, 7907.016
1186.695, 7908.234
1187.177, 7925.425
1187.660, 7960.454
1188.142, 7981.822
1188.624, 7983.409
1189.106, 7977.868
1189.588, 7966.250
1190.070, 7960.374
1190.552, 7974.391
1191.034, 8005.082
1191.516, 8031.977
1191.999, 8057.290
1192.481, 8050.415
1192.963, 7992.772
1193.445, 7942.378
1193.927, 7980.074
1194.409, 8038.804
1194.891, 8042.512
1195.373, 7985.005
1195.855, 7959.676
1196.338, 7968.094
1196.820, 7997.680
1197.302, 8058.715
1197.784, 8106.780
1198.266, 8068.814
1198.748, 8001.623
1199.230, 7982.594
1199.712, 8030.776
1200.195, 8047.853
1200.677, 8028.802
1201.159, 8014.204
1201.641, 8031.114
1202.123, 8056.610
1202.605, 8065.647
1203.087, 8064.734
1203.569, 8064.606
1204.052, 8066.608
1204.534, 8069.555
1205.016, 8073.779
1205.498, 8077.074
1205.980, 8078.579
1206.462, 8077.831
1206.944, 8065.999
1207.426, 8052.844
1207.908, 8065.090
1208.391, 8124.822
1208.873, 8146.678
1209.355, 8121.174
1209.837, 8090.813
1210.319, 8095.200
1210.801, 8111.847
1211.283, 8114.772
1211.765, 8107.763
1212.247, 8107.666
1212.730, 8119.966
1213.212, 8123.844
1213.694, 8114.813
1214.176, 8108.530
1214.658, 8123.208
1215.140, 8146.819
1215.622, 8171.720
1216.104, 8194.182
1216.587, 8195.276
1217.069, 8164.622
1217.551, 8148.336
1218.033, 8155.865
1218.515, 8170.810
1218.997, 8174.152
1219.479, 8175.349
1219.961, 8188.048
1220.443, 8211.670
1220.926, 8223.312
1221.408, 8217.204
1221.890, 8220.035
1222.372, 8240.611
1222.854, 8262.877
1223.336, 8271.201
1223.818, 8268.159
1224.300, 8252.883
1224.782, 8224.799
1225.265, 8205.850
1225.747, 8196.139
1226.229, 8195.739
1226.711, 8206.237
1227.193, 8221.736
1227.675, 8232.512
1228.157, 8245.802
1228.639, 8276.425
1229.122, 8329.389
1229.604, 8345.893
1230.086, 8320.456
1230.568, 8294.356
1231.050, 8279.226
1231.532, 8279.212
1232.014, 8307.722
1232.496, 8349.329
1232.979, 8389.968
1233.461, 8431.101
1233.943, 8440.299
1234.425, 8414.602
1234.907, 8386.345
1235.389, 8373.506
1235.871, 8359.973
1236.353, 8312.608
1236.835, 8263.544
1237.318, 8262.007
1237.800, 8316.994
1238.282, 8348.658
1238.764, 8355.774
1239.246, 8359.970
1239.728, 8374.178
1240.210, 8388.690
1240.692, 8389.758
1241.175, 8389.202
1241.657, 8406.192
1242.139, 8447.623
1242.621, 8459.543
1243.103, 8441.806
1243.585, 8421.218
1244.067, 8412.320
1244.549, 8408.074
1245.031, 8403.064
1245.514, 8400.364
1245.996, 8403.083
1246.478, 8411.182
1246.960, 8429.571
1247.442, 8457.589
1247.924, 8480.398
1248.406, 8480.261
1248.888, 8480.936
1249.370, 8507.186
1249.853, 8534.827
1250.335, 8525.080
1250.817, 8480.066
1251.299, 8468.331
1251.781, 8490.600
1252.263, 8511.546
1252.745, 8503.989
1253.227, 8496.716
1253.710, 8505.783
1254.192, 8519.446
1254.674, 8521.388
1255.156, 8513.841
1255.638, 8512.367
1256.120, 8517.790
1256.602, 8527.616
1257.084, 8553.834
1257.567, 8565.436
1258.049, 8543.083
1258.531, 8514.533
1259.013, 8524.525
1259.495, 8561.006
1259.977, 8575.499
1260.459, 8567.149
1260.941, 8570.146
1261.423, 8619.008
1261.906, 8654.478
1262.388, 8661.230
1262.870, 8653.069
1263.352, 8647.624
1263.834, 8643.292
1264.316, 8634.887
1264.798, 8622.685
1265.280, 8615.058
1265.762, 8619.111
1266.245, 8620.313
1266.727, 8615.433
1267.209, 8608.310
1267.691, 8599.999
1268.173, 8595.095
1268.655, 8603.147
1269.137, 8624.213
1269.619, 8644.650
1270.102, 8664.736
1270.584, 8678.802
1271.066, 8684.695
1271.548, 8687.144
1272.030, 8682.096
1272.512, 8683.362
1272.994, 8720.947
1273.476, 8790.532
1273.958, 8810.522
1274.441, 8768.709
1274.923, 8725.570
1275.405, 8691.336
1275.887, 8673.795
1276.369, 8693.515
1276.851, 8724.114
1277.333, 8745.860
1277.815, 8755.639
1278.297, 8737.972
1278.780, 8690.665
1279.262, 8665.100
1279.744, 8673.243
1280.226, 8704.491
1280.708, 8787.340
1281.190, 8855.184
1281.672, 8843.796
1282.154, 8781.629
1282.637, 8776.381
1283.119, 8820.354
1283.601, 8835.260
1284.083, 8799.304
1284.565, 8773.035
1285.047, 8806.136
1285.529, 8844.473
1286.011, 8862.326
1286.494, 8865.131
1286.976, 8867.785
1287.458, 8868.110
1287.940, 8854.176
1288.422, 8820.157
1288.904, 8801.109
1289.386, 8821.590
1289.868, 8844.627
1290.350, 8859.155
1290.833, 8868.308
1291.315, 8879.621
1291.797, 8889.679
1292.279, 8890.343
1292.761, 8878.829
1293.243, 8868.327
1293.725, 8853.988
1294.207, 8859.199
1294.689, 8898.171
1295.172, 8944.685
1295.654, 8963.691
1296.136, 8964.900
1296.618, 8957.485
1297.100, 8941.558
1297.582, 8936.462
1298.064, 8943.453
1298.546, 8955.174
1299.029, 8973.839
1299.511, 8981.841
1299.993, 8947.617
1300.475, 8903.360
1300.957, 8874.035
1301.439, 8862.474
1301.921, 8903.104
1302.403, 8992.886
1302.885, 9032.450
1303.368, 8982.454
1303.850, 8931.149
1304.332, 8940.321
1304.814, 8970.169
1305.296, 8998.893
1305.778, 9024.361
1306.260, 9040.750
1306.742, 9047.887
1307.224, 9041.357
1307.707, 9015.015
##END=



