##NAMES=Colemanite
##RRUFFID=R050102
##IDEAL CHEMISTRY=CaB_3_O_4_(OH)_3_&#183;H_2_O
##LOCALITY=Kramer deposit, Boron, Kern County, California, USA
##OWNER=RRUFF
##SOURCE=Rock Currier
##DESCRIPTION=Colorless prismatic to tabular crystals
##STATUS=The identification of this mineral has been confirmed by X-ray diffraction and chemical analysis
##URL=rruff.info/R050102
##MEASURED CHEMISTRY=Ca_1.00_B_3.00_O_4_(OH)_3_Â·H_2_O ; trace amounts of Na; B assumed by stoichiometry and charge balance.
139.6275, 770.2353
140.1096, 773.5262
140.5918, 778.0714
141.0739, 782.1805
141.5560, 785.8415
142.0381, 789.0103
142.5202, 791.4153
143.0023, 792.3950
143.4845, 794.4662
143.9666, 798.3643
144.4487, 804.1541
144.9308, 809.4070
145.4129, 814.1520
145.8951, 818.4150
146.3772, 822.3535
146.8593, 825.9222
147.3414, 829.2420
147.8235, 832.5805
148.3056, 836.3500
148.7878, 838.2962
149.2699, 838.2572
149.7520, 836.4918
150.2341, 833.3757
150.7162, 828.0634
151.1983, 822.2379
151.6805, 816.1501
152.1626, 809.6528
152.6447, 803.3798
153.1268, 797.9325
153.6089, 792.5446
154.0910, 786.0273
154.5732, 776.2611
155.0553, 767.0389
155.5374, 759.7364
156.0195, 755.1354
156.5016, 751.0436
156.9837, 747.2500
157.4659, 743.7962
157.9480, 740.7593
158.4301, 737.9468
158.9122, 735.7341
159.3943, 734.3865
159.8764, 734.3541
160.3586, 734.4961
160.8407, 734.2031
161.3228, 733.8030
161.8049, 734.2155
162.2870, 736.2806
162.7691, 738.9315
163.2512, 741.4304
163.7334, 743.0323
164.2155, 745.2227
164.6976, 748.8038
165.1797, 753.5439
165.6618, 758.5754
166.1439, 763.7359
166.6261, 768.8353
167.1082, 773.6731
167.5903, 777.8737
168.0724, 782.1312
168.5545, 786.7493
169.0366, 791.7408
169.5188, 797.1813
170.0009, 802.7119
170.4830, 808.8207
170.9651, 816.2542
171.4472, 826.2117
171.9293, 836.7979
172.4115, 846.3402
172.8936, 854.9462
173.3757, 863.8593
173.8578, 874.9997
174.3399, 886.7653
174.8220, 896.8378
175.3042, 905.0219
175.7863, 910.6973
176.2684, 913.5020
176.7505, 913.4330
177.2326, 910.0726
177.7147, 903.1308
178.1969, 892.6198
178.6790, 878.7081
179.1611, 859.6249
179.6432, 837.8724
180.1253, 816.8004
180.6074, 796.5751
181.0896, 777.2468
181.5717, 758.5786
182.0538, 740.9324
182.5359, 724.7452
183.0180, 710.8936
183.5001, 698.7712
183.9823, 687.4584
184.4644, 677.0629
184.9465, 667.3649
185.4286, 658.2191
185.9107, 649.6052
186.3928, 641.8694
186.8750, 635.3839
187.3571, 629.9200
187.8392, 624.5641
188.3213, 619.2672
188.8034, 614.4395
189.2855, 610.9803
189.7677, 608.7831
190.2498, 606.6037
190.7319, 603.4046
191.2140, 599.5780
191.6961, 597.4908
192.1782, 597.5176
192.6603, 598.2667
193.1425, 597.2485
193.6246, 594.4856
194.1067, 592.6243
194.5888, 593.7363
195.0709, 597.4365
195.5530, 599.3367
196.0352, 598.9089
196.5173, 597.6126
196.9994, 597.9480
197.4815, 600.0164
197.9636, 602.3583
198.4457, 604.2269
198.9279, 605.6115
199.4100, 607.3287
199.8921, 609.3689
200.3742, 611.7980
200.8563, 614.9757
201.3384, 619.1056
201.8206, 622.9058
202.3027, 625.4442
202.7848, 626.5667
203.2669, 628.7761
203.7490, 632.6715
204.2311, 637.0673
204.7133, 639.2839
205.1954, 638.8622
205.6775, 638.1924
206.1596, 638.3749
206.6417, 639.4841
207.1238, 641.0483
207.6060, 643.2033
208.0881, 645.6793
208.5702, 647.7162
209.0523, 648.9978
209.5344, 650.8024
210.0165, 653.8814
210.4987, 658.5175
210.9808, 663.1680
211.4629, 667.7756
211.9450, 672.3625
212.4271, 676.7648
212.9092, 680.6104
213.3914, 685.1732
213.8735, 691.3661
214.3556, 699.7426
214.8377, 707.3166
215.3198, 713.4888
215.8019, 719.0968
216.2841, 726.0432
216.7662, 734.7260
217.2483, 743.9843
217.7304, 753.5269
218.2125, 763.6832
218.6946, 772.7615
219.1767, 780.5469
219.6589, 787.2937
220.1410, 794.1983
220.6231, 802.0518
221.1052, 808.6152
221.5873, 812.8742
222.0694, 814.3339
222.5516, 814.8619
223.0337, 814.9348
223.5158, 813.8889
223.9979, 809.8233
224.4800, 801.6743
224.9621, 792.3993
225.4443, 783.3175
225.9264, 774.4365
226.4085, 765.4947
226.8906, 756.1984
227.3727, 746.9479
227.8548, 738.1394
228.3370, 729.5944
228.8191, 721.9285
229.3012, 715.4982
229.7833, 711.0558
230.2654, 705.9214
230.7475, 699.3845
231.2297, 692.4664
231.7118, 687.6380
232.1939, 686.0783
232.6760, 684.7245
233.1581, 682.1699
233.6402, 677.4875
234.1224, 674.2624
234.6045, 673.1754
235.0866, 673.2332
235.5687, 672.2682
236.0508, 669.6420
236.5329, 666.9952
237.0151, 664.9449
237.4972, 663.6071
237.9793, 662.5031
238.4614, 661.6249
238.9435, 660.9709
239.4256, 660.5819
239.9078, 660.7377
240.3899, 660.7184
240.8720, 660.1594
241.3541, 658.7161
241.8362, 658.0277
242.3183, 658.5554
242.8005, 659.6075
243.2826, 659.8710
243.7647, 658.5961
244.2468, 657.8050
244.7289, 658.3855
245.2110, 660.9433
245.6931, 662.2914
246.1753, 661.6234
246.6574, 660.2588
247.1395, 660.3715
247.6216, 662.9686
248.1037, 665.2604
248.5858, 666.2471
249.0680, 665.5406
249.5501, 665.5757
250.0322, 666.5439
250.5143, 668.0886
250.9964, 669.7459
251.4785, 671.4971
251.9607, 673.3990
252.4428, 675.5466
252.9249, 677.9716
253.4070, 680.2012
253.8891, 682.1055
254.3712, 683.9426
254.8534, 685.9338
255.3355, 687.7557
255.8176, 690.3998
256.2997, 694.3951
256.7818, 699.8048
257.2639, 704.5998
257.7461, 708.6913
258.2282, 712.2845
258.7103, 715.4617
259.1924, 717.9763
259.6745, 720.7057
260.1566, 723.7877
260.6388, 727.2515
261.1209, 730.7857
261.6030, 734.4439
262.0851, 738.1455
262.5672, 741.9061
263.0493, 746.1055
263.5315, 749.4131
264.0136, 751.3745
264.4957, 752.1531
264.9778, 753.3137
265.4599, 755.0728
265.9420, 756.8432
266.4242, 758.2380
266.9063, 759.4041
267.3884, 759.6830
267.8705, 758.6247
268.3526, 756.6052
268.8347, 755.5718
269.3169, 755.7976
269.7990, 756.4150
270.2811, 757.0013
270.7632, 757.7045
271.2453, 757.6193
271.7274, 756.4723
272.2096, 754.5227
272.6917, 752.5782
273.1738, 750.6248
273.6559, 748.6403
274.1380, 746.6830
274.6201, 744.7979
275.1023, 742.4815
275.5844, 739.4872
276.0665, 736.2540
276.5486, 733.8168
277.0307, 732.3956
277.5128, 730.9568
277.9950, 728.7187
278.4771, 725.5617
278.9592, 723.5061
279.4413, 722.9493
279.9234, 723.0208
280.4055, 721.4003
280.8877, 717.5964
281.3698, 715.6917
281.8519, 719.3113
282.3340, 728.3923
282.8161, 732.1052
283.2982, 729.3334
283.7804, 723.6765
284.2625, 720.4456
284.7446, 719.6940
285.2267, 718.9832
285.7088, 717.0846
286.1909, 714.2699
286.6730, 712.5095
287.1552, 711.8691
287.6373, 712.0003
288.1194, 712.6124
288.6015, 713.6927
289.0836, 714.9958
289.5657, 716.2723
290.0479, 717.7363
290.5300, 720.5594
291.0121, 724.8880
291.4942, 729.0529
291.9763, 730.8870
292.4584, 730.8183
292.9406, 731.5555
293.4227, 734.0317
293.9048, 737.5784
294.3869, 740.8563
294.8690, 743.8741
295.3511, 746.6304
295.8333, 748.8073
296.3154, 750.6751
296.7975, 753.2174
297.2796, 756.6378
297.7617, 760.7653
298.2438, 766.2845
298.7260, 772.8199
299.2081, 777.7567
299.6902, 777.7809
300.1723, 775.0457
300.6544, 774.2957
301.1365, 776.6611
301.6187, 780.1273
302.1008, 781.9119
302.5829, 782.5831
303.0650, 784.3365
303.5471, 789.5844
304.0292, 796.3046
304.5114, 801.3262
304.9935, 804.1423
305.4756, 806.5505
305.9577, 810.4887
306.4398, 815.3420
306.9219, 819.7205
307.4041, 823.0314
307.8862, 825.5121
308.3683, 827.3779
308.8504, 828.6016
309.3325, 829.5490
309.8146, 830.4754
310.2968, 831.2859
310.7789, 831.8526
311.2610, 832.2333
311.7431, 832.2744
312.2252, 831.6430
312.7073, 830.4082
313.1895, 829.3763
313.6716, 828.2910
314.1537, 827.9407
314.6358, 829.1735
315.1179, 832.7670
315.6000, 837.4491
316.0822, 843.1158
316.5643, 849.5049
317.0464, 855.5243
317.5285, 860.3088
318.0106, 864.7762
318.4927, 869.6348
318.9749, 875.6135
319.4570, 881.0520
319.9391, 885.3420
320.4212, 888.6228
320.9033, 891.3383
321.3854, 893.6114
321.8676, 895.3368
322.3497, 896.5834
322.8318, 897.6210
323.3139, 897.3843
323.7960, 895.4174
324.2781, 892.0964
324.7603, 887.9435
325.2424, 883.4014
325.7245, 877.7247
326.2066, 870.4189
326.6887, 861.2002
327.1708, 852.0963
327.6530, 843.3303
328.1351, 834.7746
328.6172, 826.2051
329.0993, 817.8326
329.5814, 809.2073
330.0635, 799.8419
330.5457, 789.7919
331.0278, 780.8938
331.5099, 774.1052
331.9920, 767.6168
332.4741, 760.3660
332.9562, 751.2084
333.4384, 743.0226
333.9205, 735.9162
334.4026, 729.9255
334.8847, 725.1091
335.3668, 722.2296
335.8489, 719.3648
336.3311, 715.4499
336.8132, 709.7209
337.2953, 705.0592
337.7774, 701.6016
338.2595, 699.1346
338.7416, 697.5722
339.2238, 697.3405
339.7059, 696.6849
340.1880, 694.6462
340.6701, 691.1384
341.1522, 688.8949
341.6343, 687.9903
342.1164, 688.1580
342.5985, 689.7036
343.0807, 692.9335
343.5628, 694.5709
344.0449, 693.1715
344.5270, 689.6028
345.0091, 687.5492
345.4912, 687.1029
345.9734, 687.4012
346.4555, 688.0389
346.9376, 688.9229
347.4197, 689.2525
347.9018, 688.7419
348.3839, 687.7850
348.8661, 686.9510
349.3482, 686.2510
349.8303, 685.8619
350.3124, 685.9665
350.7945, 686.4551
351.2766, 687.0859
351.7588, 687.8713
352.2409, 688.6700
352.7230, 689.5629
353.2051, 690.3910
353.6872, 690.6885
354.1693, 689.5649
354.6515, 688.0861
355.1336, 687.8593
355.6157, 688.9525
356.0978, 690.0449
356.5799, 690.1694
357.0620, 689.6192
357.5442, 688.8041
358.0263, 687.4118
358.5084, 686.2381
358.9905, 686.0583
359.4726, 686.7071
359.9547, 687.3041
360.4369, 687.3414
360.9190, 687.1218
361.4011, 686.8244
361.8832, 686.2301
362.3653, 686.0516
362.8474, 686.9091
363.3296, 688.4001
363.8117, 689.6880
364.2938, 690.3115
364.7759, 690.7937
365.2580, 691.3024
365.7401, 691.7925
366.2223, 692.5810
366.7044, 694.1518
367.1865, 695.8986
367.6686, 697.1650
368.1507, 696.9523
368.6328, 697.1784
369.1150, 698.4772
369.5971, 700.8753
370.0792, 702.8635
370.5613, 704.3874
371.0434, 705.5071
371.5255, 706.2262
372.0077, 706.1139
372.4898, 706.2587
372.9719, 706.5895
373.4540, 707.2224
373.9361, 708.6127
374.4182, 711.2092
374.9004, 713.8030
375.3825, 715.8771
375.8646, 717.3060
376.3467, 718.6488
376.8288, 719.8277
377.3109, 721.0139
377.7931, 722.3051
378.2752, 723.5270
378.7573, 725.7034
379.2394, 729.4890
379.7215, 734.5673
380.2036, 738.8898
380.6858, 742.2733
381.1679, 745.4023
381.6500, 748.5623
382.1321, 751.8349
382.6142, 755.9503
383.0963, 761.2984
383.5785, 767.2527
384.0606, 772.9789
384.5427, 778.3678
385.0248, 783.2351
385.5069, 787.7709
385.9890, 791.6425
386.4712, 793.7169
386.9533, 793.7414
387.4354, 792.9792
387.9175, 793.4196
388.3996, 794.1315
388.8817, 792.9836
389.3639, 788.0170
389.8460, 781.3896
390.3281, 774.8451
390.8102, 768.4405
391.2923, 762.3787
391.7744, 757.0911
392.2566, 752.0395
392.7387, 746.5252
393.2208, 740.1180
393.7029, 733.6358
394.1850, 726.8221
394.6671, 720.1611
395.1493, 714.8398
395.6314, 712.6380
396.1135, 710.8729
396.5956, 708.0355
397.0777, 703.6008
397.5598, 699.4250
398.0419, 695.8389
398.5240, 692.7551
399.0062, 690.0720
399.4883, 687.6041
399.9704, 685.6959
400.4525, 684.6120
400.9346, 684.3137
401.4167, 683.9704
401.8989, 683.7408
402.3810, 683.3110
402.8631, 682.4771
403.3452, 681.0487
403.8273, 679.5291
404.3094, 677.7009
404.7916, 675.9079
405.2737, 675.2379
405.7558, 676.4846
406.2379, 676.8371
406.7200, 674.5525
407.2021, 669.4213
407.6843, 667.3193
408.1664, 668.9672
408.6485, 671.8687
409.1306, 673.2571
409.6127, 673.1417
410.0948, 672.8125
410.5770, 672.5459
411.0591, 672.2961
411.5412, 671.9541
412.0233, 671.5184
412.5054, 671.0092
412.9875, 670.2709
413.4697, 669.4721
413.9518, 669.0203
414.4339, 668.9444
414.9160, 669.3105
415.3981, 670.6934
415.8802, 672.6088
416.3624, 673.9039
416.8445, 673.3011
417.3266, 672.2755
417.8087, 672.3732
418.2908, 673.5549
418.7729, 674.7571
419.2551, 675.4515
419.7372, 675.7658
420.2193, 675.7647
420.7014, 675.0888
421.1835, 674.6847
421.6656, 675.1212
422.1478, 676.1428
422.6299, 677.1456
423.1120, 678.2071
423.5941, 678.9973
424.0762, 679.1833
424.5583, 678.4886
425.0405, 678.3515
425.5226, 679.6218
426.0047, 681.1972
426.4868, 681.9606
426.9689, 680.5736
427.4510, 680.2038
427.9332, 681.8400
428.4153, 684.9669
428.8974, 686.6272
429.3795, 686.0599
429.8616, 685.2036
430.3438, 685.0400
430.8259, 685.6941
431.3080, 686.5623
431.7901, 687.6485
432.2722, 688.9435
432.7543, 690.7598
433.2365, 693.2267
433.7186, 694.7633
434.2007, 694.3492
434.6828, 692.7052
435.1649, 692.7831
435.6470, 694.6528
436.1292, 696.8963
436.6113, 698.4047
437.0934, 699.3412
437.5755, 700.1080
438.0576, 700.6027
438.5397, 701.3796
439.0219, 703.5551
439.5040, 706.6592
439.9861, 709.2521
440.4682, 710.1985
440.9503, 710.5794
441.4324, 711.4000
441.9146, 712.7062
442.3967, 714.1887
442.8788, 715.7969
443.3609, 717.4536
443.8430, 719.0209
444.3251, 720.1984
444.8073, 721.6850
445.2894, 723.9254
445.7715, 726.6733
446.2536, 729.2897
446.7357, 731.9119
447.2178, 734.1124
447.7000, 735.4130
448.1821, 735.2388
448.6642, 736.3263
449.1463, 739.2838
449.6284, 743.1382
450.1105, 747.0900
450.5927, 751.3239
451.0747, 755.3093
451.5569, 758.9556
452.0390, 762.3155
452.5211, 765.7634
453.0032, 769.3412
453.4853, 772.8555
453.9674, 776.4274
454.4496, 780.1631
454.9317, 782.6468
455.4138, 783.8396
455.8959, 783.8613
456.3780, 782.5648
456.8601, 780.0641
457.3423, 777.3262
457.8244, 774.5350
458.3065, 771.7935
458.7886, 769.5272
459.2707, 767.6311
459.7528, 765.5345
460.2350, 762.5192
460.7171, 759.1335
461.1992, 756.0774
461.6813, 753.4558
462.1634, 751.1417
462.6455, 748.6641
463.1277, 746.4797
463.6098, 745.2705
464.0919, 746.4720
464.5740, 747.6135
465.0561, 747.3127
465.5382, 745.7796
466.0204, 744.4649
466.5025, 743.1318
466.9846, 742.6195
467.4667, 743.5986
467.9488, 747.3246
468.4309, 750.0336
468.9131, 750.6329
469.3952, 750.4237
469.8773, 751.0613
470.3594, 752.8578
470.8415, 755.0530
471.3236, 757.6612
471.8058, 760.5983
472.2879, 763.1863
472.7700, 765.1760
473.2521, 767.4395
473.7342, 770.6574
474.2163, 774.9052
474.6985, 778.9235
475.1806, 782.6140
475.6627, 786.1823
476.1448, 790.0228
476.6269, 794.0972
477.1090, 798.1057
477.5912, 802.1537
478.0733, 805.9202
478.5554, 808.7349
479.0375, 810.6488
479.5196, 812.0968
480.0017, 813.7595
480.4839, 814.9993
480.9660, 814.8632
481.4481, 812.9936
481.9302, 810.6055
482.4123, 809.3054
482.8944, 807.8184
483.3766, 804.2813
483.8587, 795.6121
484.3408, 787.1318
484.8229, 781.1788
485.3050, 777.4840
485.7871, 773.5964
486.2693, 768.6924
486.7514, 763.6799
487.2335, 759.0262
487.7156, 754.5745
488.1977, 750.7081
488.6798, 747.3785
489.1620, 744.6143
489.6441, 742.5925
490.1262, 741.6417
490.6083, 740.5323
491.0904, 738.9536
491.5725, 737.0419
492.0547, 735.3741
492.5368, 734.0068
493.0189, 732.7166
493.5010, 731.2184
493.9831, 729.6327
494.4652, 728.8121
494.9474, 728.9432
495.4295, 729.1661
495.9116, 728.0559
496.3937, 726.2000
496.8758, 725.3358
497.3579, 726.5895
497.8401, 728.4146
498.3222, 729.2897
498.8043, 729.3288
499.2864, 729.0165
499.7685, 728.2270
500.2506, 727.4257
500.7328, 726.8118
501.2149, 726.3164
501.6970, 726.5771
502.1791, 728.7846
502.6612, 731.3977
503.1433, 732.9628
503.6255, 732.1276
504.1076, 731.5598
504.5897, 731.9096
505.0718, 732.7822
505.5539, 732.9322
506.0360, 731.6160
506.5181, 730.7343
507.0002, 731.0541
507.4824, 732.6488
507.9645, 734.1123
508.4466, 735.2742
508.9287, 736.6991
509.4108, 739.2607
509.8929, 742.9395
510.3751, 745.7350
510.8572, 747.3559
511.3393, 747.9929
511.8214, 747.3912
512.3035, 745.8640
512.7856, 745.1148
513.2678, 746.9680
513.7499, 749.5989
514.2320, 749.9294
514.7141, 748.1699
515.1962, 747.1093
515.6783, 749.2839
516.1605, 752.6844
516.6426, 755.3486
517.1247, 756.5964
517.6068, 757.9025
518.0889, 760.0938
518.5710, 762.6684
519.0532, 764.8710
519.5353, 765.6441
520.0174, 767.0436
520.4995, 769.8961
520.9816, 773.9684
521.4637, 777.6377
521.9459, 780.9019
522.4280, 783.7688
522.9101, 785.9846
523.3922, 787.1906
523.8743, 789.5845
524.3564, 793.3307
524.8386, 797.9288
525.3207, 802.8870
525.8028, 808.1598
526.2849, 813.7220
526.7670, 819.5610
527.2491, 825.6135
527.7313, 831.5609
528.2134, 837.4719
528.6955, 843.6400
529.1776, 850.4998
529.6597, 857.5193
530.1418, 863.8988
530.6240, 869.5070
531.1061, 875.1794
531.5882, 881.8337
532.0703, 888.5328
532.5524, 894.3955
533.0345, 899.1414
533.5167, 903.0594
533.9988, 906.3051
534.4809, 908.7364
534.9630, 910.1052
535.4451, 910.1903
535.9272, 909.4267
536.4094, 907.9876
536.8915, 905.8499
537.3736, 902.5146
537.8557, 897.4044
538.3378, 892.0084
538.8199, 887.2567
539.3021, 883.3318
539.7842, 878.5926
540.2663, 872.8074
540.7484, 866.6749
541.2305, 860.7648
541.7126, 855.1032
542.1948, 850.3500
542.6769, 846.8621
543.1590, 844.1501
543.6411, 841.6026
544.1232, 839.2794
544.6053, 837.4048
545.0875, 836.0163
545.5696, 835.1735
546.0517, 834.8826
546.5338, 835.1495
547.0159, 836.1544
547.4980, 838.7181
547.9802, 841.6249
548.4623, 843.8362
548.9444, 844.1462
549.4265, 845.5917
549.9086, 849.0179
550.3907, 853.6995
550.8729, 858.6880
551.3550, 864.3428
551.8371, 869.5980
552.3192, 873.8679
552.8013, 877.4907
553.2834, 882.5018
553.7656, 889.2636
554.2477, 896.0844
554.7298, 901.8528
555.2119, 906.7590
555.6940, 912.2746
556.1761, 918.3592
556.6583, 925.6618
557.1404, 935.2618
557.6225, 946.6069
558.1046, 958.2306
558.5867, 969.9076
559.0688, 981.7604
559.5510, 993.5482
560.0331, 1005.591
560.5152, 1018.747
560.9973, 1033.794
561.4794, 1049.707
561.9615, 1066.781
562.4437, 1084.619
562.9258, 1100.518
563.4079, 1114.659
563.8900, 1126.112
564.3721, 1134.543
564.8542, 1140.252
565.3364, 1142.296
565.8185, 1141.050
566.3006, 1135.694
566.7827, 1124.786
567.2648, 1107.840
567.7469, 1088.786
568.2291, 1067.586
568.7112, 1045.489
569.1933, 1024.142
569.6754, 1003.663
570.1575, 984.2411
570.6396, 965.8873
571.1218, 948.7151
571.6039, 932.5050
572.0860, 917.5629
572.5681, 905.1342
573.0502, 897.1876
573.5323, 891.6649
574.0145, 886.8957
574.4966, 882.9267
574.9787, 878.4368
575.4608, 872.0013
575.9429, 865.2308
576.4250, 859.7772
576.9072, 857.4695
577.3893, 854.4475
577.8714, 850.0567
578.3535, 844.9002
578.8356, 840.4433
579.3177, 836.7210
579.7999, 833.6633
580.2820, 831.3532
580.7641, 829.7112
581.2462, 828.0352
581.7283, 826.3030
582.2104, 824.8688
582.6926, 823.9849
583.1747, 823.6077
583.6568, 823.8005
584.1389, 824.6464
584.6210, 825.2863
585.1031, 823.9036
585.5853, 822.1070
586.0674, 822.4176
586.5495, 826.8680
587.0316, 831.2890
587.5137, 833.0684
587.9958, 833.4266
588.4779, 834.7459
588.9600, 837.4268
589.4421, 841.3484
589.9243, 846.8621
590.4064, 853.7864
590.8885, 860.7184
591.3706, 867.2966
591.8527, 874.4525
592.3348, 882.5678
592.8170, 891.6745
593.2991, 901.7012
593.7812, 912.5931
594.2633, 924.8256
594.7454, 939.3394
595.2275, 955.6937
595.7097, 971.4218
596.1918, 985.8086
596.6739, 1000.384
597.1560, 1016.566
597.6381, 1034.257
598.1202, 1052.833
598.6024, 1072.012
599.0845, 1092.208
599.5666, 1113.239
600.0487, 1135.469
600.5308, 1159.855
601.0129, 1186.803
601.4951, 1215.877
601.9772, 1246.545
602.4593, 1278.837
602.9414, 1313.360
603.4235, 1349.901
603.9056, 1389.009
604.3878, 1431.859
604.8699, 1477.887
605.3520, 1526.594
605.8341, 1578.397
606.3162, 1632.110
606.7983, 1688.198
607.2805, 1745.704
607.7626, 1802.330
608.2447, 1859.085
608.7268, 1912.109
609.2089, 1960.310
609.6910, 2002.174
610.1732, 2034.993
610.6553, 2062.211
611.1374, 2075.377
611.6195, 2068.226
612.1016, 2041.179
612.5837, 2000.028
613.0659, 1941.666
613.5480, 1873.428
614.0301, 1797.694
614.5122, 1713.066
614.9943, 1628.951
615.4764, 1543.021
615.9586, 1461.721
616.4407, 1389.870
616.9228, 1328.990
617.4049, 1273.336
617.8870, 1221.902
618.3691, 1175.240
618.8513, 1134.344
619.3334, 1098.958
619.8155, 1066.823
620.2976, 1037.535
620.7797, 1011.712
621.2618, 991.3520
621.7440, 975.4174
622.2261, 960.4951
622.7082, 944.8609
623.1903, 930.0203
623.6724, 916.8514
624.1545, 905.5003
624.6367, 894.9846
625.1188, 884.8364
625.6009, 875.7902
626.0830, 868.3715
626.5651, 863.1113
627.0472, 857.4587
627.5294, 851.2415
628.0115, 844.9342
628.4936, 838.8968
628.9757, 833.0684
629.4578, 828.2703
629.9399, 824.7141
630.4221, 821.8173
630.9042, 818.7311
631.3863, 815.5929
631.8684, 812.9184
632.3505, 811.2400
632.8326, 809.6879
633.3148, 807.4115
633.7969, 804.6298
634.2790, 802.0351
634.7611, 800.1158
635.2432, 798.2216
635.7253, 795.8533
636.2075, 793.0001
636.6896, 791.0145
637.1717, 790.4902
637.6538, 790.1398
638.1359, 789.3373
638.6180, 788.0280
639.1002, 786.6817
639.5823, 785.2584
640.0644, 783.9127
640.5465, 782.8634
641.0286, 782.0457
641.5107, 781.0306
641.9929, 779.6459
642.4750, 778.4877
642.9571, 778.6019
643.4392, 779.3780
643.9213, 779.6676
644.4034, 778.3408
644.8856, 777.2564
645.3677, 777.6576
645.8498, 779.0258
646.3319, 780.1082
646.8140, 780.0388
647.2961, 780.3086
647.7783, 781.5470
648.2604, 783.5660
648.7425, 784.8496
649.2246, 785.1336
649.7067, 785.2838
650.1888, 785.5881
650.6710, 786.0759
651.1531, 787.3000
651.6352, 789.2921
652.1173, 791.5187
652.5994, 793.6671
653.0815, 795.7192
653.5637, 797.4429
654.0458, 798.6870
654.5279, 800.5532
655.0100, 804.6446
655.4921, 809.4648
655.9742, 813.2559
656.4564, 814.0350
656.9385, 815.9808
657.4206, 820.5756
657.9027, 826.7236
658.3848, 832.5722
658.8669, 838.2314
659.3491, 843.2776
659.8312, 847.2377
660.3133, 850.7616
660.7954, 856.0121
661.2775, 863.0492
661.7596, 870.4474
662.2418, 877.5146
662.7239, 884.5544
663.2060, 892.6555
663.6881, 901.5800
664.1702, 909.4349
664.6523, 914.2356
665.1345, 917.9504
665.6166, 922.4393
666.0987, 927.9353
666.5808, 932.8043
667.0629, 936.3593
667.5450, 939.1502
668.0272, 941.6642
668.5093, 944.7398
668.9914, 945.4319
669.4735, 942.9300
669.9556, 939.0338
670.4377, 935.6978
670.9199, 933.0554
671.4020, 929.2296
671.8841, 923.9122
672.3662, 917.4276
672.8483, 910.3055
673.3304, 902.4633
673.8126, 893.6168
674.2947, 882.6799
674.7768, 872.0075
675.2589, 863.0739
675.7410, 855.7148
676.2231, 849.5345
676.7053, 845.5183
677.1874, 841.5911
677.6695, 836.8900
678.1516, 831.5598
678.6337, 826.7006
679.1158, 822.1952
679.5980, 818.3056
680.0801, 815.1335
680.5622, 812.6845
681.0443, 810.7601
681.5264, 809.4381
682.0085, 808.1257
682.4907, 806.1859
682.9728, 804.0028
683.4549, 802.5100
683.9370, 801.8038
684.4191, 801.2062
684.9012, 800.2083
685.3834, 799.0862
685.8655, 798.0540
686.3476, 797.0005
686.8297, 796.5101
687.3118, 797.1312
687.7939, 798.1963
688.2761, 799.0645
688.7582, 800.0178
689.2403, 799.9738
689.7224, 798.1976
690.2045, 796.1585
690.6866, 796.7257
691.1688, 799.8414
691.6509, 801.9139
692.1330, 801.5350
692.6151, 800.4064
693.0972, 801.4478
693.5793, 803.9620
694.0615, 805.8868
694.5436, 805.4203
695.0257, 804.8770
695.5078, 806.3528
695.9899, 809.1629
696.4720, 810.4417
696.9542, 807.4308
697.4363, 804.9609
697.9183, 804.7733
698.4005, 806.7264
698.8826, 808.4733
699.3647, 810.2507
699.8468, 811.1229
700.3289, 809.8336
700.8110, 806.8660
701.2932, 805.8852
701.7753, 806.9138
702.2574, 808.7487
702.7395, 811.4044
703.2216, 813.8358
703.7037, 814.1252
704.1859, 811.7365
704.6680, 810.1718
705.1501, 812.1345
705.6322, 815.1254
706.1143, 817.0701
706.5964, 816.9055
707.0786, 817.1163
707.5607, 816.1191
708.0428, 818.2615
708.5249, 819.7168
709.0070, 820.5220
709.4891, 818.7295
709.9713, 820.2915
710.4534, 820.5091
710.9355, 820.6715
711.4176, 822.7054
711.8997, 821.2908
712.3818, 823.2950
712.8640, 823.9347
713.3461, 825.1988
713.8282, 825.1103
714.3103, 825.4397
714.7924, 827.1220
715.2745, 828.0551
715.7567, 827.8111
716.2388, 829.1149
716.7209, 827.6530
717.2030, 830.3814
717.6851, 831.7822
718.1672, 833.0635
718.6494, 834.0433
719.1315, 833.5368
719.6136, 831.6306
720.0957, 830.4852
720.5778, 832.1189
721.0599, 834.8802
721.5421, 836.3556
722.0242, 836.6877
722.5063, 837.1481
722.9884, 838.8826
723.4705, 840.5496
723.9526, 841.0137
724.4348, 839.9648
724.9169, 840.0836
725.3990, 842.0264
725.8811, 844.4379
726.3632, 846.4870
726.8453, 848.0767
727.3275, 850.6111
727.8096, 854.2366
728.2917, 858.0882
728.7738, 860.9158
729.2559, 863.4344
729.7380, 867.7706
730.2202, 874.3553
730.7023, 880.8642
731.1844, 885.1754
731.6665, 888.7855
732.1486, 893.2282
732.6307, 898.7559
733.1129, 905.0928
733.5950, 912.4180
734.0771, 920.4416
734.5592, 928.9590
735.0413, 937.9733
735.5234, 947.3617
736.0056, 957.0554
736.4877, 967.2451
736.9698, 978.3629
737.4519, 990.3663
737.9340, 1003.172
738.4161, 1017.016
738.8983, 1031.039
739.3804, 1043.779
739.8625, 1056.182
740.3446, 1070.066
740.8267, 1087.693
741.3088, 1105.033
741.7910, 1121.912
742.2731, 1137.515
742.7552, 1150.253
743.2373, 1159.509
743.7194, 1167.053
744.2015, 1173.349
744.6837, 1177.992
745.1658, 1180.497
745.6479, 1180.736
746.1300, 1176.356
746.6121, 1164.938
747.0942, 1149.732
747.5764, 1134.769
748.0585, 1119.869
748.5406, 1104.241
749.0227, 1087.381
749.5048, 1069.803
749.9869, 1050.972
750.4691, 1031.315
750.9512, 1014.235
751.4333, 1001.331
751.9154, 988.7057
752.3975, 974.5242
752.8796, 959.4265
753.3618, 946.8910
753.8439, 937.0766
754.3260, 928.2578
754.8081, 919.6218
755.2902, 911.3194
755.7723, 903.5518
756.2545, 896.2892
756.7366, 889.7730
757.2187, 884.4377
757.7008, 879.5702
758.1829, 874.7678
758.6650, 870.0400
759.1472, 865.0727
759.6293, 859.1379
760.1114, 853.9451
760.5935, 850.5034
761.0756, 848.8340
761.5577, 847.5184
762.0399, 846.6658
762.5220, 845.2643
763.0041, 841.8448
763.4862, 837.4959
763.9683, 834.3229
764.4504, 832.4403
764.9326, 830.9438
765.4147, 829.1501
765.8968, 827.5947
766.3789, 826.8605
766.8610, 827.4456
767.3431, 827.1268
767.8253, 825.0226
768.3074, 822.9208
768.7895, 822.0671
769.2716, 822.5787
769.7537, 823.5414
770.2358, 825.1026
770.7180, 826.2252
771.2001, 825.2292
771.6822, 823.1998
772.1643, 822.3652
772.6464, 823.0757
773.1285, 824.3648
773.6107, 826.2415
774.0928, 828.0203
774.5749, 828.9299
775.0570, 828.0025
775.5391, 828.2338
776.0212, 830.3509
776.5034, 832.9780
776.9855, 834.8682
777.4676, 835.9309
777.9497, 837.0350
778.4318, 838.1168
778.9139, 839.8370
779.3961, 843.4940
779.8782, 848.2198
780.3603, 852.0186
780.8424, 854.1011
781.3245, 856.9198
781.8066, 862.7761
782.2888, 869.7005
782.7709, 875.8011
783.2530, 880.5573
783.7351, 884.7280
784.2172, 887.9340
784.6993, 891.0319
785.1815, 895.1790
785.6636, 900.4736
786.1457, 904.8698
786.6278, 908.1414
787.1099, 910.5546
787.5920, 912.7617
788.0742, 914.2997
788.5563, 914.3710
789.0384, 912.7420
789.5205, 909.6876
790.0026, 904.1585
790.4847, 897.8525
790.9669, 892.6933
791.4490, 890.0281
791.9311, 886.3123
792.4132, 880.9508
792.8953, 875.0871
793.3774, 870.0264
793.8596, 865.8172
794.3417, 861.9517
794.8238, 858.3923
795.3059, 855.0804
795.7880, 851.7556
796.2701, 848.6664
796.7523, 846.1648
797.2344, 844.5648
797.7165, 843.2353
798.1986, 842.1909
798.6807, 841.1849
799.1628, 839.8387
799.6450, 837.5812
800.1271, 836.4984
800.6092, 837.2734
801.0913, 838.2842
801.5734, 836.6879
802.0555, 833.0782
802.5377, 830.9041
803.0198, 830.9836
803.5019, 832.0378
803.9840, 833.4786
804.4661, 834.8754
804.9482, 835.5147
805.4304, 834.0828
805.9125, 833.8602
806.3946, 837.0040
806.8767, 840.8585
807.3588, 842.4758
807.8409, 840.8807
808.3230, 841.0662
808.8051, 843.8831
809.2872, 847.4838
809.7693, 849.3806
810.2515, 850.0941
810.7336, 851.3249
811.2157, 853.7047
811.6978, 855.5820
812.1799, 855.7292
812.6620, 854.6990
813.1442, 853.0873
813.6263, 850.5861
814.1084, 848.2026
814.5905, 846.0831
815.0726, 844.0267
815.5547, 841.8746
816.0369, 839.6629
816.5190, 836.9758
817.0011, 833.6064
817.4832, 830.5945
817.9653, 829.1750
818.4474, 828.9304
818.9296, 829.3878
819.4117, 830.8515
819.8938, 831.4853
820.3759, 829.1068
820.8580, 826.2191
821.3401, 825.2911
821.8223, 827.4445
822.3044, 829.0609
822.7865, 830.0385
823.2686, 830.6703
823.7507, 830.9092
824.2328, 830.9336
824.7150, 832.1310
825.1971, 834.7197
825.6792, 837.4804
826.1613, 839.5536
826.6434, 841.0530
827.1255, 841.9109
827.6077, 841.8166
828.0898, 842.2814
828.5719, 844.2391
829.0540, 846.4064
829.5361, 847.9810
830.0182, 848.8797
830.5004, 849.4481
830.9825, 849.4766
831.4646, 850.1735
831.9467, 853.4186
832.4288, 857.9418
832.9109, 860.6790
833.3931, 861.3664
833.8752, 862.1425
834.3573, 864.8615
834.8394, 867.7490
835.3215, 869.4958
835.8036, 869.7420
836.2858, 869.9787
836.7679, 870.2142
837.2500, 870.4597
837.7321, 870.6511
838.2142, 870.8256
838.6964, 871.4672
839.1785, 872.5773
839.6606, 873.6601
840.1427, 874.2665
840.6248, 874.7208
841.1069, 875.4326
841.5891, 876.3854
842.0712, 877.1193
842.5533, 877.7328
843.0354, 877.7761
843.5175, 876.8843
843.9996, 875.1434
844.4818, 873.8948
844.9639, 873.1797
845.4460, 872.6617
845.9281, 872.2859
846.4102, 871.9286
846.8923, 871.5310
847.3745, 870.9838
847.8566, 869.7885
848.3387, 866.6456
848.8208, 863.8002
849.3029, 862.7024
849.7850, 863.0790
850.2672, 863.0824
850.7493, 862.3725
851.2314, 861.9482
851.7135, 862.2535
852.1956, 862.9092
852.6777, 862.5248
853.1599, 861.3175
853.6420, 860.8246
854.1241, 862.3531
854.6062, 864.0789
855.0883, 864.0935
855.5704, 863.0773
856.0526, 862.4158
856.5347, 862.5870
857.0168, 863.0400
857.4989, 863.6119
857.9810, 864.4450
858.4631, 865.9243
858.9453, 868.1197
859.4274, 870.0714
859.9095, 871.6550
860.3916, 872.6355
860.8737, 871.7862
861.3558, 870.2787
861.8380, 870.5014
862.3201, 874.4338
862.8022, 877.6010
863.2843, 877.1173
863.7664, 875.6397
864.2485, 876.3246
864.7307, 880.2996
865.2128, 882.9784
865.6949, 883.8865
866.1770, 884.2500
866.6591, 885.5654
867.1412, 887.4733
867.6234, 888.7919
868.1055, 889.2449
868.5876, 890.1607
869.0697, 893.1976
869.5518, 896.5940
870.0339, 898.8993
870.5161, 899.5724
870.9982, 900.3085
871.4803, 901.1679
871.9624, 901.9946
872.4445, 902.8154
872.9266, 903.5652
873.4088, 903.3195
873.8909, 902.1052
874.3730, 901.2668
874.8551, 902.3438
875.3372, 903.8369
875.8193, 904.3155
876.3015, 903.7528
876.7836, 903.2313
877.2657, 903.7845
877.7478, 903.4700
878.2299, 901.2264
878.7120, 897.5662
879.1942, 895.8381
879.6763, 896.0994
880.1584, 896.3477
880.6405, 895.6833
881.1226, 894.4376
881.6047, 893.0371
882.0869, 891.4196
882.5690, 889.4130
883.0511, 885.8954
883.5332, 883.1967
884.0153, 882.4353
884.4974, 882.7875
884.9796, 882.8309
885.4617, 882.6041
885.9438, 881.8113
886.4259, 880.4031
886.9080, 878.3583
887.3901, 874.8281
887.8723, 870.7375
888.3544, 868.2979
888.8365, 868.8585
889.3186, 869.4063
889.8007, 868.4776
890.2828, 866.9283
890.7650, 865.6283
891.2471, 864.5061
891.7292, 864.0172
892.2113, 864.4144
892.6934, 864.7228
893.1755, 863.6797
893.6577, 861.8026
894.1398, 860.4897
894.6219, 859.8941
895.1040, 859.6384
895.5861, 860.0447
896.0682, 860.2661
896.5504, 859.4523
897.0325, 857.3709
897.5146, 856.2587
897.9967, 856.6024
898.4788, 856.8109
898.9609, 855.8358
899.4431, 854.0891
899.9252, 853.2897
900.4073, 853.3268
900.8894, 853.4832
901.3715, 853.2264
901.8536, 853.0467
902.3358, 853.4879
902.8179, 854.3402
903.3000, 854.7100
903.7821, 854.1266
904.2642, 853.8231
904.7463, 854.2411
905.2285, 854.8815
905.7106, 854.4645
906.1927, 853.1819
906.6748, 852.3090
907.1569, 852.3850
907.6390, 852.6028
908.1212, 852.2249
908.6033, 851.5724
909.0854, 851.0715
909.5675, 850.9144
910.0496, 850.7208
910.5317, 850.2917
911.0139, 850.0687
911.4960, 850.6292
911.9781, 851.8976
912.4602, 852.9840
912.9423, 853.8276
913.4244, 854.4237
913.9066, 854.6730
914.3887, 854.7412
914.8708, 855.0301
915.3529, 855.6553
915.8350, 855.0437
916.3171, 851.8336
916.7993, 848.8945
917.2813, 847.3384
917.7634, 847.0793
918.2455, 847.8389
918.7277, 849.5570
919.2098, 851.2781
919.6919, 852.7125
920.1740, 853.6976
920.6561, 854.1044
921.1382, 853.9361
921.6204, 853.1983
922.1025, 850.4837
922.5846, 849.1877
923.0667, 850.5479
923.5488, 852.9421
924.0309, 853.0501
924.5131, 851.0077
924.9952, 849.8875
925.4773, 850.4865
925.9594, 851.5274
926.4415, 851.9611
926.9236, 851.9572
927.4058, 851.5958
927.8879, 850.4051
928.3700, 850.2697
928.8521, 852.1834
929.3342, 854.1882
929.8163, 854.6595
930.2985, 853.6300
930.7806, 853.6453
931.2627, 854.7281
931.7448, 855.9484
932.2269, 856.7137
932.7090, 857.2184
933.1912, 857.7894
933.6733, 858.3611
934.1554, 858.3515
934.6375, 856.6447
935.1196, 855.6264
935.6017, 856.0234
936.0839, 857.4805
936.5660, 859.4684
937.0481, 861.8294
937.5302, 862.3191
938.0123, 859.1723
938.4944, 855.7658
938.9766, 855.3903
939.4587, 856.8790
939.9408, 858.4453
940.4229, 859.6669
940.9050, 861.0211
941.3871, 862.8171
941.8693, 864.3362
942.3514, 864.5867
942.8335, 863.7242
943.3156, 863.1486
943.7977, 862.9717
944.2798, 863.0604
944.7620, 863.3292
945.2441, 863.7990
945.7262, 864.4080
946.2083, 865.1459
946.6904, 866.4794
947.1725, 868.5714
947.6547, 871.0012
948.1368, 873.8997
948.6189, 876.8594
949.1010, 878.2074
949.5831, 878.2010
950.0652, 878.3767
950.5474, 879.8954
951.0295, 881.3466
951.5116, 881.3341
951.9937, 880.6639
952.4758, 880.9186
952.9579, 882.7673
953.4401, 884.3265
953.9222, 885.1818
954.4043, 886.2429
954.8864, 889.2947
955.3685, 893.5704
955.8506, 896.1057
956.3328, 896.4459
956.8149, 896.4369
957.2970, 896.6078
957.7791, 897.4329
958.2612, 899.7413
958.7433, 903.7243
959.2255, 905.8342
959.7076, 905.2395
960.1897, 905.3769
960.6718, 908.2938
961.1539, 912.9260
961.6360, 917.3604
962.1182, 921.3949
962.6003, 924.3382
963.0824, 924.9893
963.5645, 925.3973
964.0466, 926.1412
964.5287, 927.2791
965.0109, 929.0872
965.4930, 931.9591
965.9751, 933.6171
966.4572, 933.5812
966.9393, 933.1534
967.4214, 934.0837
967.9036, 935.6541
968.3857, 936.6773
968.8678, 936.9650
969.3499, 936.9042
969.8320, 936.1157
970.3141, 935.5613
970.7963, 936.0018
971.2784, 937.3133
971.7605, 937.0705
972.2426, 935.2177
972.7247, 933.5223
973.2068, 932.9143
973.6890, 932.9944
974.1711, 933.7572
974.6532, 934.7892
975.1353, 935.1512
975.6174, 933.7244
976.0995, 932.7590
976.5817, 933.0268
977.0638, 933.3565
977.5459, 931.5812
978.0280, 927.9962
978.5101, 926.2028
978.9922, 926.8536
979.4744, 927.8514
979.9565, 927.5421
980.4386, 926.6752
980.9207, 925.6995
981.4028, 924.5765
981.8849, 924.6590
982.3671, 926.8387
982.8492, 928.2999
983.3313, 927.2584
983.8134, 924.8173
984.2955, 924.3494
984.7776, 925.5331
985.2598, 927.0687
985.7419, 929.1744
986.2240, 930.5397
986.7061, 929.6993
987.1882, 928.0187
987.6703, 927.7764
988.1525, 929.3787
988.6346, 931.1531
989.1167, 933.0850
989.5988, 934.7311
990.0809, 935.1969
990.5630, 935.1829
991.0452, 935.8821
991.5273, 937.4260
992.0094, 939.2921
992.4915, 941.4066
992.9736, 943.7107
993.4557, 946.5301
993.9379, 949.5244
994.4200, 950.1522
994.9021, 948.4372
995.3842, 947.6248
995.8663, 949.3825
996.3484, 952.0663
996.8306, 954.5325
997.3127, 956.4538
997.7948, 957.3239
998.2769, 956.1427
998.7590, 955.1218
999.2411, 954.2411
999.7233, 953.6505
1000.205, 953.8191
1000.688, 954.4764
1001.170, 954.1953
1001.652, 952.9203
1002.134, 951.0447
1002.616, 948.1785
1003.098, 945.3922
1003.580, 943.5685
1004.062, 942.5325
1004.544, 941.2734
1005.027, 940.0245
1005.509, 937.3665
1005.991, 932.2979
1006.473, 926.8770
1006.955, 924.6687
1007.437, 924.4301
1007.919, 923.6739
1008.401, 921.6238
1008.883, 918.1575
1009.366, 918.5449
1009.848, 918.2790
1010.330, 917.3940
1010.812, 913.9425
1011.294, 913.8764
1011.776, 912.4973
1012.258, 911.0941
1012.740, 911.5936
1013.223, 908.6737
1013.705, 909.2059
1014.187, 908.4044
1014.669, 908.2587
1015.151, 906.7916
1015.633, 905.7734
1016.115, 906.1393
1016.597, 905.7872
1017.079, 904.2891
1017.562, 904.3685
1018.044, 901.7150
1018.526, 901.5194
1019.008, 902.4022
1019.490, 901.1277
1019.972, 901.3892
1020.454, 901.1086
1020.936, 898.2549
1021.419, 899.9608
1021.901, 899.7399
1022.383, 897.5389
1022.865, 899.1839
1023.347, 897.3226
1023.829, 896.7550
1024.311, 895.7313
1024.793, 895.2224
1025.275, 897.2546
1025.758, 899.0676
1026.240, 900.7347
1026.722, 901.7419
1027.204, 901.0897
1027.686, 899.1415
1028.168, 898.4234
1028.650, 899.0347
1029.132, 900.0627
1029.615, 900.6962
1030.097, 901.6871
1030.579, 904.0945
1031.061, 907.3781
1031.543, 908.9528
1032.025, 908.4352
1032.507, 907.4883
1032.989, 906.2051
1033.471, 905.4489
1033.953, 907.5064
1034.436, 910.6359
1034.918, 911.6955
1035.400, 909.3098
1035.882, 907.6541
1036.364, 908.3180
1036.846, 909.3410
1037.328, 909.5706
1037.810, 909.2182
1038.293, 910.4117
1038.775, 912.9648
1039.257, 914.9726
1039.739, 915.1339
1040.221, 914.6839
1040.703, 913.7287
1041.185, 912.9391
1041.667, 913.7406
1042.150, 916.9787
1042.632, 919.1074
1043.114, 919.6534
1043.596, 919.7783
1044.078, 920.4105
1044.560, 921.5423
1045.042, 923.2833
1045.524, 925.5919
1046.006, 928.0491
1046.489, 931.3724
1046.971, 933.6710
1047.453, 933.6748
1047.935, 932.7012
1048.417, 934.8094
1048.899, 939.6205
1049.381, 943.8448
1049.863, 946.3553
1050.345, 948.9476
1050.828, 953.4349
1051.310, 958.3840
1051.792, 962.0383
1052.274, 963.8663
1052.756, 967.8776
1053.238, 974.6993
1053.720, 980.7792
1054.202, 983.2570
1054.685, 984.1863
1055.167, 986.5192
1055.649, 990.1888
1056.131, 995.0366
1056.613, 1002.982
1057.095, 1009.183
1057.577, 1012.404
1058.059, 1014.521
1058.542, 1017.493
1059.024, 1021.259
1059.506, 1025.942
1059.988, 1031.464
1060.470, 1035.661
1060.952, 1036.075
1061.434, 1035.620
1061.916, 1035.886
1062.398, 1036.859
1062.880, 1038.449
1063.363, 1040.902
1063.845, 1042.420
1064.327, 1042.505
1064.809, 1041.618
1065.291, 1039.823
1065.773, 1037.633
1066.255, 1035.741
1066.737, 1034.361
1067.220, 1032.968
1067.702, 1031.696
1068.184, 1030.080
1068.666, 1027.909
1069.148, 1025.226
1069.630, 1021.655
1070.112, 1017.642
1070.594, 1014.719
1071.077, 1014.673
1071.559, 1014.394
1072.041, 1012.761
1072.523, 1010.219
1073.005, 1006.809
1073.487, 1002.359
1073.969, 999.7836
1074.451, 999.2307
1074.933, 999.3593
1075.416, 999.7300
1075.898, 999.8561
1076.380, 999.2722
1076.862, 998.0486
1077.344, 996.4105
1077.826, 993.5023
1078.308, 992.7719
1078.790, 995.3932
1079.272, 998.6144
1079.755, 998.6348
1080.237, 996.6456
1080.719, 994.4244
1081.201, 992.1761
1081.683, 990.7237
1082.165, 991.1303
1082.647, 991.4728
1083.129, 991.1895
1083.611, 990.2864
1084.094, 988.3416
1084.576, 985.6525
1085.058, 983.8555
1085.540, 983.7940
1086.022, 983.9801
1086.504, 984.3425
1086.986, 983.8995
1087.468, 981.5651
1087.951, 977.0768
1088.433, 973.2695
1088.915, 970.1216
1089.397, 968.0251
1089.879, 968.2697
1090.361, 968.8379
1090.843, 967.3076
1091.325, 964.5434
1091.807, 962.4625
1092.290, 962.1999
1092.772, 960.8099
1093.254, 957.7144
1093.736, 954.6273
1094.218, 953.5767
1094.700, 953.6348
1095.182, 952.8168
1095.664, 951.1403
1096.146, 949.6868
1096.629, 949.2264
1097.111, 948.6100
1097.593, 947.3975
1098.075, 945.9797
1098.557, 944.9788
1099.039, 944.4137
1099.521, 944.6903
1100.003, 945.9998
1100.486, 946.8046
1100.968, 945.5431
1101.450, 943.8390
1101.932, 942.6413
1102.414, 941.9545
1102.896, 942.0496
1103.378, 942.9742
1103.860, 943.5914
1104.343, 943.5544
1104.825, 942.9695
1105.307, 941.7233
1105.789, 940.1318
1106.271, 938.4589
1106.753, 936.4852
1107.235, 935.6207
1107.717, 936.2020
1108.199, 936.7140
1108.682, 935.9971
1109.164, 934.8295
1109.646, 934.6628
1110.128, 935.1457
1110.610, 935.4355
1111.092, 934.8705
1111.574, 934.6722
1112.056, 935.2708
1112.538, 935.6988
1113.021, 934.5528
1113.503, 932.4941
1113.985, 932.2803
1114.467, 933.7817
1114.949, 935.1254
1115.431, 935.1700
1115.913, 935.0929
1116.395, 935.3716
1116.878, 935.7914
1117.360, 936.0040
1117.842, 936.0240
1118.324, 935.8389
1118.806, 935.4080
1119.288, 935.5731
1119.770, 937.8829
1120.252, 940.2146
1120.734, 940.5118
1121.217, 939.3353
1121.699, 939.9879
1122.181, 942.7793
1122.663, 944.3137
1123.145, 943.3965
1123.627, 941.9418
1124.109, 941.1760
1124.591, 941.5812
1125.073, 944.5746
1125.556, 951.1486
1126.038, 953.1606
1126.520, 948.8917
1127.002, 945.3517
1127.484, 945.6888
1127.966, 948.1064
1128.448, 950.2399
1128.930, 951.9697
1129.413, 952.9891
1129.895, 952.7184
1130.377, 952.9467
1130.859, 954.0639
1131.341, 955.2358
1131.823, 955.7503
1132.305, 955.9314
1132.787, 957.4120
1133.270, 959.5978
1133.752, 960.4382
1134.234, 957.1269
1134.716, 954.9260
1135.198, 955.4534
1135.680, 957.1747
1136.162, 959.0464
1136.644, 960.9589
1137.126, 961.7986
1137.609, 961.6512
1138.091, 961.7532
1138.573, 963.3861
1139.055, 964.8784
1139.537, 965.3236
1140.019, 965.1196
1140.501, 964.5810
1140.983, 963.6813
1141.465, 963.8973
1141.948, 965.4034
1142.430, 966.9769
1142.912, 967.7058
1143.394, 968.0408
1143.876, 968.0394
1144.358, 967.9050
1144.840, 968.4733
1145.322, 969.8880
1145.805, 971.1697
1146.287, 972.2650
1146.769, 972.5623
1147.251, 970.2758
1147.733, 967.6237
1148.215, 967.2628
1148.697, 969.5392
1149.179, 970.8144
1149.661, 970.8711
1150.144, 970.5045
1150.626, 969.8560
1151.108, 969.1257
1151.590, 968.3004
1152.072, 967.7198
1152.554, 967.9701
1153.036, 969.3625
1153.518, 970.4602
1154.000, 970.8475
1154.483, 971.7851
1154.965, 974.4323
1155.447, 977.3203
1155.929, 977.2327
1156.411, 975.0165
1156.893, 972.2078
1157.375, 968.1859
1157.857, 966.3578
1158.340, 968.0431
1158.822, 970.0547
1159.304, 970.2115
1159.786, 969.1917
1160.268, 969.3641
1160.750, 970.2601
1161.232, 970.3619
1161.714, 968.7419
1162.197, 966.6135
1162.679, 963.4850
1163.161, 960.8669
1163.643, 960.5585
1164.125, 962.0032
1164.607, 961.8642
1165.089, 960.3739
1165.571, 959.2048
1166.053, 959.9117
1166.536, 960.2105
1167.018, 958.8453
1167.500, 957.0823
1167.982, 956.5242
1168.464, 956.9926
1168.946, 956.6474
1169.428, 955.4208
1169.910, 953.8057
1170.392, 951.6463
1170.875, 949.7087
1171.357, 948.3718
1171.839, 947.5342
1172.321, 947.1069
1172.803, 947.0907
1173.285, 947.7460
1173.767, 949.1335
1174.249, 949.7297
1174.732, 947.6281
1175.214, 945.1454
1175.696, 943.5580
1176.178, 942.7977
1176.660, 942.9518
1177.142, 944.0526
1177.624, 944.1882
1178.106, 942.9411
1178.589, 941.4421
1179.071, 940.0322
1179.553, 939.2933
1180.035, 940.3483
1180.517, 942.6085
1180.999, 943.0230
1181.481, 941.4401
1181.963, 939.8250
1182.445, 938.4102
1182.927, 938.0518
1183.410, 941.5281
1183.892, 945.0081
1184.374, 943.7424
1184.856, 937.9721
1185.338, 936.2189
1185.820, 939.0145
1186.302, 940.4252
1186.784, 937.9864
1187.267, 934.9985
1187.749, 935.0869
1188.231, 936.4003
1188.713, 936.7318
1189.195, 935.7958
1189.677, 935.6000
1190.159, 936.2141
1190.641, 937.0518
1191.124, 938.1664
1191.606, 938.8232
1192.088, 937.7703
1192.570, 935.9450
1193.052, 934.4236
1193.534, 933.1984
1194.016, 933.2518
1194.498, 934.8293
1194.980, 936.2874
1195.463, 937.0646
1195.945, 936.9493
1196.427, 935.0668
1196.909, 932.3962
1197.391, 930.3407
1197.873, 928.9219
1198.355, 928.7944
1198.837, 930.1036
1199.319, 931.9490
1199.802, 934.2748
1200.284, 936.3095
1200.766, 936.8682
1201.248, 936.5305
1201.730, 936.3505
1202.212, 936.7298
1202.694, 936.5632
1203.176, 935.7875
1203.658, 934.7029
1204.141, 932.7858
1204.623, 931.2604
1205.105, 932.2569
1205.587, 934.7106
1206.069, 936.1768
1206.551, 935.7074
1207.033, 936.1247
1207.515, 937.7162
1207.998, 939.0958
1208.480, 938.9889
1208.962, 938.1774
1209.444, 937.0319
1209.926, 935.9985
1210.408, 936.5317
1210.890, 940.2148
1211.372, 940.6804
1211.854, 936.9405
1212.337, 933.3298
1212.819, 934.1457
1213.301, 936.6642
1213.783, 937.9551
1214.265, 938.2216
1214.747, 938.5859
1215.229, 939.3799
1215.711, 939.6057
1216.193, 939.1458
1216.676, 938.4447
1217.158, 937.8814
1217.640, 937.3500
1218.122, 936.4384
1218.604, 935.4564
1219.086, 935.5896
1219.568, 937.2529
1220.050, 938.6307
1220.533, 939.5424
1221.015, 939.9691
1221.497, 938.9519
1221.979, 938.1639
1222.461, 939.9433
1222.943, 943.5516
1223.425, 945.4198
1223.907, 945.0128
1224.390, 944.6541
1224.872, 944.6232
1225.354, 944.7496
1225.836, 944.8561
1226.318, 945.0538
1226.800, 945.3934
1227.282, 945.9362
1227.764, 946.9476
1228.246, 948.6281
1228.729, 949.4821
1229.211, 949.1817
1229.693, 948.8391
1230.175, 949.9022
1230.657, 951.0397
1231.139, 950.7125
1231.621, 949.3768
1232.103, 949.5546
1232.585, 951.5163
1233.068, 952.0803
1233.550, 950.5391
1234.032, 949.3109
1234.514, 951.2740
1234.996, 953.7874
1235.478, 954.5352
1235.960, 954.0057
1236.442, 954.0704
1236.925, 954.7314
1237.407, 955.8997
1237.889, 957.6403
1238.371, 959.0251
1238.853, 958.7540
1239.335, 958.3301
1239.817, 958.9701
1240.299, 960.2675
1240.781, 961.0300
1241.264, 961.2995
1241.746, 961.9652
1242.228, 963.2094
1242.710, 964.7416
1243.192, 967.0923
1243.674, 968.8865
1244.156, 969.1037
1244.638, 968.3674
1245.120, 968.1946
1245.603, 968.5759
1246.085, 969.3732
1246.567, 970.5563
1247.049, 972.2742
1247.531, 975.0173
1248.013, 977.9163
1248.495, 980.7181
1248.977, 983.2856
1249.460, 985.3338
1249.942, 986.8871
1250.424, 987.7870
1250.906, 987.9500
1251.388, 988.4210
1251.870, 989.6116
1252.352, 991.4373
1252.834, 994.4035
1253.317, 997.3190
1253.799, 996.7240
1254.281, 994.1082
1254.763, 993.4887
1255.245, 995.6088
1255.727, 998.1005
1256.209, 1000.825
1256.691, 1002.919
1257.173, 1004.253
1257.656, 1004.617
1258.138, 1002.780
1258.620, 1000.025
1259.102, 999.0108
1259.584, 1000.236
1260.066, 1000.596
1260.548, 999.2928
1261.030, 997.9748
1261.512, 997.0400
1261.995, 996.4672
1262.477, 996.7682
1262.959, 997.1249
1263.441, 996.1469
1263.923, 993.6653
1264.405, 991.9354
1264.887, 991.3149
1265.369, 990.5135
1265.852, 989.2208
1266.334, 987.4835
1266.816, 984.7037
1267.298, 981.9759
1267.780, 980.6608
1268.262, 980.7666
1268.744, 980.6207
1269.226, 980.2237
1269.708, 979.5153
1270.191, 978.4306
1270.673, 977.2946
1271.155, 976.3569
1271.637, 975.5385
1272.119, 975.0876
1272.601, 974.7208
1273.083, 972.8558
1273.565, 969.6115
1274.047, 967.7842
1274.530, 968.1064
1275.012, 968.5067
1275.494, 966.9819
1275.976, 965.7053
1276.458, 966.1455
1276.940, 967.4923
1277.422, 967.6804
1277.904, 966.8986
1278.387, 966.0012
1278.869, 965.1011
1279.351, 964.6590
1279.833, 965.4089
1280.315, 966.0309
1280.797, 966.1693
1281.279, 965.7996
1281.761, 964.0897
1282.244, 962.0150
1282.726, 962.5848
1283.208, 966.1622
1283.690, 968.5335
1284.172, 967.8777
1284.654, 967.0711
1285.136, 966.7458
1285.618, 966.5265
1286.100, 965.6324
1286.583, 964.6287
1287.065, 964.4266
1287.547, 965.0573
1288.029, 965.8137
1288.511, 966.8482
1288.993, 967.0352
1289.475, 965.9291
1289.957, 964.9736
1290.439, 966.3182
1290.922, 968.1331
1291.404, 968.3827
1291.886, 967.3601
1292.368, 967.3221
1292.850, 968.4598
1293.332, 968.4833
1293.814, 966.9666
1294.296, 965.7759
1294.779, 966.6417
1295.261, 968.1567
1295.743, 970.1169
1296.225, 971.7127
##END=



