##NAMES=Colemanite
##RRUFFID=R050102
##IDEAL CHEMISTRY=CaB_3_O_4_(OH)_3_&#183;H_2_O
##LOCALITY=Kramer deposit, Boron, Kern County, California, USA
##OWNER=RRUFF
##SOURCE=Rock Currier
##DESCRIPTION=Colorless prismatic to tabular crystals
##STATUS=The identification of this mineral has been confirmed by X-ray diffraction and chemical analysis
##URL=rruff.info/R050102
##MEASURED CHEMISTRY=Ca_1.00_B_3.00_O_4_(OH)_3_Â·H_2_O ; trace amounts of Na; B assumed by stoichiometry and charge balance.
139.4189, 356.8264
139.9010, 360.5648
140.3831, 364.6784
140.8652, 368.4896
141.3473, 371.7051
141.8294, 374.6794
142.3116, 377.6675
142.7937, 380.8069
143.2758, 384.1209
143.7579, 387.8343
144.2400, 392.9239
144.7221, 397.3456
145.2043, 400.4095
145.6864, 402.6386
146.1685, 404.8189
146.6506, 407.4238
147.1327, 410.4669
147.6148, 414.1253
148.0969, 419.6478
148.5791, 424.4811
149.0612, 427.5342
149.5433, 428.8676
150.0254, 429.1213
150.5075, 428.6379
150.9896, 427.3437
151.4718, 425.6439
151.9539, 423.0705
152.4360, 420.3585
152.9181, 418.2392
153.4002, 416.8227
153.8823, 415.5214
154.3645, 413.7557
154.8466, 411.7271
155.3287, 409.9197
155.8108, 408.4680
156.2929, 407.3375
156.7750, 406.4749
157.2572, 405.9591
157.7393, 405.5769
158.2214, 405.1121
158.7035, 404.6457
159.1856, 404.3716
159.6677, 404.3623
160.1499, 404.6225
160.6320, 405.2983
161.1141, 406.9429
161.5962, 408.4881
162.0783, 409.3815
162.5604, 409.7780
163.0426, 410.2007
163.5247, 411.2673
164.0068, 413.2381
164.4889, 414.4945
164.9710, 414.4669
165.4531, 414.2756
165.9353, 414.5558
166.4174, 415.2773
166.8995, 415.8922
167.3816, 415.6779
167.8637, 414.1613
168.3458, 413.0284
168.8279, 412.6844
169.3101, 412.4048
169.7922, 411.4477
170.2743, 409.7206
170.7564, 407.9809
171.2385, 407.3019
171.7206, 407.8799
172.2028, 409.3278
172.6849, 412.8059
173.1670, 416.7035
173.6491, 419.0995
174.1312, 419.3715
174.6133, 418.3896
175.0955, 417.8631
175.5776, 418.3330
176.0597, 416.9169
176.5418, 411.9729
177.0239, 404.5405
177.5060, 396.9084
177.9882, 389.8394
178.4703, 382.6251
178.9524, 374.0638
179.4345, 364.0181
179.9166, 354.1540
180.3987, 345.3718
180.8809, 337.6084
181.3630, 330.6758
181.8451, 324.8192
182.3272, 319.6297
182.8093, 314.6393
183.2914, 309.8170
183.7736, 305.4472
184.2557, 302.0076
184.7378, 299.6475
185.2199, 297.0646
185.7020, 293.6411
186.1841, 290.1017
186.6663, 286.7270
187.1484, 283.5974
187.6305, 280.8934
188.1126, 278.8948
188.5947, 277.7900
189.0768, 276.9811
189.5589, 276.6292
190.0411, 276.3581
190.5232, 275.8678
191.0053, 275.0764
191.4874, 274.1675
191.9695, 273.4532
192.4516, 272.8380
192.9338, 272.6508
193.4159, 273.1812
193.8980, 273.9477
194.3801, 274.4951
194.8622, 274.6620
195.3443, 274.6496
195.8265, 274.9239
196.3086, 276.0973
196.7907, 276.8400
197.2728, 276.6158
197.7549, 276.1313
198.2370, 276.2141
198.7192, 277.2144
199.2013, 278.8581
199.6834, 280.4239
200.1655, 282.0310
200.6476, 283.4063
201.1297, 284.4930
201.6119, 285.3185
202.0940, 285.8635
202.5761, 286.0747
203.0582, 286.0951
203.5403, 286.3300
204.0224, 286.9559
204.5046, 287.4111
204.9867, 287.2949
205.4688, 286.8312
205.9509, 286.6006
206.4330, 286.8317
206.9151, 287.4561
207.3972, 288.3210
207.8794, 289.5186
208.3615, 290.6845
208.8436, 291.4692
209.3257, 291.9696
209.8078, 292.7869
210.2899, 294.3189
210.7721, 296.1421
211.2542, 297.5239
211.7363, 298.2413
212.2184, 299.3105
212.7005, 301.8070
213.1826, 305.7435
213.6648, 309.4834
214.1469, 312.4115
214.6290, 315.0133
215.1111, 317.5869
215.5932, 320.1539
216.0753, 322.9370
216.5575, 326.1530
217.0396, 329.7824
217.5217, 333.8780
218.0038, 339.6479
218.4859, 345.1689
218.9680, 349.0391
219.4502, 350.9965
219.9323, 352.0908
220.4144, 353.8167
220.8965, 356.6792
221.3786, 358.4433
221.8607, 358.6092
222.3429, 357.8120
222.8250, 356.2452
223.3071, 353.9978
223.7892, 351.2910
224.2713, 348.4398
224.7534, 345.4869
225.2356, 342.2526
225.7177, 338.6871
226.1998, 334.9102
226.6819, 330.8105
227.1640, 326.4609
227.6461, 322.2399
228.1283, 318.7928
228.6104, 316.4521
229.0925, 314.3170
229.5746, 312.4531
230.0567, 310.7148
230.5388, 308.8708
231.0210, 306.9215
231.5031, 305.1874
231.9852, 304.1782
232.4673, 304.5099
232.9494, 304.3788
233.4315, 303.5686
233.9137, 302.4812
234.3958, 301.4067
234.8779, 300.4155
235.3600, 299.3874
235.8421, 298.1143
236.3242, 296.2767
236.8064, 295.0175
237.2885, 294.4380
237.7706, 294.3499
238.2527, 294.9409
238.7348, 296.1708
239.2169, 297.1418
239.6991, 296.5485
240.1812, 293.6404
240.6633, 291.7977
241.1454, 291.9667
241.6275, 292.7719
242.1096, 292.8635
242.5918, 292.0039
243.0739, 290.9546
243.5560, 290.6273
244.0381, 291.1055
244.5202, 291.4001
245.0023, 291.3513
245.4845, 291.1158
245.9666, 290.8140
246.4487, 290.4572
246.9308, 290.1158
247.4129, 289.7462
247.8950, 289.3898
248.3771, 289.5182
248.8593, 290.7759
249.3414, 292.2805
249.8235, 292.9128
250.3056, 292.5109
250.7877, 291.8859
251.2698, 291.5322
251.7520, 291.4740
252.2341, 291.8603
252.7162, 293.1597
253.1983, 294.7192
253.6804, 295.6400
254.1625, 295.8128
254.6447, 295.8835
255.1268, 296.3065
255.6089, 296.9358
256.0910, 297.5174
256.5731, 297.8054
257.0552, 298.1438
257.5374, 299.1530
258.0195, 301.0007
258.5016, 302.6669
258.9837, 303.1949
259.4658, 303.3111
259.9479, 303.9163
260.4301, 305.4604
260.9122, 307.2904
261.3943, 308.4380
261.8764, 308.7373
262.3585, 309.1624
262.8406, 310.4839
263.3228, 311.9926
263.8049, 313.0158
264.2870, 313.3186
264.7691, 313.2878
265.2512, 313.4090
265.7333, 313.7116
266.2155, 314.0222
266.6976, 314.2181
267.1797, 314.4404
267.6618, 314.8836
268.1439, 315.6091
268.6260, 316.2701
269.1082, 316.3755
269.5903, 315.8115
270.0724, 315.2905
270.5545, 315.0864
271.0366, 314.8903
271.5187, 314.4652
272.0009, 313.7890
272.4830, 313.1009
272.9651, 312.8338
273.4472, 313.1801
273.9293, 312.8355
274.4114, 310.9559
274.8936, 308.8484
275.3757, 306.9871
275.8578, 305.4694
276.3399, 304.2376
276.8220, 303.3898
277.3041, 303.0401
277.7863, 302.2646
278.2684, 300.5390
278.7505, 298.7827
279.2326, 297.2261
279.7147, 295.9334
280.1968, 294.9419
280.6789, 294.3150
281.1610, 294.0566
281.6432, 293.9627
282.1253, 294.1511
282.6074, 294.4096
283.0895, 294.6172
283.5716, 294.8449
284.0537, 295.2486
284.5359, 295.9556
285.0180, 296.9434
285.5001, 297.9693
285.9822, 299.2310
286.4643, 300.2836
286.9464, 300.6866
287.4286, 300.8732
287.9107, 301.4709
288.3928, 302.8434
288.8749, 304.8973
289.3570, 307.2648
289.8391, 310.5420
290.3213, 313.3321
290.8034, 315.0572
291.2855, 316.3481
291.7676, 317.9122
292.2497, 320.0690
292.7318, 322.6510
293.2140, 325.1809
293.6961, 327.1508
294.1782, 329.9630
294.6603, 335.1078
295.1424, 340.3131
295.6245, 343.0572
296.1067, 342.7115
296.5888, 341.3128
297.0709, 342.5444
297.5530, 348.5238
298.0351, 353.1381
298.5172, 355.4526
298.9994, 357.2116
299.4815, 359.4725
299.9636, 362.4862
300.4457, 366.0214
300.9278, 369.8818
301.4099, 374.2742
301.8921, 378.3187
302.3742, 381.5313
302.8563, 384.9115
303.3384, 389.0819
303.8205, 393.9739
304.3026, 399.0586
304.7848, 403.8636
305.2669, 408.4204
305.7490, 412.7492
306.2311, 416.6668
306.7132, 420.5614
307.1953, 425.3553
307.6775, 430.2549
308.1596, 433.5743
308.6417, 434.0735
309.1238, 431.9563
309.6059, 429.3675
310.0880, 426.9159
310.5702, 423.2563
311.0523, 417.6966
311.5344, 410.8848
312.0165, 403.5642
312.4986, 396.0824
312.9807, 388.5957
313.4629, 381.3883
313.9450, 374.0139
314.4271, 367.6937
314.9092, 362.6034
315.3913, 358.5370
315.8734, 355.5198
316.3556, 353.5026
316.8377, 352.0257
317.3198, 350.2543
317.8019, 347.9744
318.2840, 345.7777
318.7661, 343.6493
319.2483, 341.5977
319.7304, 339.3338
320.2125, 336.9761
320.6946, 335.2585
321.1767, 335.2423
321.6588, 337.7079
322.1409, 338.7469
322.6230, 337.7303
323.1052, 336.1261
323.5873, 334.5426
324.0694, 332.9744
324.5515, 331.1205
325.0336, 328.6515
325.5157, 325.5774
325.9979, 323.0070
326.4800, 321.3941
326.9621, 319.8197
327.4442, 318.1790
327.9263, 316.4173
328.4084, 314.4255
328.8906, 312.1143
329.3727, 309.6481
329.8548, 307.7330
330.3369, 307.2232
330.8190, 306.1873
331.3011, 303.7646
331.7833, 301.0508
332.2654, 299.2343
332.7475, 298.7400
333.2296, 298.9810
333.7117, 298.8636
334.1938, 298.1474
334.6760, 297.5166
335.1581, 297.0037
335.6402, 296.5555
336.1223, 296.0860
336.6044, 295.6096
337.0865, 295.2691
337.5687, 295.2904
338.0508, 295.8322
338.5329, 295.9661
339.0150, 294.8741
339.4971, 294.1573
339.9792, 294.7676
340.4614, 296.3407
340.9435, 297.7931
341.4256, 298.1876
341.9077, 297.6786
342.3898, 298.2007
342.8719, 301.2222
343.3541, 303.6385
343.8362, 304.3241
344.3183, 304.1640
344.8004, 304.4264
345.2825, 305.7530
345.7646, 307.6822
346.2468, 308.9840
346.7289, 309.2144
347.2110, 309.6313
347.6931, 310.5734
348.1752, 311.6307
348.6573, 312.4647
349.1395, 312.9959
349.6216, 313.3894
350.1037, 314.0071
350.5858, 315.1133
351.0679, 315.3738
351.5500, 313.8402
352.0322, 312.1740
352.5143, 311.1875
352.9964, 310.8074
353.4785, 310.4503
353.9606, 309.6714
354.4427, 308.4813
354.9249, 307.0524
355.4070, 305.2163
355.8891, 303.3481
356.3712, 301.3719
356.8533, 299.4875
357.3354, 298.0219
357.8176, 297.1948
358.2997, 296.7854
358.7818, 296.3102
359.2639, 295.8342
359.7460, 295.1107
360.2281, 293.6606
360.7103, 292.1720
361.1924, 291.1415
361.6745, 290.6909
362.1566, 290.8790
362.6387, 291.9933
363.1208, 294.1363
363.6029, 296.0395
364.0851, 297.2966
364.5672, 298.4471
365.0493, 299.7101
365.5314, 301.1312
366.0135, 302.8454
366.4956, 304.8768
366.9778, 307.2525
367.4599, 310.3246
367.9420, 314.7360
368.4241, 318.6042
368.9062, 320.0944
369.3883, 320.4445
369.8705, 321.8899
370.3526, 325.7263
370.8347, 330.5665
371.3168, 334.4106
371.7989, 337.1528
372.2810, 339.7356
372.7632, 342.2516
373.2453, 345.0004
373.7274, 348.3333
374.2095, 352.3513
374.6916, 356.6978
375.1737, 361.0566
375.6559, 365.4960
376.1380, 370.4027
376.6201, 375.9682
377.1022, 381.9071
377.5843, 387.8018
378.0664, 393.6680
378.5486, 400.2354
379.0307, 407.9854
379.5128, 416.4861
379.9949, 425.1413
380.4770, 433.9427
380.9591, 442.8547
381.4413, 451.8185
381.9234, 460.9160
382.4055, 470.2658
382.8876, 480.4802
383.3697, 490.4620
383.8518, 499.8325
384.3340, 508.4319
384.8161, 515.8489
385.2982, 521.9456
385.7803, 526.6146
386.2624, 529.4474
386.7445, 530.7906
387.2267, 530.1569
387.7088, 527.9069
388.1909, 523.4200
388.6730, 515.4550
389.1551, 503.7088
389.6372, 489.9378
390.1194, 475.7374
390.6015, 461.0158
391.0836, 446.8214
391.5657, 433.4317
392.0478, 420.3739
392.5299, 407.1298
393.0121, 393.9091
393.4942, 381.4885
393.9763, 370.3312
394.4584, 360.2950
394.9405, 350.5290
395.4226, 340.5192
395.9048, 331.4510
396.3869, 323.6428
396.8690, 316.8016
397.3511, 310.5695
397.8332, 304.8470
398.3153, 299.5392
398.7975, 294.5581
399.2796, 289.8260
399.7617, 285.5820
400.2438, 282.0658
400.7259, 278.7518
401.2080, 275.3595
401.6902, 271.8987
402.1723, 268.5211
402.6544, 265.2866
403.1365, 262.2391
403.6186, 259.9532
404.1007, 259.5424
404.5828, 258.5793
405.0649, 256.1037
405.5471, 253.0622
406.0292, 250.5673
406.5113, 249.0512
406.9934, 248.1687
407.4755, 247.3919
407.9576, 246.8405
408.4398, 246.0244
408.9219, 244.5314
409.4040, 243.0535
409.8861, 241.9980
410.3682, 241.3396
410.8503, 240.7713
411.3325, 239.9906
411.8146, 239.0558
412.2967, 238.4545
412.7788, 238.3091
413.2609, 238.3002
413.7430, 238.5132
414.2252, 238.6965
414.7073, 238.4372
415.1894, 237.4859
415.6715, 236.3147
416.1536, 235.5347
416.6357, 235.1608
417.1179, 234.8714
417.6000, 234.5473
418.0821, 234.3107
418.5642, 234.2729
419.0463, 234.4350
419.5284, 234.6867
420.0106, 235.2017
420.4927, 235.7285
420.9748, 235.6034
421.4569, 234.6450
421.9390, 233.6100
422.4211, 233.1029
422.9033, 232.9747
423.3854, 232.7295
423.8675, 232.0260
424.3496, 231.4681
424.8317, 231.6068
425.3138, 232.2728
425.7960, 232.8316
426.2781, 232.9837
426.7602, 232.9837
427.2423, 233.4285
427.7244, 234.5882
428.2065, 235.2177
428.6887, 234.5087
429.1708, 233.5066
429.6529, 233.3742
430.1350, 234.1969
430.6171, 235.1764
431.0992, 235.6416
431.5814, 235.5845
432.0635, 235.4189
432.5456, 234.9754
433.0277, 234.6350
433.5098, 234.6564
433.9919, 234.8264
434.4741, 234.7748
434.9562, 234.3445
435.4383, 233.7210
435.9204, 233.2296
436.4025, 232.5914
436.8846, 232.6676
437.3668, 234.2362
437.8489, 235.7691
438.3310, 236.1660
438.8131, 235.5718
439.2952, 234.9294
439.7773, 235.0457
440.2595, 235.8244
440.7416, 236.2758
441.2237, 236.0621
441.7058, 236.0125
442.1879, 236.4156
442.6700, 237.0417
443.1522, 237.6097
443.6343, 238.0251
444.1164, 238.4769
444.5985, 239.3357
445.0806, 240.6552
445.5627, 241.5870
446.0448, 241.6759
446.5269, 241.7026
447.0091, 242.1177
447.4912, 242.8986
447.9733, 243.9129
448.4554, 245.1971
448.9375, 246.6364
449.4196, 248.0447
449.9018, 249.4299
450.3839, 250.7545
450.8660, 251.9196
451.3481, 253.0590
451.8302, 254.4246
452.3123, 256.1270
452.7945, 257.7664
453.2766, 259.3004
453.7587, 260.5941
454.2408, 261.3721
454.7229, 261.5638
455.2050, 261.3203
455.6872, 260.7045
456.1693, 259.6823
456.6514, 258.7652
457.1335, 258.4144
457.6156, 257.7409
458.0977, 255.9364
458.5799, 253.3877
459.0620, 251.1041
459.5441, 249.5784
460.0262, 248.5936
460.5083, 247.6632
460.9904, 246.8035
461.4726, 245.9833
461.9547, 244.9939
462.4368, 244.1956
462.9189, 243.9836
463.4010, 244.2872
463.8831, 244.6578
464.3653, 244.7109
464.8474, 244.4660
465.3295, 244.2335
465.8116, 243.9499
466.2937, 243.7693
466.7758, 243.8924
467.2580, 244.0503
467.7401, 243.8428
468.2222, 243.1589
468.7043, 242.4928
469.1864, 242.5590
469.6685, 243.4161
470.1507, 244.2058
470.6328, 244.7255
471.1149, 245.3219
471.5970, 246.2135
472.0791, 247.3289
472.5612, 248.4855
473.0434, 249.6514
473.5255, 250.7768
474.0076, 251.8258
474.4897, 252.8011
474.9718, 253.5388
475.4539, 253.7692
475.9361, 253.9217
476.4182, 254.6482
476.9003, 256.0133
477.3824, 257.4348
477.8645, 258.9500
478.3466, 260.2893
478.8288, 261.0583
479.3109, 261.2207
479.7930, 260.9537
480.2751, 260.3407
480.7572, 259.4072
481.2393, 258.3475
481.7215, 257.2769
482.2036, 255.9782
482.6857, 254.1232
483.1678, 252.1038
483.6499, 250.4759
484.1320, 249.3899
484.6142, 248.4937
485.0963, 247.2962
485.5784, 245.6484
486.0605, 244.4131
486.5426, 244.1424
487.0247, 243.6644
487.5068, 242.3459
487.9890, 240.5485
488.4711, 238.8745
488.9532, 237.6149
489.4353, 236.7701
489.9174, 236.4425
490.3995, 236.8000
490.8817, 237.0977
491.3638, 237.3504
491.8459, 237.4022
492.3280, 236.9553
492.8101, 236.1508
493.2922, 235.6018
493.7744, 235.8719
494.2565, 236.5864
494.7386, 236.8568
495.2207, 236.6067
495.7028, 236.4034
496.1849, 236.5810
496.6671, 236.9074
497.1492, 237.0638
497.6313, 237.0690
498.1134, 236.7858
498.5955, 235.6697
499.0776, 234.3891
499.5598, 234.1941
500.0419, 235.2657
500.5240, 236.5327
501.0061, 237.1721
501.4882, 237.2019
501.9703, 237.0156
502.4525, 235.9066
502.9346, 235.4309
503.4167, 236.6818
503.8988, 238.6137
504.3809, 239.6855
504.8630, 239.4835
505.3452, 238.9399
505.8273, 239.3192
506.3094, 240.8428
506.7915, 242.1217
507.2736, 242.9309
507.7557, 243.7396
508.2379, 244.6751
508.7200, 245.7195
509.2021, 246.8126
509.6842, 247.9292
510.1663, 249.1174
510.6484, 250.3924
511.1306, 251.6950
511.6127, 253.4926
512.0948, 256.3429
512.5769, 259.2043
513.0590, 261.1564
513.5411, 262.4776
514.0233, 264.1752
514.5054, 266.7775
514.9875, 269.9319
515.4696, 273.1522
515.9517, 276.4388
516.4338, 279.9713
516.9160, 283.9106
517.3981, 287.9855
517.8802, 291.7369
518.3623, 295.0742
518.8444, 298.6016
519.3265, 302.5165
519.8087, 306.6251
520.2908, 310.6608
520.7729, 314.6877
521.2550, 319.1213
521.7371, 324.2479
522.2192, 329.9549
522.7014, 335.7959
523.1835, 341.6107
523.6656, 347.8027
524.1477, 354.3417
524.6298, 361.2783
525.1119, 368.7627
525.5941, 376.7802
526.0762, 384.9695
526.5583, 392.9657
527.0404, 400.9242
527.5225, 410.0902
528.0046, 421.0560
528.4868, 432.1548
528.9689, 442.9695
529.4510, 453.6107
529.9331, 463.9813
530.4152, 474.0584
530.8973, 484.3990
531.3795, 496.0364
531.8616, 508.2181
532.3437, 518.9323
532.8258, 528.1403
533.3079, 535.3122
533.7900, 540.5324
534.2722, 543.1501
534.7543, 542.0864
535.2364, 536.3332
535.7185, 528.6135
536.2006, 519.5992
536.6827, 509.4425
537.1649, 498.3943
537.6470, 486.4657
538.1291, 473.6354
538.6112, 459.6293
539.0933, 444.4229
539.5754, 430.1979
540.0576, 417.6269
540.5397, 405.2461
541.0218, 391.9054
541.5039, 378.9404
541.9860, 368.2113
542.4681, 360.0707
542.9503, 352.9499
543.4324, 344.8607
543.9145, 335.6898
544.3966, 327.8954
544.8787, 321.8174
545.3608, 316.6778
545.8430, 312.1937
546.3251, 308.2777
546.8071, 304.9091
547.2892, 302.1535
547.7714, 299.6804
548.2535, 297.2780
548.7356, 294.9440
549.2177, 292.5345
549.6998, 289.9663
550.1819, 287.6588
550.6641, 285.9779
551.1462, 284.9178
551.6283, 284.0240
552.1104, 283.2880
552.5925, 282.7251
553.0746, 282.4030
553.5568, 282.2357
554.0389, 282.0155
554.5210, 281.7135
555.0031, 281.6441
555.4852, 282.2050
555.9673, 283.4547
556.4495, 284.6392
556.9316, 285.6754
557.4137, 286.7475
557.8958, 287.8891
558.3779, 289.0879
558.8600, 290.2890
559.3422, 291.4833
559.8243, 292.8042
560.3064, 294.2459
560.7885, 295.8524
561.2706, 298.4398
561.7527, 302.8034
562.2349, 306.6293
562.7170, 308.3832
563.1991, 308.6899
563.6812, 308.3223
564.1633, 307.3721
564.6454, 305.8474
565.1276, 303.6647
565.6097, 300.9342
566.0918, 297.9923
566.5739, 294.9010
567.0560, 290.9995
567.5381, 285.3318
568.0203, 278.0576
568.5024, 272.7963
568.9845, 270.9496
569.4666, 269.0399
569.9487, 266.2691
570.4308, 263.0775
570.9130, 259.7016
571.3951, 256.3315
571.8772, 253.5671
572.3593, 252.1216
572.8414, 251.9020
573.3235, 251.4258
573.8057, 250.6200
574.2878, 249.6846
574.7699, 248.4959
575.2520, 247.3234
575.7341, 246.6114
576.2162, 246.4379
576.6984, 245.9480
577.1805, 244.1377
577.6626, 241.7019
578.1447, 240.1918
578.6268, 239.7588
579.1089, 239.4643
579.5911, 238.7636
580.0732, 237.8167
580.5553, 237.0585
581.0374, 236.3815
581.5195, 236.0692
582.0016, 236.2966
582.4838, 236.8254
582.9659, 237.3940
583.4480, 238.0356
583.9301, 239.0339
584.4122, 240.6332
584.8943, 242.6284
585.3765, 244.2513
585.8586, 245.1679
586.3407, 246.3972
586.8228, 247.8879
587.3049, 249.8423
587.7870, 252.5001
588.2692, 255.7769
588.7513, 259.3290
589.2334, 262.8956
589.7155, 266.6921
590.1976, 271.2437
590.6797, 276.5486
591.1619, 281.5613
591.6440, 285.6587
592.1261, 289.7603
592.6082, 295.1652
593.0903, 301.8466
593.5724, 308.6862
594.0546, 315.5131
594.5367, 322.4806
595.0188, 329.7494
595.5009, 337.2640
595.9830, 344.9164
596.4651, 352.6976
596.9473, 360.3856
597.4294, 367.5562
597.9115, 373.9059
598.3936, 381.0956
598.8757, 388.9883
599.3578, 397.9049
599.8400, 407.9447
600.3221, 419.0539
600.8042, 431.3596
601.2863, 444.9043
601.7684, 459.1032
602.2505, 472.9317
602.7327, 486.7759
603.2148, 502.2375
603.6969, 519.6104
604.1790, 538.4762
604.6611, 558.9570
605.1432, 580.7973
605.6254, 603.0925
606.1075, 625.1653
606.5896, 648.9459
607.0717, 677.0260
607.5538, 705.8671
608.0359, 732.3385
608.5181, 755.6151
609.0002, 775.7196
609.4823, 793.1258
609.9644, 806.4646
610.4465, 809.8314
610.9286, 801.1506
611.4108, 786.1279
611.8929, 764.9390
612.3750, 738.5969
612.8571, 706.1706
613.3392, 668.9775
613.8214, 630.0325
614.3035, 589.9312
614.7856, 550.4000
615.2677, 513.9336
615.7498, 480.4740
616.2319, 450.3350
616.7141, 423.7735
617.1962, 400.1471
617.6783, 378.9591
618.1604, 360.3091
618.6425, 344.0751
619.1246, 331.4120
619.6068, 319.9193
620.0889, 308.1670
620.5710, 296.9279
621.0531, 287.6025
621.5352, 280.4977
622.0173, 274.4385
622.4995, 268.0897
622.9816, 261.4502
623.4637, 255.8282
623.9458, 251.5957
624.4279, 247.7705
624.9100, 244.0945
625.3922, 240.6163
625.8743, 237.3226
626.3564, 234.2007
626.8385, 231.4502
627.3206, 229.1582
627.8027, 227.3149
628.2849, 226.1964
628.7670, 225.7229
629.2490, 224.5789
629.7311, 221.9466
630.2133, 218.7025
630.6954, 216.5745
631.1775, 216.1293
631.6596, 215.3789
632.1417, 214.1081
632.6238, 212.7442
633.1060, 211.4479
633.5881, 210.2484
634.0702, 209.1350
634.5523, 208.1062
635.0344, 207.2082
635.5165, 206.5651
635.9987, 206.1895
636.4808, 205.6324
636.9629, 204.7243
637.4450, 203.9029
637.9271, 203.4609
638.4092, 203.2393
638.8914, 203.0539
639.3735, 202.9232
639.8556, 202.6789
640.3377, 202.0610
640.8198, 201.3723
641.3019, 201.0301
641.7841, 201.0434
642.2662, 201.1535
642.7483, 201.1809
643.2304, 201.2459
643.7125, 201.7416
644.1946, 203.1872
644.6768, 204.0662
645.1589, 203.5872
645.6410, 203.3549
646.1231, 204.6258
646.6052, 206.7156
647.0873, 208.0260
647.5695, 207.6968
648.0516, 207.0464
648.5337, 207.8257
649.0158, 209.7887
649.4979, 211.4010
649.9800, 212.3578
650.4622, 213.3600
650.9443, 215.0186
651.4264, 217.1537
651.9085, 218.9332
652.3906, 219.8920
652.8727, 221.2448
653.3549, 223.2878
653.8370, 225.8282
654.3191, 228.9557
654.8012, 232.4633
655.2833, 235.6767
655.7654, 238.1133
656.2476, 240.1394
656.7297, 242.7102
657.2118, 245.9271
657.6939, 249.1824
658.1760, 252.0227
658.6581, 255.3406
659.1403, 259.9930
659.6224, 265.4859
660.1045, 270.5481
660.5866, 274.4263
661.0687, 278.4878
661.5508, 283.6948
662.0330, 289.6864
662.5151, 295.8224
662.9972, 301.9923
663.4793, 308.1266
663.9614, 314.2103
664.4435, 320.1680
664.9257, 325.7448
665.4078, 330.4766
665.8899, 335.5294
666.3720, 342.2593
666.8541, 348.1682
667.3362, 351.5841
667.8184, 352.8255
668.3005, 353.2294
668.7826, 353.5243
669.2647, 353.0735
669.7468, 351.3715
670.2289, 348.2946
670.7111, 342.9307
671.1932, 334.8396
671.6753, 325.7384
672.1574, 316.7859
672.6395, 307.9920
673.1216, 299.3850
673.6038, 290.9612
674.0859, 282.7559
674.5680, 274.3667
675.0501, 266.4547
675.5322, 259.7636
676.0143, 254.1259
676.4965, 248.8201
676.9786, 243.3479
677.4607, 238.0901
677.9428, 233.9003
678.4249, 230.8533
678.9070, 227.8977
679.3892, 224.8411
679.8713, 221.9038
680.3534, 219.2097
680.8355, 216.7677
681.3176, 214.5909
681.7997, 212.7084
682.2819, 211.0489
682.7640, 209.5270
683.2461, 208.2283
683.7282, 207.4118
684.2103, 206.9710
684.6924, 206.3782
685.1746, 205.2652
685.6567, 203.8503
686.1388, 202.6736
686.6209, 201.6082
687.1030, 201.2811
687.5851, 202.4861
688.0673, 203.6015
688.5494, 203.5856
689.0315, 202.8637
689.5136, 202.3159
689.9957, 202.1627
690.4778, 202.1785
690.9600, 202.3799
691.4421, 202.5901
691.9242, 202.4389
692.4063, 201.9473
692.8884, 201.5665
693.3705, 201.5914
693.8527, 201.8867
694.3348, 202.0990
694.8169, 202.2902
695.2990, 202.2581
695.7811, 201.6469
696.2632, 201.1765
696.7454, 201.2994
697.2275, 201.7306
697.7096, 201.9928
698.1917, 201.9520
698.6738, 201.6804
699.1559, 201.1318
699.6381, 200.4253
700.1202, 199.6933
700.6023, 198.9764
701.0844, 198.6956
701.5665, 199.1376
702.0486, 200.0331
702.5308, 200.8237
703.0129, 201.6081
703.4950, 202.0236
703.9771, 201.6019
704.4592, 201.3626
704.9413, 201.9545
705.4235, 202.9059
705.9056, 203.5007
706.3877, 203.5388
706.8698, 203.3796
707.3519, 203.2402
707.8340, 203.1680
708.3162, 203.3171
708.7983, 203.6936
709.2804, 204.0987
709.7625, 204.4503
710.2446, 204.7792
710.7267, 205.1505
711.2089, 205.6012
711.6909, 205.9210
712.1730, 206.1994
712.6552, 206.2516
713.1373, 205.7244
713.6194, 205.0781
714.1015, 204.8991
714.5836, 205.2854
715.0657, 205.8539
715.5479, 206.2429
716.0300, 206.5876
716.5121, 207.3756
716.9942, 208.6197
717.4763, 209.4137
717.9584, 209.3410
718.4406, 209.0089
718.9227, 209.0550
719.4048, 209.4993
719.8869, 210.2303
720.3690, 211.4124
720.8511, 212.6646
721.3333, 213.8950
721.8154, 215.1316
722.2975, 216.3740
722.7796, 217.6452
723.2617, 219.0551
723.7438, 220.7465
724.2260, 222.4918
724.7081, 223.5075
725.1902, 223.8359
725.6723, 225.4696
726.1544, 229.1889
726.6365, 233.2071
727.1187, 236.0122
727.6008, 237.8454
728.0829, 240.2318
728.5650, 243.3201
729.0471, 246.7005
729.5292, 250.3714
730.0114, 254.2371
730.4935, 258.3304
730.9756, 262.5678
731.4577, 266.6597
731.9398, 270.4251
732.4219, 274.3562
732.9041, 279.3767
733.3862, 285.3221
733.8683, 290.6910
734.3504, 295.1350
734.8325, 299.9548
735.3146, 305.8432
735.7968, 312.5991
736.2789, 319.9135
736.7610, 327.7344
737.2431, 336.1830
737.7252, 345.6600
738.2073, 355.4023
738.6895, 365.1460
739.1716, 374.8326
739.6537, 384.2507
740.1358, 393.3765
740.6179, 402.7615
741.1000, 413.3338
741.5822, 424.5786
742.0643, 434.6328
742.5464, 443.5684
743.0285, 450.8134
743.5106, 456.3394
743.9927, 459.8565
744.4749, 461.1149
744.9570, 460.0196
745.4391, 456.2237
745.9212, 448.9095
746.4033, 439.9711
746.8854, 429.5751
747.3676, 418.0230
747.8497, 405.3179
748.3318, 391.6465
748.8139, 377.8572
749.2960, 364.2167
749.7781, 351.0965
750.2603, 338.9679
750.7424, 327.8714
751.2245, 317.6504
751.7066, 308.4250
752.1887, 299.5832
752.6708, 290.5628
753.1530, 281.6041
753.6351, 273.7613
754.1172, 267.3779
754.5993, 261.6154
755.0814, 256.9372
755.5635, 252.4152
756.0457, 247.2606
756.5278, 241.9098
757.0099, 237.2737
757.4920, 233.6585
757.9741, 230.5060
758.4562, 227.3289
758.9384, 224.2010
759.4205, 221.1738
759.9026, 218.2786
760.3847, 215.8006
760.8668, 213.9082
761.3489, 212.3844
761.8311, 210.9731
762.3132, 209.7116
762.7953, 208.3082
763.2774, 206.7290
763.7595, 205.0498
764.2416, 202.9550
764.7238, 201.0014
765.2059, 199.8889
765.6880, 199.5096
766.1701, 198.9484
766.6522, 197.6431
767.1343, 196.0570
767.6165, 194.4543
768.0986, 192.9932
768.5807, 192.1423
769.0628, 191.9745
769.5449, 192.1697
770.0270, 192.5542
770.5092, 192.9911
770.9913, 192.9379
771.4734, 192.0282
771.9555, 191.5322
772.4376, 191.9359
772.9197, 192.3133
773.4019, 192.0476
773.8840, 191.5527
774.3661, 191.5928
774.8482, 192.4087
775.3303, 193.1328
775.8124, 193.1207
776.2946, 192.9595
776.7767, 193.2835
777.2588, 193.9929
777.7409, 194.7349
778.2230, 195.3777
778.7051, 195.9416
779.1873, 196.3872
779.6694, 196.7566
780.1515, 197.6052
780.6336, 199.0269
781.1157, 200.6211
781.5978, 202.1300
782.0800, 203.9602
782.5621, 206.9042
783.0442, 210.6288
783.5263, 213.4957
784.0084, 214.6386
784.4905, 215.6807
784.9727, 217.3955
785.4548, 219.1366
785.9369, 220.2570
786.4190, 220.7761
786.9011, 221.0977
787.3832, 221.4535
787.8654, 221.5293
788.3475, 220.8801
788.8296, 219.5211
789.3117, 217.4855
789.7938, 214.6600
790.2759, 211.9376
790.7581, 209.8142
791.2402, 207.9591
791.7223, 205.8215
792.2044, 203.3845
792.6865, 200.7415
793.1686, 197.5464
793.6507, 194.5876
794.1328, 192.0886
794.6149, 189.9885
795.0970, 188.3209
795.5792, 187.0226
796.0613, 185.8198
796.5434, 184.5554
797.0255, 183.3189
797.5076, 182.1607
797.9897, 181.1179
798.4719, 180.3443
798.9540, 179.8544
799.4361, 179.4129
799.9182, 178.8679
800.4003, 178.2216
800.8824, 177.4132
801.3646, 176.1650
801.8467, 175.5762
802.3288, 176.3476
802.8109, 176.9068
803.2930, 176.3948
803.7751, 175.4238
804.2573, 174.6712
804.7394, 174.2034
805.2215, 174.2501
805.7036, 175.3813
806.1857, 176.5906
806.6678, 176.9253
807.1500, 176.8550
807.6321, 177.3595
808.1142, 178.5634
808.5963, 179.6447
809.0784, 179.8720
809.5605, 179.5704
810.0427, 179.7507
810.5248, 180.4572
811.0069, 180.6447
811.4890, 180.0577
811.9711, 179.1582
812.4532, 178.1152
812.9354, 177.0473
813.4175, 176.3949
813.8996, 176.5723
814.3817, 176.1683
814.8638, 174.5228
815.3459, 172.9046
815.8281, 172.0246
816.3102, 171.5163
816.7923, 170.8021
817.2744, 169.7664
817.7565, 168.7505
818.2386, 167.9220
818.7208, 167.2994
819.2029, 167.0571
819.6850, 167.0550
820.1671, 166.7702
820.6492, 166.0873
821.1313, 165.3517
821.6135, 164.8359
822.0956, 164.5234
822.5777, 164.3472
823.0598, 164.2874
823.5419, 164.4374
824.0240, 164.9376
824.5062, 165.4722
824.9883, 165.8887
825.4704, 166.2303
825.9525, 166.5220
826.4346, 166.7253
826.9167, 167.1340
827.3989, 168.2995
827.8810, 169.2186
828.3631, 168.9290
828.8452, 168.0945
829.3273, 167.7918
829.8094, 168.2000
830.2916, 168.6946
830.7737, 168.7277
831.2558, 168.6339
831.7379, 169.2731
832.2200, 170.5103
832.7021, 171.0827
833.1843, 170.7069
833.6664, 170.4000
834.1485, 170.9199
834.6306, 171.9087
835.1127, 172.3656
835.5948, 171.9537
836.0770, 171.9079
836.5591, 172.6443
837.0412, 173.2698
837.5233, 173.4672
838.0054, 173.4397
838.4875, 173.3138
838.9697, 173.1374
839.4518, 173.2342
839.9339, 173.9971
840.4160, 174.8017
840.8981, 175.2368
841.3802, 175.4207
841.8624, 175.4570
842.3445, 175.4190
842.8266, 175.5326
843.3087, 175.9781
843.7908, 176.4134
844.2729, 176.0634
844.7551, 175.0065
845.2372, 174.4381
845.7193, 174.4829
846.2014, 174.7013
846.6835, 174.9328
847.1656, 175.1582
847.6478, 175.3238
848.1299, 175.3961
848.6120, 175.6763
849.0941, 176.5301
849.5762, 177.1007
850.0583, 176.9153
850.5405, 176.6465
851.0226, 176.9432
851.5047, 177.6430
851.9868, 178.0688
852.4689, 177.9070
852.9510, 177.6460
853.4332, 177.3852
853.9153, 177.3583
854.3974, 178.1247
854.8795, 179.4044
855.3616, 180.2072
855.8438, 180.1636
856.3259, 179.9079
856.8080, 180.1837
857.2901, 180.9079
857.7722, 181.6674
858.2543, 182.4595
858.7365, 183.2937
859.2186, 184.1898
859.7007, 185.0858
860.1828, 185.9456
860.6649, 186.7594
861.1470, 187.4610
861.6292, 187.9256
862.1113, 188.4745
862.5934, 189.0676
863.0755, 189.7836
863.5576, 190.8983
864.0397, 192.0440
864.5219, 192.6055
865.0040, 192.4868
865.4861, 192.4795
865.9682, 192.8683
866.4503, 193.6259
866.9324, 195.1252
867.4146, 196.8129
867.8967, 197.6506
868.3788, 197.6085
868.8609, 197.5735
869.3430, 198.1213
869.8251, 199.0517
870.3073, 200.0828
870.7894, 201.1958
871.2715, 202.2077
871.7536, 203.1196
872.2357, 203.7895
872.7178, 204.1906
873.2000, 204.2026
873.6821, 203.5703
874.1642, 202.2296
874.6463, 201.1436
875.1284, 199.9132
875.6105, 199.5663
876.0926, 201.1435
876.5747, 202.7986
877.0568, 203.2172
877.5389, 202.7051
878.0211, 202.2016
878.5032, 201.9377
878.9853, 201.5946
879.4674, 201.0132
879.9495, 200.3163
880.4316, 199.6865
880.9138, 198.9905
881.3959, 197.8349
881.8780, 196.1943
882.3601, 194.7174
882.8422, 194.0687
883.3243, 193.7778
883.8065, 192.9688
884.2886, 191.7141
884.7707, 190.2782
885.2528, 188.7113
885.7349, 187.2831
886.2170, 186.1935
886.6992, 185.2813
887.1813, 184.1655
887.6634, 182.7842
888.1455, 181.6001
888.6276, 180.5698
889.1097, 179.8634
889.5919, 179.8404
890.0740, 179.9023
890.5561, 179.2331
891.0382, 177.9838
891.5203, 177.3065
892.0024, 178.0090
892.4846, 178.2921
892.9667, 177.3684
893.4488, 176.2880
893.9309, 175.8055
894.4130, 175.7419
894.8951, 175.7380
895.3773, 175.6843
895.8594, 175.2914
896.3415, 174.0523
896.8236, 172.6058
897.3057, 171.6771
897.7878, 171.1401
898.2700, 170.7586
898.7521, 170.4449
899.2342, 170.0278
899.7163, 169.3490
900.1984, 168.6660
900.6805, 168.6557
901.1627, 169.2700
901.6448, 169.3458
902.1269, 168.7335
902.6090, 168.2059
903.0911, 168.1032
903.5732, 168.2212
904.0554, 168.3556
904.5375, 168.5071
905.0196, 168.2757
905.5017, 167.2040
905.9838, 166.5212
906.4659, 166.7633
906.9481, 167.0408
907.4302, 166.8850
907.9123, 166.4082
908.3944, 165.7880
908.8765, 164.9642
909.3586, 164.4315
909.8408, 164.7859
910.3229, 164.9792
910.8050, 164.1008
911.2871, 162.8441
911.7692, 162.0315
912.2513, 161.8064
912.7335, 162.0979
913.2156, 163.0909
913.6977, 163.9240
914.1798, 163.4160
914.6619, 162.1525
915.1440, 161.2700
915.6262, 160.7960
916.1083, 160.3195
916.5904, 159.6806
917.0725, 159.1050
917.5546, 158.8348
918.0367, 158.8605
918.5189, 159.2796
919.0010, 160.1508
919.4831, 160.4653
919.9652, 159.9094
920.4473, 159.2830
920.9294, 159.0875
921.4116, 159.2325
921.8937, 159.5876
922.3758, 160.4192
922.8579, 160.4247
923.3400, 158.7561
923.8221, 157.4605
924.3043, 157.3066
924.7864, 157.5120
925.2685, 157.5526
925.7506, 157.3947
926.2327, 156.9946
926.7148, 156.1539
927.1970, 155.4489
927.6791, 155.0781
928.1612, 154.8825
928.6433, 154.8093
929.1254, 154.8053
929.6075, 154.8460
930.0897, 154.9055
930.5718, 154.8464
931.0539, 154.4394
931.5360, 154.0480
932.0181, 154.1994
932.5002, 154.5782
932.9824, 154.4683
933.4645, 153.9529
933.9466, 153.8391
934.4287, 154.5193
934.9108, 155.4260
935.3929, 155.7933
935.8751, 155.7405
936.3572, 155.8295
936.8393, 156.0506
937.3214, 156.0325
937.8035, 155.6501
938.2856, 155.3547
938.7678, 155.5380
939.2499, 156.0050
939.7320, 156.1557
940.2141, 155.8565
940.6962, 155.7593
941.1783, 155.8122
941.6605, 156.2104
942.1426, 157.3684
942.6247, 158.5485
943.1068, 158.8234
943.5889, 158.2725
944.0710, 158.0494
944.5532, 158.4707
945.0353, 158.7500
945.5174, 158.7446
945.9995, 158.6532
946.4816, 158.3786
946.9637, 158.1833
947.4459, 158.5470
947.9280, 159.5122
948.4101, 160.3127
948.8922, 160.4365
949.3743, 160.5702
949.8564, 161.1848
950.3386, 161.9644
950.8207, 162.5698
951.3028, 163.0106
951.7849, 163.4495
952.2670, 163.9488
952.7491, 164.3875
953.2313, 164.5138
953.7134, 164.6071
954.1955, 165.1629
954.6776, 166.0260
955.1597, 166.8166
955.6418, 167.4392
956.1240, 167.8236
956.6061, 167.8913
957.0882, 167.9433
957.5703, 168.6450
958.0524, 169.8569
958.5345, 170.5331
959.0166, 170.6393
959.4987, 170.8562
959.9808, 171.4139
960.4630, 172.0631
960.9451, 172.5791
961.4272, 172.9871
961.9093, 173.3898
962.3914, 173.7917
962.8735, 174.1642
963.3557, 174.4954
963.8378, 174.8259
964.3199, 175.1833
964.8020, 175.5271
965.2841, 175.6925
965.7662, 175.6852
966.2484, 176.2916
966.7305, 178.4739
967.2126, 179.8502
967.6947, 180.0214
968.1768, 179.6291
968.6589, 178.5710
969.1411, 177.3558
969.6232, 176.7893
970.1053, 176.9725
970.5874, 177.0746
971.0695, 177.0195
971.5516, 176.6837
972.0338, 175.5247
972.5159, 174.4793
972.9980, 174.7733
973.4801, 175.7869
973.9622, 175.8621
974.4443, 174.4663
974.9265, 173.1402
975.4086, 172.8679
975.8907, 173.0329
976.3728, 173.4863
976.8549, 173.7908
977.3370, 173.1241
977.8192, 171.6105
978.3013, 170.0787
978.7834, 168.9223
979.2655, 168.1680
979.7476, 168.0594
980.2297, 168.2685
980.7119, 168.0497
981.1940, 167.5766
981.6761, 167.7385
982.1582, 168.6160
982.6403, 168.9493
983.1224, 167.7707
983.6046, 165.9559
984.0867, 165.1424
984.5688, 165.2068
985.0509, 165.3490
985.5330, 165.5382
986.0151, 165.5957
986.4973, 165.4448
986.9794, 165.3538
987.4615, 165.6032
987.9436, 166.0510
988.4257, 166.1411
988.9078, 165.7786
989.3900, 165.7124
989.8721, 166.0170
990.3542, 166.5165
990.8363, 167.3036
991.3184, 167.9406
991.8005, 167.8362
992.2827, 167.1084
992.7648, 166.8016
993.2469, 167.2082
993.7290, 167.3905
994.2111, 167.0845
994.6932, 166.8667
995.1754, 167.0733
995.6575, 167.4439
996.1396, 167.7817
996.6217, 168.0724
997.1038, 167.7868
997.5859, 165.9943
998.0681, 164.9722
998.5502, 165.7575
999.0323, 166.5646
999.5144, 166.5693
999.9965, 165.9145
1000.479, 164.6107
1000.961, 162.7139
1001.443, 161.3939
1001.925, 161.6217
1002.407, 161.5884
1002.889, 160.5400
1003.371, 159.0644
1003.853, 157.1587
1004.336, 155.3560
1004.818, 154.7409
1005.300, 155.4763
1005.782, 155.8289
1006.264, 154.7274
1006.746, 153.1569
1007.228, 151.3611
1007.710, 149.7709
1008.193, 149.1048
1008.675, 149.0356
1009.157, 148.6048
1009.639, 147.5225
1010.121, 146.5325
1010.603, 146.4969
1011.085, 146.5583
1011.567, 145.4368
1012.049, 143.8870
1012.532, 143.3242
1013.014, 143.6651
1013.496, 144.0039
1013.978, 143.9536
1014.460, 143.6381
1014.942, 143.1119
1015.424, 142.4608
1015.906, 141.7161
1016.388, 140.9995
1016.871, 140.7405
1017.353, 140.9268
1017.835, 141.0947
1018.317, 141.0137
1018.799, 140.8474
1019.281, 140.8350
1019.763, 140.8843
1020.245, 140.6038
1020.728, 140.0704
1021.210, 139.8530
1021.692, 140.0318
1022.174, 140.1847
1022.656, 140.0777
1023.138, 139.8299
1023.620, 139.6210
1024.102, 139.4335
1024.584, 139.1068
1025.067, 138.6371
1025.549, 138.2774
1026.031, 138.0620
1026.513, 138.1159
1026.995, 138.5783
1027.477, 139.1197
1027.959, 139.1440
1028.441, 138.6745
1028.923, 138.3922
1029.406, 138.3290
1029.888, 138.2513
1030.370, 138.0789
1030.852, 138.0311
1031.334, 138.2800
1031.816, 138.6699
1032.298, 138.9465
1032.780, 139.1143
1033.263, 139.0266
1033.745, 138.5723
1034.227, 138.1869
1034.709, 137.9121
1035.191, 137.8079
1035.673, 138.0180
1036.155, 138.3093
1036.637, 138.1720
1037.120, 137.5136
1037.602, 137.4450
1038.084, 138.3984
1038.566, 139.0653
1039.048, 139.0736
1039.530, 139.0007
1040.012, 139.2018
1040.494, 139.5298
1040.976, 139.6636
1041.458, 139.5307
1041.941, 139.8132
1042.423, 141.3504
1042.905, 142.0185
1043.387, 140.5347
1043.869, 139.2079
1044.351, 139.4694
1044.833, 140.5970
1045.315, 141.4693
1045.798, 142.0576
1046.280, 142.5348
1046.762, 142.8558
1047.244, 143.1477
1047.726, 143.2769
1048.208, 143.5456
1048.690, 144.3083
1049.172, 145.2269
1049.655, 145.7488
1050.137, 145.8349
1050.619, 145.9870
1051.101, 146.1393
1051.583, 146.5562
1052.065, 147.1904
1052.547, 148.2104
1053.029, 150.2978
1053.511, 152.5214
1053.994, 153.3274
1054.476, 152.6707
1054.958, 152.3874
1055.440, 152.9715
1055.922, 153.8305
1056.404, 155.1131
1056.886, 156.3104
1057.368, 157.0261
1057.850, 157.5183
1058.333, 158.1503
1058.815, 158.9515
1059.297, 159.7594
1059.779, 160.4888
1060.261, 161.2982
1060.743, 162.2654
1061.225, 163.2935
1061.707, 164.6003
1062.190, 165.7599
1062.672, 166.0578
1063.154, 165.5987
1063.636, 165.4042
1064.118, 165.9287
1064.600, 166.4170
1065.082, 166.5104
1065.564, 166.5674
1066.047, 166.5472
1066.529, 166.8019
1067.011, 168.1612
1067.493, 170.2611
1067.975, 171.3192
1068.457, 170.4375
1068.939, 169.5825
1069.421, 169.6306
1069.903, 169.8841
1070.385, 169.6944
1070.868, 169.6113
1071.350, 170.5198
1071.832, 172.1456
1072.314, 173.3093
1072.796, 173.5334
1073.278, 173.9150
1073.760, 175.2273
1074.242, 176.5043
1074.725, 177.1084
1075.207, 177.4019
1075.689, 177.5400
1076.171, 177.7723
1076.653, 178.7222
1077.135, 180.6445
1077.617, 182.2769
1078.099, 182.8398
1078.582, 183.2062
1079.064, 183.7529
1079.546, 184.4380
1080.028, 185.3061
1080.510, 186.2416
1080.992, 187.1408
1081.474, 187.9721
1081.956, 188.2099
1082.438, 187.0753
1082.921, 185.9876
1083.403, 185.8328
1083.885, 185.8881
1084.367, 185.5312
1084.849, 184.9092
1085.331, 184.4260
1085.813, 184.1241
1086.295, 183.5797
1086.777, 182.6672
1087.260, 181.4090
1087.742, 179.3842
1088.224, 177.4503
1088.706, 176.5003
1089.188, 175.9538
1089.670, 174.8648
1090.152, 173.2086
1090.634, 171.6900
1091.116, 170.6478
1091.599, 169.5507
1092.081, 168.0420
1092.563, 166.5559
1093.045, 165.4298
1093.527, 164.4282
1094.009, 163.1658
1094.491, 161.7278
1094.973, 160.5843
1095.456, 159.9395
1095.938, 159.2438
1096.420, 158.3202
1096.902, 157.2660
1097.384, 155.8654
1097.866, 154.5776
1098.348, 153.9890
1098.830, 153.8598
1099.313, 153.5818
1099.795, 153.0682
1100.277, 152.1387
1100.759, 150.1004
1101.241, 148.4864
1101.723, 148.2645
1102.205, 148.3284
1102.687, 147.7331
1103.169, 146.8477
1103.651, 146.5365
1104.134, 146.8968
1104.616, 146.8996
1105.098, 146.0187
1105.580, 145.1936
1106.062, 144.6118
1106.544, 144.1892
1107.026, 143.8266
1107.508, 143.6231
1107.991, 143.9458
1108.473, 144.6662
1108.955, 144.6527
1109.437, 143.0976
1109.919, 142.0470
1110.401, 142.3044
1110.883, 142.4400
1111.365, 141.4143
1111.848, 140.4015
1112.330, 140.9648
1112.812, 142.5162
1113.294, 142.7201
1113.776, 140.7634
1114.258, 139.5714
1114.740, 139.7292
1115.222, 140.0007
1115.704, 140.2270
1116.187, 140.3607
1116.669, 140.2683
1117.151, 140.1028
1117.633, 140.2134
1118.115, 140.6557
1118.597, 140.8578
1119.079, 140.5493
1119.561, 140.5256
1120.043, 141.1552
1120.526, 141.6437
1121.008, 141.5214
1121.490, 141.1404
1121.972, 140.9480
1122.454, 140.9243
1122.936, 140.7982
1123.418, 140.3196
1123.900, 140.5303
1124.383, 141.8397
1124.865, 142.9445
1125.347, 143.4172
1125.829, 143.4703
1126.311, 143.1984
1126.793, 142.7520
1127.275, 142.5778
1127.757, 142.6862
1128.240, 143.0513
1128.722, 143.7805
1129.204, 144.2333
1129.686, 144.2325
1130.168, 144.0340
1130.650, 143.7169
1131.132, 143.5844
1131.614, 144.2895
1132.096, 145.6643
1132.578, 145.9724
1133.061, 145.1762
1133.543, 144.7493
1134.025, 144.8951
1134.507, 144.9768
1134.989, 144.6933
1135.471, 144.5776
1135.953, 145.2338
1136.435, 146.3887
1136.918, 147.5285
1137.400, 148.5271
1137.882, 148.2206
1138.364, 146.7607
1138.846, 146.0589
1139.328, 146.5802
1139.810, 147.1570
1140.292, 146.9680
1140.775, 146.6265
1141.257, 147.1280
1141.739, 148.1538
1142.221, 149.1687
1142.703, 149.9549
1143.185, 149.5701
1143.667, 148.2047
1144.149, 147.3950
1144.631, 147.7715
1145.114, 148.4910
1145.596, 148.9245
1146.078, 149.0565
1146.560, 148.5831
1147.042, 147.9712
1147.524, 148.1083
1148.006, 148.7324
1148.488, 149.0583
1148.970, 148.9337
1149.453, 148.7407
1149.935, 148.6945
1150.417, 148.6111
1150.899, 147.9636
1151.381, 147.5931
1151.863, 148.8953
1152.345, 150.5645
1152.827, 150.6872
1153.310, 149.5017
1153.792, 148.3530
1154.274, 147.6164
1154.756, 147.1196
1155.238, 146.8080
1155.720, 146.6898
1156.202, 146.8197
1156.684, 147.0937
1157.167, 147.6998
1157.649, 148.2525
1158.131, 147.9795
1158.613, 146.9438
1159.095, 146.4268
1159.577, 147.0527
1160.059, 147.4865
1160.541, 147.6394
1161.023, 147.4033
1161.505, 146.3647
1161.988, 145.2444
1162.470, 144.6669
1162.952, 144.5160
1163.434, 144.5126
1163.916, 144.7751
1164.398, 144.5144
1164.880, 143.2107
1165.362, 142.4942
1165.844, 142.9231
1166.327, 143.3466
1166.809, 143.1794
1167.291, 142.6860
1167.773, 142.1474
1168.255, 141.6088
1168.737, 141.4180
1169.219, 141.6888
1169.701, 141.5152
1170.184, 140.7935
1170.666, 140.0918
1171.148, 139.5713
1171.630, 139.1313
1172.112, 138.6980
1172.594, 138.3052
1173.076, 138.0211
1173.558, 137.8350
1174.041, 137.6621
1174.523, 137.5251
1175.005, 137.7707
1175.487, 138.3325
1175.969, 138.2177
1176.451, 137.0530
1176.933, 135.7036
1177.415, 134.8977
1177.897, 134.5081
1178.380, 134.3654
1178.862, 134.4745
1179.344, 135.0547
1179.826, 135.8309
1180.308, 136.1667
1180.790, 135.9785
1181.272, 135.4532
1181.754, 134.6486
1182.236, 134.0217
1182.719, 134.1191
1183.201, 134.3145
1183.683, 134.0982
1184.165, 133.6707
1184.647, 133.0992
1185.129, 132.5665
1185.611, 132.3964
1186.093, 132.6109
1186.576, 132.9108
1187.058, 133.4177
1187.540, 133.5277
1188.022, 132.4967
1188.504, 131.6957
1188.986, 132.1054
1189.468, 132.7789
1189.950, 132.8841
1190.432, 132.5160
1190.915, 131.9270
1191.397, 131.0075
1191.879, 130.6558
1192.361, 131.2515
1192.843, 131.7172
1193.325, 132.0725
1193.807, 131.9885
1194.289, 131.0128
1194.771, 130.0822
1195.254, 130.3330
1195.736, 131.3610
1196.218, 131.6603
1196.700, 131.1644
1197.182, 130.4043
1197.664, 129.2746
1198.146, 129.4890
1198.628, 131.4999
1199.111, 132.8756
1199.593, 132.2176
1200.075, 130.8406
1200.557, 130.3475
1201.039, 130.4598
1201.521, 130.5345
1202.003, 130.5925
1202.485, 130.6748
1202.968, 130.8038
1203.450, 131.1012
1203.932, 131.5481
1204.414, 131.9139
1204.896, 132.0926
1205.378, 131.9096
1205.860, 130.7423
1206.342, 129.5870
1206.824, 129.7060
1207.307, 130.3328
1207.789, 130.4548
1208.271, 130.2192
1208.753, 130.2167
1209.235, 130.5337
1209.717, 130.7000
1210.199, 130.3616
1210.681, 130.2262
1211.163, 130.6802
1211.646, 131.2231
1212.128, 131.8189
1212.610, 132.2015
1213.092, 131.8889
1213.574, 131.2451
1214.056, 131.2841
1214.538, 132.1120
1215.020, 132.5805
1215.503, 132.6270
1215.985, 132.4089
1216.467, 131.6886
1216.949, 131.3485
1217.431, 131.8236
1217.913, 132.5589
1218.395, 133.0488
1218.877, 133.4106
1219.359, 134.1030
1219.842, 135.0576
1220.324, 134.5565
1220.806, 132.7460
1221.288, 132.1588
1221.770, 133.0607
1222.252, 133.7404
1222.734, 133.4839
1223.216, 132.9864
1223.698, 132.8761
1224.181, 132.8695
1224.663, 132.2843
1225.145, 131.7100
1225.627, 132.4540
1226.109, 133.8180
1226.591, 134.3959
1227.073, 134.1294
1227.555, 133.5859
1228.038, 132.9577
1228.520, 132.5614
1229.002, 132.6427
1229.484, 132.8969
1229.966, 133.0900
1230.448, 133.4961
1230.930, 134.6208
1231.412, 135.8359
1231.895, 136.3782
1232.377, 136.3162
1232.859, 136.0991
1233.341, 132.7305
1233.823, 135.1523
1234.305, 136.6766
1234.787, 137.3500
1235.269, 134.7132
1235.751, 136.2829
1236.234, 136.1259
1236.716, 135.8689
1237.198, 137.9459
1237.680, 135.6378
1238.162, 137.6179
1238.644, 137.8447
1239.126, 138.8307
1239.608, 138.0789
1240.090, 137.8250
1240.573, 139.2502
1241.055, 139.6995
1241.537, 139.5271
1242.019, 140.3899
1242.501, 141.5103
1242.983, 142.5816
1243.465, 143.2393
1243.947, 143.5695
1244.430, 143.3853
1244.912, 143.1380
1245.394, 143.7380
1245.876, 144.9782
1246.358, 145.8249
1246.840, 145.9692
1247.322, 146.0962
1247.804, 146.6277
1248.286, 146.9635
1248.769, 146.3856
1249.251, 146.1758
1249.733, 147.3879
1250.215, 149.0266
1250.697, 150.2087
1251.179, 150.9072
1251.661, 150.9377
1252.143, 150.1448
1252.625, 150.1988
1253.108, 151.3322
1253.590, 152.3195
1254.072, 153.0395
1254.554, 153.3741
1255.036, 153.2599
1255.518, 152.8752
1256.000, 152.3347
1256.482, 151.8175
1256.964, 151.7301
1257.447, 151.9089
1257.929, 151.7665
1258.411, 151.5334
1258.893, 152.2430
1259.375, 153.4685
1259.857, 153.2367
1260.339, 151.1918
1260.821, 149.4243
1261.304, 149.2342
1261.786, 149.2401
1262.268, 148.6098
1262.750, 147.8237
1263.232, 146.9707
1263.714, 146.3268
1264.196, 146.3698
1264.678, 146.7074
1265.161, 146.5174
1265.643, 145.7466
1266.125, 145.1176
1266.607, 144.8900
##END=



