##NAMES=Collinsite
##RRUFFID=R060140
##IDEAL CHEMISTRY=Ca_2_Mg(PO_4_)_2_&#183;2H_2_O
##LOCALITY=Big Fish River, Yukon Territory, Canada
##OWNER=RRUFF
##SOURCE=Mark Mauthner
##DESCRIPTION=Platy, colorless fragment
##STATUS=The identification of this mineral has been confirmed by X-ray diffraction and chemical analysis
##URL=rruff.info/R060140
##MEASURED CHEMISTRY=Ca_2.00_(Mg_0.63_Fe^2+^_0.34_Mn_0.03_)_Σ=1_(P_1.00_O_4_)_2_·2H_2_O ; = darker phase. The lighter phase is: Ca_2.00_(Mg_0.58_Fe^2+^_0.38_Mn_0.04_)_Σ=1_(P_1.00_O_4_)_2_·2H_2_O
90.26367, 4.279564
90.74579, 4.170430
91.22791, 4.219711
91.71002, 4.409447
92.19214, 4.581790
92.67426, 4.595841
93.15637, 4.490541
93.63850, 4.367850
94.12061, 4.257717
94.60273, 4.152888
95.08485, 4.017644
95.56696, 3.844501
96.04908, 3.699826
96.53120, 3.679011
97.01331, 3.777411
97.49543, 3.894944
97.97755, 4.020477
98.45966, 4.148010
98.94178, 4.160194
99.42390, 4.013232
99.90602, 3.813542
100.3881, 3.787191
100.8703, 3.984514
101.3524, 4.176799
101.8345, 4.245380
102.3166, 4.165917
102.7987, 4.054147
103.2808, 3.881113
103.7630, 3.682035
104.2451, 3.628914
104.7272, 3.787745
105.2093, 4.004788
105.6914, 4.188437
106.1735, 4.346717
106.6557, 4.454231
107.1378, 4.497494
107.6199, 4.475190
108.1020, 4.442292
108.5841, 4.392508
109.0662, 4.335163
109.5484, 4.278031
110.0305, 4.053378
110.5126, 3.994272
110.9947, 4.210903
111.4768, 4.780032
111.9590, 5.279477
112.4411, 5.629157
112.9232, 5.902262
113.4053, 6.182612
113.8874, 6.494367
114.3695, 6.811728
114.8517, 7.116621
115.3338, 7.389870
115.8159, 7.693533
116.2980, 7.986752
116.7801, 8.323956
117.2622, 8.817429
117.7444, 9.598278
118.2265, 10.49986
118.7086, 11.41786
119.1907, 12.37252
119.6728, 13.29214
120.1549, 13.97992
120.6371, 14.53999
121.1192, 15.39861
121.6013, 16.94480
122.0834, 18.86479
122.5655, 20.81938
123.0477, 22.84903
123.5298, 24.74742
124.0119, 26.42312
124.4940, 27.86219
124.9761, 28.87187
125.4582, 29.33989
125.9404, 29.26367
126.4225, 28.62494
126.9046, 27.01511
127.3867, 24.96069
127.8688, 23.25707
128.3509, 21.91076
128.8331, 20.85225
129.3152, 20.00260
129.7973, 19.37029
130.2794, 19.01163
130.7615, 18.99120
131.2436, 19.26755
131.7258, 19.72527
132.2079, 20.37657
132.6900, 21.16089
133.1721, 21.98751
133.6542, 22.85272
134.1364, 23.80337
134.6185, 24.89339
135.1006, 26.12348
135.5827, 27.37988
136.0648, 28.68540
136.5469, 29.99114
137.0291, 31.19876
137.5112, 32.30779
137.9933, 33.28650
138.4754, 34.08800
138.9575, 34.67165
139.4396, 35.29735
139.9218, 36.02295
140.4039, 36.80837
140.8860, 37.41371
141.3681, 37.74070
141.8502, 38.05534
142.3323, 38.55083
142.8145, 39.26541
143.2966, 40.08168
143.7787, 41.00170
144.2608, 42.03125
144.7429, 42.99268
145.2251, 43.68125
145.7072, 44.49829
146.1893, 45.85930
146.6714, 48.14065
147.1535, 50.39764
147.6356, 52.39172
148.1178, 54.04419
148.5999, 55.91515
149.0820, 57.99086
149.5641, 60.28561
150.0462, 62.80731
150.5283, 66.34289
151.0105, 69.28966
151.4926, 70.74603
151.9747, 71.36153
152.4568, 70.82710
152.9389, 68.96732
153.4210, 66.06167
153.9032, 62.43688
154.3853, 57.42390
154.8674, 52.39243
155.3495, 47.69933
155.8316, 43.09604
156.3138, 39.30493
156.7959, 36.62488
157.2780, 34.78326
157.7601, 33.28697
158.2422, 32.02842
158.7243, 31.05409
159.2065, 30.37506
159.6886, 30.03182
160.1707, 29.90001
160.6528, 29.91523
161.1349, 30.10489
161.6170, 30.54798
162.0992, 31.34751
162.5813, 32.35785
163.0634, 33.46994
163.5455, 34.53153
164.0276, 35.85867
164.5097, 37.64806
164.9919, 39.83638
165.4740, 42.18496
165.9561, 44.84078
166.4382, 47.48060
166.9203, 49.84547
167.4025, 51.82448
167.8846, 53.55157
168.3667, 54.95261
168.8488, 56.09822
169.3309, 57.44640
169.8130, 59.37674
170.2952, 61.64655
170.7773, 63.92220
171.2594, 65.90668
171.7415, 68.01199
172.2236, 70.60362
172.7057, 73.66831
173.1879, 77.05003
173.6700, 80.80398
174.1521, 84.77902
174.6342, 88.72948
175.1163, 92.57328
175.5984, 96.38546
176.0806, 100.1174
176.5627, 103.7801
177.0448, 107.6294
177.5269, 111.8073
178.0090, 116.3151
178.4911, 121.2844
178.9733, 126.8711
179.4554, 132.8530
179.9375, 138.8467
180.4196, 144.7468
180.9017, 151.1000
181.3839, 159.1935
181.8660, 168.3793
182.3481, 176.6495
182.8302, 183.8656
183.3123, 189.4036
183.7944, 191.8088
184.2766, 191.0490
184.7587, 187.4189
185.2408, 180.2022
185.7229, 169.9211
186.2050, 159.2887
186.6871, 148.8079
187.1693, 138.8587
187.6514, 131.5173
188.1335, 126.8465
188.6156, 124.3574
189.0977, 123.8160
189.5798, 125.1496
190.0620, 126.9041
190.5441, 128.6547
191.0262, 130.3127
191.5083, 131.5216
191.9904, 132.5346
192.4725, 132.5337
192.9547, 130.0081
193.4368, 124.9031
193.9189, 118.4716
194.4010, 110.8811
194.8831, 102.2345
195.3652, 94.07011
195.8474, 86.39247
196.3295, 79.38623
196.8116, 73.41438
197.2937, 68.50545
197.7758, 64.47728
198.2579, 61.35561
198.7401, 59.14529
199.2222, 57.51445
199.7043, 56.51118
200.1864, 56.01220
200.6685, 55.79630
201.1507, 55.89209
201.6328, 56.14116
202.1149, 56.48212
202.5970, 56.92503
203.0791, 57.34433
203.5612, 57.70009
204.0434, 58.04363
204.5255, 58.51350
205.0076, 59.12319
205.4897, 59.81264
205.9718, 60.53739
206.4539, 61.28606
206.9361, 62.13345
207.4182, 63.07430
207.9003, 64.12137
208.3824, 65.36766
208.8645, 66.86247
209.3466, 68.43823
209.8288, 69.94239
210.3109, 71.27007
210.7930, 72.99152
211.2751, 75.21091
211.7572, 77.83799
212.2393, 80.68352
212.7215, 83.80721
213.2036, 86.95226
213.6857, 89.89257
214.1678, 92.49716
214.6499, 95.41305
215.1321, 98.89486
215.6142, 102.7432
216.0963, 106.1424
216.5784, 109.3401
217.0605, 111.6175
217.5426, 112.5434
218.0248, 112.1165
218.5069, 110.3139
218.9890, 106.9716
219.4711, 102.2408
219.9532, 96.70979
220.4353, 90.03948
220.9175, 83.05412
221.3996, 76.04038
221.8817, 68.73814
222.3638, 62.23820
222.8459, 56.71969
223.3280, 52.07232
223.8102, 48.15503
224.2923, 44.96920
224.7744, 42.39597
225.2565, 40.45730
225.7386, 39.41990
226.2208, 38.36281
226.7029, 37.12610
227.1850, 35.79396
227.6671, 34.86395
228.1492, 34.40039
228.6313, 34.24548
229.1135, 34.33509
229.5956, 34.78444
230.0777, 35.22109
230.5598, 35.61199
231.0419, 35.96961
231.5240, 36.35264
232.0062, 36.71840
232.4883, 37.16789
232.9704, 37.78179
233.4525, 38.66436
233.9346, 39.47469
234.4167, 40.14418
234.8989, 40.71397
235.3810, 41.37297
235.8631, 42.14891
236.3452, 42.98876
236.8273, 43.87151
237.3095, 44.79356
237.7916, 45.75512
238.2737, 46.73249
238.7558, 47.75080
239.2379, 48.94585
239.7200, 50.40712
240.2022, 51.92455
240.6843, 53.39427
241.1664, 54.76729
241.6485, 56.20415
242.1306, 57.74397
242.6127, 59.35934
243.0949, 60.89521
243.5770, 62.36531
244.0591, 63.74567
244.5412, 64.96916
245.0233, 65.84330
245.5054, 67.04382
245.9876, 68.84419
246.4697, 70.94779
246.9518, 72.46251
247.4339, 73.25106
247.9160, 73.66055
248.3981, 73.85234
248.8803, 73.87180
249.3624, 73.55840
249.8445, 72.82423
250.3266, 71.77625
250.8087, 70.69431
251.2909, 69.58655
251.7730, 68.44328
252.2551, 67.26022
252.7372, 65.98111
253.2193, 64.77671
253.7014, 63.64130
254.1836, 62.59167
254.6657, 61.68530
255.1478, 60.95247
255.6299, 60.30789
256.1120, 59.70086
256.5941, 59.10541
257.0763, 58.65997
257.5584, 58.42921
258.0405, 58.30384
258.5226, 58.10718
259.0047, 57.93005
259.4868, 57.49257
259.9690, 56.65871
260.4511, 55.35716
260.9332, 53.98017
261.4153, 52.48851
261.8974, 50.93866
262.3795, 49.45369
262.8617, 48.04699
263.3438, 46.63616
263.8259, 45.10962
264.3080, 43.40562
264.7901, 42.10662
265.2722, 41.30305
265.7544, 40.79543
266.2365, 40.28901
266.7186, 39.70933
267.2007, 39.36642
267.6829, 39.42765
268.1650, 39.92524
268.6471, 40.24252
269.1292, 40.27836
269.6113, 40.30176
270.0934, 40.68649
270.5756, 41.53504
271.0577, 42.35664
271.5398, 42.95162
272.0219, 43.33979
272.5040, 44.04500
272.9861, 45.07603
273.4683, 46.37933
273.9504, 47.97222
274.4325, 49.89763
274.9146, 51.82313
275.3967, 53.62599
275.8788, 55.35652
276.3610, 57.30791
276.8431, 59.49003
277.3252, 61.80197
277.8073, 64.17935
278.2894, 66.63248
278.7715, 69.01945
279.2537, 71.30827
279.7358, 73.52828
280.2179, 75.83892
280.7000, 78.25643
281.1821, 80.73215
281.6642, 83.27159
282.1464, 85.87571
282.6285, 88.46321
283.1106, 90.98254
283.5927, 93.50919
284.0748, 96.26217
284.5569, 99.26639
285.0391, 102.3663
285.5212, 105.4051
286.0033, 108.4121
286.4854, 111.7955
286.9675, 115.6904
287.4496, 119.8506
287.9318, 123.7455
288.4139, 127.4020
288.8960, 131.1091
289.3781, 135.2627
289.8602, 139.7333
290.3424, 143.9061
290.8245, 147.7678
291.3066, 151.2371
291.7887, 154.1111
292.2708, 156.4228
292.7530, 158.3353
293.2351, 160.2326
293.7172, 161.8182
294.1993, 162.2088
294.6814, 161.4089
295.1635, 159.2307
295.6457, 155.1709
296.1278, 149.4395
296.6099, 142.9238
297.0920, 136.0706
297.5741, 128.8036
298.0562, 120.7633
298.5384, 111.9401
299.0205, 103.3330
299.5026, 95.92162
299.9847, 89.56953
300.4668, 83.66867
300.9489, 78.14194
301.4311, 72.96301
301.9132, 68.18130
302.3953, 63.76245
302.8774, 59.91033
303.3595, 56.89769
303.8416, 54.51657
304.3238, 52.32484
304.8059, 50.19761
305.2880, 48.24706
305.7701, 46.64328
306.2522, 45.35551
306.7343, 44.29459
307.2165, 43.46981
307.6986, 42.79948
308.1807, 42.16983
308.6628, 41.49950
309.1449, 40.93589
309.6270, 40.59213
310.1092, 40.44071
310.5913, 40.40572
311.0734, 40.49527
311.5555, 40.65458
312.0376, 40.82381
312.5197, 40.96524
313.0019, 41.18966
313.4840, 41.67102
313.9661, 42.28144
314.4482, 42.76412
314.9304, 42.79042
315.4125, 42.81236
315.8946, 43.14026
316.3767, 43.86997
316.8588, 44.60894
317.3409, 45.13622
317.8231, 45.59865
318.3052, 46.18702
318.7873, 47.18961
319.2694, 48.13680
319.7515, 48.73809
320.2336, 48.94220
320.7158, 49.36705
321.1979, 50.20030
321.6800, 51.31958
322.1621, 52.61304
322.6442, 54.35562
323.1263, 55.96362
323.6085, 57.15125
324.0906, 57.96110
324.5727, 59.08296
325.0548, 61.15295
325.5369, 63.20903
326.0190, 64.66470
326.5012, 65.29854
326.9833, 65.53944
327.4654, 65.38595
327.9475, 64.85235
328.4296, 64.00035
328.9117, 63.04020
329.3939, 61.57461
329.8760, 59.39580
330.3581, 56.09884
330.8402, 52.80116
331.3223, 49.33854
331.8044, 45.90028
332.2866, 42.85273
332.7687, 40.23190
333.2508, 37.99634
333.7329, 36.17312
334.2150, 34.83846
334.6971, 33.51967
335.1793, 32.16135
335.6614, 30.85680
336.1435, 29.73737
336.6256, 28.80147
337.1077, 28.03506
337.5899, 27.47417
338.0720, 27.10406
338.5541, 26.78220
339.0362, 26.51664
339.5183, 26.27728
340.0005, 26.05395
340.4826, 25.85376
340.9647, 25.59610
341.4468, 25.23184
341.9289, 24.82044
342.4110, 24.56186
342.8932, 24.47254
343.3753, 24.43971
343.8574, 24.41258
344.3395, 24.38703
344.8216, 24.29078
345.3037, 24.08681
345.7859, 23.86782
346.2680, 23.84325
346.7501, 23.99780
347.2322, 24.09147
347.7143, 23.93115
348.1964, 23.60483
348.6786, 23.38716
349.1607, 23.28747
349.6428, 23.28962
350.1249, 23.45083
350.6070, 23.71161
351.0891, 23.88489
351.5713, 23.81170
352.0534, 23.64563
352.5355, 23.64006
353.0176, 23.78878
353.4997, 23.92294
353.9818, 23.83708
354.4640, 23.66650
354.9461, 23.63055
355.4282, 23.87891
355.9103, 24.17227
356.3924, 24.30275
356.8745, 24.29747
357.3567, 24.26177
357.8388, 24.17553
358.3209, 24.12894
358.8030, 24.22197
359.2851, 24.52472
359.7672, 24.82334
360.2494, 25.00072
360.7315, 25.09509
361.2136, 25.17472
361.6957, 25.26816
362.1779, 25.35221
362.6600, 25.39249
363.1421, 25.37247
363.6242, 25.42345
364.1063, 25.65255
364.5884, 25.94502
365.0706, 26.18151
365.5527, 26.22372
366.0348, 26.32586
366.5169, 26.57913
366.9990, 26.97347
367.4811, 27.32447
367.9633, 27.58083
368.4454, 27.81338
368.9275, 28.06163
369.4096, 28.37475
369.8917, 28.63378
370.3738, 28.79494
370.8560, 28.90284
371.3381, 29.08515
371.8202, 29.42473
372.3023, 29.72744
372.7844, 29.88290
373.2665, 29.80499
373.7487, 29.93595
374.2308, 30.33821
374.7129, 30.88664
375.1950, 31.43851
375.6771, 32.01609
376.1592, 32.52640
376.6414, 32.92109
377.1235, 33.21746
377.6056, 33.61852
378.0877, 34.15334
378.5698, 34.70928
379.0519, 35.17104
379.5341, 35.53381
380.0162, 35.98204
380.4983, 36.55362
380.9804, 37.21635
381.4625, 37.88767
381.9446, 38.57550
382.4268, 39.24576
382.9089, 39.86654
383.3910, 40.45406
383.8731, 41.05149
384.3553, 41.63766
384.8374, 42.33821
385.3195, 43.40632
385.8016, 44.72303
386.2837, 45.95934
386.7658, 46.81565
387.2480, 47.57032
387.7301, 48.62078
388.2122, 49.95382
388.6943, 51.33292
389.1764, 52.52563
389.6585, 53.67150
390.1407, 54.91552
390.6228, 56.26491
391.1049, 57.76976
391.5870, 59.47908
392.0691, 61.36446
392.5512, 63.34069
393.0334, 65.24231
393.5155, 67.30994
393.9976, 69.74214
394.4797, 72.66135
394.9618, 75.61080
395.4439, 78.33370
395.9261, 81.03443
396.4082, 83.97232
396.8903, 87.12728
397.3724, 90.64034
397.8545, 94.65589
398.3366, 99.19022
398.8188, 103.8003
399.3009, 108.2720
399.7830, 112.9362
400.2651, 117.9905
400.7472, 123.4353
401.2293, 129.2939
401.7115, 135.7135
402.1936, 142.5605
402.6757, 149.4212
403.1578, 156.1982
403.6399, 163.1825
404.1220, 170.4036
404.6042, 177.8795
405.0863, 185.7440
405.5684, 194.0143
406.0505, 202.5029
406.5326, 210.8332
407.0147, 218.9641
407.4969, 227.5093
407.9790, 236.7857
408.4611, 246.6312
408.9432, 256.3257
409.4254, 265.7792
409.9075, 275.5479
410.3896, 286.2235
410.8717, 297.6804
411.3538, 309.4351
411.8359, 321.3438
412.3181, 333.3959
412.8002, 345.7180
413.2823, 358.0437
413.7644, 370.2273
414.2465, 382.4003
414.7286, 394.2105
415.2108, 405.6363
415.6929, 416.5929
416.1750, 426.4244
416.6571, 434.7701
417.1392, 441.5544
417.6213, 446.9758
418.1035, 451.2211
418.5856, 453.8856
419.0677, 454.4492
419.5498, 453.1376
420.0319, 450.7658
420.5140, 447.2736
420.9962, 443.0820
421.4783, 438.3939
421.9604, 433.1714
422.4425, 427.6777
422.9246, 421.5595
423.4067, 415.3755
423.8889, 409.8091
424.3710, 405.1037
424.8531, 400.9032
425.3352, 397.2262
425.8173, 394.0654
426.2994, 391.3343
426.7816, 389.4927
427.2637, 387.6374
427.7458, 385.2353
428.2279, 382.2916
428.7100, 378.7646
429.1921, 374.9306
429.6743, 370.3717
430.1564, 364.2622
430.6385, 356.5739
431.1206, 347.4443
431.6028, 336.8139
432.0849, 324.6287
432.5670, 311.5659
433.0491, 297.4043
433.5312, 283.1034
434.0133, 269.2594
434.4955, 255.9191
434.9776, 243.3822
435.4597, 231.7215
435.9418, 220.9113
436.4239, 211.0074
436.9060, 202.1197
437.3882, 194.3883
437.8703, 188.1505
438.3524, 183.0586
438.8345, 178.6369
439.3166, 174.8316
439.7987, 171.7064
440.2809, 169.2874
440.7630, 167.5780
441.2451, 166.6055
441.7272, 166.6763
442.2093, 167.2119
442.6914, 168.0646
443.1736, 169.1832
443.6557, 170.2671
444.1378, 170.7563
444.6199, 171.4889
445.1020, 173.0043
445.5841, 175.5961
446.0663, 178.5335
446.5484, 181.9049
447.0305, 185.5302
447.5126, 189.1284
447.9947, 192.5172
448.4768, 196.0540
448.9590, 200.0802
449.4411, 204.6071
449.9232, 207.9856
450.4053, 209.7508
450.8874, 211.0800
451.3695, 213.0920
451.8517, 216.3373
452.3338, 217.8419
452.8159, 217.1692
453.2980, 214.8044
453.7801, 211.6757
454.2622, 207.8295
454.7444, 202.9183
455.2265, 196.6871
455.7086, 189.2499
456.1907, 181.2479
456.6729, 172.5569
457.1550, 163.6491
457.6371, 154.4907
458.1192, 145.3217
458.6013, 136.4279
459.0834, 127.8799
459.5656, 119.8089
460.0477, 112.4962
460.5298, 105.8168
461.0119, 99.77757
461.4940, 94.46674
461.9761, 89.56802
462.4583, 84.80425
462.9404, 80.09411
463.4225, 75.74759
463.9046, 72.01536
464.3867, 68.63017
464.8688, 65.42911
465.3510, 62.29665
465.8331, 59.38776
466.3152, 56.78159
466.7973, 54.44680
467.2794, 52.28239
467.7615, 50.28320
468.2437, 48.41935
468.7258, 46.65238
469.2079, 44.96824
469.6900, 43.56424
470.1721, 42.61055
470.6542, 41.76288
471.1364, 40.62085
471.6185, 39.07435
472.1006, 37.66524
472.5827, 36.48272
473.0648, 35.50171
473.5469, 34.69407
474.0291, 34.07476
474.5112, 33.45353
474.9933, 32.69621
475.4754, 31.84017
475.9575, 31.01450
476.4396, 30.21151
476.9218, 29.53140
477.4039, 29.21329
477.8860, 29.10366
478.3681, 28.83147
478.8503, 28.14638
479.3324, 27.41436
479.8145, 27.05759
480.2966, 26.97673
480.7787, 26.82202
481.2608, 26.29219
481.7430, 25.70221
482.2251, 25.28179
482.7072, 25.08279
483.1893, 24.90087
483.6714, 24.70005
484.1535, 24.46606
484.6357, 24.18521
485.1178, 23.77262
485.5999, 23.40595
486.0820, 23.16938
486.5641, 23.01242
487.0462, 22.72641
487.5284, 22.17373
488.0105, 21.67656
488.4926, 21.36685
488.9747, 21.27644
489.4568, 21.19169
489.9389, 21.12195
490.4211, 21.04233
490.9032, 20.92567
491.3853, 20.77030
491.8674, 20.58906
492.3495, 20.36516
492.8316, 20.14131
493.3138, 20.04581
493.7959, 20.06443
494.2780, 20.04253
494.7601, 19.82075
495.2422, 19.51414
495.7243, 19.37131
496.2065, 19.40757
496.6886, 19.45078
497.1707, 19.35711
497.6528, 19.18561
498.1349, 19.01112
498.6170, 18.81348
499.0992, 18.67631
499.5813, 18.71022
500.0634, 18.84091
500.5455, 18.88627
501.0276, 18.74889
501.5097, 18.54897
501.9919, 18.30020
502.4740, 17.98436
502.9561, 17.77319
503.4382, 17.68430
503.9203, 17.69840
504.4025, 17.83075
504.8846, 18.25498
505.3667, 18.41980
505.8488, 18.18061
506.3309, 17.73381
506.8130, 17.51828
507.2952, 17.58165
507.7773, 17.66508
508.2594, 17.67399
508.7415, 17.62259
509.2236, 17.60454
509.7057, 17.62481
510.1879, 17.61637
510.6700, 17.49610
511.1521, 17.30121
511.6342, 17.13247
512.1163, 17.00023
512.5984, 16.92164
513.0806, 16.91236
513.5627, 16.97083
514.0448, 17.09388
514.5269, 17.47275
515.0090, 17.75697
515.4911, 17.58520
515.9733, 17.03725
516.4554, 16.66165
516.9375, 16.79253
517.4196, 17.06704
517.9017, 17.28147
518.3839, 17.40449
518.8660, 17.48404
519.3481, 17.50221
519.8302, 17.48872
520.3123, 17.47076
520.7944, 17.42948
521.2766, 17.41737
521.7587, 17.44044
522.2408, 17.49891
522.7229, 17.60729
523.2050, 17.78370
523.6871, 17.94423
524.1693, 18.03773
524.6514, 18.06869
525.1335, 18.10756
525.6156, 18.15314
526.0977, 18.21648
526.5798, 18.31645
527.0620, 18.44478
527.5441, 18.56714
528.0262, 18.65373
528.5083, 18.77555
528.9904, 19.02740
529.4725, 19.37377
529.9547, 19.72791
530.4368, 20.03568
530.9189, 20.34309
531.4010, 20.70243
531.8831, 21.11591
532.3652, 21.44837
532.8474, 21.48050
533.3295, 21.54394
533.8116, 21.86005
534.2937, 22.62165
534.7758, 23.34803
535.2579, 23.98285
535.7401, 24.59835
536.2222, 25.27890
536.7043, 26.06201
537.1865, 26.83526
537.6686, 27.50952
538.1507, 28.16666
538.6328, 29.17549
539.1149, 30.57655
539.5970, 32.14230
540.0792, 33.77934
540.5613, 35.47894
541.0434, 37.07720
541.5255, 38.55916
542.0076, 40.02710
542.4897, 41.53366
542.9719, 43.11848
543.4540, 44.91276
543.9361, 47.06765
544.4182, 49.19365
544.9003, 50.85795
545.3824, 52.23903
545.8646, 53.73423
546.3467, 55.48228
546.8288, 57.39889
547.3109, 59.46185
547.7930, 61.65267
548.2751, 63.91656
548.7573, 66.32732
549.2394, 68.74401
549.7215, 71.09218
550.2036, 73.36738
550.6857, 75.57225
551.1678, 77.64738
551.6500, 79.72325
552.1321, 82.02602
552.6142, 84.64409
553.0963, 87.01187
553.5784, 89.04826
554.0605, 90.71072
554.5427, 91.91171
555.0248, 92.64938
555.5069, 92.87490
555.9890, 92.74160
556.4711, 92.01957
556.9532, 90.21384
557.4354, 87.30766
557.9175, 83.73537
558.3996, 79.45618
558.8817, 74.88694
559.3638, 70.46590
559.8459, 66.31552
560.3281, 62.36838
560.8102, 58.55967
561.2923, 54.98047
561.7744, 51.80225
562.2565, 49.40763
562.7386, 47.03063
563.2208, 44.32757
563.7029, 41.43109
564.1850, 39.12090
564.6671, 37.57116
565.1492, 36.33948
565.6313, 35.25322
566.1135, 34.32866
566.5956, 33.46014
567.0777, 32.66418
567.5598, 31.88535
568.0419, 30.95292
568.5240, 29.94791
569.0062, 29.27477
569.4883, 29.08234
569.9704, 29.09782
570.4525, 28.97968
570.9346, 28.79628
571.4167, 28.72802
571.8989, 28.93976
572.3810, 29.22481
572.8631, 29.46952
573.3452, 29.66879
573.8273, 29.82293
574.3094, 29.77253
574.7916, 29.80041
575.2737, 30.05995
575.7558, 30.59728
576.2379, 31.27200
576.7200, 32.13766
577.2021, 33.08042
577.6843, 33.99435
578.1664, 34.81158
578.6485, 35.77781
579.1306, 36.91974
579.6127, 38.23691
580.0948, 39.77386
580.5770, 41.52305
581.0591, 43.42898
581.5412, 45.46989
582.0233, 47.63493
582.5054, 49.90125
582.9875, 52.24486
583.4697, 54.73028
583.9518, 57.47853
584.4340, 60.31508
584.9161, 63.01408
585.3982, 65.52734
585.8803, 68.14066
586.3624, 71.05131
586.8445, 74.10339
587.3267, 77.15226
587.8088, 80.01630
588.2909, 83.07059
588.7730, 86.31076
589.2551, 89.78178
589.7372, 93.58362
590.2194, 97.77528
590.7015, 102.2066
591.1836, 106.8370
591.6657, 111.6550
592.1478, 116.5817
592.6299, 121.6021
593.1121, 126.5138
593.5942, 131.3006
594.0763, 135.8782
594.5584, 140.0445
595.0405, 143.7693
595.5226, 146.7956
596.0048, 149.4648
596.4869, 151.0856
596.9690, 150.6003
597.4511, 147.4643
597.9332, 143.0060
598.4153, 137.7695
598.8975, 131.7804
599.3796, 124.9157
599.8617, 116.2087
600.3438, 107.6279
600.8259, 99.52041
601.3080, 91.90662
601.7902, 85.05664
602.2723, 79.13418
602.7544, 73.80359
603.2365, 68.93431
603.7186, 64.56113
604.2007, 60.49402
604.6829, 56.76646
605.1650, 53.35021
605.6471, 50.29984
606.1292, 47.58110
606.6113, 44.91066
607.0934, 42.30078
607.5756, 39.77754
608.0577, 37.32673
608.5398, 35.02397
609.0219, 33.05952
609.5040, 31.58356
609.9861, 30.29585
610.4683, 29.06498
610.9504, 27.90151
611.4325, 26.80781
611.9146, 25.80266
612.3967, 24.86719
612.8788, 23.97072
613.3610, 23.12498
613.8431, 22.41204
614.3252, 21.89137
614.8073, 21.41210
615.2894, 20.87944
615.7715, 20.28893
616.2537, 19.76851
616.7358, 19.32242
617.2179, 18.93043
617.7000, 18.57237
618.1821, 18.25427
618.6642, 18.03108
619.1464, 17.94040
619.6285, 17.82466
620.1106, 17.46171
620.5927, 16.97290
621.0748, 16.56882
621.5569, 16.37221
622.0391, 16.22993
622.5212, 16.07269
623.0033, 15.91428
623.4854, 15.79724
623.9675, 15.78671
624.4496, 15.75859
624.9318, 15.66457
625.4139, 15.50694
625.8960, 15.41267
626.3781, 15.43012
626.8602, 15.40199
627.3423, 15.16214
627.8245, 14.72271
628.3066, 14.57821
628.7887, 14.78564
629.2708, 14.99703
629.7529, 14.73950
630.2350, 14.22062
630.7172, 13.92709
631.1993, 14.01716
631.6815, 14.20560
632.1636, 14.29657
632.6457, 14.32298
633.1278, 14.33919
633.6099, 14.39006
634.0920, 14.40464
634.5742, 14.34336
635.0563, 14.22480
635.5384, 14.11803
636.0205, 14.00593
636.5026, 13.93508
636.9847, 13.93733
637.4669, 14.00540
637.9490, 14.01917
638.4311, 13.97328
638.9132, 13.89899
639.3953, 13.79930
639.8774, 13.68481
640.3596, 13.60826
640.8417, 13.57263
641.3238, 13.55685
641.8059, 13.55094
642.2880, 13.54949
642.7701, 13.55269
643.2523, 13.57847
643.7344, 13.55919
644.2165, 13.40075
644.6986, 13.19573
645.1807, 13.06881
645.6628, 13.10910
646.1450, 13.15294
646.6271, 13.17624
647.1092, 13.18831
647.5913, 13.22022
648.0734, 13.29610
648.5555, 13.31923
649.0377, 13.22655
649.5198, 13.06198
650.0019, 13.03523
650.4840, 13.14467
650.9661, 13.27980
651.4482, 13.39336
651.9304, 13.47828
652.4125, 13.52707
652.8946, 13.53908
653.3767, 13.50418
653.8588, 13.33639
654.3409, 13.16762
654.8231, 13.12995
655.3052, 13.31809
655.7873, 13.42754
656.2694, 13.30466
656.7515, 13.12152
657.2336, 13.04542
657.7158, 13.12908
658.1979, 13.20937
658.6800, 13.28615
659.1621, 13.34051
659.6442, 13.32044
660.1263, 13.22470
660.6085, 13.16604
661.0906, 13.21040
661.5727, 13.27254
662.0548, 13.13570
662.5369, 12.86627
663.0190, 12.71742
663.5012, 12.94405
663.9833, 13.25058
664.4654, 13.42295
664.9475, 13.46374
665.4296, 13.46264
665.9117, 13.40438
666.3939, 13.34955
666.8760, 13.34366
667.3581, 13.40492
667.8402, 13.38595
668.3223, 13.23630
668.8044, 13.08600
669.2866, 13.03985
669.7687, 13.10186
670.2508, 13.15147
670.7329, 13.17725
671.2150, 13.21331
671.6971, 13.33967
672.1793, 13.50648
672.6614, 13.57435
673.1435, 13.48603
673.6256, 13.35940
674.1077, 13.24326
674.5898, 13.16093
675.0720, 13.14948
675.5541, 13.30291
676.0362, 13.43574
676.5183, 13.47719
677.0004, 13.46122
677.4825, 13.48750
677.9647, 13.59598
678.4468, 13.66857
678.9290, 13.66499
679.4111, 13.60099
679.8932, 13.53083
680.3753, 13.45097
680.8574, 13.43428
681.3395, 13.57726
681.8217, 13.79790
682.3038, 13.91821
682.7859, 13.94209
683.2680, 13.93544
683.7501, 13.92618
684.2322, 13.91656
684.7144, 13.90483
685.1965, 13.88810
685.6786, 13.88698
686.1607, 13.92484
686.6428, 13.96760
687.1249, 13.98802
687.6071, 13.95855
688.0892, 13.97223
688.5713, 14.04006
689.0534, 14.13378
689.5355, 14.22748
690.0176, 14.32119
690.4998, 14.39319
690.9819, 14.43780
691.4640, 14.46509
691.9461, 14.47253
692.4282, 14.47299
692.9103, 14.49489
693.3925, 14.55312
693.8746, 14.63063
694.3567, 14.66164
694.8388, 14.70518
695.3209, 14.90015
695.8030, 15.55183
696.2852, 16.04608
696.7673, 16.22277
697.2494, 16.12975
697.7315, 15.99055
698.2136, 15.78659
698.6957, 15.59641
699.1779, 15.44532
699.6600, 15.33582
700.1421, 15.28749
700.6242, 15.29860
701.1063, 15.34228
701.5884, 15.37090
702.0706, 15.43684
702.5527, 15.66385
703.0348, 16.05791
703.5169, 16.33598
703.9990, 16.21549
704.4811, 16.02729
704.9633, 16.00960
705.4454, 16.26929
705.9275, 16.46399
706.4096, 16.54667
706.8917, 16.61482
707.3738, 16.77181
707.8560, 17.03329
708.3381, 17.19893
708.8202, 17.23512
709.3023, 17.23916
709.7844, 17.29907
710.2665, 17.42502
710.7487, 17.67928
711.2308, 18.15048
711.7129, 18.55991
712.1950, 18.57856
712.6771, 18.42375
713.1592, 18.42406
713.6414, 18.82050
714.1235, 19.21937
714.6056, 19.53504
715.0877, 19.79485
715.5698, 20.04600
716.0519, 20.30023
716.5341, 20.50756
717.0162, 20.63222
717.4983, 20.71722
717.9804, 20.87305
718.4625, 21.09995
718.9446, 21.38358
719.4268, 21.74738
719.9089, 22.14225
720.3910, 22.52017
720.8731, 22.87697
721.3552, 23.21096
721.8373, 23.51417
722.3195, 23.79662
722.8016, 24.05764
723.2837, 24.29409
723.7658, 24.52319
724.2479, 24.68840
724.7300, 24.92360
725.2122, 25.32265
725.6943, 25.88942
726.1765, 26.33231
726.6586, 26.65089
727.1407, 26.87831
727.6228, 26.93465
728.1049, 26.94238
728.5870, 27.27991
729.0692, 27.98787
729.5513, 28.56990
730.0334, 28.50807
730.5155, 28.24795
730.9976, 28.23315
731.4797, 28.66278
731.9619, 28.94234
732.4440, 28.94018
732.9261, 28.76674
733.4082, 28.48581
733.8903, 28.07861
734.3724, 27.61363
734.8546, 27.07159
735.3367, 26.53686
735.8188, 26.14678
736.3009, 25.86816
736.7830, 25.54537
737.2651, 25.13877
737.7473, 24.70339
738.2294, 24.29002
738.7115, 23.88860
739.1936, 23.48711
739.6757, 23.09471
740.1578, 22.68471
740.6400, 22.16807
741.1221, 21.65511
741.6042, 21.34702
742.0863, 21.41635
742.5684, 21.28642
743.0505, 20.79000
743.5327, 20.11902
744.0148, 19.69678
744.4969, 19.51398
744.9790, 19.41362
745.4611, 19.38520
745.9432, 19.35332
746.4254, 19.19850
746.9075, 18.95979
747.3896, 18.73933
747.8717, 18.57064
748.3538, 18.44219
748.8359, 18.38661
749.3181, 18.37724
749.8002, 18.27450
750.2823, 17.96365
750.7644, 17.76178
751.2465, 17.82088
751.7286, 18.06070
752.2108, 18.06436
752.6929, 17.82786
753.1750, 17.58745
753.6571, 17.48472
754.1392, 17.45936
754.6213, 17.43155
755.1035, 17.39639
755.5856, 17.33075
756.0677, 17.14428
756.5498, 16.98925
757.0319, 16.99641
757.5140, 17.17731
757.9962, 17.22787
758.4783, 17.03452
758.9604, 16.84982
759.4425, 16.79951
759.9246, 16.87925
760.4067, 16.88293
760.8889, 16.80087
761.3710, 16.73104
761.8531, 16.78417
762.3352, 16.88793
762.8173, 16.88100
763.2994, 16.76009
763.7816, 16.67177
764.2637, 16.76646
764.7458, 16.88639
765.2279, 16.90605
765.7100, 16.78787
766.1921, 16.69958
766.6743, 16.66658
767.1564, 16.64673
767.6385, 16.60648
768.1206, 16.53821
768.6027, 16.52802
769.0848, 16.58423
769.5670, 16.65086
770.0491, 16.66420
770.5312, 16.65414
771.0133, 16.68886
771.4954, 16.78071
771.9775, 16.86429
772.4597, 16.91884
772.9418, 16.93373
773.4240, 16.89302
773.9061, 16.75949
774.3882, 16.65995
774.8703, 16.61438
775.3524, 16.58624
775.8345, 16.53752
776.3167, 16.46293
776.7988, 16.44137
777.2809, 16.48413
777.7630, 16.54800
778.2451, 16.61323
778.7272, 16.65997
779.2094, 16.62308
779.6915, 16.45831
780.1736, 16.35699
780.6557, 16.49655
781.1378, 16.72262
781.6199, 16.88861
782.1021, 16.97401
782.5842, 16.98057
783.0663, 16.87099
783.5484, 16.72348
784.0305, 16.59003
784.5126, 16.46505
784.9948, 16.53554
785.4769, 16.85756
785.9590, 17.21614
786.4411, 17.40505
786.9232, 17.44100
787.4053, 17.32195
787.8875, 16.95581
788.3696, 16.68957
788.8517, 16.77905
789.3338, 17.01331
789.8159, 17.15446
790.2980, 17.14923
790.7802, 17.10077
791.2623, 16.97596
791.7444, 16.85577
792.2265, 16.84271
792.7086, 16.93434
793.1907, 17.13399
793.6729, 17.48505
794.1550, 17.77716
794.6371, 17.70361
795.1192, 17.43349
795.6013, 17.23713
796.0834, 17.19110
796.5656, 17.22249
797.0477, 17.38918
797.5298, 17.58022
798.0119, 17.65455
798.4940, 17.53624
798.9761, 17.47750
799.4583, 17.50375
799.9404, 17.57949
800.4225, 17.68579
800.9046, 17.80880
801.3867, 17.85391
801.8688, 17.78012
802.3510, 17.70662
802.8331, 17.76737
803.3152, 17.89640
803.7973, 18.00109
804.2794, 18.04175
804.7615, 18.08312
805.2437, 18.15112
805.7258, 18.21941
806.2079, 18.25214
806.6900, 18.22832
807.1721, 18.25297
807.6542, 18.33991
808.1364, 18.46748
808.6185, 18.64055
809.1006, 18.83132
809.5827, 18.95397
810.0648, 18.98099
810.5469, 18.96493
811.0291, 18.92833
811.5112, 18.87769
811.9933, 18.81448
812.4754, 18.58694
812.9575, 18.60627
813.4396, 19.04114
813.9218, 19.57650
814.4039, 19.82825
814.8860, 19.77695
815.3681, 19.79398
815.8502, 19.92642
816.3323, 20.10836
816.8145, 20.28123
817.2966, 20.44373
817.7787, 20.59854
818.2608, 20.75031
818.7429, 20.88230
819.2251, 20.93935
819.7072, 20.99910
820.1893, 21.14863
820.6714, 21.47263
821.1536, 21.69666
821.6357, 21.79065
822.1178, 21.83869
822.5999, 21.89567
823.0820, 21.97474
823.5641, 22.19939
824.0463, 22.60386
824.5284, 22.98967
825.0105, 23.09139
825.4926, 23.10953
825.9747, 23.29002
826.4568, 23.73767
826.9390, 24.14233
827.4211, 24.40545
827.9032, 24.62522
828.3853, 24.86247
828.8674, 25.11316
829.3495, 25.39621
829.8317, 25.71456
830.3138, 26.04406
830.7959, 26.33417
831.2780, 26.61622
831.7601, 26.96819
832.2422, 27.39733
832.7244, 27.84667
833.2065, 28.30860
833.6886, 28.75215
834.1707, 29.12765
834.6528, 29.38107
835.1349, 29.81605
835.6171, 30.57659
836.0992, 31.27335
836.5813, 31.53221
837.0634, 31.40504
837.5455, 31.72931
838.0276, 32.51886
838.5098, 33.40350
838.9919, 34.18232
839.4740, 34.86431
839.9561, 35.41181
840.4382, 35.83249
840.9203, 36.31853
841.4025, 36.98762
841.8846, 37.68746
842.3667, 38.38123
842.8488, 39.06658
843.3309, 39.60633
843.8130, 39.98379
844.2952, 40.31030
844.7773, 40.61008
845.2594, 40.92009
845.7415, 41.31733
846.2236, 41.79890
846.7057, 42.34127
847.1879, 43.12714
847.6700, 43.78972
848.1521, 44.02604
848.6342, 43.89154
849.1163, 43.93959
849.5984, 44.24590
850.0806, 44.61657
850.5627, 45.01851
851.0448, 45.41970
851.5269, 45.72331
852.0090, 45.92784
852.4911, 46.02253
852.9733, 45.97334
853.4554, 45.83762
853.9375, 45.59832
854.4196, 45.31387
854.9017, 45.12832
855.3839, 45.20250
855.8660, 45.24186
856.3481, 45.23980
856.8302, 45.14443
857.3123, 44.78825
857.7944, 44.14186
858.2766, 43.59959
858.7587, 43.28289
859.2408, 43.05625
859.7229, 42.74829
860.2050, 42.38137
860.6871, 42.00438
861.1693, 41.61516
861.6514, 41.24927
862.1335, 40.93613
862.6156, 40.65073
863.0977, 40.36593
863.5798, 40.08746
864.0620, 39.77343
864.5441, 39.38968
865.0262, 39.03487
865.5083, 38.88624
865.9904, 38.86263
866.4726, 38.69442
866.9547, 38.31093
867.4368, 37.90574
867.9189, 37.52665
868.4011, 37.23969
868.8832, 37.13265
869.3653, 37.37672
869.8474, 37.35882
870.3295, 36.94721
870.8116, 36.48397
871.2938, 36.24068
871.7759, 36.19967
872.2580, 36.18070
872.7401, 36.17824
873.2222, 36.15567
873.7043, 36.07068
874.1865, 35.96019
874.6686, 35.83624
875.1507, 35.69928
875.6328, 35.64812
876.1149, 35.80333
876.5970, 35.94623
877.0792, 35.99209
877.5613, 35.95044
878.0434, 35.90529
878.5255, 35.85502
879.0076, 35.84434
879.4897, 35.95489
879.9719, 36.08567
880.4540, 36.04166
880.9361, 35.88478
881.4182, 35.82859
881.9003, 36.05253
882.3824, 36.29189
882.8646, 36.46822
883.3467, 36.59081
883.8288, 36.67349
884.3109, 36.70533
884.7930, 36.76430
885.2751, 36.88588
885.7573, 37.01572
886.2394, 37.03570
886.7215, 36.99270
887.2036, 37.00478
887.6857, 37.14783
888.1678, 37.29362
888.6500, 37.34730
889.1321, 37.38995
889.6142, 37.54568
890.0963, 37.91837
890.5784, 38.10628
891.0605, 38.03896
891.5427, 37.89869
892.0248, 37.92405
892.5069, 38.04889
892.9890, 38.03882
893.4711, 37.84078
893.9532, 37.71892
894.4354, 37.93238
894.9175, 38.24321
895.3996, 38.45196
895.8817, 38.49968
896.3638, 38.62855
896.8459, 38.87970
897.3281, 39.12357
897.8102, 39.26900
898.2923, 39.33369
898.7744, 39.39112
899.2565, 39.44492
899.7386, 39.53795
900.2208, 39.69938
900.7029, 39.90901
901.1850, 40.20502
901.6671, 40.55814
902.1492, 40.77892
902.6313, 40.74901
903.1135, 40.75212
903.5956, 40.84601
904.0777, 41.03423
904.5598, 41.37415
905.0419, 41.84369
905.5240, 42.28282
906.0062, 42.67118
906.4883, 42.94353
906.9704, 42.88488
907.4525, 42.71313
907.9346, 42.78062
908.4167, 43.36221
908.8989, 43.93749
909.3810, 44.47659
909.8631, 44.98925
910.3452, 45.46062
910.8273, 45.89863
911.3094, 46.44704
911.7916, 47.13509
912.2737, 47.83189
912.7558, 48.34789
913.2380, 48.84618
913.7201, 49.52156
914.2022, 50.43734
914.6843, 51.33295
915.1664, 52.11837
915.6486, 52.93760
916.1307, 53.85859
916.6128, 54.88086
917.0949, 56.04651
917.5770, 57.35907
918.0591, 58.58392
918.5413, 59.42802
919.0234, 60.22847
919.5055, 61.32045
919.9876, 62.67646
920.4697, 64.18044
920.9518, 65.86968
921.4340, 67.62652
921.9161, 69.43532
922.3982, 71.29833
922.8803, 73.21434
923.3624, 75.16969
923.8445, 77.21400
924.3267, 79.30440
924.8088, 81.63515
925.2909, 84.56558
925.7730, 87.84866
926.2551, 91.14272
926.7372, 94.06019
927.2194, 97.54338
927.7015, 101.6391
928.1836, 106.3965
928.6657, 111.8424
929.1478, 117.9524
929.6299, 124.6142
930.1121, 131.7482
930.5942, 139.7603
931.0763, 148.4392
931.5584, 158.5062
932.0405, 170.6489
932.5226, 184.7615
933.0048, 201.9217
933.4869, 221.3717
933.9690, 245.0608
934.4511, 273.1942
934.9332, 306.1858
935.4153, 345.1620
935.8975, 390.3252
936.3796, 439.3050
936.8617, 493.1716
937.3438, 547.9302
937.8259, 599.8326
938.3080, 649.7275
938.7902, 698.0956
939.2723, 743.8221
939.7544, 790.5404
940.2365, 837.0212
940.7186, 885.7015
941.2007, 938.2799
941.6829, 994.9149
942.1650, 1056.907
942.6471, 1124.775
943.1292, 1199.729
943.6113, 1283.624
944.0934, 1374.458
944.5756, 1473.108
945.0577, 1580.056
945.5398, 1690.041
946.0219, 1806.721
946.5040, 1919.947
946.9861, 2031.255
947.4683, 2136.103
947.9504, 2209.077
948.4325, 2247.780
948.9146, 2226.581
949.3967, 2118.712
949.8788, 1956.306
950.3610, 1738.378
950.8431, 1483.413
951.3252, 1247.826
951.8073, 1027.695
952.2894, 840.7669
952.7715, 691.5413
953.2537, 573.5716
953.7358, 481.0196
954.2179, 411.1783
954.7000, 354.1676
955.1821, 309.4406
955.6642, 272.3934
956.1464, 241.7678
956.6285, 216.3078
957.1106, 195.0611
957.5927, 178.3953
958.0748, 163.2731
958.5569, 149.5592
959.0391, 137.6305
959.5212, 128.1005
960.0033, 120.4431
960.4855, 113.3271
960.9676, 106.7577
961.4497, 100.9706
961.9318, 96.30343
962.4139, 92.12640
962.8961, 88.12975
963.3782, 84.44333
963.8603, 81.38297
964.3424, 79.04345
964.8245, 77.07680
965.3066, 75.47122
965.7888, 74.06104
966.2709, 72.49646
966.7530, 70.96526
967.2351, 69.90058
967.7172, 69.49129
968.1993, 69.17889
968.6815, 68.61575
969.1636, 68.19478
969.6457, 68.22620
970.1278, 68.75654
970.6099, 69.09209
971.0920, 69.20984
971.5742, 69.41054
972.0563, 69.91402
972.5384, 70.60462
973.0205, 71.32544
973.5026, 72.10214
973.9847, 73.06064
974.4669, 74.49213
974.9490, 75.79004
975.4311, 76.84181
975.9132, 77.69225
976.3953, 78.37833
976.8774, 78.92151
977.3596, 79.60994
977.8417, 80.56963
978.3238, 81.39153
978.8059, 81.78478
979.2880, 81.79526
979.7701, 81.45578
980.2523, 80.70919
980.7344, 79.79084
981.2165, 78.73010
981.6986, 77.44850
982.1807, 75.83495
982.6628, 73.94873
983.1450, 72.01604
983.6271, 70.04532
984.1092, 68.09237
984.5913, 66.14669
985.0734, 64.26997
985.5555, 62.35671
986.0377, 60.55183
986.5198, 59.21880
987.0019, 58.53462
987.4840, 57.72003
987.9661, 56.62044
988.4482, 55.45510
988.9304, 54.41354
989.4125, 53.56449
989.8946, 53.08470
990.3767, 53.04024
990.8588, 53.12562
991.3409, 53.13412
991.8231, 53.32615
992.3052, 53.87531
992.7873, 54.76050
993.2694, 55.62804
993.7515, 56.47099
994.2336, 57.50073
994.7158, 58.94062
995.1979, 60.53069
995.6800, 61.84787
996.1621, 63.11003
996.6442, 64.80654
997.1263, 67.26398
997.6085, 69.93653
998.0906, 72.90206
998.5727, 75.88276
999.0548, 78.47295
999.5369, 80.77050
1000.019, 83.31015
1000.501, 86.15703
1000.983, 89.19491
1001.465, 92.37607
1001.948, 95.72866
1002.430, 99.25880
1002.912, 103.0035
1003.394, 106.8254
1003.876, 110.8045
1004.358, 114.7510
1004.840, 118.7260
1005.322, 122.5779
1005.804, 126.1807
1006.287, 129.4644
1006.769, 132.3751
1007.251, 135.2478
1007.733, 137.1397
1008.215, 137.7147
1008.697, 137.2104
1009.179, 135.8190
1009.661, 133.5689
1010.144, 130.0621
1010.626, 125.2151
1011.108, 119.4391
1011.590, 112.5359
1012.072, 105.2077
1012.554, 97.84801
1013.036, 90.59000
1013.518, 83.93477
1014.000, 77.97792
1014.483, 72.56587
1014.965, 67.72380
1015.447, 63.40798
1015.929, 59.51007
1016.411, 55.98392
1016.893, 52.64786
1017.375, 49.37518
1017.857, 46.45704
1018.340, 44.19047
1018.822, 42.27639
1019.304, 40.41127
1019.786, 38.55448
1020.268, 36.97575
1020.750, 35.69405
1021.232, 34.56728
1021.714, 33.49452
1022.196, 32.52495
1022.679, 31.82094
1023.161, 31.29605
1023.643, 30.71099
1024.125, 29.86808
1024.607, 29.11830
1025.089, 28.54426
1025.571, 28.05578
1026.053, 27.52212
1026.536, 26.96038
1027.018, 26.41936
1027.500, 25.90204
1027.982, 25.46683
1028.464, 25.27794
1028.946, 25.09368
1029.428, 24.63115
1029.910, 23.89035
1030.392, 23.60073
1030.875, 23.92327
1031.357, 24.09582
1031.839, 23.80271
1032.321, 23.27849
1032.803, 22.89962
1033.285, 22.61948
1033.767, 22.34313
1034.249, 21.99787
1034.732, 21.74581
1035.214, 21.71606
1035.696, 21.70560
1036.178, 21.54750
1036.660, 21.24526
1037.142, 21.01179
1037.624, 20.85012
1038.106, 20.71570
1038.589, 20.61214
1039.071, 20.49587
1039.553, 20.31098
1040.035, 20.08415
1040.517, 19.89938
1040.999, 19.74158
1041.481, 19.69388
1041.963, 19.81289
1042.445, 19.91883
1042.927, 19.66519
1043.410, 19.25812
1043.892, 19.15437
1044.374, 19.45432
1044.856, 19.62981
1045.338, 19.33831
1045.820, 19.03027
1046.302, 18.91934
1046.784, 18.95429
1047.267, 18.83932
1047.749, 18.59158
1048.231, 18.43209
1048.713, 18.50544
1049.195, 18.59942
1049.677, 18.50382
1050.159, 18.34634
1050.641, 18.31752
1051.124, 18.52955
1051.606, 18.57670
1052.088, 18.42121
1052.570, 18.23953
1053.052, 18.18021
1053.534, 18.18194
1054.016, 18.11462
1054.498, 17.99623
1054.980, 17.92348
1055.463, 18.00065
1055.945, 18.04195
1056.427, 17.99800
1056.909, 17.90423
1057.391, 17.79404
1057.873, 17.67714
1058.355, 17.62163
1058.837, 17.63337
1059.319, 17.75787
1059.802, 18.25071
1060.284, 18.68803
1060.766, 18.66107
1061.248, 18.19569
1061.730, 17.90516
1062.212, 17.80028
1062.694, 17.82352
1063.176, 17.98265
1063.659, 18.20981
1064.141, 18.45958
1064.623, 18.69360
1065.105, 18.84655
1065.587, 18.88649
1066.069, 18.86090
1066.551, 18.72666
1067.033, 18.61020
1067.516, 18.61727
1067.998, 18.72134
1068.480, 18.77182
1068.962, 18.78239
1069.444, 18.83010
1069.926, 19.02671
1070.408, 19.19303
1070.890, 19.15862
1071.372, 19.07951
1071.854, 19.20815
1072.337, 19.56757
1072.819, 19.90224
1073.301, 20.18433
1073.783, 20.44587
1074.265, 20.67986
1074.747, 20.93066
1075.229, 21.24400
1075.711, 21.62025
1076.194, 22.02357
1076.676, 22.42239
1077.158, 22.90395
1077.640, 23.49322
1078.122, 24.16583
1078.604, 24.81600
1079.086, 25.53116
1079.568, 26.52877
1080.051, 27.93572
1080.533, 29.32415
1081.015, 30.32665
1081.497, 31.50726
1081.979, 33.11111
1082.461, 35.11919
1082.943, 37.41727
1083.425, 40.06104
1083.907, 43.32799
1084.390, 47.45844
1084.872, 52.10403
1085.354, 57.12958
1085.836, 62.49102
1086.318, 68.26476
1086.800, 74.49300
1087.282, 80.84690
1087.764, 87.34248
1088.247, 93.79118
1088.729, 99.83060
1089.211, 105.8882
1089.693, 112.5515
1090.175, 119.7483
1090.657, 127.1305
1091.139, 134.3948
1091.621, 142.2421
1092.104, 150.6648
1092.586, 159.9146
1093.068, 170.6177
1093.550, 182.3114
1094.032, 194.3094
1094.514, 206.5228
1094.996, 218.5918
1095.478, 231.9606
1095.960, 243.1158
1096.443, 251.5395
1096.925, 256.4936
1097.407, 256.0762
1097.889, 250.3254
1098.371, 239.3757
1098.853, 222.5493
1099.335, 203.0438
1099.817, 180.6912
1100.299, 158.3954
1100.782, 138.4978
1101.264, 120.8297
1101.746, 105.6811
1102.228, 93.02715
1102.710, 82.23425
1103.192, 73.32549
1103.674, 65.84284
1104.156, 59.67014
1104.639, 54.58244
1105.121, 50.16557
1105.603, 46.45238
1106.085, 43.31841
1106.567, 40.80984
1107.049, 38.73297
1107.531, 37.02253
1108.013, 35.57192
1108.495, 34.10701
1108.978, 32.64649
1109.460, 31.26891
1109.942, 29.88504
1110.424, 28.75216
1110.906, 27.95171
1111.388, 27.33017
1111.870, 26.72060
1112.352, 26.11306
1112.834, 25.44926
1113.317, 24.72199
1113.799, 24.03359
1114.281, 23.37625
1114.763, 22.84795
1115.245, 22.57038
1115.727, 22.43219
1116.209, 22.16050
1116.691, 21.75752
1117.174, 21.35203
1117.656, 20.96514
1118.138, 20.61628
1118.620, 20.33933
1119.102, 20.09496
1119.584, 19.85086
1120.066, 19.60516
1120.548, 19.37613
1121.031, 19.16528
1121.513, 18.95526
1121.995, 18.72243
1122.477, 18.52200
1122.959, 18.46774
1123.441, 18.46383
1123.923, 18.36793
1124.405, 18.10688
1124.887, 17.89041
1125.370, 17.73310
1125.852, 17.58862
1126.334, 17.44100
1126.816, 17.27970
1127.298, 17.03735
1127.780, 16.76610
1128.262, 16.59341
1128.744, 16.71933
1129.227, 16.70653
1129.709, 16.44005
1130.191, 16.14765
1130.673, 16.03911
1131.155, 16.06818
1131.637, 16.06189
1132.119, 16.01883
1132.601, 15.95714
1133.083, 15.84400
1133.566, 15.76654
1134.048, 15.77264
1134.530, 15.81116
1135.012, 15.82318
1135.494, 15.80839
1135.976, 15.75106
1136.458, 15.65014
1136.940, 15.56417
1137.422, 15.52415
1137.905, 15.52053
1138.387, 15.60503
1138.869, 15.70991
1139.351, 15.62574
1139.833, 15.33911
1140.315, 15.18784
1140.797, 15.24281
1141.279, 15.36284
1141.762, 15.49119
1142.244, 15.57486
1142.726, 15.54373
1143.208, 15.40499
1143.690, 15.30460
1144.172, 15.24223
1144.654, 15.23581
1145.136, 15.31488
1145.619, 15.38385
1146.101, 15.26229
1146.583, 15.09552
1147.065, 15.08555
1147.547, 15.31439
1148.029, 15.40433
1148.511, 15.31097
1148.993, 15.20580
1149.475, 15.16024
1149.958, 15.14958
1150.440, 15.15477
1150.922, 15.15859
1151.404, 15.12434
1151.886, 15.00746
1152.368, 14.94422
1152.850, 14.95346
1153.332, 14.99400
1153.814, 15.07154
1154.297, 15.14552
1154.779, 15.08098
1155.261, 14.92514
1155.743, 14.81275
1156.225, 14.84486
1156.707, 14.84244
1157.189, 14.74256
1157.671, 14.66475
1158.154, 14.73231
1158.636, 14.90722
1159.118, 15.07395
1159.600, 15.21184
1160.082, 15.23721
1160.564, 14.97118
1161.046, 14.76689
1161.528, 14.73593
1162.010, 14.79090
1162.493, 14.85624
1162.975, 14.92479
1163.457, 14.93396
1163.939, 14.88707
1164.421, 14.86205
1164.903, 14.99961
1165.385, 15.05602
1165.867, 14.82088
1166.349, 14.50551
1166.832, 14.50704
1167.314, 14.79248
1167.796, 14.90728
1168.278, 14.80019
1168.760, 14.67465
1169.242, 14.70667
1169.724, 14.73045
1170.206, 14.59118
1170.689, 14.37939
1171.171, 14.33664
1171.653, 14.46004
1172.135, 14.57551
1172.617, 14.65317
1173.099, 14.69619
1173.581, 14.67133
1174.063, 14.64221
1174.546, 14.67655
1175.028, 14.75344
1175.510, 14.75525
1175.992, 14.67716
1176.474, 14.64189
1176.956, 14.68709
1177.438, 14.75621
1177.920, 14.84524
1178.402, 14.89734
1178.885, 14.81516
1179.367, 14.60882
1179.849, 14.56507
1180.331, 14.69810
1180.813, 14.83990
1181.295, 14.93420
1181.777, 15.01186
1182.259, 15.15328
1182.742, 15.26643
1183.224, 15.23233
1183.706, 15.03158
1184.188, 14.79284
1184.670, 14.48781
1185.152, 14.34729
1185.634, 14.53923
1186.116, 14.82853
1186.599, 15.00851
1187.081, 15.08889
1187.563, 15.05801
1188.045, 14.87672
1188.527, 14.76798
1189.009, 14.74021
1189.491, 14.73816
1189.973, 14.72334
1190.455, 14.72889
1190.938, 14.84500
1191.420, 14.99199
1191.902, 15.02919
1192.384, 14.86735
1192.866, 14.81422
1193.348, 14.89940
1193.830, 14.94958
1194.312, 14.79432
1194.794, 14.58774
1195.277, 14.53609
1195.759, 14.58322
1196.241, 14.61437
1196.723, 14.58399
1197.205, 14.61707
1197.687, 14.73976
1198.169, 14.81621
1198.651, 14.65083
1199.134, 14.44223
1199.616, 14.52468
1200.098, 14.77253
1200.580, 14.85743
1201.062, 14.65303
1201.544, 14.45880
1202.026, 14.27754
1202.508, 14.15000
1202.990, 14.15157
1203.473, 14.20128
1203.955, 14.19949
1204.437, 14.15346
1204.919, 14.09414
1205.401, 14.00550
1205.883, 13.95319
1206.365, 13.94169
1206.847, 13.96778
1207.329, 14.12464
1207.812, 14.25033
1208.294, 14.08237
1208.776, 13.68428
1209.258, 13.35785
1209.740, 13.12691
1210.222, 12.99304
1210.704, 12.96719
1211.186, 12.98982
1211.669, 13.04162
1212.151, 13.07717
1212.633, 13.03256
1213.115, 12.91454
1213.597, 12.77344
1214.079, 12.59222
1214.561, 12.46361
1215.043, 12.40786
1215.526, 12.37501
1216.008, 12.28179
1216.490, 12.20041
1216.972, 12.27085
1217.454, 12.45939
1217.936, 12.47561
1218.418, 12.25147
1218.900, 12.04162
1219.382, 11.88074
1219.865, 11.76856
1220.347, 11.72361
1220.829, 11.71291
1221.311, 11.72190
1221.793, 11.73738
1222.275, 11.66955
1222.757, 11.48070
1223.239, 11.35850
1223.722, 11.34318
1224.204, 11.38315
1224.686, 11.47610
1225.168, 11.55561
1225.650, 11.56362
1226.132, 11.48823
1226.614, 11.30883
1227.096, 10.98657
1227.578, 10.78462
1228.061, 10.77598
1228.543, 10.81783
1229.025, 10.73745
1229.507, 10.65053
1229.989, 10.69300
1230.471, 10.85358
1230.953, 10.95124
1231.435, 10.98710
1231.917, 10.94285
1232.400, 10.79967
1232.882, 10.64799
1233.364, 10.55775
1233.846, 10.51047
1234.328, 10.52534
1234.810, 10.57631
1235.292, 10.48466
1235.774, 10.24078
1236.257, 10.09926
1236.739, 10.13355
1237.221, 10.22224
1237.703, 10.29497
1238.185, 10.35196
1238.667, 10.39948
1239.149, 10.43220
1239.631, 10.37878
1240.114, 10.24749
1240.596, 10.28308
1241.078, 10.58519
1241.560, 10.82870
1242.042, 10.68272
1242.524, 10.47374
1243.006, 10.43252
1243.488, 10.51016
1243.970, 10.51702
1244.453, 10.45988
1244.935, 10.39250
1245.417, 10.32639
1245.899, 10.25610
1246.381, 10.13651
1246.863, 10.06167
1247.345, 10.11406
1247.827, 10.22756
1248.309, 10.14369
1248.792, 9.918633
1249.274, 9.802530
1249.756, 9.867833
1250.238, 9.960355
1250.720, 10.01578
1251.202, 10.07431
1251.684, 10.16599
1252.166, 10.25965
1252.649, 10.25763
1253.131, 10.19147
1253.613, 10.15527
1254.095, 10.17220
1254.577, 10.19636
1255.059, 10.20368
1255.541, 10.23331
1256.023, 10.31259
1256.505, 10.40378
1256.988, 10.43529
1257.470, 10.41681
1257.952, 10.35153
1258.434, 10.22723
1258.916, 10.17729
1259.398, 10.27195
1259.880, 10.31484
1260.362, 10.21737
1260.844, 10.08186
1261.327, 10.07602
1261.809, 10.14590
1262.291, 10.22048
1262.773, 10.29105
1263.255, 10.32045
1263.737, 10.30059
1264.219, 10.26247
1264.701, 10.20750
1265.184, 10.16132
1265.666, 10.16047
1266.148, 10.18376
1266.630, 10.20530
1267.112, 10.22287
1267.594, 10.26392
1268.076, 10.33258
1268.558, 10.39600
1269.041, 10.44804
1269.523, 10.47752
1270.005, 10.43811
1270.487, 10.39886
1270.969, 10.45151
1271.451, 10.57078
1271.933, 10.58561
1272.415, 10.49841
1272.897, 10.49541
1273.380, 10.64805
1273.862, 10.73579
1274.344, 10.50224
1274.826, 10.24305
1275.308, 10.15110
1275.790, 10.17924
1276.272, 10.16598
1276.754, 10.12519
1277.237, 10.15252
1277.719, 10.28055
1278.201, 10.34953
1278.683, 10.18916
1279.165, 10.05818
1279.647, 10.08062
1280.129, 10.17033
1280.611, 10.09260
1281.094, 9.938090
1281.576, 10.00555
1282.058, 10.35680
1282.540, 10.54760
1283.022, 10.31365
1283.504, 10.12253
1283.986, 10.08516
1284.468, 10.15822
1284.950, 10.32683
1285.432, 10.53425
1285.915, 10.72239
1286.397, 10.87687
1286.879, 10.82228
1287.361, 10.45450
1287.843, 10.23106
1288.325, 10.28100
1288.807, 10.39818
1289.289, 10.31691
1289.772, 10.19810
1290.254, 10.24672
1290.736, 10.43669
1291.218, 10.47934
1291.700, 10.34730
1292.182, 10.36181
1292.664, 10.59471
1293.146, 10.79075
1293.629, 10.55918
1294.111, 10.38335
1294.593, 10.81362
1295.075, 11.46934
1295.557, 11.47730
1296.039, 10.91040
1296.521, 10.57178
1297.003, 10.55695
1297.485, 10.60222
1297.968, 10.60651
1298.450, 10.56027
1298.932, 10.43639
1299.414, 10.30189
1299.896, 10.25850
1300.378, 10.28934
1300.860, 10.36769
1301.342, 10.47906
1301.824, 10.54176
1302.307, 10.52119
##END=



