##NAMES=Columbite-(Fe)
##RRUFFID=R050348
##IDEAL CHEMISTRY=Fe^2+^Nb^5+^_2_O_6_
##LOCALITY=Lord Hill mine, Stoneham, Oxford County, Maine, USA
##OWNER=RRUFF
##SOURCE=California Institute of Technology
##DESCRIPTION=Black fragment
##STATUS=The identification of this mineral has been confirmed by X-ray diffraction and chemical analysis
##URL=rruff.info/R050348
##MEASURED CHEMISTRY=(Fe^2+^_0.69_Mn^2+^_0.30_Ti_0.01_)(Nb_0.89_Ta_0.10_Ti_0.01_)_2_O_6_
92.52344, 144.7212
93.00555, 144.0269
93.48767, 144.2375
93.96979, 148.3777
94.45190, 152.3424
94.93402, 155.1937
95.41614, 155.6240
95.89825, 154.9870
96.38037, 154.8147
96.86249, 154.8782
97.34460, 154.5766
97.82672, 154.1858
98.30884, 153.5312
98.79095, 152.4088
99.27307, 150.8264
99.75519, 149.1549
100.2373, 148.1429
100.7194, 147.7497
101.2015, 147.1339
101.6837, 146.0573
102.1658, 144.8973
102.6479, 143.7620
103.1300, 142.5912
103.6121, 141.8760
104.0942, 142.4275
104.5764, 143.6446
105.0585, 144.6392
105.5406, 144.9801
106.0227, 144.8543
106.5048, 144.7962
106.9869, 144.6804
107.4691, 144.7458
107.9512, 145.2201
108.4333, 145.9612
108.9154, 146.6206
109.3975, 146.8168
109.8796, 146.4219
110.3618, 146.3728
110.8439, 146.8184
111.3260, 147.4628
111.8081, 148.2431
112.2902, 149.1182
112.7723, 150.0388
113.2544, 150.9148
113.7366, 151.5442
114.2187, 152.5552
114.7008, 154.4103
115.1829, 156.3869
115.6650, 157.6894
116.1471, 158.0292
116.6293, 157.9395
117.1114, 158.7515
117.5935, 161.0340
118.0756, 163.0051
118.5577, 164.1258
119.0398, 164.6159
119.5220, 164.9621
120.0041, 165.2518
120.4862, 165.6561
120.9683, 166.4860
121.4504, 167.9249
121.9325, 169.4630
122.4147, 170.7194
122.8968, 171.6824
123.3789, 172.4958
123.8610, 173.0766
124.3431, 173.5896
124.8252, 174.2028
125.3074, 175.0027
125.7895, 175.8867
126.2716, 176.6286
126.7537, 177.1175
127.2358, 177.6486
127.7179, 178.5300
128.2001, 179.4615
128.6822, 180.0205
129.1643, 179.8790
129.6464, 179.1106
130.1285, 178.6653
130.6107, 178.6863
131.0928, 178.9268
131.5749, 179.6830
132.0570, 180.6609
132.5391, 181.2576
133.0212, 180.8928
133.5034, 179.3800
133.9855, 178.1095
134.4676, 177.2324
134.9497, 176.4238
135.4318, 175.6855
135.9139, 174.9492
136.3960, 173.8799
136.8782, 172.0744
137.3603, 169.3972
137.8424, 166.4199
138.3245, 162.6725
138.8066, 158.8362
139.2887, 155.9131
139.7709, 154.2962
140.2530, 152.9607
140.7351, 150.4780
141.2172, 146.9866
141.6993, 143.5655
142.1814, 140.6576
142.6636, 138.2038
143.1457, 135.9569
143.6278, 133.8526
144.1099, 132.0250
144.5920, 130.5955
145.0741, 129.5612
145.5563, 128.5958
146.0384, 127.3311
146.5205, 125.6994
147.0026, 124.3694
147.4847, 123.9805
147.9668, 123.5902
148.4490, 122.5132
148.9311, 120.6580
149.4132, 118.6483
149.8953, 117.4803
150.3774, 117.6294
150.8595, 117.6880
151.3417, 117.3527
151.8238, 116.9962
152.3059, 117.0101
152.7880, 117.5224
153.2701, 118.2518
153.7522, 118.4808
154.2344, 117.8325
154.7165, 117.0333
155.1986, 115.7942
155.6807, 114.4972
156.1628, 113.6580
156.6449, 113.5610
157.1271, 114.0188
157.6092, 114.2827
158.0913, 114.1083
158.5734, 114.0516
159.0555, 114.5799
159.5376, 115.3964
160.0198, 115.6345
160.5019, 114.6061
160.9840, 112.7427
161.4661, 111.7166
161.9482, 112.1045
162.4303, 112.6786
162.9125, 112.5275
163.3946, 111.6853
163.8767, 110.9644
164.3588, 110.9416
164.8409, 111.3352
165.3230, 111.6777
165.8052, 111.9412
166.2873, 112.0786
166.7694, 112.0418
167.2515, 111.8462
167.7336, 111.4101
168.2157, 110.3339
168.6979, 109.1011
169.1800, 108.3152
169.6621, 108.3340
170.1442, 108.8909
170.6263, 109.2686
171.1084, 109.5176
171.5906, 109.4590
172.0727, 108.8509
172.5548, 107.9883
173.0369, 107.2724
173.5190, 106.9527
174.0011, 106.9923
174.4833, 107.0848
174.9654, 107.3334
175.4475, 107.5325
175.9296, 107.7042
176.4117, 107.7924
176.8938, 107.6752
177.3760, 107.2198
177.8581, 106.4075
178.3402, 106.0042
178.8223, 106.3045
179.3044, 106.6729
179.7865, 106.9316
180.2687, 107.0718
180.7508, 107.1512
181.2329, 107.2267
181.7150, 107.3042
182.1971, 107.2109
182.6792, 106.7275
183.1614, 106.2799
183.6435, 106.1533
184.1256, 106.3421
184.6077, 106.5908
185.0898, 106.6361
185.5719, 106.4714
186.0541, 106.5835
186.5362, 107.5155
187.0183, 108.4200
187.5004, 108.1847
187.9825, 106.6183
188.4646, 105.2571
188.9468, 105.9387
189.4289, 108.1520
189.9110, 109.8609
190.3931, 110.4751
190.8752, 110.3593
191.3573, 109.9341
191.8395, 109.0542
192.3216, 108.3640
192.8037, 108.5031
193.2858, 109.2058
193.7679, 109.9173
194.2500, 110.4686
194.7322, 110.8466
195.2143, 110.9776
195.6964, 110.6996
196.1785, 110.4169
196.6606, 110.3039
197.1427, 110.3477
197.6249, 110.5288
198.1070, 110.8899
198.5891, 111.4062
199.0712, 111.8234
199.5533, 112.0384
200.0354, 112.2612
200.5176, 112.6776
200.9997, 113.1727
201.4818, 113.4836
201.9639, 113.3501
202.4460, 112.7575
202.9281, 112.3301
203.4103, 112.1744
203.8924, 112.1047
204.3745, 112.1215
204.8566, 112.1888
205.3387, 112.2526
205.8208, 112.2799
206.3030, 112.2846
206.7851, 112.1112
207.2672, 111.6337
207.7493, 111.1187
208.2314, 110.6496
208.7135, 110.2361
209.1957, 109.8623
209.6778, 109.5184
210.1599, 109.2115
210.6420, 108.8808
211.1241, 108.6443
211.6062, 108.2914
212.0884, 107.5942
212.5705, 106.6222
213.0526, 105.7104
213.5347, 105.1680
214.0168, 105.0510
214.4989, 104.8824
214.9811, 104.6393
215.4632, 104.3672
215.9453, 104.0779
216.4274, 103.7775
216.9095, 103.5077
217.3916, 103.3370
217.8737, 103.2574
218.3559, 103.0211
218.8380, 102.3396
219.3201, 101.6818
219.8022, 101.5330
220.2843, 101.9289
220.7664, 102.3813
221.2486, 102.4971
221.7307, 102.3367
222.2128, 102.1703
222.6949, 102.0515
223.1770, 101.9346
223.6591, 101.7382
224.1413, 101.4409
224.6234, 101.1935
225.1055, 101.0165
225.5876, 100.9750
226.0697, 101.2579
226.5518, 102.2847
227.0340, 103.4705
227.5161, 103.8281
227.9982, 103.1176
228.4803, 102.4092
228.9624, 102.3074
229.4445, 102.5904
229.9267, 103.0579
230.4088, 103.8033
230.8909, 104.5563
231.3730, 104.6554
231.8551, 103.7209
232.3372, 103.1072
232.8194, 103.7371
233.3015, 104.8606
233.7836, 105.6115
234.2657, 105.5973
234.7478, 105.0688
235.2299, 104.5172
235.7121, 103.7546
236.1942, 103.3789
236.6763, 103.7040
237.1584, 104.3788
237.6405, 105.0877
238.1227, 105.7200
238.6048, 106.2318
239.0869, 106.4625
239.5690, 106.1054
240.0511, 106.0178
240.5332, 106.6405
241.0154, 107.4462
241.4975, 107.8504
241.9796, 107.5977
242.4617, 106.9916
242.9438, 106.8183
243.4259, 107.5079
243.9081, 107.9613
244.3902, 107.8349
244.8723, 107.5463
245.3544, 107.5700
245.8365, 108.0799
246.3186, 108.7686
246.8008, 108.8994
247.2829, 107.7127
247.7650, 107.0717
248.2471, 107.3907
248.7292, 108.0788
249.2113, 108.6871
249.6935, 109.0407
250.1756, 109.1155
250.6577, 108.8290
251.1398, 107.4367
251.6219, 106.8062
252.1040, 107.6195
252.5862, 108.7968
253.0683, 109.3573
253.5504, 109.0236
254.0325, 108.2264
254.5146, 107.6535
254.9967, 107.4034
255.4789, 107.2459
255.9610, 107.1153
256.4431, 107.1124
256.9252, 107.3932
257.4073, 107.9783
257.8894, 108.6530
258.3716, 109.1335
258.8537, 109.3433
259.3358, 109.5177
259.8179, 109.6133
260.3000, 109.7006
260.7821, 109.8755
261.2643, 110.1465
261.7464, 110.3768
262.2285, 110.3701
262.7106, 110.0290
263.1927, 110.0044
263.6748, 110.6188
264.1570, 111.3536
264.6391, 111.7948
265.1212, 111.8959
265.6033, 111.7954
266.0854, 111.5656
266.5675, 111.2021
267.0497, 110.9573
267.5318, 111.0197
268.0139, 111.0763
268.4960, 110.8347
268.9781, 110.2920
269.4602, 109.7112
269.9424, 109.2682
270.4245, 108.9668
270.9066, 108.7219
271.3887, 108.5244
271.8708, 108.3894
272.3529, 108.3598
272.8351, 108.4267
273.3172, 108.4861
273.7993, 108.4746
274.2814, 108.4071
274.7635, 108.3500
275.2456, 108.3555
275.7278, 108.3157
276.2099, 108.1056
276.6920, 107.7499
277.1741, 107.4799
277.6562, 107.5315
278.1383, 107.6404
278.6205, 107.2426
279.1026, 106.0257
279.5847, 104.9673
280.0668, 104.9274
280.5489, 105.7216
281.0310, 106.2111
281.5132, 105.7821
281.9953, 105.0863
282.4774, 105.1911
282.9595, 106.2803
283.4416, 107.0836
283.9237, 106.5835
284.4059, 105.0877
284.8880, 103.8939
285.3701, 103.4040
285.8522, 103.2041
286.3343, 102.8697
286.8164, 102.4073
287.2986, 101.8931
287.7807, 101.2887
288.2628, 100.6532
288.7449, 100.2127
289.2270, 100.0836
289.7091, 99.99776
290.1913, 99.68768
290.6734, 99.21856
291.1555, 98.82024
291.6376, 98.66447
292.1197, 98.65120
292.6018, 98.54756
293.0840, 98.34109
293.5661, 98.04723
294.0482, 97.57809
294.5303, 97.03993
295.0124, 96.63711
295.4945, 96.55153
295.9767, 96.59673
296.4588, 96.43590
296.9409, 96.03396
297.4230, 95.54397
297.9051, 94.74544
298.3872, 93.99067
298.8694, 93.81374
299.3515, 94.59489
299.8336, 95.61344
300.3157, 95.81747
300.7978, 95.05064
301.2799, 94.42091
301.7621, 94.57528
302.2442, 94.94551
302.7263, 95.07003
303.2084, 94.86814
303.6905, 94.40385
304.1726, 93.59219
304.6548, 92.40909
305.1369, 91.51019
305.6190, 91.19634
306.1011, 91.12558
306.5832, 91.03629
307.0653, 90.91256
307.5475, 90.86395
308.0296, 91.12595
308.5117, 91.64536
308.9938, 91.73949
309.4759, 91.05196
309.9580, 90.21964
310.4402, 89.59415
310.9223, 89.18011
311.4044, 88.96423
311.8865, 89.07291
312.3686, 89.40694
312.8507, 89.51984
313.3329, 89.32105
313.8150, 89.03560
314.2971, 88.75799
314.7792, 88.49088
315.2613, 88.23315
315.7434, 87.95545
316.2256, 87.70396
316.7077, 87.59396
317.1898, 87.66857
317.6719, 87.76342
318.1540, 87.74734
318.6361, 87.73342
319.1183, 87.93002
319.6004, 88.50993
320.0825, 89.00887
320.5646, 88.64498
321.0467, 87.24770
321.5288, 86.07347
322.0110, 85.51778
322.4931, 85.36787
322.9752, 85.65244
323.4573, 86.39072
323.9394, 87.01756
324.4215, 86.87877
324.9037, 85.99415
325.3858, 85.31240
325.8679, 85.16741
326.3500, 85.10303
326.8321, 84.66370
327.3142, 83.93233
327.7964, 83.45176
328.2785, 83.90607
328.7606, 85.01340
329.2427, 85.31291
329.7248, 84.29588
330.2069, 83.20650
330.6891, 82.81226
331.1712, 82.90382
331.6533, 83.04903
332.1354, 82.99855
332.6175, 82.90783
333.0996, 83.14407
333.5818, 83.81874
334.0639, 84.46407
334.5460, 84.93480
335.0281, 85.21193
335.5102, 85.18347
335.9923, 84.71078
336.4745, 84.17872
336.9566, 84.09202
337.4387, 84.48120
337.9208, 84.79521
338.4029, 84.77145
338.8850, 84.65298
339.3671, 84.73139
339.8492, 85.05025
340.3314, 85.26506
340.8135, 85.03542
341.2956, 84.43540
341.7777, 83.90576
342.2598, 83.40884
342.7419, 83.18863
343.2241, 83.63143
343.7062, 84.58855
344.1883, 85.28737
344.6704, 85.12061
345.1525, 84.47884
345.6346, 84.26749
346.1168, 84.66047
346.5989, 85.07010
347.0810, 84.96995
347.5631, 84.59914
348.0452, 84.37036
348.5273, 84.46414
349.0095, 84.67558
349.4916, 84.75314
349.9737, 84.69216
350.4558, 84.71636
350.9379, 85.06303
351.4200, 85.47055
351.9022, 85.45438
352.3843, 84.78619
352.8664, 84.27232
353.3485, 84.66243
353.8306, 85.70927
354.3127, 86.40947
354.7949, 86.41016
355.2770, 86.09725
355.7591, 85.90365
356.2412, 85.81902
356.7233, 85.86916
357.2054, 86.18914
357.6876, 86.60979
358.1697, 86.77940
358.6518, 86.60288
359.1339, 86.54717
359.6160, 87.18018
360.0981, 88.34437
360.5803, 89.15404
361.0624, 89.28803
361.5445, 89.18959
362.0266, 89.11040
362.5087, 89.07841
362.9908, 89.26524
363.4730, 89.86192
363.9551, 90.68916
364.4372, 91.19850
364.9193, 91.25132
365.4014, 91.24833
365.8835, 91.37414
366.3657, 91.55692
366.8478, 91.58553
367.3299, 91.34193
367.8120, 91.12370
368.2941, 91.48170
368.7762, 92.57420
369.2584, 93.49046
369.7405, 93.98875
370.2226, 94.32232
370.7047, 94.68682
371.1868, 95.12286
371.6689, 95.67733
372.1511, 96.45413
372.6332, 97.46491
373.1153, 98.11565
373.5974, 97.93044
374.0795, 97.89333
374.5616, 98.66226
375.0438, 99.97465
375.5259, 101.1202
376.0080, 101.6880
376.4901, 101.8540
376.9722, 102.2335
377.4543, 102.9875
377.9365, 103.7403
378.4186, 104.5053
378.9007, 105.2277
379.3828, 105.8065
379.8649, 106.2243
380.3470, 106.6133
380.8292, 107.1919
381.3113, 108.1690
381.7934, 108.6733
382.2755, 108.0519
382.7576, 107.5849
383.2397, 108.1548
383.7219, 109.5908
384.2040, 111.1360
384.6861, 112.2125
385.1682, 112.8408
385.6503, 113.2947
386.1324, 113.3784
386.6146, 113.4962
387.0967, 113.7497
387.5788, 114.0636
388.0609, 114.3496
388.5430, 114.5687
389.0251, 114.7229
389.5073, 114.7860
389.9894, 114.5997
390.4715, 114.6685
390.9536, 115.3340
391.4357, 115.9818
391.9178, 116.2388
392.4000, 116.0668
392.8821, 115.6296
393.3642, 114.9931
393.8463, 114.1409
394.3284, 113.6212
394.8105, 113.7351
395.2927, 113.8460
395.7748, 113.8760
396.2569, 113.7332
396.7390, 113.2476
397.2211, 112.2732
397.7032, 111.0387
398.1854, 110.0499
398.6675, 109.3399
399.1496, 108.7695
399.6317, 108.5074
400.1138, 108.2400
400.5959, 107.7210
401.0781, 106.9110
401.5602, 105.9533
402.0423, 104.8386
402.5244, 103.6120
403.0065, 102.8260
403.4886, 102.8751
403.9708, 102.8955
404.4529, 102.1079
404.9350, 100.7954
405.4171, 99.76256
405.8992, 99.74119
406.3813, 100.0026
406.8635, 99.24046
407.3456, 97.33218
407.8277, 95.51875
408.3098, 94.47247
408.7919, 93.85926
409.2740, 93.03616
409.7562, 91.77798
410.2383, 90.80307
410.7204, 90.75625
411.2025, 91.34753
411.6846, 91.79031
412.1667, 91.95212
412.6489, 91.73091
413.1310, 90.72853
413.6131, 88.96075
414.0952, 87.71207
414.5773, 87.39359
415.0594, 87.55807
415.5416, 88.07362
416.0237, 88.82350
416.5058, 89.13350
416.9879, 88.44641
417.4700, 86.98586
417.9521, 85.98903
418.4343, 85.67351
418.9164, 85.47066
419.3985, 85.21015
419.8806, 84.97285
420.3627, 84.95995
420.8448, 85.23087
421.3270, 85.48988
421.8091, 85.25484
422.2912, 84.20647
422.7733, 83.59451
423.2554, 83.79450
423.7375, 84.06864
424.2197, 83.93904
424.7018, 83.47783
425.1839, 83.07938
425.6660, 83.05846
426.1481, 83.31672
426.6302, 83.15649
427.1124, 81.88437
427.5945, 81.05007
428.0766, 81.01504
428.5587, 81.40979
429.0408, 81.95690
429.5229, 82.54052
430.0051, 83.02440
430.4872, 83.17061
430.9693, 82.87560
431.4514, 82.67692
431.9335, 82.75681
432.4156, 82.78313
432.8978, 82.59770
433.3799, 82.24678
433.8620, 81.83804
434.3441, 81.35497
434.8262, 80.92892
435.3083, 81.04817
435.7905, 81.98717
436.2726, 82.70782
436.7547, 82.59079
437.2368, 82.21910
437.7189, 82.12997
438.2010, 82.44059
438.6832, 82.76302
439.1653, 82.78442
439.6474, 82.53547
440.1295, 82.15209
440.6116, 81.59041
441.0938, 81.02168
441.5759, 80.52090
442.0580, 80.11481
442.5401, 79.94099
443.0222, 80.28533
443.5043, 80.70964
443.9865, 80.67384
444.4686, 80.23908
444.9507, 80.00444
445.4328, 80.34962
445.9149, 80.96424
446.3970, 81.08524
446.8792, 80.50712
447.3613, 80.11826
447.8434, 80.36543
448.3255, 80.83735
448.8076, 80.98805
449.2897, 80.73862
449.7719, 80.43649
450.2540, 80.42023
450.7361, 80.70920
451.2182, 80.88308
451.7003, 80.97840
452.1824, 80.94095
452.6646, 80.67594
453.1467, 80.28117
453.6288, 79.86303
454.1109, 79.46659
454.5930, 79.19855
455.0751, 79.31615
455.5573, 80.23644
456.0394, 80.71489
456.5215, 80.44766
457.0036, 80.07298
457.4857, 79.93488
457.9678, 80.03859
458.4500, 80.23028
458.9321, 80.40036
459.4142, 80.55714
459.8963, 80.75142
460.3784, 80.98586
460.8605, 81.25534
461.3427, 81.78623
461.8248, 82.23055
462.3069, 82.16618
462.7890, 81.48965
463.2711, 80.66735
463.7532, 80.13017
464.2354, 79.86842
464.7175, 79.83169
465.1996, 80.16948
465.6817, 80.48565
466.1638, 80.37898
466.6459, 80.02919
467.1281, 79.90514
467.6102, 80.33327
468.0923, 80.89745
468.5744, 81.16648
469.0565, 81.15709
469.5386, 80.98972
470.0208, 80.63010
470.5029, 80.23925
470.9850, 80.13947
471.4671, 80.37489
471.9492, 80.56572
472.4313, 80.59478
472.9135, 80.54539
473.3956, 80.44600
473.8777, 80.32532
474.3598, 80.36295
474.8419, 80.76415
475.3240, 81.45304
475.8062, 81.65456
476.2883, 80.85759
476.7704, 80.27367
477.2525, 80.28174
477.7346, 80.57410
478.2167, 80.83034
478.6989, 80.94595
479.1810, 80.91911
479.6631, 80.69499
480.1452, 80.16853
480.6273, 79.99673
481.1094, 80.79490
481.5916, 81.31554
482.0737, 80.94514
482.5558, 80.04876
483.0379, 79.22715
483.5200, 78.73878
484.0021, 78.60228
484.4843, 78.97038
484.9664, 80.00984
485.4485, 80.79662
485.9306, 81.19056
486.4127, 81.22099
486.8948, 80.72470
487.3770, 79.80927
487.8591, 79.02171
488.3412, 78.67253
488.8233, 78.66054
489.3054, 78.93755
489.7875, 79.56033
490.2697, 79.85435
490.7518, 79.22828
491.2339, 78.18810
491.7160, 77.75868
492.1981, 78.09304
492.6802, 78.59232
493.1624, 79.23663
493.6445, 79.80569
494.1266, 79.83592
494.6087, 79.26662
495.0908, 78.70885
495.5729, 78.72861
496.0551, 79.31983
496.5372, 79.74024
497.0193, 79.79650
497.5014, 79.93247
497.9835, 80.41444
498.4656, 81.01366
498.9478, 81.40447
499.4299, 81.48182
499.9120, 81.38063
500.3941, 81.30436
500.8762, 81.30279
501.3583, 81.12133
501.8405, 80.57507
502.3226, 80.03694
502.8047, 79.40376
503.2868, 78.91393
503.7689, 79.08051
504.2510, 80.25084
504.7331, 81.78085
505.2152, 82.38999
505.6974, 81.89507
506.1795, 81.63531
506.6616, 82.08012
507.1437, 82.65702
507.6258, 82.91949
508.1079, 82.91525
508.5901, 82.94701
509.0722, 83.17977
509.5543, 83.52463
510.0364, 83.89424
510.5185, 84.28496
511.0006, 84.58882
511.4828, 84.76787
511.9649, 84.81245
512.4470, 84.60266
512.9291, 83.91264
513.4113, 83.73862
513.8934, 84.93571
514.3755, 86.41089
514.8576, 86.91823
515.3397, 86.43564
515.8218, 85.81026
516.3040, 85.65722
516.7861, 85.91766
517.2682, 86.16648
517.7503, 86.35764
518.2324, 86.59492
518.7145, 87.01875
519.1967, 87.41625
519.6788, 87.56071
520.1609, 87.43325
520.6430, 87.20496
521.1251, 87.00991
521.6072, 86.85154
522.0894, 86.90104
522.5715, 87.36990
523.0536, 87.70772
523.5357, 87.66372
524.0178, 87.43385
524.4999, 87.21961
524.9821, 87.06670
525.4642, 86.98345
525.9463, 87.02035
526.4284, 87.14352
526.9105, 87.21770
527.3926, 87.24834
527.8748, 87.15626
528.3569, 86.83427
528.8390, 86.33127
529.3211, 85.81181
529.8032, 85.24931
530.2853, 84.72398
530.7675, 84.24358
531.2496, 83.83939
531.7317, 83.68210
532.2138, 83.82674
532.6959, 83.83732
533.1780, 83.08578
533.6602, 81.33167
534.1423, 80.32905
534.6244, 80.62704
535.1065, 80.94402
535.5886, 80.73156
536.0707, 80.24380
536.5529, 79.95832
537.0350, 80.05913
537.5171, 80.24562
537.9992, 80.01327
538.4813, 79.27629
538.9634, 78.55819
539.4456, 77.74548
539.9277, 77.11690
540.4098, 76.94498
540.8919, 77.02884
541.3740, 76.95615
541.8561, 76.51736
542.3383, 75.96365
542.8204, 75.78483
543.3025, 75.88900
543.7846, 75.18295
544.2667, 72.91171
544.7488, 70.71660
545.2310, 70.85310
545.7131, 73.01958
546.1952, 74.48705
546.6773, 74.52101
547.1594, 74.03757
547.6415, 73.38821
548.1237, 72.70437
548.6058, 72.26437
549.0879, 72.18967
549.5700, 72.28089
550.0521, 72.20882
550.5342, 71.90388
551.0164, 71.64700
551.4985, 71.53392
551.9806, 71.36678
552.4627, 70.96819
552.9448, 70.46599
553.4269, 70.07095
553.9091, 69.87662
554.3912, 69.89826
554.8733, 70.28899
555.3554, 71.16403
555.8375, 71.60146
556.3196, 71.19962
556.8018, 70.64896
557.2839, 70.46676
557.7660, 70.50280
558.2481, 70.30865
558.7302, 69.49940
559.2123, 68.66570
559.6945, 68.50050
560.1766, 68.86589
560.6587, 69.14973
561.1408, 69.16306
561.6229, 69.04585
562.1050, 68.95003
562.5872, 68.87462
563.0693, 68.85959
563.5514, 69.06643
564.0335, 69.17185
564.5156, 69.00179
564.9977, 68.61507
565.4799, 68.05013
565.9620, 67.33321
566.4441, 66.67965
566.9262, 66.45559
567.4083, 66.76137
567.8904, 67.08899
568.3726, 67.44676
568.8547, 67.81901
569.3368, 68.32734
569.8189, 68.81424
570.3010, 68.99916
570.7831, 68.75079
571.2653, 68.33300
571.7474, 68.03609
572.2295, 67.84710
572.7116, 67.62188
573.1937, 67.27875
573.6758, 67.04762
574.1580, 67.19113
574.6401, 67.62237
575.1222, 68.00430
575.6043, 68.53928
576.0864, 68.75391
576.5685, 68.12279
577.0507, 67.09841
577.5328, 66.43137
578.0149, 66.30645
578.4970, 66.45971
578.9791, 66.65124
579.4612, 66.89213
579.9434, 66.89396
580.4255, 66.26096
580.9076, 65.85503
581.3897, 66.00764
581.8718, 66.37408
582.3539, 66.57915
582.8361, 66.53924
583.3182, 66.42189
583.8003, 66.27706
584.2824, 66.15598
584.7645, 66.58760
585.2466, 67.91825
585.7288, 68.80386
586.2108, 68.16043
586.6929, 66.86440
587.1750, 66.18443
587.6572, 66.30848
588.1393, 66.60462
588.6214, 66.92653
589.1035, 67.18389
589.5856, 67.21538
590.0677, 67.02789
590.5499, 66.79466
591.0320, 66.61286
591.5141, 66.49072
591.9962, 66.46400
592.4783, 66.72733
592.9604, 66.80796
593.4426, 66.38272
593.9247, 66.03725
594.4068, 66.34367
594.8889, 67.12727
595.3710, 67.70727
595.8531, 67.58672
596.3353, 67.10103
596.8174, 67.14805
597.2995, 67.89118
597.7816, 68.17058
598.2637, 67.18582
598.7458, 66.25279
599.2280, 66.80988
599.7101, 68.52537
600.1922, 69.58565
600.6743, 68.92941
601.1564, 67.81953
601.6385, 67.20583
602.1207, 67.00181
602.6028, 66.93775
603.0849, 66.92681
603.5670, 67.00828
604.0491, 67.26423
604.5313, 67.75703
605.0134, 68.02683
605.4955, 67.93949
605.9776, 67.81574
606.4597, 67.74214
606.9418, 67.69713
607.4240, 67.59700
607.9061, 67.43529
608.3882, 67.38694
608.8703, 67.81012
609.3524, 68.63795
609.8345, 68.87660
610.3167, 68.22967
610.7988, 67.70931
611.2809, 68.12142
611.7630, 68.81425
612.2451, 68.77778
612.7272, 67.71884
613.2094, 66.93932
613.6915, 67.35571
614.1736, 68.19637
614.6557, 68.50298
615.1378, 68.23921
615.6199, 67.75502
616.1021, 67.20924
616.5842, 66.72665
617.0663, 66.68765
617.5484, 67.52332
618.0305, 68.07707
618.5126, 68.18138
618.9948, 68.18624
619.4769, 68.24174
619.9590, 68.36255
620.4411, 68.56356
620.9232, 68.88805
621.4053, 69.15848
621.8875, 68.95618
622.3696, 68.29506
622.8517, 68.04707
623.3338, 68.47405
623.8159, 69.12167
624.2980, 69.77425
624.7802, 70.35781
625.2623, 70.58725
625.7444, 70.08091
626.2265, 69.66285
626.7086, 69.81482
627.1907, 70.24190
627.6729, 70.59779
628.1550, 70.78769
628.6371, 70.73494
629.1192, 70.33566
629.6013, 69.64666
630.0834, 69.13157
630.5656, 68.66630
631.0477, 68.60253
631.5298, 69.36076
632.0119, 70.19851
632.4940, 70.60040
632.9761, 70.54556
633.4583, 70.25974
633.9404, 69.72839
634.4225, 69.16811
634.9046, 69.02119
635.3867, 69.24506
635.8688, 69.23251
636.3510, 68.68575
636.8331, 68.10191
637.3152, 68.11561
637.7973, 68.80120
638.2794, 69.36934
638.7615, 69.93736
639.2437, 70.24854
639.7258, 70.00993
640.2079, 69.52779
640.6900, 69.22718
641.1721, 69.21306
641.6542, 69.30892
642.1364, 69.36567
642.6185, 69.37232
643.1006, 69.13357
643.5827, 68.46349
644.0648, 67.96126
644.5469, 67.95542
645.0291, 68.14283
645.5112, 68.31030
645.9933, 68.43821
646.4754, 68.44951
646.9575, 68.14452
647.4396, 67.82386
647.9218, 67.96040
648.4039, 68.41219
648.8860, 68.48952
649.3681, 67.87884
649.8502, 67.06196
650.3323, 66.79346
650.8145, 67.24028
651.2966, 67.47093
651.7787, 67.33468
652.2608, 67.16550
652.7429, 67.10432
653.2250, 67.04772
653.7072, 66.76505
654.1893, 66.22330
654.6714, 65.84701
655.1535, 66.31713
655.6356, 67.27076
656.1177, 67.28492
656.5999, 66.17702
657.0820, 65.40414
657.5641, 65.81516
658.0462, 66.78448
658.5283, 67.12050
659.0104, 66.71900
659.4926, 66.38377
659.9747, 66.28060
660.4568, 66.22336
660.9389, 66.03981
661.4210, 65.82140
661.9031, 65.80132
662.3853, 66.06383
662.8674, 66.40044
663.3495, 66.49858
663.8316, 66.33733
664.3137, 66.28234
664.7958, 66.44817
665.2780, 66.51048
665.7601, 66.14554
666.2422, 65.68524
666.7243, 65.61364
667.2064, 66.05195
667.6885, 66.23350
668.1707, 65.40381
668.6528, 64.39470
669.1349, 64.34765
669.6170, 65.06996
670.0991, 65.46458
670.5812, 64.99891
671.0634, 64.15714
671.5455, 63.78607
672.0276, 64.02544
672.5097, 64.21490
672.9918, 64.21396
673.4739, 64.31942
673.9561, 64.72832
674.4382, 65.24671
674.9203, 65.63148
675.4024, 65.82021
675.8845, 65.91033
676.3666, 66.03463
676.8488, 66.10019
677.3309, 65.77927
677.8130, 65.07124
678.2951, 64.61790
678.7772, 64.78191
679.2593, 65.25542
679.7415, 65.48575
680.2236, 65.39752
680.7057, 65.27451
681.1878, 65.16122
681.6699, 64.96571
682.1520, 64.51894
682.6342, 64.00911
683.1163, 63.69120
683.5984, 63.64516
684.0805, 63.82630
684.5626, 64.33723
685.0447, 65.07002
685.5269, 65.36783
686.0090, 65.12870
686.4911, 64.99397
686.9732, 65.32043
687.4553, 65.82888
687.9374, 66.04450
688.4196, 65.93633
688.9017, 65.89352
689.3838, 65.99152
689.8659, 66.15421
690.3480, 66.50478
690.8301, 66.83866
691.3123, 66.75727
691.7944, 66.15852
692.2765, 65.39686
692.7586, 64.80769
693.2407, 64.40324
693.7228, 64.41817
694.2050, 65.02263
694.6871, 65.59517
695.1692, 66.03828
695.6513, 66.25061
696.1334, 65.97808
696.6155, 65.23093
697.0977, 64.83939
697.5798, 65.33923
698.0619, 66.00471
698.5440, 66.43321
699.0261, 66.59868
699.5082, 66.34913
699.9904, 65.68684
700.4725, 65.10517
700.9546, 65.18445
701.4367, 65.86877
701.9188, 66.31262
702.4009, 66.46761
702.8831, 66.47417
703.3652, 66.17738
703.8473, 65.88720
704.3294, 65.87818
704.8115, 66.11584
705.2936, 66.31180
705.7758, 66.36253
706.2579, 66.31812
706.7400, 66.12404
707.2221, 65.88218
707.7042, 65.85968
708.1863, 66.10720
708.6685, 66.35940
709.1506, 66.33476
709.6327, 66.11375
710.1148, 66.36534
710.5969, 67.68641
711.0790, 68.37282
711.5612, 67.60088
712.0433, 66.69266
712.5254, 66.46387
713.0075, 66.81667
713.4896, 67.30763
713.9717, 67.89149
714.4539, 68.32285
714.9360, 68.21076
715.4181, 67.81425
715.9002, 67.87508
716.3823, 68.46953
716.8644, 68.70881
717.3466, 67.82430
717.8287, 66.26035
718.3108, 65.68867
718.7929, 66.78053
719.2750, 67.60422
719.7571, 67.98611
720.2393, 68.22057
720.7214, 68.37521
721.2035, 68.50274
721.6856, 68.68816
722.1677, 68.96927
722.6498, 69.25334
723.1320, 69.63207
723.6141, 69.90666
724.0962, 69.44512
724.5783, 68.28332
725.0604, 67.49870
725.5425, 67.71891
726.0247, 68.51974
726.5068, 69.04929
726.9889, 69.24252
727.4710, 69.35911
727.9531, 69.56470
728.4352, 69.50748
728.9174, 68.72171
729.3995, 67.76979
729.8816, 67.42979
730.3637, 67.85426
730.8458, 68.40845
731.3279, 68.68127
731.8101, 68.78712
732.2922, 68.90517
732.7743, 69.03084
733.2564, 69.04424
733.7385, 68.86839
734.2206, 68.82140
734.7028, 69.40858
735.1849, 70.71944
735.6670, 71.30319
736.1491, 70.35874
736.6312, 69.70204
737.1133, 69.62024
737.5955, 69.93933
738.0776, 70.76791
738.5597, 71.92332
739.0418, 72.64619
739.5239, 72.38223
740.0060, 71.71279
740.4882, 71.18342
740.9703, 70.80407
741.4524, 70.62304
741.9345, 70.64958
742.4166, 70.83627
742.8987, 71.16289
743.3809, 71.60178
743.8630, 72.04037
744.3451, 72.74272
744.8272, 72.94913
745.3093, 72.11256
745.7914, 71.29704
746.2736, 71.02517
746.7557, 71.20767
747.2378, 71.62410
747.7199, 72.25175
748.2020, 72.90356
748.6841, 73.69291
749.1663, 74.30645
749.6484, 73.88158
750.1305, 72.57114
750.6126, 71.84092
751.0947, 72.50631
751.5768, 73.74046
752.0590, 74.00167
752.5411, 72.99001
753.0232, 72.42480
753.5053, 72.46947
753.9874, 72.76140
754.4695, 73.47967
754.9517, 74.19965
755.4338, 74.39912
755.9159, 74.04029
756.3980, 73.67146
756.8801, 73.51244
757.3622, 73.48894
757.8444, 73.56346
758.3265, 73.71106
758.8086, 73.90285
759.2907, 74.12238
759.7728, 74.29729
760.2549, 74.34468
760.7371, 74.29177
761.2192, 74.28030
761.7013, 74.23005
762.1834, 74.45554
762.6655, 75.40379
763.1476, 76.23003
763.6298, 76.21506
764.1119, 75.64564
764.5940, 75.35067
765.0761, 75.66886
765.5582, 75.93110
766.0403, 75.64808
766.5225, 75.24991
767.0046, 75.22839
767.4867, 75.56278
767.9688, 76.00660
768.4509, 76.43999
768.9330, 76.80634
769.4152, 76.99974
769.8973, 77.01646
770.3794, 76.97413
770.8615, 76.86376
771.3436, 76.71989
771.8257, 76.52708
772.3079, 76.33160
772.7900, 76.20779
773.2721, 76.16135
773.7542, 76.11020
774.2363, 75.91212
774.7184, 75.84950
775.2006, 76.19563
775.6827, 76.69731
776.1648, 76.99260
776.6469, 77.04417
777.1290, 77.10310
777.6111, 77.38573
778.0933, 77.77275
778.5754, 78.04218
779.0575, 78.19038
779.5396, 78.01866
780.0217, 77.37846
780.5038, 76.81824
780.9860, 76.79690
781.4681, 77.19386
781.9502, 77.48917
782.4323, 77.75590
782.9144, 77.80069
783.3965, 77.15112
783.8787, 76.73707
784.3608, 77.39359
784.8429, 78.56950
785.3250, 79.26456
785.8071, 79.16344
786.2892, 78.73145
786.7714, 78.11369
787.2535, 77.54229
787.7356, 77.55447
788.2177, 78.08250
788.6998, 78.58385
789.1819, 78.87180
789.6641, 78.96245
790.1462, 78.83710
790.6283, 78.49755
791.1104, 78.33977
791.5925, 78.38635
792.0746, 78.58241
792.5568, 79.20432
793.0389, 79.72208
793.5210, 79.58677
794.0031, 79.01313
794.4852, 78.76060
794.9673, 79.12345
795.4495, 79.71327
795.9316, 80.58542
796.4137, 81.36864
796.8958, 81.42346
797.3779, 80.87325
797.8600, 80.42259
798.3422, 80.43608
798.8243, 80.70451
799.3064, 80.93008
799.7885, 81.11601
800.2706, 81.11400
800.7527, 80.78137
801.2349, 80.72159
801.7170, 81.41290
802.1991, 82.28150
802.6812, 82.44166
803.1633, 81.89240
803.6454, 81.58785
804.1276, 81.80331
804.6097, 82.04829
805.0918, 82.04479
805.5739, 82.04957
806.0560, 82.44060
806.5381, 83.13551
807.0203, 83.64725
807.5024, 83.62766
807.9845, 83.49344
808.4666, 83.94650
808.9487, 84.79345
809.4308, 85.21036
809.9130, 85.09560
810.3951, 84.98476
810.8772, 85.18171
811.3593, 85.57689
811.8414, 85.95988
812.3235, 86.34475
812.8057, 86.66809
813.2878, 86.80706
813.7699, 87.04015
814.2520, 87.64587
814.7341, 88.24609
815.2162, 88.33825
815.6984, 87.95171
816.1805, 87.77689
816.6626, 88.28707
817.1447, 88.90902
817.6268, 89.29281
818.1089, 89.47777
818.5911, 89.39526
819.0732, 89.13306
819.5553, 89.12089
820.0374, 89.66781
820.5195, 90.48280
821.0016, 90.93407
821.4838, 91.00809
821.9659, 91.25707
822.4480, 91.82285
822.9301, 92.20675
823.4122, 92.06712
823.8943, 91.67493
824.3765, 91.51038
824.8586, 91.62664
825.3407, 91.68864
825.8228, 91.48650
826.3049, 91.47018
826.7870, 92.03215
827.2692, 92.69828
827.7513, 92.90146
828.2334, 92.67296
828.7155, 92.52699
829.1976, 92.79517
829.6797, 93.15952
830.1619, 93.21111
830.6440, 93.09456
831.1261, 93.15585
831.6082, 93.42931
832.0903, 93.77736
832.5724, 94.12512
833.0546, 94.48549
833.5367, 94.87926
834.0188, 95.30476
834.5009, 95.80245
834.9830, 96.50503
835.4651, 97.00114
835.9473, 96.87984
836.4294, 96.68195
836.9115, 97.03660
837.3936, 97.91930
837.8757, 98.80807
838.3578, 99.72742
838.8400, 100.5111
839.3221, 101.0350
839.8042, 101.4444
840.2863, 101.8433
840.7684, 102.2671
841.2505, 102.7317
841.7327, 103.2369
842.2148, 103.8583
842.6969, 104.6828
843.1790, 105.6950
843.6611, 106.9696
844.1432, 108.4739
844.6254, 109.6633
845.1075, 110.2449
845.5896, 110.8436
846.0717, 112.3938
846.5538, 114.8944
847.0359, 116.7370
847.5181, 117.5001
848.0002, 118.4039
848.4823, 119.6095
848.9644, 121.1115
849.4465, 123.1286
849.9286, 125.4379
850.4108, 127.3297
850.8929, 128.3164
851.3750, 129.7309
851.8571, 132.2810
852.3392, 135.2453
852.8214, 138.1293
853.3035, 140.9356
853.7856, 143.7879
854.2677, 146.7233
854.7498, 149.6725
855.2319, 152.5240
855.7141, 155.3637
856.1962, 158.4934
856.6783, 161.8440
857.1604, 165.0332
857.6425, 167.9365
858.1246, 170.7814
858.6068, 173.6964
859.0889, 176.7413
859.5710, 180.2328
860.0531, 184.5166
860.5352, 188.3360
861.0173, 191.3204
861.4995, 194.2573
861.9816, 197.6490
862.4637, 201.1361
862.9458, 204.2613
863.4279, 206.9695
863.9100, 209.5071
864.3922, 212.0513
864.8743, 214.3248
865.3564, 216.0066
865.8385, 217.4338
866.3206, 219.2708
866.8027, 221.3176
867.2849, 222.4502
867.7670, 221.8547
868.2491, 220.7462
868.7312, 220.8655
869.2133, 221.7130
869.6954, 222.1172
870.1776, 221.9065
870.6597, 220.3316
871.1418, 216.9667
871.6239, 212.7916
872.1060, 209.1019
872.5881, 205.9028
873.0703, 202.8727
873.5524, 200.3100
874.0345, 197.1479
874.5166, 192.8947
874.9987, 188.2457
875.4808, 183.6949
875.9630, 179.1712
876.4451, 174.4350
876.9272, 169.3517
877.4093, 164.3050
877.8914, 159.3426
878.3735, 154.4530
878.8557, 149.5916
879.3378, 144.7641
879.8199, 140.0139
880.3020, 135.3080
880.7841, 130.4630
881.2662, 124.8659
881.7484, 119.4853
882.2305, 115.8823
882.7126, 113.3507
883.1947, 110.1066
883.6768, 105.9639
884.1589, 101.9696
884.6411, 98.81557
885.1232, 96.17897
885.6053, 93.36457
886.0874, 90.34998
886.5695, 88.15908
887.0516, 87.16776
887.5338, 85.47193
888.0159, 81.92246
888.4980, 78.07253
888.9801, 75.88805
889.4622, 75.36100
889.9443, 74.39431
890.4265, 72.58379
890.9086, 70.92245
891.3907, 69.56021
891.8728, 68.31150
892.3549, 67.04906
892.8370, 65.81683
893.3192, 64.69736
893.8013, 63.69575
894.2834, 62.87951
894.7655, 62.50092
895.2476, 62.11138
895.7297, 61.25528
896.2119, 60.15389
896.6940, 59.22830
897.1761, 58.52565
897.6582, 57.76582
898.1403, 56.73203
898.6224, 55.58879
899.1046, 54.53642
899.5867, 53.59505
900.0688, 52.84579
900.5509, 52.29188
901.0330, 51.90427
901.5151, 51.69798
901.9973, 51.47541
902.4794, 50.90305
902.9615, 49.98022
903.4436, 49.39543
903.9257, 49.28776
904.4078, 49.15406
904.8900, 48.91943
905.3721, 48.59494
905.8542, 48.19524
906.3363, 47.71088
906.8184, 47.08163
907.3005, 46.08298
907.7827, 45.49942
908.2648, 45.78212
908.7469, 46.10254
909.2290, 46.12827
909.7111, 45.92216
910.1932, 45.52020
910.6754, 44.97353
911.1575, 44.48005
911.6396, 44.09568
912.1217, 43.85950
912.6038, 43.97488
913.0859, 44.15761
913.5681, 43.95227
914.0502, 43.41370
914.5323, 42.85727
915.0144, 42.42539
915.4965, 42.16685
915.9786, 42.26511
916.4607, 42.56181
916.9428, 42.38733
917.4249, 41.79106
917.9070, 41.51878
918.3892, 41.78395
918.8713, 42.01833
919.3534, 41.73979
919.8355, 41.14886
920.3176, 40.86330
920.7997, 40.94763
921.2819, 41.11623
921.7640, 41.50764
922.2461, 41.70310
922.7282, 41.47310
923.2103, 41.01941
923.6924, 40.48637
924.1746, 39.88849
924.6567, 39.59422
925.1388, 39.82384
925.6209, 40.06775
926.1030, 40.28040
926.5851, 40.43567
927.0673, 40.51628
927.5494, 40.52680
928.0315, 40.43536
928.5136, 40.22855
928.9957, 40.13482
929.4778, 40.53218
929.9600, 40.83213
930.4421, 40.37412
930.9242, 39.58933
931.4063, 39.17920
931.8884, 39.17523
932.3705, 39.15878
932.8527, 38.88772
933.3348, 38.55922
933.8169, 38.38515
934.2990, 38.36501
934.7811, 38.63354
935.2632, 39.11326
935.7454, 39.23082
936.2275, 38.79691
936.7096, 38.13385
937.1917, 37.49635
937.6738, 36.97356
938.1559, 37.04694
938.6381, 37.85211
939.1202, 38.06194
939.6023, 37.35546
940.0844, 36.67568
940.5665, 36.51356
941.0486, 36.62697
941.5308, 36.64223
942.0129, 36.54571
942.4950, 36.50341
942.9771, 36.63630
943.4592, 36.63873
943.9413, 36.44955
944.4235, 36.14141
944.9056, 35.62156
945.3877, 35.04602
945.8698, 34.76897
946.3519, 34.89737
946.8340, 35.03876
947.3162, 35.00535
947.7983, 35.06174
948.2804, 35.52015
948.7625, 36.02737
949.2446, 36.20182
949.7267, 36.02244
950.2089, 35.61386
950.6910, 34.93908
951.1731, 34.35334
951.6552, 34.11090
952.1373, 34.13113
952.6194, 34.43087
953.1016, 34.88703
953.5837, 35.32458
954.0658, 35.64712
954.5479, 35.58332
955.0300, 34.73807
955.5121, 33.71264
955.9943, 33.80110
956.4764, 34.68705
956.9585, 35.05996
957.4406, 34.81571
957.9227, 34.59408
958.4048, 34.69185
958.8870, 34.93702
959.3691, 35.14589
959.8512, 35.28949
960.3333, 35.06673
960.8154, 34.40734
961.2975, 33.90273
961.7797, 33.65815
962.2618, 33.59056
962.7439, 33.68283
963.2260, 33.87857
963.7081, 34.06404
964.1902, 34.24516
964.6724, 34.39695
965.1545, 34.65572
965.6366, 34.65132
966.1187, 34.00689
966.6008, 33.34866
967.0829, 33.18676
967.5651, 33.39193
968.0472, 33.57031
968.5293, 33.68695
969.0114, 33.81081
969.4935, 34.07587
969.9756, 34.20396
970.4578, 33.98538
970.9399, 33.62765
971.4220, 33.28791
971.9041, 33.01982
972.3862, 32.94720
972.8683, 33.23370
973.3505, 33.44781
973.8326, 33.15848
974.3147, 32.89094
974.7968, 33.32150
975.2789, 34.04197
975.7610, 34.22439
976.2432, 33.75405
976.7253, 33.26915
977.2074, 33.23085
977.6895, 33.27362
978.1716, 32.85863
978.6537, 32.94147
979.1359, 32.33393
979.6180, 32.78915
980.1001, 33.05609
980.5822, 32.91404
981.0643, 32.75318
981.5464, 33.00852
982.0286, 33.47735
982.5107, 33.71169
982.9928, 33.73251
983.4749, 33.58565
983.9570, 33.29438
984.4391, 33.11487
984.9213, 33.19805
985.4034, 33.28034
985.8855, 32.90950
986.3676, 32.17467
986.8497, 31.90779
987.3318, 32.14998
987.8140, 32.37938
988.2961, 32.49122
988.7782, 32.61406
989.2603, 32.86232
989.7424, 33.11997
990.2245, 33.11947
990.7067, 32.80514
991.1888, 32.72520
991.6709, 33.09221
992.1530, 33.13999
992.6351, 32.41653
993.1172, 31.73541
993.5994, 31.79737
994.0815, 32.36264
994.5636, 32.68974
995.0457, 32.65862
995.5278, 32.72713
996.0099, 33.09072
996.4921, 33.29825
996.9742, 33.04496
997.4563, 32.75080
997.9384, 32.88207
998.4205, 33.27874
998.9026, 33.32547
999.3848, 32.77471
999.8669, 32.32339
1000.349, 32.05733
1000.831, 31.97646
1001.313, 32.34901
1001.795, 32.71999
1002.277, 32.49459
1002.760, 31.77188
1003.242, 31.19979
1003.724, 31.00258
1004.206, 30.93675
1004.688, 30.91249
1005.170, 30.95373
1005.652, 31.10948
1006.134, 31.32733
1006.617, 31.58590
1007.099, 31.83951
1007.581, 31.90239
1008.063, 31.56615
1008.545, 31.30677
1009.027, 31.70407
1009.509, 32.23372
1009.991, 32.27856
1010.473, 31.94650
1010.956, 31.42916
1011.438, 30.86321
1011.920, 30.66866
1012.402, 31.25844
1012.884, 32.03122
1013.366, 32.32796
1013.848, 32.23835
1014.330, 31.70668
1014.813, 30.94864
1015.295, 30.67773
1015.777, 31.08479
1016.259, 31.71044
1016.741, 32.24516
1017.223, 32.56339
1017.705, 32.26496
1018.187, 31.56275
1018.669, 31.19032
1019.152, 31.19153
1019.634, 31.45233
1020.116, 31.91837
1020.598, 32.11728
1021.080, 31.39969
1021.562, 30.34173
1022.044, 30.99711
1022.526, 33.10138
1023.008, 33.59877
1023.491, 32.18727
1023.973, 31.06097
1024.455, 31.16092
1024.937, 31.69377
1025.419, 31.77925
1025.901, 31.49599
1026.383, 31.12957
1026.865, 30.65143
1027.348, 30.59630
1027.830, 31.09799
1028.312, 31.52496
1028.794, 31.59390
1029.276, 31.44730
1029.758, 31.21618
1030.240, 30.94088
1030.722, 31.03135
1031.204, 31.67255
1031.687, 31.77155
1032.169, 30.97980
1032.651, 30.37562
1033.133, 30.53106
1033.615, 30.99829
1034.097, 31.19897
1034.579, 31.15528
1035.061, 31.21068
1035.544, 31.42780
1036.026, 31.58602
1036.508, 31.69900
1036.990, 31.68011
1037.472, 31.35695
1037.954, 31.02423
1038.436, 31.16660
1038.918, 31.75364
1039.401, 31.85851
1039.883, 31.09715
1040.365, 30.56762
1040.847, 30.35743
1041.329, 30.36113
1041.811, 30.70686
1042.293, 31.12375
1042.775, 31.18349
1043.257, 30.90223
1043.740, 30.92652
1044.222, 31.97893
1044.704, 32.21992
1045.186, 30.60711
1045.668, 29.27060
1046.150, 29.39857
1046.632, 30.13954
1047.114, 30.50109
1047.596, 30.47604
1048.079, 30.46360
1048.561, 30.43766
1049.043, 30.51855
1049.525, 30.76508
1050.007, 31.06982
1050.489, 31.49957
1050.971, 31.88314
1051.453, 31.98494
1051.936, 31.82525
1052.418, 31.67960
1052.900, 31.63093
1053.382, 31.53250
1053.864, 31.35877
1054.346, 31.12454
1054.828, 30.68791
1055.310, 30.29429
1055.792, 30.33346
1056.275, 30.73211
1056.757, 30.91036
1057.239, 30.60757
1057.721, 30.35427
1058.203, 30.40579
1058.685, 30.41730
1059.167, 30.01360
1059.649, 29.59319
1060.131, 29.71082
1060.614, 30.28066
1061.096, 30.70360
1061.578, 30.79640
1062.060, 30.80119
1062.542, 30.89067
1063.024, 30.81047
1063.506, 30.05097
1063.988, 29.30100
1064.471, 29.53600
1064.953, 30.53420
1065.435, 31.19278
1065.917, 31.19067
1066.399, 30.93107
1066.881, 30.26056
1067.363, 29.74061
1067.845, 29.91259
1068.328, 30.24856
1068.810, 30.05666
1069.292, 29.49530
1069.774, 29.25951
1070.256, 29.58477
1070.738, 29.97797
1071.220, 30.43158
1071.702, 30.65049
1072.184, 30.22199
1072.667, 29.65919
1073.149, 29.53533
1073.631, 29.74192
1074.113, 29.84988
1074.595, 29.73635
1075.077, 29.65098
1075.559, 29.81151
1076.041, 29.90174
1076.523, 29.74923
1077.006, 29.43811
1077.488, 28.78454
1077.970, 28.11846
1078.452, 28.26811
1078.934, 29.42472
1079.416, 30.23721
1079.898, 29.91530
1080.380, 29.34554
1080.862, 28.67576
1081.345, 28.24529
1081.827, 28.54946
1082.309, 29.24355
1082.791, 29.70983
1083.273, 29.82488
1083.755, 29.74734
1084.237, 29.41259
1084.719, 29.08647
1085.202, 28.77878
1085.684, 28.64477
1086.166, 29.01587
1086.648, 29.53976
1087.130, 29.60822
1087.612, 29.20107
1088.094, 28.91179
1088.576, 28.98191
1089.058, 29.16091
1089.541, 29.40363
1090.023, 29.65157
1090.505, 29.91220
1090.987, 30.12228
1091.469, 30.24413
1091.951, 30.24634
1092.433, 30.00563
1092.915, 29.34739
1093.397, 28.84941
1093.880, 28.88848
1094.362, 28.98108
1094.844, 28.73716
1095.326, 28.47844
1095.808, 28.69277
1096.290, 29.21257
1096.772, 29.40719
1097.254, 29.06022
1097.737, 28.71784
1098.219, 28.61205
1098.701, 28.49063
1099.183, 28.10035
1099.665, 27.76568
1100.147, 27.86715
1100.629, 28.23002
1101.111, 28.38483
1101.594, 28.22381
1102.076, 28.29801
1102.558, 29.30197
1103.040, 29.80695
1103.522, 28.67123
1104.004, 27.56301
1104.486, 27.92606
1104.968, 28.97854
1105.450, 29.33824
1105.932, 28.88915
1106.415, 28.58676
1106.897, 28.88877
1107.379, 28.93335
1107.861, 28.25674
1108.343, 27.62619
1108.825, 27.46547
1109.307, 27.54913
1109.789, 27.64309
1110.272, 27.72047
1110.754, 27.70624
1111.236, 27.34855
1111.718, 27.38515
1112.200, 28.36111
1112.682, 29.12696
1113.164, 29.31412
1113.646, 29.10468
1114.129, 28.34354
1114.611, 27.33418
1115.093, 27.14576
1115.575, 28.17610
1116.057, 28.82532
1116.539, 29.00825
1117.021, 28.92857
1117.503, 28.27265
1117.985, 27.79012
1118.468, 28.17484
1118.950, 28.94228
1119.432, 29.17574
1119.914, 28.84127
1120.396, 28.34793
1120.878, 27.37565
1121.360, 26.96581
1121.842, 27.53412
1122.324, 28.14053
1122.807, 28.34933
1123.289, 28.33624
1123.771, 28.30159
1124.253, 28.25010
1124.735, 28.21615
1125.217, 28.18694
1125.699, 28.22609
1126.181, 28.35641
1126.664, 28.51155
1127.146, 28.71734
1127.628, 28.80657
1128.110, 28.60702
1128.592, 28.19765
1129.074, 27.75583
1129.556, 27.24605
1130.038, 27.16788
1130.521, 27.60284
1131.003, 27.88525
1131.485, 27.85341
1131.967, 27.71833
1132.449, 27.60263
1132.931, 27.50837
1133.413, 27.42586
1133.895, 27.36859
1134.377, 27.51536
1134.859, 27.84948
1135.342, 27.70293
1135.824, 27.00032
1136.306, 26.65360
1136.788, 27.06888
1137.270, 27.68663
1137.752, 27.94754
1138.234, 27.91440
1138.716, 27.62098
1139.199, 27.16964
1139.681, 27.08494
1140.163, 27.31228
1140.645, 27.29401
1141.127, 26.91285
1141.609, 26.62238
1142.091, 26.74451
1142.573, 27.03737
1143.056, 27.18044
1143.538, 27.24079
1144.020, 27.35356
1144.502, 27.49731
1144.984, 27.64011
1145.466, 27.75159
1145.948, 27.70862
1146.430, 27.46498
1146.912, 27.28545
1147.395, 27.49543
1147.877, 27.78227
1148.359, 27.78273
1148.841, 27.64298
1149.323, 27.56652
1149.805, 27.52850
1150.287, 27.36879
1150.769, 27.09451
1151.251, 27.02731
1151.734, 27.50718
1152.216, 27.79525
1152.698, 27.01642
1153.180, 26.24538
1153.662, 26.58345
1154.144, 27.33526
1154.626, 27.61373
1155.108, 27.39482
1155.591, 26.95929
1156.073, 26.31174
1156.555, 25.91101
1157.037, 25.90583
1157.519, 26.19493
1158.001, 27.13656
1158.483, 27.96428
1158.965, 27.94561
1159.448, 27.48629
1159.930, 27.41644
1160.412, 27.78825
1160.894, 27.64871
1161.376, 26.17683
1161.858, 25.32432
1162.340, 25.59583
1162.822, 26.08447
1163.304, 26.68903
1163.786, 27.13965
1164.269, 27.09359
1164.751, 26.70933
1165.233, 26.52548
1165.715, 26.55897
1166.197, 26.76219
1166.679, 27.31962
1167.161, 27.48137
1167.643, 26.92186
1168.126, 26.42918
1168.608, 26.49507
1169.090, 26.82584
1169.572, 26.98019
1170.054, 26.99604
1170.536, 27.20140
1171.018, 27.61551
1171.500, 27.76187
1171.983, 27.59344
1172.465, 27.36085
1172.947, 27.14570
1173.429, 27.00945
1173.911, 27.02594
1174.393, 27.05114
1174.875, 26.65335
1175.357, 26.91742
1175.839, 26.25186
1176.322, 27.02796
1176.804, 27.31681
1177.286, 27.01876
1177.768, 26.73897
1178.250, 26.75452
1178.732, 26.87641
1179.214, 26.98415
1179.696, 27.01757
1180.178, 26.83642
1180.661, 26.56819
1181.143, 26.33602
1181.625, 26.20998
1182.107, 26.41508
1182.589, 26.88825
1183.071, 27.10484
1183.553, 26.76090
1184.035, 26.34641
1184.518, 26.04870
1185.000, 25.92889
1185.482, 26.09508
1185.964, 26.40796
1186.446, 26.85341
1186.928, 27.28319
1187.410, 27.33847
1187.892, 26.94797
1188.375, 26.77158
1188.857, 27.34244
1189.339, 27.57167
1189.821, 26.85108
1190.303, 26.19657
1190.785, 26.24780
1191.267, 26.49006
1191.749, 26.29769
1192.231, 25.82095
1192.714, 25.64801
1193.196, 25.84548
1193.678, 26.12110
1194.160, 26.61282
1194.642, 26.77928
1195.124, 26.42073
1195.606, 25.96893
1196.088, 25.61250
1196.570, 25.45917
1197.053, 25.69552
1197.535, 26.23760
1198.017, 26.72871
1198.499, 27.16261
1198.981, 27.24225
1199.463, 26.96682
1199.945, 26.77494
1200.427, 26.78738
1200.910, 26.78267
1201.392, 26.60045
1201.874, 26.38600
1202.356, 26.30789
1202.838, 26.36967
1203.320, 26.75854
1203.802, 27.22320
1204.284, 27.10006
1204.766, 26.49846
1205.249, 25.91888
1205.731, 25.56238
1206.213, 25.64489
1206.695, 26.56885
1207.177, 27.32251
1207.659, 26.89095
1208.141, 26.19547
1208.623, 25.92952
1209.105, 25.97270
1209.588, 26.22130
1210.070, 26.57067
1210.552, 26.81810
1211.034, 26.91547
1211.516, 26.96756
1211.998, 27.12903
1212.480, 27.05768
1212.962, 26.36094
1213.445, 25.77391
1213.927, 25.85655
1214.409, 26.10041
1214.891, 25.88421
1215.373, 25.93859
1215.855, 25.94502
1216.337, 25.71291
1216.819, 25.89132
1217.302, 25.68631
1217.784, 25.60835
1218.266, 25.78699
1218.748, 26.00401
1219.230, 26.16518
1219.712, 26.16746
1220.194, 25.82201
1220.676, 25.29662
1221.158, 25.15091
1221.641, 25.32153
1222.123, 25.56997
1222.605, 25.81642
1223.087, 25.60795
1223.569, 24.96264
1224.051, 24.81439
1224.533, 25.71288
1225.015, 26.69138
1225.497, 26.68436
1225.980, 26.32169
1226.462, 26.33138
1226.944, 26.44456
1227.426, 26.21380
1227.908, 25.82908
1228.390, 25.78812
1228.872, 26.10969
1229.354, 26.28709
1229.837, 26.03400
1230.319, 25.95602
1230.801, 26.69129
1231.283, 27.07818
1231.765, 26.19947
1232.247, 25.19923
1232.729, 24.93272
1233.211, 25.19091
1233.693, 25.65477
1234.176, 26.30322
1234.658, 26.47899
1235.140, 25.99176
1235.622, 25.57894
1236.104, 25.20495
1236.586, 25.21531
1237.068, 25.82820
1237.550, 26.27521
1238.032, 25.96231
1238.515, 25.32318
1238.997, 25.07466
1239.479, 25.12013
1239.961, 24.99061
1240.443, 24.79098
1240.925, 25.13683
1241.407, 25.91818
1241.889, 26.40454
1242.372, 26.39300
1242.854, 26.05637
1243.336, 25.41313
1243.818, 25.03346
1244.300, 25.80641
1244.782, 26.72438
1245.264, 26.74353
1245.746, 26.38193
1246.229, 26.24660
1246.711, 26.27081
1247.193, 26.17397
1247.675, 25.92461
1248.157, 25.72659
1248.639, 25.65040
1249.121, 25.58644
1249.603, 25.55109
1250.085, 25.47540
1250.568, 25.25943
1251.050, 25.09486
1251.532, 25.11020
1252.014, 25.25590
1252.496, 25.47264
1252.978, 25.74543
1253.460, 25.93050
1253.942, 26.04156
1254.424, 25.86193
1254.907, 25.36659
1255.389, 24.92064
1255.871, 24.62897
1256.353, 24.61366
1256.835, 24.96947
1257.317, 25.43746
1257.799, 25.76365
1258.281, 25.90578
1258.764, 25.68102
1259.246, 25.28056
1259.728, 24.96977
1260.210, 24.80654
1260.692, 24.90879
1261.174, 25.22532
1261.656, 25.45680
1262.138, 25.48605
1262.620, 25.41677
1263.103, 25.17249
1263.585, 25.00735
1264.067, 25.04215
1264.549, 25.18753
1265.031, 25.52738
1265.513, 25.83973
1265.995, 25.74684
1266.477, 25.35025
1266.959, 25.19867
1267.442, 25.38009
1267.924, 25.42978
1268.406, 25.30902
1268.888, 25.24409
1269.370, 25.28721
1269.852, 25.29406
1270.334, 25.18305
1270.816, 25.12565
1271.299, 25.33574
1271.781, 25.63547
1272.263, 25.69874
1272.745, 25.55188
1273.227, 25.09234
1273.709, 24.53782
1274.191, 24.45598
1274.673, 24.80159
1275.156, 25.10781
1275.638, 25.22248
1276.120, 25.37392
1276.602, 25.90351
1277.084, 26.11572
1277.566, 25.31733
1278.048, 24.51338
1278.530, 24.19581
1279.012, 24.26203
1279.495, 24.91223
1279.977, 25.73979
1280.459, 25.74647
1280.941, 24.91061
1281.423, 24.41003
1281.905, 24.27189
1282.387, 24.44309
1282.869, 24.98923
1283.351, 25.44617
1283.834, 25.67635
1284.316, 25.87959
1284.798, 26.22974
1285.280, 26.30075
1285.762, 25.58238
1286.244, 24.08088
##END=



