##NAMES=Columbite-(Mn)
##RRUFFID=R040083
##IDEAL CHEMISTRY=Mn^2+^Nb^5+^_2_O_6_
##LOCALITY=Mina Miramica, Santa Cruz, Bolivia
##OWNER=RRUFF
##SOURCE=University of Arizona Mineral Museum
##DESCRIPTION=Fragment consisting of multiple phases as shown by both X-ray diffraction and microprobe.
##STATUS=The identification of this mineral has been confirmed by X-ray diffraction and chemical analysis
##URL=rruff.info/R040083
##MEASURED CHEMISTRY=Light bands: (Mn^2+^_0.78_Fe^2+^_0.21_Ti_0.01_)(Nb_0.74_Ta_0.25_Ti_0.01_)_2_O_6_; Dark bands:(Mn^2+^_0.73_Fe^2+^_0.26_Ti_0.01_)(Nb_0.86_Ta_0.13_Ti_0.01_)_2_O_6_
129.7605, 14782.30
130.2426, 14742.32
130.7247, 14707.41
131.2068, 14670.88
131.6889, 14630.09
132.1711, 14582.23
132.6532, 14522.47
133.1353, 14447.23
133.6174, 14362.43
134.0995, 14268.45
134.5816, 14164.19
135.0638, 14063.43
135.5459, 13963.65
136.0280, 13863.64
136.5101, 13799.25
136.9922, 13781.52
137.4743, 13779.15
137.9565, 13731.30
138.4386, 13625.93
138.9207, 13524.95
139.4028, 13466.64
139.8849, 13466.73
140.3670, 13440.35
140.8492, 13379.01
141.3313, 13292.01
141.8134, 13209.58
142.2955, 13131.85
142.7776, 13060.17
143.2597, 12996.61
143.7419, 12951.26
144.2240, 12895.59
144.7061, 12820.29
145.1882, 12723.75
145.6703, 12652.84
146.1524, 12630.13
146.6346, 12614.81
147.1167, 12562.42
147.5988, 12423.40
148.0809, 12307.14
148.5630, 12245.59
149.0451, 12266.37
149.5273, 12252.98
150.0094, 12178.80
150.4915, 12074.09
150.9736, 11988.63
151.4557, 11930.92
151.9378, 11884.89
152.4200, 11845.28
152.9021, 11816.51
153.3842, 11786.24
153.8663, 11756.81
154.3484, 11725.55
154.8305, 11684.37
155.3127, 11623.45
155.7948, 11557.95
156.2769, 11496.71
156.7590, 11445.18
157.2411, 11394.12
157.7232, 11342.54
158.2053, 11290.74
158.6875, 11238.96
159.1696, 11187.48
159.6517, 11137.03
160.1338, 11088.28
160.6159, 11043.45
161.0980, 10999.22
161.5802, 10951.11
162.0623, 10898.49
162.5444, 10855.91
163.0265, 10846.58
163.5086, 10847.65
163.9907, 10827.65
164.4729, 10750.43
164.9550, 10664.09
165.4371, 10600.02
165.9192, 10567.80
166.4013, 10538.80
166.8834, 10491.16
167.3656, 10433.69
167.8477, 10386.71
168.3298, 10368.42
168.8119, 10361.35
169.2940, 10350.22
169.7761, 10333.71
170.2583, 10309.08
170.7404, 10272.38
171.2225, 10224.96
171.7046, 10173.24
172.1867, 10112.22
172.6688, 10051.12
173.1510, 10004.63
173.6331, 9987.641
174.1152, 9977.032
174.5973, 9949.036
175.0794, 9904.475
175.5615, 9851.178
176.0437, 9789.204
176.5258, 9722.989
177.0079, 9662.837
177.4900, 9615.130
177.9721, 9574.705
178.4542, 9534.310
178.9364, 9494.015
179.4185, 9453.479
179.9006, 9411.295
180.3827, 9368.477
180.8648, 9329.647
181.3469, 9297.021
181.8291, 9269.624
182.3112, 9247.816
182.7933, 9233.570
183.2754, 9217.582
183.7575, 9182.320
184.2396, 9130.652
184.7218, 9082.616
185.2039, 9049.626
185.6860, 9029.373
186.1681, 9015.954
186.6502, 9009.085
187.1323, 9006.993
187.6144, 9012.898
188.0966, 9026.441
188.5787, 9028.279
189.0608, 8994.066
189.5429, 8930.038
190.0250, 8884.014
190.5071, 8871.923
190.9893, 8877.204
191.4714, 8856.569
191.9535, 8808.451
192.4356, 8750.898
192.9177, 8694.566
193.3998, 8639.543
193.8820, 8597.291
194.3641, 8574.265
194.8462, 8566.253
195.3283, 8554.015
195.8104, 8537.387
196.2925, 8517.736
196.7747, 8494.642
197.2568, 8467.701
197.7389, 8444.064
198.2210, 8427.494
198.7031, 8417.219
199.1852, 8402.466
199.6674, 8381.937
200.1495, 8359.065
200.6316, 8338.270
201.1137, 8319.616
201.5958, 8302.099
202.0779, 8286.466
202.5601, 8273.008
203.0422, 8255.310
203.5243, 8231.353
204.0064, 8205.762
204.4885, 8189.635
204.9706, 8187.378
205.4528, 8178.578
205.9349, 8149.392
206.4170, 8093.661
206.8991, 8053.181
207.3812, 8032.616
207.8633, 8025.191
208.3455, 8016.687
208.8276, 8009.078
209.3097, 7995.415
209.7918, 7969.042
210.2739, 7924.664
210.7560, 7888.490
211.2382, 7862.654
211.7203, 7846.032
212.2024, 7836.886
212.6845, 7839.054
213.1666, 7840.933
213.6487, 7836.616
214.1309, 7828.455
214.6130, 7804.541
215.0951, 7755.131
215.5772, 7687.170
216.0593, 7645.870
216.5414, 7642.723
217.0236, 7648.352
217.5057, 7639.152
217.9878, 7609.074
218.4699, 7579.079
218.9520, 7549.750
219.4341, 7521.609
219.9162, 7509.803
220.3984, 7524.616
220.8805, 7543.005
221.3626, 7542.322
221.8447, 7513.713
222.3268, 7484.824
222.8089, 7458.076
223.2911, 7433.344
223.7732, 7421.954
224.2553, 7427.851
224.7374, 7442.916
225.2195, 7460.299
225.7016, 7488.817
226.1838, 7501.609
226.6659, 7486.070
227.1480, 7436.194
227.6301, 7405.277
228.1122, 7403.004
228.5943, 7411.543
229.0765, 7405.709
229.5586, 7375.303
230.0407, 7348.765
230.5228, 7336.295
231.0049, 7343.690
231.4870, 7339.838
231.9692, 7318.145
232.4513, 7289.668
232.9334, 7273.538
233.4155, 7280.120
233.8976, 7282.269
234.3797, 7267.591
234.8619, 7224.346
235.3440, 7203.703
235.8261, 7217.628
236.3082, 7248.456
236.7903, 7260.357
237.2724, 7243.474
237.7546, 7222.785
238.2367, 7207.733
238.7188, 7202.339
239.2009, 7192.882
239.6830, 7179.464
240.1651, 7161.762
240.6473, 7137.570
241.1294, 7098.541
241.6115, 7065.041
242.0936, 7047.016
242.5757, 7053.648
243.0578, 7055.985
243.5400, 7054.658
244.0221, 7048.843
244.5042, 7035.669
244.9863, 7012.798
245.4684, 6986.122
245.9505, 6957.022
246.4327, 6919.411
246.9148, 6892.999
247.3969, 6880.198
247.8790, 6879.086
248.3611, 6884.658
248.8432, 6903.815
249.3253, 6920.003
249.8075, 6922.900
250.2896, 6904.584
250.7717, 6890.665
251.2538, 6882.794
251.7359, 6880.310
252.2180, 6880.913
252.7002, 6886.413
253.1823, 6892.003
253.6644, 6894.583
254.1465, 6892.523
254.6286, 6890.908
255.1107, 6890.770
255.5929, 6891.325
256.0750, 6888.830
256.5571, 6882.683
257.0392, 6874.247
257.5213, 6862.384
258.0034, 6840.621
258.4856, 6833.505
258.9677, 6851.364
259.4498, 6887.181
259.9319, 6901.008
260.4140, 6884.772
260.8961, 6859.964
261.3783, 6841.744
261.8604, 6832.732
262.3425, 6822.668
262.8246, 6809.423
263.3067, 6794.135
263.7888, 6782.814
264.2710, 6775.953
264.7531, 6772.481
265.2352, 6772.789
265.7173, 6778.979
266.1994, 6781.358
266.6815, 6775.785
267.1637, 6764.835
267.6458, 6767.621
268.1279, 6792.109
268.6100, 6813.187
269.0921, 6805.425
269.5742, 6757.483
270.0564, 6728.213
270.5385, 6729.876
271.0206, 6757.271
271.5027, 6783.024
271.9848, 6808.991
272.4669, 6828.483
272.9491, 6833.588
273.4312, 6821.560
273.9133, 6812.373
274.3954, 6811.612
274.8775, 6816.368
275.3596, 6810.084
275.8418, 6790.091
276.3239, 6768.682
276.8060, 6756.267
277.2881, 6753.585
277.7702, 6753.997
278.2523, 6757.598
278.7345, 6763.148
279.2166, 6763.296
279.6987, 6755.748
280.1808, 6752.161
280.6629, 6766.316
281.1451, 6798.894
281.6272, 6823.900
282.1093, 6836.404
282.5914, 6837.791
283.0735, 6829.250
283.5556, 6808.481
284.0378, 6790.578
284.5199, 6792.386
285.0020, 6812.621
285.4841, 6823.146
285.9662, 6814.004
286.4483, 6795.000
286.9305, 6796.549
287.4126, 6820.445
287.8947, 6844.939
288.3768, 6851.719
288.8589, 6843.123
289.3410, 6835.357
289.8232, 6833.854
290.3053, 6833.084
290.7874, 6816.158
291.2695, 6783.040
291.7516, 6753.521
292.2337, 6746.415
292.7159, 6757.065
293.1980, 6766.893
293.6801, 6772.257
294.1622, 6774.900
294.6443, 6779.494
295.1264, 6785.521
295.6085, 6786.804
296.0906, 6768.765
296.5728, 6741.813
297.0549, 6735.966
297.5370, 6765.211
298.0191, 6805.060
298.5012, 6818.430
298.9833, 6808.421
299.4655, 6797.052
299.9476, 6805.645
300.4297, 6822.636
300.9118, 6824.562
301.3939, 6800.870
301.8760, 6772.958
302.3582, 6763.814
302.8403, 6771.741
303.3224, 6789.563
303.8045, 6825.750
304.2866, 6864.921
304.7687, 6884.044
305.2509, 6871.992
305.7330, 6854.762
306.2151, 6859.528
306.6972, 6879.290
307.1793, 6892.710
307.6614, 6876.338
308.1436, 6852.454
308.6257, 6844.404
309.1078, 6860.242
309.5899, 6880.798
310.0720, 6895.230
310.5541, 6904.331
311.0363, 6910.232
311.5184, 6910.873
312.0005, 6910.707
312.4826, 6913.054
312.9647, 6918.441
313.4468, 6926.305
313.9290, 6932.762
314.4111, 6941.771
314.8932, 6960.547
315.3753, 7008.779
315.8574, 7055.452
316.3395, 7081.672
316.8217, 7081.931
317.3038, 7075.753
317.7859, 7057.674
318.2680, 7040.077
318.7501, 7041.115
319.2322, 7082.783
319.7144, 7130.462
320.1965, 7171.219
320.6786, 7204.595
321.1607, 7228.462
321.6428, 7234.968
322.1249, 7233.880
322.6071, 7236.923
323.0892, 7247.832
323.5713, 7261.622
324.0534, 7277.989
324.5355, 7297.636
325.0176, 7314.396
325.4998, 7325.638
325.9819, 7334.435
326.4640, 7343.912
326.9461, 7350.628
327.4282, 7361.855
327.9103, 7380.776
328.3925, 7408.148
328.8746, 7431.857
329.3567, 7453.663
329.8388, 7470.736
330.3209, 7479.945
330.8030, 7469.777
331.2852, 7469.427
331.7673, 7485.823
332.2494, 7517.663
332.7315, 7546.813
333.2136, 7575.821
333.6957, 7599.597
334.1779, 7612.122
334.6600, 7602.119
335.1421, 7608.726
335.6242, 7643.110
336.1063, 7697.463
336.5884, 7733.398
337.0706, 7743.985
337.5527, 7751.049
338.0348, 7767.799
338.5169, 7795.492
338.9990, 7827.133
339.4811, 7864.097
339.9633, 7903.314
340.4454, 7936.531
340.9275, 7962.889
341.4096, 7988.196
341.8917, 8015.891
342.3738, 8045.660
342.8560, 8075.676
343.3381, 8105.478
343.8202, 8135.559
344.3023, 8167.786
344.7844, 8201.972
345.2665, 8234.333
345.7487, 8258.588
346.2308, 8278.161
346.7129, 8310.496
347.1950, 8358.326
347.6771, 8409.403
348.1592, 8448.646
348.6414, 8477.064
349.1235, 8498.519
349.6056, 8509.547
350.0877, 8515.980
350.5698, 8529.831
351.0519, 8551.706
351.5341, 8576.381
352.0162, 8594.127
352.4983, 8610.880
352.9804, 8639.022
353.4625, 8696.326
353.9446, 8758.986
354.4268, 8798.001
354.9089, 8814.521
355.3910, 8829.407
355.8731, 8850.947
356.3552, 8880.701
356.8373, 8921.575
357.3195, 8987.684
357.8015, 9050.385
358.2837, 9084.423
358.7658, 9095.919
359.2479, 9113.758
359.7300, 9160.830
360.2121, 9215.274
360.6942, 9260.865
361.1764, 9289.135
361.6585, 9316.102
362.1406, 9348.993
362.6227, 9385.625
363.1048, 9419.571
363.5869, 9444.037
364.0691, 9469.584
364.5512, 9500.487
365.0333, 9534.140
365.5154, 9580.254
365.9975, 9649.333
366.4796, 9730.154
366.9618, 9804.012
367.4439, 9869.472
367.9260, 9925.591
368.4081, 9967.540
368.8902, 9988.814
369.3723, 10021.32
369.8545, 10078.87
370.3366, 10139.04
370.8187, 10173.65
371.3008, 10148.66
371.7829, 10152.15
372.2650, 10213.07
372.7472, 10331.76
373.2293, 10417.79
373.7114, 10463.71
374.1935, 10487.51
374.6756, 10498.33
375.1577, 10487.43
375.6399, 10498.05
376.1220, 10543.63
376.6041, 10614.37
377.0862, 10670.34
377.5683, 10708.04
378.0504, 10743.89
378.5326, 10789.84
379.0147, 10846.00
379.4968, 10897.31
379.9789, 10939.15
380.4610, 10979.12
380.9431, 11033.96
381.4253, 11103.54
381.9074, 11172.12
382.3895, 11228.02
382.8716, 11275.64
383.3537, 11327.90
383.8358, 11386.41
384.3180, 11447.57
384.8001, 11518.10
385.2822, 11591.13
385.7643, 11645.39
386.2464, 11651.51
386.7285, 11642.85
387.2107, 11669.17
387.6928, 11731.99
388.1749, 11795.05
388.6570, 11829.63
389.1391, 11848.17
389.6212, 11867.25
390.1034, 11882.71
390.5855, 11909.88
391.0676, 11963.36
391.5497, 12040.33
392.0318, 12122.04
392.5139, 12214.76
392.9961, 12300.33
393.4782, 12363.87
393.9603, 12383.30
394.4424, 12409.40
394.9245, 12460.29
395.4066, 12530.01
395.8888, 12602.66
396.3709, 12674.92
396.8530, 12749.77
397.3351, 12827.33
397.8172, 12904.27
398.2993, 12992.11
398.7815, 13104.25
399.2636, 13223.21
399.7457, 13324.50
400.2278, 13372.60
400.7099, 13447.21
401.1920, 13574.28
401.6742, 13756.53
402.1563, 13920.49
402.6384, 14049.51
403.1205, 14180.17
403.6026, 14351.06
404.0847, 14578.01
404.5669, 14787.62
405.0490, 14962.18
405.5311, 15112.44
406.0132, 15281.42
406.4953, 15467.79
406.9774, 15671.77
407.4596, 15897.98
407.9417, 16146.97
408.4238, 16394.58
408.9059, 16636.55
409.3880, 16878.82
409.8701, 17125.68
410.3523, 17378.90
410.8344, 17645.36
411.3165, 17935.59
411.7986, 18245.24
412.2807, 18555.52
412.7628, 18869.11
413.2450, 19179.81
413.7271, 19480.16
414.2092, 19770.76
414.6913, 20051.09
415.1734, 20310.59
415.6555, 20565.23
416.1377, 20838.98
416.6198, 21128.93
417.1019, 21394.41
417.5840, 21606.66
418.0661, 21789.66
418.5482, 21962.91
419.0303, 22132.60
419.5125, 22294.85
419.9946, 22458.57
420.4767, 22614.57
420.9588, 22739.60
421.4409, 22840.43
421.9230, 22899.00
422.4052, 22898.08
422.8873, 22812.21
423.3694, 22741.82
423.8515, 22728.60
424.3336, 22726.89
424.8157, 22680.94
425.2979, 22550.00
425.7800, 22427.37
426.2621, 22334.19
426.7442, 22270.59
427.2263, 22187.51
427.7084, 22070.60
428.1906, 21952.28
428.6727, 21850.89
429.1548, 21763.00
429.6369, 21709.56
430.1190, 21703.89
430.6011, 21726.99
431.0833, 21719.31
431.5654, 21671.95
432.0475, 21647.53
432.5296, 21686.75
433.0117, 21783.15
433.4938, 21880.82
433.9760, 21978.30
434.4581, 22073.28
434.9402, 22152.44
435.4223, 22222.67
435.9044, 22316.29
436.3865, 22452.49
436.8687, 22614.52
437.3508, 22776.07
437.8329, 22938.01
438.3150, 23111.01
438.7971, 23290.81
439.2792, 23491.40
439.7614, 23731.69
440.2435, 24033.60
440.7256, 24348.45
441.2077, 24630.31
441.6898, 24899.90
442.1719, 25209.34
442.6541, 25596.21
443.1362, 26018.64
443.6183, 26447.12
444.1004, 26876.37
444.5825, 27337.97
445.0646, 27856.41
445.5468, 28407.73
446.0289, 28965.14
446.5110, 29477.72
446.9931, 30051.04
447.4752, 30733.75
447.9573, 31511.07
448.4395, 32248.28
448.9216, 32896.58
449.4037, 33551.65
449.8858, 34277.59
450.3679, 35093.21
450.8500, 35901.23
451.3322, 36704.33
451.8143, 37488.39
452.2964, 38262.48
452.7785, 39032.63
453.2606, 39772.07
453.7427, 40478.18
454.2249, 41146.64
454.7070, 41794.76
455.1891, 42429.45
455.6712, 43024.50
456.1533, 43558.04
456.6354, 44030.74
457.1176, 44454.68
457.5997, 44834.71
458.0818, 45161.05
458.5639, 45431.33
459.0460, 45639.84
459.5281, 45738.25
460.0103, 45652.99
460.4924, 45464.48
460.9745, 45267.12
461.4566, 45089.50
461.9387, 44832.44
462.4208, 44407.26
462.9030, 43866.21
463.3851, 43306.25
463.8672, 42749.26
464.3493, 42174.14
464.8314, 41565.09
465.3135, 40924.67
465.7957, 40286.13
466.2778, 39647.91
466.7599, 39025.51
467.2420, 38428.98
467.7241, 37869.59
468.2062, 37321.98
468.6884, 36774.76
469.1705, 36245.30
469.6526, 35768.29
470.1347, 35357.64
470.6168, 34978.95
471.0989, 34612.78
471.5811, 34260.36
472.0632, 33970.44
472.5453, 33750.18
473.0274, 33571.67
473.5095, 33409.98
473.9916, 33263.21
474.4738, 33126.38
474.9559, 32993.52
475.4380, 32873.48
475.9201, 32796.44
476.4022, 32757.30
476.8843, 32717.32
477.3665, 32635.99
477.8486, 32541.85
478.3307, 32487.81
478.8128, 32487.99
479.2949, 32485.39
479.7770, 32432.65
480.2592, 32347.69
480.7413, 32258.53
481.2234, 32154.31
481.7055, 32067.67
482.1876, 32031.01
482.6697, 32037.71
483.1518, 32019.13
483.6339, 31914.00
484.1161, 31805.03
484.5982, 31743.60
485.0803, 31779.71
485.5624, 31792.01
486.0445, 31753.41
486.5266, 31695.31
487.0088, 31673.29
487.4909, 31704.08
487.9730, 31743.48
488.4551, 31781.74
488.9372, 31818.81
489.4193, 31856.04
489.9015, 31894.19
490.3836, 31932.21
490.8657, 31969.64
491.3478, 32006.04
491.8299, 32040.49
492.3120, 32067.03
492.7942, 32101.88
493.2763, 32196.80
493.7584, 32339.05
494.2405, 32447.38
494.7226, 32456.57
495.2047, 32411.44
495.6869, 32383.23
496.1690, 32374.63
496.6511, 32360.27
497.1332, 32315.03
497.6153, 32255.31
498.0974, 32203.21
498.5796, 32197.98
499.0617, 32160.71
499.5438, 32023.24
500.0259, 31822.04
500.5080, 31654.34
500.9901, 31596.91
501.4723, 31539.08
501.9544, 31422.90
502.4365, 31215.37
502.9186, 31055.73
503.4007, 30978.59
503.8828, 30927.47
504.3650, 30847.29
504.8471, 30714.08
505.3292, 30602.69
505.8113, 30529.53
506.2934, 30483.68
506.7755, 30422.35
507.2577, 30339.79
507.7398, 30272.64
508.2219, 30255.08
508.7040, 30280.19
509.1861, 30272.18
509.6682, 30225.45
510.1504, 30174.50
510.6325, 30153.28
511.1146, 30159.81
511.5967, 30188.90
512.0788, 30256.22
512.5609, 30327.09
513.0430, 30355.86
513.5251, 30352.21
514.0073, 30354.40
514.4894, 30383.95
514.9715, 30426.51
515.4536, 30475.74
515.9357, 30534.37
516.4178, 30577.51
516.9000, 30605.33
517.3821, 30607.90
517.8642, 30575.05
518.3463, 30499.88
518.8284, 30392.09
519.3105, 30242.74
519.7927, 30059.24
520.2748, 29879.72
520.7569, 29715.27
521.2390, 29538.01
521.7211, 29330.64
522.2032, 29088.09
522.6854, 28857.30
523.1675, 28652.30
523.6496, 28432.90
524.1317, 28131.18
524.6138, 27750.75
525.0959, 27392.59
525.5781, 27087.26
526.0602, 26809.78
526.5423, 26513.94
527.0244, 26206.13
527.5065, 25893.59
527.9886, 25574.30
528.4708, 25258.17
528.9529, 24950.70
529.4350, 24655.26
529.9171, 24369.07
530.3992, 24086.78
530.8813, 23818.66
531.3635, 23572.93
531.8456, 23387.96
532.3277, 23190.43
532.8098, 22947.37
533.2919, 22671.63
533.7740, 22425.66
534.2562, 22232.33
534.7383, 22049.27
535.2204, 21859.20
535.7025, 21660.81
536.1846, 21463.67
536.6667, 21256.98
537.1489, 21064.23
537.6310, 20915.14
538.1131, 20817.16
538.5952, 20701.10
539.0773, 20546.93
539.5594, 20375.62
540.0416, 20232.54
540.5237, 20114.80
541.0058, 20002.16
541.4879, 19887.94
541.9700, 19770.12
542.4521, 19639.43
542.9343, 19495.71
543.4164, 19362.42
543.8985, 19263.84
544.3806, 19182.54
544.8627, 19098.75
545.3448, 18997.73
545.8270, 18908.85
546.3091, 18857.28
546.7912, 18826.44
547.2733, 18782.11
547.7554, 18702.62
548.2375, 18623.35
548.7197, 18555.51
549.2018, 18499.60
549.6839, 18437.24
550.1660, 18348.93
550.6481, 18279.97
551.1302, 18274.20
551.6124, 18352.58
552.0945, 18381.58
552.5766, 18341.61
553.0587, 18266.71
553.5408, 18206.30
554.0229, 18159.97
554.5051, 18128.64
554.9872, 18124.26
555.4693, 18127.36
555.9514, 18088.90
556.4335, 18015.05
556.9156, 17959.93
557.3978, 17996.93
557.8799, 18052.66
558.3620, 18036.26
558.8441, 17913.67
559.3262, 17815.27
559.8083, 17835.89
560.2905, 17906.00
560.7726, 17944.51
561.2547, 17893.58
561.7368, 17854.14
562.2189, 17855.51
562.7010, 17886.38
563.1832, 17900.75
563.6653, 17878.49
564.1474, 17870.42
564.6295, 17905.07
565.1116, 17988.30
565.5938, 18034.35
566.0759, 18031.91
566.5580, 18022.87
567.0401, 18054.95
567.5222, 18122.66
568.0043, 18180.16
568.4865, 18215.69
568.9686, 18242.82
569.4507, 18281.68
569.9328, 18328.28
570.4149, 18372.23
570.8970, 18396.16
571.3792, 18423.08
571.8613, 18475.79
572.3434, 18553.47
572.8255, 18631.61
573.3076, 18698.71
573.7897, 18762.01
574.2719, 18826.79
574.7540, 18900.08
575.2361, 18962.72
575.7182, 18997.20
576.2003, 19027.62
576.6824, 19085.24
577.1646, 19183.56
577.6467, 19280.43
578.1288, 19366.98
578.6109, 19446.54
579.0930, 19535.65
579.5751, 19636.01
580.0573, 19733.02
580.5394, 19811.22
581.0215, 19878.80
581.5036, 19965.56
581.9857, 20071.99
582.4678, 20190.39
582.9500, 20322.68
583.4321, 20459.80
583.9142, 20583.83
584.3963, 20683.89
584.8784, 20781.90
585.3605, 20883.50
585.8427, 20992.76
586.3248, 21117.00
586.8069, 21260.51
587.2890, 21417.87
587.7711, 21597.42
588.2532, 21799.49
588.7354, 21976.86
589.2175, 22110.24
589.6996, 22243.81
590.1817, 22401.68
590.6638, 22586.90
591.1459, 22785.54
591.6281, 23000.88
592.1102, 23221.53
592.5923, 23429.84
593.0744, 23628.08
593.5565, 23835.41
594.0386, 24060.07
594.5208, 24291.85
595.0029, 24521.04
595.4850, 24744.07
595.9671, 24956.97
596.4492, 25128.31
596.9313, 25308.82
597.4135, 25559.04
597.8956, 25877.84
598.3777, 26173.39
598.8598, 26396.53
599.3419, 26595.56
599.8240, 26799.88
600.3062, 27010.67
600.7883, 27237.60
601.2704, 27479.98
601.7525, 27735.04
602.2346, 28001.73
602.7167, 28286.32
603.1989, 28550.58
603.6810, 28778.29
604.1631, 28983.29
604.6452, 29216.51
605.1273, 29473.20
605.6094, 29739.08
606.0916, 30028.52
606.5737, 30312.92
607.0558, 30533.13
607.5379, 30686.04
608.0200, 30823.13
608.5021, 30972.43
608.9843, 31129.57
609.4664, 31293.50
609.9485, 31480.31
610.4306, 31643.98
610.9127, 31754.20
611.3948, 31838.36
611.8770, 31932.97
612.3591, 32073.88
612.8412, 32190.89
613.3233, 32268.68
613.8054, 32316.61
614.2875, 32374.76
614.7697, 32451.61
615.2518, 32510.62
615.7339, 32528.09
616.2160, 32507.59
616.6981, 32485.73
617.1802, 32460.90
617.6624, 32440.07
618.1445, 32442.39
618.6266, 32450.09
619.1087, 32427.89
619.5908, 32366.61
620.0729, 32282.89
620.5551, 32185.98
621.0372, 32077.60
621.5193, 31961.04
622.0014, 31825.49
622.4835, 31695.03
622.9656, 31584.44
623.4478, 31488.09
623.9299, 31376.92
624.4120, 31245.66
624.8941, 31108.26
625.3762, 30970.07
625.8583, 30830.99
626.3405, 30677.13
626.8226, 30501.32
627.3047, 30333.41
627.7868, 30201.13
628.2689, 30098.98
628.7510, 30003.90
629.2332, 29916.17
629.7153, 29818.07
630.1974, 29682.62
630.6795, 29523.57
631.1616, 29370.21
631.6437, 29244.57
632.1259, 29112.03
632.6080, 28941.00
633.0901, 28747.16
633.5722, 28569.24
634.0543, 28413.36
634.5364, 28282.65
635.0186, 28193.03
635.5006, 28143.41
635.9827, 28047.79
636.4648, 27871.91
636.9470, 27711.51
637.4291, 27634.36
637.9112, 27645.61
638.3933, 27638.57
638.8754, 27608.66
639.3575, 27564.00
639.8397, 27495.20
640.3218, 27416.74
640.8039, 27374.23
641.2860, 27384.25
641.7681, 27418.45
642.2502, 27454.48
642.7324, 27494.99
643.2145, 27544.63
643.6966, 27624.89
644.1787, 27695.10
644.6608, 27733.40
645.1429, 27744.11
645.6251, 27766.26
646.1072, 27811.98
646.5893, 27857.75
647.0714, 27888.99
647.5535, 27902.95
648.0356, 27957.38
648.5178, 28063.46
648.9999, 28174.23
649.4820, 28239.27
649.9641, 28269.09
650.4462, 28326.29
650.9283, 28424.70
651.4105, 28521.83
651.8926, 28565.32
652.3747, 28576.02
652.8568, 28590.19
653.3389, 28612.09
653.8210, 28650.45
654.3032, 28721.65
654.7853, 28812.88
655.2674, 28892.47
655.7495, 28961.09
656.2316, 29006.82
656.7137, 29022.53
657.1959, 29010.40
657.6780, 28993.60
658.1601, 28967.65
658.6422, 28948.07
659.1243, 28947.30
659.6064, 28963.87
660.0886, 28976.15
660.5707, 28984.71
661.0528, 28982.88
661.5349, 28959.98
662.0170, 28922.90
662.4991, 28882.66
662.9813, 28839.41
663.4634, 28801.14
663.9455, 28783.30
664.4276, 28770.51
664.9097, 28742.04
665.3918, 28672.13
665.8740, 28608.18
666.3561, 28560.90
666.8382, 28526.26
667.3203, 28499.62
667.8024, 28490.37
668.2845, 28466.98
668.7667, 28413.26
669.2488, 28337.48
669.7309, 28284.25
670.2130, 28254.82
670.6951, 28239.92
671.1772, 28247.48
671.6594, 28262.49
672.1415, 28249.55
672.6236, 28206.63
673.1057, 28166.13
673.5878, 28156.69
674.0699, 28157.38
674.5521, 28146.96
675.0342, 28114.82
675.5163, 28085.44
675.9984, 28054.62
676.4805, 28033.34
676.9626, 28036.71
677.4448, 28084.44
677.9269, 28110.37
678.4090, 28096.75
678.8911, 28065.29
679.3732, 28069.39
679.8553, 28109.40
680.3375, 28134.54
680.8196, 28122.39
681.3017, 28086.74
681.7838, 28043.75
682.2659, 27997.21
682.7480, 27963.32
683.2302, 27948.06
683.7123, 27952.04
684.1944, 27984.56
684.6765, 28046.73
685.1586, 28096.98
685.6407, 28121.47
686.1229, 28133.63
686.6050, 28138.23
687.0871, 28126.05
687.5692, 28137.33
688.0513, 28176.89
688.5334, 28230.77
689.0156, 28293.84
689.4977, 28363.86
689.9798, 28399.65
690.4619, 28384.53
690.9440, 28364.70
691.4261, 28417.34
691.9083, 28508.33
692.3904, 28560.42
692.8725, 28503.95
693.3546, 28450.80
693.8367, 28477.07
694.3188, 28555.96
694.8010, 28620.43
695.2831, 28628.78
695.7652, 28651.29
696.2473, 28717.83
696.7294, 28818.11
697.2115, 28873.04
697.6937, 28868.41
698.1758, 28861.33
698.6579, 28886.08
699.1400, 28934.91
699.6221, 28954.35
700.1042, 28943.63
700.5864, 28937.21
701.0685, 28964.89
701.5506, 29012.69
702.0327, 29062.32
702.5148, 29111.72
702.9969, 29160.81
703.4791, 29205.92
703.9612, 29253.03
704.4433, 29308.00
704.9254, 29392.82
705.4075, 29453.22
705.8896, 29478.91
706.3718, 29487.89
706.8539, 29500.12
707.3360, 29514.05
707.8181, 29547.89
708.3002, 29614.01
708.7823, 29687.84
709.2645, 29705.78
709.7466, 29686.08
710.2287, 29700.62
710.7108, 29814.00
711.1929, 29946.66
711.6750, 30029.27
712.1572, 30073.80
712.6393, 30121.13
713.1214, 30193.10
713.6035, 30264.55
714.0856, 30324.37
714.5677, 30373.60
715.0499, 30420.79
715.5320, 30461.88
716.0141, 30511.10
716.4962, 30579.47
716.9783, 30667.50
717.4604, 30747.76
717.9426, 30821.38
718.4247, 30893.21
718.9068, 30956.94
719.3889, 31025.98
719.8710, 31131.40
720.3531, 31282.45
720.8353, 31430.32
721.3174, 31528.72
721.7995, 31613.53
722.2816, 31720.42
722.7637, 31894.50
723.2458, 32024.87
723.7280, 32067.86
724.2101, 32089.33
724.6922, 32191.02
725.1743, 32396.77
725.6564, 32538.99
726.1385, 32569.72
726.6207, 32557.48
727.1028, 32642.88
727.5849, 32800.01
728.0670, 32925.82
728.5491, 32958.36
729.0313, 32960.72
729.5134, 32971.79
729.9955, 32996.09
730.4776, 33045.68
730.9597, 33155.17
731.4418, 33261.14
731.9240, 33339.45
732.4061, 33393.63
732.8882, 33442.41
733.3703, 33481.33
733.8524, 33524.82
734.3345, 33581.68
734.8167, 33649.19
735.2988, 33712.59
735.7809, 33771.49
736.2630, 33823.56
736.7451, 33865.09
737.2272, 33899.07
737.7094, 33925.94
738.1915, 33945.55
738.6736, 33972.94
739.1557, 34040.26
739.6378, 34102.92
740.1199, 34124.73
740.6021, 34073.60
741.0842, 34051.39
741.5663, 34067.35
742.0484, 34102.80
742.5305, 34142.70
743.0126, 34187.80
743.4948, 34232.36
743.9769, 34276.63
744.4590, 34317.58
744.9411, 34346.97
745.4232, 34370.07
745.9053, 34400.79
746.3875, 34449.44
746.8696, 34490.72
747.3517, 34502.69
747.8338, 34496.16
748.3159, 34488.63
748.7980, 34486.25
749.2802, 34476.75
749.7623, 34449.91
750.2444, 34417.84
750.7265, 34414.99
751.2086, 34450.45
751.6907, 34465.46
752.1729, 34437.84
752.6550, 34385.62
753.1371, 34350.62
753.6192, 34327.18
754.1013, 34287.05
754.5834, 34186.04
755.0656, 34088.38
755.5477, 34048.57
756.0298, 34059.35
756.5119, 34074.81
756.9940, 34101.82
757.4761, 34110.96
757.9583, 34078.60
758.4403, 34008.28
758.9224, 33993.94
759.4045, 34049.40
759.8867, 34111.06
760.3688, 34135.83
760.8509, 34135.30
761.3330, 34157.35
761.8151, 34201.84
762.2972, 34264.63
762.7794, 34370.58
763.2615, 34475.89
763.7436, 34530.00
764.2257, 34521.13
764.7078, 34521.71
765.1899, 34558.07
765.6721, 34606.98
766.1542, 34650.75
766.6363, 34680.50
767.1184, 34745.80
767.6005, 34858.52
768.0826, 34974.41
768.5648, 35039.64
769.0469, 35066.25
769.5290, 35115.41
770.0111, 35197.44
770.4932, 35285.12
770.9753, 35344.77
771.4575, 35398.47
771.9396, 35474.14
772.4217, 35588.73
772.9038, 35704.30
773.3859, 35796.16
773.8680, 35892.36
774.3502, 36026.36
774.8323, 36212.37
775.3144, 36392.12
775.7965, 36564.42
776.2786, 36718.96
776.7607, 36832.16
777.2429, 36910.05
777.7250, 36982.96
778.2071, 37047.89
778.6892, 37132.23
779.1713, 37277.91
779.6534, 37458.49
780.1356, 37629.39
780.6177, 37806.86
781.0998, 37938.27
781.5819, 37974.83
782.0640, 37968.59
782.5461, 38019.77
783.0283, 38152.32
783.5104, 38265.46
783.9925, 38327.54
784.4746, 38369.68
784.9567, 38472.53
785.4388, 38625.52
785.9210, 38763.72
786.4031, 38838.03
786.8852, 38905.78
787.3673, 39026.88
787.8494, 39182.61
788.3315, 39317.16
788.8137, 39391.27
789.2958, 39464.41
789.7779, 39551.81
790.2600, 39649.45
790.7421, 39743.84
791.2242, 39832.91
791.7064, 39923.32
792.1885, 40026.88
792.6706, 40127.38
793.1527, 40177.25
793.6348, 40182.29
794.1169, 40182.76
794.5991, 40216.16
795.0812, 40243.64
795.5633, 40233.44
796.0454, 40189.21
796.5275, 40140.13
797.0096, 40103.77
797.4918, 40053.25
797.9739, 39969.64
798.4560, 39858.74
798.9381, 39812.82
799.4202, 39846.12
799.9023, 39858.98
800.3845, 39782.64
800.8666, 39644.70
801.3487, 39502.48
801.8308, 39358.41
802.3129, 39232.72
802.7950, 39158.69
803.2772, 39090.81
803.7593, 39007.11
804.2414, 38906.08
804.7235, 38759.31
805.2056, 38537.73
805.6877, 38308.96
806.1699, 38100.08
806.6520, 37911.06
807.1341, 37750.16
807.6162, 37621.57
808.0983, 37470.75
808.5804, 37242.82
809.0626, 36973.62
809.5447, 36713.59
810.0268, 36465.05
810.5089, 36218.07
810.9910, 35982.74
811.4731, 35733.78
811.9553, 35443.93
812.4374, 35096.46
812.9195, 34798.07
813.4016, 34563.02
813.8837, 34341.27
814.3658, 34103.74
814.8480, 33852.77
815.3301, 33611.44
815.8122, 33381.05
816.2943, 33130.42
816.7764, 32818.39
817.2585, 32485.64
817.7407, 32171.15
818.2228, 31882.49
818.7049, 31625.36
819.1870, 31427.50
819.6691, 31242.14
820.1512, 31044.02
820.6334, 30832.94
821.1155, 30613.52
821.5976, 30385.26
822.0797, 30152.10
822.5618, 29909.28
823.0439, 29663.73
823.5261, 29436.34
824.0082, 29228.04
824.4903, 29015.92
824.9724, 28782.48
825.4545, 28535.63
825.9366, 28270.69
826.4188, 27980.81
826.9009, 27721.83
827.3830, 27523.72
827.8651, 27328.06
828.3472, 27105.04
828.8293, 26850.66
829.3115, 26593.06
829.7936, 26332.63
830.2757, 26076.72
830.7578, 25842.03
831.2399, 25614.40
831.7220, 25368.81
832.2042, 25105.39
832.6863, 24856.14
833.1684, 24661.71
833.6505, 24471.82
834.1326, 24243.61
834.6147, 23966.32
835.0969, 23725.77
835.5790, 23528.53
836.0611, 23348.02
836.5432, 23168.73
837.0253, 22989.33
837.5074, 22799.10
837.9896, 22596.63
838.4717, 22398.28
838.9538, 22215.36
839.4359, 22042.58
839.9180, 21874.94
840.4001, 21712.88
840.8823, 21546.78
841.3644, 21366.47
841.8465, 21189.82
842.3286, 21026.40
842.8107, 20876.23
843.2928, 20716.94
843.7750, 20547.75
844.2571, 20384.11
844.7392, 20242.00
845.2213, 20111.74
845.7034, 19982.22
846.1855, 19852.06
846.6677, 19706.94
847.1498, 19516.60
847.6319, 19331.76
848.1140, 19195.71
848.5961, 19113.71
849.0782, 18980.06
849.5604, 18767.51
850.0425, 18574.87
850.5246, 18470.26
851.0067, 18431.87
851.4888, 18351.84
851.9709, 18232.94
852.4531, 18120.24
852.9352, 18053.39
853.4173, 17995.18
853.8994, 17906.99
854.3815, 17790.55
854.8636, 17695.57
855.3458, 17652.25
855.8279, 17604.58
856.3100, 17534.94
856.7921, 17445.20
857.2742, 17345.39
857.7563, 17235.55
858.2385, 17138.17
858.7206, 17080.96
859.2027, 17037.14
859.6848, 16966.19
860.1669, 16873.83
860.6490, 16779.89
861.1312, 16687.22
861.6133, 16602.04
862.0954, 16532.50
862.5775, 16474.04
863.0596, 16407.27
863.5417, 16327.90
864.0239, 16258.56
864.5060, 16213.14
864.9881, 16176.26
865.4702, 16104.85
865.9523, 16008.76
866.4344, 15919.94
866.9166, 15860.58
867.3987, 15808.49
867.8808, 15750.96
868.3629, 15690.76
868.8450, 15635.76
869.3271, 15588.79
869.8093, 15541.48
870.2914, 15493.21
870.7735, 15443.35
871.2556, 15394.60
871.7377, 15345.67
872.2198, 15284.97
872.7020, 15200.58
873.1841, 15116.74
873.6662, 15063.70
874.1483, 15026.89
874.6304, 14983.20
875.1125, 14931.76
875.5947, 14863.93
876.0768, 14771.69
876.5589, 14669.57
877.0410, 14577.46
877.5231, 14496.68
878.0052, 14418.04
878.4874, 14341.11
878.9695, 14262.41
879.4516, 14179.45
879.9337, 14091.17
880.4158, 13994.93
880.8979, 13885.94
881.3801, 13778.37
881.8622, 13672.71
882.3442, 13572.38
882.8264, 13481.62
883.3085, 13404.63
883.7906, 13321.34
884.2727, 13230.96
884.7548, 13134.71
885.2369, 13029.36
885.7191, 12920.90
886.2012, 12822.46
886.6833, 12736.43
887.1654, 12661.94
887.6475, 12615.84
888.1296, 12569.02
888.6118, 12492.47
889.0939, 12375.78
889.5760, 12295.71
890.0581, 12266.61
890.5402, 12240.02
891.0223, 12178.15
891.5045, 12091.55
891.9866, 12027.92
892.4687, 11987.24
892.9508, 11947.10
893.4329, 11878.48
893.9150, 11817.05
894.3972, 11795.06
894.8793, 11811.93
895.3614, 11814.85
895.8435, 11794.43
896.3256, 11769.67
896.8077, 11749.08
897.2899, 11728.65
897.7720, 11686.15
898.2541, 11624.78
898.7362, 11572.11
899.2183, 11556.40
899.7004, 11544.61
900.1826, 11507.30
900.6647, 11450.78
901.1468, 11392.93
901.6289, 11342.97
902.1110, 11286.26
902.5931, 11224.82
903.0753, 11153.03
903.5574, 11049.97
904.0395, 10919.19
904.5216, 10811.03
905.0037, 10748.01
905.4858, 10693.89
905.9680, 10610.95
906.4501, 10508.92
906.9322, 10401.78
907.4143, 10283.16
907.8964, 10176.40
908.3785, 10092.08
908.8607, 10013.87
909.3428, 9921.501
909.8249, 9813.404
910.3070, 9721.864
910.7891, 9650.547
911.2712, 9591.301
911.7534, 9550.369
912.2355, 9508.346
912.7176, 9427.747
913.1997, 9292.517
913.6818, 9192.780
914.1639, 9196.977
914.6461, 9209.267
915.1282, 9174.978
915.6103, 9091.689
916.0924, 9019.770
916.5745, 8960.409
917.0566, 8903.144
917.5388, 8840.693
918.0209, 8776.886
918.5030, 8719.587
918.9851, 8668.050
919.4672, 8612.102
919.9493, 8523.386
920.4315, 8456.739
920.9136, 8446.507
921.3957, 8474.832
921.8778, 8462.457
922.3599, 8403.401
922.8420, 8346.716
923.3242, 8309.802
923.8063, 8282.957
924.2884, 8253.232
924.7705, 8221.186
925.2526, 8187.889
925.7347, 8168.685
926.2169, 8129.990
926.6990, 8038.176
927.1811, 7933.503
927.6632, 7872.772
928.1453, 7866.480
928.6274, 7848.322
929.1096, 7808.829
929.5917, 7761.923
930.0738, 7724.862
930.5559, 7692.377
931.0380, 7654.458
931.5201, 7608.866
932.0023, 7561.982
932.4844, 7512.296
932.9665, 7465.611
933.4486, 7427.001
933.9307, 7398.964
934.4128, 7356.731
934.8950, 7297.643
935.3771, 7241.830
935.8592, 7209.011
936.3413, 7187.638
936.8234, 7157.558
937.3055, 7119.552
937.7877, 7084.922
938.2698, 7061.920
938.7519, 7040.055
939.2340, 7015.302
939.7161, 6988.172
940.1982, 6960.383
940.6804, 6931.805
941.1625, 6901.620
941.6446, 6869.148
942.1267, 6836.022
942.6088, 6804.992
943.0909, 6775.783
943.5731, 6747.849
944.0552, 6719.090
944.5373, 6693.922
945.0194, 6680.911
945.5015, 6667.542
945.9836, 6636.978
946.4658, 6586.660
946.9479, 6542.932
947.4300, 6508.481
947.9121, 6478.358
948.3942, 6448.707
948.8763, 6419.364
949.3585, 6389.320
949.8406, 6358.272
950.3227, 6328.666
950.8048, 6305.928
951.2869, 6280.197
951.7690, 6245.072
952.2512, 6200.995
952.7333, 6164.435
953.2154, 6135.927
953.6975, 6105.287
954.1796, 6059.064
954.6617, 6012.311
955.1439, 5981.750
955.6260, 5966.010
956.1081, 5958.233
956.5902, 5971.114
957.0723, 5973.101
957.5544, 5956.730
958.0366, 5926.709
958.5187, 5890.962
959.0008, 5849.910
959.4829, 5812.057
959.9650, 5779.930
960.4471, 5750.396
960.9293, 5718.576
961.4114, 5687.438
961.8935, 5660.481
962.3756, 5638.891
962.8577, 5622.170
963.3398, 5613.825
963.8220, 5604.616
964.3041, 5585.602
964.7862, 5557.931
965.2683, 5533.091
965.7504, 5511.176
966.2325, 5493.056
966.7147, 5482.369
967.1968, 5472.789
967.6789, 5458.715
968.1610, 5440.236
968.6431, 5425.775
969.1252, 5424.759
969.6074, 5406.304
970.0895, 5350.899
970.5716, 5282.288
971.0537, 5268.740
971.5358, 5296.319
972.0179, 5312.930
972.5001, 5296.625
972.9822, 5268.628
973.4643, 5229.870
973.9464, 5191.291
974.4285, 5170.939
974.9106, 5182.486
975.3928, 5170.663
975.8749, 5126.899
976.3570, 5079.269
976.8391, 5055.313
977.3212, 5049.165
977.8033, 5054.155
978.2855, 5069.353
978.7676, 5071.328
979.2497, 5031.905
979.7318, 4991.729
980.2139, 4975.697
980.6960, 4980.195
981.1782, 4966.962
981.6603, 4933.506
982.1424, 4904.618
982.6245, 4894.884
983.1066, 4891.770
983.5887, 4878.703
984.0709, 4858.097
984.5530, 4835.165
985.0351, 4806.570
985.5172, 4783.312
985.9993, 4770.458
986.4814, 4760.381
986.9636, 4741.705
987.4457, 4714.919
987.9278, 4693.895
988.4099, 4679.937
988.8920, 4673.761
989.3741, 4682.097
989.8563, 4694.454
990.3384, 4703.854
990.8205, 4710.503
991.3026, 4694.613
991.7847, 4638.929
992.2668, 4592.555
992.7490, 4580.432
993.2311, 4593.126
993.7132, 4604.272
994.1953, 4611.365
994.6774, 4603.417
995.1595, 4559.641
995.6417, 4515.718
996.1238, 4493.217
996.6059, 4483.418
997.0880, 4470.142
997.5701, 4451.684
998.0522, 4435.275
998.5344, 4422.569
999.0165, 4408.543
999.4986, 4383.330
999.9807, 4353.546
1000.463, 4335.003
1000.945, 4330.769
1001.427, 4319.047
1001.909, 4274.437
1002.391, 4237.028
1002.873, 4232.983
1003.356, 4256.772
1003.838, 4248.708
1004.320, 4208.175
1004.802, 4173.740
1005.284, 4171.109
1005.766, 4175.710
1006.248, 4156.192
1006.730, 4124.474
1007.212, 4104.927
1007.695, 4116.877
1008.177, 4122.305
1008.659, 4118.106
1009.141, 4106.924
1009.623, 4086.772
1010.105, 4061.477
1010.587, 4051.145
1011.069, 4058.457
1011.551, 4066.469
1012.034, 4066.358
1012.516, 4060.398
1012.998, 4051.018
1013.480, 4038.164
1013.962, 4013.660
1014.444, 3973.139
1014.926, 3939.542
1015.408, 3925.780
1015.891, 3920.159
1016.373, 3900.348
1016.855, 3872.555
1017.337, 3850.153
1017.819, 3837.193
1018.301, 3832.309
1018.783, 3844.074
1019.265, 3856.019
1019.747, 3847.180
1020.230, 3817.447
1020.712, 3808.759
1021.194, 3824.293
1021.676, 3838.496
1022.158, 3829.154
1022.640, 3809.744
1023.122, 3787.359
1023.604, 3763.673
1024.087, 3756.533
1024.569, 3780.414
1025.051, 3788.782
1025.533, 3763.415
1026.015, 3720.378
1026.497, 3689.381
1026.979, 3669.649
1027.461, 3660.926
1027.943, 3670.711
1028.426, 3674.029
1028.908, 3651.770
1029.390, 3623.819
1029.872, 3609.245
1030.354, 3611.645
1030.836, 3603.169
1031.318, 3582.771
1031.800, 3564.490
1032.282, 3563.586
1032.765, 3567.431
1033.247, 3561.414
1033.729, 3546.808
1034.211, 3532.127
1034.693, 3517.113
1035.175, 3505.948
1035.657, 3500.798
1036.139, 3497.890
1036.622, 3490.709
1037.104, 3479.825
1037.586, 3466.115
1038.068, 3448.790
1038.550, 3434.099
1039.032, 3429.275
1039.514, 3426.010
1039.996, 3416.418
1040.479, 3399.585
1040.961, 3392.014
1041.443, 3394.756
1041.925, 3398.648
1042.407, 3399.727
1042.889, 3398.030
1043.371, 3392.086
1043.853, 3383.475
1044.335, 3375.877
1044.818, 3376.053
1045.300, 3368.040
1045.782, 3343.402
1046.264, 3319.226
1046.746, 3322.662
1047.228, 3346.150
1047.710, 3349.527
1048.192, 3328.339
1048.674, 3305.006
1049.157, 3296.617
1049.639, 3289.219
1050.121, 3269.850
1050.603, 3241.504
1051.085, 3227.670
1051.567, 3230.605
1052.049, 3232.901
1052.531, 3228.209
1053.014, 3221.380
1053.496, 3223.425
1053.978, 3226.571
1054.460, 3216.902
1054.942, 3179.136
1055.424, 3154.737
1055.906, 3152.258
1056.388, 3155.353
1056.870, 3150.956
1057.353, 3141.150
1057.835, 3139.206
1058.317, 3143.832
1058.799, 3144.642
1059.281, 3132.045
1059.763, 3117.711
1060.245, 3106.155
1060.727, 3097.483
1061.209, 3092.885
1061.692, 3093.352
1062.174, 3088.690
1062.656, 3075.867
1063.138, 3064.931
1063.620, 3072.855
1064.102, 3085.659
1064.584, 3085.135
1065.066, 3067.831
1065.549, 3051.329
1066.031, 3037.091
1066.513, 3024.807
1066.995, 3014.058
1067.477, 3005.404
1067.959, 3001.707
1068.441, 3001.625
1068.923, 3001.003
1069.405, 2998.959
1069.888, 2994.810
1070.370, 2985.881
1070.852, 2976.313
1071.334, 2969.624
1071.816, 2965.725
1072.298, 2966.792
1072.780, 2973.017
1073.262, 2975.638
1073.745, 2963.094
1074.227, 2948.635
1074.709, 2946.086
1075.191, 2952.141
1075.673, 2950.976
1076.155, 2940.394
1076.637, 2925.939
1077.119, 2907.168
1077.601, 2888.637
1078.083, 2872.811
1078.566, 2862.754
1079.048, 2868.873
1079.530, 2895.704
1080.012, 2909.934
1080.494, 2887.299
1080.976, 2863.740
1081.458, 2853.374
1081.940, 2853.119
1082.423, 2849.810
1082.905, 2843.962
1083.387, 2839.215
1083.869, 2839.747
1084.351, 2837.004
1084.833, 2820.769
1085.315, 2801.304
1085.797, 2790.442
1086.280, 2789.855
1086.762, 2792.169
1087.244, 2797.736
1087.726, 2803.193
1088.208, 2812.072
1088.690, 2815.026
1089.172, 2794.582
1089.654, 2757.657
1090.136, 2730.892
1090.619, 2718.396
1091.101, 2720.363
1091.583, 2743.791
1092.065, 2767.459
1092.547, 2757.992
1093.029, 2727.013
1093.511, 2700.614
1093.993, 2682.453
1094.475, 2671.048
1094.958, 2668.208
1095.440, 2669.938
1095.922, 2676.816
1096.404, 2686.075
1096.886, 2685.065
1097.368, 2675.170
1097.850, 2668.608
1098.332, 2669.822
1098.815, 2673.795
1099.297, 2682.344
1099.779, 2688.075
1100.261, 2681.871
1100.743, 2661.244
1101.225, 2644.206
1101.707, 2630.393
1102.189, 2623.481
1102.672, 2633.659
1103.154, 2646.226
1103.636, 2641.577
1104.118, 2625.515
1104.600, 2611.342
1105.082, 2599.099
1105.564, 2595.667
1106.046, 2604.811
1106.528, 2614.949
1107.010, 2611.031
1107.493, 2599.540
1107.975, 2594.959
1108.457, 2597.852
1108.939, 2602.757
1109.421, 2611.957
1109.903, 2617.003
1110.385, 2614.975
1110.867, 2607.881
1111.350, 2597.756
1111.832, 2585.733
1112.314, 2580.052
1112.796, 2582.997
1113.278, 2587.586
1113.760, 2592.961
1114.242, 2594.796
1114.724, 2586.781
1115.207, 2570.633
1115.689, 2572.664
1116.171, 2593.652
1116.653, 2599.700
1117.135, 2567.975
1117.617, 2532.131
1118.099, 2527.612
1118.581, 2538.379
1119.063, 2542.297
1119.546, 2532.515
1120.028, 2531.064
1120.510, 2541.267
1120.992, 2545.772
1121.474, 2525.047
1121.956, 2495.529
1122.438, 2481.863
1122.920, 2481.306
1123.402, 2485.203
1123.885, 2497.256
1124.367, 2504.649
1124.849, 2506.505
1125.331, 2503.177
1125.813, 2493.463
1126.295, 2479.140
1126.777, 2461.972
1127.259, 2443.197
1127.742, 2433.340
1128.224, 2448.930
1128.706, 2459.826
1129.188, 2453.272
1129.670, 2438.507
1130.152, 2437.441
1130.634, 2447.454
1131.116, 2452.195
1131.599, 2448.158
1132.081, 2441.751
1132.563, 2433.015
1133.045, 2427.406
1133.527, 2431.846
1134.009, 2443.590
1134.491, 2440.336
1134.973, 2422.187
1135.455, 2404.805
1135.938, 2393.489
1136.420, 2386.041
1136.902, 2378.350
1137.384, 2374.675
1137.866, 2383.558
1138.348, 2410.238
1138.830, 2415.918
1139.312, 2397.144
1139.794, 2380.782
1140.277, 2386.674
1140.759, 2399.877
1141.241, 2407.620
1141.723, 2407.168
1142.205, 2391.650
1142.687, 2337.634
1143.169, 2314.541
1143.651, 2331.484
1144.134, 2357.729
1144.616, 2370.485
1145.098, 2371.351
1145.580, 2358.258
1146.062, 2334.709
1146.544, 2315.960
1147.026, 2308.393
1147.508, 2304.303
1147.990, 2303.073
1148.473, 2304.019
1148.955, 2308.688
1149.437, 2314.335
1149.919, 2310.705
1150.401, 2297.176
1150.883, 2290.763
1151.365, 2312.960
1151.847, 2326.104
1152.329, 2313.997
1152.812, 2288.022
1153.294, 2275.785
1153.776, 2274.393
1154.258, 2271.103
1154.740, 2262.868
1155.222, 2255.132
1155.704, 2250.888
1156.186, 2248.357
1156.669, 2247.121
1157.151, 2246.589
1157.633, 2242.191
1158.115, 2234.518
1158.597, 2230.087
1159.079, 2233.376
1159.561, 2235.091
1160.043, 2224.180
1160.526, 2211.835
1161.008, 2209.900
1161.490, 2219.039
1161.972, 2222.634
1162.454, 2220.649
1162.936, 2209.647
1163.418, 2175.003
1163.900, 2146.256
1164.382, 2154.754
1164.865, 2182.004
1165.347, 2200.619
1165.829, 2208.236
1166.311, 2211.683
1166.793, 2210.975
1167.275, 2206.899
1167.757, 2197.058
1168.239, 2186.764
1168.721, 2183.092
1169.204, 2183.338
1169.686, 2179.944
1170.168, 2171.542
1170.650, 2161.098
1171.132, 2147.249
1171.614, 2138.151
1172.096, 2146.751
1172.578, 2160.755
1173.061, 2163.127
1173.543, 2155.296
1174.025, 2151.550
1174.507, 2157.667
1174.989, 2157.273
1175.471, 2146.315
1175.953, 2132.571
1176.435, 2127.761
1176.917, 2125.371
1177.400, 2112.626
1177.882, 2088.832
1178.364, 2074.101
1178.846, 2075.246
1179.328, 2078.015
1179.810, 2079.338
1180.292, 2079.769
1180.774, 2081.074
1181.256, 2081.888
1181.739, 2079.556
1182.221, 2073.566
1182.703, 2064.999
1183.185, 2051.172
1183.667, 2039.655
1184.149, 2031.918
1184.631, 2029.713
1185.113, 2042.730
1185.596, 2063.648
1186.078, 2074.098
1186.560, 2066.243
1187.042, 2060.043
1187.524, 2063.333
1188.006, 2063.735
1188.488, 2052.012
1188.970, 2034.697
1189.453, 2034.525
1189.935, 2046.056
1190.417, 2054.066
1190.899, 2053.346
1191.381, 2048.376
1191.863, 2036.733
1192.345, 2026.196
1192.827, 2023.277
1193.309, 2025.495
1193.792, 2020.254
1194.274, 2010.350
1194.756, 2006.194
1195.238, 2021.208
1195.720, 2029.937
1196.202, 2024.076
1196.684, 2012.884
1197.166, 2003.027
1197.648, 1994.524
1198.130, 1987.418
1198.613, 1981.641
1199.095, 1976.879
1199.577, 1975.222
1200.059, 1971.389
1200.541, 1961.490
1201.023, 1951.619
1201.505, 1949.285
1201.987, 1953.145
1202.470, 1955.822
1202.952, 1957.228
1203.434, 1959.762
1203.916, 1971.817
1204.398, 1975.461
1204.880, 1958.742
1205.362, 1937.685
1205.844, 1936.885
1206.327, 1952.253
1206.809, 1962.877
1207.291, 1966.962
1207.773, 1968.624
1208.255, 1969.686
1208.737, 1968.936
1209.219, 1964.705
1209.701, 1959.783
1210.183, 1962.602
1210.666, 1969.911
1211.148, 1962.059
1211.630, 1936.377
1212.112, 1915.583
1212.594, 1917.698
1213.076, 1920.283
1213.558, 1912.526
1214.040, 1900.754
1214.522, 1900.714
1215.005, 1909.622
1215.487, 1915.195
1215.969, 1915.230
1216.451, 1913.136
1216.933, 1904.557
1217.415, 1902.108
1217.897, 1914.944
1218.379, 1934.482
1218.862, 1935.481
1219.344, 1922.222
1219.826, 1910.162
1220.308, 1902.024
1220.790, 1899.698
1221.272, 1913.511
1221.754, 1922.139
1222.236, 1913.122
1222.719, 1894.096
1223.201, 1889.397
1223.683, 1895.029
1224.165, 1896.410
1224.647, 1888.488
1225.129, 1881.282
1225.611, 1875.671
1226.093, 1876.459
1226.575, 1889.853
1227.057, 1908.869
1227.540, 1908.688
1228.022, 1894.513
1228.504, 1882.895
1228.986, 1879.679
1229.468, 1876.532
1229.950, 1869.011
1230.432, 1863.484
1230.914, 1864.286
1231.397, 1868.858
1231.879, 1869.652
1232.361, 1867.160
1232.843, 1862.319
1233.325, 1853.018
1233.807, 1847.880
1234.289, 1851.138
1234.771, 1854.746
1235.254, 1854.565
1235.736, 1851.104
1236.218, 1840.924
1236.700, 1829.111
1237.182, 1829.371
1237.664, 1857.680
1238.146, 1873.693
1238.628, 1867.897
1239.110, 1860.393
1239.593, 1867.940
1240.075, 1880.951
1240.557, 1871.432
1241.039, 1848.317
1241.521, 1833.542
1242.003, 1844.679
1242.485, 1842.137
1242.967, 1816.566
1243.449, 1796.168
1243.932, 1806.945
1244.414, 1832.207
1244.896, 1841.574
1245.378, 1840.084
1245.860, 1839.492
1246.342, 1848.167
1246.824, 1847.068
1247.306, 1832.876
1247.789, 1820.122
1248.271, 1821.048
1248.753, 1829.165
1249.235, 1840.492
1249.717, 1850.756
1250.199, 1849.269
1250.681, 1826.705
1251.163, 1812.564
1251.646, 1808.448
1252.128, 1807.259
1252.610, 1801.563
1253.092, 1797.817
1253.574, 1808.288
1254.056, 1824.949
1254.538, 1829.740
1255.020, 1819.141
1255.502, 1806.527
1255.984, 1791.697
1256.467, 1782.723
1256.949, 1794.432
1257.431, 1806.071
1257.913, 1792.604
1258.395, 1769.141
1258.877, 1767.773
1259.359, 1793.590
1259.841, 1801.487
1260.324, 1789.697
1260.806, 1775.575
1261.288, 1767.898
1261.770, 1765.495
1262.252, 1772.472
1262.734, 1781.694
1263.216, 1782.281
1263.698, 1774.270
1264.181, 1767.994
1264.663, 1763.861
1265.145, 1760.911
1265.627, 1758.128
1266.109, 1756.950
1266.591, 1759.225
1267.073, 1762.441
1267.555, 1762.949
1268.037, 1761.572
1268.520, 1765.631
1269.002, 1774.507
1269.484, 1780.732
1269.966, 1780.198
1270.448, 1776.269
1270.930, 1767.626
1271.412, 1759.570
1271.894, 1757.745
1272.376, 1761.340
1272.859, 1771.454
1273.341, 1785.627
1273.823, 1791.732
1274.305, 1777.803
1274.787, 1766.009
1275.269, 1759.483
1275.751, 1754.866
1276.233, 1747.307
1276.716, 1739.974
1277.198, 1739.476
1277.680, 1744.723
1278.162, 1750.853
1278.644, 1761.199
1279.126, 1761.839
1279.608, 1750.052
1280.090, 1735.085
1280.573, 1721.244
1281.055, 1712.268
1281.537, 1716.650
1282.019, 1729.426
1282.501, 1734.069
1282.983, 1726.203
1283.465, 1727.040
1283.947, 1739.114
1284.429, 1748.275
1284.911, 1738.819
1285.394, 1726.169
1285.876, 1723.229
1286.358, 1725.982
1286.840, 1725.390
1287.322, 1721.184
1287.804, 1717.601
1288.286, 1714.945
1288.768, 1714.843
1289.251, 1721.270
1289.733, 1727.203
1290.215, 1729.969
1290.697, 1729.559
1291.179, 1724.109
1291.661, 1714.814
1292.143, 1709.645
1292.625, 1708.625
1293.108, 1709.225
1293.590, 1713.474
1294.072, 1714.193
1294.554, 1708.798
1295.036, 1702.207
1295.518, 1701.590
1296.000, 1703.391
1296.482, 1695.173
1296.964, 1680.043
1297.447, 1671.484
##END=



