##NAMES=Columbite-(Fe)
##RRUFFID=R060001
##IDEAL CHEMISTRY=Fe^2+^Nb^5+^_2_O_6_
##LOCALITY=Gypsy mine, Minas Gerais, Brazil
##OWNER=RRUFF
##SOURCE=Eric Van Valkenburg
##DESCRIPTION=Steel gray fragment with internal red hints
##STATUS=The identification of this mineral has been confirmed by X-ray diffraction and chemical analysis
##URL=rruff.info/R060001
##MEASURED CHEMISTRY=(Fe^2+^_0.52_Mn^2+^_0.48_)_Σ=1_(Nb_1.61_Ta_0.39_)_Σ=2_O_6_
158.9741, 114.3360
159.4562, 114.7417
159.9383, 115.8408
160.4205, 116.8972
160.9026, 117.6297
161.3847, 118.0094
161.8668, 118.3775
162.3489, 119.2057
162.8310, 119.9859
163.3132, 120.1253
163.7953, 118.8697
164.2774, 117.3543
164.7595, 116.0604
165.2416, 115.0054
165.7237, 114.2980
166.2059, 114.1069
166.6880, 114.2675
167.1701, 114.5304
167.6522, 114.5863
168.1343, 114.8313
168.6164, 115.6028
169.0986, 117.0118
169.5807, 118.6123
170.0628, 120.7134
170.5449, 122.8030
171.0270, 123.8501
171.5091, 122.7086
171.9913, 120.5993
172.4734, 118.5169
172.9555, 116.4336
173.4376, 114.9067
173.9197, 114.6209
174.4018, 115.3001
174.8840, 116.2081
175.3661, 117.1729
175.8482, 118.0310
176.3303, 118.5515
176.8124, 118.6671
177.2945, 118.5155
177.7767, 118.2921
178.2588, 117.9503
178.7409, 117.3076
179.2230, 115.6968
179.7051, 113.7686
180.1872, 112.8872
180.6694, 113.6071
181.1515, 114.8346
181.6336, 115.0726
182.1157, 114.4173
182.5978, 113.5509
183.0799, 112.8797
183.5621, 112.3509
184.0442, 111.7712
184.5263, 110.9383
185.0084, 110.2498
185.4905, 110.7149
185.9726, 112.2784
186.4547, 113.5846
186.9369, 113.3360
187.4190, 111.8673
187.9011, 110.5497
188.3832, 109.5828
188.8653, 108.9914
189.3474, 108.9695
189.8296, 109.5367
190.3117, 110.1481
190.7938, 110.0225
191.2759, 109.3389
191.7580, 109.6561
192.2401, 111.8802
192.7223, 115.0347
193.2044, 115.9387
193.6865, 114.3590
194.1686, 112.4154
194.6507, 112.1898
195.1328, 113.5931
195.6150, 114.8469
196.0971, 115.5987
196.5792, 115.8712
197.0613, 115.4848
197.5434, 114.2493
198.0255, 113.2575
198.5077, 113.7671
198.9898, 115.8337
199.4719, 117.9700
199.9540, 120.0328
200.4361, 121.8910
200.9182, 122.6574
201.4004, 122.0631
201.8825, 121.1819
202.3646, 121.0807
202.8467, 121.8238
203.3288, 122.8467
203.8109, 124.2009
204.2931, 125.7844
204.7752, 126.6618
205.2573, 126.7151
205.7394, 126.3503
206.2215, 125.9702
206.7036, 125.6040
207.1858, 125.1006
207.6679, 124.4700
208.1500, 123.6978
208.6321, 122.4770
209.1142, 120.6409
209.5963, 118.6689
210.0785, 117.0219
210.5606, 115.7015
211.0427, 114.7816
211.5248, 114.5078
212.0069, 114.8481
212.4890, 114.2209
212.9712, 112.2553
213.4533, 109.8887
213.9354, 108.1291
214.4175, 107.0095
214.8996, 106.3547
215.3817, 106.1565
215.8639, 106.4157
216.3460, 107.0577
216.8281, 108.4868
217.3102, 109.7624
217.7923, 109.6280
218.2744, 107.3666
218.7566, 105.5462
219.2387, 104.8940
219.7208, 105.4285
220.2029, 105.8003
220.6850, 105.9269
221.1671, 105.9841
221.6493, 106.2118
222.1314, 106.8042
222.6135, 107.0973
223.0956, 106.7281
223.5777, 105.6319
224.0598, 105.5073
224.5420, 106.9623
225.0241, 108.7156
225.5062, 109.3241
225.9883, 108.1473
226.4704, 107.1682
226.9525, 106.8778
227.4347, 107.3035
227.9168, 107.6140
228.3989, 107.7474
228.8810, 107.8320
229.3631, 107.9782
229.8452, 108.1293
230.3274, 108.4780
230.8095, 109.2131
231.2916, 110.3697
231.7737, 110.9036
232.2558, 110.5346
232.7379, 109.8354
233.2201, 109.3746
233.7022, 109.2416
234.1843, 109.1748
234.6664, 109.1411
235.1485, 109.1414
235.6306, 109.1212
236.1128, 109.0266
236.5949, 108.9657
237.0770, 109.0590
237.5591, 109.4238
238.0412, 109.6948
238.5233, 109.6528
239.0055, 109.3002
239.4876, 109.6624
239.9697, 111.1709
240.4518, 112.9289
240.9339, 114.1658
241.4160, 114.7648
241.8982, 115.0616
242.3803, 115.0127
242.8624, 114.6305
243.3445, 114.3684
243.8266, 114.2198
244.3087, 114.1941
244.7909, 114.3074
245.2730, 114.6009
245.7551, 114.9528
246.2372, 115.3806
246.7193, 115.8717
247.2014, 116.2993
247.6836, 116.8231
248.1657, 117.0825
248.6478, 116.7115
249.1299, 115.2481
249.6120, 114.1631
250.0941, 113.7269
250.5762, 113.8597
251.0584, 113.9145
251.5405, 113.8274
252.0226, 113.7496
252.5047, 113.8178
252.9868, 114.1782
253.4689, 114.3446
253.9511, 114.2339
254.4332, 113.8846
254.9153, 113.4854
255.3974, 112.9418
255.8795, 112.4990
256.3617, 112.3393
256.8438, 112.5770
257.3259, 112.7935
257.8080, 112.9318
258.2901, 113.0271
258.7722, 113.2089
259.2544, 113.4487
259.7365, 113.8244
260.2186, 114.5422
260.7007, 116.0094
261.1828, 116.4835
261.6649, 115.4397
262.1471, 113.4785
262.6292, 112.3718
263.1113, 112.3087
263.5934, 112.7341
264.0755, 113.4868
264.5576, 114.7695
265.0398, 115.6983
265.5219, 116.3294
266.0040, 116.5537
266.4861, 115.9024
266.9682, 113.8704
267.4503, 112.2407
267.9325, 112.0874
268.4146, 113.8994
268.8967, 114.8405
269.3788, 114.6278
269.8609, 113.8316
270.3430, 113.6107
270.8252, 114.2109
271.3073, 114.5631
271.7894, 114.0245
272.2715, 112.4437
272.7536, 111.6569
273.2357, 111.8603
273.7179, 112.5799
274.2000, 113.2727
274.6821, 114.0548
275.1642, 114.2273
275.6463, 113.2153
276.1284, 111.0137
276.6106, 109.9138
277.0927, 110.1602
277.5748, 110.9763
278.0569, 111.4247
278.5390, 111.4718
279.0211, 111.4276
279.5032, 111.3692
279.9854, 111.2980
280.4675, 111.2500
280.9496, 111.2632
281.4317, 111.1771
281.9138, 110.7193
282.3959, 109.8701
282.8781, 109.2230
283.3602, 109.0528
283.8423, 109.1845
284.3244, 108.7005
284.8065, 107.4746
285.2886, 106.4073
285.7708, 106.5063
286.2529, 107.7023
286.7350, 108.7587
287.2171, 109.6092
287.6992, 110.0206
288.1813, 108.9413
288.6635, 106.2773
289.1456, 103.7785
289.6277, 103.0452
290.1098, 103.8200
290.5919, 104.4109
291.0740, 104.5669
291.5562, 104.3910
292.0383, 104.0249
292.5204, 103.4710
293.0025, 102.8499
293.4846, 102.2908
293.9667, 101.7350
294.4489, 100.8864
294.9310, 99.60593
295.4131, 98.32564
295.8952, 97.72474
296.3773, 97.73771
296.8594, 97.91305
297.3416, 97.96607
297.8237, 98.00342
298.3058, 98.36446
298.7879, 99.15010
299.2700, 99.88315
299.7521, 99.84272
300.2343, 99.23926
300.7164, 98.74720
301.1985, 98.75661
301.6806, 99.05063
302.1627, 99.40723
302.6448, 99.84397
303.1270, 100.0110
303.6091, 99.27518
304.0912, 98.04168
304.5733, 97.11901
305.0554, 97.01479
305.5375, 97.29900
306.0197, 97.53898
306.5018, 97.73660
306.9839, 97.95729
307.4660, 98.40383
307.9481, 98.86474
308.4302, 99.02014
308.9124, 98.47668
309.3945, 97.88737
309.8766, 97.86727
310.3587, 98.31941
310.8408, 98.73340
311.3229, 98.96779
311.8051, 98.94109
312.2872, 98.48008
312.7693, 97.13206
313.2514, 96.04175
313.7335, 96.18475
314.2156, 97.17392
314.6978, 97.87598
315.1799, 97.33353
315.6620, 96.57583
316.1441, 96.41553
316.6262, 97.23459
317.1083, 97.96284
317.5905, 98.17822
318.0726, 97.99373
318.5547, 97.60628
319.0368, 96.50022
319.5189, 95.66994
320.0010, 95.82547
320.4832, 97.29503
320.9653, 98.33516
321.4474, 98.13337
321.9295, 97.35039
322.4116, 96.75930
322.8937, 96.61364
323.3759, 96.60239
323.8580, 96.70987
324.3401, 96.94416
324.8222, 97.03742
325.3043, 96.93513
325.7864, 96.68712
326.2686, 96.33183
326.7507, 96.00317
327.2328, 95.42371
327.7149, 94.18195
328.1970, 92.41892
328.6791, 91.55500
329.1613, 92.32884
329.6434, 93.43434
330.1255, 94.23498
330.6076, 94.81136
331.0897, 94.94621
331.5718, 94.28924
332.0540, 93.19714
332.5361, 92.71371
333.0182, 93.26604
333.5003, 93.85914
333.9824, 94.04485
334.4645, 93.56900
334.9467, 93.50815
335.4288, 94.11645
335.9109, 94.96052
336.3930, 95.31821
336.8751, 95.07466
337.3572, 94.61813
337.8394, 94.02769
338.3215, 93.30395
338.8036, 92.49453
339.2857, 91.45832
339.7678, 90.58049
340.2499, 90.30100
340.7321, 90.68809
341.2142, 91.34209
341.6963, 92.37025
342.1784, 93.57354
342.6605, 93.87218
343.1426, 93.12651
343.6248, 92.11834
344.1069, 91.35923
344.5890, 90.85874
345.0711, 90.68600
345.5532, 90.86552
346.0353, 91.36211
346.5175, 92.31047
346.9996, 93.70702
347.4817, 94.80518
347.9638, 95.01059
348.4459, 94.52799
348.9280, 94.04666
349.4102, 93.59206
349.8923, 93.25448
350.3744, 93.10720
350.8565, 93.16617
351.3386, 93.49837
351.8207, 94.64051
352.3029, 95.90563
352.7850, 95.87154
353.2671, 94.50343
353.7492, 93.25478
354.2313, 93.66343
354.7134, 95.01946
355.1956, 96.08111
355.6777, 96.24808
356.1598, 96.11301
356.6419, 96.21170
357.1240, 96.50412
357.6061, 96.77312
358.0883, 96.81690
358.5704, 96.80638
359.0525, 96.95230
359.5346, 97.46175
360.0167, 97.80391
360.4988, 97.46584
360.9810, 96.72521
361.4631, 96.19515
361.9452, 96.13670
362.4273, 96.35117
362.9094, 96.79333
363.3915, 97.51942
363.8737, 98.17247
364.3558, 98.65318
364.8379, 98.98600
365.3200, 99.19630
365.8021, 99.07592
366.2842, 99.04398
366.7664, 99.40249
367.2485, 100.1635
367.7306, 100.4085
368.2127, 99.30299
368.6948, 98.10322
369.1769, 97.63481
369.6591, 98.68424
370.1412, 99.53914
370.6233, 100.1320
371.1054, 100.4800
371.5875, 100.6152
372.0696, 100.2353
372.5518, 100.0092
373.0339, 100.2557
373.5160, 101.1982
373.9981, 101.9809
374.4802, 102.5819
374.9623, 103.0492
375.4445, 103.4593
375.9266, 103.8415
376.4087, 104.0785
376.8908, 104.0192
377.3729, 103.6865
377.8550, 103.8860
378.3372, 104.7218
378.8193, 105.8072
379.3014, 106.8763
379.7835, 107.9547
380.2656, 108.5814
380.7477, 108.4994
381.2299, 108.0672
381.7120, 108.2417
382.1941, 109.0311
382.6762, 109.9197
383.1583, 110.4983
383.6404, 110.8744
384.1226, 111.4652
384.6047, 112.3361
385.0868, 113.3282
385.5689, 114.2184
386.0510, 115.0550
386.5331, 116.0264
387.0153, 117.5579
387.4974, 119.1486
387.9795, 119.8657
388.4616, 119.7054
388.9437, 119.7109
389.4258, 121.1825
389.9080, 123.2104
390.3901, 124.4315
390.8722, 123.9108
391.3543, 123.0748
391.8364, 122.9160
392.3185, 123.3009
392.8007, 123.7277
393.2828, 123.9243
393.7649, 124.0939
394.2470, 124.4317
394.7291, 125.1164
395.2112, 125.5470
395.6934, 125.3556
396.1755, 124.8087
396.6576, 124.3060
397.1397, 124.2524
397.6218, 123.9620
398.1039, 122.9964
398.5861, 121.2399
399.0682, 120.0507
399.5503, 120.1392
400.0324, 120.4967
400.5145, 120.3848
400.9966, 119.5689
401.4788, 118.5981
401.9609, 117.3064
402.4430, 115.8667
402.9251, 115.0457
403.4072, 115.4735
403.8893, 115.5574
404.3714, 114.3698
404.8535, 111.3464
405.3357, 109.4931
405.8178, 109.2706
406.2999, 109.6290
406.7820, 109.0189
407.2641, 107.2822
407.7462, 105.4494
408.2284, 103.5990
408.7105, 101.9116
409.1926, 101.4243
409.6747, 102.3020
410.1568, 103.1662
410.6389, 102.5937
411.1211, 100.8664
411.6032, 99.59203
412.0853, 99.11245
412.5674, 99.03568
413.0495, 98.86916
413.5316, 98.60139
414.0138, 98.18147
414.4959, 97.34971
414.9780, 96.42609
415.4601, 96.07454
415.9422, 96.37333
416.4243, 96.46207
416.9065, 95.21142
417.3886, 93.39077
417.8707, 92.18164
418.3528, 92.65632
418.8349, 93.22188
419.3170, 92.72427
419.7992, 91.37606
420.2813, 90.21245
420.7634, 89.61514
421.2455, 89.38353
421.7276, 89.50811
422.2097, 90.37829
422.6919, 90.65466
423.1740, 89.49360
423.6561, 87.65454
424.1382, 86.27307
424.6203, 85.51998
425.1024, 85.28245
425.5846, 85.73801
426.0667, 86.93435
426.5488, 87.82864
427.0309, 88.27131
427.5130, 88.55299
427.9951, 88.86752
428.4773, 89.22312
428.9594, 89.64362
429.4415, 90.36741
429.9236, 91.04936
430.4057, 90.59374
430.8878, 88.54713
431.3700, 86.77821
431.8521, 86.28445
432.3342, 87.06605
432.8163, 87.29558
433.2984, 86.89233
433.7805, 86.22241
434.2627, 85.43099
434.7448, 84.59285
435.2269, 84.55567
435.7090, 85.87429
436.1911, 87.77058
436.6732, 88.67955
437.1554, 88.68423
437.6375, 88.40920
438.1196, 88.23528
438.6017, 88.06104
439.0838, 87.70316
439.5659, 87.11840
440.0481, 86.45946
440.5302, 85.79942
441.0123, 85.15574
441.4944, 84.55788
441.9765, 83.73689
442.4586, 83.19971
442.9408, 83.39359
443.4229, 84.24318
443.9050, 85.11134
444.3871, 85.97916
444.8692, 86.61210
445.3513, 86.82703
445.8335, 86.38602
446.3156, 85.90394
446.7977, 85.49020
447.2798, 85.10598
447.7619, 84.67961
448.2440, 83.61620
448.7262, 83.17286
449.2083, 83.92173
449.6904, 85.96349
450.1725, 87.19008
450.6546, 87.34887
451.1367, 86.99507
451.6189, 86.42402
452.1010, 85.43133
452.5831, 84.95737
453.0652, 85.22275
453.5473, 85.90857
454.0294, 86.30795
454.5116, 86.39517
454.9937, 86.41545
455.4758, 86.56461
455.9579, 86.76524
456.4400, 86.44456
456.9221, 85.53585
457.4043, 84.70210
457.8864, 84.66869
458.3685, 85.23484
458.8506, 85.86924
459.3327, 86.57700
459.8148, 87.05725
460.2970, 86.55696
460.7791, 85.43114
461.2612, 84.87108
461.7433, 86.32471
462.2254, 88.14292
462.7076, 88.81802
463.1897, 88.15559
463.6718, 87.19800
464.1539, 86.03420
464.6360, 85.04804
465.1181, 84.64510
465.6003, 85.79607
466.0824, 86.60267
466.5645, 86.11462
467.0466, 84.78158
467.5287, 84.33499
468.0108, 85.92274
468.4930, 87.56812
468.9751, 88.58170
469.4572, 88.83805
469.9393, 88.91613
470.4214, 88.80630
470.9035, 88.52320
471.3857, 87.99212
471.8678, 87.00194
472.3499, 86.47156
472.8320, 86.72432
473.3141, 87.46861
473.7962, 87.61110
474.2784, 87.06390
474.7605, 86.55506
475.2426, 86.53206
475.7247, 86.93250
476.2068, 87.44143
476.6889, 88.08444
477.1711, 88.61943
477.6532, 88.67825
478.1353, 88.40481
478.6174, 88.19876
479.0995, 88.23592
479.5816, 88.34305
480.0638, 88.36475
480.5459, 88.29964
481.0280, 88.14213
481.5101, 87.66064
481.9922, 87.22847
482.4743, 87.24361
482.9565, 87.85329
483.4386, 88.29807
483.9207, 88.26741
484.4028, 87.91525
484.8849, 87.39917
485.3670, 86.33737
485.8492, 85.58492
486.3313, 85.35002
486.8134, 85.58174
487.2955, 85.99612
487.7776, 86.90774
488.2597, 87.61457
488.7419, 87.76567
489.2240, 87.19334
489.7061, 86.92760
490.1882, 87.16679
490.6703, 87.41988
491.1524, 86.93321
491.6346, 85.52229
492.1167, 84.87871
492.5988, 85.60728
493.0809, 87.01610
493.5630, 87.11892
494.0451, 85.96273
494.5273, 85.04155
495.0094, 85.60609
495.4915, 86.98499
495.9736, 87.59567
496.4557, 87.33494
496.9378, 86.85241
497.4200, 86.56194
497.9021, 86.46130
498.3842, 86.58245
498.8663, 87.15385
499.3484, 87.63688
499.8305, 87.48486
500.3127, 86.96678
500.7948, 86.76521
501.2769, 87.65381
501.7590, 88.46570
502.2411, 88.55141
502.7232, 87.73880
503.2054, 87.14371
503.6875, 87.14212
504.1696, 87.27042
504.6517, 87.17234
505.1338, 86.49751
505.6159, 86.21310
506.0981, 86.44590
506.5802, 87.06788
507.0623, 87.86510
507.5444, 88.97918
508.0265, 89.83752
508.5086, 90.20033
508.9908, 90.11559
509.4729, 89.88900
509.9550, 89.48587
510.4371, 89.21394
510.9192, 89.39704
511.4013, 89.95332
511.8835, 90.62868
512.3655, 91.46897
512.8477, 92.16096
513.3298, 92.05713
513.8119, 91.51035
514.2940, 91.35903
514.7761, 92.50378
515.2582, 93.79128
515.7404, 94.22080
516.2225, 93.90620
516.7046, 93.76380
517.1867, 94.37336
517.6688, 95.17133
518.1509, 95.78975
518.6331, 96.09646
519.1152, 96.41972
519.5973, 96.72485
520.0794, 97.10463
520.5615, 97.65977
521.0436, 98.39342
521.5258, 99.32464
522.0079, 100.6670
522.4900, 102.2279
522.9721, 102.9759
523.4542, 102.6620
523.9363, 102.2292
524.4185, 102.1766
524.9006, 102.5020
525.3827, 102.6867
525.8648, 102.6900
526.3469, 102.7680
526.8290, 103.4388
527.3112, 104.4756
527.7933, 104.9487
528.2754, 104.4282
528.7575, 103.6539
529.2396, 103.3903
529.7217, 103.5833
530.2039, 104.0709
530.6860, 105.3869
531.1681, 106.5023
531.6502, 106.5623
532.1323, 105.5442
532.6144, 104.4245
533.0966, 103.5436
533.5787, 102.7187
534.0608, 101.7687
534.5429, 100.1707
535.0250, 99.27805
535.5071, 99.83473
535.9893, 100.9226
536.4714, 101.1833
536.9535, 100.1767
537.4356, 99.18235
537.9177, 98.42476
538.3998, 97.90286
538.8820, 97.81171
539.3641, 98.32223
539.8462, 98.49209
540.3283, 97.44228
540.8104, 95.40125
541.2925, 93.96719
541.7747, 93.24791
542.2568, 92.90730
542.7389, 92.72347
543.2210, 92.63744
543.7031, 92.54573
544.1852, 92.56510
544.6674, 92.33377
545.1495, 91.19882
545.6316, 89.53377
546.1137, 88.27141
546.5958, 88.02790
547.0779, 88.13280
547.5601, 88.36617
548.0422, 88.71719
548.5243, 88.81995
549.0064, 88.50815
549.4885, 87.98448
549.9706, 87.37524
550.4528, 86.72075
550.9349, 85.86775
551.4170, 84.50172
551.8991, 83.16696
552.3812, 82.75613
552.8633, 83.50572
553.3455, 84.24258
553.8276, 84.78091
554.3097, 85.06094
554.7918, 84.71244
555.2739, 83.74245
555.7560, 82.88527
556.2382, 82.80412
556.7203, 83.11824
557.2024, 82.93754
557.6845, 82.21223
558.1666, 81.38611
558.6487, 80.73389
559.1309, 80.23771
559.6130, 79.88492
560.0951, 79.66210
560.5772, 79.59251
561.0593, 79.92435
561.5414, 80.38130
562.0236, 80.47250
562.5057, 79.55946
562.9878, 78.80946
563.4699, 78.61623
563.9520, 78.92567
564.4341, 79.16464
564.9163, 79.34019
565.3984, 79.43375
565.8805, 79.43204
566.3626, 79.32631
566.8447, 79.15942
567.3268, 78.91368
567.8090, 78.64977
568.2911, 78.47038
568.7732, 78.35615
569.2553, 78.10038
569.7374, 77.55694
570.2195, 77.06600
570.7017, 77.13760
571.1838, 77.66142
571.6659, 78.28140
572.1480, 79.18251
572.6301, 79.84800
573.1122, 79.59803
573.5944, 78.55387
574.0765, 77.80321
574.5586, 77.97099
575.0407, 78.47282
575.5228, 79.05270
576.0049, 79.89307
576.4871, 80.18201
576.9692, 79.32845
577.4513, 78.23745
577.9334, 77.80978
578.4155, 78.53944
578.8976, 78.71725
579.3798, 77.88155
579.8619, 76.58765
580.3440, 76.40672
580.8261, 77.45856
581.3082, 78.07795
581.7903, 77.15135
582.2725, 75.39420
582.7546, 75.07565
583.2367, 76.09758
583.7188, 77.23266
584.2009, 77.54622
584.6830, 77.44088
585.1652, 77.43380
585.6473, 77.60435
586.1294, 77.78153
586.6115, 77.88077
587.0936, 77.92766
587.5757, 77.94827
588.0579, 78.30146
588.5400, 78.21115
589.0221, 76.93023
589.5042, 75.15857
589.9863, 74.53329
590.4684, 75.73118
590.9506, 77.01653
591.4327, 78.12733
591.9148, 79.00328
592.3969, 78.86205
592.8790, 77.41412
593.3611, 76.19202
593.8433, 76.58899
594.3254, 78.19756
594.8075, 78.66006
595.2896, 77.79644
595.7717, 76.67482
596.2538, 76.08250
596.7360, 76.02195
597.2181, 76.64574
597.7002, 78.43253
598.1823, 79.92591
598.6644, 79.87937
599.1465, 78.91664
599.6287, 78.10484
600.1108, 77.84901
600.5929, 77.73917
601.0750, 77.72320
601.5571, 77.77652
602.0392, 77.71980
602.5214, 77.38633
603.0035, 77.16984
603.4856, 77.33004
603.9677, 77.92765
604.4498, 77.88683
604.9319, 76.95959
605.4141, 76.16270
605.8962, 76.74781
606.3783, 78.45342
606.8604, 79.44512
607.3425, 79.43414
607.8246, 78.95228
608.3068, 78.24317
608.7889, 77.56433
609.2710, 77.53907
609.7531, 79.21143
610.2352, 80.63732
610.7173, 80.19624
611.1995, 78.47753
611.6816, 77.09061
612.1637, 76.48914
612.6458, 76.35909
613.1279, 76.75942
613.6100, 77.70573
614.0922, 78.36804
614.5743, 78.67476
615.0564, 78.80296
615.5385, 78.89999
616.0206, 79.04079
616.5027, 78.60302
616.9849, 77.42301
617.4670, 76.16135
617.9491, 75.64449
618.4312, 75.75213
618.9133, 75.85983
619.3954, 75.78879
619.8776, 75.82017
620.3597, 76.39695
620.8418, 77.33418
621.3239, 78.20509
621.8060, 79.17669
622.2881, 79.72923
622.7703, 79.18196
623.2524, 77.85777
623.7345, 77.07897
624.2166, 77.69862
624.6987, 78.44703
625.1808, 78.86156
625.6630, 78.92994
626.1451, 78.81454
626.6272, 78.38826
627.1093, 77.98021
627.5914, 77.80849
628.0735, 77.87985
628.5557, 78.13030
629.0378, 78.60139
629.5199, 79.07844
630.0020, 79.35336
630.4841, 79.43336
630.9662, 79.31292
631.4484, 78.92215
631.9305, 78.48316
632.4126, 78.13047
632.8947, 77.89790
633.3768, 77.84457
633.8589, 78.20383
634.3411, 78.54388
634.8232, 78.67416
635.3053, 78.62168
635.7874, 78.56525
636.2695, 78.51350
636.7516, 78.47009
637.2338, 78.41085
637.7159, 78.32706
638.1980, 78.39906
638.6801, 78.64442
639.1622, 78.98754
639.6443, 79.48412
640.1265, 80.07899
640.6086, 80.27593
641.0907, 79.98827
641.5728, 79.58199
642.0549, 79.40246
642.5370, 79.38688
643.0192, 79.44678
643.5013, 79.66898
643.9834, 79.74072
644.4655, 79.36494
644.9476, 78.72831
645.4297, 78.13290
645.9119, 77.54388
646.3940, 77.14299
646.8761, 77.01305
647.3582, 77.11489
647.8403, 77.36509
648.3224, 77.94240
648.8046, 78.30964
649.2867, 78.17749
649.7688, 77.62146
650.2509, 77.38425
650.7330, 77.48258
651.2151, 77.69836
651.6973, 77.96683
652.1794, 78.21824
652.6615, 78.19234
653.1436, 77.85300
653.6257, 77.62406
654.1078, 78.06650
654.5900, 78.69189
655.0721, 78.95105
655.5542, 78.55387
656.0363, 78.12245
656.5184, 77.83379
657.0005, 77.62531
657.4827, 77.41186
657.9648, 77.15525
658.4469, 76.94985
658.9290, 76.78957
659.4111, 76.69589
659.8932, 76.71685
660.3754, 76.85145
660.8575, 77.12720
661.3396, 77.69099
661.8217, 78.31466
662.3038, 78.36819
662.7859, 77.91353
663.2681, 77.38081
663.7502, 76.87534
664.2323, 76.52727
664.7144, 76.53753
665.1965, 76.90031
665.6786, 77.23230
666.1608, 77.30190
666.6429, 77.33969
667.1250, 77.51498
667.6071, 77.96310
668.0892, 78.22171
668.5714, 78.28733
669.0535, 78.17292
669.5356, 77.81426
670.0177, 77.13746
670.4998, 76.76475
670.9819, 76.82938
671.4641, 77.01640
671.9462, 76.81905
672.4283, 76.34023
672.9104, 75.94788
673.3925, 75.68896
673.8746, 75.66494
674.3568, 76.18706
674.8389, 77.01210
675.3210, 77.61611
675.8031, 77.63947
676.2852, 77.53928
676.7673, 77.46967
677.2495, 77.42582
677.7316, 77.34801
678.2137, 77.17113
678.6958, 77.05598
679.1779, 77.13708
679.6600, 77.39095
680.1422, 77.08762
680.6243, 76.06977
681.1064, 75.38937
681.5885, 76.23985
682.0706, 78.01226
682.5527, 78.50088
683.0349, 77.56532
683.5170, 76.64715
683.9991, 77.02254
684.4812, 77.97267
684.9633, 78.72573
685.4454, 79.11145
685.9276, 79.35145
686.4097, 79.61868
686.8918, 79.73531
687.3739, 79.48112
687.8560, 78.51705
688.3381, 77.77866
688.8203, 77.29281
689.3024, 77.06474
689.7845, 77.12326
690.2666, 77.47819
690.7487, 78.02104
691.2308, 78.83443
691.7130, 79.65004
692.1951, 79.96915
692.6772, 79.88573
693.1593, 79.75353
693.6414, 79.71553
694.1235, 79.71980
694.6057, 79.86742
695.0878, 80.06251
695.5699, 79.91568
696.0520, 78.74733
696.5341, 77.75851
697.0162, 77.47874
697.4984, 77.89817
697.9805, 78.32272
698.4626, 78.81182
698.9447, 79.18904
699.4268, 79.26353
699.9089, 79.06279
700.3911, 79.27037
700.8732, 79.93558
701.3553, 80.38702
701.8374, 79.74660
702.3195, 78.57516
702.8016, 77.79369
703.2838, 77.51578
703.7659, 77.66998
704.2480, 78.74477
704.7301, 79.94881
705.2122, 80.48280
705.6943, 79.37561
706.1765, 78.98740
706.6586, 80.15617
707.1407, 81.64502
707.6228, 81.83678
708.1049, 80.26244
708.5870, 79.37828
709.0692, 79.71057
709.5513, 80.59104
710.0334, 80.78816
710.5155, 80.44852
710.9976, 80.36919
711.4797, 81.01768
711.9618, 81.79026
712.4439, 81.88523
712.9260, 81.60970
713.4081, 81.70787
713.8903, 83.05170
714.3724, 84.24120
714.8545, 84.65685
715.3366, 84.40286
715.8187, 84.28478
716.3008, 84.37953
716.7830, 84.48973
717.2651, 84.57462
717.7472, 84.62429
718.2293, 84.52825
718.7114, 84.27882
719.1935, 84.01889
719.6757, 83.66333
720.1578, 83.41660
720.6399, 83.81331
721.1220, 84.82291
721.6041, 85.76113
722.0862, 86.09729
722.5684, 86.22788
723.0505, 86.50332
723.5326, 87.05996
724.0147, 87.24821
724.4968, 86.52391
724.9789, 85.79095
725.4611, 85.63039
725.9432, 86.20098
726.4253, 86.78266
726.9074, 87.42597
727.3895, 87.94013
727.8716, 87.97480
728.3538, 87.68177
728.8359, 87.71545
729.3180, 88.24502
729.8001, 88.82690
730.2822, 88.93352
730.7643, 88.89226
731.2465, 89.17326
731.7286, 90.38018
732.2107, 91.18349
732.6928, 90.74978
733.1749, 89.85698
733.6570, 89.73486
734.1392, 90.87890
734.6213, 91.66507
735.1034, 91.77584
735.5855, 91.52811
736.0676, 91.58566
736.5497, 91.92310
737.0319, 92.14178
737.5140, 92.00947
737.9961, 91.83083
738.4782, 92.21852
738.9603, 92.89465
739.4424, 93.14199
739.9246, 91.90849
740.4067, 90.90516
740.8888, 91.17265
741.3709, 92.41605
741.8530, 93.18577
742.3351, 93.25204
742.8173, 93.06041
743.2994, 92.55202
743.7815, 91.88310
744.2636, 92.03966
744.7457, 93.08043
745.2278, 94.13256
745.7100, 94.61243
746.1921, 94.78915
746.6742, 95.27403
747.1563, 95.99145
747.6384, 96.40389
748.1205, 95.82259
748.6027, 95.12990
749.0848, 94.90189
749.5669, 95.18887
750.0490, 95.68283
750.5311, 96.73232
751.0132, 97.54421
751.4954, 97.65597
751.9775, 96.99224
752.4596, 96.75466
752.9417, 97.00548
753.4238, 97.36608
753.9059, 97.44981
754.3881, 97.42809
754.8702, 94.96078
755.3523, 98.33887
755.8344, 100.3233
756.3165, 100.9889
756.7986, 96.38567
757.2808, 98.58607
757.7629, 98.05985
758.2450, 97.42185
758.7271, 100.5798
759.2092, 96.74292
759.6913, 99.84061
760.1735, 100.1702
760.6556, 101.7667
761.1377, 100.6198
761.6198, 100.3202
762.1019, 102.7649
762.5840, 103.6901
763.0662, 102.2274
763.5483, 101.7232
764.0304, 102.4135
764.5125, 102.5168
764.9946, 102.3379
765.4767, 102.1932
765.9589, 101.9148
766.4410, 102.1098
766.9231, 103.5220
767.4052, 105.0545
767.8873, 105.4378
768.3694, 104.2384
768.8516, 103.6131
769.3337, 103.9140
769.8158, 104.5737
770.2979, 104.6802
770.7800, 104.4193
771.2621, 104.5248
771.7443, 105.3671
772.2264, 106.1876
772.7085, 106.2667
773.1906, 105.9286
773.6727, 105.6568
774.1548, 105.5174
774.6370, 105.5506
775.1191, 105.8298
775.6012, 106.2550
776.0833, 106.7056
776.5654, 107.2360
777.0475, 107.5711
777.5297, 107.6330
778.0118, 107.5310
778.4939, 107.3594
778.9760, 107.1729
779.4581, 107.1986
779.9402, 107.6726
780.4224, 108.1575
780.9045, 108.1174
781.3866, 107.8608
781.8687, 107.9707
782.3508, 109.3557
782.8329, 110.1849
783.3151, 109.8123
783.7972, 108.7961
784.2793, 108.4468
784.7614, 108.9269
785.2435, 109.1531
785.7256, 108.6606
786.2078, 107.9777
786.6899, 108.3798
787.1720, 109.5719
787.6541, 110.4483
788.1362, 110.2608
788.6183, 109.8623
789.1005, 109.6997
789.5826, 109.0103
790.0647, 109.9363
790.5468, 110.4445
791.0289, 110.5579
791.5110, 109.0741
791.9932, 109.6675
792.4753, 109.4375
792.9574, 109.1799
793.4395, 110.0840
793.9216, 108.8657
794.4037, 109.7644
794.8859, 109.8271
795.3680, 110.2818
795.8501, 109.9080
796.3322, 109.7986
796.8143, 110.5308
797.2964, 110.8070
797.7786, 110.3629
798.2607, 110.8808
798.7428, 109.6978
799.2249, 110.0195
799.7070, 110.9940
800.1891, 110.6242
800.6713, 111.1896
801.1534, 111.4077
801.6355, 110.0246
802.1176, 111.4438
802.5997, 111.6604
803.0818, 110.6418
803.5640, 111.9847
804.0461, 111.1502
804.5282, 111.1016
805.0103, 111.6461
805.4924, 111.5855
805.9745, 112.4954
806.4567, 112.4831
806.9388, 112.3942
807.4209, 112.6739
807.9030, 111.9338
808.3851, 113.1040
808.8672, 112.9802
809.3494, 113.5093
809.8315, 114.1913
810.3136, 113.7579
810.7957, 114.5186
811.2778, 113.4439
811.7599, 113.9168
812.2421, 114.2303
812.7242, 115.5353
813.2063, 114.4953
813.6884, 114.9513
814.1705, 116.0478
814.6526, 116.2634
815.1348, 116.8566
815.6169, 116.3577
816.0990, 116.8972
816.5811, 117.9896
817.0632, 118.5004
817.5453, 118.5944
818.0275, 118.5576
818.5096, 118.2623
818.9917, 118.1377
819.4738, 118.7046
819.9559, 119.6694
820.4380, 120.2382
820.9202, 119.5846
821.4023, 119.4400
821.8844, 120.4245
822.3665, 121.9324
822.8486, 122.1355
823.3307, 120.9796
823.8129, 120.3085
824.2950, 120.8896
824.7771, 122.0425
825.2592, 122.9401
825.7413, 123.6047
826.2234, 124.1332
826.7056, 124.4884
827.1877, 124.7942
827.6698, 125.1318
828.1519, 125.4454
828.6340, 125.5548
829.1161, 125.0903
829.5983, 125.3854
830.0804, 126.9543
830.5625, 129.0236
831.0446, 130.1828
831.5267, 130.5081
832.0089, 130.3539
832.4910, 129.4848
832.9731, 128.8346
833.4552, 129.5762
833.9373, 131.0196
834.4194, 132.0480
834.9016, 131.6316
835.3837, 131.7771
835.8658, 133.0932
836.3479, 134.8164
836.8300, 135.5932
837.3121, 135.2431
837.7943, 135.7811
838.2764, 137.7953
838.7585, 140.0926
839.2406, 140.9700
839.7227, 140.9324
840.2048, 140.9771
840.6870, 141.3464
841.1691, 141.9261
841.6512, 142.6142
842.1333, 143.5098
842.6154, 144.7506
843.0975, 146.4581
843.5797, 148.2700
844.0618, 150.3036
844.5439, 152.1970
845.0260, 153.2768
845.5081, 153.7559
845.9902, 154.7251
846.4724, 156.4045
846.9545, 158.2157
847.4366, 159.4513
847.9187, 160.6611
848.4008, 162.5433
848.8829, 165.7111
849.3651, 168.1854
849.8472, 169.0100
850.3293, 169.8110
850.8114, 171.8739
851.2935, 175.3420
851.7756, 178.7305
852.2578, 182.0088
852.7399, 185.0341
853.2220, 187.1063
853.7041, 189.0969
854.1862, 192.6866
854.6683, 198.0990
855.1505, 203.2922
855.6326, 206.9711
856.1147, 210.3989
856.5968, 214.3861
857.0789, 219.0065
857.5610, 223.6489
858.0432, 228.1905
858.5253, 232.9826
859.0074, 238.4514
859.4895, 244.3432
859.9716, 249.5811
860.4537, 254.3017
860.9359, 259.5199
861.4180, 266.3548
861.9001, 273.5970
862.3822, 280.5411
862.8643, 287.1046
863.3464, 293.7016
863.8286, 300.0408
864.3107, 306.7751
864.7928, 314.1304
865.2749, 322.0353
865.7570, 329.9496
866.2391, 337.9206
866.7213, 345.5687
867.2034, 352.4600
867.6855, 359.2368
868.1676, 366.8382
868.6497, 375.0314
869.1318, 382.9195
869.6140, 390.5863
870.0961, 397.5357
870.5782, 403.4735
871.0603, 408.7357
871.5424, 414.3194
872.0245, 420.3442
872.5067, 425.5533
872.9888, 429.8264
873.4709, 432.8122
873.9530, 433.7202
874.4351, 432.9926
874.9172, 431.6035
875.3994, 430.0898
875.8815, 427.6485
876.3636, 424.5097
876.8457, 419.9621
877.3278, 413.1559
877.8099, 403.6712
878.2921, 393.2413
878.7742, 381.9086
879.2563, 370.0040
879.7384, 357.9593
880.2205, 345.5392
880.7026, 331.8477
881.1848, 316.4999
881.6669, 301.1911
882.1490, 286.6420
882.6311, 272.9218
883.1132, 260.0413
883.5953, 248.3203
884.0775, 236.3519
884.5596, 223.8166
885.0417, 211.5805
885.5238, 200.3951
886.0059, 190.1588
886.4880, 180.4444
886.9702, 171.3268
887.4523, 163.0943
887.9344, 156.5933
888.4165, 150.6127
888.8986, 143.9090
889.3807, 136.4063
889.8629, 130.2001
890.3450, 126.3271
890.8271, 122.7186
891.3092, 118.6461
891.7913, 114.2452
892.2734, 110.2910
892.7556, 106.8064
893.2377, 103.6006
893.7198, 100.4668
894.2019, 97.66565
894.6840, 95.58324
895.1661, 93.98955
895.6483, 92.28540
896.1304, 90.09584
896.6125, 87.97784
897.0946, 85.93813
897.5767, 84.06573
898.0588, 82.67871
898.5410, 81.77856
899.0231, 80.86486
899.5052, 79.83631
899.9873, 78.68113
900.4694, 77.19463
900.9515, 75.60773
901.4337, 74.33086
901.9158, 73.73413
902.3979, 72.94774
902.8800, 71.29863
903.3621, 69.68363
903.8442, 68.94235
904.3264, 69.26367
904.8085, 69.44901
905.2906, 69.49257
905.7727, 69.17402
906.2548, 67.94105
906.7369, 66.33825
907.2191, 65.37251
907.7012, 65.16784
908.1833, 64.82008
908.6654, 63.67415
909.1475, 62.50354
909.6296, 61.63050
910.1118, 61.05888
910.5939, 61.22287
911.0760, 62.30971
911.5581, 63.13082
912.0402, 62.89054
912.5223, 62.01707
913.0045, 61.35579
913.4866, 60.82553
913.9687, 60.15837
914.4508, 59.19271
914.9329, 58.09779
915.4150, 56.59175
915.8972, 55.05776
916.3793, 54.57536
916.8614, 55.48932
917.3435, 56.03033
917.8256, 55.70744
918.3077, 55.07699
918.7899, 55.09153
919.2720, 55.50269
919.7541, 55.73664
920.2362, 55.63450
920.7183, 55.31131
921.2004, 54.64116
921.6826, 53.88197
922.1647, 53.27708
922.6468, 52.81963
923.1289, 52.58354
923.6110, 52.62711
924.0931, 52.69610
924.5753, 52.28731
925.0574, 51.78720
925.5395, 52.31016
926.0216, 53.90874
926.5037, 55.20012
926.9858, 55.59787
927.4680, 55.31689
927.9501, 54.10972
928.4322, 52.11424
928.9143, 50.94826
929.3964, 50.75079
929.8785, 50.88373
930.3607, 51.21555
930.8428, 51.57183
931.3249, 51.48439
931.8070, 51.06895
932.2891, 50.70531
932.7712, 50.58107
933.2534, 50.52579
933.7355, 50.53795
934.2176, 50.55029
934.6997, 50.42399
935.1818, 50.08979
935.6639, 49.83471
936.1461, 49.67006
936.6282, 49.65987
937.1103, 50.01494
937.5924, 50.56373
938.0745, 50.90894
938.5566, 50.94308
939.0388, 50.96223
939.5209, 51.24587
940.0030, 51.46328
940.4851, 51.35268
940.9672, 50.87699
941.4493, 50.32733
941.9315, 49.63960
942.4136, 49.19520
942.8957, 49.65773
943.3778, 50.37901
943.8599, 49.79490
944.3420, 48.17905
944.8242, 46.98290
945.3063, 47.48935
945.7884, 47.94102
946.2705, 47.34126
946.7526, 46.18017
947.2347, 45.86727
947.7169, 46.55688
948.1990, 47.09052
948.6811, 47.16339
949.1632, 46.97377
949.6453, 46.54133
950.1274, 46.11673
950.6096, 46.23306
951.0917, 47.40006
951.5738, 48.29738
952.0559, 48.32469
952.5380, 48.07331
953.0201, 48.04151
953.5023, 48.31206
953.9844, 47.99132
954.4665, 46.98661
954.9486, 46.21244
955.4307, 46.85234
955.9128, 47.91854
956.3950, 48.09851
956.8771, 47.38276
957.3591, 46.60135
957.8412, 45.65898
958.3234, 45.15155
958.8055, 45.42599
959.2876, 46.21325
959.7697, 46.45413
960.2518, 46.16038
960.7339, 45.89329
961.2161, 45.85940
961.6982, 45.92142
962.1803, 46.02843
962.6624, 46.10015
963.1445, 46.01317
963.6266, 45.71867
964.1088, 45.23777
964.5909, 44.34320
965.0730, 43.56531
965.5551, 43.51571
966.0372, 44.12375
966.5193, 44.94713
967.0015, 45.95927
967.4836, 46.50124
967.9657, 45.44995
968.4478, 44.16327
968.9299, 43.90310
969.4120, 44.74559
969.8942, 45.17129
970.3763, 44.94530
970.8584, 44.64577
971.3405, 44.43940
971.8226, 44.33008
972.3047, 44.44610
972.7869, 44.69190
973.2690, 44.66396
973.7511, 43.97092
974.2332, 43.29398
974.7153, 42.89283
975.1974, 42.78754
975.6796, 43.02606
976.1617, 43.78059
976.6438, 44.38730
977.1259, 44.83427
977.6080, 45.05155
978.0901, 44.83257
978.5723, 44.36335
979.0544, 44.00745
979.5365, 43.79999
980.0186, 43.64001
980.5007, 43.44448
980.9828, 43.32569
981.4650, 43.38648
981.9471, 43.58169
982.4292, 43.57518
982.9113, 43.34018
983.3934, 43.22312
983.8755, 43.44402
984.3577, 43.72721
984.8398, 43.65258
985.3219, 43.38192
985.8040, 43.21819
986.2861, 43.41772
986.7682, 43.49312
987.2504, 43.32918
987.7325, 43.08911
988.2146, 42.85865
988.6967, 42.65285
989.1788, 42.95585
989.6609, 43.82164
990.1431, 44.51143
990.6252, 44.23886
991.1073, 43.69104
991.5894, 43.51148
992.0715, 43.71914
992.5536, 43.64674
993.0358, 43.23783
993.5179, 42.52924
994.0000, 41.25309
994.4821, 39.98728
994.9642, 40.53078
995.4464, 42.35339
995.9285, 43.61652
996.4106, 43.37502
996.8927, 42.97868
997.3748, 43.12756
997.8569, 43.49345
998.3391, 43.73309
998.8212, 43.89697
999.3033, 43.58611
999.7854, 42.65265
1000.268, 42.01375
1000.750, 43.05246
1001.232, 44.60904
1001.714, 44.48571
1002.196, 42.85363
1002.678, 41.86758
1003.160, 43.03307
1003.642, 44.23724
1004.124, 44.93485
1004.607, 45.17439
1005.089, 44.95156
1005.571, 44.28947
1006.053, 43.68095
1006.535, 43.17613
1007.017, 43.00297
1007.499, 43.86485
1007.981, 44.92223
1008.464, 45.13857
1008.946, 43.83126
1009.428, 42.91733
1009.910, 42.46103
1010.392, 42.28653
1010.874, 42.33039
1011.356, 42.55257
1011.838, 42.97224
1012.320, 43.49939
1012.803, 43.63520
1013.285, 42.44812
1013.767, 41.49228
1014.249, 41.85080
1014.731, 42.90724
1015.213, 43.34749
1015.695, 43.08046
1016.177, 42.73277
1016.659, 42.38850
1017.142, 42.07717
1017.624, 41.81410
1018.106, 41.62138
1018.588, 41.56462
1019.070, 41.69211
1019.552, 41.67728
1020.034, 40.95725
1020.516, 40.76610
1020.999, 42.02742
1021.481, 44.28666
1021.963, 44.83427
1022.445, 43.90423
1022.927, 43.08933
1023.409, 43.27830
1023.891, 43.72419
1024.373, 44.28764
1024.855, 44.66441
1025.338, 44.21577
1025.820, 42.38615
1026.302, 41.34813
1026.784, 41.33408
1027.266, 41.77456
1027.748, 42.24216
1028.230, 42.68104
1028.712, 43.08875
1029.195, 43.43864
1029.677, 43.38111
1030.159, 42.10870
1030.641, 41.17811
1031.123, 41.34115
1031.605, 42.18158
1032.087, 42.14153
1032.569, 41.28395
1033.052, 40.80171
1033.534, 41.20946
1034.016, 41.75530
1034.498, 41.80949
1034.980, 41.58721
1035.462, 41.32553
1035.944, 41.01328
1036.426, 40.78278
1036.908, 40.62493
1037.391, 40.57500
1037.873, 40.66534
1038.355, 40.88230
1038.837, 41.30738
1039.319, 41.86055
1039.801, 42.17161
1040.283, 41.87299
1040.765, 41.52686
1041.247, 41.14555
1041.730, 40.92412
1042.212, 41.33113
1042.694, 42.37965
1043.176, 42.98689
1043.658, 42.96451
1044.140, 42.81101
1044.622, 43.16227
1045.104, 42.71970
1045.587, 43.14494
1046.069, 42.01549
1046.551, 41.23307
1047.033, 40.77462
1047.515, 40.86422
1047.997, 41.82059
1048.479, 43.11298
1048.961, 43.62229
1049.443, 43.51844
1049.926, 43.21515
1050.408, 42.71246
1050.890, 42.28851
1051.372, 42.05208
1051.854, 41.92919
1052.336, 41.85441
1052.818, 41.82259
1053.300, 42.02317
1053.782, 42.45972
1054.265, 42.72768
1054.747, 42.35933
1055.229, 41.85290
1055.711, 41.55542
1056.193, 41.47281
1056.675, 41.60045
1057.157, 42.09909
1057.639, 42.34838
1058.122, 42.20278
1058.604, 41.89980
1059.086, 41.76788
1059.568, 41.72057
1060.050, 41.55096
1060.532, 41.20894
1061.014, 40.96665
1061.496, 40.97916
1061.979, 41.08238
1062.461, 41.30315
1062.943, 41.54531
1063.425, 41.12392
1063.907, 40.14801
1064.389, 39.73467
1064.871, 40.58722
1065.353, 41.63342
1065.835, 42.17957
1066.318, 42.38050
1066.800, 42.45035
1067.282, 42.45082
1067.764, 42.17865
1068.246, 41.59738
1068.728, 40.92564
1069.210, 40.14366
1069.692, 39.48117
1070.174, 39.47418
1070.657, 39.94420
1071.139, 40.18121
1071.621, 39.40484
1072.103, 39.18122
1072.585, 40.05391
1073.067, 41.20385
1073.549, 41.22431
1074.031, 40.40923
1074.514, 40.11272
1074.996, 40.54554
1075.478, 40.97735
1075.960, 40.88386
1076.442, 40.69524
1076.924, 40.69132
1077.406, 40.83875
1077.888, 40.91178
1078.370, 40.90761
1078.853, 40.90529
1079.335, 40.96598
1079.817, 40.95998
1080.299, 40.68018
1080.781, 40.27055
1081.263, 39.91695
1081.745, 39.62567
1082.227, 39.44930
1082.709, 39.34325
1083.192, 39.47027
1083.674, 40.24681
1084.156, 41.21922
1084.638, 40.99908
1085.120, 39.92860
1085.602, 39.17831
1086.084, 39.42965
1086.566, 39.81495
1087.048, 40.20549
1087.531, 40.54723
1088.013, 40.79988
1088.495, 40.95639
1088.977, 40.94405
1089.459, 40.75792
1089.941, 40.36810
1090.423, 39.26542
1090.905, 38.40199
1091.388, 38.69627
1091.870, 39.81098
1092.352, 40.23776
1092.834, 39.85929
1093.316, 39.67263
1093.798, 39.96680
1094.280, 40.29340
1094.762, 40.13575
1095.245, 39.69187
1095.727, 39.14448
1096.209, 38.48236
1096.691, 38.02413
1097.173, 37.72770
1097.655, 37.78537
1098.137, 38.44134
1098.619, 39.36076
1099.101, 39.86067
1099.583, 39.96490
1100.066, 39.73167
1100.548, 38.87890
1101.030, 38.23260
1101.512, 38.14161
1101.994, 38.19756
1102.476, 38.12153
1102.958, 37.91968
1103.440, 37.46952
1103.923, 36.84583
1104.405, 36.81118
1104.887, 38.60364
1105.369, 40.28533
1105.851, 40.85652
1106.333, 40.52075
1106.815, 39.54727
1107.297, 37.71856
1107.780, 36.98034
1108.262, 37.61172
1108.744, 38.49750
1109.226, 38.65071
1109.708, 38.51873
1110.190, 38.51506
1110.672, 38.66196
1111.154, 38.85724
1111.636, 39.21301
1112.119, 39.24415
1112.601, 38.74153
1113.083, 38.09192
1113.565, 37.82100
1114.047, 37.83021
1114.529, 37.98044
1115.011, 38.27799
1115.493, 38.52593
1115.975, 38.98775
1116.458, 38.89359
1116.940, 37.57634
1117.422, 35.66082
1117.904, 35.23400
1118.386, 35.98593
1118.868, 36.89275
1119.350, 37.83336
1119.832, 38.36521
1120.315, 37.92250
1120.797, 37.30144
1121.279, 37.07679
1121.761, 37.24579
1122.243, 37.72681
1122.725, 38.47634
1123.207, 38.83764
1123.689, 38.08311
1124.172, 37.15650
1124.654, 36.40665
1125.136, 36.01338
1125.618, 36.28834
1126.100, 37.40432
1126.582, 38.40401
1127.064, 39.28533
1127.546, 39.55105
1128.028, 37.84449
1128.510, 36.01067
1128.993, 36.42734
1129.475, 38.62052
1129.957, 39.59026
1130.439, 38.59358
1130.921, 37.95296
1131.403, 38.13935
1131.885, 38.53390
1132.367, 38.24161
1132.850, 37.66990
1133.332, 37.57829
1133.814, 38.06886
1134.296, 38.03848
1134.778, 36.54456
1135.260, 35.77916
1135.742, 36.66950
1136.224, 38.34185
1136.707, 38.97178
1137.189, 38.87345
1137.671, 38.96774
1138.153, 39.64838
1138.635, 39.77700
1139.117, 38.04716
1139.599, 36.60487
1140.081, 36.73538
1140.563, 37.97819
1141.046, 37.93607
1141.528, 36.88229
1142.010, 36.23404
1142.492, 36.81313
1142.974, 37.48875
1143.456, 37.82109
1143.938, 37.86861
1144.420, 37.61351
1144.902, 37.02997
1145.385, 36.85160
1145.867, 37.06068
1146.349, 37.28123
1146.831, 36.99999
1147.313, 36.93953
1147.795, 38.17680
1148.277, 39.71397
1148.759, 39.79828
1149.242, 38.01336
1149.724, 36.88790
1150.206, 36.55511
1150.688, 36.71605
1151.170, 37.55609
1151.652, 38.41949
1152.134, 38.68147
1152.616, 38.42978
1153.099, 38.08629
1153.581, 37.69077
1154.063, 37.09737
1154.545, 36.18674
1155.027, 35.52215
1155.509, 36.00599
1155.991, 36.95247
1156.473, 37.52302
1156.955, 37.66872
1157.438, 37.80420
1157.920, 38.08776
1158.402, 38.05251
1158.884, 37.43447
1159.366, 36.82289
1159.848, 37.45338
1160.330, 38.56769
1160.812, 38.76064
1161.294, 37.70681
1161.777, 36.89779
1162.259, 36.62487
1162.741, 36.61963
1163.223, 36.86298
1163.705, 37.22467
1164.187, 37.47404
1164.669, 37.59963
1165.151, 37.53294
1165.634, 37.14323
1166.116, 36.97679
1166.598, 37.38446
1167.080, 37.76626
1167.562, 37.82646
1168.044, 37.63636
1168.526, 37.30306
1169.008, 36.93047
1169.490, 36.90044
1169.973, 37.55382
1170.455, 38.17335
1170.937, 38.68501
1171.419, 38.89044
1171.901, 38.52789
1172.383, 37.69048
1172.865, 36.99006
1173.347, 36.46852
1173.829, 36.29674
1174.312, 36.87923
1174.794, 37.45001
1175.276, 37.66634
1175.758, 37.75121
1176.240, 37.99406
1176.722, 38.37567
1177.204, 38.13575
1177.686, 37.31767
1178.169, 36.62116
1178.651, 36.50017
1179.133, 36.60364
1179.615, 36.77418
1180.097, 37.05249
1180.579, 37.68962
1181.061, 38.69139
1181.543, 38.60750
1182.026, 37.33654
1182.508, 36.34856
1182.990, 37.25517
1183.472, 38.25900
1183.954, 37.96214
1184.436, 36.94728
1184.918, 36.63761
1185.400, 37.09347
1185.882, 36.99457
1186.365, 36.12490
1186.847, 35.27572
1187.329, 35.03956
1187.811, 35.12714
1188.293, 35.41505
1188.775, 35.83599
1189.257, 36.14965
1189.739, 36.33179
1190.221, 36.87584
1190.704, 38.01027
1191.186, 38.76764
1191.668, 37.80673
1192.150, 36.38821
1192.632, 35.53827
1193.114, 35.28802
1193.596, 35.39643
1194.078, 35.90989
1194.561, 36.32804
1195.043, 36.50342
1195.525, 36.56582
1196.007, 36.49885
1196.489, 36.48545
1196.971, 36.76160
1197.453, 37.33639
1197.935, 37.83565
1198.417, 38.27149
1198.900, 38.48669
1199.382, 38.30137
1199.864, 38.18221
1200.346, 39.02113
1200.828, 39.96599
1201.310, 39.90254
1201.792, 38.63432
1202.274, 37.57536
1202.756, 36.70591
1203.239, 36.25244
1203.721, 36.44032
1204.203, 36.88081
1204.685, 37.62597
1205.167, 38.12838
1205.649, 37.36707
1206.131, 34.81775
1206.613, 33.68914
1207.096, 34.08286
1207.578, 34.89889
1208.060, 35.68861
1208.542, 36.42432
1209.024, 37.14336
1209.506, 37.75395
1209.988, 38.08586
1210.470, 38.17620
1210.953, 37.79033
1211.435, 36.83936
1211.917, 36.12084
1212.399, 36.44822
1212.881, 36.95545
1213.363, 36.39550
1213.845, 36.99520
1214.327, 37.46832
1214.809, 37.46620
1215.292, 38.47625
1215.774, 38.59823
1216.256, 38.31309
1216.738, 37.87835
1217.220, 37.28324
1217.702, 36.11174
1218.184, 34.87317
1218.666, 34.74067
1219.148, 36.18964
1219.631, 36.83444
1220.113, 36.50721
1220.595, 36.03353
1221.077, 36.10771
1221.559, 36.28909
1222.041, 36.04410
1222.523, 35.63184
1223.005, 35.70894
1223.488, 36.39693
1223.970, 37.12286
1224.452, 37.88137
1224.934, 38.32304
1225.416, 37.96140
1225.898, 37.35821
1226.380, 36.71936
1226.862, 36.28548
1227.344, 36.75532
1227.827, 38.44005
1228.309, 38.75005
1228.791, 37.36450
1229.273, 35.99474
1229.755, 36.23735
1230.237, 36.90611
1230.719, 37.20397
1231.201, 37.14956
1231.683, 36.84832
1232.166, 36.24603
1232.648, 36.07161
1233.130, 36.41505
1233.612, 37.00384
1234.094, 38.07146
1234.576, 38.87690
1235.058, 38.69526
1235.540, 37.85867
1236.023, 37.04285
1236.505, 36.23884
1236.987, 36.00682
1237.469, 36.43934
1237.951, 37.01944
1238.433, 37.50033
1238.915, 37.84633
1239.397, 37.97581
1239.880, 37.96863
1240.362, 37.99131
1240.844, 38.03703
1241.326, 37.96925
1241.808, 37.75709
1242.290, 37.59247
1242.772, 37.72581
1243.254, 37.80210
1243.736, 37.46242
1244.219, 37.03007
1244.701, 37.57393
1245.183, 38.84178
1245.665, 38.92106
1246.147, 37.39364
1246.629, 36.34071
1247.111, 37.60636
1247.593, 38.83179
1248.075, 38.87815
1248.558, 38.30774
1249.040, 38.48676
1249.522, 39.20494
1250.004, 39.61727
1250.486, 39.57790
1250.968, 39.35193
1251.450, 39.09787
1251.932, 38.55828
1252.415, 37.39748
1252.897, 36.20592
1253.379, 36.60052
1253.861, 37.95136
1254.343, 38.51691
1254.825, 37.95077
1255.307, 37.56118
1255.789, 38.00281
1256.271, 38.29589
1256.754, 38.05936
1257.236, 37.67757
1257.718, 38.03431
1258.200, 38.71351
1258.682, 38.83913
1259.164, 38.21853
1259.646, 37.87354
1260.128, 38.15226
1260.610, 38.22048
1261.093, 37.74917
1261.575, 37.13592
1262.057, 36.83299
1262.539, 36.86176
1263.021, 37.36863
1263.503, 38.41215
1263.985, 39.23674
1264.467, 39.90912
1264.950, 39.96360
1265.432, 39.15326
1265.914, 38.00283
1266.396, 36.64233
1266.878, 35.67630
1267.360, 36.11185
1267.842, 38.05351
1268.324, 39.12555
1268.807, 39.21655
1269.289, 39.34847
1269.771, 39.85363
1270.253, 40.33557
1270.735, 40.68547
1271.217, 40.61801
1271.699, 39.37222
1272.181, 37.32481
1272.663, 36.96894
1273.146, 38.27320
1273.628, 39.27851
1274.110, 39.42283
1274.592, 39.38219
1275.074, 39.85356
1275.556, 40.11198
1276.038, 39.49940
1276.520, 38.35918
1277.002, 38.05667
1277.485, 38.46302
1277.967, 38.77570
1278.449, 38.76866
1278.931, 38.83898
1279.413, 39.49751
1279.895, 39.91285
1280.377, 39.64696
1280.859, 38.95765
1281.342, 38.34899
1281.824, 37.88429
1282.306, 37.76923
1282.788, 38.08492
1283.270, 38.47449
1283.752, 38.83506
1284.234, 39.27325
1284.716, 39.88280
1285.198, 40.49151
1285.681, 40.78210
1286.163, 40.84941
1286.645, 40.85864
1287.127, 40.83366
1287.609, 40.78122
1288.091, 40.74112
1288.573, 40.57170
1289.055, 40.22723
1289.537, 39.74363
1290.020, 38.80689
1290.502, 37.99893
1290.984, 38.15477
1291.466, 39.36173
1291.948, 40.31126
1292.430, 41.00970
1292.912, 41.37378
1293.394, 41.33390
1293.877, 41.16591
1294.359, 41.14820
1294.841, 41.10303
1295.323, 40.82220
1295.805, 40.37693
1296.287, 40.04258
1296.769, 39.80959
1297.251, 39.46489
1297.734, 38.90142
1298.216, 38.78035
1298.698, 40.08131
1299.180, 41.34093
1299.662, 41.88388
1300.144, 41.84692
1300.626, 41.33099
1301.108, 40.52826
1301.590, 40.19518
1302.073, 40.47449
1302.555, 40.62849
1303.037, 39.97272
1303.519, 39.72266
1304.001, 40.31207
1304.483, 41.21938
1304.965, 41.78641
##END=



