##NAMES=Columbite-(Mn)
##RRUFFID=R040083
##IDEAL CHEMISTRY=Mn^2+^Nb^5+^_2_O_6_
##LOCALITY=Mina Miramica, Santa Cruz, Bolivia
##OWNER=RRUFF
##SOURCE=University of Arizona Mineral Museum
##DESCRIPTION=Fragment consisting of multiple phases as shown by both X-ray diffraction and microprobe.
##STATUS=The identification of this mineral has been confirmed by X-ray diffraction and chemical analysis
##URL=rruff.info/R040083
##MEASURED CHEMISTRY=Light bands: (Mn^2+^_0.78_Fe^2+^_0.21_Ti_0.01_)(Nb_0.74_Ta_0.25_Ti_0.01_)_2_O_6_; Dark bands:(Mn^2+^_0.73_Fe^2+^_0.26_Ti_0.01_)(Nb_0.86_Ta_0.13_Ti_0.01_)_2_O_6_
153.9312, 20330.93
154.4133, 20242.89
154.8954, 20220.83
155.3775, 20246.31
155.8597, 20264.96
156.3418, 20257.85
156.8239, 20260.60
157.3060, 20286.93
157.7881, 20334.61
158.2702, 20403.25
158.7524, 20501.29
159.2345, 20613.63
159.7166, 20700.05
160.1987, 20737.08
160.6808, 20781.03
161.1629, 20880.61
161.6451, 21028.70
162.1272, 21168.55
162.6093, 21277.16
163.0914, 21358.97
163.5735, 21427.60
164.0556, 21472.66
164.5378, 21522.89
165.0199, 21615.27
165.5020, 21748.61
165.9841, 21858.48
166.4662, 21901.05
166.9483, 21905.10
167.4305, 21925.89
167.9126, 21978.80
168.3947, 22039.13
168.8768, 22086.93
169.3589, 22122.45
169.8410, 22146.75
170.3232, 22147.18
170.8053, 22140.11
171.2874, 22151.96
171.7695, 22187.42
172.2516, 22239.93
172.7337, 22310.32
173.2159, 22400.59
173.6980, 22478.85
174.1801, 22515.29
174.6622, 22531.69
175.1443, 22559.09
175.6264, 22605.38
176.1086, 22660.78
176.5907, 22715.43
177.0728, 22768.59
177.5549, 22820.00
178.0370, 22853.22
178.5191, 22888.57
179.0013, 22955.30
179.4834, 23070.55
179.9655, 23207.60
180.4476, 23334.04
180.9297, 23448.42
181.4118, 23559.53
181.8940, 23681.74
182.3761, 23800.57
182.8582, 23895.65
183.3403, 23953.58
183.8224, 23995.79
184.3046, 24048.52
184.7867, 24112.18
185.2688, 24184.72
185.7509, 24260.66
186.2330, 24346.80
186.7151, 24457.63
187.1973, 24610.86
187.6794, 24770.27
188.1615, 24884.25
188.6436, 24943.55
189.1257, 24995.45
189.6078, 25057.47
190.0900, 25123.72
190.5721, 25189.05
191.0542, 25250.52
191.5363, 25312.41
192.0184, 25380.38
192.5005, 25454.36
192.9827, 25534.80
193.4648, 25628.08
193.9469, 25726.40
194.4290, 25823.52
194.9111, 25918.53
195.3932, 26010.62
195.8754, 26095.88
196.3575, 26171.96
196.8396, 26254.57
197.3217, 26362.33
197.8038, 26474.63
198.2859, 26575.33
198.7681, 26662.64
199.2502, 26732.60
199.7323, 26767.36
200.2144, 26754.08
200.6965, 26771.92
201.1786, 26881.72
201.6608, 27021.85
202.1429, 27145.22
202.6250, 27241.61
203.1071, 27317.16
203.5892, 27377.63
204.0713, 27422.22
204.5535, 27455.69
205.0356, 27449.61
205.5177, 27448.16
205.9998, 27499.12
206.4819, 27620.98
206.9640, 27749.78
207.4462, 27806.78
207.9283, 27783.50
208.4104, 27764.65
208.8925, 27768.60
209.3746, 27791.03
209.8567, 27833.08
210.3388, 27896.56
210.8210, 27965.97
211.3031, 28028.26
211.7852, 28083.54
212.2673, 28129.94
212.7494, 28164.04
213.2315, 28189.92
213.7137, 28204.54
214.1958, 28206.52
214.6779, 28219.07
215.1600, 28276.49
215.6421, 28377.67
216.1242, 28449.78
216.6064, 28463.42
217.0885, 28453.42
217.5706, 28443.77
218.0527, 28436.29
218.5348, 28437.99
219.0169, 28464.51
219.4991, 28512.16
219.9812, 28538.13
220.4633, 28525.36
220.9454, 28498.45
221.4275, 28473.79
221.9096, 28452.25
222.3918, 28441.59
222.8739, 28453.17
223.3560, 28482.21
223.8381, 28503.99
224.3202, 28516.76
224.8023, 28517.43
225.2845, 28503.77
225.7666, 28476.59
226.2487, 28442.11
226.7308, 28388.42
227.2129, 28328.05
227.6950, 28304.67
228.1772, 28334.64
228.6593, 28379.66
229.1414, 28425.45
229.6235, 28465.73
230.1056, 28468.43
230.5877, 28380.39
231.0699, 28251.40
231.5520, 28194.32
232.0341, 28237.10
232.5162, 28296.07
232.9983, 28303.17
233.4804, 28276.26
233.9626, 28257.35
234.4447, 28268.76
234.9268, 28292.97
235.4089, 28301.98
235.8910, 28292.11
236.3731, 28283.29
236.8553, 28289.64
237.3374, 28307.63
237.8195, 28330.07
238.3016, 28371.85
238.7837, 28407.79
239.2658, 28401.61
239.7480, 28351.61
240.2301, 28307.33
240.7122, 28302.62
241.1943, 28324.99
241.6764, 28340.06
242.1585, 28357.80
242.6407, 28355.59
243.1228, 28298.34
243.6049, 28193.81
244.0870, 28110.59
244.5691, 28091.26
245.0512, 28113.05
245.5334, 28109.97
246.0155, 28065.51
246.4976, 28021.23
246.9797, 28005.52
247.4618, 28009.58
247.9439, 28002.40
248.4261, 27967.38
248.9082, 27918.42
249.3903, 27886.68
249.8724, 27877.03
250.3545, 27869.24
250.8366, 27844.61
251.3188, 27818.01
251.8009, 27827.78
252.2830, 27894.51
252.7651, 27973.85
253.2472, 27978.15
253.7293, 27877.83
254.2115, 27808.32
254.6936, 27817.85
255.1757, 27861.71
255.6578, 27882.67
256.1399, 27866.70
256.6220, 27840.26
257.1042, 27838.79
257.5863, 27875.27
258.0684, 27893.22
258.5505, 27880.62
259.0326, 27855.84
259.5147, 27834.89
259.9969, 27819.41
260.4790, 27799.10
260.9611, 27759.87
261.4432, 27695.56
261.9253, 27662.82
262.4074, 27693.35
262.8896, 27724.82
263.3717, 27720.26
263.8538, 27684.18
264.3359, 27644.70
264.8180, 27623.85
265.3001, 27621.42
265.7823, 27608.27
266.2644, 27582.23
266.7465, 27549.44
267.2286, 27508.29
267.7107, 27461.77
268.1928, 27410.68
268.6750, 27353.20
269.1571, 27296.38
269.6392, 27278.01
270.1213, 27365.48
270.6034, 27415.54
271.0855, 27389.47
271.5677, 27326.12
272.0498, 27268.71
272.5319, 27235.77
273.0140, 27221.44
273.4961, 27213.05
273.9782, 27207.76
274.4604, 27214.35
274.9425, 27247.82
275.4246, 27282.87
275.9067, 27299.17
276.3888, 27292.17
276.8709, 27271.68
277.3531, 27249.11
277.8352, 27222.62
278.3173, 27201.07
278.7994, 27196.26
279.2815, 27187.53
279.7636, 27157.46
280.2458, 27109.84
280.7279, 27067.38
281.2100, 27060.68
281.6921, 27092.09
282.1742, 27087.28
282.6563, 27001.51
283.1385, 26928.67
283.6206, 26929.22
284.1027, 26975.24
284.5848, 26997.73
285.0669, 26942.24
285.5490, 26832.92
286.0312, 26758.19
286.5133, 26729.33
286.9954, 26713.21
287.4775, 26703.77
287.9596, 26694.51
288.4417, 26675.19
288.9239, 26639.04
289.4060, 26595.37
289.8881, 26554.25
290.3702, 26514.46
290.8523, 26485.89
291.3344, 26478.84
291.8166, 26482.22
292.2987, 26484.23
292.7808, 26484.87
293.2629, 26478.96
293.7450, 26459.14
294.2271, 26427.48
294.7093, 26396.98
295.1914, 26372.26
295.6735, 26348.40
296.1556, 26316.71
296.6377, 26275.69
297.1198, 26239.52
297.6020, 26207.04
298.0841, 26184.47
298.5662, 26189.61
299.0483, 26230.09
299.5304, 26272.60
300.0125, 26277.08
300.4947, 26242.41
300.9768, 26222.35
301.4589, 26235.67
301.9410, 26257.25
302.4231, 26269.29
302.9052, 26270.26
303.3874, 26259.86
303.8695, 26232.57
304.3516, 26191.30
304.8337, 26182.01
305.3158, 26244.20
305.7979, 26292.73
306.2801, 26281.54
306.7622, 26232.88
307.2443, 26196.07
307.7264, 26197.52
308.2085, 26224.30
308.6906, 26234.73
309.1728, 26209.31
309.6549, 26190.54
310.1370, 26181.61
310.6191, 26179.72
311.1012, 26187.39
311.5833, 26203.59
312.0655, 26214.88
312.5476, 26195.36
313.0297, 26114.79
313.5118, 26076.67
313.9939, 26106.46
314.4760, 26150.06
314.9582, 26180.33
315.4403, 26194.79
315.9224, 26203.67
316.4045, 26216.87
316.8866, 26234.29
317.3687, 26242.45
317.8509, 26229.78
318.3330, 26220.21
318.8151, 26226.97
319.2972, 26241.38
319.7793, 26247.02
320.2614, 26232.10
320.7436, 26206.95
321.2257, 26192.63
321.7078, 26182.99
322.1899, 26202.39
322.6720, 26291.52
323.1541, 26399.14
323.6363, 26478.47
324.1184, 26518.26
324.6005, 26534.02
325.0826, 26534.07
325.5647, 26519.82
326.0468, 26509.55
326.5290, 26511.46
327.0111, 26515.27
327.4932, 26503.23
327.9753, 26474.96
328.4574, 26466.44
328.9395, 26510.04
329.4217, 26579.57
329.9038, 26632.31
330.3859, 26663.17
330.8680, 26672.80
331.3501, 26649.97
331.8322, 26598.57
332.3144, 26571.62
332.7965, 26589.12
333.2786, 26618.36
333.7607, 26641.60
334.2428, 26657.47
334.7249, 26663.31
335.2070, 26654.96
335.6891, 26637.41
336.1713, 26633.97
336.6534, 26656.79
337.1355, 26676.10
337.6176, 26677.50
338.0997, 26675.33
338.5818, 26690.10
339.0640, 26728.06
339.5461, 26775.82
340.0282, 26812.14
340.5103, 26833.25
340.9924, 26849.68
341.4745, 26856.79
341.9567, 26863.45
342.4388, 26876.29
342.9209, 26894.26
343.4030, 26911.45
343.8851, 26923.43
344.3672, 26930.17
344.8494, 26928.99
345.3315, 26894.88
345.8136, 26885.43
346.2957, 26940.33
346.7778, 27023.16
347.2599, 27078.59
347.7421, 27078.69
348.2242, 27049.80
348.7063, 27039.69
349.1884, 27052.07
349.6705, 27068.60
350.1526, 27091.27
350.6348, 27112.01
351.1169, 27122.35
351.5990, 27121.05
352.0811, 27119.29
352.5632, 27119.71
353.0453, 27125.43
353.5275, 27151.32
354.0096, 27205.80
354.4917, 27266.59
354.9738, 27312.31
355.4559, 27345.63
355.9380, 27374.61
356.4202, 27405.48
356.9023, 27429.52
357.3844, 27421.01
357.8665, 27386.33
358.3486, 27390.64
358.8307, 27488.85
359.3129, 27650.14
359.7950, 27733.00
360.2771, 27680.77
360.7592, 27630.83
361.2413, 27617.86
361.7234, 27628.67
362.2056, 27650.40
362.6877, 27678.42
363.1698, 27701.16
363.6519, 27696.50
364.1340, 27634.67
364.6161, 27621.82
365.0983, 27694.75
365.5804, 27778.59
366.0625, 27833.11
366.5446, 27858.24
367.0267, 27871.77
367.5089, 27886.46
367.9910, 27902.47
368.4731, 27920.80
368.9552, 27950.82
369.4373, 27969.31
369.9194, 27959.66
370.4016, 27940.58
370.8837, 27934.50
371.3658, 27950.05
371.8479, 27977.54
372.3300, 28010.39
372.8121, 28050.49
373.2943, 28067.75
373.7764, 28031.62
374.2585, 27993.45
374.7406, 28011.29
375.2227, 28081.40
375.7048, 28124.46
376.1870, 28076.39
376.6691, 27981.15
377.1512, 27923.76
377.6333, 27914.53
378.1154, 27909.98
378.5975, 27882.69
379.0797, 27832.41
379.5618, 27770.79
380.0439, 27675.17
380.5260, 27590.79
381.0081, 27547.24
381.4902, 27531.05
381.9724, 27512.53
382.4545, 27479.93
382.9366, 27436.25
383.4187, 27387.60
383.9008, 27334.37
384.3829, 27272.60
384.8651, 27199.62
385.3472, 27119.73
385.8293, 27030.13
386.3114, 26934.25
386.7935, 26846.04
387.2756, 26779.98
387.7578, 26735.23
388.2399, 26678.02
388.7220, 26599.65
389.2041, 26519.87
389.6862, 26439.35
390.1683, 26362.83
390.6505, 26299.17
391.1326, 26254.38
391.6147, 26210.56
392.0968, 26140.12
392.5789, 26040.94
393.0610, 25938.00
393.5432, 25838.88
394.0253, 25735.21
394.5074, 25614.38
394.9895, 25478.77
395.4716, 25358.65
395.9537, 25281.16
396.4359, 25223.81
396.9180, 25149.60
397.4001, 25055.37
397.8822, 24955.14
398.3643, 24855.92
398.8464, 24758.23
399.3286, 24662.87
399.8107, 24579.58
400.2928, 24487.74
400.7749, 24370.16
401.2570, 24239.95
401.7391, 24121.25
402.2213, 24021.15
402.7034, 23929.71
403.1855, 23832.12
403.6676, 23725.13
404.1497, 23619.02
404.6318, 23518.66
405.1140, 23414.07
405.5961, 23288.68
406.0782, 23153.44
406.5603, 23039.65
407.0424, 22973.26
407.5245, 22939.69
408.0067, 22879.45
408.4888, 22788.72
408.9709, 22677.15
409.4530, 22521.63
409.9351, 22362.35
410.4172, 22240.46
410.8994, 22164.69
411.3815, 22103.63
411.8636, 22032.73
412.3457, 21953.48
412.8278, 21868.12
413.3099, 21770.95
413.7921, 21681.53
414.2742, 21640.72
414.7563, 21627.56
415.2384, 21561.22
415.7205, 21369.90
416.2026, 21167.08
416.6848, 21052.94
417.1669, 21006.53
417.6490, 20945.15
418.1311, 20828.14
418.6132, 20681.94
419.0953, 20564.62
419.5775, 20483.98
420.0596, 20421.08
420.5417, 20399.73
421.0238, 20378.52
421.5059, 20325.66
421.9880, 20239.03
422.4702, 20132.15
422.9523, 20014.04
423.4344, 19885.50
423.9165, 19769.97
424.3986, 19667.73
424.8807, 19580.30
425.3629, 19520.92
425.8450, 19469.21
426.3271, 19401.33
426.8092, 19309.49
427.2913, 19207.26
427.7734, 19102.71
428.2556, 18997.23
428.7377, 18912.10
429.2198, 18861.72
429.7019, 18814.70
430.1840, 18737.98
430.6661, 18639.43
431.1483, 18551.73
431.6304, 18495.46
432.1125, 18445.07
432.5946, 18375.91
433.0767, 18291.12
433.5588, 18206.33
434.0410, 18126.70
434.5231, 18055.11
435.0052, 17999.77
435.4873, 17974.59
435.9694, 17941.15
436.4515, 17893.74
436.9337, 17839.88
437.4158, 17790.27
437.8979, 17742.32
438.3800, 17679.77
438.8621, 17583.04
439.3442, 17457.37
439.8264, 17365.22
440.3085, 17334.00
440.7906, 17295.86
441.2727, 17230.30
441.7548, 17151.89
442.2369, 17072.40
442.7191, 16994.47
443.2012, 16927.60
443.6833, 16893.85
444.1654, 16885.59
444.6475, 16845.05
445.1296, 16753.42
445.6118, 16652.33
446.0939, 16578.14
446.5760, 16524.38
447.0581, 16468.82
447.5402, 16396.39
448.0223, 16331.24
448.5045, 16295.84
448.9866, 16281.24
449.4687, 16264.84
449.9508, 16238.82
450.4329, 16199.29
450.9150, 16136.78
451.3972, 16026.82
451.8793, 15948.53
452.3614, 15927.83
452.8435, 15914.53
453.3256, 15881.56
453.8077, 15829.55
454.2899, 15768.41
454.7720, 15702.55
455.2541, 15636.14
455.7362, 15585.93
456.2183, 15561.19
456.7004, 15528.52
457.1826, 15465.69
457.6647, 15399.43
458.1468, 15353.67
458.6289, 15330.51
459.1110, 15306.42
459.5931, 15259.34
460.0753, 15202.60
460.5574, 15170.46
461.0395, 15167.94
461.5216, 15157.23
462.0037, 15109.76
462.4858, 15033.63
462.9680, 14970.34
463.4501, 14927.75
463.9322, 14887.26
464.4143, 14842.61
464.8964, 14797.98
465.3785, 14759.67
465.8607, 14728.78
466.3428, 14701.11
466.8249, 14672.76
467.3070, 14644.30
467.7891, 14609.80
468.2712, 14562.06
468.7534, 14516.20
469.2355, 14470.88
469.7176, 14431.47
470.1997, 14409.33
470.6818, 14411.33
471.1639, 14412.38
471.6461, 14377.39
472.1282, 14308.76
472.6103, 14245.22
473.0924, 14192.80
473.5745, 14145.99
474.0566, 14104.82
474.5388, 14066.41
475.0209, 14017.04
475.5030, 13932.64
475.9851, 13855.53
476.4672, 13822.51
476.9493, 13820.07
477.4315, 13814.78
477.9136, 13793.83
478.3957, 13758.85
478.8778, 13711.72
479.3599, 13643.89
479.8420, 13585.24
480.3242, 13534.85
480.8063, 13493.09
481.2884, 13468.81
481.7705, 13453.32
482.2526, 13428.54
482.7347, 13383.95
483.2169, 13326.03
483.6990, 13264.33
484.1811, 13196.12
484.6632, 13142.02
485.1453, 13114.88
485.6274, 13096.68
486.1096, 13071.58
486.5917, 13039.85
487.0738, 13006.12
487.5559, 12968.40
488.0380, 12932.02
488.5201, 12911.22
489.0023, 12901.16
489.4844, 12871.62
489.9665, 12804.25
490.4486, 12714.01
490.9307, 12635.85
491.4128, 12570.67
491.8950, 12518.27
492.3771, 12491.80
492.8592, 12467.28
493.3413, 12424.08
493.8234, 12366.43
494.3055, 12314.54
494.7877, 12284.60
495.2698, 12267.90
495.7519, 12234.33
496.2340, 12176.73
496.7161, 12125.37
497.1982, 12101.63
497.6804, 12078.06
498.1625, 12024.35
498.6446, 11938.81
499.1267, 11862.21
499.6088, 11817.41
500.0909, 11790.00
500.5730, 11763.40
501.0551, 11736.46
501.5373, 11710.80
502.0194, 11688.79
502.5015, 11666.94
502.9836, 11634.53
503.4657, 11593.58
503.9478, 11538.38
504.4300, 11451.22
504.9121, 11363.25
505.3942, 11296.22
505.8763, 11251.20
506.3584, 11218.56
506.8405, 11194.38
507.3227, 11175.09
507.8048, 11145.49
508.2869, 11099.39
508.7690, 11064.73
509.2511, 11067.41
509.7332, 11073.13
510.2154, 11048.18
510.6975, 10990.42
511.1796, 10925.47
511.6617, 10856.62
512.1439, 10791.03
512.6260, 10736.99
513.1081, 10694.71
513.5902, 10664.10
514.0723, 10648.35
514.5544, 10638.42
515.0366, 10608.24
515.5187, 10536.46
516.0008, 10474.18
516.4829, 10429.33
516.9650, 10387.45
517.4471, 10334.91
517.9293, 10275.55
518.4114, 10226.75
518.8935, 10202.67
519.3756, 10193.31
519.8577, 10171.39
520.3398, 10134.68
520.8220, 10098.93
521.3041, 10076.96
521.7862, 10049.90
522.2683, 9988.365
522.7504, 9892.066
523.2325, 9820.477
523.7147, 9812.047
524.1968, 9821.923
524.6789, 9813.609
525.1610, 9786.603
525.6431, 9745.551
526.1252, 9690.710
526.6074, 9632.762
527.0895, 9596.843
527.5716, 9600.400
528.0537, 9589.325
528.5358, 9549.533
529.0179, 9510.386
529.5001, 9496.172
529.9822, 9494.445
530.4643, 9471.780
530.9464, 9405.246
531.4285, 9323.459
531.9106, 9273.089
532.3928, 9253.103
532.8749, 9224.856
533.3570, 9173.184
533.8391, 9121.899
534.3212, 9104.354
534.8033, 9117.908
535.2855, 9110.080
535.7676, 9057.100
536.2497, 8999.697
536.7318, 8959.040
537.2139, 8930.312
537.6960, 8908.688
538.1782, 8891.539
538.6603, 8865.759
539.1424, 8807.402
539.6245, 8708.277
540.1066, 8631.403
540.5887, 8587.573
541.0709, 8554.622
541.5530, 8527.675
542.0351, 8504.597
542.5172, 8483.086
542.9993, 8463.617
543.4814, 8441.629
543.9636, 8409.996
544.4457, 8373.231
544.9278, 8346.034
545.4099, 8331.322
545.8920, 8310.871
546.3741, 8267.602
546.8563, 8204.868
547.3384, 8154.997
547.8205, 8123.865
548.3026, 8096.125
548.7847, 8077.042
549.2668, 8055.464
549.7490, 8016.382
550.2311, 7961.171
550.7132, 7908.646
551.1953, 7876.736
551.6774, 7860.313
552.1595, 7838.018
552.6417, 7808.079
553.1238, 7780.471
553.6059, 7762.467
554.0880, 7746.206
554.5701, 7720.828
555.0522, 7685.456
555.5344, 7650.308
556.0165, 7615.220
556.4986, 7584.434
556.9807, 7567.890
557.4628, 7559.974
557.9449, 7540.221
558.4271, 7497.206
558.9092, 7443.850
559.3913, 7408.818
559.8734, 7403.648
560.3555, 7386.318
560.8376, 7339.673
561.3198, 7296.009
561.8019, 7273.049
562.2840, 7263.024
562.7661, 7248.794
563.2482, 7223.454
563.7303, 7192.348
564.2125, 7157.627
564.6946, 7121.223
565.1767, 7091.391
565.6588, 7070.366
566.1409, 7051.996
566.6230, 7031.583
567.1052, 7009.107
567.5873, 6981.573
568.0694, 6937.760
568.5515, 6903.444
569.0336, 6890.268
569.5157, 6886.022
569.9979, 6880.758
570.4800, 6871.446
570.9621, 6856.707
571.4442, 6835.983
571.9263, 6808.838
572.4084, 6771.442
572.8906, 6721.627
573.3727, 6672.873
573.8548, 6624.715
574.3369, 6585.876
574.8190, 6574.664
575.3011, 6596.515
575.7833, 6604.537
576.2654, 6581.704
576.7475, 6546.894
577.2296, 6508.705
577.7117, 6470.883
578.1938, 6439.484
578.6760, 6417.256
579.1581, 6401.331
579.6402, 6388.277
580.1223, 6380.309
580.6044, 6363.935
581.0865, 6331.106
581.5686, 6299.345
582.0507, 6278.811
582.5328, 6264.852
583.0150, 6248.848
583.4971, 6228.570
583.9792, 6206.433
584.4613, 6178.428
584.9434, 6151.413
585.4255, 6143.044
585.9077, 6153.715
586.3898, 6157.664
586.8719, 6133.309
587.3540, 6086.702
587.8361, 6053.842
588.3182, 6058.729
588.8004, 6037.931
589.2825, 5956.512
589.7646, 5873.621
590.2467, 5832.907
590.7288, 5830.658
591.2109, 5835.057
591.6931, 5833.147
592.1752, 5824.131
592.6573, 5804.340
593.1394, 5775.391
593.6215, 5745.395
594.1036, 5715.246
594.5858, 5690.541
595.0679, 5680.069
595.5500, 5686.577
596.0321, 5678.927
596.5142, 5648.557
596.9963, 5616.090
597.4785, 5585.681
597.9606, 5557.472
598.4427, 5531.479
598.9248, 5507.514
599.4069, 5484.536
599.8890, 5461.669
600.3712, 5439.011
600.8533, 5416.298
601.3354, 5393.295
601.8175, 5373.158
602.2996, 5358.248
602.7817, 5346.107
603.2639, 5334.083
603.7460, 5324.734
604.2281, 5304.958
604.7102, 5258.588
605.1923, 5215.630
605.6744, 5198.964
606.1566, 5198.166
606.6387, 5192.117
607.1208, 5172.219
607.6029, 5145.780
608.0850, 5121.691
608.5671, 5099.959
609.0493, 5079.697
609.5314, 5061.325
610.0135, 5042.859
610.4956, 5021.226
610.9777, 4999.505
611.4598, 4985.825
611.9420, 4987.613
612.4241, 4978.589
612.9062, 4945.107
613.3883, 4901.931
613.8704, 4857.433
614.3525, 4815.163
614.8347, 4781.287
615.3168, 4759.149
615.7989, 4746.619
616.2810, 4742.245
616.7631, 4748.593
617.2452, 4745.821
617.7274, 4730.621
618.2095, 4707.871
618.6916, 4676.161
619.1737, 4639.912
619.6558, 4609.356
620.1379, 4589.326
620.6201, 4569.586
621.1022, 4543.379
621.5843, 4515.891
622.0664, 4494.440
622.5485, 4479.235
623.0306, 4465.941
623.5128, 4451.896
623.9949, 4436.489
624.4770, 4416.995
624.9591, 4392.029
625.4412, 4367.917
625.9233, 4342.930
626.4055, 4322.103
626.8876, 4311.364
627.3697, 4307.599
627.8518, 4300.416
628.3339, 4286.911
628.8160, 4269.841
629.2982, 4251.735
629.7803, 4230.774
630.2624, 4200.926
630.7445, 4162.869
631.2266, 4129.100
631.7087, 4111.218
632.1909, 4104.843
632.6730, 4086.154
633.1551, 4047.230
633.6372, 4016.226
634.1193, 4005.779
634.6014, 3998.377
635.0836, 3979.474
635.5657, 3951.925
636.0478, 3930.700
636.5299, 3926.457
637.0120, 3923.662
637.4941, 3912.817
637.9763, 3895.615
638.4584, 3873.431
638.9405, 3847.244
639.4226, 3822.243
639.9047, 3803.974
640.3868, 3790.903
640.8690, 3770.515
641.3511, 3737.344
641.8332, 3709.851
642.3153, 3699.031
642.7974, 3689.666
643.2795, 3667.552
643.7617, 3635.188
644.2438, 3609.750
644.7259, 3599.663
645.2080, 3595.310
645.6901, 3594.714
646.1722, 3593.736
646.6544, 3582.268
647.1365, 3559.210
647.6186, 3537.304
648.1007, 3531.043
648.5828, 3536.350
649.0649, 3520.217
649.5471, 3469.383
650.0292, 3430.258
650.5113, 3422.714
650.9934, 3423.415
651.4755, 3413.846
651.9576, 3395.056
652.4398, 3377.417
652.9219, 3363.776
653.4040, 3352.337
653.8861, 3345.288
654.3682, 3338.538
654.8503, 3324.037
655.3325, 3300.737
655.8146, 3275.369
656.2967, 3253.659
656.7788, 3235.461
657.2609, 3219.922
657.7430, 3206.735
658.2252, 3197.548
658.7073, 3199.975
659.1894, 3199.214
659.6715, 3176.710
660.1536, 3136.631
660.6357, 3108.364
661.1179, 3109.010
661.6000, 3110.428
662.0821, 3096.839
662.5642, 3075.867
663.0463, 3056.830
663.5284, 3042.123
664.0106, 3031.404
664.4927, 3025.118
664.9748, 3021.765
665.4569, 3016.774
665.9390, 3010.463
666.4211, 2999.856
666.9033, 2980.308
667.3854, 2961.879
667.8675, 2957.768
668.3496, 2964.802
668.8317, 2963.481
669.3138, 2950.469
669.7960, 2931.011
670.2781, 2897.848
670.7602, 2864.803
671.2423, 2850.275
671.7244, 2852.404
672.2065, 2852.121
672.6887, 2835.196
673.1708, 2809.426
673.6529, 2790.505
674.1350, 2778.374
674.6171, 2772.311
675.0992, 2775.220
675.5814, 2775.360
676.0635, 2760.565
676.5456, 2733.574
677.0277, 2715.377
677.5098, 2712.104
677.9919, 2708.295
678.4741, 2701.125
678.9562, 2693.078
679.4383, 2685.764
679.9204, 2679.324
680.4025, 2673.885
680.8846, 2670.038
681.3668, 2665.370
681.8489, 2658.536
682.3310, 2648.430
682.8131, 2625.824
683.2952, 2587.959
683.7773, 2559.757
684.2595, 2561.725
684.7416, 2583.504
685.2237, 2587.970
685.7058, 2561.848
686.1879, 2539.929
686.6700, 2520.315
687.1522, 2506.776
687.6343, 2505.272
688.1164, 2510.357
688.5985, 2511.512
689.0806, 2505.064
689.5627, 2495.713
690.0449, 2486.658
690.5270, 2477.345
691.0091, 2467.157
691.4912, 2455.869
691.9733, 2442.334
692.4554, 2425.691
692.9376, 2407.832
693.4197, 2392.357
693.9018, 2378.767
694.3839, 2369.769
694.8660, 2369.415
695.3481, 2367.846
695.8303, 2359.857
696.3124, 2348.906
696.7945, 2339.343
697.2766, 2331.786
697.7587, 2324.530
698.2408, 2318.083
698.7230, 2310.681
699.2051, 2300.171
699.6872, 2287.622
700.1693, 2274.776
700.6514, 2262.485
701.1335, 2252.017
701.6157, 2245.804
702.0978, 2243.090
702.5799, 2236.659
703.0620, 2225.036
703.5441, 2217.037
704.0262, 2217.834
704.5084, 2220.987
704.9905, 2218.060
705.4726, 2208.639
705.9547, 2200.323
706.4368, 2195.486
706.9189, 2189.257
707.4011, 2179.438
707.8832, 2167.644
708.3653, 2154.433
708.8474, 2140.766
709.3295, 2129.919
709.8116, 2125.627
710.2938, 2123.453
710.7759, 2115.009
711.2580, 2101.803
711.7401, 2090.622
712.2222, 2082.622
712.7043, 2081.862
713.1865, 2094.323
713.6686, 2116.104
714.1507, 2123.267
714.6328, 2109.468
715.1149, 2092.377
715.5970, 2066.809
716.0792, 2044.788
716.5613, 2034.771
717.0434, 2033.516
717.5255, 2033.178
718.0076, 2032.805
718.4897, 2029.836
718.9719, 2017.855
719.4540, 2005.304
719.9361, 2007.191
720.4182, 2019.982
720.9003, 2024.623
721.3824, 2010.982
721.8646, 1989.489
722.3467, 1979.067
722.8288, 1980.376
723.3109, 1972.956
723.7930, 1951.802
724.2751, 1935.232
724.7573, 1934.689
725.2394, 1941.570
725.7215, 1940.770
726.2036, 1931.322
726.6857, 1921.196
727.1678, 1908.008
727.6500, 1897.668
728.1321, 1894.692
728.6142, 1895.214
729.0963, 1894.918
729.5784, 1892.598
730.0605, 1887.940
730.5427, 1878.028
731.0248, 1867.462
731.5069, 1865.897
731.9890, 1871.244
732.4711, 1873.322
732.9532, 1869.420
733.4354, 1862.335
733.9175, 1853.770
734.3996, 1844.597
734.8817, 1842.370
735.3638, 1854.480
735.8459, 1857.899
736.3281, 1840.882
736.8102, 1822.581
737.2923, 1813.042
737.7744, 1811.279
738.2565, 1814.741
738.7386, 1827.130
739.2208, 1835.866
739.7029, 1832.924
740.1850, 1825.539
740.6671, 1820.908
741.1492, 1818.518
741.6313, 1815.863
742.1135, 1811.928
742.5956, 1802.521
743.0777, 1773.786
743.5598, 1731.958
744.0419, 1718.945
744.5240, 1738.669
745.0062, 1763.321
745.4883, 1784.047
745.9704, 1797.299
746.4525, 1795.664
746.9346, 1775.005
747.4167, 1763.591
747.8989, 1771.106
748.3810, 1775.484
748.8631, 1767.717
749.3452, 1757.516
749.8273, 1755.315
750.3094, 1760.779
750.7916, 1764.131
751.2737, 1758.260
751.7558, 1751.730
752.2379, 1752.357
752.7200, 1756.433
753.2021, 1759.731
753.6843, 1760.405
754.1664, 1753.299
754.6485, 1733.491
755.1306, 1708.639
755.6127, 1696.305
756.0948, 1696.772
756.5770, 1704.356
757.0591, 1722.745
757.5412, 1733.539
758.0233, 1721.179
758.5054, 1696.680
758.9875, 1687.314
759.4697, 1703.821
759.9518, 1709.818
760.4339, 1697.154
760.9160, 1682.882
761.3981, 1670.702
761.8802, 1662.925
762.3624, 1664.697
762.8445, 1676.160
763.3266, 1683.605
763.8087, 1674.823
764.2908, 1661.393
764.7729, 1657.328
765.2551, 1658.161
765.7372, 1650.736
766.2193, 1633.153
766.7014, 1618.737
767.1835, 1620.175
767.6656, 1631.962
768.1478, 1635.372
768.6299, 1629.566
769.1120, 1622.201
769.5941, 1612.209
770.0762, 1606.661
770.5583, 1612.638
771.0405, 1626.428
771.5226, 1635.566
772.0047, 1641.854
772.4868, 1640.193
772.9689, 1621.546
773.4510, 1604.163
773.9332, 1598.930
774.4153, 1600.222
774.8974, 1598.462
775.3795, 1591.389
775.8616, 1585.630
776.3438, 1589.306
776.8259, 1593.160
777.3080, 1583.673
777.7901, 1566.599
778.2722, 1557.211
778.7543, 1559.052
779.2365, 1563.929
779.7186, 1564.199
780.2007, 1561.697
780.6828, 1564.306
781.1649, 1572.838
781.6470, 1573.659
782.1292, 1562.084
782.6113, 1548.954
783.0934, 1541.754
783.5755, 1539.518
784.0576, 1538.758
784.5397, 1541.100
785.0219, 1542.035
785.5040, 1541.275
785.9861, 1539.438
786.4682, 1535.870
786.9503, 1531.817
787.4324, 1530.898
787.9146, 1534.170
788.3967, 1530.415
788.8788, 1502.629
789.3609, 1476.041
789.8430, 1479.246
790.3251, 1497.541
790.8073, 1500.379
791.2894, 1482.575
791.7715, 1463.499
792.2536, 1459.037
792.7357, 1464.184
793.2178, 1468.988
793.7000, 1473.194
794.1821, 1472.406
794.6642, 1465.056
795.1463, 1459.520
795.6284, 1462.970
796.1105, 1470.505
796.5927, 1467.884
797.0748, 1451.104
797.5569, 1434.228
798.0390, 1408.730
798.5211, 1394.211
799.0032, 1406.819
799.4854, 1429.102
799.9675, 1439.629
800.4496, 1436.264
800.9317, 1430.960
801.4138, 1424.382
801.8959, 1419.512
802.3781, 1420.333
802.8602, 1422.349
803.3423, 1418.532
803.8244, 1409.634
804.3065, 1403.309
804.7886, 1404.629
805.2708, 1409.613
805.7529, 1414.871
806.2350, 1419.458
806.7171, 1420.701
807.1992, 1418.432
807.6813, 1414.137
808.1635, 1408.529
808.6456, 1401.835
809.1277, 1393.964
809.6098, 1384.699
810.0919, 1378.816
810.5740, 1378.835
811.0562, 1373.603
811.5383, 1354.745
812.0204, 1334.667
812.5025, 1328.674
812.9846, 1337.090
813.4667, 1343.779
813.9489, 1348.545
814.4310, 1351.935
814.9131, 1351.455
815.3952, 1351.924
815.8773, 1358.937
816.3594, 1369.503
816.8416, 1375.754
817.3237, 1374.692
817.8058, 1371.429
818.2879, 1368.675
818.7700, 1365.419
819.2521, 1357.806
819.7343, 1349.292
820.2164, 1349.836
820.6985, 1361.694
821.1806, 1373.324
821.6627, 1373.471
822.1448, 1365.356
822.6270, 1354.592
823.1091, 1342.083
823.5912, 1335.927
824.0733, 1338.169
824.5554, 1341.415
825.0375, 1339.435
825.5197, 1334.604
826.0018, 1335.275
826.4839, 1343.311
826.9660, 1349.778
827.4481, 1354.127
827.9302, 1357.138
828.4124, 1360.933
828.8945, 1362.548
829.3766, 1354.713
829.8587, 1334.814
830.3408, 1324.335
830.8229, 1331.829
831.3051, 1340.101
831.7872, 1344.788
832.2693, 1346.946
832.7514, 1346.368
833.2335, 1344.276
833.7156, 1344.970
834.1978, 1352.719
834.6799, 1358.318
835.1620, 1353.355
835.6441, 1344.069
836.1262, 1336.346
836.6083, 1331.429
837.0905, 1331.135
837.5726, 1336.045
838.0547, 1341.498
838.5368, 1340.576
839.0189, 1336.405
839.5010, 1339.145
839.9832, 1347.957
840.4653, 1356.195
840.9474, 1362.169
841.4295, 1364.809
841.9116, 1362.766
842.3937, 1357.036
842.8759, 1350.534
843.3580, 1341.437
843.8401, 1340.764
844.3222, 1354.501
844.8043, 1366.281
845.2864, 1367.370
845.7686, 1361.161
846.2507, 1352.292
846.7328, 1338.173
847.2149, 1332.763
847.6970, 1344.996
848.1791, 1354.539
848.6613, 1353.915
849.1434, 1349.831
849.6255, 1347.814
850.1076, 1348.135
850.5897, 1349.226
851.0718, 1349.884
851.5540, 1352.588
852.0361, 1358.332
852.5182, 1366.878
853.0003, 1381.811
853.4824, 1398.597
853.9645, 1407.255
854.4467, 1404.533
854.9288, 1397.701
855.4109, 1389.324
855.8930, 1383.234
856.3751, 1386.557
856.8572, 1397.554
857.3394, 1413.195
857.8215, 1431.770
858.3036, 1445.252
858.7857, 1447.259
859.2678, 1441.686
859.7499, 1434.240
860.2321, 1425.298
860.7142, 1432.610
861.1963, 1460.189
861.6784, 1483.235
862.1605, 1488.665
862.6426, 1488.072
863.1248, 1499.506
863.6069, 1523.976
864.0890, 1537.441
864.5711, 1530.746
865.0532, 1532.066
865.5353, 1549.996
866.0175, 1574.006
866.4996, 1598.565
866.9817, 1622.653
867.4638, 1642.838
867.9459, 1657.272
868.4280, 1671.565
868.9102, 1687.760
869.3923, 1702.349
869.8744, 1709.837
870.3565, 1716.785
870.8386, 1733.692
871.3207, 1760.868
871.8029, 1784.945
872.2850, 1797.734
872.7671, 1808.468
873.2492, 1821.828
873.7313, 1837.096
874.2134, 1856.016
874.6956, 1876.074
875.1777, 1890.989
875.6598, 1898.206
876.1419, 1898.895
876.6240, 1892.623
877.1061, 1881.566
877.5883, 1869.145
878.0704, 1855.260
878.5525, 1839.461
879.0346, 1821.511
879.5167, 1800.489
879.9988, 1775.698
880.4810, 1747.485
880.9631, 1715.564
881.4452, 1680.467
881.9273, 1651.009
882.4094, 1628.961
882.8915, 1600.095
883.3737, 1555.690
883.8558, 1507.560
884.3379, 1476.463
884.8200, 1463.013
885.3021, 1434.444
885.7842, 1383.138
886.2664, 1339.656
886.7485, 1313.287
887.2306, 1292.512
887.7127, 1268.713
888.1948, 1242.947
888.6769, 1218.859
889.1591, 1193.421
889.6412, 1175.900
890.1233, 1172.541
890.6054, 1169.269
891.0875, 1159.800
891.5696, 1148.645
892.0518, 1141.528
892.5339, 1138.473
893.0160, 1133.996
893.4981, 1123.903
893.9802, 1116.314
894.4623, 1117.083
894.9445, 1118.489
895.4266, 1112.015
895.9087, 1101.808
896.3908, 1098.780
896.8729, 1106.496
897.3550, 1112.364
897.8372, 1104.412
898.3193, 1096.145
898.8014, 1101.038
899.2835, 1112.572
899.7656, 1121.346
900.2477, 1125.530
900.7299, 1126.980
901.2120, 1126.969
901.6941, 1123.895
902.1762, 1112.641
902.6583, 1098.545
903.1404, 1095.080
903.6226, 1098.742
904.1047, 1091.479
904.5868, 1068.112
905.0689, 1044.651
905.5510, 1038.835
906.0331, 1041.430
906.5153, 1026.101
906.9974, 995.8549
907.4795, 972.8824
907.9616, 960.3235
908.4437, 948.5183
908.9258, 931.7761
909.4080, 915.2516
909.8900, 908.5797
910.3721, 911.4456
910.8542, 908.0855
911.3364, 897.3137
911.8185, 888.0594
912.3006, 883.7592
912.7827, 877.2083
913.2648, 860.8258
913.7469, 838.9252
914.2291, 826.3561
914.7112, 825.8650
915.1933, 827.0563
915.6754, 832.3790
916.1575, 834.7840
916.6396, 831.1214
917.1218, 823.7543
917.6039, 812.9763
918.0860, 799.1708
918.5681, 794.8571
919.0502, 812.3871
919.5323, 820.8812
920.0145, 812.9112
920.4966, 801.2266
920.9787, 788.7678
921.4608, 778.3904
921.9429, 775.6920
922.4250, 781.9098
922.9072, 785.7340
923.3893, 784.7548
923.8714, 781.3199
924.3535, 773.3171
924.8356, 765.6364
925.3177, 764.3680
925.7999, 766.6892
926.2820, 763.5212
926.7641, 750.6027
927.2462, 741.3886
927.7283, 746.5426
928.2104, 752.7213
928.6926, 748.5103
929.1747, 740.8019
929.6568, 741.8360
930.1389, 750.4122
930.6210, 752.3085
931.1031, 737.8832
931.5853, 722.8085
932.0674, 720.1229
932.5495, 722.9973
933.0316, 724.6089
933.5137, 724.7496
933.9958, 724.7732
934.4780, 724.8812
934.9601, 723.5153
935.4422, 718.7715
935.9243, 713.1204
936.4064, 709.9065
936.8885, 708.1466
937.3707, 705.9005
937.8528, 703.1337
938.3349, 700.9603
938.8170, 699.7810
939.2991, 698.1802
939.7813, 693.9026
940.2634, 688.5400
940.7455, 685.7654
941.2276, 685.2193
941.7097, 685.8023
942.1918, 687.2005
942.6740, 688.8123
943.1561, 690.3622
943.6382, 691.1856
944.1203, 689.1552
944.6024, 685.2238
945.0845, 687.2095
945.5667, 694.5300
946.0488, 694.3387
946.5309, 683.1885
947.0130, 670.9633
947.4951, 665.0805
947.9772, 664.0078
948.4594, 665.3157
948.9415, 669.1259
949.4236, 667.8025
949.9057, 660.2582
950.3878, 655.3982
950.8699, 656.3417
951.3521, 660.3687
951.8342, 665.3909
952.3163, 670.6511
952.7984, 672.6876
953.2805, 671.0258
953.7626, 668.4277
954.2448, 664.5567
954.7269, 661.2493
955.2090, 658.8900
955.6911, 658.4708
956.1732, 662.5309
956.6553, 670.2598
957.1375, 669.0451
957.6196, 653.2059
958.1017, 645.2816
958.5838, 652.6617
959.0659, 658.1655
959.5480, 651.1859
960.0302, 638.8863
960.5123, 632.6632
960.9944, 632.9938
961.4765, 632.6093
961.9586, 631.3685
962.4407, 629.5886
962.9229, 625.3461
963.4050, 623.1428
963.8871, 627.6688
964.3692, 635.2584
964.8513, 638.5999
965.3334, 637.1434
965.8156, 633.8342
966.2977, 626.8712
966.7798, 620.5645
967.2619, 613.1011
967.7440, 608.8786
968.2261, 614.8892
968.7083, 625.8474
969.1904, 627.2402
969.6725, 613.7421
970.1546, 606.7278
970.6367, 613.8096
971.1188, 619.6520
971.6010, 619.0499
972.0831, 615.9943
972.5652, 614.2817
973.0473, 613.0927
973.5294, 608.2803
974.0115, 594.9855
974.4937, 589.9451
974.9758, 606.7809
975.4579, 619.0245
975.9400, 609.9988
976.4221, 595.5527
976.9042, 591.3139
977.3864, 596.7709
977.8685, 604.5139
978.3506, 616.5018
978.8327, 623.1672
979.3148, 618.2005
979.7969, 612.1040
980.2791, 610.4150
980.7612, 610.6085
981.2433, 608.9243
981.7254, 605.6763
982.2075, 605.0564
982.6896, 611.8843
983.1718, 614.2884
983.6539, 603.6141
984.1360, 592.7510
984.6181, 590.7996
985.1002, 592.8822
985.5823, 591.7982
986.0645, 587.1495
986.5466, 583.6113
987.0287, 582.9922
987.5108, 583.2017
987.9929, 584.6336
988.4750, 585.4308
988.9572, 585.2207
989.4393, 583.0271
989.9214, 575.4412
990.4035, 563.1855
990.8856, 556.3583
991.3677, 561.7465
991.8499, 568.5931
992.3320, 574.8428
992.8141, 578.3705
993.2962, 573.6841
993.7783, 566.8707
994.2604, 570.1329
994.7426, 584.3135
995.2247, 592.6599
995.7068, 583.2764
996.1889, 573.4760
996.6710, 571.5131
997.1531, 572.2143
997.6353, 571.0447
998.1174, 569.5001
998.5995, 572.2080
999.0816, 579.5016
999.5637, 582.7416
1000.046, 573.7455
1000.528, 565.5899
1001.010, 565.6790
1001.492, 568.3188
1001.974, 569.4401
1002.456, 569.0112
1002.939, 566.9024
1003.421, 563.3531
1003.903, 562.6701
1004.385, 568.8671
1004.867, 575.6623
1005.349, 582.3919
1005.831, 586.1848
1006.313, 582.3459
1006.795, 574.4554
1007.278, 570.2705
1007.760, 571.0876
1008.242, 568.4687
1008.724, 551.9304
1009.206, 539.9271
1009.688, 543.5958
1010.170, 553.6439
1010.652, 565.3184
1011.135, 575.9779
1011.617, 582.4447
1012.099, 584.1006
1012.581, 582.7397
1013.063, 577.8279
1013.545, 571.6661
1014.027, 562.2041
1014.509, 554.7657
1014.991, 556.0433
1015.474, 561.7606
1015.956, 563.3934
1016.438, 559.4676
1016.920, 556.1118
1017.402, 557.0916
1017.884, 557.0131
1018.366, 552.1675
1018.848, 546.8594
1019.331, 544.0025
1019.813, 543.3146
1020.295, 545.1597
1020.777, 549.3492
1021.259, 549.5533
1021.741, 538.5654
1022.223, 530.4597
1022.705, 533.9131
1023.187, 538.2221
1023.670, 533.3278
1024.152, 525.1591
1024.634, 525.6100
1025.116, 535.8065
1025.598, 540.8252
1026.080, 530.1983
1026.562, 523.6033
1027.044, 531.4012
1027.526, 539.4722
1028.009, 536.6904
1028.491, 529.5725
1028.973, 528.6948
1029.455, 534.7742
1029.937, 539.5115
1030.419, 542.9470
1030.901, 542.6721
1031.383, 535.2297
1031.866, 527.2846
1032.348, 520.5225
1032.830, 516.5829
1033.312, 519.1359
1033.794, 527.7682
1034.276, 532.7596
1034.758, 526.6254
1035.240, 526.9343
1035.723, 544.4922
1036.205, 558.0627
1036.687, 555.8723
1037.169, 546.4231
1037.651, 538.4260
1038.133, 532.1470
1038.615, 528.8123
1039.097, 528.8070
1039.579, 531.2435
1040.062, 542.4471
1040.544, 547.1386
1041.026, 533.2206
1041.508, 516.5602
1041.990, 514.5735
1042.472, 524.6794
1042.954, 531.7393
1043.436, 534.9606
1043.918, 536.9241
1044.401, 537.2674
1044.883, 537.0531
1045.365, 536.7739
1045.847, 535.7413
1046.329, 532.7064
1046.811, 528.6903
1047.293, 527.6774
1047.775, 530.8542
1048.258, 532.2981
1048.740, 531.3211
1049.222, 530.8251
1049.704, 532.0384
1050.186, 532.8317
1050.668, 531.4152
1051.150, 528.4883
1051.632, 525.7325
1052.115, 523.0982
1052.597, 521.2811
1053.079, 520.4540
1053.561, 519.0385
1054.043, 516.3785
1054.525, 514.6375
1055.007, 515.1755
1055.489, 517.9348
1055.971, 523.8985
1056.453, 532.4059
1056.936, 534.6628
1057.418, 530.7004
1057.900, 525.4317
1058.382, 519.6541
1058.864, 517.5068
1059.346, 521.4622
1059.828, 528.3384
1060.310, 535.1324
1060.793, 540.4244
1061.275, 536.6920
1061.757, 526.1213
1062.239, 521.8027
1062.721, 524.6849
1063.203, 527.5842
1063.685, 527.3979
1064.167, 527.0068
1064.650, 530.4390
1065.132, 534.1174
1065.614, 528.0161
1066.096, 517.4922
1066.578, 517.7784
1067.060, 527.1331
1067.542, 533.3578
1068.024, 532.9761
1068.506, 533.3172
1068.989, 541.5646
1069.471, 549.1791
1069.953, 543.2729
1070.435, 532.0389
1070.917, 527.5878
1071.399, 527.8347
1071.881, 525.5444
1072.363, 520.1709
1072.845, 518.4613
1073.328, 525.2191
1073.810, 531.9968
1074.292, 531.3182
1074.774, 528.8826
1075.256, 530.3453
1075.738, 533.1771
1076.220, 533.2662
1076.702, 530.8680
1077.184, 529.1620
1077.667, 529.5529
1078.149, 528.7737
1078.631, 523.5060
1079.113, 519.0076
1079.595, 517.8275
1080.077, 518.9263
1080.559, 522.1879
1081.041, 526.6133
1081.524, 530.6503
1082.006, 534.2821
1082.488, 535.4442
1082.970, 531.5123
1083.452, 528.2513
1083.934, 528.6628
1084.416, 528.3829
1084.898, 522.8549
1085.380, 515.9263
1085.863, 513.0784
1086.345, 514.3286
1086.827, 520.6761
1087.309, 539.1713
1087.791, 548.1425
1088.273, 542.7523
1088.755, 533.8685
1089.237, 523.1183
1089.719, 515.0955
1090.202, 515.6328
1090.684, 522.6696
1091.166, 526.8434
1091.648, 527.9396
1092.130, 526.8051
1092.612, 522.6115
1093.094, 521.4136
1093.576, 525.5361
1094.059, 529.6304
1094.541, 529.5660
1095.023, 527.0377
1095.505, 524.7000
1095.987, 522.8548
1096.469, 525.2631
1096.951, 531.3591
1097.433, 535.2725
1097.916, 535.9860
1098.398, 534.9136
1098.880, 532.7911
1099.362, 529.2615
1099.844, 522.8499
1100.326, 515.7618
1100.808, 510.8443
1101.290, 509.4995
1101.772, 519.0159
1102.255, 535.3461
1102.737, 542.3198
1103.219, 535.7784
1103.701, 528.7360
1104.183, 530.1030
1104.665, 535.0552
1105.147, 541.3950
1105.629, 546.7727
1106.111, 549.3472
1106.594, 548.6208
1107.076, 541.9517
1107.558, 531.0360
1108.040, 524.2296
1108.522, 525.6320
1109.004, 527.5571
1109.486, 526.7075
1109.968, 525.3870
1110.451, 524.8949
1110.933, 524.4736
1111.415, 521.5212
1111.897, 518.4408
1112.379, 522.1992
1112.861, 535.1110
1113.343, 544.0660
1113.825, 546.6973
1114.307, 546.9171
1114.790, 543.1303
1115.272, 539.9805
1115.754, 540.0304
1116.236, 541.7619
1116.718, 543.7819
1117.200, 545.7761
1117.682, 544.4860
1118.164, 538.5333
1118.646, 535.1535
1119.129, 534.9463
1119.611, 536.5226
1120.093, 539.9589
1120.575, 542.2672
1121.057, 540.7054
1121.539, 537.1069
1122.021, 534.3565
1122.503, 533.0014
1122.986, 539.0992
1123.468, 551.3179
1123.950, 559.9552
1124.432, 563.2232
1124.914, 562.2048
1125.396, 557.4662
1125.878, 551.8157
1126.360, 547.5978
1126.843, 545.2127
1127.325, 547.3796
1127.807, 550.6211
1128.289, 545.4991
1128.771, 536.7810
1129.253, 540.2064
1129.735, 557.2377
1130.217, 569.9872
1130.699, 568.0193
1131.182, 561.8105
1131.664, 555.6495
1132.146, 550.1758
1132.628, 543.0682
1133.110, 538.9808
1133.592, 547.5946
1134.074, 563.7985
1134.556, 569.1345
1135.038, 557.3750
1135.521, 550.5077
1136.003, 556.5618
1136.485, 561.2032
1136.967, 558.2486
1137.449, 556.8779
1137.931, 564.0731
1138.413, 573.7079
1138.895, 577.4558
1139.378, 575.6378
1139.860, 570.9343
1140.342, 561.8096
1140.824, 557.2309
1141.306, 558.3364
1141.788, 560.0422
1142.270, 560.6108
1142.752, 562.7374
1143.234, 569.2060
1143.717, 576.0385
1144.199, 573.1516
1144.681, 563.8931
1145.163, 566.0481
1145.645, 576.0552
1146.127, 576.3206
1146.609, 566.7224
1147.091, 562.4404
1147.573, 569.6041
1148.056, 578.1673
1148.538, 579.2829
1149.020, 578.1344
1149.502, 580.1274
1149.984, 583.2154
1150.466, 584.0617
1150.948, 584.5558
1151.430, 589.6098
1151.913, 598.4730
1152.395, 603.9478
1152.877, 603.3099
1153.359, 600.5117
1153.841, 594.5581
1154.323, 589.7330
1154.805, 586.5945
1155.287, 586.4789
1155.770, 593.8361
1156.252, 603.4562
1156.734, 603.4399
1157.216, 593.2678
1157.698, 592.9332
1158.180, 607.1290
1158.662, 617.7029
1159.144, 623.5618
1159.626, 623.8673
1160.109, 616.9069
1160.591, 609.8334
1161.073, 608.8807
1161.555, 612.6753
1162.037, 620.9988
1162.519, 631.5798
1163.001, 624.5145
1163.483, 605.0464
1163.965, 605.8589
1164.448, 628.1587
1164.930, 642.6838
1165.412, 636.9346
1165.894, 627.8185
1166.376, 630.0427
1166.858, 636.7177
1167.340, 642.6178
1167.822, 646.7606
1168.305, 645.8582
1168.787, 643.4167
1169.269, 646.9244
1169.751, 655.3856
1170.233, 658.7627
1170.715, 652.2994
1171.197, 647.4801
1171.679, 648.8787
1172.161, 650.6715
1172.644, 649.3488
1173.126, 649.4234
1173.608, 655.8670
1174.090, 664.1578
1174.572, 667.1957
1175.054, 665.3940
1175.536, 664.7092
1176.018, 664.9323
1176.500, 667.9216
1176.983, 674.4923
1177.465, 678.0135
1177.947, 675.9192
1178.429, 677.7175
1178.911, 691.2761
1179.393, 707.0994
1179.875, 707.2222
1180.357, 698.1714
1180.840, 699.3012
1181.322, 705.7346
1181.804, 702.3522
1182.286, 691.8585
1182.768, 689.9739
1183.250, 700.3326
1183.732, 709.9618
1184.214, 709.2679
1184.697, 710.4316
1185.179, 726.7545
1185.661, 741.5939
1186.143, 741.0177
1186.625, 734.3949
1187.107, 731.6382
1187.589, 732.2184
1188.071, 731.7943
1188.553, 729.3555
1189.036, 730.4366
1189.518, 736.5172
1190.000, 743.2976
1190.482, 751.0859
1190.964, 757.5760
1191.446, 761.3868
1191.928, 764.6693
1192.410, 769.4464
1192.892, 775.2473
1193.375, 781.5158
1193.857, 787.8947
1194.339, 790.8543
1194.821, 791.2950
1195.303, 793.9932
1195.785, 799.5336
1196.267, 807.7159
1196.749, 817.9794
1197.232, 823.1036
1197.714, 815.1822
1198.196, 804.1379
1198.678, 794.7220
1199.160, 790.8409
1199.642, 799.2817
1200.124, 813.5452
1200.606, 827.4688
1201.089, 838.5848
1201.571, 842.2014
1202.053, 836.1362
1202.535, 830.3515
1203.017, 821.7744
1203.499, 820.9568
1203.981, 834.4728
1204.463, 845.6707
1204.945, 846.1066
1205.427, 843.6344
1205.910, 845.9708
1206.392, 852.3986
1206.874, 860.3012
1207.356, 870.0784
1207.838, 891.7125
1208.320, 921.4425
1208.802, 928.6147
1209.284, 912.5373
1209.767, 902.5931
1210.249, 910.7607
1210.731, 922.6412
1211.213, 926.6761
1211.695, 929.6475
1212.177, 940.2513
1212.659, 950.7283
1213.141, 950.6653
1213.624, 947.7205
1214.106, 953.3739
1214.588, 965.7586
1215.070, 974.8969
1215.552, 978.3058
1216.034, 985.1075
1216.516, 1000.794
1216.998, 1011.361
1217.480, 1013.159
1217.963, 1014.968
1218.445, 1020.611
1218.927, 1026.286
1219.409, 1028.003
1219.891, 1028.268
1220.373, 1032.466
1220.855, 1040.492
1221.337, 1052.099
1221.819, 1066.750
1222.302, 1084.037
1222.784, 1102.190
1223.266, 1115.655
1223.748, 1122.173
1224.230, 1119.492
1224.712, 1100.522
1225.194, 1087.265
1225.676, 1099.302
1226.159, 1118.904
1226.641, 1140.138
1227.123, 1156.274
1227.605, 1155.053
1228.087, 1145.818
1228.569, 1152.476
1229.051, 1176.827
1229.533, 1192.004
1230.016, 1195.788
1230.498, 1195.922
1230.980, 1190.398
1231.462, 1192.208
1231.944, 1206.139
1232.426, 1220.602
1232.908, 1227.335
1233.390, 1232.110
1233.872, 1243.440
1234.354, 1258.852
1234.837, 1276.307
1235.319, 1291.761
1235.801, 1293.596
1236.283, 1287.377
1236.765, 1287.171
1237.247, 1295.244
1237.729, 1306.231
1238.211, 1318.453
1238.694, 1331.660
1239.176, 1347.997
1239.658, 1362.138
1240.140, 1368.035
1240.622, 1376.352
1241.104, 1395.155
1241.586, 1417.101
1242.068, 1434.376
1242.551, 1447.354
1243.033, 1455.921
1243.515, 1459.719
1243.997, 1474.339
1244.479, 1498.589
1244.961, 1507.754
1245.443, 1500.216
1245.925, 1497.927
1246.407, 1509.605
1246.890, 1527.370
1247.372, 1547.733
1247.854, 1564.235
1248.336, 1565.158
1248.818, 1564.894
1249.300, 1576.817
1249.782, 1594.824
1250.264, 1615.203
1250.746, 1634.103
1251.229, 1642.747
1251.711, 1639.871
1252.193, 1644.876
1252.675, 1664.045
1253.157, 1674.255
1253.639, 1669.228
1254.121, 1678.364
1254.603, 1712.298
1255.086, 1740.471
1255.568, 1742.439
1256.050, 1739.278
1256.532, 1760.819
1257.014, 1792.046
1257.496, 1799.341
1257.978, 1797.043
1258.460, 1812.181
1258.943, 1838.729
1259.425, 1864.495
1259.907, 1885.590
1260.389, 1897.294
1260.871, 1896.840
1261.353, 1901.726
1261.835, 1921.308
1262.317, 1939.909
1262.799, 1951.135
1263.281, 1966.412
1263.764, 1992.346
1264.246, 2019.089
1264.728, 2038.975
1265.210, 2052.755
1265.692, 2059.440
1266.174, 2062.348
1266.656, 2080.490
1267.138, 2108.898
1267.621, 2126.890
1268.103, 2136.028
1268.585, 2148.286
1269.067, 2166.642
1269.549, 2189.198
1270.031, 2215.840
1270.513, 2242.543
1270.995, 2268.899
1271.478, 2293.826
##END=



