##NAMES=Colusite
##RRUFFID=R070568
##IDEAL CHEMISTRY=Cu^1+^_12_Cu^2+^V^3+^As^5+^_3_S^2-^_16_
##LOCALITY=East Colusa mine, Butte, Silver Bow County, Montana, USA
##OWNER=RRUFF
##SOURCE=James Shigley
##DESCRIPTION=Metallic bronze massive associated with quartz and pyrite
##STATUS=The identification of this mineral has been confirmed only by single crystal X-ray diffraction.
##URL=rruff.info/R070568
133.1424, 1936.648
133.6245, 1989.110
134.1066, 2028.773
134.5887, 2066.890
135.0709, 2117.673
135.5530, 2179.977
136.0351, 2220.337
136.5172, 2227.659
136.9993, 2220.327
137.4814, 2197.815
137.9636, 2165.300
138.4457, 2139.551
138.9278, 2141.215
139.4099, 2175.695
139.8920, 2196.363
140.3741, 2185.769
140.8563, 2171.992
141.3384, 2163.725
141.8205, 2163.155
142.3026, 2171.015
142.7847, 2191.121
143.2668, 2229.388
143.7490, 2259.236
144.2311, 2267.103
144.7132, 2275.561
145.1953, 2298.438
145.6774, 2337.764
146.1595, 2384.501
146.6417, 2425.265
147.1238, 2454.027
147.6059, 2490.852
148.0880, 2546.492
148.5701, 2603.082
149.0523, 2648.271
149.5344, 2678.792
150.0165, 2699.119
150.4986, 2716.917
150.9807, 2733.358
151.4628, 2744.418
151.9450, 2748.515
152.4271, 2748.853
152.9092, 2733.725
153.3913, 2699.873
153.8734, 2659.540
154.3555, 2630.639
154.8377, 2634.291
155.3198, 2617.250
155.8019, 2562.260
156.2840, 2495.285
156.7661, 2440.018
157.2482, 2406.018
157.7304, 2388.262
158.2125, 2374.434
158.6946, 2372.595
159.1767, 2364.613
159.6588, 2343.244
160.1409, 2317.584
160.6231, 2297.600
161.1052, 2288.047
161.5873, 2286.534
162.0694, 2285.215
162.5515, 2291.353
163.0336, 2288.791
163.5158, 2267.114
163.9979, 2237.691
164.4800, 2217.624
164.9621, 2216.675
165.4442, 2228.288
165.9263, 2222.937
166.4085, 2175.262
166.8906, 2139.321
167.3727, 2129.930
167.8548, 2137.060
168.3369, 2145.292
168.8190, 2146.260
169.3012, 2140.940
169.7833, 2134.982
170.2654, 2124.496
170.7475, 2117.691
171.2296, 2120.927
171.7117, 2128.926
172.1939, 2130.835
172.6760, 2119.116
173.1581, 2096.756
173.6402, 2088.442
174.1223, 2112.110
174.6044, 2128.244
175.0866, 2118.360
175.5687, 2092.567
176.0508, 2073.280
176.5329, 2075.221
177.0150, 2095.512
177.4971, 2105.186
177.9793, 2093.450
178.4614, 2084.661
178.9435, 2088.536
179.4256, 2101.636
179.9077, 2115.693
180.3898, 2125.963
180.8720, 2132.478
181.3541, 2135.271
181.8362, 2132.709
182.3183, 2129.127
182.8004, 2122.670
183.2825, 2115.975
183.7647, 2116.757
184.2468, 2132.237
184.7289, 2160.413
185.2110, 2170.209
185.6931, 2143.274
186.1752, 2121.196
186.6574, 2123.825
187.1395, 2145.014
187.6216, 2166.570
188.1037, 2176.898
188.5858, 2176.592
189.0679, 2175.805
189.5501, 2176.276
190.0322, 2174.755
190.5143, 2165.576
190.9964, 2152.644
191.4785, 2147.502
191.9606, 2159.765
192.4428, 2187.598
192.9249, 2199.857
193.4070, 2183.877
193.8891, 2168.552
194.3712, 2167.038
194.8533, 2175.823
195.3355, 2183.550
195.8176, 2182.174
196.2997, 2172.724
196.7818, 2170.323
197.2639, 2182.159
197.7460, 2192.102
198.2282, 2190.768
198.7103, 2182.097
199.1924, 2177.802
199.6745, 2186.933
200.1566, 2207.434
200.6387, 2212.020
201.1209, 2191.430
201.6030, 2168.771
202.0851, 2152.540
202.5672, 2140.753
203.0493, 2126.580
203.5314, 2104.406
204.0136, 2076.552
204.4957, 2065.000
204.9778, 2078.496
205.4599, 2095.165
205.9420, 2112.278
206.4241, 2127.432
206.9063, 2136.563
207.3884, 2137.226
207.8705, 2129.973
208.3526, 2117.954
208.8347, 2098.081
209.3168, 2077.802
209.7990, 2056.413
210.2811, 2036.156
210.7632, 2021.450
211.2453, 2015.389
211.7274, 2015.922
212.2095, 2011.775
212.6917, 1995.343
213.1738, 1983.277
213.6559, 1982.237
214.1380, 1987.533
214.6201, 1991.597
215.1022, 1990.486
215.5844, 1985.214
216.0665, 1980.004
216.5486, 1971.708
217.0307, 1967.027
217.5128, 1971.114
217.9949, 1978.462
218.4771, 1980.043
218.9592, 1971.130
219.4413, 1956.320
219.9234, 1950.740
220.4055, 1967.025
220.8876, 1978.148
221.3698, 1978.238
221.8519, 1973.266
222.3340, 1971.119
222.8161, 1975.214
223.2982, 1982.109
223.7803, 1983.024
224.2625, 1972.180
224.7446, 1962.025
225.2267, 1946.132
225.7088, 1934.115
226.1909, 1939.601
226.6730, 1967.188
227.1552, 2003.757
227.6373, 2022.160
228.1194, 2011.524
228.6015, 1997.218
229.0836, 1968.296
229.5658, 1942.598
230.0479, 1938.905
230.5300, 1961.624
231.0121, 1996.182
231.4942, 2017.766
231.9763, 2017.048
232.4585, 2020.365
232.9406, 2030.895
233.4227, 2043.087
233.9048, 2053.390
234.3869, 2060.964
234.8690, 2066.708
235.3512, 2071.305
235.8333, 2072.996
236.3154, 2078.107
236.7975, 2089.067
237.2796, 2101.117
237.7617, 2113.039
238.2439, 2123.875
238.7260, 2131.602
239.2081, 2131.612
239.6902, 2119.285
240.1723, 2118.037
240.6544, 2138.697
241.1366, 2161.166
241.6187, 2176.606
242.1008, 2185.141
242.5829, 2192.036
243.0650, 2201.555
243.5471, 2213.681
244.0293, 2228.969
244.5114, 2254.400
244.9935, 2276.419
245.4756, 2284.973
245.9577, 2284.806
246.4398, 2289.693
246.9220, 2313.093
247.4041, 2352.903
247.8862, 2383.190
248.3683, 2399.672
248.8504, 2411.137
249.3325, 2416.708
249.8147, 2420.526
250.2968, 2430.910
250.7789, 2455.528
251.2610, 2489.901
251.7431, 2517.285
252.2252, 2533.994
252.7074, 2550.641
253.1895, 2572.796
253.6716, 2597.796
254.1537, 2621.449
254.6358, 2640.717
255.1179, 2658.751
255.6001, 2681.598
256.0822, 2710.100
256.5643, 2741.011
257.0464, 2775.448
257.5285, 2810.597
258.0107, 2844.107
258.4928, 2877.583
258.9749, 2905.775
259.4570, 2916.254
259.9391, 2906.616
260.4212, 2910.995
260.9034, 2959.286
261.3855, 3020.899
261.8676, 3054.334
262.3497, 3046.840
262.8318, 3030.883
263.3139, 3031.084
263.7961, 3045.571
264.2782, 3060.271
264.7603, 3069.369
265.2424, 3077.661
265.7245, 3093.275
266.2066, 3118.513
266.6888, 3141.656
267.1709, 3156.737
267.6530, 3165.405
268.1351, 3171.128
268.6172, 3174.125
269.0993, 3176.185
269.5815, 3179.987
270.0636, 3185.568
270.5457, 3191.520
271.0278, 3199.056
271.5099, 3206.235
271.9920, 3212.240
272.4742, 3217.305
272.9563, 3215.865
273.4384, 3198.661
273.9205, 3161.264
274.4026, 3135.331
274.8847, 3133.381
275.3669, 3135.948
275.8490, 3125.021
276.3311, 3100.135
276.8132, 3074.565
277.2953, 3059.650
277.7774, 3056.545
278.2596, 3052.772
278.7417, 3058.156
279.2238, 3053.959
279.7059, 3020.699
280.1880, 2967.938
280.6701, 2925.144
281.1523, 2913.412
281.6344, 2929.308
282.1165, 2934.824
282.5986, 2923.542
283.0807, 2909.682
283.5628, 2892.158
284.0450, 2874.951
284.5271, 2864.362
285.0092, 2863.921
285.4913, 2870.018
285.9734, 2871.013
286.4555, 2859.958
286.9377, 2853.665
287.4198, 2853.747
287.9019, 2858.861
288.3840, 2869.065
288.8661, 2884.158
289.3482, 2900.907
289.8304, 2914.057
290.3125, 2922.906
290.7946, 2929.839
291.2767, 2932.803
291.7588, 2935.708
292.2409, 2940.267
292.7231, 2946.990
293.2052, 2956.375
293.6873, 2969.871
294.1694, 2987.889
294.6515, 3004.790
295.1336, 3017.791
295.6158, 3032.406
296.0979, 3052.887
296.5800, 3077.823
297.0621, 3101.654
297.5442, 3116.008
298.0263, 3125.431
298.5085, 3151.355
298.9906, 3203.439
299.4727, 3253.347
299.9548, 3275.305
300.4369, 3284.143
300.9190, 3309.008
301.4012, 3373.511
301.8833, 3450.240
302.3654, 3496.254
302.8475, 3508.295
303.3296, 3526.483
303.8117, 3571.819
304.2939, 3637.554
304.7760, 3707.662
305.2581, 3783.198
305.7402, 3860.004
306.2223, 3934.071
306.7044, 4006.430
307.1866, 4080.617
307.6687, 4155.826
308.1508, 4235.528
308.6329, 4325.147
309.1150, 4419.702
309.5971, 4532.485
310.0793, 4679.034
310.5614, 4841.916
311.0435, 4992.858
311.5256, 5124.239
312.0077, 5258.992
312.4898, 5427.047
312.9720, 5639.145
313.4541, 5857.172
313.9362, 6077.945
314.4183, 6306.896
314.9004, 6547.138
315.3825, 6798.646
315.8647, 7059.781
316.3468, 7330.429
316.8289, 7611.389
317.3110, 7887.526
317.7931, 8143.980
318.2752, 8412.728
318.7574, 8705.470
319.2395, 9016.271
319.7216, 9335.697
320.2037, 9655.467
320.6858, 9978.550
321.1679, 10311.43
321.6501, 10660.22
322.1322, 11008.36
322.6143, 11369.47
323.0964, 11719.93
323.5785, 12043.47
324.0606, 12333.55
324.5428, 12586.62
325.0249, 12804.73
325.5070, 12995.91
325.9891, 13112.97
326.4712, 13133.57
326.9533, 13081.53
327.4355, 12969.85
327.9176, 12798.82
328.3997, 12563.92
328.8818, 12252.99
329.3639, 11873.79
329.8460, 11450.30
330.3282, 10973.71
330.8103, 10473.87
331.2924, 9960.751
331.7745, 9442.103
332.2566, 8934.405
332.7387, 8449.266
333.2209, 7975.423
333.7030, 7497.724
334.1851, 7017.126
334.6672, 6566.655
335.1493, 6170.391
335.6314, 5824.246
336.1136, 5494.274
336.5957, 5173.622
337.0778, 4875.509
337.5599, 4604.517
338.0420, 4360.107
338.5241, 4143.901
339.0063, 3956.853
339.4884, 3791.745
339.9705, 3635.280
340.4526, 3487.432
340.9347, 3348.394
341.4168, 3212.424
341.8990, 3088.278
342.3811, 2985.231
342.8632, 2903.279
343.3453, 2832.590
343.8274, 2761.563
344.3095, 2688.049
344.7917, 2626.957
345.2738, 2590.400
345.7559, 2553.788
346.2380, 2502.423
346.7201, 2443.563
347.2022, 2394.633
347.6844, 2367.781
348.1665, 2358.234
348.6486, 2346.884
349.1307, 2330.751
349.6128, 2318.499
350.0949, 2315.901
350.5771, 2316.285
351.0592, 2311.318
351.5413, 2297.635
352.0234, 2284.559
352.5055, 2283.760
352.9876, 2295.418
353.4698, 2309.692
353.9519, 2322.237
354.4340, 2339.462
354.9161, 2366.533
355.3982, 2403.520
355.8803, 2445.280
356.3625, 2497.385
356.8446, 2550.573
357.3267, 2586.780
357.8088, 2602.224
358.2909, 2611.753
358.7730, 2625.218
359.2552, 2643.034
359.7373, 2665.936
360.2194, 2697.386
360.7015, 2730.789
361.1836, 2763.502
361.6657, 2795.052
362.1479, 2824.781
362.6300, 2852.678
363.1121, 2878.200
363.5942, 2899.648
364.0763, 2909.614
364.5584, 2925.000
365.0406, 2952.345
365.5227, 2982.878
366.0048, 3008.287
366.4869, 3026.615
366.9690, 3040.555
367.4511, 3054.605
367.9333, 3071.401
368.4154, 3077.505
368.8975, 3064.783
369.3796, 3048.701
369.8617, 3036.717
370.3438, 3026.531
370.8260, 3011.233
371.3081, 2985.627
371.7902, 2951.786
372.2723, 2915.641
372.7544, 2875.270
373.2365, 2837.484
373.7187, 2804.395
374.2008, 2775.748
374.6829, 2753.726
375.1650, 2741.873
375.6471, 2727.008
376.1292, 2693.679
376.6114, 2645.535
377.0935, 2603.213
377.5756, 2573.922
378.0577, 2549.466
378.5398, 2517.880
379.0219, 2478.583
379.5041, 2444.469
379.9862, 2423.772
380.4683, 2406.319
380.9504, 2379.688
381.4325, 2343.975
381.9146, 2309.451
382.3968, 2283.051
382.8789, 2264.750
383.3610, 2256.984
383.8431, 2269.806
384.3252, 2279.903
384.8073, 2278.552
385.2895, 2271.240
385.7716, 2264.726
386.2537, 2261.838
386.7358, 2264.084
387.2179, 2275.310
387.7000, 2299.972
388.1822, 2323.134
388.6643, 2347.006
389.1464, 2366.910
389.6285, 2378.788
390.1106, 2367.921
390.5927, 2390.969
391.0749, 2403.664
391.5570, 2406.561
392.0391, 2370.318
392.5212, 2384.617
393.0033, 2378.661
393.4854, 2371.875
393.9676, 2393.287
394.4497, 2362.737
394.9318, 2383.702
395.4139, 2384.104
395.8960, 2393.917
396.3781, 2383.349
396.8603, 2379.077
397.3424, 2395.191
397.8245, 2400.018
398.3066, 2373.395
398.7887, 2355.609
399.2708, 2328.210
399.7530, 2284.373
400.2351, 2236.460
400.7172, 2196.932
401.1993, 2166.007
401.6814, 2135.397
402.1635, 2097.790
402.6457, 2053.274
403.1278, 2012.385
403.6099, 1974.271
404.0920, 1940.927
404.5741, 1918.879
405.0562, 1899.836
405.5384, 1870.793
406.0205, 1826.515
406.5026, 1778.635
406.9847, 1747.523
407.4668, 1736.888
407.9489, 1724.621
408.4311, 1701.122
408.9132, 1681.438
409.3953, 1680.079
409.8774, 1693.685
410.3595, 1700.691
410.8416, 1680.565
411.3238, 1647.658
411.8059, 1631.183
412.2880, 1633.265
412.7701, 1641.725
413.2522, 1654.739
413.7343, 1667.478
414.2165, 1666.333
414.6986, 1641.027
415.1807, 1615.600
415.6628, 1598.992
416.1449, 1589.436
416.6270, 1585.673
417.1092, 1587.395
417.5913, 1589.750
418.0734, 1585.796
418.5555, 1572.973
419.0376, 1561.837
419.5197, 1553.240
420.0019, 1545.207
420.4840, 1534.478
420.9661, 1523.434
421.4482, 1518.275
421.9303, 1523.891
422.4124, 1536.493
422.8946, 1543.794
423.3767, 1545.370
423.8588, 1542.522
424.3409, 1533.931
424.8230, 1522.190
425.3051, 1505.912
425.7873, 1484.733
426.2694, 1471.225
426.7515, 1483.705
427.2336, 1512.134
427.7157, 1520.899
428.1978, 1500.546
428.6800, 1479.674
429.1621, 1484.060
429.6442, 1509.911
430.1263, 1529.149
430.6084, 1535.991
431.0905, 1539.677
431.5727, 1545.699
432.0548, 1552.570
432.5369, 1556.206
433.0190, 1554.754
433.5011, 1550.560
433.9832, 1548.113
434.4654, 1547.424
434.9475, 1548.705
435.4296, 1551.619
435.9117, 1556.519
436.3938, 1565.351
436.8759, 1576.748
437.3581, 1585.773
437.8402, 1586.781
438.3223, 1583.232
438.8044, 1592.724
439.2865, 1623.259
439.7686, 1648.168
440.2508, 1649.818
440.7329, 1644.380
441.2150, 1649.482
441.6971, 1670.328
442.1792, 1690.703
442.6613, 1698.818
443.1435, 1697.609
443.6256, 1693.762
444.1077, 1687.887
444.5898, 1682.868
445.0719, 1682.295
445.5540, 1686.469
446.0362, 1686.732
446.5183, 1680.994
447.0004, 1673.544
447.4825, 1663.839
447.9646, 1654.318
448.4467, 1650.356
448.9289, 1654.499
449.4110, 1661.884
449.8931, 1662.825
450.3752, 1656.851
450.8573, 1645.238
451.3394, 1620.041
451.8216, 1596.471
452.3037, 1584.047
452.7858, 1581.217
453.2679, 1579.617
453.7500, 1574.550
454.2321, 1566.598
454.7143, 1555.593
455.1964, 1540.263
455.6785, 1529.630
456.1606, 1532.183
456.6428, 1539.189
457.1249, 1535.077
457.6070, 1515.545
458.0891, 1497.339
458.5712, 1489.018
459.0533, 1485.461
459.5355, 1480.051
460.0176, 1471.644
460.4997, 1461.675
460.9818, 1450.648
461.4639, 1438.539
461.9460, 1432.025
462.4282, 1435.918
462.9103, 1439.448
463.3924, 1440.913
463.8745, 1440.271
464.3566, 1436.298
464.8387, 1428.730
465.3209, 1422.161
465.8030, 1425.155
466.2851, 1438.928
466.7672, 1445.080
467.2493, 1438.409
467.7314, 1428.434
468.2136, 1419.071
468.6957, 1411.226
469.1778, 1407.743
469.6599, 1413.071
470.1420, 1420.028
470.6241, 1422.212
471.1063, 1420.104
471.5884, 1414.594
472.0705, 1404.771
472.5526, 1395.426
473.0347, 1395.833
473.5168, 1414.953
473.9990, 1422.070
474.4811, 1402.258
474.9632, 1382.932
475.4453, 1385.812
475.9274, 1405.513
476.4095, 1421.923
476.8917, 1421.613
477.3738, 1409.580
477.8559, 1401.894
478.3380, 1399.885
478.8201, 1398.990
479.3022, 1399.192
479.7844, 1399.468
480.2665, 1399.321
480.7486, 1398.649
481.2307, 1396.960
481.7128, 1393.335
482.1949, 1388.687
482.6771, 1385.318
483.1592, 1383.386
483.6413, 1379.175
484.1234, 1368.302
484.6055, 1354.028
485.0876, 1350.279
485.5698, 1365.534
486.0519, 1377.919
486.5340, 1386.185
487.0161, 1388.130
487.4982, 1377.901
487.9803, 1356.708
488.4625, 1335.551
488.9446, 1325.888
489.4267, 1327.288
489.9088, 1325.457
490.3909, 1313.770
490.8730, 1309.463
491.3552, 1323.438
491.8373, 1344.487
492.3194, 1359.773
492.8015, 1365.889
493.2836, 1367.849
493.7657, 1371.426
494.2479, 1374.069
494.7300, 1365.240
495.2121, 1341.327
495.6942, 1319.168
496.1763, 1314.422
496.6584, 1326.356
497.1406, 1331.199
497.6227, 1320.606
498.1048, 1312.989
498.5869, 1314.886
499.0690, 1323.423
499.5511, 1336.790
500.0333, 1353.681
500.5154, 1368.303
500.9975, 1372.635
501.4796, 1365.605
501.9617, 1355.946
502.4438, 1336.948
502.9260, 1324.269
503.4081, 1328.200
503.8902, 1341.449
504.3723, 1351.274
504.8544, 1352.918
505.3365, 1351.871
505.8187, 1355.427
506.3008, 1360.739
506.7829, 1356.049
507.2650, 1337.123
507.7471, 1314.926
508.2292, 1299.453
508.7114, 1290.650
509.1935, 1293.234
509.6756, 1319.438
510.1577, 1343.121
510.6398, 1355.228
511.1219, 1357.499
511.6041, 1351.339
512.0862, 1337.527
512.5683, 1322.106
513.0504, 1314.339
513.5325, 1315.037
514.0146, 1316.704
514.4968, 1320.275
514.9789, 1322.970
515.4610, 1321.603
515.9431, 1318.311
516.4252, 1318.197
516.9073, 1324.513
517.3895, 1332.038
517.8716, 1339.034
518.3537, 1343.966
518.8358, 1340.834
519.3179, 1327.250
519.8000, 1312.301
520.2822, 1307.627
520.7643, 1315.864
521.2464, 1319.104
521.7285, 1313.058
522.2106, 1307.490
522.6927, 1306.974
523.1749, 1308.837
523.6570, 1307.421
524.1391, 1300.417
524.6212, 1294.948
525.1033, 1303.576
525.5854, 1325.883
526.0676, 1340.627
526.5497, 1344.568
527.0318, 1342.617
527.5139, 1335.960
527.9960, 1326.075
528.4781, 1317.330
528.9603, 1310.590
529.4424, 1304.801
529.9245, 1297.877
530.4066, 1291.920
530.8887, 1291.406
531.3708, 1297.371
531.8530, 1306.039
532.3351, 1313.459
532.8172, 1319.826
533.2993, 1322.962
533.7814, 1320.655
534.2635, 1317.499
534.7457, 1315.081
535.2278, 1312.385
535.7099, 1307.094
536.1920, 1298.119
536.6741, 1290.676
537.1563, 1290.023
537.6384, 1294.846
538.1205, 1301.426
538.6026, 1309.551
539.0847, 1317.931
539.5668, 1327.587
540.0490, 1337.044
540.5311, 1335.504
541.0132, 1310.851
541.4953, 1291.702
541.9774, 1288.754
542.4595, 1292.286
542.9417, 1291.560
543.4238, 1284.994
543.9059, 1278.520
544.3880, 1278.487
544.8701, 1283.824
545.3522, 1284.765
545.8344, 1278.438
546.3165, 1274.661
546.7986, 1277.299
547.2807, 1284.606
547.7628, 1298.149
548.2449, 1320.962
548.7271, 1332.220
549.2092, 1310.232
549.6913, 1278.291
550.1734, 1267.467
550.6555, 1277.479
551.1376, 1287.749
551.6198, 1284.875
552.1019, 1273.463
552.5840, 1269.925
553.0661, 1279.743
553.5482, 1288.215
554.0303, 1294.551
554.5125, 1299.331
554.9946, 1304.250
555.4767, 1308.289
555.9588, 1307.331
556.4409, 1295.034
556.9230, 1279.785
557.4052, 1276.418
557.8873, 1284.096
558.3694, 1290.627
558.8515, 1291.351
559.3336, 1290.565
559.8157, 1295.773
560.2979, 1310.980
560.7800, 1314.258
561.2621, 1290.643
561.7442, 1269.768
562.2263, 1269.489
562.7084, 1281.986
563.1906, 1291.926
563.6727, 1292.824
564.1548, 1290.290
564.6369, 1294.122
565.1190, 1304.689
565.6011, 1307.188
566.0833, 1296.462
566.5654, 1284.571
567.0475, 1278.775
567.5296, 1277.909
568.0117, 1280.053
568.4938, 1286.884
568.9760, 1293.918
569.4581, 1300.659
569.9402, 1305.653
570.4223, 1306.236
570.9044, 1302.286
571.3865, 1296.348
571.8687, 1289.743
572.3508, 1283.246
572.8329, 1286.396
573.3150, 1308.098
573.7971, 1323.687
574.2792, 1326.958
574.7614, 1322.448
575.2435, 1309.980
575.7256, 1290.363
576.2077, 1277.243
576.6898, 1284.856
577.1719, 1299.494
577.6541, 1300.357
578.1362, 1289.212
578.6183, 1283.432
579.1004, 1292.286
579.5825, 1307.615
580.0646, 1312.381
580.5468, 1298.647
581.0289, 1292.338
581.5110, 1297.686
581.9931, 1305.183
582.4752, 1310.497
582.9573, 1314.517
583.4395, 1320.239
583.9216, 1329.721
584.4037, 1338.378
584.8858, 1340.478
585.3679, 1336.804
585.8500, 1329.700
586.3322, 1318.331
586.8143, 1310.020
587.2964, 1312.381
587.7785, 1324.355
588.2606, 1330.732
588.7427, 1327.154
589.2249, 1324.152
589.7070, 1321.056
590.1891, 1321.392
590.6712, 1331.798
591.1533, 1351.064
591.6354, 1367.881
592.1176, 1372.690
592.5997, 1367.947
593.0818, 1359.897
593.5639, 1347.376
594.0460, 1340.083
594.5281, 1343.725
595.0103, 1352.010
595.4924, 1355.970
595.9745, 1355.531
596.4566, 1353.796
596.9387, 1349.905
597.4208, 1346.112
597.9030, 1343.397
598.3851, 1341.945
598.8672, 1341.825
599.3493, 1343.074
599.8314, 1345.873
600.3135, 1352.223
600.7957, 1362.626
601.2778, 1364.470
601.7599, 1349.782
602.2420, 1340.496
602.7241, 1358.073
603.2062, 1387.674
603.6884, 1401.136
604.1705, 1389.262
604.6526, 1375.210
605.1347, 1365.182
605.6168, 1359.449
606.0989, 1359.909
606.5811, 1365.476
607.0632, 1371.889
607.5453, 1376.817
608.0274, 1378.864
608.5095, 1371.906
608.9916, 1351.251
609.4738, 1337.127
609.9559, 1334.649
610.4380, 1337.980
610.9201, 1342.547
611.4022, 1348.912
611.8843, 1359.673
612.3665, 1387.910
612.8486, 1408.440
613.3307, 1395.661
613.8128, 1365.796
614.2949, 1348.749
614.7770, 1351.893
615.2592, 1365.344
615.7413, 1380.907
616.2234, 1398.183
616.7055, 1404.124
617.1876, 1390.300
617.6697, 1380.559
618.1519, 1382.917
618.6340, 1391.134
619.1161, 1402.464
619.5982, 1416.402
620.0803, 1424.542
620.5624, 1419.911
621.0446, 1410.156
621.5267, 1399.997
622.0088, 1391.265
622.4909, 1390.331
622.9730, 1400.067
623.4551, 1411.832
623.9373, 1411.142
624.4194, 1394.331
624.9015, 1384.801
625.3836, 1384.890
625.8657, 1389.574
626.3478, 1400.302
626.8300, 1412.788
627.3121, 1419.850
627.7942, 1418.713
628.2763, 1420.983
628.7584, 1439.598
629.2405, 1462.125
629.7227, 1468.267
630.2048, 1459.974
630.6869, 1457.436
631.1690, 1472.923
631.6511, 1496.437
632.1332, 1503.196
632.6154, 1485.419
633.0975, 1472.599
633.5796, 1467.038
634.0617, 1465.385
634.5438, 1465.809
635.0259, 1469.010
635.5081, 1477.395
635.9902, 1494.495
636.4723, 1509.721
636.9544, 1512.199
637.4365, 1509.701
637.9186, 1515.015
638.4008, 1529.367
638.8829, 1547.046
639.3650, 1564.873
639.8471, 1581.748
640.3292, 1593.434
640.8113, 1597.772
641.2935, 1602.391
641.7756, 1607.542
642.2577, 1613.858
642.7398, 1621.420
643.2219, 1630.409
643.7040, 1641.534
644.1862, 1657.566
644.6683, 1672.356
645.1504, 1678.475
645.6325, 1681.533
646.1146, 1693.301
646.5967, 1714.840
647.0789, 1734.554
647.5610, 1741.435
648.0431, 1739.031
648.5252, 1748.733
649.0073, 1779.327
649.4894, 1799.384
649.9716, 1792.323
650.4537, 1781.373
650.9358, 1785.628
651.4179, 1802.614
651.9000, 1815.638
652.3821, 1813.643
652.8643, 1812.519
653.3464, 1827.634
653.8285, 1848.793
654.3106, 1855.467
654.7927, 1844.745
655.2748, 1835.204
655.7570, 1847.310
656.2391, 1875.230
656.7212, 1880.273
657.2033, 1855.053
657.6854, 1829.387
658.1675, 1811.043
658.6497, 1795.289
659.1318, 1775.767
659.6139, 1753.110
660.0960, 1736.115
660.5781, 1736.158
661.0602, 1732.363
661.5424, 1706.336
662.0245, 1671.508
662.5066, 1650.428
662.9887, 1647.316
663.4708, 1647.793
663.9529, 1638.730
664.4351, 1621.259
664.9172, 1599.207
665.3993, 1570.616
665.8814, 1548.390
666.3635, 1539.409
666.8456, 1535.161
667.3278, 1525.018
667.8099, 1508.821
668.2920, 1493.936
668.7741, 1481.625
669.2562, 1469.980
669.7383, 1460.909
670.2205, 1450.837
670.7026, 1432.154
671.1847, 1404.996
671.6668, 1381.665
672.1489, 1376.552
672.6310, 1383.130
673.1132, 1380.997
673.5953, 1369.908
674.0774, 1362.336
674.5595, 1364.669
675.0416, 1367.403
675.5237, 1357.077
676.0059, 1330.996
676.4880, 1310.981
676.9701, 1299.066
677.4522, 1290.201
677.9343, 1283.315
678.4164, 1278.458
678.8986, 1276.765
679.3807, 1277.916
679.8628, 1278.212
680.3449, 1273.680
680.8270, 1267.324
681.3091, 1262.178
681.7913, 1259.046
682.2734, 1264.798
682.7555, 1283.022
683.2376, 1300.848
683.7197, 1301.550
684.2018, 1283.865
684.6840, 1270.776
685.1661, 1267.347
685.6482, 1261.476
686.1303, 1246.558
686.6124, 1230.915
687.0945, 1222.276
687.5767, 1221.159
688.0588, 1222.936
688.5409, 1227.989
689.0230, 1232.910
689.5051, 1234.769
689.9872, 1234.025
690.4694, 1230.448
690.9515, 1224.395
691.4336, 1220.915
691.9157, 1226.949
692.3978, 1240.664
692.8799, 1242.969
693.3621, 1227.945
693.8442, 1219.347
694.3263, 1226.829
694.8084, 1240.529
695.2905, 1252.651
695.7726, 1262.937
696.2548, 1266.058
696.7369, 1253.986
697.2190, 1242.660
697.7011, 1239.721
698.1832, 1241.640
698.6653, 1245.050
699.1475, 1248.586
699.6296, 1250.336
700.1117, 1248.541
700.5938, 1244.132
701.0759, 1238.765
701.5580, 1232.506
702.0402, 1227.404
702.5223, 1224.154
703.0044, 1221.871
703.4865, 1220.933
703.9686, 1221.054
704.4507, 1213.671
704.9329, 1184.914
705.4150, 1167.415
705.8971, 1173.463
706.3792, 1185.982
706.8613, 1193.223
707.3434, 1194.346
707.8256, 1192.579
708.3077, 1188.099
708.7898, 1183.487
709.2719, 1183.556
709.7540, 1185.122
710.2361, 1177.610
710.7183, 1160.314
711.2004, 1148.635
711.6825, 1156.170
712.1646, 1175.587
712.6467, 1176.684
713.1288, 1151.010
713.6110, 1133.729
714.0931, 1132.821
714.5752, 1136.802
715.0573, 1140.925
715.5394, 1143.874
716.0215, 1141.643
716.5037, 1129.746
716.9858, 1119.823
717.4679, 1116.264
717.9500, 1116.392
718.4321, 1118.313
718.9142, 1121.538
719.3964, 1126.107
719.8785, 1132.223
720.3606, 1138.274
720.8427, 1142.730
721.3248, 1145.264
721.8069, 1143.206
722.2891, 1135.984
722.7712, 1126.090
723.2533, 1113.372
723.7354, 1100.825
724.2175, 1095.731
724.6996, 1100.373
725.1818, 1107.603
725.6639, 1125.303
726.1460, 1136.804
726.6281, 1130.525
727.1102, 1115.597
727.5923, 1106.741
728.0745, 1107.886
728.5566, 1107.082
729.0387, 1094.749
729.5208, 1078.138
730.0029, 1061.954
730.4850, 1049.094
730.9672, 1048.813
731.4493, 1064.355
731.9314, 1084.652
732.4135, 1095.789
732.8956, 1098.044
733.3777, 1097.413
733.8599, 1093.040
734.3420, 1088.511
734.8241, 1083.868
735.3062, 1080.826
735.7883, 1083.612
736.2704, 1092.772
736.7526, 1094.735
737.2347, 1079.524
737.7168, 1068.091
738.1989, 1072.725
738.6810, 1081.592
739.1631, 1080.719
739.6453, 1069.815
740.1274, 1060.193
740.6095, 1059.976
741.0916, 1063.523
741.5737, 1060.290
742.0558, 1054.372
742.5380, 1064.064
743.0201, 1092.434
743.5022, 1113.720
743.9843, 1104.859
744.4664, 1074.520
744.9485, 1061.748
745.4307, 1074.002
745.9128, 1081.118
746.3949, 1077.019
746.8770, 1070.376
747.3591, 1066.054
747.8412, 1063.527
748.3234, 1061.497
748.8055, 1058.704
749.2876, 1058.735
749.7697, 1065.855
750.2518, 1073.449
750.7339, 1075.873
751.2161, 1074.451
751.6982, 1073.418
752.1803, 1074.557
752.6624, 1075.597
753.1445, 1073.969
753.6266, 1070.294
754.1088, 1065.989
754.5909, 1061.193
755.0730, 1056.300
755.5551, 1051.163
756.0372, 1047.594
756.5193, 1049.153
757.0015, 1057.089
757.4836, 1060.161
757.9657, 1058.422
758.4478, 1051.777
758.9299, 1032.037
759.4120, 1012.723
759.8942, 1008.790
760.3763, 1020.094
760.8584, 1028.544
761.3405, 1026.952
761.8226, 1024.715
762.3047, 1026.873
762.7869, 1030.947
763.2690, 1033.566
763.7511, 1034.541
764.2332, 1036.061
764.7153, 1039.753
765.1974, 1044.532
765.6796, 1048.290
766.1617, 1051.463
766.6438, 1058.191
767.1259, 1069.425
767.6080, 1073.679
768.0901, 1060.472
768.5723, 1038.280
769.0544, 1035.603
769.5365, 1065.449
770.0186, 1078.284
770.5007, 1057.554
770.9828, 1038.343
771.4650, 1040.887
771.9471, 1055.056
772.4292, 1065.009
772.9113, 1068.940
773.3934, 1070.446
773.8755, 1072.182
774.3577, 1070.143
774.8398, 1057.636
775.3219, 1040.981
775.8040, 1030.513
776.2861, 1028.851
776.7682, 1030.909
777.2504, 1032.737
777.7325, 1035.050
778.2146, 1041.773
778.6967, 1050.921
779.1788, 1051.175
779.6609, 1039.150
780.1431, 1025.016
780.6252, 1018.642
781.1073, 1018.829
781.5894, 1017.408
782.0715, 1013.262
782.5536, 1010.894
783.0358, 1010.924
783.5179, 1013.076
784.0000, 1021.386
784.4821, 1031.861
784.9642, 1030.066
785.4464, 1000.820
785.9285, 985.0983
786.4106, 1002.970
786.8927, 1024.855
787.3748, 1031.011
787.8569, 1025.663
788.3391, 1019.274
788.8212, 1014.985
789.3033, 1014.130
789.7854, 1021.646
790.2675, 1030.906
790.7496, 1031.326
791.2318, 1024.466
791.7139, 1017.246
792.1960, 1012.108
792.6781, 1007.754
793.1602, 1002.534
793.6423, 996.7412
794.1245, 992.1252
794.6066, 988.3496
795.0887, 988.3955
795.5708, 994.4318
796.0529, 1001.573
796.5350, 1005.789
797.0172, 1007.102
797.4993, 1005.706
797.9814, 995.9769
798.4635, 991.5678
798.9456, 998.4589
799.4277, 1005.948
799.9099, 1007.795
800.3920, 1005.137
800.8741, 1000.846
801.3562, 994.6651
801.8383, 990.5600
802.3204, 993.8621
802.8026, 997.5098
803.2847, 992.9214
803.7668, 983.2368
804.2489, 976.5953
804.7310, 975.7827
805.2131, 977.5117
805.6953, 979.9764
806.1774, 981.9533
806.6595, 978.3518
807.1416, 969.9800
807.6237, 964.9181
808.1058, 965.5038
808.5880, 970.0726
809.0701, 978.0211
809.5522, 988.1833
810.0343, 991.8004
810.5164, 986.9677
810.9985, 980.7800
811.4807, 971.4931
811.9628, 964.6553
812.4449, 966.7787
812.9270, 974.0664
813.4091, 975.3524
813.8912, 966.0291
814.3734, 960.0081
814.8555, 962.0087
815.3376, 965.0712
815.8197, 966.1845
816.3018, 965.3272
816.7839, 962.6484
817.2661, 958.2156
817.7482, 953.3711
818.2303, 945.4702
818.7124, 940.4377
819.1945, 948.3690
819.6766, 963.0540
820.1588, 970.6373
820.6409, 968.4939
821.1230, 963.6810
821.6051, 961.6750
822.0872, 961.5209
822.5693, 961.1210
823.0515, 960.4943
823.5336, 959.0208
824.0157, 956.1691
824.4978, 957.3359
824.9799, 967.5750
825.4620, 981.6316
825.9442, 985.5468
826.4263, 975.1483
826.9084, 967.9760
827.3906, 964.5264
827.8727, 963.5872
828.3548, 967.5681
828.8369, 972.1216
829.3190, 970.9933
829.8011, 963.5989
830.2833, 957.4446
830.7654, 952.8060
831.2475, 950.3642
831.7296, 952.2144
832.2117, 955.0155
832.6938, 953.8572
833.1760, 950.0992
833.6581, 951.5995
834.1402, 965.6619
834.6223, 978.2421
835.1044, 977.3320
835.5865, 968.6776
836.0687, 957.1990
836.5508, 945.6288
837.0329, 940.2648
837.5150, 944.0711
837.9971, 951.1102
838.4792, 954.3629
838.9614, 954.3626
839.4435, 952.0897
839.9256, 947.8105
840.4077, 946.2034
840.8898, 948.9924
841.3719, 953.9204
841.8541, 958.8651
842.3362, 963.6756
842.8183, 967.7330
843.3004, 972.2629
843.7825, 971.5496
844.2646, 961.5661
844.7468, 951.0201
845.2289, 945.2880
845.7110, 943.8041
846.1931, 945.0519
846.6752, 951.9114
847.1573, 955.2686
847.6395, 951.4771
848.1216, 947.7813
848.6037, 948.5397
849.0858, 950.7454
849.5679, 949.3074
850.0500, 943.6342
850.5322, 940.6921
851.0143, 946.8802
851.4964, 952.7741
851.9785, 949.2639
852.4606, 943.7043
852.9427, 948.4563
853.4249, 961.8474
853.9070, 969.4917
854.3891, 961.4570
854.8712, 950.5630
855.3533, 954.4762
855.8354, 965.9718
856.3176, 968.2688
856.7997, 961.6860
857.2818, 956.9478
857.7639, 958.8351
858.2460, 961.8958
858.7281, 957.7954
859.2103, 948.0043
859.6924, 943.8798
860.1745, 945.8951
860.6566, 945.6237
861.1387, 940.1090
861.6208, 934.6703
862.1030, 934.6457
862.5851, 938.7298
863.0672, 939.0346
863.5493, 931.4612
864.0314, 930.9343
864.5135, 943.2416
864.9957, 956.2357
865.4778, 966.0490
865.9599, 971.2123
866.4420, 967.6520
866.9241, 951.9411
867.4063, 942.1438
867.8884, 942.5061
868.3705, 945.6403
868.8526, 952.6889
869.3347, 958.6208
869.8168, 955.9337
870.2990, 946.2363
870.7811, 941.6151
871.2632, 950.9699
871.7453, 959.4532
872.2274, 956.9123
872.7095, 951.1169
873.1917, 949.5900
873.6738, 951.9981
874.1559, 955.9769
874.6380, 960.6914
875.1201, 963.3045
875.6022, 959.4261
876.0844, 953.0049
876.5665, 949.9599
877.0486, 949.7064
877.5307, 950.9288
878.0128, 952.8376
878.4949, 951.6859
878.9771, 942.9939
879.4592, 931.9297
879.9413, 932.8958
880.4234, 944.1655
880.9055, 949.1380
881.3876, 945.6611
881.8698, 940.9001
882.3519, 938.9011
882.8340, 937.2520
883.3161, 929.6890
883.7982, 914.8447
884.2803, 917.7499
884.7625, 946.3701
885.2446, 966.4996
885.7267, 966.1441
886.2088, 957.1946
886.6909, 948.8538
887.1730, 941.7842
887.6552, 942.0363
888.1373, 958.4465
888.6194, 967.0778
889.1015, 960.1577
889.5836, 952.1845
890.0657, 950.6407
890.5479, 952.1105
891.0300, 949.9805
891.5121, 942.5109
891.9942, 939.5987
892.4763, 948.9957
892.9584, 956.0297
893.4406, 950.7286
893.9227, 943.1185
894.4048, 945.0721
894.8869, 955.1835
895.3690, 962.3184
895.8511, 961.5355
896.3333, 958.8270
896.8154, 956.1185
897.2975, 954.3162
897.7796, 956.5316
898.2617, 959.8502
898.7438, 955.7521
899.2260, 942.3138
899.7081, 933.2558
900.1902, 948.5455
900.6723, 967.4767
901.1544, 953.1565
901.6365, 923.9688
902.1187, 927.3588
902.6008, 964.9020
903.0829, 993.4010
903.5650, 984.9333
904.0471, 959.4355
904.5292, 944.9020
905.0114, 939.8939
905.4935, 941.2089
905.9756, 947.7635
906.4577, 951.0592
906.9398, 947.8048
907.4219, 943.3066
907.9041, 943.3891
908.3862, 947.5065
908.8683, 953.9552
909.3504, 963.0369
909.8325, 969.0886
910.3146, 971.2058
910.7968, 969.6188
911.2789, 963.4724
911.7610, 955.5354
912.2431, 952.4266
912.7252, 955.3725
913.2073, 956.2733
913.6895, 955.4669
914.1716, 950.9556
914.6537, 937.0826
915.1358, 926.4724
915.6179, 934.8682
916.1000, 959.7700
916.5822, 975.7075
917.0643, 976.6823
917.5464, 978.8297
918.0285, 985.4104
918.5106, 990.6688
918.9927, 992.9208
919.4749, 991.7410
919.9570, 984.3236
920.4391, 968.4930
920.9212, 961.5068
921.4033, 979.4918
921.8854, 988.3810
922.3676, 967.3738
922.8497, 941.3987
923.3318, 931.9755
923.8139, 936.8883
924.2960, 942.6956
924.7781, 945.2131
925.2603, 950.8677
925.7424, 969.2546
926.2245, 984.1891
926.7066, 981.2377
927.1887, 969.3075
927.6708, 960.8980
928.1530, 958.6056
928.6351, 960.2121
929.1172, 969.5554
929.5993, 975.9839
930.0814, 965.7676
930.5635, 952.8714
931.0457, 956.7137
931.5278, 972.7652
932.0099, 984.4755
932.4920, 985.5715
932.9741, 981.5773
933.4562, 972.5648
933.9384, 964.6670
934.4205, 967.2467
934.9026, 976.4946
935.3847, 986.1718
935.8668, 993.8080
936.3489, 994.7440
936.8311, 984.6052
937.3132, 972.7234
937.7953, 973.7767
938.2774, 982.1451
938.7595, 984.7753
939.2416, 981.8710
939.7238, 977.7311
940.2059, 974.0164
940.6880, 972.6602
941.1701, 977.1649
941.6522, 983.2210
942.1343, 977.1271
942.6165, 961.9666
943.0986, 956.9389
943.5807, 964.0184
944.0628, 969.4941
944.5449, 965.9357
945.0270, 959.7615
945.5092, 961.5865
945.9913, 970.0516
946.4734, 973.8821
946.9555, 973.0635
947.4376, 969.0723
947.9197, 961.8522
948.4019, 954.9439
948.8840, 950.8736
949.3661, 949.4673
949.8482, 950.0024
950.3303, 952.2598
950.8124, 960.6436
951.2946, 977.6530
951.7767, 987.8806
952.2588, 984.1065
952.7409, 975.7709
953.2230, 973.0995
953.7051, 975.2301
954.1873, 975.6660
954.6694, 973.5665
955.1515, 973.2264
955.6336, 976.5917
956.1157, 977.6190
956.5978, 971.4452
957.0800, 963.4304
957.5621, 962.7944
958.0442, 970.2944
958.5263, 975.2639
959.0084, 977.3622
959.4905, 977.3741
959.9727, 972.4202
960.4548, 969.9150
960.9369, 976.6480
961.4190, 989.0115
961.9011, 997.6064
962.3832, 1002.836
962.8654, 1002.853
963.3475, 991.6204
963.8296, 984.1899
964.3117, 989.6415
964.7938, 996.2692
965.2759, 990.1359
965.7581, 974.6380
966.2402, 970.4243
966.7223, 990.2280
967.2044, 1000.268
967.6865, 988.2072
968.1686, 979.8589
968.6508, 993.1767
969.1329, 1011.087
969.6150, 1010.185
970.0971, 990.4222
970.5792, 978.4610
971.0613, 978.5660
971.5435, 983.9717
972.0256, 1001.329
972.5077, 1015.714
972.9898, 1017.387
973.4719, 1010.531
973.9540, 999.6626
974.4362, 983.8101
974.9183, 980.4874
975.4004, 1007.344
975.8825, 1027.899
976.3646, 1026.394
976.8467, 1018.191
977.3289, 1014.196
977.8110, 1013.731
978.2931, 1012.210
978.7752, 1007.400
979.2573, 1007.902
979.7394, 1025.002
980.2216, 1036.898
980.7037, 1028.396
981.1858, 1013.847
981.6679, 1007.279
982.1500, 1008.462
982.6321, 1011.336
983.1143, 1017.506
983.5964, 1017.340
984.0785, 995.5251
984.5606, 979.7804
985.0427, 996.7919
985.5248, 1023.241
986.0070, 1025.414
986.4891, 1003.730
986.9712, 989.9017
987.4533, 1003.833
987.9354, 1010.847
988.4175, 984.8586
988.8997, 959.4144
989.3818, 962.4016
989.8639, 981.0837
990.3460, 994.8137
990.8281, 999.8127
991.3102, 1000.445
991.7924, 995.8296
992.2745, 990.5946
992.7566, 986.8185
993.2387, 983.3419
993.7208, 979.5899
994.2029, 975.2350
994.6851, 968.8103
995.1672, 959.9568
995.6493, 954.5349
996.1314, 959.2916
996.6135, 963.0760
997.0956, 957.0911
997.5778, 949.5741
998.0599, 949.7588
998.5420, 955.3595
999.0241, 958.2463
999.5062, 955.7275
999.9883, 954.8389
1000.470, 964.0109
1000.953, 969.8105
1001.435, 959.2668
1001.917, 944.6449
1002.399, 937.3708
1002.881, 938.9210
1003.363, 950.8589
1003.845, 978.8539
1004.327, 994.6329
1004.810, 975.0546
1005.292, 949.6044
1005.774, 936.4707
1006.256, 929.4882
1006.738, 920.6224
1007.220, 909.4191
1007.702, 898.5402
1008.184, 886.7276
1008.666, 881.5558
1009.149, 887.9224
1009.631, 900.7752
1010.113, 923.6080
1010.595, 946.5561
1011.077, 958.2561
1011.559, 957.3824
1012.041, 946.8061
1012.523, 919.1445
1013.005, 899.2127
1013.488, 904.8270
1013.970, 914.4647
1014.452, 911.4562
1014.934, 903.4393
1015.416, 901.6402
1015.898, 907.6341
1016.380, 918.4582
1016.862, 941.6226
1017.345, 955.9244
1017.827, 944.8046
1018.309, 930.5408
1018.791, 931.0977
1019.273, 938.1163
1019.755, 935.9300
1020.237, 923.1578
1020.719, 914.7122
1021.201, 921.5832
1021.684, 924.8917
1022.166, 912.3232
1022.648, 900.0980
1023.130, 899.7469
1023.612, 907.4385
1024.094, 918.5285
1024.576, 932.0747
1025.058, 936.7082
1025.541, 918.7154
1026.023, 906.4261
1026.505, 915.6843
1026.987, 926.1194
1027.469, 922.3755
1027.951, 910.4904
1028.433, 901.4775
1028.915, 896.6497
1029.397, 894.6009
1029.880, 899.7399
1030.362, 901.1084
1030.844, 888.5936
1031.326, 878.7819
1031.808, 885.8250
1032.290, 902.1535
1032.772, 914.5773
1033.254, 922.5080
1033.736, 922.7612
1034.219, 905.4622
1034.701, 893.9258
1035.183, 897.3884
1035.665, 903.3248
1036.147, 901.4413
1036.629, 897.1295
1037.111, 904.2219
1037.593, 928.2775
1038.076, 934.8132
1038.558, 906.5336
1039.040, 886.3275
1039.522, 884.2368
1040.004, 887.8856
1040.486, 892.0796
1040.968, 895.6498
1041.450, 895.7689
1041.932, 891.5054
1042.415, 889.4260
1042.897, 889.8891
1043.379, 892.1560
1043.861, 898.9705
1044.343, 902.8825
1044.825, 897.4429
1045.307, 887.2433
1045.789, 881.1868
1046.271, 879.3385
1046.754, 881.8842
1047.236, 891.7841
1047.718, 897.5519
1048.200, 896.3539
1048.682, 891.9089
1049.164, 884.9598
1049.646, 878.7758
1050.128, 880.7799
1050.611, 891.5344
1051.093, 895.9906
1051.575, 893.4756
1052.057, 886.7719
1052.539, 874.3427
1053.021, 868.7410
1053.503, 880.1334
1053.985, 895.9751
1054.468, 891.2783
1054.950, 868.1036
1055.432, 861.6625
1055.914, 872.4708
1056.396, 885.5497
1056.878, 898.6312
1057.360, 904.5609
1057.842, 898.2281
1058.324, 888.5035
1058.807, 890.0042
1059.289, 900.0709
1059.771, 905.9977
1060.253, 907.8370
1060.735, 905.3069
1061.217, 898.6154
1061.699, 889.7194
1062.181, 879.3882
1062.663, 872.2429
1063.146, 876.4880
1063.628, 887.2178
1064.110, 892.7621
1064.592, 893.4557
1065.074, 887.4985
1065.556, 876.8998
1066.038, 872.2616
1066.520, 878.4678
1067.003, 888.6010
1067.485, 899.5082
1067.967, 906.7448
1068.449, 899.0800
1068.931, 884.5901
1069.413, 878.0690
1069.895, 880.0039
1070.377, 886.1596
1070.859, 894.6950
1071.342, 900.0749
1071.824, 896.2841
1072.306, 889.0997
1072.788, 880.5280
1073.270, 874.2380
1073.752, 877.8856
1074.234, 887.0490
1074.716, 890.2863
1075.199, 884.5714
1075.681, 877.7722
1076.163, 873.1660
1076.645, 869.8347
1077.127, 867.0580
1077.609, 865.4949
1078.091, 866.0092
1078.573, 868.0497
1079.056, 871.8574
1079.538, 877.2324
1080.020, 877.8599
1080.502, 864.8792
1080.984, 856.9612
1081.466, 862.5546
1081.948, 871.2760
1082.430, 879.5294
1082.912, 885.4711
1083.395, 885.2629
1083.877, 879.0000
1084.359, 877.0884
1084.841, 883.7701
1085.323, 889.2371
1085.805, 895.5793
1086.287, 896.8743
1086.769, 886.2576
1087.251, 874.0818
1087.734, 875.0275
1088.216, 885.7465
1088.698, 878.4539
1089.180, 839.4103
1089.662, 828.5574
1090.144, 859.8813
1090.626, 883.3223
1091.108, 879.8981
1091.591, 866.4052
1092.073, 857.3123
1092.555, 853.1514
1093.037, 857.8223
1093.519, 871.8101
1094.001, 877.6072
1094.483, 874.2700
1094.965, 874.3273
1095.448, 881.6528
1095.930, 883.2062
1096.412, 867.9971
1096.894, 845.8481
1097.376, 833.3182
1097.858, 830.0574
1098.340, 838.0626
1098.822, 854.4532
1099.304, 867.4890
1099.786, 874.4354
1100.269, 874.6722
1100.751, 867.2306
1101.233, 860.2376
1101.715, 866.2410
1102.197, 876.1017
1102.679, 874.2362
1103.161, 866.6890
1103.643, 865.2203
1104.126, 869.8847
1104.608, 874.6669
1105.090, 877.3439
1105.572, 879.1238
1106.054, 878.1356
1106.536, 879.6961
1107.018, 896.7577
1107.500, 910.7994
1107.983, 894.7883
1108.465, 862.5197
1108.947, 846.0792
1109.429, 851.8690
1109.911, 859.7327
1110.393, 863.9825
1110.875, 868.7346
1111.357, 878.3656
1111.839, 885.3932
1112.322, 885.0132
1112.804, 879.4766
1113.286, 870.8480
1113.768, 859.3987
1114.250, 850.9659
1114.732, 842.8046
1115.214, 843.5727
1115.696, 859.6931
1116.178, 873.2313
1116.661, 877.2542
1117.143, 876.9494
1117.625, 877.4473
1118.107, 877.7834
1118.589, 873.7987
1119.071, 864.7996
1119.553, 856.8628
1120.035, 849.7360
1120.518, 848.4249
1121.000, 854.7231
1121.482, 861.5298
1121.964, 863.7582
1122.446, 863.5368
1122.928, 866.3292
1123.410, 869.7615
1123.892, 859.7657
1124.375, 841.5968
1124.857, 840.7623
1125.339, 857.9799
1125.821, 871.6531
1126.303, 871.5882
1126.785, 863.9296
1127.267, 848.2543
1127.749, 834.5901
1128.231, 840.6145
1128.714, 853.1747
1129.196, 850.7211
1129.678, 838.2803
1130.160, 832.8666
1130.642, 838.7598
1131.124, 848.5023
1131.606, 863.6837
1132.088, 874.2536
1132.570, 871.9512
1133.053, 867.1474
1133.535, 866.6250
1134.017, 868.4227
1134.499, 868.9179
1134.981, 868.2392
1135.463, 870.1209
1135.945, 881.5980
1136.427, 882.9603
1136.910, 865.1451
1137.392, 850.4667
1137.874, 844.8512
1138.356, 845.4620
1138.838, 851.5153
1139.320, 860.8239
1139.802, 868.0479
1140.284, 873.5393
1140.766, 872.3094
1141.249, 863.3391
1141.731, 856.3214
1142.213, 853.0782
1142.695, 852.9036
1143.177, 855.7037
1143.659, 858.8237
1144.141, 857.7885
1144.623, 854.9766
1145.105, 858.5769
1145.588, 866.0547
1146.070, 868.2236
1146.552, 865.7142
1147.034, 865.9114
1147.516, 870.8257
1147.998, 874.2430
1148.480, 870.7310
1148.962, 865.9076
1149.445, 864.9571
1149.927, 865.5700
1150.409, 867.4230
1150.891, 867.8710
1151.373, 859.3395
1151.855, 844.7859
1152.337, 840.4458
1152.819, 851.3875
1153.302, 871.6635
1153.784, 928.3567
1154.266, 956.4047
1154.748, 898.3292
1155.230, 831.5714
1155.712, 823.9221
1156.194, 851.1086
1156.676, 864.8635
1157.158, 864.1049
1157.641, 861.6414
1158.123, 856.0439
1158.605, 853.4866
1159.087, 854.8774
1159.569, 859.8617
1160.051, 869.6731
1160.533, 876.6319
1161.015, 870.8684
1161.497, 857.1151
1161.980, 848.5069
1162.462, 845.1558
1162.944, 849.8065
1163.426, 860.8498
1163.908, 870.6447
1164.390, 876.9539
1164.872, 880.5705
1165.354, 882.1606
1165.837, 880.0799
1166.319, 868.7189
1166.801, 856.4600
1167.283, 850.9189
1167.765, 851.8468
1168.247, 863.4207
1168.729, 879.8239
1169.211, 884.5278
1169.693, 872.7888
1170.176, 866.1473
1170.658, 878.0770
1171.140, 887.3242
1171.622, 888.9219
1172.104, 884.6416
1172.586, 868.3043
1173.068, 851.9451
1173.550, 850.9989
1174.032, 863.2060
1174.515, 874.6603
1174.997, 888.2941
1175.479, 887.5619
1175.961, 867.2924
1176.443, 858.3969
1176.925, 870.9481
1177.407, 883.4581
1177.889, 880.6780
1178.372, 869.9950
1178.854, 861.9144
1179.336, 856.8435
1179.818, 858.4842
1180.300, 863.9665
1180.782, 861.8781
1181.264, 854.1102
1181.746, 855.1323
1182.229, 869.1037
1182.711, 880.8315
1183.193, 879.6183
1183.675, 872.8154
1184.157, 861.7317
1184.639, 851.8057
1185.121, 848.5441
1185.603, 848.9773
1186.085, 848.3406
1186.568, 847.0206
1187.050, 849.2871
1187.532, 856.9467
1188.014, 864.9463
1188.496, 877.7964
1188.978, 882.3964
1189.460, 870.7954
1189.942, 859.9585
1190.424, 860.1321
1190.907, 866.7405
1191.389, 874.2238
1191.871, 881.3442
1192.353, 877.5548
1192.835, 863.6418
1193.317, 859.2401
1193.799, 864.7917
1194.281, 865.8266
1194.764, 858.1719
1195.246, 848.8102
1195.728, 841.9157
1196.210, 839.5772
1196.692, 847.8751
1197.174, 858.9902
1197.656, 865.1149
1198.138, 865.9305
1198.620, 857.4802
1199.103, 844.5589
1199.585, 840.7794
1200.067, 849.8447
1200.549, 857.7380
1201.031, 856.5767
1201.513, 858.9739
1201.995, 874.0746
1202.477, 885.9902
1202.959, 886.6454
1203.442, 880.8723
1203.924, 869.8286
1204.406, 858.2745
1204.888, 868.7505
1205.370, 906.6391
1205.852, 915.7794
1206.334, 894.4933
1206.816, 879.7875
1207.299, 879.0724
1207.781, 885.4822
1208.263, 895.6429
1208.745, 901.8270
1209.227, 890.7270
1209.709, 875.9539
1210.191, 882.9310
1210.673, 898.3348
1211.156, 902.2753
1211.638, 896.7807
1212.120, 888.1020
1212.602, 878.6088
1213.084, 872.4323
1213.566, 872.9865
1214.048, 871.1293
1214.530, 854.6484
1215.012, 847.6255
1215.495, 869.9042
1215.977, 893.7302
1216.459, 901.2409
1216.941, 897.2123
1217.423, 887.3219
1217.905, 872.6742
1218.387, 873.2086
1218.869, 891.0244
1219.351, 897.5541
1219.834, 890.5540
1220.316, 879.7877
1220.798, 868.5234
1221.280, 861.5229
1221.762, 862.8677
1222.244, 866.4510
1222.726, 861.4183
1223.208, 856.2355
1223.691, 868.6931
1224.173, 885.4563
1224.655, 881.8630
1225.137, 865.4025
1225.619, 861.7276
1226.101, 875.9469
1226.583, 884.3557
1227.065, 874.1055
1227.547, 866.1406
1228.030, 860.7095
1228.512, 863.5439
1228.994, 883.3185
1229.476, 902.3809
1229.958, 905.7966
1230.440, 899.0036
1230.922, 893.8928
1231.404, 890.3889
1231.886, 886.4823
1232.369, 882.4774
1232.851, 884.3827
1233.333, 891.6249
1233.815, 892.5567
1234.297, 883.6438
1234.779, 875.5645
1235.261, 876.5259
1235.743, 881.2651
1236.226, 885.3537
1236.708, 889.8926
1237.190, 899.4771
1237.672, 907.4766
1238.154, 902.8881
1238.636, 890.0147
1239.118, 882.2884
1239.600, 882.0621
1240.083, 882.9014
1240.565, 884.3439
1241.047, 886.9918
1241.529, 891.6842
1242.011, 895.7070
1242.493, 898.3248
1242.975, 898.5560
1243.457, 894.8082
1243.939, 890.4676
1244.422, 895.7086
1244.904, 905.4545
1245.386, 896.8358
1245.868, 878.7328
1246.350, 881.2794
1246.832, 900.4459
1247.314, 907.2992
1247.796, 894.3145
1248.278, 884.7986
1248.761, 895.2089
1249.243, 904.1666
1249.725, 900.0063
1250.207, 893.7789
1250.689, 887.6900
1251.171, 885.9839
1251.653, 896.1876
1252.135, 910.9529
1252.618, 914.4089
1253.100, 906.5745
1253.582, 902.2289
1254.064, 901.6498
1254.546, 901.5387
1255.028, 901.4532
1255.510, 894.3037
1255.992, 878.6976
1256.474, 872.3165
1256.957, 889.5000
1257.439, 910.6407
1257.921, 915.1993
1258.403, 910.1730
1258.885, 896.9667
1259.367, 884.0154
1259.849, 881.0392
1260.331, 886.1391
1260.813, 895.9625
1261.296, 909.3932
1261.778, 914.7904
1262.260, 903.2745
1262.742, 898.8788
1263.224, 907.1946
1263.706, 906.9499
1264.188, 889.3665
1264.670, 876.0820
1265.153, 881.5051
1265.635, 894.8215
1266.117, 901.6754
1266.599, 904.0103
1267.081, 905.7658
1267.563, 907.2946
1268.045, 909.5405
1268.527, 912.2163
1269.010, 915.3850
1269.492, 918.2648
1269.974, 917.9394
1270.456, 913.1626
1270.938, 906.3346
1271.420, 889.9584
1271.902, 883.6807
1272.384, 903.0034
1272.866, 922.0403
1273.349, 931.4247
1273.831, 930.7482
1274.313, 916.8986
##END=



