##NAMES=Congolite
##RRUFFID=R070149
##IDEAL CHEMISTRY=Fe^2+^_3_B_7_O_13_Cl
##LOCALITY=Lower Saxony, Germany
##OWNER=RRUFF
##SOURCE=James Shigley
##DESCRIPTION=Light brown pseudocubic crystal
##STATUS=The identification of this mineral is confirmed by single-crystal X-ray diffraction and chemical analysis.
##URL=rruff.info/R070149
##MEASURED CHEMISTRY=light core: (Fe^2+^_2.32_Mg_0.52_Mn_0.16_)_Σ=3_B_7_O_13_Cl_1.00_ ; gray rim: (Fe^2+^_2.16_Mg_0.77_Mn_0.17_)_Σ=3_B_7_O_13_Cl_1.00_ ; B estimated by difference and stoichiometry
164.6452, 35475.27
165.1273, 35487.39
165.6094, 35546.20
166.0915, 35628.80
166.5736, 35708.30
167.0558, 35780.42
167.5379, 35842.11
168.0200, 35878.70
168.5021, 35887.09
168.9842, 35915.21
169.4663, 36020.05
169.9485, 36166.09
170.4306, 36290.63
170.9127, 36358.45
171.3948, 36392.23
171.8769, 36408.72
172.3590, 36406.83
172.8412, 36400.94
173.3233, 36398.42
173.8054, 36401.02
174.2875, 36413.59
174.7696, 36443.13
175.2517, 36483.23
175.7339, 36523.91
176.2160, 36562.43
176.6981, 36605.26
177.1802, 36669.45
177.6623, 36749.65
178.1444, 36817.54
178.6266, 36842.55
179.1087, 36843.14
179.5908, 36862.72
180.0729, 36923.71
180.5550, 36988.28
181.0371, 36971.88
181.5193, 36881.89
182.0014, 36823.53
182.4835, 36926.46
182.9656, 37137.29
183.4477, 37280.24
183.9299, 37279.66
184.4120, 37203.29
184.8941, 37187.07
185.3762, 37232.10
185.8583, 37308.99
186.3404, 37412.03
186.8226, 37532.41
187.3047, 37620.83
187.7868, 37638.27
188.2689, 37613.73
188.7510, 37652.13
189.2331, 37760.82
189.7153, 37885.98
190.1974, 37953.59
190.6795, 37967.65
191.1616, 38003.55
191.6437, 38103.87
192.1258, 38256.89
192.6080, 38380.17
193.0901, 38474.36
193.5722, 38543.20
194.0543, 38582.92
194.5364, 38592.07
195.0185, 38606.90
195.5007, 38643.48
195.9828, 38701.67
196.4649, 38767.80
196.9470, 38846.01
197.4291, 38926.43
197.9112, 38990.16
198.3934, 39035.00
198.8755, 39078.60
199.3576, 39133.91
199.8397, 39202.43
200.3218, 39251.86
200.8039, 39274.20
201.2861, 39283.96
201.7682, 39315.70
202.2503, 39373.96
202.7324, 39435.77
203.2145, 39486.16
203.6966, 39522.44
204.1788, 39566.81
204.6609, 39619.77
205.1430, 39682.09
205.6251, 39763.80
206.1072, 39877.78
206.5893, 39975.18
207.0715, 40010.21
207.5536, 39961.28
208.0357, 39954.74
208.5178, 40014.83
208.9999, 40126.14
209.4820, 40230.81
209.9642, 40335.88
210.4463, 40419.32
210.9284, 40457.79
211.4105, 40435.64
211.8926, 40421.88
212.3748, 40422.73
212.8569, 40439.12
213.3390, 40484.36
213.8211, 40574.45
214.3032, 40665.55
214.7853, 40719.12
215.2675, 40723.48
215.7496, 40720.94
216.2317, 40710.85
216.7138, 40695.22
217.1959, 40715.33
217.6780, 40790.17
218.1602, 40875.28
218.6423, 40925.81
219.1244, 40929.13
219.6065, 40927.58
220.0886, 40920.23
220.5707, 40905.82
221.0529, 40942.14
221.5350, 41063.56
222.0171, 41197.37
222.4992, 41263.08
222.9813, 41228.64
223.4634, 41192.27
223.9456, 41174.23
224.4277, 41175.33
224.9098, 41185.34
225.3919, 41205.36
225.8740, 41233.29
226.3561, 41265.26
226.8383, 41292.82
227.3204, 41341.35
227.8025, 41430.24
228.2846, 41573.10
228.7667, 41656.72
229.2488, 41653.95
229.7310, 41612.04
230.2131, 41592.42
230.6952, 41604.09
231.1773, 41622.61
231.6594, 41642.76
232.1415, 41665.20
232.6237, 41683.36
233.1058, 41684.51
233.5879, 41689.98
234.0700, 41736.82
234.5521, 41856.54
235.0342, 41964.30
235.5164, 42033.70
235.9985, 42058.98
236.4806, 42065.09
236.9627, 42034.27
237.4448, 41994.94
237.9269, 41997.06
238.4091, 42066.95
238.8912, 42136.41
239.3733, 42180.36
239.8554, 42186.23
240.3375, 42209.58
240.8196, 42259.14
241.3018, 42321.55
241.7839, 42374.18
242.2660, 42414.32
242.7481, 42449.04
243.2302, 42480.71
243.7124, 42509.67
244.1945, 42533.34
244.6766, 42544.43
245.1587, 42553.73
245.6408, 42583.85
246.1229, 42646.57
246.6051, 42710.86
247.0872, 42763.99
247.5693, 42799.15
248.0514, 42844.50
248.5335, 42908.62
249.0156, 42979.42
249.4978, 43028.73
249.9799, 43044.33
250.4620, 43059.03
250.9441, 43085.82
251.4262, 43129.55
251.9083, 43172.12
252.3905, 43214.16
252.8726, 43254.54
253.3547, 43290.71
253.8368, 43325.96
254.3189, 43351.61
254.8010, 43359.27
255.2832, 43332.83
255.7653, 43338.02
256.2474, 43388.80
256.7295, 43464.38
257.2116, 43514.70
257.6937, 43523.72
258.1758, 43538.71
258.6580, 43587.55
259.1401, 43696.14
259.6222, 43749.77
260.1043, 43720.20
260.5865, 43651.72
261.0686, 43645.77
261.5507, 43726.15
262.0328, 43816.83
262.5149, 43885.18
262.9970, 43922.18
263.4792, 43973.11
263.9613, 44052.39
264.4434, 44135.93
264.9255, 44167.90
265.4076, 44130.44
265.8897, 44086.87
266.3719, 44059.79
266.8540, 44047.52
267.3361, 44063.05
267.8182, 44114.83
268.3003, 44186.79
268.7824, 44250.30
269.2646, 44306.22
269.7467, 44349.96
270.2288, 44376.77
270.7109, 44382.55
271.1930, 44395.38
271.6751, 44417.46
272.1573, 44444.38
272.6394, 44468.42
273.1215, 44489.49
273.6036, 44508.10
274.0857, 44521.40
274.5678, 44527.78
275.0500, 44547.53
275.5321, 44585.15
276.0142, 44630.04
276.4963, 44663.32
276.9784, 44683.50
277.4605, 44701.07
277.9427, 44718.09
278.4248, 44734.25
278.9069, 44760.10
279.3890, 44796.99
279.8711, 44840.83
280.3532, 44887.23
280.8354, 44936.71
281.3175, 44983.27
281.7996, 45024.00
282.2817, 45059.21
282.7638, 45088.51
283.2459, 45109.62
283.7281, 45130.98
284.2102, 45176.82
284.6923, 45247.66
285.1744, 45288.79
285.6565, 45243.50
286.1386, 45134.12
286.6208, 45122.44
287.1029, 45224.95
287.5850, 45364.78
288.0671, 45448.91
288.5492, 45480.55
289.0313, 45500.54
289.5135, 45525.50
289.9956, 45551.93
290.4777, 45562.44
290.9598, 45554.44
291.4419, 45547.70
291.9240, 45565.41
292.4062, 45605.16
292.8883, 45651.93
293.3704, 45704.94
293.8525, 45760.11
294.3346, 45813.23
294.8167, 45864.77
295.2989, 45901.98
295.7810, 45886.69
296.2631, 45840.48
296.7452, 45837.36
297.2273, 45945.68
297.7094, 46093.64
298.1916, 46149.55
298.6737, 46113.38
299.1558, 46061.20
299.6379, 46055.28
300.1200, 46083.25
300.6021, 46116.95
301.0843, 46142.96
301.5664, 46172.86
302.0485, 46228.48
302.5306, 46307.89
303.0127, 46382.02
303.4948, 46427.70
303.9770, 46454.34
304.4591, 46478.25
304.9412, 46507.22
305.4233, 46532.00
305.9054, 46539.43
306.3875, 46532.25
306.8697, 46526.54
307.3518, 46521.51
307.8339, 46527.75
308.3160, 46561.42
308.7981, 46647.66
309.2802, 46733.75
309.7624, 46773.80
310.2445, 46777.36
310.7266, 46780.25
311.2087, 46798.52
311.6908, 46826.54
312.1729, 46860.14
312.6551, 46902.46
313.1372, 46943.88
313.6193, 46978.45
314.1014, 47007.81
314.5835, 47035.79
315.0656, 47059.09
315.5478, 47085.05
316.0299, 47123.68
316.5120, 47193.37
316.9941, 47238.07
317.4762, 47206.99
317.9583, 47137.46
318.4405, 47101.81
318.9226, 47147.13
319.4047, 47213.43
319.8868, 47275.91
320.3690, 47334.94
320.8511, 47380.02
321.3332, 47387.46
321.8153, 47383.50
322.2974, 47408.34
322.7795, 47521.70
323.2617, 47617.97
323.7438, 47653.00
324.2259, 47603.25
324.7080, 47576.67
325.1901, 47612.65
325.6722, 47667.77
326.1544, 47690.42
326.6365, 47628.84
327.1186, 47585.20
327.6007, 47583.27
328.0828, 47628.96
328.5649, 47674.13
329.0471, 47722.61
329.5292, 47768.30
330.0113, 47806.00
330.4934, 47835.65
330.9755, 47857.12
331.4576, 47862.26
331.9398, 47852.16
332.4219, 47872.16
332.9040, 47944.25
333.3861, 48022.11
333.8682, 48068.42
334.3503, 48065.85
334.8325, 48073.45
335.3146, 48094.66
335.7967, 48131.46
336.2788, 48197.64
336.7609, 48307.64
337.2430, 48417.98
337.7252, 48500.46
338.2073, 48555.15
338.6894, 48582.71
339.1715, 48568.38
339.6536, 48538.84
340.1357, 48571.72
340.6179, 48678.54
341.1000, 48792.32
341.5821, 48881.99
342.0642, 48946.18
342.5463, 48989.57
343.0284, 49007.25
343.5106, 49013.92
343.9927, 49026.91
344.4748, 49046.30
344.9569, 49086.82
345.4390, 49161.10
345.9211, 49263.63
346.4033, 49376.76
346.8854, 49503.18
347.3675, 49621.89
347.8496, 49707.59
348.3317, 49762.43
348.8138, 49796.91
349.2960, 49805.21
349.7781, 49798.56
350.2602, 49804.25
350.7423, 49822.80
351.2244, 49825.43
351.7065, 49774.25
352.1887, 49689.11
352.6708, 49610.04
353.1529, 49539.48
353.6350, 49490.66
354.1171, 49497.51
354.5992, 49549.97
355.0814, 49580.62
355.5635, 49507.93
356.0456, 49402.99
356.5277, 49351.21
357.0098, 49403.23
357.4919, 49466.90
357.9741, 49482.18
358.4562, 49461.30
358.9383, 49440.66
359.4204, 49402.21
359.9025, 49392.64
360.3846, 49461.14
360.8668, 49663.07
361.3489, 49823.37
361.8310, 49825.47
362.3131, 49745.64
362.7952, 49717.88
363.2773, 49847.97
363.7595, 49980.34
364.2416, 50044.37
364.7237, 50013.56
365.2058, 50005.29
365.6879, 50059.09
366.1700, 50137.68
366.6522, 50198.89
367.1343, 50181.21
367.6164, 50205.87
368.0985, 50325.09
368.5806, 50547.49
369.0627, 50697.79
369.5449, 50731.78
370.0270, 50726.59
370.5091, 50739.48
370.9912, 50781.91
371.4733, 50822.11
371.9554, 50850.57
372.4376, 50872.70
372.9197, 50921.67
373.4018, 51015.69
373.8839, 51104.64
374.3660, 51156.34
374.8481, 51159.88
375.3303, 51168.79
375.8124, 51184.19
376.2945, 51208.09
376.7766, 51248.23
377.2587, 51307.16
377.7408, 51367.86
378.2230, 51427.42
378.7051, 51484.89
379.1872, 51521.39
379.6693, 51531.54
380.1514, 51536.18
380.6335, 51573.16
381.1157, 51638.35
381.5978, 51678.52
382.0799, 51659.65
382.5620, 51605.48
383.0442, 51578.71
383.5263, 51579.73
384.0084, 51584.91
384.4905, 51568.43
384.9726, 51539.51
385.4547, 51523.10
385.9369, 51536.78
386.4190, 51552.32
386.9011, 51529.24
387.3832, 51474.62
387.8653, 51424.82
388.3474, 51415.80
388.8296, 51418.47
389.3117, 51393.66
389.7938, 51316.32
390.2759, 51257.50
390.7580, 51280.82
391.2401, 51355.24
391.7223, 51415.43
392.2044, 51427.59
392.6865, 51422.19
393.1686, 51407.79
393.6507, 51380.01
394.1328, 51376.83
394.6150, 51439.74
395.0971, 51522.76
395.5792, 51575.37
396.0613, 51550.11
396.5434, 51531.28
397.0255, 51553.44
397.5077, 51616.96
397.9898, 51640.15
398.4719, 51569.20
398.9540, 51488.78
399.4361, 51450.81
399.9182, 51489.33
400.4004, 51519.55
400.8825, 51532.50
401.3646, 51534.31
401.8467, 51548.16
402.3288, 51587.72
402.8109, 51615.74
403.2931, 51606.05
403.7752, 51539.02
404.2573, 51522.57
404.7394, 51571.60
405.2215, 51652.07
405.7036, 51717.12
406.1858, 51768.21
406.6679, 51791.15
407.1500, 51770.20
407.6321, 51714.40
408.1142, 51671.63
408.5963, 51639.18
409.0785, 51639.50
409.5606, 51720.48
410.0427, 51864.20
410.5248, 51969.30
411.0069, 51993.46
411.4890, 51992.29
411.9712, 52085.31
412.4533, 52255.01
412.9354, 52383.45
413.4175, 52346.58
413.8996, 52230.81
414.3817, 52164.56
414.8639, 52176.21
415.3460, 52204.37
415.8281, 52185.98
416.3102, 52147.11
416.7923, 52139.06
417.2744, 52238.08
417.7566, 52336.89
418.2387, 52348.73
418.7208, 52266.39
419.2029, 52202.11
419.6850, 52202.83
420.1671, 52244.00
420.6493, 52302.82
421.1314, 52416.07
421.6135, 52500.39
422.0956, 52526.42
422.5777, 52503.28
423.0598, 52483.08
423.5420, 52450.67
424.0241, 52439.80
424.5062, 52467.38
424.9883, 52556.70
425.4704, 52641.48
425.9525, 52730.55
426.4347, 52812.39
426.9168, 52865.99
427.3989, 52880.36
427.8810, 52888.41
428.3631, 52898.57
428.8452, 52910.82
429.3274, 52923.82
429.8095, 52936.34
430.2916, 52951.93
430.7737, 52972.39
431.2558, 52997.26
431.7379, 53036.57
432.2201, 53102.25
432.7022, 53174.39
433.1843, 53196.22
433.6664, 53167.98
434.1485, 53131.28
434.6306, 53104.30
435.1128, 53089.77
435.5949, 53098.29
436.0770, 53133.37
436.5591, 53179.36
437.0412, 53222.76
437.5233, 53263.09
438.0055, 53298.75
438.4876, 53332.02
438.9697, 53358.48
439.4518, 53374.07
439.9339, 53378.88
440.4160, 53373.74
440.8982, 53340.20
441.3803, 53305.93
441.8624, 53297.36
442.3445, 53334.70
442.8266, 53380.61
443.3088, 53425.22
443.7909, 53468.97
444.2730, 53512.22
444.7551, 53582.98
445.2372, 53630.07
445.7194, 53619.75
446.2015, 53506.14
446.6836, 53461.11
447.1657, 53541.62
447.6478, 53662.92
448.1299, 53727.63
448.6121, 53690.93
449.0942, 53674.94
449.5763, 53708.56
450.0584, 53785.85
450.5405, 53850.17
451.0226, 53905.14
451.5048, 53939.99
451.9869, 53939.23
452.4690, 53898.55
452.9511, 53877.23
453.4332, 53885.41
453.9153, 53905.13
454.3975, 53892.55
454.8796, 53850.78
455.3617, 53839.39
455.8438, 53917.50
456.3259, 54042.60
456.8080, 54106.27
457.2902, 54106.22
457.7723, 54081.54
458.2544, 54050.79
458.7365, 54021.29
459.2186, 54006.04
459.7007, 54005.98
460.1829, 54025.02
460.6650, 54091.42
461.1471, 54184.59
461.6292, 54239.79
462.1113, 54181.50
462.5934, 54106.90
463.0756, 54083.95
463.5577, 54134.88
464.0398, 54180.18
464.5219, 54187.38
465.0040, 54179.47
465.4861, 54183.39
465.9683, 54202.60
466.4504, 54234.52
466.9325, 54286.66
467.4146, 54356.20
467.8967, 54411.53
468.3788, 54441.49
468.8610, 54470.24
469.3431, 54517.45
469.8252, 54604.96
470.3073, 54639.67
470.7894, 54599.98
471.2715, 54527.39
471.7537, 54494.85
472.2358, 54505.70
472.7179, 54531.63
473.2000, 54564.79
473.6821, 54604.84
474.1642, 54659.38
474.6464, 54730.84
475.1285, 54784.63
475.6106, 54772.68
476.0927, 54717.23
476.5748, 54683.27
477.0569, 54686.84
477.5391, 54709.09
478.0212, 54740.50
478.5033, 54775.14
478.9854, 54795.99
479.4675, 54754.47
479.9496, 54722.00
480.4318, 54775.46
480.9139, 54926.22
481.3960, 55050.45
481.8781, 55073.07
482.3602, 55051.15
482.8423, 55038.74
483.3245, 55056.35
483.8066, 55075.30
484.2887, 55078.28
484.7708, 55074.98
485.2529, 55108.07
485.7350, 55244.66
486.2172, 55346.60
486.6993, 55347.39
487.1814, 55205.07
487.6635, 55142.03
488.1456, 55188.52
488.6277, 55279.07
489.1099, 55335.35
489.5920, 55349.71
490.0741, 55376.43
490.5562, 55437.45
491.0383, 55513.35
491.5204, 55532.85
492.0026, 55494.19
492.4847, 55451.27
492.9668, 55432.63
493.4489, 55437.34
493.9310, 55467.60
494.4131, 55526.03
494.8953, 55593.38
495.3774, 55650.70
495.8595, 55702.27
496.3416, 55754.54
496.8237, 55825.44
497.3058, 55886.27
497.7880, 55917.20
498.2701, 55920.08
498.7522, 55906.29
499.2343, 55830.93
499.7164, 55775.21
500.1985, 55803.41
500.6807, 55981.31
501.1628, 56107.73
501.6449, 56108.88
502.1270, 56052.34
502.6091, 56033.95
503.0912, 56070.53
503.5734, 56126.66
504.0555, 56210.44
504.5376, 56314.98
505.0197, 56373.75
505.5019, 56370.07
505.9840, 56353.53
506.4661, 56354.16
506.9482, 56373.36
507.4303, 56393.26
507.9124, 56411.82
508.3946, 56433.56
508.8767, 56465.77
509.3588, 56507.72
509.8409, 56553.38
510.3230, 56603.79
510.8051, 56654.63
511.2873, 56695.32
511.7694, 56727.00
512.2515, 56759.06
512.7336, 56804.71
513.2157, 56851.55
513.6978, 56879.72
514.1799, 56874.36
514.6620, 56887.29
515.1442, 56964.78
515.6263, 57074.57
516.1084, 57167.57
516.5905, 57223.47
517.0726, 57268.10
517.5547, 57305.43
518.0369, 57336.20
518.5190, 57367.70
519.0011, 57403.80
519.4832, 57437.43
519.9653, 57463.82
520.4474, 57475.99
520.9296, 57498.51
521.4117, 57532.32
521.8938, 57575.50
522.3759, 57628.66
522.8580, 57694.38
523.3401, 57755.54
523.8223, 57819.14
524.3044, 57869.68
524.7865, 57841.38
525.2686, 57735.77
525.7507, 57636.29
526.2328, 57612.17
526.7150, 57634.95
527.1971, 57649.30
527.6792, 57648.71
528.1613, 57640.00
528.6434, 57634.68
529.1255, 57624.00
529.6077, 57594.23
530.0898, 57508.46
530.5719, 57432.04
531.0540, 57402.13
531.5361, 57411.43
532.0182, 57418.82
532.5004, 57394.75
532.9825, 57381.25
533.4646, 57401.88
533.9467, 57473.17
534.4288, 57537.80
534.9109, 57609.68
535.3931, 57664.84
535.8752, 57666.79
536.3574, 57584.76
536.8395, 57545.79
537.3216, 57584.87
537.8037, 57674.30
538.2858, 57724.43
538.7679, 57732.92
539.2501, 57734.50
539.7322, 57749.18
540.2143, 57773.04
540.6964, 57787.85
541.1785, 57791.48
541.6606, 57806.30
542.1428, 57866.59
542.6249, 57950.11
543.1070, 58019.57
543.5891, 58066.94
544.0712, 58093.25
544.5533, 58075.08
545.0355, 58035.21
545.5176, 58029.68
545.9997, 58131.38
546.4818, 58225.67
546.9639, 58239.11
547.4460, 58149.95
547.9282, 58138.38
548.4103, 58297.29
548.8924, 58476.20
549.3745, 58572.46
549.8566, 58530.91
550.3387, 58536.26
550.8209, 58615.98
551.3030, 58730.57
551.7851, 58802.01
552.2672, 58827.27
552.7493, 58836.96
553.2314, 58829.39
553.7136, 58817.64
554.1957, 58864.91
554.6778, 58969.86
555.1599, 59050.15
555.6420, 59015.45
556.1241, 58920.48
556.6063, 58856.83
557.0884, 58842.37
557.5705, 58839.63
558.0526, 58809.61
558.5347, 58776.75
559.0168, 58776.06
559.4990, 58878.01
559.9811, 58954.82
560.4632, 58942.44
560.9453, 58859.14
561.4274, 58801.35
561.9095, 58804.66
562.3917, 58815.64
562.8738, 58812.88
563.3559, 58789.45
563.8380, 58787.95
564.3201, 58811.54
564.8022, 58852.56
565.2844, 58913.09
565.7665, 58997.92
566.2486, 59052.70
566.7307, 59064.87
567.2128, 59050.17
567.6949, 59031.94
568.1771, 59011.35
568.6592, 58997.67
569.1413, 58992.73
569.6234, 58998.56
570.1055, 59032.14
570.5876, 59089.86
571.0698, 59121.80
571.5519, 59052.34
572.0340, 58967.18
572.5161, 58949.74
572.9982, 59047.27
573.4803, 59135.41
573.9625, 59178.39
574.4446, 59190.55
574.9267, 59190.04
575.4088, 59169.77
575.8909, 59147.47
576.3730, 59112.00
576.8552, 59074.27
577.3373, 59100.29
577.8194, 59218.02
578.3015, 59325.89
578.7836, 59358.06
579.2657, 59317.58
579.7479, 59333.88
580.2300, 59413.47
580.7121, 59507.38
581.1942, 59568.15
581.6763, 59602.35
582.1584, 59630.61
582.6406, 59663.37
583.1227, 59678.10
583.6048, 59623.75
584.0869, 59535.02
584.5690, 59487.10
585.0511, 59537.73
585.5333, 59614.82
586.0154, 59699.28
586.4975, 59787.69
586.9796, 59838.57
587.4617, 59793.52
587.9438, 59751.44
588.4260, 59768.65
588.9081, 59887.46
589.3902, 59941.25
589.8723, 59895.00
590.3544, 59825.65
590.8365, 59835.68
591.3187, 59935.36
591.8008, 60011.27
592.2829, 60037.39
592.7650, 60031.71
593.2471, 60014.46
593.7292, 59990.84
594.2114, 59999.35
594.6935, 60091.80
595.1756, 60211.68
595.6577, 60285.58
596.1398, 60313.87
596.6219, 60333.80
597.1041, 60366.66
597.5862, 60401.41
598.0683, 60428.84
598.5504, 60443.54
599.0325, 60459.10
599.5146, 60461.84
599.9968, 60473.48
600.4789, 60523.84
600.9610, 60646.23
601.4431, 60751.02
601.9252, 60824.32
602.4073, 60870.26
602.8895, 60908.48
603.3716, 60940.98
603.8537, 60955.40
604.3358, 60921.73
604.8179, 60861.25
605.3000, 60882.46
605.7822, 60988.41
606.2643, 61119.21
606.7464, 61265.77
607.2285, 61393.27
607.7106, 61436.14
608.1927, 61357.24
608.6749, 61272.96
609.1570, 61263.89
609.6391, 61295.91
610.1212, 61320.63
610.6033, 61319.04
611.0854, 61314.38
611.5676, 61301.46
612.0497, 61287.48
612.5318, 61306.22
613.0139, 61386.88
613.4960, 61455.25
613.9781, 61478.61
614.4603, 61457.32
614.9424, 61441.09
615.4245, 61426.63
615.9066, 61430.92
616.3887, 61487.90
616.8708, 61581.73
617.3530, 61625.47
617.8351, 61595.84
618.3172, 61568.08
618.7993, 61629.01
619.2814, 61748.28
619.7635, 61870.30
620.2457, 62008.46
620.7278, 62107.83
621.2099, 62112.61
621.6920, 62051.45
622.1741, 62011.80
622.6563, 62047.40
623.1384, 62077.20
623.6205, 62060.93
624.1026, 61994.33
624.5847, 61978.91
625.0668, 62037.22
625.5490, 62110.07
626.0311, 62156.55
626.5132, 62175.00
626.9953, 62198.73
627.4774, 62229.71
627.9595, 62264.82
628.4417, 62307.41
628.9238, 62352.21
629.4059, 62373.25
629.8880, 62334.20
630.3701, 62317.32
630.8522, 62440.64
631.3344, 62650.86
631.8165, 62822.05
632.2986, 62823.47
632.7807, 62844.13
633.2628, 63015.28
633.7449, 63331.23
634.2271, 63534.76
634.7092, 63517.54
635.1913, 63467.85
635.6734, 63461.36
636.1555, 63497.23
636.6376, 63587.68
637.1198, 63750.96
637.6019, 63931.27
638.0840, 64084.03
638.5661, 64208.73
639.0482, 64287.80
639.5303, 64299.34
640.0125, 64313.13
640.4946, 64456.33
640.9767, 64675.61
641.4588, 64843.36
641.9409, 64866.91
642.4230, 64850.61
642.9052, 64864.26
643.3873, 64895.85
643.8694, 64897.09
644.3515, 64846.40
644.8336, 64768.60
645.3157, 64671.96
645.7979, 64557.91
646.2800, 64424.60
646.7621, 64265.86
647.2442, 64098.88
647.7263, 63926.63
648.2084, 63743.06
648.6906, 63626.56
649.1727, 63597.83
649.6548, 63581.26
650.1369, 63455.41
650.6190, 63261.98
651.1011, 63131.42
651.5833, 63122.73
652.0654, 63153.64
652.5475, 63165.38
653.0296, 63158.14
653.5117, 63132.32
653.9938, 63048.09
654.4760, 62984.39
654.9581, 62992.57
655.4402, 63065.18
655.9223, 63095.30
656.4044, 63021.92
656.8865, 62978.70
657.3687, 63037.81
657.8508, 63211.79
658.3329, 63313.68
658.8150, 63325.84
659.2971, 63329.45
659.7793, 63396.59
660.2614, 63519.17
660.7435, 63667.46
661.2256, 63850.14
661.7078, 64003.24
662.1899, 64030.95
662.6720, 63990.57
663.1541, 63976.22
663.6362, 64025.65
664.1183, 64101.18
664.6005, 64191.52
665.0826, 64295.37
665.5647, 64409.07
666.0468, 64607.48
666.5289, 64725.81
667.0110, 64694.20
667.4932, 64539.26
667.9753, 64487.21
668.4574, 64570.52
668.9395, 64645.08
669.4216, 64624.87
669.9037, 64523.68
670.3859, 64414.73
670.8680, 64297.78
671.3501, 64190.57
671.8322, 64118.11
672.3143, 64062.79
672.7964, 64003.87
673.2786, 63942.62
673.7607, 63857.59
674.2428, 63691.24
674.7249, 63515.14
675.2070, 63409.29
675.6891, 63474.41
676.1713, 63504.54
676.6534, 63474.78
677.1355, 63404.63
677.6176, 63320.52
678.0997, 63206.85
678.5818, 63145.29
679.0640, 63184.95
679.5461, 63277.17
680.0282, 63266.85
680.5103, 63161.84
680.9924, 63046.68
681.4745, 62940.93
681.9567, 62870.77
682.4388, 62900.75
682.9209, 63024.20
683.4030, 63116.07
683.8851, 63079.73
684.3672, 63009.42
684.8494, 62972.77
685.3315, 62996.85
685.8136, 62989.54
686.2957, 62914.27
686.7778, 62834.11
687.2599, 62808.61
687.7421, 62856.25
688.2242, 62870.80
688.7063, 62831.10
689.1884, 62783.78
689.6705, 62811.19
690.1526, 62898.40
690.6348, 62969.56
691.1169, 62997.65
691.5990, 63006.95
692.0811, 63016.64
692.5632, 63028.04
693.0453, 63044.12
693.5275, 63092.38
694.0096, 63120.21
694.4917, 63080.91
694.9738, 62986.50
695.4559, 62952.20
695.9380, 63033.52
696.4202, 63101.12
696.9023, 63093.11
697.3844, 63009.89
697.8665, 63002.41
698.3486, 63085.36
698.8307, 63166.44
699.3129, 63161.23
699.7950, 63097.00
700.2771, 63045.34
700.7592, 63011.34
701.2413, 63001.99
701.7234, 63040.52
702.2056, 63099.07
702.6877, 63146.28
703.1698, 63169.91
703.6519, 63189.77
704.1340, 63189.76
704.6161, 63197.87
705.0983, 63256.01
705.5804, 63419.84
706.0625, 63518.45
706.5446, 63512.80
707.0267, 63446.26
707.5089, 63405.30
707.9910, 63389.87
708.4731, 63387.08
708.9552, 63392.78
709.4373, 63407.89
709.9194, 63443.02
710.4016, 63491.57
710.8837, 63527.63
711.3658, 63522.40
711.8479, 63513.20
712.3300, 63523.11
712.8121, 63552.67
713.2943, 63588.36
713.7764, 63653.45
714.2585, 63698.63
714.7406, 63694.88
715.2227, 63634.15
715.7048, 63604.09
716.1870, 63609.95
716.6691, 63631.05
717.1512, 63649.63
717.6333, 63668.17
718.1154, 63700.46
718.5975, 63749.39
719.0797, 63799.38
719.5618, 63845.88
720.0439, 63881.33
720.5260, 63895.11
721.0081, 63876.63
721.4902, 63851.61
721.9724, 63798.10
722.4545, 63754.45
722.9366, 63778.66
723.4187, 63937.32
723.9008, 64041.26
724.3829, 64053.31
724.8651, 64012.09
725.3472, 64001.32
725.8293, 64021.75
726.3114, 64044.59
726.7935, 64065.10
727.2756, 64077.09
727.7578, 64058.42
728.2399, 64019.41
728.7220, 63997.69
729.2041, 64027.55
729.6862, 64068.21
730.1683, 64102.47
730.6505, 64128.02
731.1326, 64132.39
731.6147, 64109.62
732.0968, 64067.55
732.5789, 63998.05
733.0610, 63899.66
733.5432, 63845.63
734.0253, 63843.22
734.5074, 63859.98
734.9895, 63882.34
735.4716, 63905.05
735.9537, 63901.51
736.4359, 63868.70
736.9180, 63845.62
737.4001, 63877.55
737.8822, 63929.50
738.3643, 63959.59
738.8464, 63945.31
739.3286, 63955.54
739.8107, 64036.46
740.2928, 64135.12
740.7749, 64205.83
741.2570, 64262.04
741.7391, 64242.82
742.2213, 64105.29
742.7034, 63955.19
743.1855, 63988.17
743.6676, 64177.06
744.1497, 64283.96
744.6318, 64224.41
745.1140, 64112.16
745.5961, 64067.22
746.0782, 64071.33
746.5603, 64089.27
747.0424, 64134.08
747.5245, 64161.39
748.0067, 64139.13
748.4888, 64085.21
748.9709, 64057.96
749.4530, 64070.35
749.9351, 64088.37
750.4172, 64105.23
750.8994, 64120.82
751.3815, 64138.53
751.8636, 64158.81
752.3457, 64162.17
752.8278, 64102.75
753.3099, 64036.10
753.7921, 64076.71
754.2742, 64206.66
754.7563, 64315.58
755.2384, 64325.96
755.7205, 64312.21
756.2026, 64324.53
756.6848, 64370.07
757.1669, 64377.70
757.6490, 64304.66
758.1311, 64246.09
758.6132, 64262.27
759.0953, 64359.63
759.5775, 64404.97
760.0596, 64393.79
760.5417, 64363.14
761.0238, 64332.79
761.5059, 64309.38
761.9880, 64316.01
762.4702, 64358.27
762.9523, 64388.90
763.4344, 64326.76
763.9165, 64267.21
764.3986, 64307.60
764.8807, 64543.68
765.3629, 64704.10
765.8450, 64762.66
766.3271, 64752.90
766.8092, 64687.93
767.2913, 64554.37
767.7734, 64477.43
768.2556, 64478.82
768.7377, 64515.07
769.2198, 64535.20
769.7019, 64545.65
770.1840, 64561.24
770.6661, 64582.17
771.1483, 64617.71
771.6304, 64703.81
772.1125, 64799.43
772.5946, 64845.86
773.0767, 64776.28
773.5588, 64725.95
774.0410, 64714.35
774.5231, 64726.23
775.0052, 64726.35
775.4873, 64708.01
775.9694, 64736.67
776.4515, 64856.90
776.9337, 64989.64
777.4158, 64952.13
777.8979, 64798.36
778.3800, 64706.86
778.8621, 64835.09
779.3442, 64978.72
779.8264, 65011.87
780.3085, 64960.33
780.7906, 64904.52
781.2727, 64824.71
781.7548, 64785.45
782.2369, 64813.27
782.7191, 64892.00
783.2012, 64947.61
783.6833, 64975.29
784.1655, 65020.86
784.6476, 65138.27
785.1297, 65269.18
785.6118, 65264.84
786.0939, 65150.75
786.5760, 65050.54
787.0582, 65034.70
787.5403, 65058.43
788.0224, 65104.23
788.5045, 65169.24
788.9866, 65233.35
789.4688, 65299.19
789.9509, 65357.14
790.4330, 65404.27
790.9151, 65440.74
791.3972, 65457.08
791.8793, 65451.88
792.3615, 65445.05
792.8436, 65459.92
793.3257, 65478.69
793.8078, 65462.32
794.2899, 65411.69
794.7720, 65365.17
795.2542, 65324.51
795.7363, 65309.78
796.2184, 65347.50
796.7005, 65454.91
797.1826, 65515.46
797.6647, 65510.09
798.1469, 65483.38
798.6290, 65455.29
799.1111, 65425.73
799.5932, 65418.65
800.0753, 65435.21
800.5574, 65459.09
801.0396, 65482.02
801.5217, 65500.91
802.0038, 65509.78
802.4859, 65507.02
802.9680, 65504.35
803.4501, 65503.79
803.9323, 65507.69
804.4144, 65524.06
804.8965, 65569.30
805.3786, 65559.04
805.8607, 65457.46
806.3428, 65368.04
806.8250, 65396.96
807.3071, 65526.86
807.7892, 65633.04
808.2713, 65707.59
808.7534, 65739.76
809.2355, 65677.77
809.7177, 65587.70
810.1998, 65553.41
810.6819, 65603.29
811.1640, 65657.04
811.6461, 65706.89
812.1282, 65740.66
812.6104, 65744.45
813.0925, 65702.02
813.5746, 65684.88
814.0567, 65696.07
814.5388, 65727.44
815.0209, 65785.42
815.5031, 65857.33
815.9852, 65899.32
816.4673, 65903.25
816.9494, 65888.85
817.4315, 65852.85
817.9136, 65816.26
818.3958, 65800.32
818.8779, 65811.81
819.3600, 65840.77
819.8421, 65897.52
820.3242, 65958.64
820.8063, 66009.45
821.2885, 66052.90
821.7706, 66030.98
822.2527, 65920.61
822.7348, 65823.84
823.2169, 65898.58
823.6990, 66059.24
824.1812, 66145.62
824.6633, 66108.81
825.1454, 66039.57
825.6275, 65920.19
826.1096, 65823.61
826.5917, 65834.49
827.0739, 66041.77
827.5560, 66178.12
828.0381, 66222.27
828.5202, 66223.30
829.0023, 66234.08
829.4844, 66252.51
829.9666, 66263.63
830.4487, 66264.32
830.9308, 66261.47
831.4129, 66260.02
831.8950, 66259.82
832.3771, 66259.02
832.8593, 66248.83
833.3414, 66256.25
833.8235, 66297.70
834.3056, 66352.80
834.7877, 66414.09
835.2698, 66497.47
835.7520, 66499.92
836.2341, 66390.72
836.7162, 66276.85
837.1983, 66309.95
837.6804, 66432.85
838.1625, 66497.55
838.6447, 66457.59
839.1268, 66427.53
839.6089, 66508.20
840.0910, 66620.32
840.5731, 66679.44
841.0552, 66622.68
841.5374, 66610.46
842.0195, 66663.44
842.5016, 66731.87
842.9837, 66757.73
843.4658, 66744.84
843.9479, 66755.11
844.4301, 66799.80
844.9122, 66839.04
845.3943, 66812.90
845.8764, 66766.80
846.3585, 66761.70
846.8406, 66823.47
847.3228, 66885.64
847.8049, 66941.49
848.2870, 66981.66
848.7691, 66993.06
849.2512, 66961.58
849.7333, 66965.59
850.2155, 67012.48
850.6976, 67073.66
851.1797, 67126.52
851.6618, 67169.79
852.1439, 67196.06
852.6260, 67202.02
853.1082, 67215.38
853.5903, 67268.38
854.0724, 67326.61
854.5545, 67361.46
855.0366, 67367.93
855.5187, 67351.84
856.0009, 67297.01
856.4830, 67248.42
856.9651, 67249.29
857.4472, 67293.16
857.9293, 67329.29
858.4114, 67355.91
858.8936, 67357.90
859.3757, 67272.61
859.8578, 67186.80
860.3399, 67208.31
860.8220, 67368.24
861.3041, 67484.64
861.7863, 67487.98
862.2684, 67460.57
862.7505, 67434.80
863.2326, 67409.91
863.7147, 67414.19
864.1968, 67452.53
864.6790, 67481.88
865.1611, 67441.28
865.6432, 67381.77
866.1253, 67401.58
866.6074, 67502.02
867.0895, 67593.83
867.5717, 67637.36
868.0538, 67658.37
868.5359, 67662.63
869.0180, 67650.80
869.5001, 67664.20
869.9822, 67713.48
870.4644, 67755.52
870.9465, 67759.52
871.4286, 67738.43
871.9107, 67738.11
872.3928, 67755.18
872.8749, 67765.34
873.3571, 67759.30
873.8392, 67736.14
874.3213, 67671.15
874.8034, 67574.40
875.2855, 67550.54
875.7676, 67643.61
876.2498, 67743.27
876.7319, 67815.66
877.2140, 67867.77
877.6961, 67933.05
878.1782, 68009.35
878.6603, 68065.70
879.1425, 68075.26
879.6246, 68068.12
880.1067, 68075.54
880.5888, 68090.38
881.0709, 68092.51
881.5530, 68073.95
882.0352, 68042.02
882.5173, 67983.24
882.9994, 67919.00
883.4815, 67908.08
883.9636, 67952.88
884.4457, 68011.83
884.9279, 68076.90
885.4100, 68142.66
885.8921, 68211.81
886.3742, 68273.63
886.8563, 68307.09
887.3384, 68265.70
887.8206, 68240.56
888.3027, 68272.59
888.7848, 68329.65
889.2669, 68365.72
889.7490, 68374.01
890.2311, 68392.02
890.7133, 68429.55
891.1954, 68464.20
891.6775, 68443.16
892.1596, 68398.05
892.6417, 68409.17
893.1238, 68518.55
893.6060, 68616.54
894.0881, 68631.70
894.5702, 68616.44
895.0523, 68626.63
895.5344, 68691.97
896.0165, 68712.03
896.4987, 68673.26
896.9808, 68621.99
897.4629, 68599.23
897.9450, 68602.24
898.4271, 68627.50
898.9092, 68675.42
899.3914, 68723.68
899.8735, 68758.94
900.3556, 68785.88
900.8377, 68808.62
901.3198, 68829.26
901.8019, 68832.50
902.2841, 68804.11
902.7662, 68785.70
903.2483, 68821.72
903.7304, 68894.63
904.2125, 68869.70
904.6946, 68755.46
905.1768, 68673.70
905.6589, 68734.71
906.1410, 68836.64
906.6232, 68896.95
907.1053, 68917.01
907.5874, 68955.62
908.0695, 69053.59
908.5516, 69117.89
909.0338, 69104.43
909.5159, 69043.76
909.9980, 69059.60
910.4801, 69144.56
910.9622, 69209.06
911.4443, 69195.59
911.9265, 69161.34
912.4086, 69155.44
912.8907, 69170.34
913.3728, 69189.22
913.8549, 69202.52
914.3370, 69227.66
914.8192, 69272.98
915.3013, 69326.14
915.7834, 69362.22
916.2655, 69381.75
916.7476, 69414.25
917.2297, 69476.68
917.7119, 69521.17
918.1940, 69457.33
918.6761, 69358.84
919.1582, 69333.51
919.6403, 69464.60
920.1224, 69554.65
920.6046, 69553.41
921.0867, 69526.82
921.5688, 69541.55
922.0509, 69600.83
922.5330, 69586.90
923.0151, 69483.70
923.4973, 69402.78
923.9794, 69478.30
924.4615, 69614.11
924.9436, 69693.94
925.4257, 69701.16
925.9078, 69710.73
926.3900, 69756.63
926.8721, 69795.98
927.3542, 69807.80
927.8363, 69793.97
928.3184, 69782.67
928.8005, 69773.83
929.2827, 69769.02
929.7648, 69753.05
930.2469, 69752.38
930.7290, 69834.16
931.2111, 69967.70
931.6932, 70032.59
932.1754, 69895.91
932.6575, 69796.88
933.1396, 69805.80
933.6217, 69888.00
934.1038, 69964.01
934.5859, 70034.41
935.0681, 70057.48
935.5502, 70002.49
936.0323, 69934.50
936.5144, 69933.38
936.9965, 69973.60
937.4786, 70013.59
937.9608, 70058.84
938.4429, 70072.35
938.9250, 70013.54
939.4071, 69953.73
939.8892, 69975.56
940.3713, 70083.54
940.8535, 70179.05
941.3356, 70256.25
941.8177, 70301.72
942.2998, 70289.80
942.7819, 70243.77
943.2640, 70167.93
943.7462, 70050.27
944.2283, 70025.38
944.7104, 70210.84
945.1925, 70407.70
945.6746, 70533.17
946.1567, 70589.27
946.6389, 70609.25
947.1210, 70593.37
947.6031, 70559.49
948.0852, 70499.86
948.5673, 70442.02
949.0494, 70400.18
949.5316, 70382.91
950.0137, 70418.34
950.4958, 70570.91
950.9779, 70707.91
951.4600, 70808.25
951.9421, 70874.60
952.4243, 70899.27
952.9064, 70886.52
953.3885, 70897.14
953.8706, 70956.02
954.3527, 71024.08
954.8348, 71066.31
955.3170, 71092.84
955.7991, 71117.55
956.2812, 71143.66
956.7633, 71168.14
957.2454, 71193.53
957.7275, 71213.23
958.2097, 71211.91
958.6918, 71195.20
959.1739, 71211.05
959.6560, 71262.88
960.1381, 71321.66
960.6202, 71380.04
961.1024, 71423.45
961.5845, 71425.44
962.0666, 71382.11
962.5487, 71391.63
963.0308, 71489.87
963.5129, 71577.20
963.9951, 71616.11
964.4772, 71613.82
964.9593, 71574.55
965.4414, 71509.71
965.9235, 71475.92
966.4056, 71527.94
966.8878, 71591.13
967.3699, 71614.62
967.8520, 71621.09
968.3341, 71664.72
968.8162, 71786.07
969.2983, 71837.20
969.7805, 71780.01
970.2626, 71695.30
970.7447, 71710.29
971.2268, 71785.41
971.7089, 71808.53
972.1910, 71745.30
972.6732, 71711.45
973.1553, 71814.38
973.6374, 71935.63
974.1195, 71975.41
974.6016, 71917.70
975.0837, 71920.03
975.5659, 71997.39
976.0480, 72059.93
976.5301, 72018.21
977.0122, 71937.87
977.4943, 71953.27
977.9764, 72043.21
978.4586, 72106.38
978.9407, 72066.88
979.4228, 72028.88
979.9049, 72026.64
980.3870, 72050.15
980.8691, 72082.76
981.3513, 72125.74
981.8334, 72145.75
982.3155, 72123.29
982.7976, 72105.52
983.2797, 72173.33
983.7618, 72272.76
984.2440, 72325.22
984.7261, 72289.07
985.2082, 72254.03
985.6903, 72213.91
986.1724, 72198.52
986.6545, 72244.66
987.1367, 72346.15
987.6188, 72413.46
988.1009, 72445.22
988.5830, 72474.27
989.0651, 72542.13
989.5472, 72602.75
990.0294, 72599.36
990.5115, 72541.18
990.9936, 72543.27
991.4757, 72644.25
991.9578, 72731.74
992.4399, 72774.11
992.9221, 72784.12
993.4042, 72782.55
993.8863, 72772.48
994.3684, 72763.41
994.8505, 72752.43
995.3326, 72754.56
995.8148, 72795.69
996.2969, 72844.26
996.7790, 72864.38
997.2611, 72851.59
997.7432, 72814.66
998.2253, 72742.45
998.7075, 72695.45
999.1896, 72760.15
999.6717, 72871.31
1000.154, 72904.08
1000.636, 72856.53
1001.118, 72843.20
1001.600, 72946.90
1002.082, 73053.38
1002.564, 73130.72
1003.047, 73174.83
1003.529, 73143.30
1004.011, 73037.98
1004.493, 72977.33
1004.975, 73027.43
1005.457, 73102.27
1005.939, 73102.74
1006.421, 73072.38
1006.903, 73078.04
1007.386, 73149.44
1007.868, 73245.39
1008.350, 73388.73
1008.832, 73515.61
1009.314, 73550.44
1009.796, 73511.66
1010.278, 73459.16
1010.760, 73398.83
1011.242, 73381.45
1011.725, 73494.05
1012.207, 73612.17
1012.689, 73636.41
1013.171, 73582.00
1013.653, 73594.52
1014.135, 73694.99
1014.617, 73761.30
1015.099, 73727.66
1015.582, 73671.13
1016.064, 73747.99
1016.546, 73894.68
1017.028, 73978.00
1017.510, 73908.59
1017.992, 73844.67
1018.474, 73830.34
1018.956, 73824.91
1019.438, 73778.38
1019.921, 73690.77
1020.403, 73676.17
1020.885, 73741.52
1021.367, 73822.33
1021.849, 73872.33
1022.331, 73911.45
1022.813, 73958.79
1023.295, 74013.89
1023.778, 74056.96
1024.260, 74088.77
1024.742, 74099.96
1025.224, 74070.71
1025.706, 74041.24
1026.188, 74133.64
1026.670, 74297.36
1027.152, 74377.41
1027.635, 74261.98
1028.117, 74184.78
1028.599, 74323.02
1029.081, 74493.74
1029.563, 74504.24
1030.045, 74304.57
1030.527, 74270.93
1031.009, 74419.59
1031.491, 74590.21
1031.974, 74669.33
1032.456, 74686.82
1032.938, 74626.31
1033.420, 74514.72
1033.902, 74515.84
1034.384, 74788.98
1034.866, 74987.15
1035.348, 75012.58
1035.830, 74948.77
1036.313, 74970.80
1036.795, 75057.18
1037.277, 75113.41
1037.759, 75096.70
1038.241, 75106.36
1038.723, 75254.04
1039.205, 75421.91
1039.687, 75500.07
1040.170, 75475.30
1040.652, 75434.01
1041.134, 75365.37
1041.616, 75347.37
1042.098, 75497.42
1042.580, 75689.27
1043.062, 75703.86
1043.544, 75595.22
1044.026, 75558.88
1044.509, 75740.96
1044.991, 75892.10
1045.473, 75964.73
1045.955, 75994.69
1046.437, 76042.30
1046.919, 76102.09
1047.401, 76136.62
1047.883, 76135.09
1048.365, 76144.62
1048.848, 76242.73
1049.330, 76332.38
1049.812, 76307.47
1050.294, 76163.68
1050.776, 76114.76
1051.258, 76176.12
1051.740, 76248.80
1052.222, 76303.66
1052.705, 76322.32
1053.187, 76249.77
1053.669, 76120.34
1054.151, 76015.02
1054.633, 75955.30
1055.115, 75928.52
1055.597, 75923.17
1056.079, 75958.06
1056.562, 76095.34
1057.044, 76305.83
1057.526, 76372.34
1058.008, 76278.19
1058.490, 76183.34
1058.972, 76213.47
1059.454, 76262.08
1059.936, 76240.66
1060.418, 76168.13
1060.901, 76181.81
1061.383, 76301.40
1061.865, 76387.92
1062.347, 76386.02
1062.829, 76364.40
1063.311, 76436.26
1063.793, 76546.63
1064.275, 76605.99
1064.757, 76579.37
1065.240, 76528.79
1065.722, 76424.30
1066.204, 76357.21
1066.686, 76399.28
1067.168, 76535.55
1067.650, 76713.56
1068.132, 76921.20
1068.614, 77056.05
1069.097, 77028.97
1069.579, 76954.77
1070.061, 76839.24
1070.543, 76731.80
1071.025, 76740.82
1071.507, 76882.25
1071.989, 77004.04
1072.471, 77083.61
1072.953, 77147.75
1073.436, 77250.19
1073.918, 77338.47
1074.400, 77338.20
1074.882, 77229.63
1075.364, 77171.14
1075.846, 77193.52
1076.328, 77223.48
1076.810, 77233.66
1077.292, 77229.91
1077.775, 77200.50
1078.257, 77168.52
1078.739, 77205.92
1079.221, 77424.51
1079.703, 77576.81
1080.185, 77510.55
1080.667, 77397.07
1081.149, 77377.27
1081.632, 77453.73
1082.114, 77494.80
1082.596, 77498.33
1083.078, 77539.71
1083.560, 77743.15
1084.042, 77942.87
1084.524, 77999.46
1085.006, 77938.73
1085.489, 77892.72
1085.971, 77855.24
1086.453, 77870.71
1086.935, 77961.87
1087.417, 78066.09
1087.899, 78102.71
1088.381, 78097.36
1088.863, 78077.21
1089.345, 78037.80
1089.828, 78054.76
1090.310, 78193.95
1090.792, 78316.86
1091.274, 78358.85
1091.756, 78340.43
1092.238, 78312.34
1092.720, 78284.61
1093.202, 78302.74
1093.685, 78433.70
1094.167, 78544.45
1094.649, 78560.00
1095.131, 78531.23
1095.613, 78505.18
1096.095, 78479.21
1096.577, 78474.12
1097.059, 78489.33
1097.542, 78551.25
1098.024, 78761.05
1098.506, 78959.47
1098.988, 78952.38
1099.470, 78794.79
1099.952, 78767.93
1100.434, 78953.76
1100.916, 79071.91
1101.398, 79055.72
1101.880, 79004.07
1102.363, 79089.25
1102.845, 79220.59
1103.327, 79207.74
1103.809, 78992.55
1104.291, 78910.16
1104.773, 79152.68
1105.255, 79399.17
1105.737, 79527.59
1106.220, 79561.38
1106.702, 79533.80
1107.184, 79468.60
1107.666, 79474.32
1108.148, 79678.62
1108.630, 79805.91
1109.112, 79610.86
1109.594, 79361.27
1110.077, 79319.06
1110.559, 79510.08
1111.041, 79641.42
1111.523, 79713.09
1112.005, 79754.64
1112.487, 79750.48
1112.969, 79758.05
1113.451, 79859.01
1113.933, 80006.75
1114.416, 80057.84
1114.898, 79966.96
1115.380, 79917.38
1115.862, 79935.54
1116.344, 79988.19
1116.826, 80043.96
1117.308, 80105.67
1117.790, 80193.35
1118.272, 80309.70
1118.755, 80356.16
1119.237, 80262.18
1119.719, 80196.32
1120.201, 80210.28
1120.683, 80283.71
1121.165, 80407.48
1121.647, 80552.13
1122.129, 80630.86
1122.612, 80588.26
1123.094, 80573.78
1123.576, 80691.82
1124.058, 80806.27
1124.540, 80820.90
1125.022, 80753.79
1125.504, 80771.38
1125.986, 80865.62
1126.469, 80973.91
1126.951, 81116.10
1127.433, 81204.01
1127.915, 81139.03
1128.397, 81012.66
1128.879, 80952.54
1129.361, 80962.24
1129.843, 81030.35
1130.325, 81161.59
1130.807, 81276.44
1131.290, 81282.35
1131.772, 81262.59
1132.254, 81296.75
1132.736, 81375.39
1133.218, 81431.04
1133.700, 81453.96
1134.182, 81473.88
1134.664, 81490.87
1135.147, 81525.02
1135.629, 81622.09
1136.111, 81742.20
1136.593, 81831.88
1137.075, 81882.02
1137.557, 81903.59
1138.039, 81868.66
1138.521, 81868.73
1139.004, 81948.50
1139.486, 82072.07
1139.968, 82171.04
1140.450, 82249.59
1140.932, 82320.47
1141.414, 82387.80
1141.896, 82444.16
1142.378, 82472.54
1142.860, 82506.94
1143.343, 82581.84
1143.825, 82683.91
1144.307, 82705.79
1144.789, 82664.64
1145.271, 82652.49
1145.753, 82741.94
1146.235, 82841.25
1146.717, 82932.30
1147.199, 83001.71
1147.682, 83020.60
1148.164, 82988.72
1148.646, 82996.27
1149.128, 83048.08
1149.610, 83141.38
1150.092, 83318.66
1150.574, 83494.29
1151.056, 83606.60
1151.539, 83670.27
1152.021, 83732.52
1152.503, 83792.53
1152.985, 83864.09
1153.467, 83956.20
1153.949, 84017.94
1154.431, 83929.57
1154.913, 83835.73
1155.396, 83903.95
1155.878, 84153.20
1156.360, 84295.66
1156.842, 84309.60
1157.324, 84302.15
1157.806, 84300.35
1158.288, 84309.82
1158.770, 84345.57
1159.252, 84394.41
1159.734, 84438.54
1160.217, 84475.44
1160.699, 84498.95
1161.181, 84497.13
1161.663, 84517.40
1162.145, 84610.38
1162.627, 84720.02
1163.109, 84713.20
1163.591, 84636.50
1164.074, 84597.49
1164.556, 84682.32
1165.038, 84724.16
1165.520, 84698.59
1166.002, 84653.89
1166.484, 84600.80
1166.966, 84566.24
1167.448, 84666.98
1167.931, 84871.55
1168.413, 85023.55
1168.895, 85003.06
1169.377, 84996.31
1169.859, 85049.55
1170.341, 85123.30
1170.823, 85170.74
1171.305, 85194.92
1171.787, 85208.73
1172.270, 85213.41
1172.752, 85209.00
1173.234, 85186.00
1173.716, 85164.57
1174.198, 85147.70
1174.680, 85140.19
1175.162, 85147.62
1175.644, 85172.23
1176.126, 85237.48
1176.609, 85352.23
1177.091, 85460.10
1177.573, 85521.51
1178.055, 85566.77
1178.537, 85618.99
1179.019, 85671.21
1179.501, 85680.45
1179.983, 85652.74
1180.466, 85662.45
1180.948, 85743.31
1181.430, 85833.50
1181.912, 85909.66
1182.394, 85958.03
1182.876, 85953.70
1183.358, 85899.75
1183.840, 85902.35
1184.323, 85960.95
1184.805, 86047.17
1185.287, 86187.77
1185.769, 86291.35
1186.251, 86232.96
1186.733, 86125.34
1187.215, 86113.17
1187.697, 86216.94
1188.179, 86314.38
1188.661, 86405.99
1189.144, 86479.89
1189.626, 86531.19
1190.108, 86557.56
1190.590, 86535.72
1191.072, 86493.27
1191.554, 86483.06
1192.036, 86505.70
1192.518, 86568.57
1193.001, 86676.08
1193.483, 86789.76
1193.965, 86886.92
1194.447, 86969.02
1194.929, 87040.64
1195.411, 87097.54
1195.893, 87124.83
1196.375, 87112.89
1196.858, 87119.37
1197.340, 87159.75
1197.822, 87174.94
1198.304, 87031.94
1198.786, 86883.95
1199.268, 86922.48
1199.750, 87140.69
1200.232, 87292.34
1200.714, 87355.88
1201.197, 87403.66
1201.679, 87447.34
1202.161, 87495.13
1202.643, 87553.67
1203.125, 87623.60
1203.607, 87716.89
1204.089, 87837.48
1204.571, 87911.61
1205.053, 87931.52
1205.536, 87928.04
1206.018, 87894.42
1206.500, 87881.09
1206.982, 87984.19
1207.464, 88139.03
1207.946, 88251.19
1208.428, 88292.96
1208.910, 88369.93
1209.393, 88511.28
1209.875, 88573.85
1210.357, 88436.46
1210.839, 88267.20
1211.321, 88349.30
1211.803, 88556.33
1212.285, 88682.66
1212.767, 88629.80
1213.250, 88659.38
1213.732, 88798.91
1214.214, 88918.90
1214.696, 88917.60
1215.178, 88870.08
1215.660, 88860.62
1216.142, 88895.74
1216.624, 88994.35
1217.106, 89264.03
1217.589, 89356.45
1218.071, 89212.59
1218.553, 89114.55
1219.035, 89377.52
1219.517, 89751.50
1219.999, 89881.15
1220.481, 89829.85
1220.963, 89783.26
1221.446, 89759.59
1221.928, 89774.22
1222.410, 89833.30
1222.892, 89911.47
1223.374, 90013.95
1223.856, 90103.12
1224.338, 90101.64
1224.820, 90037.30
1225.302, 90043.19
1225.785, 90176.84
1226.267, 90243.31
1226.749, 90202.23
1227.231, 90170.70
1227.713, 90307.68
1228.195, 90501.02
1228.677, 90622.36
1229.159, 90666.65
1229.641, 90676.41
1230.124, 90637.72
1230.606, 90634.94
1231.088, 90689.88
1231.570, 90754.20
1232.052, 90756.68
1232.534, 90748.58
1233.016, 90806.20
1233.498, 90926.70
1233.981, 90970.88
1234.463, 90900.78
1234.945, 90918.60
1235.427, 91097.52
1235.909, 91287.40
1236.391, 91284.62
1236.873, 91212.75
1237.355, 91207.23
1237.838, 91282.73
1238.320, 91347.41
1238.802, 91400.92
1239.284, 91440.05
1239.766, 91458.77
1240.248, 91478.16
1240.730, 91524.41
1241.212, 91581.84
1241.694, 91635.01
1242.177, 91682.27
1242.659, 91729.16
1243.141, 91775.40
1243.623, 91823.41
1244.105, 91883.20
1244.587, 91920.84
1245.069, 91845.77
1245.551, 91767.85
1246.033, 91824.31
1246.516, 92016.58
1246.998, 92186.98
1247.480, 92335.13
1247.962, 92434.30
1248.444, 92448.08
1248.926, 92456.87
1249.408, 92565.08
1249.890, 92671.52
1250.373, 92653.30
1250.855, 92504.38
1251.337, 92453.89
1251.819, 92500.75
1252.301, 92630.52
1252.783, 92917.65
1253.265, 93160.91
1253.747, 93210.85
1254.229, 93167.29
1254.712, 93117.34
1255.194, 93060.79
1255.676, 93069.23
1256.158, 93136.73
1256.640, 93214.30
1257.122, 93298.00
1257.604, 93358.13
1258.086, 93344.34
1258.568, 93331.06
1259.051, 93400.38
1259.533, 93539.43
1260.015, 93590.41
1260.497, 93568.59
1260.979, 93573.24
1261.461, 93700.50
1261.943, 93799.90
1262.425, 93786.29
1262.908, 93775.42
1263.390, 93913.25
1263.872, 94148.01
1264.354, 94235.56
1264.836, 94200.97
1265.318, 94196.66
1265.800, 94353.55
1266.282, 94450.90
1266.765, 94423.48
1267.247, 94380.34
1267.729, 94471.05
1268.211, 94620.40
1268.693, 94609.88
1269.175, 94471.52
1269.657, 94398.71
1270.139, 94522.62
1270.621, 94610.05
1271.104, 94619.40
1271.586, 94638.91
1272.068, 94821.69
1272.550, 95042.29
1273.032, 95049.92
1273.514, 94891.55
1273.996, 94848.53
1274.478, 95017.02
1274.960, 95164.12
1275.443, 95265.61
1275.925, 95340.15
1276.407, 95420.05
1276.889, 95475.05
1277.371, 95420.55
1277.853, 95304.86
1278.335, 95354.10
1278.817, 95629.26
1279.300, 95821.75
1279.782, 95892.02
1280.264, 95891.25
1280.746, 95783.51
1281.228, 95697.47
1281.710, 95787.77
1282.192, 95988.22
1282.674, 96068.05
1283.156, 96018.49
1283.639, 96035.33
1284.121, 96146.27
1284.603, 96266.51
1285.085, 96355.96
1285.567, 96410.79
1286.049, 96395.52
1286.531, 96361.21
1287.013, 96423.09
1287.495, 96568.52
1287.978, 96683.22
1288.460, 96752.91
1288.942, 96788.75
1289.424, 96773.88
1289.906, 96751.30
1290.388, 96724.25
1290.870, 96714.79
1291.352, 96780.73
1291.835, 96896.21
1292.317, 96987.41
1292.799, 97045.09
1293.281, 97083.52
1293.763, 97090.97
1294.245, 97103.17
1294.727, 97129.52
1295.209, 97160.65
1295.692, 97179.73
1296.174, 97195.13
1296.656, 97207.95
1297.138, 97220.83
1297.620, 97307.34
1298.102, 97503.03
1298.584, 97691.17
1299.066, 97864.63
1299.548, 97963.23
1300.031, 97830.55
1300.513, 97639.40
1300.995, 97595.23
1301.477, 97704.95
1301.959, 97771.77
1302.441, 97787.95
1302.923, 97806.16
1303.405, 97829.59
1303.887, 97902.69
1304.370, 98182.50
1304.852, 98427.15
1305.334, 98356.95
1305.816, 98102.66
1306.298, 98070.92
1306.780, 98242.42
1307.262, 98323.96
1307.744, 98249.58
1308.227, 98225.76
1308.709, 98455.59
1309.191, 98684.41
1309.673, 98789.38
1310.155, 98819.77
1310.637, 98894.48
1311.119, 98987.20
1311.601, 98997.72
1312.083, 98906.96
1312.566, 98843.56
1313.048, 98810.27
1313.530, 98893.27
1314.012, 99156.30
1314.494, 99463.55
1314.976, 99607.48
1315.458, 99637.85
1315.940, 99604.92
1316.422, 99518.00
1316.905, 99502.72
##END=



