##NAMES=Conichalcite
##RRUFFID=R120017
##IDEAL CHEMISTRY=CaCu^2+^As^5+^O_4_(OH)
##LOCALITY=New Cornelia mine, Ajo, Arizona, USA
##OWNER=RRUFF
##SOURCE=Ron Gibbs
##DESCRIPTION=Elongated tufts of yellowish-green crystals, associated with ajoite, R120018
##STATUS=The identification of this mineral has been confirmed by single-crystal X-ray diffraction.
##URL=rruff.info/R120017
90.01007, 0.0000000E+00
90.49219, 51.17250
90.97430, 51.60677
91.45642, 51.56310
91.93854, 51.06590
92.42065, 50.31996
92.90277, 49.33608
93.38489, 48.21766
93.86700, 47.21078
94.34912, 46.41196
94.83124, 45.78301
95.31335, 45.36997
95.79547, 45.21691
96.27759, 44.94454
96.75970, 43.81879
97.24182, 41.93169
97.72394, 40.48127
98.20605, 40.19335
98.68817, 40.96226
99.17029, 41.46491
99.65240, 41.63778
100.1345, 41.62438
100.6166, 41.78210
101.0988, 42.21394
101.5809, 42.37037
102.0630, 41.82658
102.5451, 40.37803
103.0272, 39.23095
103.5093, 38.49537
103.9915, 38.11064
104.4736, 37.81311
104.9557, 37.65035
105.4378, 37.50939
105.9199, 37.31364
106.4020, 37.03465
106.8842, 36.75297
107.3663, 36.50332
107.8484, 36.29010
108.3305, 35.94056
108.8126, 35.21951
109.2947, 34.49830
109.7769, 34.12028
110.2590, 34.58640
110.7411, 34.88811
111.2232, 34.81200
111.7053, 34.26812
112.1874, 33.73785
112.6696, 33.21592
113.1517, 32.73417
113.6338, 32.33387
114.1159, 32.11128
114.5980, 31.89849
115.0801, 31.63952
115.5623, 31.33349
116.0444, 30.97008
116.5265, 30.44781
117.0086, 29.85972
117.4907, 29.41890
117.9728, 29.37274
118.4550, 29.38673
118.9371, 29.24841
119.4192, 28.87105
119.9013, 28.40091
120.3834, 27.73468
120.8655, 26.97572
121.3477, 26.52685
121.8298, 26.99456
122.3119, 27.75567
122.7940, 28.13952
123.2761, 27.70865
123.7582, 27.03632
124.2404, 26.53725
124.7225, 26.20959
125.2046, 26.02994
125.6867, 26.17355
126.1688, 26.44500
126.6509, 26.48723
127.1331, 25.97689
127.6152, 25.22104
128.0973, 24.63218
128.5794, 24.20947
129.0615, 23.96448
129.5436, 24.02640
130.0258, 24.32353
130.5079, 24.54023
130.9900, 24.50965
131.4721, 24.28583
131.9542, 24.00091
132.4363, 23.63334
132.9185, 23.28709
133.4006, 23.13854
133.8827, 23.18709
134.3648, 23.27716
134.8469, 23.36177
135.3290, 23.43542
135.8112, 23.41442
136.2933, 23.28569
136.7754, 23.06877
137.2575, 22.80105
137.7396, 22.47625
138.2217, 22.11840
138.7039, 21.69073
139.1860, 21.15934
139.6681, 20.80606
140.1502, 20.71249
140.6323, 20.81067
141.1144, 20.77904
141.5966, 20.54412
142.0787, 20.31948
142.5608, 20.28608
143.0429, 20.52115
143.5250, 20.72936
144.0071, 20.86810
144.4893, 20.93812
144.9714, 21.00022
145.4535, 21.12568
145.9356, 21.17184
146.4177, 20.97504
146.8998, 20.26135
147.3820, 19.73495
147.8641, 19.59154
148.3462, 19.91254
148.8283, 20.05212
149.3104, 19.92240
149.7925, 19.65368
150.2747, 19.38838
150.7568, 18.99012
151.2389, 18.74183
151.7210, 18.73870
152.2031, 19.06993
152.6852, 19.36019
153.1674, 19.57488
153.6495, 19.75386
154.1316, 19.95627
154.6137, 20.23010
155.0958, 20.49057
155.5779, 20.67980
156.0601, 20.68240
156.5422, 20.87422
157.0243, 21.37410
157.5064, 22.09554
157.9885, 22.87099
158.4706, 23.45351
158.9528, 24.23636
159.4349, 25.41676
159.9170, 27.14759
160.3991, 29.05926
160.8812, 31.11159
161.3633, 33.27668
161.8455, 35.48127
162.3276, 37.31161
162.8097, 39.39607
163.2918, 42.21783
163.7739, 46.31188
164.2560, 50.54099
164.7382, 54.35320
165.2203, 57.87044
165.7024, 61.55943
166.1845, 65.99683
166.6666, 70.56530
167.1487, 74.63923
167.6309, 77.63347
168.1130, 80.58518
168.5951, 84.40475
169.0772, 88.90670
169.5593, 92.86089
170.0414, 94.97762
170.5236, 96.30721
171.0057, 98.08829
171.4878, 101.2017
171.9699, 104.5881
172.4520, 107.2303
172.9341, 109.1982
173.4163, 111.2239
173.8984, 113.7096
174.3805, 116.6472
174.8626, 119.9313
175.3447, 123.4799
175.8268, 127.4306
176.3090, 132.1189
176.7911, 137.5103
177.2732, 143.0298
177.7553, 147.1696
178.2374, 150.3285
178.7195, 154.1126
179.2017, 159.8423
179.6838, 166.3919
180.1659, 171.7052
180.6480, 175.7389
181.1301, 179.8103
181.6122, 185.4699
182.0944, 192.3659
182.5765, 199.2030
183.0586, 205.8830
183.5407, 212.0751
184.0228, 217.2927
184.5049, 221.4425
184.9871, 224.9696
185.4692, 228.2600
185.9513, 231.3310
186.4334, 234.0798
186.9155, 236.2153
187.3976, 237.9788
187.8798, 240.2867
188.3619, 243.2359
188.8440, 246.4187
189.3261, 249.1970
189.8082, 251.6224
190.2903, 254.0500
190.7725, 256.5123
191.2546, 259.1021
191.7367, 262.2114
192.2188, 265.9399
192.7009, 269.9906
193.1830, 273.8117
193.6652, 277.3870
194.1473, 280.9993
194.6294, 284.9956
195.1115, 289.2990
195.5936, 292.8077
196.0757, 295.3286
196.5579, 297.2708
197.0400, 299.1888
197.5221, 301.0266
198.0042, 303.3786
198.4863, 306.7367
198.9684, 311.0966
199.4506, 315.6138
199.9327, 320.2662
200.4148, 324.9416
200.8969, 329.3577
201.3790, 333.5591
201.8611, 337.5162
202.3433, 341.1786
202.8254, 344.5287
203.3075, 347.9508
203.7896, 351.6836
204.2717, 355.2894
204.7538, 357.5601
205.2360, 358.3624
205.7181, 358.3309
206.2002, 357.9651
206.6823, 357.4120
207.1644, 355.4948
207.6465, 351.8746
208.1287, 346.9727
208.6108, 341.8871
209.0929, 336.6322
209.5750, 331.1279
210.0571, 325.3296
210.5392, 319.1329
211.0214, 312.9889
211.5035, 306.8627
211.9856, 300.8615
212.4677, 295.0623
212.9498, 289.2791
213.4319, 284.0958
213.9140, 279.9874
214.3962, 277.3405
214.8783, 274.3472
215.3604, 270.7171
215.8425, 266.6529
216.3246, 263.2405
216.8067, 260.8666
217.2889, 258.3372
217.7710, 254.7369
218.2531, 249.4940
218.7352, 244.8564
219.2173, 241.1681
219.6994, 238.1703
220.1816, 234.8150
220.6637, 230.8082
221.1458, 226.8463
221.6279, 223.4370
222.1100, 220.7515
222.5921, 218.0967
223.0743, 215.4538
223.5564, 212.8042
224.0385, 209.8508
224.5206, 206.4068
225.0027, 203.0658
225.4848, 200.1952
225.9670, 197.9006
226.4491, 195.9280
226.9312, 194.4906
227.4133, 193.3885
227.8954, 191.5060
228.3775, 188.5505
228.8597, 185.3027
229.3418, 182.2275
229.8239, 179.3105
230.3060, 176.6170
230.7881, 174.2487
231.2702, 172.1140
231.7524, 169.8430
232.2345, 167.2204
232.7166, 164.7943
233.1987, 162.9856
233.6808, 162.2183
234.1629, 161.0995
234.6451, 159.3087
235.1272, 157.0759
235.6093, 155.3975
236.0914, 154.4724
236.5735, 153.8270
237.0556, 153.2239
237.5378, 152.7052
238.0199, 152.1251
238.5020, 151.3581
238.9841, 150.5212
239.4662, 150.1606
239.9483, 150.6239
240.4305, 151.0969
240.9126, 151.0995
241.3947, 150.2495
241.8768, 149.8159
242.3589, 150.1374
242.8410, 150.9003
243.3232, 150.8865
243.8053, 149.3991
244.2874, 148.0928
244.7695, 147.8787
245.2516, 149.3431
245.7337, 150.5818
246.2159, 151.5560
246.6980, 152.2627
247.1801, 152.6170
247.6622, 152.2883
248.1443, 152.1053
248.6264, 152.5125
249.1086, 153.8528
249.5907, 154.9315
250.0728, 155.5180
250.5549, 155.8924
251.0370, 156.8618
251.5191, 158.8180
252.0013, 160.7569
252.4834, 162.2117
252.9655, 162.8828
253.4476, 163.8255
253.9297, 165.0980
254.4118, 166.6158
254.8940, 168.2101
255.3761, 169.8232
255.8582, 171.6217
256.3403, 173.6544
256.8224, 175.9020
257.3046, 178.4523
257.7867, 181.4620
258.2688, 184.6440
258.7509, 187.3912
259.2330, 189.4744
259.7151, 191.5204
260.1973, 193.7005
260.6794, 195.8821
261.1615, 198.6623
261.6436, 202.2649
262.1257, 206.2390
262.6078, 209.6981
263.0900, 212.1975
263.5721, 215.1954
264.0542, 219.3175
264.5363, 224.8589
265.0184, 229.9057
265.5005, 234.3967
265.9827, 238.5794
266.4648, 242.8753
266.9469, 247.2700
267.4290, 251.7227
267.9111, 256.1255
268.3932, 260.4058
268.8754, 265.7227
269.3575, 272.5561
269.8396, 279.6664
270.3217, 285.0977
270.8038, 288.2215
271.2859, 292.0692
271.7681, 297.8426
272.2502, 305.4064
272.7323, 311.4767
273.2144, 315.6402
273.6965, 318.9292
274.1786, 322.2343
274.6608, 325.5161
275.1429, 329.2597
275.6250, 333.8925
276.1071, 339.1623
276.5892, 343.2553
277.0714, 345.9479
277.5535, 347.9169
278.0356, 349.6465
278.5177, 351.1088
278.9998, 352.5964
279.4819, 354.1446
279.9641, 355.7698
280.4462, 357.5649
280.9283, 359.6075
281.4104, 361.5015
281.8925, 363.0405
282.3746, 364.2309
282.8568, 364.8784
283.3389, 365.0281
283.8210, 364.5750
284.3031, 363.0396
284.7852, 360.3345
285.2673, 357.3163
285.7495, 354.7055
286.2316, 352.4354
286.7137, 349.6019
287.1958, 346.1703
287.6779, 342.0150
288.1600, 336.7502
288.6422, 330.3654
289.1243, 323.3577
289.6064, 315.9779
290.0885, 308.2499
290.5706, 300.4905
291.0527, 292.5398
291.5349, 285.0064
292.0170, 279.1559
292.4991, 274.9003
292.9812, 270.7050
293.4633, 265.6224
293.9454, 259.9629
294.4276, 254.6513
294.9097, 249.7287
295.3918, 245.4224
295.8739, 242.2991
296.3560, 240.1964
296.8381, 238.1930
297.3203, 235.5030
297.8024, 232.7060
298.2845, 230.9277
298.7666, 230.1994
299.2487, 230.3737
299.7308, 231.6767
300.2130, 233.8198
300.6951, 235.9447
301.1772, 237.4706
301.6593, 238.8913
302.1414, 240.8515
302.6235, 243.3343
303.1057, 246.4031
303.5878, 250.2505
304.0699, 254.6953
304.5520, 259.3317
305.0341, 264.0299
305.5162, 268.8473
305.9984, 273.5593
306.4805, 278.2659
306.9626, 283.9688
307.4447, 291.6238
307.9268, 300.5629
308.4089, 309.8460
308.8911, 319.3174
309.3732, 328.9500
309.8553, 338.4793
310.3374, 348.0424
310.8195, 358.3331
311.3016, 369.8739
311.7838, 382.0939
312.2659, 394.5475
312.7480, 406.8968
313.2301, 419.9409
313.7122, 434.2142
314.1943, 449.6785
314.6765, 465.9487
315.1586, 482.6019
315.6407, 500.1281
316.1228, 519.0926
316.6049, 539.5816
317.0870, 561.0676
317.5692, 583.2862
318.0513, 606.2063
318.5334, 629.6599
319.0155, 654.1915
319.4976, 678.7480
319.9797, 702.7870
320.4619, 726.2855
320.9440, 749.2474
321.4261, 772.3842
321.9082, 794.4692
322.3903, 814.2360
322.8724, 830.5516
323.3546, 845.3773
323.8367, 860.0388
324.3188, 874.4033
324.8009, 884.8085
325.2830, 888.5693
325.7651, 889.3996
326.2473, 889.6854
326.7294, 891.1048
327.2115, 890.3527
327.6936, 886.6105
328.1757, 880.3066
328.6578, 873.3544
329.1400, 864.6306
329.6221, 856.2589
330.1042, 849.1387
330.5863, 844.4871
331.0684, 839.0112
331.5505, 831.8805
332.0327, 824.0908
332.5148, 818.0339
332.9969, 815.0776
333.4790, 811.9445
333.9611, 807.2965
334.4432, 800.5406
334.9254, 794.6610
335.4075, 790.6328
335.8896, 786.6853
336.3717, 780.1082
336.8538, 769.7853
337.3359, 759.6793
337.8180, 751.2356
338.3001, 744.4503
338.7823, 736.1954
339.2644, 726.5478
339.7465, 715.5169
340.2286, 702.7115
340.7107, 687.9101
341.1928, 673.3105
341.6750, 659.5087
342.1571, 646.3458
342.6392, 634.3256
343.1213, 623.6116
343.6034, 612.6625
344.0855, 599.6317
344.5677, 584.7585
345.0498, 571.2568
345.5319, 559.7343
346.0140, 549.5524
346.4961, 539.6403
346.9782, 530.0364
347.4604, 520.6723
347.9425, 511.5518
348.4246, 502.6642
348.9067, 494.4720
349.3888, 487.1256
349.8709, 479.8288
350.3531, 471.0771
350.8352, 461.3934
351.3173, 452.7596
351.7994, 446.5790
352.2815, 441.7198
352.7636, 436.1162
353.2458, 429.7635
353.7279, 423.7224
354.2100, 419.0743
354.6921, 415.3174
355.1742, 411.6113
355.6563, 407.6660
356.1385, 403.6351
356.6206, 399.4589
357.1027, 395.2132
357.5848, 391.3915
358.0669, 388.6889
358.5490, 386.3075
359.0312, 383.3986
359.5133, 379.4161
359.9954, 375.6973
360.4775, 373.2461
360.9596, 371.6104
361.4417, 369.8667
361.9239, 367.6217
362.4060, 365.1674
362.8881, 362.6364
363.3702, 360.0323
363.8523, 357.4201
364.3344, 354.9637
364.8166, 352.4615
365.2987, 349.6604
365.7808, 346.0294
366.2629, 342.6421
366.7450, 340.0192
367.2271, 338.1558
367.7093, 335.8084
368.1914, 332.5741
368.6735, 328.9693
369.1556, 325.2916
369.6377, 320.9961
370.1198, 317.4380
370.6020, 315.1347
371.0841, 313.6682
371.5662, 311.4931
372.0483, 308.0922
372.5304, 304.6405
373.0125, 301.6909
373.4947, 299.6508
373.9768, 296.9330
374.4589, 293.1318
374.9410, 288.9471
375.4231, 285.6472
375.9052, 283.5905
376.3874, 281.3323
376.8695, 278.2322
377.3516, 274.3029
377.8337, 271.6102
378.3158, 270.3208
378.7979, 269.7016
379.2801, 269.1753
379.7622, 268.7493
380.2443, 268.2057
380.7264, 267.4947
381.2085, 266.6380
381.6906, 265.5907
382.1728, 264.3472
382.6549, 263.2416
383.1370, 262.6921
383.6191, 262.5076
384.1012, 261.9011
384.5833, 260.6940
385.0655, 259.3426
385.5476, 258.6137
386.0297, 258.3020
386.5118, 257.7069
386.9939, 256.0789
387.4760, 254.1260
387.9582, 253.1192
388.4403, 253.0869
388.9224, 252.7724
389.4045, 251.1327
389.8866, 248.5996
390.3687, 245.7170
390.8509, 242.2527
391.3330, 238.9922
391.8151, 236.7951
392.2972, 235.3725
392.7793, 233.5050
393.2614, 230.1786
393.7436, 226.4569
394.2257, 223.0410
394.7078, 220.2061
395.1899, 217.3657
395.6720, 214.1239
396.1541, 210.7737
396.6363, 207.7874
397.1184, 205.3810
397.6005, 203.2589
398.0826, 201.5068
398.5647, 200.2240
399.0468, 198.4388
399.5290, 195.5286
400.0111, 192.3769
400.4932, 189.6800
400.9753, 187.4657
401.4574, 185.6761
401.9395, 184.3990
402.4217, 183.5674
402.9038, 182.8932
403.3859, 182.3393
403.8680, 181.9994
404.3501, 181.9969
404.8322, 182.5260
405.3144, 182.6532
405.7965, 182.1692
406.2786, 181.5301
406.7607, 181.5476
407.2428, 182.3524
407.7249, 183.0923
408.2071, 183.4168
408.6892, 183.4180
409.1713, 183.6614
409.6534, 184.1571
410.1355, 184.8461
410.6176, 185.7561
411.0998, 186.8459
411.5819, 187.8098
412.0640, 188.4795
412.5461, 189.1825
413.0282, 190.6306
413.5103, 192.6966
413.9925, 194.6591
414.4746, 195.8988
414.9567, 196.8522
415.4388, 198.2785
415.9209, 200.3087
416.4030, 202.2658
416.8852, 203.3094
417.3673, 203.9658
417.8494, 205.0928
418.3315, 207.3696
418.8136, 209.9481
419.2957, 212.3604
419.7779, 214.6117
420.2600, 216.8990
420.7421, 219.4333
421.2242, 221.9578
421.7063, 224.1885
422.1884, 225.8788
422.6706, 227.7320
423.1527, 229.9991
423.6348, 232.5497
424.1169, 235.1414
424.5990, 238.2957
425.0811, 240.9841
425.5633, 242.7430
426.0454, 243.4153
426.5275, 244.2853
427.0096, 245.5889
427.4917, 246.9047
427.9738, 247.9237
428.4560, 248.7322
428.9381, 248.9966
429.4202, 248.3666
429.9023, 247.2266
430.3844, 247.1275
430.8665, 248.6412
431.3487, 249.5644
431.8308, 248.4961
432.3129, 245.3242
432.7950, 242.6246
433.2771, 240.4284
433.7592, 238.7237
434.2414, 237.6238
434.7235, 237.0823
435.2056, 236.5160
435.6877, 235.6972
436.1698, 234.7757
436.6519, 234.1233
437.1341, 233.7228
437.6162, 233.2467
438.0983, 232.2656
438.5804, 231.0847
439.0625, 230.2439
439.5446, 229.8712
440.0268, 229.7155
440.5089, 229.5314
440.9910, 229.3992
441.4731, 229.4845
441.9552, 230.1407
442.4373, 230.8148
442.9195, 231.1826
443.4016, 231.2309
443.8837, 231.0737
444.3658, 230.4429
444.8479, 229.7943
445.3300, 229.5117
445.8122, 230.3701
446.2943, 230.6709
446.7764, 229.7021
447.2585, 227.9547
447.7406, 226.6908
448.2227, 226.9863
448.7049, 226.7835
449.1870, 225.3987
449.6691, 222.6597
450.1512, 219.8337
450.6333, 216.8474
451.1154, 213.8969
451.5976, 211.2530
452.0797, 209.1515
452.5618, 206.6690
453.0439, 203.6252
453.5260, 200.1478
454.0081, 196.2845
454.4903, 191.9249
454.9724, 187.8178
455.4545, 184.3147
455.9366, 181.4094
456.4187, 178.9858
456.9008, 177.1508
457.3830, 175.2828
457.8651, 172.5243
458.3472, 169.1270
458.8293, 166.0242
459.3114, 163.4217
459.7935, 161.3190
460.2757, 159.7910
460.7578, 158.7796
461.2399, 157.9564
461.7220, 157.1334
462.2041, 156.3919
462.6862, 155.7710
463.1684, 155.2299
463.6505, 155.0307
464.1326, 155.4547
464.6147, 156.2616
465.0968, 157.1518
465.5789, 157.9375
466.0611, 158.8769
466.5432, 159.8125
467.0253, 160.8256
467.5074, 162.7559
467.9895, 166.0656
468.4716, 170.0335
468.9538, 174.2718
469.4359, 178.4416
469.9180, 183.5352
470.4001, 189.9161
470.8822, 197.0213
471.3643, 203.9748
471.8465, 210.5081
472.3286, 217.6646
472.8107, 225.7736
473.2928, 234.6561
473.7749, 244.0389
474.2570, 253.8976
474.7392, 264.1417
475.2213, 274.5782
475.7034, 285.2815
476.1855, 296.6461
476.6676, 308.5940
477.1497, 321.6794
477.6319, 336.4972
478.1140, 352.9631
478.5961, 370.6293
479.0782, 389.5166
479.5603, 409.3740
480.0424, 429.8538
480.5246, 451.0844
481.0067, 473.2899
481.4888, 496.6034
481.9709, 520.9450
482.4530, 546.6036
482.9352, 574.8513
483.4173, 601.3310
483.8994, 624.6335
484.3815, 645.0985
484.8636, 663.0124
485.3457, 680.5341
485.8279, 693.3497
486.3100, 700.6883
486.7921, 702.3678
487.2742, 697.8883
487.7563, 687.0822
488.2384, 670.2496
488.7206, 647.0677
489.2027, 615.4567
489.6848, 583.3533
490.1669, 550.5260
490.6490, 517.5754
491.1311, 484.4299
491.6133, 451.1482
492.0954, 419.1758
492.5775, 388.6003
493.0596, 359.7805
493.5417, 333.6133
494.0238, 310.1936
494.5060, 288.9654
494.9881, 269.7914
495.4702, 252.6219
495.9523, 236.7724
496.4344, 222.2135
496.9165, 209.2074
497.3987, 198.4579
497.8808, 189.3656
498.3629, 181.0179
498.8450, 173.0219
499.3271, 165.6321
499.8092, 159.1845
500.2914, 153.5432
500.7735, 148.4803
501.2556, 143.9713
501.7377, 139.8323
502.2198, 135.9662
502.7019, 132.3254
503.1841, 128.9472
503.6662, 125.7901
504.1483, 122.9133
504.6304, 120.4146
505.1125, 118.3219
505.5946, 116.6229
506.0768, 115.4266
506.5589, 114.6276
507.0410, 113.6077
507.5231, 112.2046
508.0052, 111.0347
508.4873, 110.5413
508.9695, 110.7377
509.4516, 110.5148
509.9337, 109.7295
510.4158, 109.0919
510.8979, 109.5337
511.3800, 110.8726
511.8622, 112.3068
512.3443, 113.7149
512.8264, 114.9876
513.3085, 115.7648
513.7906, 116.2365
514.2728, 117.0833
514.7549, 118.9371
515.2370, 121.1709
515.7191, 123.2190
516.2012, 125.0310
516.6833, 127.0126
517.1655, 129.3818
517.6476, 132.0087
518.1297, 134.7826
518.6118, 137.6505
519.0939, 140.7037
519.5760, 143.9892
520.0582, 147.4597
520.5403, 151.0710
521.0224, 154.6051
521.5045, 158.5393
521.9866, 163.1721
522.4688, 168.5199
522.9509, 173.2618
523.4330, 177.2288
523.9151, 181.0451
524.3972, 185.1989
524.8793, 189.6781
525.3615, 194.2113
525.8436, 198.8438
526.3257, 203.4182
526.8078, 207.7186
527.2899, 211.7401
527.7720, 215.3684
528.2542, 218.3087
528.7363, 220.9760
529.2184, 223.9712
529.7005, 227.2210
530.1826, 230.4757
530.6647, 233.8031
531.1469, 236.9229
531.6290, 239.7131
532.1111, 242.1991
532.5932, 244.0522
533.0753, 245.0469
533.5574, 245.3970
534.0396, 245.3085
534.5217, 245.3578
535.0038, 244.3428
535.4859, 241.8242
535.9680, 238.1135
536.4501, 234.1656
536.9323, 230.3394
537.4144, 225.6846
537.8965, 219.8542
538.3786, 212.8653
538.8607, 205.0633
539.3428, 196.3516
539.8250, 187.3102
540.3071, 178.3450
540.7892, 169.6032
541.2713, 161.3666
541.7534, 153.7226
542.2355, 146.6551
542.7177, 140.1376
543.1998, 134.1444
543.6819, 128.7728
544.1640, 124.1953
544.6461, 120.2354
545.1282, 116.6939
545.6104, 113.6048
546.0925, 111.0682
546.5746, 109.4360
547.0567, 108.1701
547.5388, 106.8955
548.0209, 105.5190
548.5031, 104.2954
548.9852, 103.2004
549.4673, 102.3113
549.9494, 101.7208
550.4315, 101.7142
550.9136, 101.5468
551.3958, 101.0514
551.8779, 100.3659
552.3600, 99.98528
552.8421, 100.0632
553.3242, 99.89580
553.8063, 99.08965
554.2885, 97.74078
554.7706, 96.67846
555.2527, 95.93989
555.7348, 95.09993
556.2169, 93.60304
556.6990, 91.72926
557.1812, 90.17700
557.6633, 89.09032
558.1454, 88.21240
558.6275, 87.25465
559.1096, 86.34229
559.5917, 85.67490
560.0739, 85.64549
560.5560, 85.59634
561.0381, 85.07049
561.5202, 84.20632
562.0023, 83.60072
562.4844, 83.73128
562.9666, 83.87006
563.4487, 83.60864
563.9308, 82.77874
564.4129, 82.37475
564.8950, 82.58415
565.3771, 83.01331
565.8593, 83.40637
566.3414, 83.83413
566.8235, 83.87294
567.3056, 83.36895
567.7877, 82.63177
568.2698, 82.15372
568.7520, 81.93205
569.2341, 82.00687
569.7162, 82.61914
570.1983, 83.38536
570.6804, 83.56255
571.1625, 83.21172
571.6447, 82.76324
572.1268, 82.33996
572.6089, 82.04707
573.0910, 82.07792
573.5731, 82.50976
574.0552, 82.81196
574.5374, 82.75436
575.0195, 82.44876
575.5016, 82.00053
575.9837, 80.92476
576.4658, 80.33740
576.9479, 80.71366
577.4301, 81.54662
577.9122, 81.80993
578.3943, 81.16149
578.8764, 80.62621
579.3585, 80.51643
579.8406, 80.76318
580.3228, 80.89165
580.8049, 80.89098
581.2870, 80.84103
581.7691, 80.85320
582.2512, 80.87107
582.7333, 80.56186
583.2155, 79.86313
583.6975, 79.27792
584.1796, 79.40599
584.6617, 79.93213
585.1439, 80.34232
585.6260, 80.50650
586.1081, 80.50735
586.5902, 80.38229
587.0723, 80.13044
587.5544, 79.75511
588.0366, 79.15800
588.5187, 78.52926
589.0008, 77.92100
589.4829, 77.33187
589.9650, 76.73339
590.4471, 76.08604
590.9293, 75.47508
591.4114, 74.97287
591.8935, 74.60915
592.3756, 74.12109
592.8577, 73.50219
593.3398, 72.77054
593.8220, 71.88683
594.3041, 70.87528
594.7862, 69.91299
595.2683, 69.01771
595.7504, 68.21790
596.2325, 67.53510
596.7147, 66.96443
597.1968, 66.50264
597.6789, 66.32394
598.1610, 66.10155
598.6431, 65.50921
599.1252, 64.63548
599.6074, 63.88655
600.0895, 63.66298
600.5716, 63.37486
601.0537, 62.64131
601.5358, 61.27385
602.0179, 60.30107
602.5001, 59.96925
602.9822, 59.79860
603.4643, 59.40419
603.9464, 58.66473
604.4285, 58.17493
604.9106, 57.99657
605.3928, 58.02126
605.8749, 58.19603
606.3570, 58.49236
606.8391, 58.50800
607.3212, 57.98463
607.8033, 57.29219
608.2855, 57.01503
608.7676, 57.06516
609.2497, 57.10920
609.7318, 56.98744
610.2139, 56.76854
610.6960, 56.46692
611.1782, 56.08940
611.6603, 55.76553
612.1424, 55.50903
612.6245, 55.34003
613.1066, 55.30045
613.5887, 55.54666
614.0709, 55.54016
614.5530, 55.03563
615.0351, 54.50060
615.5172, 54.50396
615.9993, 55.23180
616.4814, 55.63078
616.9636, 55.47684
617.4457, 55.03616
617.9278, 54.79353
618.4099, 54.73510
618.8920, 54.71179
619.3741, 54.62551
619.8563, 54.56220
620.3384, 54.75518
620.8205, 55.13071
621.3026, 55.32165
621.7847, 54.90784
622.2668, 54.37744
622.7490, 54.16906
623.2311, 54.36501
623.7132, 54.34199
624.1953, 53.52837
624.6774, 52.71924
625.1595, 52.50541
625.6417, 53.44491
626.1238, 53.87292
626.6059, 53.57930
627.0880, 53.00319
627.5701, 52.70446
628.0522, 52.70064
628.5344, 52.81970
629.0165, 53.05638
629.4986, 53.35062
629.9807, 53.57886
630.4628, 53.75539
630.9449, 53.95160
631.4271, 54.39206
631.9092, 54.74934
632.3913, 54.48338
632.8734, 53.71184
633.3555, 53.18956
633.8376, 53.58786
634.3198, 54.11466
634.8019, 54.26220
635.2840, 53.89125
635.7661, 53.61555
636.2482, 53.57082
636.7303, 53.57938
637.2125, 53.53007
637.6946, 53.42667
638.1767, 53.22554
638.6588, 52.85909
639.1409, 52.51091
639.6230, 52.52179
640.1052, 52.86218
640.5873, 53.05444
641.0694, 52.90343
641.5515, 52.67512
642.0336, 52.87896
642.5157, 53.35333
642.9979, 53.62811
643.4800, 53.35231
643.9621, 52.88997
644.4442, 52.23990
644.9263, 51.52272
645.4084, 51.41108
645.8906, 53.05133
646.3727, 54.53810
646.8548, 54.81001
647.3369, 53.65638
647.8190, 52.95527
648.3011, 52.89109
648.7833, 53.01227
649.2654, 52.94928
649.7475, 52.66632
650.2296, 52.70173
650.7117, 53.14748
651.1938, 53.66962
651.6760, 53.79753
652.1581, 53.65289
652.6402, 53.63389
653.1223, 53.93259
653.6044, 54.20016
654.0865, 53.98362
654.5687, 53.52778
655.0508, 53.30269
655.5329, 53.73206
656.0150, 54.16534
656.4971, 54.39295
656.9792, 54.42592
657.4614, 54.34400
657.9435, 54.01380
658.4256, 53.76874
658.9077, 53.75544
659.3898, 53.95980
659.8719, 54.01928
660.3541, 53.90806
660.8362, 53.77272
661.3183, 53.69331
661.8004, 53.67261
662.2825, 53.75642
662.7646, 53.95626
663.2468, 54.10154
663.7289, 53.97581
664.2110, 53.73122
664.6931, 53.58479
665.1752, 53.65014
665.6573, 53.64037
666.1395, 53.26179
666.6216, 52.80222
667.1037, 52.61568
667.5858, 53.04462
668.0679, 53.38005
668.5500, 53.53807
669.0322, 53.58468
669.5143, 53.66018
669.9964, 53.77486
670.4785, 53.86423
670.9606, 53.88778
671.4427, 53.88699
671.9249, 53.99831
672.4070, 54.20737
672.8891, 54.39769
673.3712, 54.53099
673.8533, 54.58884
674.3354, 54.47591
674.8176, 54.21781
675.2997, 54.08015
675.7818, 54.33779
676.2639, 54.65162
676.7460, 54.81050
677.2281, 54.75113
677.7103, 54.67768
678.1924, 54.55008
678.6745, 54.46060
679.1566, 54.46341
679.6387, 54.54846
680.1208, 54.83791
680.6030, 55.43678
681.0851, 55.98623
681.5672, 55.92482
682.0493, 55.39977
682.5314, 55.03979
683.0135, 55.01195
683.4957, 55.16750
683.9778, 55.52893
684.4599, 55.94156
684.9420, 56.10350
685.4241, 55.46785
685.9063, 55.02682
686.3884, 55.35382
686.8705, 56.20009
687.3526, 56.68187
687.8347, 56.48736
688.3168, 56.32330
688.7990, 56.39030
689.2811, 56.65073
689.7632, 56.83927
690.2453, 56.94136
690.7274, 57.06972
691.2095, 57.36949
691.6917, 57.73838
692.1738, 57.83706
692.6559, 57.66969
693.1380, 57.45872
693.6201, 57.22756
694.1022, 57.11346
694.5844, 57.32787
695.0665, 57.96296
695.5486, 58.45683
696.0307, 58.39938
696.5128, 58.26320
696.9949, 58.44437
697.4771, 59.22314
697.9592, 59.73188
698.4413, 59.88306
698.9234, 59.87254
699.4055, 59.91592
699.8876, 60.01432
700.3698, 60.14130
700.8519, 60.27694
701.3340, 60.48097
701.8161, 60.95247
702.2982, 61.56084
702.7803, 61.96606
703.2625, 61.86159
703.7446, 61.73594
704.2267, 62.00157
704.7088, 62.48164
705.1909, 62.78587
705.6730, 62.41617
706.1552, 62.30785
706.6373, 62.81803
707.1194, 63.78291
707.6015, 64.42678
708.0836, 64.64001
708.5657, 64.84944
709.0479, 65.26482
709.5300, 65.81326
710.0121, 66.18083
710.4942, 66.37209
710.9763, 66.48991
711.4584, 66.58540
711.9406, 66.65969
712.4227, 66.63100
712.9048, 66.50855
713.3869, 66.63067
713.8690, 67.41615
714.3511, 68.31624
714.8333, 68.97527
715.3154, 69.27396
715.7975, 69.58105
716.2796, 69.96095
716.7617, 70.28011
717.2438, 70.33257
717.7260, 70.05125
718.2081, 70.33566
718.6902, 71.34814
719.1723, 72.47024
719.6544, 72.82024
720.1365, 72.70985
720.6187, 72.95046
721.1008, 73.80742
721.5829, 74.78984
722.0650, 75.64897
722.5471, 76.37217
723.0292, 76.96078
723.5114, 77.07943
723.9935, 77.45560
724.4756, 78.42693
724.9577, 79.63779
725.4398, 80.45625
725.9219, 80.66089
726.4041, 81.15555
726.8862, 82.20361
727.3683, 83.58644
727.8504, 84.72722
728.3325, 85.66462
728.8146, 86.67787
729.2968, 88.03796
729.7789, 89.39890
730.2610, 90.25422
730.7431, 90.75687
731.2252, 91.41454
731.7073, 92.68689
732.1895, 93.92693
732.6716, 94.70970
733.1537, 95.09171
733.6358, 95.98795
734.1179, 97.82280
734.6000, 99.46167
735.0822, 100.3054
735.5643, 100.4712
736.0464, 101.1340
736.5285, 102.3168
737.0106, 103.5459
737.4927, 104.2588
737.9749, 104.8786
738.4570, 106.3140
738.9391, 108.5673
739.4212, 110.6439
739.9033, 111.8541
740.3854, 112.7364
740.8676, 113.6812
741.3497, 114.7966
741.8318, 115.7078
742.3139, 116.2309
742.7960, 116.7381
743.2781, 117.4660
743.7603, 118.4189
744.2424, 119.6447
744.7245, 121.2339
745.2066, 122.7450
745.6887, 123.4534
746.1708, 123.7576
746.6530, 124.7754
747.1351, 126.8050
747.6172, 128.9524
748.0993, 130.6566
748.5814, 132.0771
749.0635, 133.3537
749.5457, 134.2674
750.0278, 135.4734
750.5099, 137.1689
750.9920, 139.0893
751.4741, 140.8943
751.9562, 142.4670
752.4384, 144.3994
752.9205, 146.8603
753.4026, 149.4629
753.8847, 151.3894
754.3668, 152.8637
754.8489, 154.8650
755.3311, 157.9152
755.8132, 161.1556
756.2953, 163.6503
756.7774, 165.8192
757.2595, 168.3436
757.7416, 172.0883
758.2238, 175.4789
758.7059, 178.0015
759.1880, 180.0225
759.6701, 182.2955
760.1522, 184.8981
760.6343, 187.5740
761.1165, 190.2885
761.5986, 193.0519
762.0807, 195.7234
762.5628, 198.4068
763.0449, 201.7118
763.5270, 206.2935
764.0092, 211.2735
764.4913, 216.0003
764.9734, 220.4877
765.4555, 224.8583
765.9376, 228.3379
766.4197, 232.5031
766.9019, 238.2543
767.3840, 245.1976
767.8661, 251.4935
768.3482, 256.7646
768.8303, 262.4284
769.3124, 269.0158
769.7946, 276.3645
770.2767, 284.3652
770.7588, 292.9387
771.2409, 301.3521
771.7230, 308.5426
772.2051, 315.7935
772.6873, 324.6089
773.1694, 334.8546
773.6515, 344.9506
774.1336, 354.6891
774.6157, 363.9208
775.0978, 372.5354
775.5800, 380.5561
776.0621, 388.5453
776.5442, 396.8976
777.0263, 404.1161
777.5084, 408.7619
777.9905, 411.4918
778.4727, 415.8505
778.9548, 421.6789
779.4369, 426.1739
779.9190, 427.4289
780.4011, 426.3007
780.8832, 423.3264
781.3654, 418.5938
781.8475, 413.0107
782.3296, 406.9367
782.8117, 399.9643
783.2938, 391.6062
783.7759, 381.6694
784.2581, 372.6622
784.7402, 364.8006
785.2223, 357.4014
785.7044, 349.6175
786.1865, 341.8650
786.6686, 335.6210
787.1508, 330.9009
787.6329, 326.9236
788.1150, 322.3526
788.5971, 318.6280
789.0792, 317.3831
789.5613, 318.9289
790.0435, 321.2610
790.5256, 324.2656
791.0077, 327.6256
791.4898, 331.0213
791.9719, 334.1906
792.4540, 339.0950
792.9362, 345.7726
793.4183, 353.6507
793.9004, 362.2666
794.3825, 371.6512
794.8646, 381.5366
795.3467, 391.9825
795.8289, 403.4230
796.3110, 416.2590
796.7931, 430.0734
797.2752, 444.3798
797.7573, 459.3256
798.2394, 474.4332
798.7216, 489.0820
799.2037, 504.5081
799.6858, 521.3813
800.1679, 539.8723
800.6500, 559.0157
801.1321, 579.0619
801.6143, 599.8105
802.0964, 620.9242
802.5785, 642.6349
803.0606, 665.7424
803.5427, 690.3404
804.0248, 715.9646
804.5070, 742.2158
804.9891, 769.7462
805.4712, 798.8226
805.9533, 829.5773
806.4354, 862.7875
806.9175, 898.6988
807.3997, 936.6443
807.8818, 976.1721
808.3639, 1016.981
808.8460, 1060.798
809.3281, 1107.866
809.8102, 1155.527
810.2924, 1200.112
810.7745, 1244.404
811.2566, 1293.230
811.7387, 1347.342
812.2208, 1400.306
812.7029, 1449.272
813.1851, 1496.202
813.6672, 1542.661
814.1493, 1589.161
814.6314, 1633.164
815.1135, 1673.631
815.5956, 1713.324
816.0778, 1753.673
816.5599, 1794.716
817.0420, 1835.611
817.5241, 1876.442
818.0062, 1918.256
818.4883, 1961.107
818.9705, 2006.505
819.4526, 2056.501
819.9347, 2111.871
820.4168, 2165.863
820.8989, 2218.711
821.3810, 2268.210
821.8632, 2314.030
822.3453, 2356.438
822.8274, 2393.327
823.3095, 2424.431
823.7916, 2448.255
824.2737, 2461.782
824.7559, 2467.324
825.2380, 2469.281
825.7201, 2467.902
826.2022, 2461.711
826.6843, 2445.757
827.1664, 2427.882
827.6486, 2412.516
828.1307, 2399.817
828.6128, 2391.645
829.0949, 2386.641
829.5770, 2388.329
830.0591, 2399.076
830.5413, 2418.520
831.0234, 2443.332
831.5055, 2473.479
831.9876, 2507.814
832.4697, 2549.857
832.9518, 2593.142
833.4340, 2633.307
833.9161, 2669.461
834.3982, 2697.108
834.8803, 2722.404
835.3624, 2730.448
835.8445, 2716.096
836.3267, 2679.788
836.8088, 2625.175
837.2909, 2550.602
837.7730, 2466.269
838.2551, 2375.441
838.7372, 2279.698
839.2194, 2181.128
839.7015, 2080.535
840.1836, 1982.557
840.6657, 1889.734
841.1478, 1800.410
841.6299, 1714.026
842.1121, 1630.546
842.5942, 1552.562
843.0763, 1479.365
843.5584, 1411.692
844.0405, 1350.101
844.5226, 1294.098
845.0048, 1242.267
845.4869, 1194.516
845.9690, 1149.318
846.4511, 1106.302
846.9332, 1065.736
847.4153, 1028.557
847.8975, 994.2772
848.3796, 961.4954
848.8617, 930.4110
849.3438, 899.9328
849.8259, 869.9434
850.3080, 840.4619
850.7902, 811.7217
851.2723, 783.9570
851.7544, 756.9734
852.2365, 730.6292
852.7186, 705.2366
853.2007, 681.4219
853.6829, 659.0250
854.1650, 637.4257
854.6471, 616.1707
855.1292, 595.6500
855.6113, 575.7562
856.0934, 556.8668
856.5756, 539.3027
857.0577, 523.1998
857.5398, 507.8969
858.0219, 493.0660
858.5040, 478.9612
858.9861, 466.2719
859.4683, 454.8386
859.9504, 443.9473
860.4325, 433.3360
860.9146, 423.8773
861.3967, 417.3195
861.8788, 412.1370
862.3610, 406.3840
862.8431, 399.5901
863.3252, 392.3100
863.8073, 384.3394
864.2894, 376.2666
864.7715, 368.6620
865.2537, 361.5207
865.7358, 355.1779
866.2179, 349.6850
866.7000, 344.4716
867.1821, 338.8765
867.6642, 333.1935
868.1464, 327.9200
868.6285, 323.0612
869.1106, 318.6494
869.5927, 315.5962
870.0748, 312.1725
870.5569, 307.1412
871.0391, 300.1976
871.5212, 293.7178
872.0033, 287.6309
872.4854, 282.3807
872.9675, 279.0919
873.4496, 276.7314
873.9318, 272.7886
874.4139, 267.2946
874.8960, 261.6795
875.3781, 256.8711
875.8602, 252.1337
876.3423, 247.1295
876.8245, 241.8542
877.3066, 236.1811
877.7887, 229.8996
878.2708, 223.7315
878.7529, 218.0043
879.2350, 212.6286
879.7172, 207.2579
880.1993, 201.9224
880.6814, 196.3634
881.1635, 190.0498
881.6456, 183.8240
882.1277, 178.3447
882.6099, 173.4588
883.0920, 168.7094
883.5741, 164.0167
884.0562, 159.3848
884.5383, 154.6319
885.0204, 149.9963
885.5026, 145.9417
885.9847, 142.4687
886.4668, 139.6399
886.9489, 137.5481
887.4310, 135.9252
887.9131, 134.6497
888.3953, 133.6181
888.8774, 132.6648
889.3595, 131.7862
889.8416, 130.9196
890.3237, 129.8617
890.8058, 128.9759
891.2880, 128.7127
891.7701, 129.1309
892.2522, 129.4732
892.7343, 129.6850
893.2164, 129.7723
893.6985, 129.4944
894.1807, 129.1999
894.6628, 129.3866
895.1449, 130.1477
895.6270, 131.2712
896.1091, 133.1314
896.5912, 134.9462
897.0734, 136.2293
897.5555, 136.9167
898.0376, 137.7398
898.5197, 138.6964
899.0018, 139.7753
899.4839, 141.0420
899.9661, 142.3878
900.4482, 143.6013
900.9303, 144.7021
901.4124, 145.7700
901.8945, 146.8901
902.3766, 147.9548
902.8588, 148.8916
903.3409, 149.7233
903.8230, 150.6158
904.3051, 151.6082
904.7872, 152.5380
905.2693, 153.4071
905.7515, 154.1246
906.2336, 154.4381
906.7157, 154.4468
907.1978, 154.4474
907.6799, 154.7329
908.1620, 154.8202
908.6442, 154.4605
909.1263, 153.7662
909.6084, 152.9405
910.0905, 151.9908
910.5726, 150.9490
911.0547, 149.8610
911.5369, 148.5437
912.0190, 146.5281
912.5011, 144.0936
912.9832, 142.0868
913.4653, 140.7133
913.9474, 139.3623
914.4296, 137.5690
914.9117, 135.6812
915.3938, 134.0445
915.8759, 132.8061
916.3580, 131.1954
916.8401, 129.0515
917.3223, 126.9280
917.8044, 125.1460
918.2865, 123.7033
918.7686, 122.6770
919.2507, 122.0118
919.7328, 121.2123
920.2150, 119.9001
920.6971, 118.4214
921.1792, 116.8869
921.6613, 115.3385
922.1434, 114.0186
922.6255, 112.9995
923.1077, 112.0383
923.5898, 111.0905
924.0719, 110.1306
924.5540, 108.9237
925.0361, 107.5928
925.5182, 106.6933
926.0004, 106.6676
926.4825, 106.7170
926.9646, 106.4537
927.4467, 105.9012
927.9288, 105.0640
928.4109, 103.6940
928.8931, 102.5675
929.3752, 101.7278
929.8573, 101.1406
930.3394, 100.9745
930.8215, 101.0386
931.3036, 100.4581
931.7858, 99.07228
932.2679, 97.98805
932.7500, 98.29640
933.2321, 98.96790
933.7142, 99.19453
934.1964, 98.83153
934.6785, 98.65023
935.1606, 98.72317
935.6427, 98.80367
936.1248, 98.71654
936.6069, 98.55159
937.0891, 98.64397
937.5712, 98.95374
938.0533, 99.27856
938.5354, 99.49071
939.0175, 99.70094
939.4996, 99.99043
939.9818, 100.3225
940.4639, 100.5534
940.9460, 100.5068
941.4281, 100.8299
941.9102, 101.7344
942.3923, 102.8599
942.8745, 103.5650
943.3566, 104.0125
943.8387, 104.6799
944.3208, 105.7290
944.8029, 106.8084
945.2850, 107.7292
945.7672, 108.5905
946.2493, 109.4396
946.7314, 110.1617
947.2135, 111.4453
947.6956, 113.4762
948.1777, 115.4328
948.6599, 116.5546
949.1420, 117.1262
949.6241, 117.8004
950.1062, 118.5749
950.5883, 119.2726
951.0704, 119.7856
951.5526, 120.2103
952.0347, 120.7555
952.5168, 121.2654
952.9989, 121.0539
953.4810, 120.0061
953.9631, 118.7848
954.4453, 117.5999
954.9274, 116.3008
955.4095, 114.4231
955.8916, 112.2764
956.3737, 110.5227
956.8558, 109.6674
957.3380, 108.6689
957.8201, 107.0067
958.3022, 105.1380
958.7843, 103.5189
959.2664, 102.2315
959.7485, 100.6180
960.2307, 98.61033
960.7128, 96.68612
961.1949, 95.33920
961.6770, 94.30566
962.1591, 93.24318
962.6412, 92.12190
963.1234, 91.06210
963.6055, 90.31563
964.0876, 89.37058
964.5697, 87.91843
965.0518, 86.13968
965.5339, 84.85204
966.0161, 84.05003
966.4982, 83.15320
966.9803, 81.85331
967.4624, 80.49989
967.9445, 79.60183
968.4266, 78.90495
968.9088, 78.00855
969.3909, 76.57529
969.8730, 75.23955
970.3551, 73.98111
970.8372, 72.89642
971.3193, 72.06796
971.8015, 71.49075
972.2836, 71.15196
972.7657, 71.06550
973.2478, 70.77731
973.7299, 69.78763
974.2120, 68.54925
974.6942, 67.38433
975.1763, 66.32578
975.6584, 65.41257
976.1405, 64.73418
976.6226, 63.97280
977.1047, 62.95282
977.5869, 61.81598
978.0690, 61.03801
978.5511, 60.52644
979.0332, 59.90072
979.5153, 58.83077
979.9974, 57.85688
980.4796, 57.43342
980.9617, 57.20536
981.4438, 56.65460
981.9259, 55.61049
982.4080, 54.75069
982.8901, 54.15232
983.3723, 53.55172
983.8544, 52.49731
984.3365, 51.31907
984.8186, 50.69930
985.3007, 50.68153
985.7828, 50.73209
986.2650, 50.78930
986.7471, 50.66986
987.2292, 50.22778
987.7113, 49.54794
988.1934, 49.05259
988.6755, 48.74145
989.1577, 48.64772
989.6398, 48.94526
990.1219, 49.19843
990.6040, 48.77650
991.0861, 47.96891
991.5682, 47.25917
992.0504, 46.57144
992.5325, 46.36457
993.0146, 46.91498
993.4967, 47.60154
993.9788, 47.83920
994.4609, 47.67445
994.9431, 47.45567
995.4252, 47.20237
995.9073, 47.06822
996.3894, 47.35973
996.8715, 47.64894
997.3536, 47.50534
997.8358, 46.97350
998.3179, 46.81901
998.8000, 47.19931
999.2821, 47.59424
999.7642, 47.89450
1000.246, 48.06771
1000.728, 47.93465
1001.211, 47.62411
1001.693, 47.47121
1002.175, 47.60584
1002.657, 47.85076
1003.139, 48.14588
1003.621, 48.51155
1004.103, 48.98010
1004.585, 49.58959
1005.068, 50.08120
1005.550, 50.45564
1006.032, 50.73810
1006.514, 50.82537
1006.996, 50.91441
1007.478, 51.34139
1007.960, 52.03782
1008.442, 52.56834
1008.924, 52.64436
1009.407, 52.74879
1009.889, 52.90507
1010.371, 53.21242
1010.853, 54.10535
1011.335, 55.43901
1011.817, 56.09206
1012.299, 55.66118
1012.781, 55.17884
1013.263, 55.36610
1013.746, 55.91488
1014.228, 56.58033
1014.710, 57.37818
1015.192, 58.06623
1015.674, 58.65528
1016.156, 59.09017
1016.638, 59.24120
1017.120, 59.26576
1017.603, 59.61007
1018.085, 60.14946
1018.567, 60.43427
1019.049, 59.69295
1019.531, 59.37510
1020.013, 60.26305
1020.495, 61.56630
1020.977, 62.05310
1021.459, 61.69611
1021.942, 61.69060
1022.424, 62.21237
1022.906, 62.89626
1023.388, 63.61514
1023.870, 64.19145
1024.352, 64.35252
1024.834, 64.03370
1025.316, 63.95982
1025.799, 64.24674
1026.281, 64.64623
1026.763, 65.13535
1027.245, 65.61045
1027.727, 65.76317
1028.209, 65.67845
1028.691, 65.63988
1029.173, 65.79942
1029.656, 65.96122
1030.138, 65.84418
1030.620, 65.81102
1031.102, 66.32446
1031.584, 67.57378
1032.066, 68.23067
1032.548, 68.21964
1033.030, 68.10553
1033.512, 68.42490
1033.995, 68.85555
1034.477, 68.97813
1034.959, 68.82652
1035.441, 68.73900
1035.923, 68.81874
1036.405, 68.93407
1036.887, 69.09023
1037.369, 69.23245
1037.851, 69.19598
1038.334, 69.04722
1038.816, 69.09438
1039.298, 69.48689
1039.780, 69.70885
1040.262, 69.25967
1040.744, 68.65109
1041.226, 68.27052
1041.708, 68.12491
1042.191, 68.16877
1042.673, 68.42947
1043.155, 68.65067
1043.637, 68.70912
1044.119, 68.63744
1044.601, 68.35175
1045.083, 67.98293
1045.565, 67.84041
1046.047, 68.39250
1046.530, 68.62554
1047.012, 68.43031
1047.494, 67.93381
1047.976, 67.21456
1048.458, 66.30113
1048.940, 65.33981
1049.422, 64.34229
1049.904, 63.45142
1050.386, 62.74380
1050.869, 62.17033
1051.351, 61.68110
1051.833, 61.29653
1052.315, 61.27306
1052.797, 61.72910
1053.279, 61.54993
1053.761, 60.24604
1054.243, 58.69072
1054.726, 57.83787
1055.208, 57.49995
1055.690, 57.51801
1056.172, 58.14054
1056.654, 58.14954
1057.136, 57.24537
1057.618, 56.12843
1058.100, 55.11752
1058.583, 54.24779
1059.065, 53.76850
1059.547, 53.59195
1060.029, 53.30890
1060.511, 52.44467
1060.993, 51.74514
1061.475, 51.71820
1061.957, 51.94282
1062.439, 51.84690
1062.922, 51.39822
1063.404, 50.88666
1063.886, 50.32501
1064.368, 49.82243
1064.850, 49.59242
1065.332, 49.38137
1065.814, 48.87921
1066.296, 48.09920
1066.778, 47.41912
1067.261, 46.74069
1067.743, 46.48322
1068.225, 46.91880
1068.707, 47.54856
1069.189, 47.37702
1069.671, 46.67932
1070.153, 46.09086
1070.635, 45.78952
1071.118, 45.53139
1071.600, 45.23686
1072.082, 44.95466
1072.564, 44.75600
1073.046, 44.61968
1073.528, 44.15277
1074.010, 43.39162
1074.492, 42.79868
1074.974, 42.75928
1075.457, 42.82819
1075.939, 42.72937
1076.421, 42.49806
1076.903, 42.18139
1077.385, 41.75064
1077.867, 41.36190
1078.349, 41.03732
1078.831, 40.69425
1079.313, 40.15680
1079.796, 39.60536
1080.278, 39.39475
1080.760, 39.47518
1081.242, 39.41338
1081.724, 38.94468
1082.206, 38.47786
1082.688, 38.07288
1083.170, 37.74528
1083.652, 37.61694
1084.135, 37.60184
1084.617, 37.31141
1085.099, 36.62028
1085.581, 36.06372
1086.063, 36.12764
1086.545, 36.27036
1087.027, 36.10735
1087.509, 35.68368
1087.992, 35.51544
1088.474, 35.60612
1088.956, 35.66409
1089.438, 35.61098
1089.920, 35.40594
1090.402, 34.83502
1090.884, 34.16185
1091.366, 33.75847
1091.849, 33.74529
1092.331, 33.81353
1092.813, 33.97946
1093.295, 34.17188
1093.777, 34.42862
1094.259, 34.63191
1094.741, 34.44946
1095.223, 34.00468
1095.705, 33.73347
1096.188, 33.91743
1096.670, 34.14645
1097.152, 34.41431
1097.634, 34.61348
1098.116, 34.56348
1098.598, 34.31704
1099.080, 34.13939
1099.562, 34.05275
1100.044, 33.91825
1100.527, 33.45407
1101.009, 33.12179
1101.491, 33.25156
1101.973, 33.69307
1102.455, 34.03254
1102.937, 34.27341
1103.419, 34.29543
1103.901, 34.02015
1104.384, 33.71629
1104.866, 33.64494
1105.348, 33.67833
1105.830, 33.70900
1106.312, 33.73206
1106.794, 33.64906
1107.276, 33.41864
1107.758, 33.25266
1108.240, 33.30288
1108.723, 33.40156
1109.205, 33.25919
1109.687, 32.96843
1110.169, 32.69558
1110.651, 32.30927
1111.133, 32.33292
1111.615, 33.05074
1112.097, 33.70885
1112.579, 33.56364
1113.062, 32.90240
1113.544, 32.82742
1114.026, 33.21533
1114.508, 33.43160
1114.990, 33.02464
1115.472, 32.56827
1115.954, 32.19094
1116.436, 31.90889
1116.919, 31.75518
1117.401, 31.72563
1117.883, 31.78533
1118.365, 31.93155
1118.847, 32.11901
1119.329, 32.45402
1119.811, 32.69029
1120.293, 32.58778
1120.776, 32.24891
1121.258, 31.98962
1121.740, 31.79918
1122.222, 31.83212
1122.704, 32.17180
1123.186, 32.51638
1123.668, 32.62597
1124.150, 32.53527
1124.632, 32.16338
1125.115, 31.45704
1125.597, 31.30078
1126.079, 31.92692
1126.561, 32.33109
1127.043, 32.03098
1127.525, 31.47365
1128.007, 31.41351
1128.489, 31.61858
1128.971, 31.68124
1129.454, 31.41673
1129.936, 31.24842
1130.418, 31.24119
1130.900, 31.28369
1131.382, 31.28855
1131.864, 31.29958
1132.346, 31.49979
1132.828, 31.82899
1133.311, 32.08863
1133.793, 32.23026
1134.275, 32.23132
1134.757, 32.02077
1135.239, 31.74894
1135.721, 31.53367
1136.203, 31.37723
1136.685, 31.29392
1137.167, 31.28152
1137.650, 31.31685
1138.132, 31.38555
1138.614, 31.49796
1139.096, 31.75049
1139.578, 32.00838
1140.060, 32.00866
1140.542, 31.74386
1141.024, 31.65058
1141.506, 31.78579
1141.989, 31.88400
1142.471, 31.53486
1142.953, 31.24263
1143.435, 31.55851
1143.917, 32.30566
1144.399, 32.52231
1144.881, 32.10338
1145.363, 31.88089
1145.846, 32.07726
1146.328, 32.34911
1146.810, 32.27164
1147.292, 32.09894
1147.774, 32.09910
1148.256, 32.31915
1148.738, 32.61149
1149.220, 33.05315
1149.703, 33.26457
1150.185, 33.06692
1150.667, 32.66720
1151.149, 32.27167
1151.631, 31.91987
1152.113, 31.66276
1152.595, 31.49695
1153.077, 31.52756
1153.559, 31.86980
1154.042, 32.13026
1154.524, 32.06094
1155.006, 31.80751
1155.488, 31.61125
1155.970, 31.50239
1156.452, 31.57175
1156.934, 32.03034
1157.416, 32.33780
1157.898, 32.45909
1158.381, 32.38898
1158.863, 32.00056
1159.345, 31.42109
1159.827, 31.16076
1160.309, 31.18092
1160.791, 31.33277
1161.273, 31.77670
1161.755, 32.03115
1162.238, 31.88086
1162.720, 31.60821
1163.202, 31.49806
1163.684, 31.53176
1164.166, 31.65096
1164.648, 31.82754
1165.130, 31.83450
1165.612, 31.31698
1166.094, 30.86298
1166.577, 30.79455
1167.059, 30.89100
1167.541, 30.78189
1168.023, 30.49423
1168.505, 30.42208
1168.987, 30.60716
1169.469, 30.75481
1169.951, 30.48693
1170.433, 30.29206
1170.916, 30.64715
1171.398, 30.46798
1171.880, 30.45392
1172.362, 30.69383
1172.844, 30.47944
1173.326, 30.83659
1173.808, 31.26232
1174.290, 31.35881
1174.773, 31.33759
1175.255, 31.38622
1175.737, 31.47370
1176.219, 31.34022
1176.701, 30.96781
1177.183, 30.75458
1177.665, 30.84751
1178.147, 30.98483
1178.630, 30.97122
1179.112, 30.84082
1179.594, 30.53573
1180.076, 30.06280
1180.558, 29.99753
1181.040, 30.38784
1181.522, 30.72362
1182.004, 30.82042
1182.486, 30.76076
1182.969, 30.50158
1183.451, 30.21054
1183.933, 30.10920
1184.415, 30.25085
1184.897, 30.37378
1185.379, 30.48842
1185.861, 30.51079
1186.343, 30.30709
1186.825, 30.11183
1187.308, 30.30660
1187.790, 30.66017
1188.272, 30.78364
1188.754, 30.48324
1189.236, 30.41047
1189.718, 30.60734
1190.200, 30.81954
1190.682, 30.91179
1191.165, 30.90373
1191.647, 30.74573
1192.129, 30.52397
1192.611, 30.41852
1193.093, 30.54626
1193.575, 30.58736
1194.057, 30.51368
1194.539, 30.45193
1195.021, 30.63160
1195.504, 30.79183
1195.986, 30.42214
1196.468, 29.73310
1196.950, 29.36728
1197.432, 29.55937
1197.914, 29.81577
1198.396, 30.16433
1198.878, 30.36582
1199.360, 30.02548
1199.843, 29.50077
1200.325, 29.32014
1200.807, 29.42992
1201.289, 29.53669
1201.771, 29.60240
1202.253, 29.63696
1202.735, 29.64760
1203.217, 29.60819
1203.700, 29.45312
1204.182, 29.25224
1204.664, 29.08574
1205.146, 28.96457
1205.628, 28.91006
1206.110, 28.91342
1206.592, 29.03345
1207.074, 29.34612
1207.557, 29.58243
1208.039, 29.17855
1208.521, 28.60910
1209.003, 28.70611
1209.485, 29.47689
1209.967, 29.80451
1210.449, 29.29969
1210.931, 28.99117
1211.413, 29.13662
1211.896, 29.43393
1212.378, 29.50909
1212.860, 29.45643
1213.342, 29.43058
1213.824, 29.44835
1214.306, 29.29131
1214.788, 28.80393
1215.270, 28.54664
1215.752, 28.74027
1216.235, 29.03974
1216.717, 28.93086
1217.199, 28.61758
1217.681, 28.36648
1218.163, 28.21216
1218.645, 28.20434
1219.127, 28.39419
1219.609, 28.56291
1220.092, 28.64725
1220.574, 28.66755
1221.056, 28.57563
1221.538, 28.47855
1222.020, 28.56866
1222.502, 28.91445
1222.984, 29.10509
1223.466, 29.11327
1223.948, 28.99356
1224.431, 28.72679
1224.913, 28.42074
1225.395, 28.19369
1225.877, 28.04728
1226.359, 27.97676
1226.841, 27.98384
1227.323, 28.14452
1227.805, 28.54586
1228.287, 28.71834
1228.770, 28.36040
1229.252, 27.87225
1229.734, 27.72205
1230.216, 27.82845
1230.698, 28.17039
1231.180, 28.86947
1231.662, 29.00453
1232.144, 28.45987
1232.627, 28.04192
1233.109, 28.23198
1233.591, 28.53267
1234.073, 28.27826
1234.555, 27.80063
1235.037, 27.57340
1235.519, 27.70032
1236.001, 27.65267
1236.484, 27.39800
1236.966, 27.27862
1237.448, 27.58770
1237.930, 27.92033
1238.412, 27.75337
1238.894, 27.41792
1239.376, 27.40404
1239.858, 27.79168
1240.340, 28.02539
1240.823, 28.10314
1241.305, 27.96577
1241.787, 27.37213
1242.269, 26.84773
1242.751, 26.89121
1243.233, 27.24729
1243.715, 27.61417
1244.197, 27.98996
1244.679, 28.31652
1245.162, 28.59177
1245.644, 28.58800
1246.126, 27.87764
1246.608, 27.25545
1247.090, 27.36722
1247.572, 27.79095
1248.054, 28.02811
1248.536, 28.07549
1249.019, 28.12481
1249.501, 28.17727
1249.983, 28.24624
1250.465, 28.46947
1250.947, 28.54613
1251.429, 28.14797
1251.911, 27.66228
1252.393, 27.44878
1252.875, 27.49405
1253.358, 27.60498
1253.840, 27.75499
1254.322, 27.77544
1254.804, 27.31043
1255.286, 27.05618
1255.768, 27.49914
1256.250, 27.98678
1256.732, 27.86597
1257.214, 27.28276
1257.697, 27.19775
1258.179, 27.50687
1258.661, 27.71395
1259.143, 27.52674
1259.625, 27.30224
1260.107, 27.05483
1260.589, 26.88004
1261.071, 26.83067
1261.554, 26.92515
1262.036, 27.38882
1262.518, 28.06200
1263.000, 28.42023
1263.482, 27.93426
1263.964, 27.63321
1264.446, 27.66088
1264.928, 27.75443
1265.411, 27.72093
1265.893, 27.58849
1266.375, 27.27314
1266.857, 26.91165
1267.339, 26.87845
1267.821, 27.64156
1268.303, 28.06277
1268.785, 28.09420
1269.267, 27.87955
1269.750, 27.32350
1270.232, 26.75033
1270.714, 26.60320
1271.196, 26.76333
1271.678, 26.96358
1272.160, 27.18632
1272.642, 27.41331
1273.124, 27.65394
1273.606, 27.80027
1274.089, 27.74467
1274.571, 27.58854
1275.053, 27.36934
1275.535, 27.13341
1276.017, 26.93612
1276.499, 26.75895
1276.981, 26.81021
1277.463, 27.08944
1277.946, 27.30469
1278.428, 27.25491
1278.910, 27.09194
1279.392, 26.80414
1279.874, 26.52647
1280.356, 26.43209
1280.838, 26.51720
1281.320, 26.53048
1281.802, 26.47803
1282.285, 26.44602
1282.767, 26.45535
1283.249, 26.53045
1283.731, 26.73691
1284.213, 26.94971
1284.695, 27.06056
1285.177, 27.08281
1285.659, 27.10067
1286.141, 27.09386
1286.624, 26.97791
1287.106, 26.54378
1287.588, 26.26647
1288.070, 26.25005
1288.552, 26.29958
1289.034, 26.25492
1289.516, 26.16164
1289.998, 26.09579
1290.481, 26.06991
1290.963, 26.11696
1291.445, 26.41238
1291.927, 26.43943
1292.409, 26.12097
1292.891, 25.83108
1293.373, 25.95358
1293.855, 26.16299
1294.338, 25.98148
1294.820, 25.60200
1295.302, 25.40392
1295.784, 25.45833
1296.266, 25.50799
1296.748, 25.55720
1297.230, 25.52146
1297.712, 25.24797
1298.194, 24.98710
1298.677, 24.94000
1299.159, 25.02350
1299.641, 25.14044
1300.123, 25.29313
1300.605, 25.34425
1301.087, 25.30581
1301.569, 25.29001
1302.051, 25.40121
1302.533, 25.46347
1303.016, 25.41505
##END=



