##NAMES=Conichalcite
##RRUFFID=R040167
##IDEAL CHEMISTRY=CaCu^2+^As^5+^O_4_(OH)
##LOCALITY=Ojuela mine, Mapimi, Durango, Mexico
##OWNER=RRUFF
##SOURCE=University of Arizona Mineral Museum
##DESCRIPTION=Green druse
##STATUS=The identification of this mineral is confirmed by single-crystal X-ray diffraction and chemical analysis.
##URL=rruff.info/R040167
##MEASURED CHEMISTRY=Ca_1.00_(Cu_0.70_Zn_0.30_)_Î£=1_(As_1.00_O_4_)(OH) ; OH estimated by difference and stoichiometry
63.64752, 28.12685
64.12964, 26.44633
64.61176, 24.61848
65.09387, 23.52919
65.57599, 23.19640
66.05811, 22.86426
66.54022, 21.79210
67.02234, 21.38582
67.50446, 22.82968
67.98657, 25.62225
68.46869, 28.11171
68.95081, 28.29912
69.43292, 24.92519
69.91504, 23.24533
70.39716, 24.30540
70.87927, 25.93722
71.36139, 26.92297
71.84351, 26.95151
72.32562, 26.31535
72.80774, 25.43605
73.28986, 24.27111
73.77197, 22.86300
74.25409, 20.15069
74.73621, 17.55560
75.21832, 17.09232
75.70044, 19.69115
76.18256, 23.86901
76.66467, 25.96465
77.14679, 25.21796
77.62891, 24.63169
78.11102, 25.49721
78.59314, 27.31545
79.07526, 28.72727
79.55737, 29.24911
80.03949, 28.80659
80.52161, 27.40291
81.00372, 24.09101
81.48584, 21.26378
81.96796, 21.03691
82.45007, 23.43425
82.93219, 26.06499
83.41431, 28.43280
83.89642, 30.03519
84.37854, 29.96034
84.86066, 27.14958
85.34277, 23.41072
85.82489, 21.49670
86.30701, 21.84541
86.78912, 22.87023
87.27124, 24.38797
87.75336, 25.95836
88.23547, 26.95693
88.71759, 26.90024
89.19971, 26.08743
89.68182, 25.65546
90.16394, 25.76566
90.64606, 26.10298
91.12817, 26.87999
91.61029, 27.77605
92.09241, 28.21474
92.57452, 27.63787
93.05664, 26.02962
93.53876, 24.92314
94.02087, 24.96725
94.50299, 24.95243
94.98511, 24.17822
95.46722, 22.92868
95.94934, 22.12752
96.43146, 22.88105
96.91357, 25.89182
97.39569, 27.18777
97.87781, 24.71501
98.35992, 22.52374
98.84204, 23.31475
99.32416, 27.06984
99.80627, 31.48552
100.2884, 33.68923
100.7705, 32.67717
101.2526, 31.66254
101.7347, 30.64991
102.2169, 29.63505
102.6990, 28.44470
103.1811, 27.06401
103.6632, 25.92488
104.1453, 25.81918
104.6274, 27.17169
105.1096, 28.49627
105.5917, 29.80851
106.0738, 30.97138
106.5559, 31.79360
107.0380, 32.20982
107.5201, 32.27798
108.0023, 31.82970
108.4844, 30.44826
108.9665, 29.96139
109.4486, 31.18855
109.9307, 33.81223
110.4128, 37.24900
110.8950, 41.95034
111.3771, 46.53582
111.8592, 48.50238
112.3413, 46.96200
112.8234, 45.66884
113.3055, 47.39308
113.7877, 51.81046
114.2698, 55.79511
114.7519, 57.15640
115.2340, 58.27314
115.7161, 62.20421
116.1982, 69.89512
116.6804, 78.52802
117.1625, 85.86658
117.6446, 92.04287
118.1267, 96.07458
118.6088, 94.80479
119.0909, 92.37476
119.5731, 92.11430
120.0552, 95.03078
120.5373, 100.0528
121.0194, 105.3653
121.5015, 110.3065
121.9836, 117.5698
122.4658, 129.0867
122.9479, 142.6686
123.4300, 156.5722
123.9121, 170.3065
124.3942, 183.6085
124.8763, 195.6332
125.3585, 205.8508
125.8406, 215.7690
126.3227, 224.7688
126.8048, 234.0382
127.2869, 245.2031
127.7690, 259.1697
128.2512, 275.2767
128.7333, 290.0860
129.2154, 298.8222
129.6975, 312.5529
130.1796, 338.0223
130.6617, 368.5343
131.1439, 394.4971
131.6260, 409.7591
132.1081, 415.8508
132.5902, 424.7436
133.0723, 438.1498
133.5544, 452.8595
134.0366, 472.2544
134.5187, 492.3185
135.0008, 506.1003
135.4829, 508.3433
135.9650, 499.6732
136.4471, 492.9262
136.9293, 487.5253
137.4114, 484.3894
137.8935, 485.5998
138.3756, 489.5052
138.8577, 492.4302
139.3398, 491.5769
139.8220, 486.8824
140.3041, 482.7701
140.7862, 479.2497
141.2683, 476.1427
141.7504, 470.8441
142.2325, 465.1377
142.7147, 464.9081
143.1968, 475.1889
143.6789, 496.4494
144.1610, 518.5930
144.6431, 540.2540
145.1252, 563.6946
145.6074, 590.8219
146.0895, 621.3320
146.5716, 653.2822
147.0537, 686.2765
147.5358, 719.8582
148.0179, 747.3994
148.5001, 765.3332
148.9822, 779.9949
149.4643, 796.3915
149.9464, 814.7545
150.4285, 831.5656
150.9106, 844.9955
151.3928, 854.2769
151.8749, 857.4911
152.3570, 851.6924
152.8391, 841.4523
153.3212, 830.3907
153.8033, 818.7631
154.2855, 806.3069
154.7676, 791.6770
155.2497, 775.7161
155.7318, 762.2642
156.2139, 750.7508
156.6960, 742.6218
157.1782, 739.8545
157.6603, 742.7810
158.1424, 749.4286
158.6245, 760.5522
159.1066, 774.4808
159.5887, 787.2173
160.0709, 797.3878
160.5530, 805.9158
161.0351, 814.2327
161.5172, 822.6494
161.9993, 829.6444
162.4814, 832.5256
162.9636, 833.1997
163.4457, 835.2259
163.9278, 841.5662
164.4099, 849.5129
164.8920, 853.7298
165.3741, 853.1078
165.8563, 851.8105
166.3384, 854.1068
166.8205, 857.4498
167.3026, 857.0933
167.7847, 848.9673
168.2668, 836.6004
168.7490, 827.7391
169.2311, 823.3785
169.7132, 820.3209
170.1953, 815.2941
170.6774, 810.4611
171.1595, 809.9984
171.6417, 819.2233
172.1238, 832.6312
172.6059, 834.8835
173.0880, 819.4775
173.5701, 805.8689
174.0522, 804.1194
174.5344, 809.1086
175.0165, 813.8170
175.4986, 814.9445
175.9807, 813.5353
176.4628, 812.2050
176.9449, 810.2693
177.4271, 809.8237
177.9092, 814.3007
178.3913, 819.9274
178.8734, 821.0597
179.3555, 813.6915
179.8376, 801.2119
180.3197, 793.4968
180.8019, 791.7990
181.2840, 793.1697
181.7661, 798.9963
182.2482, 806.0819
182.7303, 810.2304
183.2124, 809.0387
183.6946, 804.2337
184.1767, 800.8494
184.6588, 800.2885
185.1409, 798.6990
185.6230, 792.8338
186.1051, 786.3140
186.5873, 783.8358
187.0694, 788.1190
187.5515, 796.1668
188.0336, 799.6949
188.5157, 794.8507
188.9978, 792.0463
189.4800, 794.6354
189.9621, 799.5982
190.4442, 803.3225
190.9263, 803.9768
191.4084, 803.9566
191.8905, 809.5697
192.3727, 825.1146
192.8548, 838.8404
193.3369, 847.6940
193.8190, 854.6275
194.3011, 861.5598
194.7832, 869.1854
195.2654, 879.0840
195.7475, 895.3732
196.2296, 923.6678
196.7117, 948.0676
197.1938, 966.6669
197.6759, 981.2263
198.1581, 991.3399
198.6402, 997.1795
199.1223, 1002.861
199.6044, 1016.858
200.0865, 1045.222
200.5686, 1070.033
201.0508, 1086.151
201.5329, 1100.998
202.0150, 1120.681
202.4971, 1146.786
202.9792, 1175.333
203.4613, 1199.176
203.9435, 1213.314
204.4256, 1234.200
204.9077, 1265.306
205.3898, 1300.363
205.8719, 1336.861
206.3540, 1373.587
206.8362, 1408.602
207.3183, 1439.698
207.8004, 1466.681
208.2825, 1489.135
208.7646, 1505.274
209.2467, 1518.973
209.7289, 1533.816
210.2110, 1549.318
210.6931, 1561.114
211.1752, 1564.027
211.6573, 1557.013
212.1395, 1544.384
212.6216, 1521.808
213.1037, 1497.836
213.5858, 1477.957
214.0679, 1461.340
214.5500, 1442.600
215.0322, 1415.872
215.5143, 1379.868
215.9964, 1344.772
216.4785, 1304.793
216.9606, 1270.865
217.4427, 1252.402
217.9249, 1244.640
218.4070, 1233.632
218.8891, 1205.927
219.3712, 1160.734
219.8533, 1127.726
220.3354, 1116.213
220.8176, 1108.636
221.2997, 1103.965
221.7818, 1099.665
222.2639, 1091.878
222.7460, 1077.590
223.2281, 1057.346
223.7103, 1038.232
224.1924, 1016.570
224.6745, 1000.520
225.1566, 997.1037
225.6387, 999.2643
226.1208, 996.8046
226.6030, 983.7686
227.0851, 961.9553
227.5672, 938.5165
228.0493, 908.8344
228.5314, 883.9525
229.0135, 866.7483
229.4957, 854.6647
229.9778, 845.5991
230.4599, 838.7401
230.9420, 832.6746
231.4241, 823.4937
231.9062, 808.0657
232.3884, 794.9932
232.8705, 787.2560
233.3526, 780.9929
233.8347, 772.0403
234.3168, 759.1932
234.7989, 745.5922
235.2811, 736.6306
235.7632, 733.1912
236.2453, 732.5886
236.7274, 737.8581
237.2095, 743.2471
237.6916, 744.2017
238.1738, 740.1846
238.6559, 734.9100
239.1380, 733.9824
239.6201, 740.0063
240.1022, 740.5559
240.5843, 728.7867
241.0665, 716.7108
241.5486, 709.9392
242.0307, 708.6288
242.5128, 709.7778
242.9949, 711.5602
243.4770, 714.3242
243.9592, 713.3551
244.4413, 702.4656
244.9234, 693.6301
245.4055, 692.3427
245.8876, 696.9365
246.3697, 702.5259
246.8519, 705.8688
247.3340, 707.1666
247.8161, 708.1541
248.2982, 709.6258
248.7803, 709.5573
249.2624, 705.3306
249.7446, 699.5646
250.2267, 696.6100
250.7088, 699.2333
251.1909, 705.6741
251.6730, 711.4099
252.1551, 717.8392
252.6373, 720.4622
253.1194, 713.9519
253.6015, 704.9312
254.0836, 701.3187
254.5657, 706.7921
255.0478, 715.4804
255.5300, 716.9348
256.0121, 708.4016
256.4942, 703.1138
256.9763, 708.2437
257.4584, 716.1633
257.9406, 722.1088
258.4227, 725.1132
258.9048, 725.5137
259.3869, 722.0086
259.8690, 714.2718
260.3511, 710.4609
260.8333, 716.0966
261.3154, 722.6545
261.7975, 723.0845
262.2796, 717.5434
262.7617, 712.5422
263.2438, 712.4588
263.7260, 716.8538
264.2081, 724.4412
264.6902, 740.1312
265.1723, 750.8270
265.6544, 743.6282
266.1365, 723.3696
266.6187, 706.0322
267.1008, 699.2617
267.5829, 700.4704
268.0650, 705.7271
268.5471, 716.6345
269.0292, 726.0099
269.5114, 727.1238
269.9935, 723.4058
270.4756, 720.2157
270.9577, 718.1043
271.4398, 717.7565
271.9219, 720.9821
272.4041, 727.9179
272.8862, 734.0167
273.3683, 737.5399
273.8504, 738.3627
274.3325, 736.3676
274.8146, 729.5662
275.2968, 723.5386
275.7789, 722.5067
276.2610, 725.5438
276.7431, 729.0194
277.2252, 732.0075
277.7073, 734.3914
278.1895, 736.4413
278.6716, 738.7598
279.1537, 738.5386
279.6358, 732.8757
280.1179, 724.4207
280.6000, 716.6880
281.0822, 709.9525
281.5643, 707.0095
282.0464, 713.6532
282.5285, 731.0721
283.0106, 742.3585
283.4927, 742.1843
283.9749, 737.2435
284.4570, 732.4206
284.9391, 728.4293
285.4212, 725.7667
285.9033, 724.8782
286.3854, 725.8549
286.8676, 727.9958
287.3497, 735.0337
287.8318, 739.5510
288.3139, 735.9797
288.7960, 726.7629
289.2781, 718.9827
289.7603, 716.9764
290.2424, 718.6818
290.7245, 715.3565
291.2066, 698.6174
291.6887, 687.5026
292.1708, 689.1621
292.6530, 696.4738
293.1351, 700.2643
293.6172, 697.3541
294.0993, 691.4984
294.5814, 689.3455
295.0635, 693.0144
295.5457, 696.7004
296.0278, 703.3683
296.5099, 707.9421
296.9920, 704.8412
297.4741, 694.6911
297.9562, 684.2219
298.4384, 680.8566
298.9205, 686.1356
299.4026, 687.7578
299.8847, 679.4451
300.3668, 673.8375
300.8489, 676.3981
301.3310, 685.1150
301.8131, 695.3079
302.2953, 704.1354
302.7774, 711.7091
303.2595, 718.7677
303.7416, 726.9660
304.2237, 731.8745
304.7058, 730.2477
305.1880, 726.2760
305.6701, 723.9451
306.1522, 724.6818
306.6343, 728.4214
307.1164, 736.5182
307.5985, 751.3369
308.0807, 761.5396
308.5628, 757.4296
309.0449, 753.4388
309.5270, 758.8427
310.0091, 774.1943
310.4912, 792.6701
310.9734, 810.2631
311.4555, 826.7131
311.9376, 837.9564
312.4197, 839.7582
312.9018, 841.9297
313.3839, 851.6766
313.8661, 866.6190
314.3482, 880.3821
314.8303, 886.7498
315.3124, 891.6585
315.7945, 907.5399
316.2766, 936.4388
316.7588, 964.0372
317.2409, 979.1785
317.7230, 989.1346
318.2051, 1006.688
318.6872, 1037.744
319.1693, 1068.612
319.6515, 1086.484
320.1336, 1094.408
320.6157, 1106.657
321.0978, 1128.608
321.5799, 1155.896
322.0620, 1183.734
322.5442, 1213.396
323.0263, 1236.759
323.5084, 1247.214
323.9905, 1252.005
324.4726, 1261.349
324.9547, 1276.971
325.4369, 1292.168
325.9190, 1300.103
326.4011, 1299.865
326.8832, 1301.788
327.3653, 1311.921
327.8474, 1318.647
328.3296, 1313.854
328.8117, 1299.880
329.2938, 1284.448
329.7759, 1272.055
330.2580, 1261.613
330.7401, 1248.567
331.2223, 1228.541
331.7044, 1211.254
332.1865, 1198.600
332.6686, 1188.714
333.1507, 1179.836
333.6328, 1171.376
334.1150, 1163.360
334.5971, 1155.888
335.0792, 1149.471
335.5613, 1142.268
336.0434, 1133.523
336.5255, 1124.771
337.0077, 1116.434
337.4898, 1108.783
337.9719, 1102.317
338.4540, 1097.915
338.9361, 1095.153
339.4182, 1090.539
339.9004, 1086.359
340.3825, 1076.440
340.8646, 1054.629
341.3467, 1028.314
341.8288, 1007.656
342.3109, 997.1727
342.7931, 989.7986
343.2752, 973.0144
343.7573, 944.5672
344.2394, 922.8312
344.7215, 917.1527
345.2036, 915.9814
345.6858, 909.6634
346.1679, 897.8318
346.6500, 886.7993
347.1321, 882.4680
347.6142, 881.9567
348.0963, 876.5538
348.5785, 864.0963
349.0606, 850.7907
349.5427, 841.6168
350.0248, 835.5115
350.5069, 829.5956
350.9890, 823.5815
351.4712, 817.3789
351.9533, 809.9252
352.4354, 801.7824
352.9175, 796.2106
353.3996, 795.4503
353.8817, 797.3958
354.3639, 796.4940
354.8460, 792.3533
355.3281, 787.0421
355.8102, 777.8620
356.2923, 769.1654
356.7744, 767.0386
357.2566, 772.5190
357.7387, 781.3032
358.2208, 789.3850
358.7029, 797.8088
359.1850, 798.8328
359.6671, 787.4797
360.1493, 774.8740
360.6314, 764.5262
361.1135, 756.8903
361.5956, 752.4460
362.0777, 751.8155
362.5598, 753.3242
363.0420, 750.3158
363.5241, 736.3340
364.0062, 728.4570
364.4883, 731.9897
364.9704, 739.6329
365.4525, 746.6918
365.9347, 751.6127
366.4168, 753.3089
366.8989, 748.7944
367.3810, 737.4141
367.8631, 730.3323
368.3452, 729.9415
368.8274, 731.8017
369.3095, 734.5357
369.7916, 737.5787
370.2737, 739.6107
370.7558, 739.1952
371.2379, 738.0918
371.7201, 739.5866
372.2022, 743.9503
372.6843, 748.2422
373.1664, 750.9321
373.6485, 753.0308
374.1306, 756.7043
374.6128, 763.1523
375.0949, 767.0641
375.5770, 761.8135
376.0591, 752.7030
376.5412, 751.6104
377.0233, 761.6781
377.5055, 774.2354
377.9876, 781.1414
378.4697, 781.7184
378.9518, 779.1009
379.4339, 769.3488
379.9160, 759.9719
380.3982, 754.0944
380.8803, 752.2390
381.3624, 756.3870
381.8445, 768.4335
382.3266, 784.2733
382.8087, 791.5289
383.2909, 783.0167
383.7730, 774.5582
384.2551, 765.2233
384.7372, 756.9244
385.2193, 750.2318
385.7014, 745.7878
386.1836, 745.5320
386.6657, 753.2148
387.1478, 769.6025
387.6299, 778.5166
388.1120, 775.0751
388.5941, 769.2939
389.0763, 763.1660
389.5584, 757.2464
390.0405, 751.7147
390.5226, 746.0276
391.0047, 742.4318
391.4868, 746.0705
391.9690, 757.9825
392.4511, 767.1985
392.9332, 771.2888
393.4153, 770.8233
393.8974, 764.4321
394.3795, 752.3007
394.8617, 744.0471
395.3438, 748.8458
395.8259, 758.9955
396.3080, 760.1490
396.7901, 750.5653
397.2722, 741.4486
397.7544, 741.1898
398.2365, 748.0831
398.7186, 751.8529
399.2007, 749.6797
399.6828, 747.5865
400.1649, 748.7321
400.6471, 751.2932
401.1292, 751.0087
401.6113, 746.4484
402.0934, 742.5824
402.5755, 747.0326
403.0576, 762.8470
403.5398, 778.1332
404.0219, 796.1663
404.5040, 810.9034
404.9861, 817.1598
405.4682, 817.4918
405.9503, 818.6522
406.4325, 825.3051
406.9146, 835.0707
407.3967, 838.4055
407.8788, 829.2505
408.3609, 826.2704
408.8430, 836.4615
409.3252, 851.4341
409.8073, 866.0742
410.2894, 879.2047
410.7715, 889.8213
411.2536, 893.1351
411.7357, 891.9879
412.2179, 902.7758
412.7000, 931.0679
413.1821, 960.3176
413.6642, 975.9529
414.1463, 984.5801
414.6284, 998.9818
415.1106, 1023.872
415.5927, 1052.412
416.0748, 1080.142
416.5569, 1107.522
417.0390, 1136.269
417.5211, 1167.247
418.0033, 1198.401
418.4854, 1226.269
418.9675, 1249.095
419.4496, 1274.529
419.9317, 1303.156
420.4138, 1334.017
420.8960, 1366.775
421.3781, 1401.323
421.8602, 1437.781
422.3423, 1476.625
422.8244, 1517.134
423.3065, 1555.790
423.7887, 1588.750
424.2708, 1626.253
424.7529, 1674.808
425.2350, 1724.292
425.7171, 1764.646
426.1992, 1795.522
426.6814, 1825.859
427.1635, 1865.514
427.6456, 1913.694
428.1277, 1956.967
428.6098, 1993.770
429.0919, 2028.496
429.5741, 2068.947
430.0562, 2107.677
430.5383, 2131.915
431.0204, 2135.691
431.5025, 2130.894
431.9846, 2128.822
432.4668, 2126.603
432.9489, 2113.952
433.4310, 2088.075
433.9131, 2051.573
434.3952, 2005.886
434.8773, 1950.433
435.3595, 1892.269
435.8416, 1825.081
436.3237, 1761.485
436.8058, 1715.313
437.2879, 1679.114
437.7701, 1631.354
438.2522, 1560.221
438.7343, 1476.331
439.2164, 1406.027
439.6985, 1346.043
440.1806, 1307.663
440.6628, 1314.777
441.1449, 1320.883
441.6270, 1290.955
442.1091, 1229.871
442.5912, 1167.668
443.0733, 1125.620
443.5555, 1100.805
444.0376, 1083.173
444.5197, 1074.711
445.0018, 1067.843
445.4839, 1058.151
445.9660, 1049.486
446.4482, 1047.643
446.9303, 1054.602
447.4124, 1058.279
447.8945, 1045.842
448.3766, 1025.933
448.8587, 1017.058
449.3409, 1021.991
449.8230, 1032.869
450.3051, 1044.575
450.7872, 1057.130
451.2693, 1070.170
451.7514, 1084.654
452.2336, 1098.464
452.7157, 1108.010
453.1978, 1117.474
453.6799, 1134.146
454.1620, 1159.634
454.6441, 1186.779
455.1263, 1205.397
455.6084, 1212.691
456.0905, 1227.202
456.5726, 1255.431
457.0547, 1284.427
457.5368, 1309.628
458.0190, 1333.204
458.5011, 1358.866
458.9832, 1388.228
459.4653, 1420.179
459.9474, 1454.811
460.4295, 1492.084
460.9117, 1525.327
461.3938, 1550.338
461.8759, 1574.967
462.3580, 1609.607
462.8401, 1651.536
463.3222, 1685.929
463.8044, 1708.227
464.2865, 1721.923
464.7686, 1729.054
465.2507, 1730.000
465.7328, 1725.609
466.2149, 1716.053
466.6971, 1702.157
467.1792, 1686.327
467.6613, 1673.862
468.1434, 1646.507
468.6255, 1587.858
469.1076, 1528.778
469.5898, 1494.174
470.0719, 1476.799
470.5540, 1451.649
471.0361, 1401.420
471.5182, 1336.421
472.0003, 1286.076
472.4825, 1255.238
472.9646, 1226.754
473.4467, 1199.965
473.9288, 1172.476
474.4109, 1141.400
474.8930, 1107.297
475.3752, 1075.201
475.8573, 1046.124
476.3394, 1021.657
476.8215, 1006.850
477.3036, 1001.919
477.7857, 994.8793
478.2679, 978.2346
478.7500, 956.9846
479.2321, 943.5459
479.7142, 940.4412
480.1963, 937.5209
480.6784, 933.4547
481.1606, 928.3621
481.6427, 922.2917
482.1248, 915.2720
482.6069, 907.0565
483.0890, 896.9845
483.5711, 886.0154
484.0533, 879.5394
484.5354, 881.0228
485.0175, 881.3967
485.4996, 878.8521
485.9817, 875.1912
486.4638, 872.2072
486.9460, 869.8813
487.4281, 866.3633
487.9102, 858.8253
488.3923, 849.0410
488.8744, 842.4171
489.3565, 839.2174
489.8387, 838.2495
490.3208, 841.4250
490.8029, 845.1102
491.2850, 841.4381
491.7671, 827.1366
492.2492, 815.0515
492.7314, 811.7170
493.2135, 811.6958
493.6956, 808.6508
494.1777, 802.1981
494.6598, 796.1514
495.1419, 793.8929
495.6241, 794.2173
496.1062, 788.9390
496.5883, 769.7283
497.0704, 756.7437
497.5525, 755.4892
498.0346, 758.4425
498.5168, 760.2475
498.9989, 759.8676
499.4810, 758.2385
499.9631, 755.9456
500.4452, 753.0238
500.9273, 749.5156
501.4095, 745.2582
501.8916, 741.0323
502.3737, 736.6880
502.8558, 732.8846
503.3379, 730.4412
503.8200, 729.3506
504.3022, 729.7736
504.7843, 734.2181
505.2664, 738.8128
505.7485, 738.5016
506.2306, 733.3501
506.7127, 727.0259
507.1949, 721.8461
507.6770, 717.5870
508.1591, 713.3065
508.6412, 708.2831
509.1233, 704.3300
509.6054, 702.3487
510.0876, 700.7925
510.5697, 698.8395
511.0518, 696.2719
511.5339, 692.6783
512.0161, 686.1703
512.4982, 679.4400
512.9803, 682.1185
513.4624, 696.5672
513.9445, 705.8777
514.4266, 702.8024
514.9088, 692.6777
515.3909, 682.1174
515.8730, 670.9937
516.3551, 660.8387
516.8372, 650.0363
517.3193, 641.8950
517.8015, 640.2042
518.2836, 644.1755
518.7657, 651.3446
519.2478, 661.1657
519.7299, 669.8570
520.2120, 667.4789
520.6942, 643.2838
521.1763, 628.5977
521.6584, 628.3328
522.1405, 631.7768
522.6226, 635.8341
523.1047, 638.7870
523.5869, 637.5630
524.0690, 629.2792
524.5511, 618.8766
525.0332, 614.5394
525.5153, 616.2377
525.9974, 619.7432
526.4796, 625.9727
526.9617, 630.5852
527.4438, 626.1274
527.9259, 614.0372
528.4080, 608.0142
528.8901, 617.3472
529.3723, 625.9561
529.8544, 621.7742
530.3365, 610.4807
530.8186, 604.2798
531.3007, 607.1852
531.7828, 612.3539
532.2650, 609.8397
532.7471, 597.8560
533.2292, 589.2842
533.7113, 587.1859
534.1934, 585.0696
534.6755, 579.8751
535.1577, 573.9152
535.6398, 570.3593
536.1219, 570.1621
536.6040, 571.8557
537.0861, 575.1805
537.5682, 579.3330
538.0504, 581.8864
538.5325, 582.6198
539.0146, 581.0288
539.4967, 575.6414
539.9788, 567.6795
540.4609, 563.3198
540.9431, 565.5099
541.4252, 566.7802
541.9073, 564.4112
542.3894, 561.2375
542.8715, 560.5037
543.3536, 562.0724
543.8358, 562.9189
544.3179, 560.3215
544.8000, 555.3623
545.2821, 552.8660
545.7642, 553.4798
546.2463, 554.7908
546.7285, 556.5249
547.2106, 558.5219
547.6926, 560.9171
548.1747, 563.6158
548.6569, 565.7825
549.1390, 566.7286
549.6211, 567.1697
550.1032, 568.1464
550.5853, 569.3902
551.0674, 569.5320
551.5496, 567.9180
552.0317, 565.4153
552.5138, 562.9559
552.9959, 558.8862
553.4780, 560.7291
553.9601, 575.7468
554.4423, 588.0568
554.9244, 590.0834
555.4065, 585.5747
555.8886, 580.2285
556.3707, 576.0514
556.8528, 573.3458
557.3350, 573.7448
557.8171, 576.5649
558.2992, 575.4119
558.7813, 568.1855
559.2634, 561.8777
559.7455, 562.2346
560.2277, 566.9294
560.7098, 568.2431
561.1919, 564.4778
561.6740, 560.2159
562.1561, 555.8002
562.6382, 552.2556
563.1204, 550.8517
563.6025, 551.5344
564.0846, 553.1708
564.5667, 554.9257
565.0488, 557.0413
565.5309, 561.2740
566.0131, 570.6002
566.4952, 574.4876
566.9773, 563.7297
567.4594, 552.9212
567.9415, 552.6780
568.4236, 561.1923
568.9058, 568.2454
569.3879, 567.9911
569.8700, 565.8173
570.3521, 567.4226
570.8342, 571.7661
571.3163, 575.4882
571.7985, 577.5978
572.2806, 578.4941
572.7627, 578.6924
573.2448, 578.2731
573.7269, 576.3342
574.2090, 572.0534
574.6912, 567.2878
575.1733, 560.6003
575.6554, 554.6631
576.1375, 553.3049
576.6196, 556.9739
577.1017, 560.9650
577.5839, 560.4193
578.0660, 556.7887
578.5481, 554.7574
579.0302, 554.4000
579.5123, 555.7685
579.9944, 559.7697
580.4766, 564.7477
580.9587, 567.4999
581.4408, 567.9661
581.9229, 567.2046
582.4050, 564.6355
582.8871, 561.5272
583.3693, 557.7476
583.8514, 554.2311
584.3335, 553.3351
584.8156, 556.1892
585.2977, 559.6497
585.7798, 557.9156
586.2620, 550.3229
586.7441, 545.2427
587.2262, 542.7757
587.7083, 543.3215
588.1904, 550.4355
588.6725, 559.8169
589.1547, 563.9651
589.6368, 560.2294
590.1189, 555.6946
590.6010, 553.6642
591.0831, 552.8039
591.5652, 551.7726
592.0474, 550.2858
592.5295, 547.7056
593.0116, 543.2861
593.4937, 538.4438
593.9758, 537.8663
594.4579, 543.8214
594.9401, 548.6514
595.4222, 549.9215
595.9043, 551.5772
596.3864, 556.8332
596.8685, 564.0116
597.3506, 568.9468
597.8328, 570.5316
598.3149, 568.5156
598.7970, 559.9672
599.2791, 547.8553
599.7612, 539.4805
600.2433, 536.2195
600.7255, 537.4406
601.2076, 543.7798
601.6897, 554.0456
602.1718, 558.4329
602.6539, 550.0887
603.1360, 545.1282
603.6182, 547.2182
604.1003, 551.1154
604.5824, 553.3219
605.0645, 553.6216
605.5466, 553.1948
606.0287, 552.5489
606.5109, 551.7803
606.9930, 550.9705
607.4751, 550.1386
607.9572, 549.4003
608.4393, 548.7291
608.9214, 548.3782
609.4036, 548.7055
609.8857, 549.7151
610.3678, 550.3761
610.8499, 550.4989
611.3320, 550.5474
611.8141, 550.3712
612.2963, 550.3332
612.7784, 550.5640
613.2605, 551.2291
613.7426, 552.8834
614.2247, 556.4456
614.7068, 560.8802
615.1890, 563.7532
615.6711, 565.0493
616.1532, 564.8625
616.6353, 562.5092
617.1174, 559.9553
617.5995, 559.6953
618.0817, 561.7866
618.5638, 562.9511
619.0459, 563.1126
619.5280, 562.2755
620.0101, 560.0336
620.4922, 556.9896
620.9744, 553.3019
621.4565, 549.3434
621.9386, 546.5848
622.4207, 546.6255
622.9028, 548.8043
623.3849, 550.3821
623.8671, 551.0886
624.3492, 553.1118
624.8313, 558.9966
625.3134, 564.3291
625.7955, 561.9064
626.2776, 552.2633
626.7598, 546.9941
627.2419, 552.2220
627.7240, 557.2874
628.2061, 556.1120
628.6882, 551.6612
629.1703, 548.0832
629.6525, 546.5193
630.1346, 546.3813
630.6167, 547.8109
631.0988, 550.0613
631.5809, 548.2443
632.0630, 540.8539
632.5452, 535.2748
633.0273, 534.1794
633.5094, 535.4285
633.9915, 536.8511
634.4736, 538.4391
634.9557, 540.2023
635.4379, 543.6198
635.9200, 545.6430
636.4021, 543.0596
636.8842, 538.5108
637.3663, 536.0173
637.8484, 536.5560
638.3306, 538.7852
638.8127, 541.8396
639.2948, 545.3411
639.7769, 546.4983
640.2590, 544.3511
640.7411, 543.3007
641.2233, 545.0089
641.7054, 547.9539
642.1875, 551.3470
642.6696, 555.0105
643.1517, 556.3074
643.6339, 553.4875
644.1160, 549.4589
644.5981, 543.8204
645.0802, 538.7910
645.5623, 537.9685
646.0444, 541.9064
646.5266, 548.4564
647.0087, 556.5598
647.4908, 565.0352
647.9729, 567.6449
648.4550, 563.0024
648.9371, 557.7523
649.4193, 551.9763
649.9014, 547.9338
650.3835, 549.2833
650.8656, 555.0060
651.3477, 557.7531
651.8298, 552.9393
652.3120, 548.7216
652.7941, 549.2203
653.2762, 552.4446
653.7583, 556.3693
654.2404, 560.2534
654.7225, 563.5253
655.2047, 566.1791
655.6868, 567.2565
656.1689, 561.7664
656.6510, 547.6895
657.1331, 540.0571
657.6152, 545.2080
658.0974, 553.0481
658.5795, 554.3292
659.0616, 550.4514
659.5437, 547.4388
660.0258, 546.7801
660.5079, 545.8763
660.9901, 542.2271
661.4722, 538.9309
661.9543, 539.2335
662.4364, 543.2770
662.9185, 550.2090
663.4006, 560.4990
663.8828, 570.3383
664.3649, 570.1351
664.8470, 559.5273
665.3291, 550.7457
665.8112, 545.8136
666.2933, 542.4576
666.7755, 538.3687
667.2576, 534.5229
667.7397, 534.8139
668.2218, 541.8497
668.7039, 548.7174
669.1860, 555.6287
669.6682, 560.6202
670.1503, 561.4438
670.6324, 559.0277
671.1145, 555.8705
671.5966, 553.0671
672.0787, 551.0092
672.5609, 549.9377
673.0430, 549.9833
673.5251, 553.0095
674.0072, 560.0488
674.4893, 564.7471
674.9714, 562.1232
675.4536, 555.5484
675.9357, 553.9816
676.4178, 560.6000
676.8999, 565.2975
677.3820, 566.7982
677.8641, 567.3721
678.3463, 569.3306
678.8284, 570.8004
679.3105, 566.8726
679.7926, 556.0148
680.2747, 547.6424
680.7568, 555.0112
681.2390, 570.3967
681.7211, 574.3618
682.2032, 566.6283
682.6853, 557.2584
683.1674, 549.9432
683.6495, 545.0859
684.1317, 543.3735
684.6138, 545.1152
685.0959, 548.4229
685.5780, 557.3999
686.0601, 563.0295
686.5422, 560.5339
687.0244, 555.2168
687.5065, 552.4478
687.9886, 552.8871
688.4707, 554.1357
688.9528, 555.5673
689.4349, 556.5530
689.9171, 556.4000
690.3992, 555.2033
690.8813, 552.0604
691.3634, 546.8801
691.8455, 544.7004
692.3276, 551.6039
692.8098, 565.9823
693.2919, 573.1647
693.7740, 570.1431
694.2561, 566.5184
694.7382, 561.8085
695.2203, 559.0818
695.7025, 562.1310
696.1846, 569.1849
696.6667, 573.5956
697.1488, 573.2885
697.6309, 570.6656
698.1130, 563.2537
698.5952, 556.3732
699.0773, 558.9374
699.5594, 569.5760
700.0415, 578.0392
700.5236, 577.7569
701.0057, 573.1565
701.4879, 573.3598
701.9700, 578.5812
702.4521, 584.7606
702.9342, 593.4026
703.4163, 598.0509
703.8984, 592.8174
704.3806, 581.7604
704.8627, 574.3576
705.3448, 570.6818
705.8269, 570.0615
706.3090, 575.4228
706.7911, 580.7982
707.2733, 582.4910
707.7554, 581.7703
708.2375, 581.3162
708.7196, 581.8871
709.2017, 581.6024
709.6838, 576.2081
710.1660, 569.1986
710.6481, 571.2147
711.1302, 581.7676
711.6123, 590.2028
712.0944, 592.6811
712.5765, 591.8168
713.0587, 590.2995
713.5408, 587.9832
714.0229, 588.2145
714.5050, 594.5570
714.9871, 598.5508
715.4692, 596.7431
715.9514, 593.8144
716.4335, 593.7815
716.9156, 596.2880
717.3977, 598.0900
717.8798, 596.4161
718.3619, 595.7327
718.8441, 601.4448
719.3262, 609.8464
719.8083, 614.9078
720.2904, 615.8064
720.7725, 613.5906
721.2546, 608.3942
721.7368, 602.9252
722.2189, 604.8973
722.7010, 615.9404
723.1831, 623.4354
723.6652, 627.1263
724.1473, 625.6896
724.6295, 614.0568
725.1116, 598.4453
725.5937, 591.7841
726.0758, 596.5656
726.5579, 601.8887
727.0400, 604.3309
727.5222, 608.2603
728.0043, 620.7007
728.4864, 634.7733
728.9685, 637.4402
729.4506, 626.2208
729.9327, 614.2195
730.4149, 613.2030
730.8970, 619.8787
731.3791, 628.9186
731.8612, 639.6853
732.3433, 645.4657
732.8254, 643.8570
733.3076, 639.7910
733.7897, 638.1978
734.2718, 638.8696
734.7539, 638.7584
735.2360, 634.2463
735.7181, 635.1277
736.2003, 649.3828
736.6824, 662.7833
737.1645, 665.5036
737.6466, 660.3113
738.1287, 655.1097
738.6108, 650.2534
739.0930, 649.9728
739.5751, 661.1007
740.0572, 675.0999
740.5393, 680.8190
741.0214, 679.8889
741.5035, 680.9576
741.9857, 688.0706
742.4678, 697.4989
742.9499, 703.8067
743.4320, 707.2781
743.9141, 712.4662
744.3962, 719.9627
744.8784, 726.1754
745.3605, 729.5307
745.8426, 731.3004
746.3247, 733.0018
746.8068, 734.5983
747.2889, 736.5596
747.7711, 735.3970
748.2532, 739.0787
748.7353, 754.9069
749.2174, 772.3463
749.6995, 780.3378
750.1816, 780.4783
750.6638, 783.5443
751.1459, 795.8832
751.6280, 810.4474
752.1101, 821.0137
752.5922, 829.1005
753.0743, 837.4526
753.5565, 846.3162
754.0386, 854.0930
754.5207, 859.5539
755.0028, 865.1838
755.4849, 877.2579
755.9670, 897.0701
756.4492, 910.4750
756.9313, 914.8871
757.4134, 918.7773
757.8955, 925.2741
758.3776, 933.7170
758.8597, 944.0942
759.3419, 956.8348
759.8240, 966.5826
760.3061, 971.5658
760.7882, 975.1049
761.2703, 978.8020
761.7524, 981.4531
762.2346, 979.6127
762.7167, 974.7279
763.1988, 974.4019
763.6809, 984.2901
764.1630, 998.1722
764.6451, 1010.599
765.1273, 1021.148
765.6094, 1027.322
766.0915, 1029.463
766.5736, 1034.469
767.0557, 1047.132
767.5378, 1062.726
768.0200, 1070.689
768.5021, 1069.819
768.9842, 1067.874
769.4663, 1062.928
769.9484, 1061.312
770.4305, 1067.344
770.9127, 1077.189
771.3948, 1084.790
771.8769, 1089.676
772.3590, 1097.995
772.8411, 1117.227
773.3232, 1131.802
773.8054, 1130.304
774.2875, 1124.716
774.7696, 1127.234
775.2517, 1138.785
775.7338, 1154.632
776.2159, 1174.400
776.6981, 1192.671
777.1802, 1200.208
777.6623, 1202.373
778.1444, 1212.157
778.6265, 1230.381
779.1086, 1249.892
779.5908, 1266.563
780.0729, 1282.473
780.5550, 1301.382
781.0371, 1323.411
781.5192, 1346.446
782.0013, 1369.176
782.4835, 1396.612
782.9656, 1431.008
783.4477, 1470.609
783.9298, 1515.706
784.4119, 1566.554
784.8940, 1609.925
785.3762, 1634.033
785.8583, 1664.972
786.3404, 1710.454
786.8225, 1764.953
787.3046, 1828.655
787.7867, 1897.400
788.2689, 1959.566
788.7510, 2007.643
789.2331, 2057.572
789.7152, 2125.359
790.1973, 2203.014
790.6794, 2279.882
791.1616, 2354.970
791.6437, 2428.930
792.1258, 2502.683
792.6079, 2578.884
793.0900, 2665.735
793.5721, 2760.208
794.0543, 2828.542
794.5364, 2866.539
795.0185, 2907.990
795.5006, 2967.590
795.9827, 3023.131
796.4648, 3053.209
796.9470, 3059.261
797.4291, 3055.815
797.9112, 3038.836
798.3933, 3017.887
798.8754, 2987.941
799.3575, 2959.504
799.8397, 2943.391
800.3218, 2931.772
800.8039, 2909.153
801.2860, 2871.295
801.7681, 2828.351
802.2502, 2778.787
802.7324, 2732.177
803.2145, 2701.267
803.6966, 2678.594
804.1787, 2645.731
804.6608, 2600.492
805.1429, 2562.574
805.6251, 2550.636
806.1072, 2554.140
806.5893, 2548.965
807.0714, 2537.269
807.5535, 2533.949
808.0356, 2541.196
808.5178, 2563.800
808.9999, 2606.586
809.4820, 2663.588
809.9641, 2718.589
810.4462, 2769.029
810.9283, 2827.062
811.4105, 2889.214
811.8926, 2964.995
812.3747, 3058.561
812.8568, 3167.407
813.3389, 3289.593
813.8210, 3424.770
814.3032, 3565.932
814.7853, 3706.484
815.2674, 3859.398
815.7495, 4026.372
816.2316, 4209.410
816.7137, 4408.980
817.1959, 4626.842
817.6780, 4867.365
818.1601, 5132.590
818.6422, 5421.226
819.1243, 5737.104
819.6064, 6076.777
820.0886, 6428.243
820.5707, 6798.023
821.0528, 7201.991
821.5349, 7649.634
822.0170, 8134.642
822.4991, 8647.962
822.9813, 9199.187
823.4634, 9842.522
823.9455, 10586.71
824.4276, 11349.52
824.9097, 12128.40
825.3918, 12875.67
825.8740, 13576.63
826.3561, 14203.35
826.8382, 14658.01
827.3203, 14967.85
827.8024, 15042.14
828.2845, 14846.89
828.7667, 14450.84
829.2488, 13836.60
829.7309, 13064.93
830.2130, 12177.20
830.6951, 11177.75
831.1772, 10197.78
831.6594, 9255.075
832.1415, 8354.094
832.6236, 7458.599
833.1057, 6629.422
833.5878, 5926.627
834.0699, 5342.515
834.5521, 4838.879
835.0342, 4401.972
835.5163, 4020.327
835.9984, 3689.664
836.4805, 3401.837
836.9626, 3148.931
837.4448, 2925.821
837.9269, 2716.899
838.4090, 2517.677
838.8911, 2339.787
839.3732, 2198.558
839.8553, 2087.718
840.3375, 1984.165
840.8196, 1887.969
841.3017, 1794.831
841.7838, 1702.989
842.2659, 1618.916
842.7480, 1547.536
843.2302, 1485.421
843.7123, 1422.391
844.1944, 1354.063
844.6765, 1299.537
845.1586, 1265.084
845.6407, 1235.147
846.1229, 1204.558
846.6050, 1176.008
847.0871, 1154.089
847.5692, 1137.990
848.0513, 1117.620
848.5334, 1085.389
849.0156, 1057.011
849.4977, 1037.390
849.9798, 1022.605
850.4619, 1012.650
850.9440, 1004.217
851.4261, 990.0428
851.9083, 967.2383
852.3904, 948.0654
852.8725, 941.8818
853.3546, 942.0510
853.8367, 945.3644
854.3188, 948.3231
854.8010, 942.8090
855.2831, 928.6186
855.7652, 915.5313
856.2473, 911.5790
856.7294, 910.3216
857.2115, 897.7135
857.6937, 877.4814
858.1758, 867.1495
858.6579, 868.1414
859.1400, 871.6629
859.6221, 874.1939
860.1042, 873.3525
860.5864, 865.0691
861.0685, 849.6719
861.5506, 834.6700
862.0327, 819.2482
862.5148, 807.5129
862.9969, 800.9305
863.4791, 797.1509
863.9612, 795.9186
864.4433, 795.6046
864.9254, 790.3291
865.4075, 778.6882
865.8896, 764.9056
866.3718, 740.6144
866.8539, 724.1461
867.3360, 728.9968
867.8181, 740.4467
868.3002, 742.1609
868.7823, 733.4352
869.2645, 723.0704
869.7466, 708.2667
870.2287, 698.7933
870.7108, 704.6453
871.1929, 712.2684
871.6750, 708.0897
872.1572, 695.8640
872.6393, 686.7418
873.1214, 684.5128
873.6035, 683.1728
874.0856, 677.8184
874.5677, 671.5232
875.0499, 666.9196
875.5320, 664.2893
876.0141, 665.8654
876.4962, 670.6770
876.9783, 671.4900
877.4604, 662.8004
877.9426, 650.1424
878.4247, 641.0283
878.9068, 635.6153
879.3889, 635.1534
879.8710, 639.4388
880.3531, 646.3677
880.8353, 655.3150
881.3174, 662.6549
881.7995, 663.9118
882.2816, 659.7757
882.7637, 653.7428
883.2458, 645.1588
883.7280, 640.3162
884.2101, 641.5750
884.6922, 642.0012
885.1743, 635.8317
885.6564, 627.5028
886.1385, 627.4646
886.6207, 638.7836
887.1028, 644.4382
887.5849, 641.5657
888.0670, 637.5435
888.5491, 631.3220
889.0313, 627.3323
889.5134, 631.9770
889.9955, 642.6199
890.4776, 647.0394
890.9597, 640.5501
891.4418, 634.8301
891.9240, 630.9568
892.4061, 628.7491
892.8882, 629.2578
893.3703, 630.7288
893.8524, 630.5934
894.3345, 628.6699
894.8167, 627.4626
895.2988, 629.5399
895.7809, 630.6783
896.2630, 626.1288
896.7451, 621.4116
897.2272, 623.8688
897.7094, 631.0304
898.1915, 634.7822
898.6736, 632.1906
899.1557, 629.9365
899.6378, 634.5518
900.1199, 641.4960
900.6021, 646.4052
901.0842, 648.8890
901.5663, 647.7589
902.0484, 643.3618
902.5305, 637.8599
903.0126, 632.2978
903.4948, 628.2885
903.9769, 627.4009
904.4590, 630.1379
904.9411, 642.5233
905.4232, 662.0858
905.9053, 667.6772
906.3875, 652.5626
906.8696, 634.1974
907.3517, 629.4932
907.8338, 634.2339
908.3159, 633.6868
908.7980, 627.7648
909.2802, 630.1435
909.7623, 643.7934
910.2444, 653.6702
910.7265, 652.0290
911.2086, 644.1589
911.6907, 636.6080
912.1729, 629.4705
912.6550, 629.1994
913.1371, 638.0251
913.6192, 646.7310
914.1013, 654.0276
914.5834, 660.4904
915.0656, 666.9584
915.5477, 672.6364
916.0298, 676.1639
916.5119, 678.7123
916.9940, 674.4159
917.4761, 651.9227
917.9583, 638.6980
918.4404, 649.6199
918.9225, 664.7259
919.4046, 668.8518
919.8867, 663.9974
920.3688, 657.9962
920.8510, 648.8904
921.3331, 644.3001
921.8152, 650.7199
922.2973, 655.6315
922.7794, 651.4846
923.2615, 643.8541
923.7437, 638.7552
924.2258, 636.7886
924.7079, 636.9824
925.1900, 643.8023
925.6721, 644.8538
926.1542, 629.1232
926.6364, 611.2474
927.1185, 602.7179
927.6006, 600.6636
928.0827, 598.9521
928.5648, 596.1667
929.0469, 593.8242
929.5291, 595.1718
930.0112, 594.4958
930.4933, 584.3480
930.9754, 571.8481
931.4575, 564.0613
931.9396, 562.3165
932.4218, 570.4520
932.9039, 589.4625
933.3860, 601.3979
933.8681, 581.5508
934.3502, 553.4061
934.8323, 548.2977
935.3145, 557.8718
935.7966, 567.3419
936.2787, 573.2281
936.7608, 573.8085
937.2429, 567.8691
937.7250, 560.9015
938.2072, 561.5164
938.6893, 565.3006
939.1714, 560.0140
939.6535, 548.4147
940.1356, 542.3018
940.6177, 544.0543
941.0999, 548.8016
941.5820, 553.5477
942.0641, 556.9582
942.5462, 555.4288
943.0283, 550.2343
943.5104, 548.8400
943.9926, 551.1232
944.4747, 550.2322
944.9568, 543.9273
945.4389, 539.5652
945.9210, 544.4702
946.4031, 554.5433
946.8853, 557.7769
947.3674, 554.2142
947.8495, 553.1925
948.3316, 555.7634
948.8137, 554.6319
949.2958, 546.0826
949.7780, 537.5126
950.2601, 537.8041
950.7422, 544.8540
951.2243, 547.8076
951.7064, 546.6373
952.1885, 539.9316
952.6707, 524.3749
953.1528, 516.2568
953.6349, 525.8145
954.1170, 540.8698
954.5991, 544.4321
955.0812, 537.2094
955.5634, 536.0024
956.0455, 544.2417
956.5276, 547.4492
957.0097, 540.9676
957.4918, 535.4766
957.9739, 537.6446
958.4561, 543.1936
958.9382, 545.1509
959.4203, 543.2532
959.9024, 541.5139
960.3845, 539.4617
960.8666, 538.5777
961.3488, 540.0377
961.8309, 541.3566
962.3130, 540.1412
962.7951, 538.2285
963.2772, 539.7601
963.7593, 545.9565
964.2415, 549.0629
964.7236, 547.8721
965.2057, 545.3425
965.6878, 539.9999
966.1699, 535.3683
966.6520, 532.9072
967.1342, 532.9695
967.6163, 537.3804
968.0984, 548.5856
968.5805, 554.3884
969.0626, 549.6986
969.5447, 545.6115
970.0269, 545.4052
970.5090, 546.3376
970.9911, 546.4145
971.4732, 545.9193
971.9553, 546.0909
972.4374, 547.8782
972.9196, 547.3239
973.4017, 539.7015
973.8838, 534.9886
974.3659, 537.6533
974.8480, 543.9049
975.3301, 554.0894
975.8123, 564.7721
976.2944, 564.7082
976.7765, 546.2794
977.2586, 536.7778
977.7407, 552.3625
978.2228, 565.8431
978.7050, 563.0306
979.1871, 554.1973
979.6692, 548.6245
980.1513, 546.5936
980.6334, 545.9130
981.1155, 547.2661
981.5977, 546.3428
982.0798, 539.1937
982.5619, 532.5878
983.0440, 529.3062
983.5261, 528.8259
984.0082, 532.7688
984.4904, 538.9578
984.9725, 539.1254
985.4546, 527.4628
985.9367, 520.5832
986.4188, 531.1524
986.9009, 540.6233
987.3831, 535.7997
987.8652, 525.4540
988.3473, 518.7545
988.8294, 516.8953
989.3115, 519.5045
989.7936, 529.4033
990.2758, 535.0234
990.7579, 527.9650
991.2400, 519.0729
991.7221, 513.1042
992.2042, 510.8046
992.6863, 514.5942
993.1685, 522.6746
993.6506, 527.5639
994.1327, 525.9633
994.6148, 523.3385
995.0969, 521.7241
995.5790, 520.3193
996.0612, 516.9062
996.5433, 514.4673
997.0254, 518.0457
997.5075, 526.5514
997.9896, 533.5707
998.4717, 537.8254
998.9539, 537.5988
999.4360, 525.5702
999.9181, 515.7581
1000.400, 522.4261
1000.882, 534.2972
1001.364, 534.8090
1001.847, 525.4858
1002.329, 521.8996
1002.811, 531.9056
1003.293, 540.2738
1003.775, 540.0251
1004.257, 535.5458
1004.739, 526.0255
1005.221, 516.5356
1005.703, 513.4706
1006.186, 516.4487
1006.668, 521.2030
1007.150, 527.5283
1007.632, 531.3321
1008.114, 528.7147
1008.596, 525.2144
1009.078, 524.6896
1009.560, 525.1705
1010.043, 523.3870
1010.525, 520.0582
1011.007, 519.2479
1011.489, 523.0110
1011.971, 526.3204
1012.453, 525.8405
1012.935, 525.6115
1013.417, 529.8790
1013.899, 534.4293
1014.382, 533.8909
1014.864, 529.1445
1015.346, 524.4842
1015.828, 520.5524
1016.310, 519.1247
1016.792, 523.8371
1017.274, 527.7465
1017.756, 524.3078
1018.239, 520.3441
1018.721, 525.0175
1019.203, 535.2944
1019.685, 540.4866
1020.167, 537.5168
1020.649, 532.5983
1021.131, 525.0020
1021.613, 519.2976
1022.095, 517.9990
1022.578, 519.1667
1023.060, 521.3691
1023.542, 524.4220
1024.024, 529.0310
1024.506, 536.0709
1024.988, 539.6302
1025.470, 533.4812
1025.952, 529.7267
1026.435, 538.0212
1026.917, 545.7287
1027.399, 532.3904
1027.881, 545.4769
1028.363, 552.4091
1028.845, 553.5180
1029.327, 531.3615
1029.809, 539.2474
1030.292, 535.0916
1030.774, 530.4441
1031.256, 542.5583
1031.738, 523.7858
1032.220, 535.6342
1032.702, 535.2592
1033.184, 540.1065
1033.666, 544.9075
1034.148, 536.2853
1034.630, 528.3365
1035.113, 521.2842
1035.595, 517.6743
1036.077, 521.7659
1036.559, 528.6755
1037.041, 530.8720
1037.523, 528.0997
1038.005, 526.3613
1038.487, 524.9312
1038.970, 525.8901
1039.452, 534.3832
1039.934, 538.5838
1040.416, 528.1755
1040.898, 515.2592
1041.380, 516.3170
1041.862, 529.5521
1042.344, 534.6656
1042.826, 526.9559
1043.309, 521.2840
1043.791, 517.8784
1044.273, 517.2180
1044.755, 521.1998
1045.237, 525.5014
1045.719, 525.1512
1046.201, 521.5334
1046.683, 521.3987
1047.166, 526.6100
1047.648, 528.4561
1048.130, 524.7966
1048.612, 524.4525
1049.094, 531.6986
1049.576, 538.6788
1050.058, 538.1200
1050.540, 533.2078
1051.022, 532.3564
1051.505, 535.7090
1051.987, 542.7303
1052.469, 554.6558
1052.951, 562.3428
1053.433, 563.6910
1053.915, 558.9849
1054.397, 546.4762
1054.879, 534.4744
1055.361, 541.0140
1055.844, 563.5369
1056.326, 569.9824
1056.808, 560.4640
1057.290, 553.8026
1057.772, 553.2350
1058.254, 553.2227
1058.736, 551.0457
1059.218, 545.7795
1059.701, 534.4253
1060.183, 520.5075
1060.665, 518.1764
1061.147, 524.7281
1061.629, 524.9420
1062.111, 517.7803
1062.593, 510.0420
1063.075, 504.4460
1063.557, 500.1052
1064.040, 495.7258
1064.522, 493.1162
1065.004, 498.3537
1065.486, 507.0102
1065.968, 507.3069
1066.450, 500.6667
1066.932, 494.9065
1067.414, 492.1205
1067.896, 489.5269
1068.379, 484.5376
1068.861, 481.6692
1069.343, 489.3840
1069.825, 499.8304
1070.307, 500.4449
1070.789, 495.8377
1071.271, 497.1367
1071.753, 504.3385
1072.236, 508.3647
1072.718, 504.8019
1073.200, 499.9329
1073.682, 498.5730
1074.164, 497.5392
1074.646, 492.1497
1075.128, 486.9783
1075.610, 489.5037
1076.093, 496.9482
1076.575, 500.3120
1077.057, 497.1057
1077.539, 493.9682
1078.021, 494.0912
1078.503, 494.4961
1078.985, 492.2066
1079.467, 491.2857
1079.949, 498.0122
1080.432, 506.7685
1080.914, 507.5039
1081.396, 499.4910
1081.878, 492.1791
1082.360, 485.4966
1082.842, 482.2827
1083.324, 487.2042
1083.806, 490.6221
1084.288, 484.5360
1084.771, 477.5371
1085.253, 482.4064
1085.735, 495.1870
1086.217, 495.4337
1086.699, 474.3841
1087.181, 464.4394
1087.663, 470.6096
1088.145, 478.1024
1088.628, 484.5242
1089.110, 488.7614
1089.592, 490.1310
1090.074, 488.4925
1090.556, 482.4145
1091.038, 471.4662
1091.520, 469.5680
1092.002, 478.4237
1092.484, 485.8530
1092.967, 490.1307
1093.449, 491.0403
1093.931, 488.0907
1094.413, 483.7570
1094.895, 480.8457
1095.377, 479.5320
1095.859, 481.5376
1096.341, 486.1475
1096.823, 487.5210
1097.306, 485.4377
1097.788, 482.4003
1098.270, 479.3559
1098.752, 477.2079
1099.234, 476.4388
1099.716, 478.0135
1100.198, 486.3951
1100.680, 496.5953
1101.163, 497.4882
1101.645, 491.6950
1102.127, 486.0654
1102.609, 482.0606
1103.091, 478.7923
1103.573, 475.8795
1104.055, 473.6506
1104.537, 471.0860
1105.020, 470.7271
1105.502, 479.0557
1105.984, 487.8011
1106.466, 483.5067
1106.948, 472.2797
1107.430, 470.2010
1107.912, 480.2099
1108.394, 489.0971
1108.876, 491.4507
1109.359, 491.7894
1109.841, 492.8191
1110.323, 491.1793
1110.805, 480.7182
1111.287, 469.2529
1111.769, 467.9373
1112.251, 474.9171
1112.733, 477.3076
1113.215, 469.9003
1113.698, 468.2101
1114.180, 477.2586
1114.662, 484.7569
1115.144, 488.0712
1115.626, 488.9511
1116.108, 487.8431
1116.590, 485.8343
1117.072, 485.1803
1117.555, 485.8934
1118.037, 483.8220
1118.519, 477.7338
1119.001, 476.6197
1119.483, 482.5149
1119.965, 486.1922
1120.447, 483.1702
1120.929, 481.3649
1121.411, 490.3640
1121.894, 503.0986
1122.376, 498.4101
1122.858, 480.4639
1123.340, 471.3509
1123.822, 470.4168
1124.304, 467.5593
1124.786, 461.1104
1125.268, 457.9987
1125.750, 462.3418
1126.233, 468.3738
1126.715, 469.1767
1127.197, 468.1637
1127.679, 470.3223
1128.161, 473.7874
1128.643, 476.6658
1129.125, 477.8336
1129.607, 473.5708
1130.090, 463.9838
1130.572, 459.8792
1131.054, 470.9427
1131.536, 481.1353
1132.018, 481.2928
1132.500, 478.6880
1132.982, 477.3310
1133.464, 476.7874
1133.947, 474.7216
1134.429, 472.5822
1134.911, 477.4527
1135.393, 495.2422
1135.875, 502.5820
1136.357, 486.6025
1136.839, 476.5870
1137.321, 482.6409
1137.803, 487.9366
1138.286, 481.0680
1138.768, 470.2984
1139.250, 468.4476
1139.732, 474.2041
1140.214, 474.0040
1140.696, 466.2448
1141.178, 466.1407
1141.660, 475.5593
1142.142, 482.8210
1142.625, 484.2333
1143.107, 481.3948
1143.589, 474.9504
1144.071, 468.0004
1144.553, 466.4472
1145.035, 468.5868
1145.517, 468.4131
1145.999, 467.5846
1146.482, 473.9171
1146.964, 485.4255
1147.446, 489.4731
1147.928, 481.7599
1148.410, 472.6588
1148.892, 469.7443
1149.374, 468.6968
1149.856, 463.9558
1150.339, 460.9170
1150.821, 468.7316
1151.303, 479.6333
1151.785, 481.0458
1152.267, 473.6708
1152.749, 467.4967
1153.231, 464.7993
1153.713, 463.9537
1154.195, 466.5569
1154.677, 468.2002
1155.160, 465.6799
1155.642, 463.9124
1156.124, 466.4036
1156.606, 471.1018
1157.088, 475.9841
1157.570, 480.6148
1158.052, 478.6163
1158.534, 466.7031
1159.017, 464.6791
1159.499, 475.8543
1159.981, 482.5005
1160.463, 478.9062
1160.945, 472.9982
1161.427, 470.1698
1161.909, 470.2587
1162.391, 474.9348
1162.874, 481.5276
1163.356, 478.6917
1163.838, 470.4127
1164.320, 470.9457
1164.802, 479.3065
1165.284, 485.0429
1165.766, 484.7362
1166.248, 480.9490
1166.730, 473.8010
1167.213, 467.8555
1167.695, 467.2516
1168.177, 469.1309
1168.659, 473.7863
1169.141, 477.3229
1169.623, 472.2100
1170.105, 462.3778
1170.587, 460.9134
1171.069, 471.4512
1171.552, 478.9223
1172.034, 478.7430
1172.516, 478.5481
1172.998, 481.5140
1173.480, 481.6859
1173.962, 475.0509
1174.444, 466.3417
1174.926, 459.3390
1175.409, 455.1501
1175.891, 459.2366
1176.373, 472.6700
1176.855, 478.1814
1177.337, 475.5828
1177.819, 474.1760
1178.301, 475.7018
1178.783, 479.0175
1179.266, 483.5887
1179.748, 485.2560
1180.230, 477.3723
1180.712, 468.1540
1181.194, 473.3435
1181.676, 484.9472
1182.158, 491.9102
1182.640, 492.9924
1183.122, 483.4511
1183.604, 467.3471
1184.087, 462.9854
1184.569, 479.2661
1185.051, 490.1252
1185.533, 476.2571
1186.015, 464.5689
1186.497, 469.6706
1186.979, 477.3628
1187.461, 476.0782
1187.944, 472.3943
1188.426, 479.0493
1188.908, 492.8486
1189.390, 492.5374
1189.872, 470.9298
1190.354, 461.4633
1190.836, 466.9638
1191.318, 472.0090
1191.801, 473.1207
1192.283, 474.9008
1192.765, 480.3806
1193.247, 483.9992
1193.729, 477.2148
1194.211, 465.8834
1194.693, 465.3066
1195.175, 471.4174
1195.657, 473.8678
1196.140, 473.0008
1196.622, 471.4929
1197.104, 470.3876
1197.586, 471.1190
1198.068, 474.5142
1198.550, 477.7240
1199.032, 478.6748
1199.514, 479.3053
1199.996, 481.4106
1200.479, 482.9326
1200.961, 482.3302
1201.443, 480.0452
1201.925, 475.8659
1202.407, 470.4380
1202.889, 467.9428
1203.371, 468.9571
1203.853, 471.3859
1204.336, 476.0975
1204.818, 479.6584
1205.300, 481.7726
1205.782, 480.3652
1206.264, 473.7871
1206.746, 466.8055
1207.228, 465.6700
1207.710, 467.1080
1208.193, 461.3596
1208.675, 451.9655
1209.157, 449.3275
1209.639, 452.2972
1210.121, 456.0460
1210.603, 459.9679
1211.085, 467.0136
1211.567, 478.5049
1212.049, 486.7921
1212.531, 484.4922
1213.014, 481.4368
1213.496, 485.6659
1213.978, 487.8249
1214.460, 476.4159
1214.942, 462.8124
1215.424, 462.8977
1215.906, 473.1687
1216.388, 478.8237
1216.871, 478.8950
1217.353, 480.5000
1217.835, 484.5274
1218.317, 486.3668
1218.799, 485.3473
1219.281, 482.2447
1219.763, 477.3165
1220.245, 470.6867
1220.728, 461.8834
1221.210, 453.7198
1221.692, 450.4134
1222.174, 451.8581
1222.656, 461.4339
1223.138, 473.8259
1223.620, 477.6696
1224.102, 474.2987
1224.584, 471.2287
1225.067, 470.5501
1225.549, 470.7920
1226.031, 471.5148
1226.513, 472.7173
1226.995, 475.7220
1227.477, 477.4944
1227.959, 476.4704
1228.441, 473.7809
1228.923, 468.0677
1229.406, 463.4103
1229.888, 468.0343
1230.370, 480.6070
1230.852, 485.9161
1231.334, 483.7265
1231.816, 479.1098
1232.298, 472.6289
1232.780, 469.6573
1233.263, 471.2736
1233.745, 473.2083
1234.227, 473.0806
1234.709, 471.3121
##END=



