##NAMES=Conichalcite
##RRUFFID=R070447
##IDEAL CHEMISTRY=CaCu^2+^As^5+^O_4_(OH)
##LOCALITY=Copper Creek District, Mammoth, Arizona, USA
##OWNER=RRUFF
##SOURCE=Bob Jenkins
##DESCRIPTION=Green prismatic crystals scattered over quartz
##STATUS=The identification of this mineral is confirmed by single-crystal X-ray diffraction and chemical analysis.
##URL=rruff.info/R070447
##MEASURED CHEMISTRY=Ca_1.00_(Cu_0.99_Fe_0.01_)(As_0.94_V_0.03_S_0.02_Al_0.01_)_Î£=1_O_4_(OH); OH estimated by charge balance
139.8317, 710.4299
140.3138, 725.2040
140.7960, 729.2477
141.2781, 738.7595
141.7602, 762.1228
142.2423, 797.6841
142.7244, 838.5756
143.2065, 880.8976
143.6887, 924.3699
144.1708, 963.1637
144.6529, 990.2930
145.1350, 1018.993
145.6171, 1056.261
146.0992, 1102.210
146.5814, 1154.091
147.0635, 1210.569
147.5456, 1271.973
148.0277, 1334.037
148.5098, 1399.177
148.9919, 1463.141
149.4741, 1523.551
149.9562, 1580.548
150.4383, 1633.699
150.9204, 1682.025
151.4025, 1725.648
151.8846, 1769.977
152.3668, 1821.478
152.8489, 1870.013
153.3310, 1903.602
153.8131, 1920.882
154.2952, 1936.883
154.7773, 1963.554
155.2595, 1999.240
155.7416, 2036.303
156.2237, 2081.742
156.7058, 2123.998
157.1879, 2146.480
157.6700, 2145.998
158.1522, 2142.060
158.6343, 2150.193
159.1164, 2166.444
159.5985, 2181.836
160.0806, 2192.109
160.5627, 2200.991
161.0449, 2215.545
161.5270, 2238.158
162.0091, 2257.761
162.4912, 2266.765
162.9733, 2267.229
163.4554, 2260.898
163.9376, 2243.864
164.4197, 2221.588
164.9018, 2202.519
165.3839, 2185.060
165.8660, 2175.731
166.3481, 2183.130
166.8303, 2200.616
167.3124, 2217.936
167.7945, 2234.263
168.2766, 2246.821
168.7587, 2247.154
169.2408, 2228.634
169.7230, 2212.989
170.2051, 2213.543
170.6872, 2223.911
171.1693, 2234.713
171.6514, 2241.765
172.1335, 2246.469
172.6157, 2252.358
173.0978, 2259.948
173.5799, 2267.741
174.0620, 2271.524
174.5441, 2275.659
175.0262, 2287.375
175.5084, 2313.155
175.9905, 2347.014
176.4726, 2372.878
176.9547, 2388.923
177.4368, 2399.535
177.9189, 2401.023
178.4010, 2400.219
178.8832, 2406.708
179.3653, 2426.231
179.8474, 2455.208
180.3295, 2484.733
180.8116, 2520.301
181.2937, 2545.674
181.7759, 2554.745
182.2580, 2553.067
182.7401, 2546.485
183.2222, 2536.920
183.7043, 2525.713
184.1864, 2516.194
184.6686, 2506.645
185.1507, 2502.508
185.6328, 2503.093
186.1149, 2509.469
186.5970, 2525.986
187.0791, 2557.105
187.5613, 2592.589
188.0434, 2603.017
188.5255, 2567.771
189.0076, 2542.534
189.4897, 2538.672
189.9718, 2549.388
190.4540, 2569.477
190.9361, 2597.204
191.4182, 2629.500
191.9003, 2659.279
192.3824, 2687.303
192.8645, 2711.081
193.3467, 2725.528
193.8288, 2738.539
194.3109, 2758.877
194.7930, 2790.133
195.2751, 2826.681
195.7572, 2855.854
196.2394, 2873.471
196.7215, 2891.591
197.2036, 2911.000
197.6857, 2931.942
198.1678, 2953.725
198.6499, 2976.287
199.1321, 3001.547
199.6142, 3033.603
200.0963, 3076.098
200.5784, 3118.650
201.0605, 3163.167
201.5426, 3205.811
202.0248, 3243.674
202.5069, 3276.012
202.9890, 3302.799
203.4711, 3322.851
203.9532, 3330.856
204.4353, 3344.092
204.9175, 3376.591
205.3996, 3404.898
205.8817, 3412.787
206.3638, 3397.259
206.8459, 3366.782
207.3280, 3331.865
207.8102, 3292.656
208.2923, 3248.765
208.7744, 3197.061
209.2565, 3143.692
209.7386, 3091.788
210.2207, 3042.147
210.7029, 2993.779
211.1850, 2945.250
211.6671, 2895.907
212.1492, 2849.950
212.6313, 2804.259
213.1134, 2764.435
213.5956, 2736.982
214.0777, 2719.709
214.5598, 2703.336
215.0419, 2677.701
215.5240, 2640.428
216.0061, 2610.296
216.4883, 2587.441
216.9704, 2571.301
217.4525, 2566.423
217.9346, 2569.020
218.4167, 2569.538
218.8988, 2559.133
219.3810, 2537.365
219.8631, 2520.686
220.3452, 2518.934
220.8273, 2512.797
221.3094, 2490.162
221.7915, 2459.085
222.2737, 2436.365
222.7558, 2435.148
223.2379, 2452.966
223.7200, 2463.275
224.2021, 2460.021
224.6842, 2455.138
225.1664, 2451.246
225.6485, 2447.284
226.1306, 2440.760
226.6127, 2429.798
227.0948, 2416.264
227.5770, 2408.510
228.0591, 2415.132
228.5412, 2415.763
229.0233, 2398.926
229.5054, 2377.587
229.9875, 2368.268
230.4697, 2378.784
230.9518, 2400.118
231.4339, 2410.072
231.9160, 2403.459
232.3981, 2393.211
232.8802, 2375.666
233.3624, 2358.700
233.8445, 2349.806
234.3266, 2351.346
234.8087, 2358.528
235.2908, 2363.513
235.7729, 2366.077
236.2551, 2366.817
236.7372, 2362.800
237.2193, 2359.265
237.7014, 2360.944
238.1835, 2368.188
238.6656, 2376.191
239.1478, 2378.171
239.6299, 2371.601
240.1120, 2368.425
240.5941, 2374.957
241.0762, 2380.139
241.5583, 2374.546
242.0405, 2360.449
242.5226, 2350.565
243.0047, 2361.819
243.4868, 2397.450
243.9689, 2414.995
244.4510, 2394.231
244.9332, 2373.580
245.4153, 2367.592
245.8974, 2373.606
246.3795, 2382.429
246.8616, 2388.968
247.3437, 2392.919
247.8259, 2390.329
248.3080, 2371.601
248.7901, 2359.465
249.2722, 2367.026
249.7543, 2384.847
250.2364, 2396.780
250.7186, 2392.137
251.2007, 2378.327
251.6828, 2378.250
252.1649, 2400.592
252.6470, 2419.090
253.1291, 2421.000
253.6113, 2416.885
254.0934, 2418.916
254.5755, 2432.478
255.0576, 2449.824
255.5397, 2457.761
256.0219, 2453.450
256.5040, 2450.417
256.9861, 2453.684
257.4682, 2459.044
257.9503, 2463.070
258.4324, 2464.962
258.9146, 2468.042
259.3967, 2477.231
259.8788, 2492.938
260.3609, 2505.506
260.8430, 2510.661
261.3251, 2514.289
261.8073, 2520.992
262.2894, 2530.748
262.7715, 2540.289
263.2536, 2545.424
263.7357, 2547.598
264.2178, 2555.246
264.7000, 2570.145
265.1821, 2589.617
265.6642, 2614.133
266.1463, 2641.839
266.6284, 2666.017
267.1105, 2680.094
267.5927, 2689.133
268.0748, 2705.173
268.5569, 2730.970
269.0390, 2755.589
269.5211, 2770.271
270.0032, 2778.604
270.4854, 2785.871
270.9675, 2791.049
271.4496, 2797.652
271.9317, 2811.814
272.4138, 2833.867
272.8959, 2852.584
273.3781, 2860.123
273.8602, 2861.725
274.3423, 2868.306
274.8244, 2883.837
275.3065, 2898.040
275.7886, 2904.000
276.2708, 2902.822
276.7529, 2898.368
277.2350, 2890.455
277.7171, 2881.927
278.1992, 2877.402
278.6813, 2876.980
279.1635, 2878.578
279.6456, 2881.129
280.1277, 2885.313
280.6098, 2893.866
281.0919, 2908.268
281.5740, 2921.828
282.0562, 2926.249
282.5383, 2920.996
283.0204, 2913.207
283.5025, 2900.250
283.9846, 2887.230
284.4667, 2879.848
284.9489, 2878.122
285.4310, 2876.246
285.9131, 2869.181
286.3952, 2857.032
286.8773, 2847.490
287.3594, 2840.222
287.8416, 2835.573
288.3237, 2836.491
288.8058, 2840.437
289.2879, 2840.397
289.7700, 2831.899
290.2521, 2817.467
290.7343, 2807.925
291.2164, 2809.560
291.6985, 2807.971
292.1806, 2801.072
292.6627, 2789.757
293.1448, 2773.289
293.6270, 2751.604
294.1091, 2729.348
294.5912, 2714.752
295.0733, 2709.841
295.5554, 2709.890
296.0375, 2724.154
296.5197, 2736.389
297.0018, 2731.231
297.4839, 2709.480
297.9660, 2686.188
298.4481, 2676.589
298.9302, 2681.984
299.4124, 2692.642
299.8945, 2712.835
300.3766, 2733.832
300.8587, 2756.180
301.3408, 2777.011
301.8229, 2789.798
302.3050, 2788.392
302.7871, 2777.524
303.2693, 2782.082
303.7514, 2812.857
304.2335, 2844.077
304.7156, 2868.685
305.1977, 2891.624
305.6798, 2918.756
306.1620, 2952.340
306.6441, 2988.875
307.1262, 3022.376
307.6083, 3051.448
308.0904, 3082.213
308.5725, 3119.884
309.0547, 3156.582
309.5368, 3183.184
310.0189, 3200.578
310.5010, 3223.282
310.9831, 3269.221
311.4652, 3335.595
311.9474, 3390.170
312.4295, 3426.544
312.9116, 3456.045
313.3937, 3481.713
313.8758, 3506.490
314.3579, 3537.987
314.8401, 3579.633
315.3222, 3630.111
315.8043, 3690.514
316.2864, 3763.168
316.7685, 3831.489
317.2506, 3881.788
317.7328, 3922.962
318.2149, 3969.928
318.6970, 4026.845
319.1791, 4084.987
319.6612, 4137.821
320.1433, 4185.971
320.6255, 4234.701
321.1076, 4288.508
321.5897, 4338.676
322.0718, 4371.183
322.5539, 4385.975
323.0360, 4391.789
323.5182, 4388.480
324.0003, 4378.687
324.4824, 4365.439
324.9645, 4349.197
325.4466, 4330.006
325.9287, 4307.607
326.4109, 4281.642
326.8930, 4254.712
327.3751, 4233.347
327.8572, 4205.064
328.3393, 4152.940
328.8214, 4086.438
329.3036, 4034.419
329.7857, 4014.868
330.2678, 4020.372
330.7499, 4017.983
331.2320, 4005.296
331.7141, 3987.541
332.1963, 3961.816
332.6784, 3932.776
333.1605, 3906.255
333.6426, 3883.778
334.1247, 3860.823
334.6068, 3828.885
335.0890, 3780.015
335.5711, 3744.556
336.0532, 3734.068
336.5353, 3725.152
337.0174, 3711.353
337.4995, 3689.247
337.9817, 3652.584
338.4638, 3591.879
338.9459, 3511.589
339.4280, 3452.988
339.9101, 3431.153
340.3922, 3410.226
340.8744, 3375.462
341.3565, 3336.681
341.8386, 3308.890
342.3207, 3299.602
342.8028, 3293.543
343.2849, 3262.478
343.7671, 3200.689
344.2492, 3154.737
344.7313, 3145.405
345.2134, 3148.818
345.6955, 3148.536
346.1776, 3143.403
346.6598, 3132.956
347.1419, 3112.976
347.6240, 3087.532
348.1061, 3067.761
348.5882, 3055.197
349.0703, 3046.845
349.5525, 3040.446
350.0346, 3036.410
350.5167, 3036.687
350.9988, 3043.300
351.4809, 3053.041
351.9630, 3065.730
352.4452, 3080.225
352.9273, 3090.147
353.4094, 3091.348
353.8915, 3087.444
354.3736, 3088.793
354.8557, 3101.052
355.3379, 3105.914
355.8200, 3091.561
356.3021, 3071.159
356.7842, 3062.647
357.2663, 3069.141
357.7484, 3077.216
358.2306, 3070.750
358.7127, 3045.226
359.1948, 3030.532
359.6769, 3034.446
360.1590, 3039.773
360.6411, 3040.273
361.1233, 3036.088
361.6054, 3028.977
362.0875, 3019.835
362.5696, 3008.865
363.0517, 2996.173
363.5338, 2976.146
364.0160, 2963.958
364.4981, 2971.742
364.9802, 2980.777
365.4623, 2971.662
365.9444, 2941.909
366.4265, 2909.763
366.9087, 2897.297
367.3908, 2905.763
367.8729, 2911.838
368.3550, 2916.439
368.8371, 2915.980
369.3192, 2905.609
369.8014, 2889.205
370.2835, 2875.901
370.7656, 2869.799
371.2477, 2869.341
371.7298, 2874.588
372.2119, 2886.666
372.6941, 2893.144
373.1762, 2884.522
373.6583, 2869.733
374.1404, 2863.052
374.6225, 2867.120
375.1046, 2871.276
375.5868, 2870.047
376.0689, 2865.003
376.5510, 2858.990
377.0331, 2852.507
377.5152, 2845.624
377.9973, 2838.216
378.4795, 2830.229
378.9616, 2822.940
379.4437, 2818.387
379.9258, 2812.741
380.4079, 2800.166
380.8900, 2784.298
381.3722, 2776.345
381.8543, 2783.201
382.3364, 2799.118
382.8185, 2806.723
383.3006, 2797.738
383.7827, 2790.679
384.2649, 2781.624
384.7470, 2777.407
385.2291, 2790.256
385.7112, 2818.116
386.1933, 2840.372
386.6754, 2831.478
387.1576, 2788.969
387.6397, 2763.925
388.1218, 2772.887
388.6039, 2780.803
389.0860, 2771.362
389.5681, 2754.553
390.0503, 2748.320
390.5324, 2762.905
391.0145, 2783.407
391.4966, 2785.286
391.9787, 2766.764
392.4608, 2745.669
392.9430, 2719.540
393.4251, 2699.514
393.9072, 2698.249
394.3893, 2715.576
394.8714, 2732.942
395.3535, 2743.509
395.8357, 2747.583
396.3178, 2744.929
396.7999, 2735.353
397.2820, 2721.093
397.7641, 2699.825
398.2462, 2675.243
398.7284, 2664.369
399.2105, 2682.766
399.6926, 2697.241
400.1747, 2688.710
400.6568, 2669.266
401.1389, 2658.556
401.6211, 2663.031
402.1032, 2678.152
402.5853, 2699.674
403.0674, 2737.188
403.5495, 2749.590
404.0316, 2711.529
404.5138, 2675.582
404.9959, 2673.049
405.4780, 2695.582
405.9601, 2716.649
406.4422, 2718.602
406.9243, 2708.613
407.4065, 2713.503
407.8886, 2743.822
408.3707, 2767.306
408.8528, 2775.086
409.3349, 2776.074
409.8170, 2772.916
410.2992, 2767.315
410.7813, 2769.541
411.2634, 2798.138
411.7455, 2845.180
412.2276, 2864.200
412.7097, 2839.923
413.1919, 2817.069
413.6740, 2834.647
414.1561, 2875.258
414.6382, 2904.737
415.1203, 2910.460
415.6024, 2911.303
416.0846, 2919.734
416.5667, 2934.408
417.0488, 2951.819
417.5309, 2971.251
418.0130, 2991.093
418.4951, 3008.896
418.9773, 3024.011
419.4594, 3038.995
419.9415, 3046.752
420.4236, 3060.219
420.9057, 3095.337
421.3878, 3145.213
421.8700, 3186.434
422.3521, 3202.972
422.8342, 3201.563
423.3163, 3211.557
423.7984, 3242.135
424.2805, 3270.252
424.7627, 3293.231
425.2448, 3313.260
425.7269, 3331.629
426.2090, 3348.805
426.6911, 3364.940
427.1732, 3379.393
427.6554, 3392.550
428.1375, 3408.025
428.6196, 3427.201
429.1017, 3445.999
429.5838, 3462.483
430.0659, 3477.324
430.5481, 3491.558
431.0302, 3506.182
431.5123, 3518.625
431.9944, 3522.333
432.4765, 3521.326
432.9586, 3531.351
433.4408, 3558.118
433.9229, 3591.184
434.4050, 3618.640
434.8871, 3639.666
435.3692, 3661.993
435.8513, 3691.490
436.3335, 3717.358
436.8156, 3725.291
437.2977, 3724.042
437.7798, 3739.053
438.2619, 3784.708
438.7440, 3845.428
439.2262, 3880.653
439.7083, 3872.337
440.1904, 3869.779
440.6725, 3875.850
441.1546, 3885.779
441.6367, 3897.002
442.1189, 3909.194
442.6010, 3923.183
443.0831, 3940.277
443.5652, 3959.314
444.0473, 3976.496
444.5294, 3993.071
445.0116, 4004.261
445.4937, 4003.693
445.9758, 3999.109
446.4579, 4002.640
446.9400, 4018.785
447.4221, 4018.680
447.9043, 3975.024
448.3864, 3904.366
448.8685, 3841.745
449.3506, 3792.036
449.8327, 3742.598
450.3148, 3682.277
450.7970, 3612.453
451.2791, 3548.901
451.7612, 3499.700
452.2433, 3446.961
452.7254, 3378.545
453.2076, 3305.473
453.6897, 3243.533
454.1718, 3197.204
454.6539, 3160.515
455.1360, 3126.204
455.6181, 3094.267
456.1003, 3064.960
456.5824, 3043.819
457.0645, 3019.877
457.5466, 2982.642
458.0287, 2942.134
458.5108, 2915.637
458.9930, 2911.845
459.4751, 2917.582
459.9572, 2915.086
460.4393, 2904.292
460.9214, 2889.459
461.4035, 2865.987
461.8857, 2846.212
462.3678, 2842.078
462.8499, 2851.344
463.3320, 2863.563
463.8141, 2880.312
464.2962, 2895.433
464.7784, 2899.896
465.2605, 2897.001
465.7426, 2901.248
466.2247, 2920.158
466.7068, 2944.953
467.1889, 2957.419
467.6711, 2944.454
468.1532, 2947.458
468.6353, 2974.120
469.1174, 3009.692
469.5995, 3050.367
470.0816, 3092.093
470.5638, 3125.805
471.0459, 3144.270
471.5280, 3155.539
472.0101, 3186.140
472.4922, 3245.425
472.9743, 3297.986
473.4565, 3326.816
473.9386, 3353.144
474.4207, 3391.137
474.9028, 3440.784
475.3849, 3492.393
475.8670, 3540.633
476.3492, 3587.131
476.8313, 3630.894
477.3134, 3671.755
477.7955, 3728.361
478.2776, 3817.698
478.7597, 3922.254
479.2419, 3998.217
479.7240, 4034.012
480.2061, 4074.117
480.6882, 4124.189
481.1703, 4183.992
481.6524, 4265.784
482.1346, 4361.738
482.6167, 4437.205
483.0988, 4465.025
483.5809, 4452.745
484.0630, 4443.801
484.5451, 4453.005
485.0273, 4439.858
485.5094, 4399.639
485.9915, 4337.422
486.4736, 4251.010
486.9557, 4143.204
487.4378, 4031.767
487.9200, 3931.363
488.4021, 3837.844
488.8842, 3736.425
489.3663, 3624.873
489.8484, 3518.552
490.3305, 3425.371
490.8127, 3343.126
491.2948, 3265.925
491.7769, 3193.530
492.2590, 3126.270
492.7411, 3064.324
493.2232, 3008.163
493.7054, 2959.559
494.1875, 2918.204
494.6696, 2880.154
495.1517, 2842.301
495.6338, 2805.387
496.1159, 2773.240
496.5981, 2746.896
497.0802, 2724.577
497.5623, 2707.485
498.0444, 2693.054
498.5265, 2678.136
499.0086, 2663.082
499.4908, 2652.464
499.9729, 2655.046
500.4550, 2664.892
500.9371, 2655.732
501.4192, 2621.455
501.9013, 2594.040
502.3835, 2589.580
502.8656, 2599.133
503.3477, 2610.181
503.8298, 2625.222
504.3119, 2629.982
504.7940, 2609.859
505.2762, 2581.913
505.7583, 2566.337
506.2404, 2563.831
506.7225, 2564.148
507.2046, 2560.397
507.6867, 2554.011
508.1689, 2551.446
508.6510, 2558.438
509.1331, 2560.754
509.6152, 2553.968
510.0973, 2545.310
510.5794, 2538.679
511.0616, 2535.114
511.5437, 2535.859
512.0258, 2545.490
512.5079, 2557.731
512.9901, 2550.260
513.4722, 2517.722
513.9543, 2499.384
514.4364, 2518.373
514.9185, 2550.241
515.4006, 2560.813
515.8828, 2548.101
516.3649, 2540.961
516.8470, 2555.633
517.3291, 2574.137
517.8112, 2578.880
518.2933, 2571.648
518.7755, 2563.840
519.2576, 2561.394
519.7397, 2562.508
520.2218, 2563.022
520.7039, 2563.209
521.1860, 2562.202
521.6682, 2554.948
522.1503, 2551.298
522.6324, 2559.395
523.1145, 2575.501
523.5966, 2589.583
524.0787, 2596.223
524.5609, 2598.719
525.0430, 2599.835
525.5251, 2599.634
526.0072, 2609.149
526.4893, 2635.759
526.9714, 2665.170
527.4536, 2681.805
527.9357, 2687.113
528.4178, 2690.212
528.8999, 2686.391
529.3820, 2686.596
529.8641, 2701.079
530.3463, 2723.557
530.8284, 2741.638
531.3105, 2751.177
531.7926, 2756.779
532.2747, 2766.086
532.7568, 2781.816
533.2390, 2784.198
533.7211, 2758.115
534.2032, 2735.732
534.6853, 2727.109
535.1674, 2727.789
535.6495, 2734.537
536.1317, 2747.822
536.6138, 2753.824
537.0959, 2732.562
537.5780, 2693.444
538.0601, 2668.452
538.5422, 2662.783
539.0244, 2660.986
539.5065, 2654.337
539.9886, 2642.489
540.4707, 2624.309
540.9528, 2589.788
541.4349, 2563.081
541.9171, 2552.995
542.3992, 2550.333
542.8813, 2548.734
543.3634, 2545.989
543.8455, 2539.396
544.3276, 2525.744
544.8098, 2507.535
545.2919, 2495.227
545.7740, 2488.337
546.2561, 2488.815
546.7382, 2505.667
547.2203, 2523.850
547.7024, 2531.476
548.1845, 2528.718
548.6666, 2523.898
549.1487, 2520.953
549.6309, 2517.502
550.1130, 2510.704
550.5951, 2500.984
551.0772, 2489.879
551.5593, 2477.501
552.0414, 2466.192
552.5236, 2460.405
553.0057, 2463.802
553.4878, 2460.071
553.9699, 2434.606
554.4520, 2418.593
554.9341, 2435.124
555.4163, 2466.089
555.8984, 2480.630
556.3805, 2467.070
556.8626, 2446.878
557.3447, 2447.007
557.8268, 2464.874
558.3090, 2481.698
558.7911, 2499.156
559.2732, 2503.889
559.7553, 2475.294
560.2374, 2428.667
560.7195, 2413.360
561.2017, 2449.762
561.6838, 2482.262
562.1659, 2492.877
562.6480, 2491.401
563.1301, 2485.307
563.6122, 2477.173
564.0944, 2470.056
564.5765, 2465.943
565.0586, 2464.906
565.5407, 2468.460
566.0228, 2481.502
566.5049, 2486.712
566.9871, 2471.264
567.4692, 2454.948
567.9513, 2451.968
568.4334, 2459.991
568.9155, 2465.724
569.3976, 2463.327
569.8798, 2456.431
570.3619, 2444.268
570.8440, 2430.170
571.3261, 2427.594
571.8082, 2441.511
572.2903, 2459.448
572.7725, 2466.472
573.2546, 2461.535
573.7367, 2455.602
574.2188, 2447.403
574.7009, 2439.697
575.1830, 2426.490
575.6652, 2417.633
576.1473, 2428.541
576.6294, 2460.707
577.1115, 2492.653
577.5936, 2505.174
578.0757, 2501.923
578.5579, 2492.806
579.0400, 2476.959
579.5221, 2464.520
580.0042, 2461.208
580.4863, 2463.070
580.9684, 2462.174
581.4506, 2457.070
581.9327, 2455.534
582.4148, 2461.831
582.8969, 2469.127
583.3790, 2472.590
583.8611, 2473.454
584.3433, 2475.603
584.8254, 2480.810
585.3075, 2486.412
585.7896, 2489.179
586.2717, 2489.400
586.7538, 2482.105
587.2360, 2461.253
587.7181, 2442.327
588.2002, 2435.301
588.6823, 2435.641
589.1644, 2436.531
589.6465, 2436.980
590.1287, 2438.170
590.6108, 2443.635
591.0929, 2448.559
591.5750, 2444.795
592.0571, 2433.240
592.5392, 2422.240
593.0214, 2416.909
593.5035, 2417.363
593.9856, 2425.082
594.4677, 2445.486
594.9498, 2460.160
595.4319, 2467.989
595.9141, 2469.070
596.3962, 2455.949
596.8783, 2436.137
597.3604, 2429.313
597.8425, 2449.813
598.3246, 2471.683
598.8068, 2467.713
599.2889, 2447.148
599.7710, 2435.067
600.2531, 2436.283
600.7352, 2437.608
601.2173, 2426.789
601.6995, 2406.165
602.1816, 2394.829
602.6637, 2396.255
603.1458, 2402.907
603.6279, 2424.095
604.1100, 2442.459
604.5922, 2440.465
605.0743, 2422.225
605.5564, 2408.722
606.0385, 2414.404
606.5206, 2427.985
607.0027, 2433.424
607.4849, 2431.305
607.9670, 2424.468
608.4491, 2411.578
608.9312, 2402.258
609.4133, 2407.917
609.8954, 2428.649
610.3776, 2442.408
610.8597, 2445.713
611.3418, 2447.146
611.8239, 2450.777
612.3060, 2452.165
612.7881, 2443.940
613.2703, 2427.387
613.7524, 2413.548
614.2345, 2412.331
614.7166, 2418.430
615.1987, 2418.097
615.6808, 2410.970
616.1630, 2405.366
616.6451, 2403.163
617.1272, 2404.292
617.6093, 2409.874
618.0914, 2420.035
618.5735, 2428.016
619.0557, 2435.172
619.5378, 2438.246
620.0199, 2434.229
620.5020, 2426.269
620.9841, 2416.823
621.4662, 2407.210
621.9484, 2400.161
622.4305, 2398.714
622.9126, 2401.541
623.3947, 2404.126
623.8768, 2406.904
624.3589, 2406.005
624.8411, 2395.243
625.3232, 2386.027
625.8053, 2396.377
626.2874, 2424.963
626.7695, 2444.496
627.2516, 2446.017
627.7338, 2443.249
628.2159, 2439.947
628.6980, 2437.917
629.1801, 2441.289
629.6622, 2449.929
630.1443, 2456.411
630.6265, 2452.214
631.1086, 2439.788
631.5907, 2433.152
632.0728, 2433.549
632.5549, 2434.808
633.0370, 2434.940
633.5192, 2435.322
634.0013, 2439.384
634.4834, 2446.733
634.9655, 2447.703
635.4476, 2431.009
635.9297, 2417.306
636.4119, 2421.867
636.8940, 2435.668
637.3761, 2445.555
637.8582, 2447.864
638.3403, 2444.418
638.8224, 2435.660
639.3046, 2422.959
639.7867, 2415.438
640.2688, 2414.607
640.7509, 2413.429
641.2330, 2408.934
641.7151, 2404.265
642.1973, 2403.248
642.6794, 2405.518
643.1615, 2406.520
643.6436, 2402.138
644.1257, 2399.651
644.6078, 2409.034
645.0900, 2420.535
645.5721, 2415.392
646.0542, 2391.975
646.5363, 2369.962
647.0184, 2368.726
647.5005, 2383.571
647.9827, 2392.148
648.4648, 2392.595
648.9469, 2393.858
649.4290, 2397.284
649.9111, 2403.330
650.3932, 2415.367
650.8754, 2431.819
651.3575, 2441.129
651.8396, 2438.116
652.3217, 2431.311
652.8038, 2420.139
653.2859, 2409.777
653.7681, 2409.246
654.2502, 2418.354
654.7323, 2427.126
655.2144, 2427.610
655.6965, 2421.481
656.1786, 2413.200
656.6608, 2401.952
657.1429, 2393.076
657.6250, 2385.463
658.1071, 2383.764
658.5892, 2398.179
659.0714, 2423.826
659.5535, 2438.044
660.0356, 2428.897
660.5177, 2420.438
660.9998, 2421.835
661.4819, 2427.295
661.9641, 2433.010
662.4462, 2436.953
662.9283, 2433.972
663.4104, 2418.229
663.8925, 2400.469
664.3746, 2410.415
664.8568, 2449.521
665.3389, 2464.959
665.8210, 2438.781
666.3031, 2411.539
666.7852, 2416.076
667.2673, 2444.640
667.7495, 2462.027
668.2316, 2466.398
668.7137, 2462.759
669.1958, 2446.806
669.6779, 2427.517
670.1600, 2406.343
670.6422, 2388.170
671.1243, 2385.174
671.6064, 2404.933
672.0885, 2430.358
672.5706, 2433.586
673.0527, 2418.881
673.5349, 2419.966
674.0170, 2443.447
674.4991, 2461.991
674.9812, 2457.049
675.4633, 2438.022
675.9454, 2429.549
676.4276, 2437.978
676.9097, 2443.081
677.3918, 2442.593
677.8739, 2440.472
678.3560, 2438.911
678.8381, 2437.105
679.3203, 2432.749
679.8024, 2425.126
680.2845, 2418.271
680.7666, 2415.742
681.2487, 2416.898
681.7308, 2421.588
682.2130, 2429.475
682.6951, 2435.448
683.1772, 2437.242
683.6593, 2436.179
684.1414, 2433.769
684.6235, 2429.041
685.1057, 2428.176
685.5878, 2439.344
686.0699, 2444.511
686.5520, 2432.369
687.0341, 2416.350
687.5162, 2411.583
687.9984, 2419.230
688.4805, 2427.270
688.9626, 2426.364
689.4447, 2424.310
689.9268, 2432.678
690.4089, 2447.300
690.8911, 2454.964
691.3732, 2452.190
691.8553, 2446.729
692.3374, 2446.551
692.8195, 2450.769
693.3016, 2450.755
693.7838, 2441.744
694.2659, 2439.222
694.7480, 2454.555
695.2301, 2469.569
695.7122, 2468.412
696.1943, 2455.850
696.6765, 2450.915
697.1586, 2466.303
697.6407, 2478.246
698.1228, 2468.665
698.6049, 2451.565
699.0870, 2445.578
699.5692, 2450.646
700.0513, 2454.469
700.5334, 2449.156
701.0155, 2439.880
701.4976, 2437.965
701.9797, 2443.849
702.4619, 2447.090
702.9440, 2444.882
703.4261, 2445.159
703.9082, 2455.935
704.3903, 2471.052
704.8724, 2474.899
705.3546, 2462.381
705.8367, 2454.082
706.3188, 2449.574
706.8009, 2453.223
707.2830, 2476.851
707.7651, 2507.341
708.2473, 2522.125
708.7294, 2514.831
709.2115, 2500.466
709.6936, 2490.613
710.1757, 2485.137
710.6578, 2484.133
711.1400, 2487.492
711.6221, 2494.463
712.1042, 2505.813
712.5863, 2516.093
713.0684, 2517.432
713.5505, 2509.087
714.0327, 2507.805
714.5148, 2522.087
714.9969, 2531.825
715.4790, 2531.763
715.9611, 2527.756
716.4432, 2520.584
716.9254, 2513.052
717.4075, 2515.131
717.8896, 2537.762
718.3717, 2561.368
718.8538, 2571.123
719.3359, 2570.991
719.8181, 2566.174
720.3002, 2558.210
720.7823, 2548.781
721.2644, 2538.690
721.7465, 2529.391
722.2286, 2524.116
722.7108, 2522.810
723.1929, 2527.018
723.6750, 2541.580
724.1571, 2552.259
724.6392, 2547.333
725.1213, 2534.566
725.6035, 2529.755
726.0856, 2534.315
726.5677, 2542.231
727.0498, 2557.463
727.5319, 2570.658
728.0140, 2573.705
728.4962, 2571.937
728.9783, 2575.727
729.4604, 2587.127
729.9425, 2596.265
730.4246, 2593.030
730.9067, 2581.635
731.3889, 2567.305
731.8710, 2551.547
732.3531, 2551.766
732.8352, 2575.197
733.3173, 2601.193
733.7994, 2606.791
734.2816, 2594.444
734.7637, 2597.883
735.2458, 2634.262
735.7279, 2657.672
736.2100, 2655.514
736.6921, 2646.417
737.1743, 2637.758
737.6564, 2631.655
738.1385, 2632.545
738.6206, 2644.553
739.1027, 2656.446
739.5848, 2657.080
740.0670, 2657.447
740.5491, 2676.118
741.0312, 2706.916
741.5133, 2725.676
741.9954, 2720.864
742.4775, 2706.632
742.9597, 2700.270
743.4418, 2701.948
743.9239, 2717.832
744.4060, 2752.773
744.8881, 2774.011
745.3702, 2762.257
745.8524, 2741.053
746.3345, 2743.355
746.8166, 2772.467
747.2987, 2794.837
747.7808, 2806.887
748.2629, 2817.475
748.7451, 2830.628
749.2272, 2841.824
749.7093, 2844.931
750.1914, 2841.748
750.6735, 2841.015
751.1556, 2847.908
751.6378, 2856.647
752.1199, 2861.145
752.6020, 2863.972
753.0841, 2870.339
753.5662, 2880.433
754.0483, 2891.756
754.5305, 2903.247
755.0126, 2911.966
755.4947, 2908.624
755.9768, 2890.291
756.4589, 2890.103
756.9410, 2917.376
757.4232, 2940.540
757.9053, 2942.733
758.3874, 2935.842
758.8695, 2937.686
759.3516, 2948.634
759.8337, 2961.736
760.3159, 2975.255
760.7980, 2992.309
761.2801, 3018.200
761.7622, 3045.485
762.2443, 3064.296
762.7264, 3075.708
763.2086, 3090.667
763.6907, 3115.050
764.1728, 3146.195
764.6549, 3184.058
765.1370, 3225.883
765.6191, 3263.489
766.1013, 3296.426
766.5834, 3333.477
767.0655, 3380.274
767.5476, 3433.315
768.0297, 3485.233
768.5118, 3535.458
768.9940, 3586.800
769.4761, 3638.790
769.9582, 3692.360
770.4403, 3746.131
770.9224, 3802.991
771.4045, 3870.331
771.8867, 3949.487
772.3688, 4018.230
772.8509, 4056.487
773.3330, 4104.361
773.8151, 4183.170
774.2972, 4275.479
774.7794, 4367.280
775.2615, 4454.104
775.7436, 4531.081
776.2257, 4593.151
776.7078, 4649.385
777.1899, 4714.923
777.6721, 4781.188
778.1542, 4828.619
778.6363, 4855.202
779.1184, 4867.152
779.6005, 4867.250
780.0826, 4858.827
780.5648, 4850.143
781.0469, 4843.147
781.5290, 4814.554
782.0111, 4758.108
782.4932, 4696.548
782.9753, 4640.038
783.4575, 4581.268
783.9396, 4509.972
784.4217, 4426.071
784.9038, 4339.886
785.3859, 4245.025
785.8680, 4157.091
786.3502, 4082.385
786.8323, 4014.807
787.3144, 3946.266
787.7965, 3879.152
788.2786, 3824.200
788.7607, 3788.803
789.2429, 3756.226
789.7250, 3709.524
790.2071, 3657.476
790.6892, 3609.495
791.1713, 3568.737
791.6534, 3546.481
792.1356, 3547.415
792.6177, 3548.760
793.0998, 3513.426
793.5819, 3447.574
794.0640, 3413.523
794.5461, 3413.889
795.0283, 3430.989
795.5104, 3465.359
795.9925, 3502.871
796.4746, 3527.656
796.9567, 3541.943
797.4388, 3568.744
797.9210, 3611.396
798.4031, 3662.055
798.8852, 3716.231
799.3673, 3782.470
799.8494, 3874.281
800.3315, 3979.136
800.8137, 4072.933
801.2958, 4147.642
801.7779, 4226.672
802.2600, 4316.776
802.7421, 4420.835
803.2242, 4543.788
803.7064, 4681.829
804.1885, 4830.458
804.6706, 4987.229
805.1527, 5148.503
805.6348, 5310.661
806.1169, 5476.070
806.5991, 5647.683
807.0812, 5826.844
807.5633, 6024.786
808.0454, 6245.592
808.5275, 6455.668
809.0096, 6633.320
809.4918, 6786.450
809.9739, 6933.227
810.4560, 7080.350
810.9381, 7198.630
811.4202, 7287.842
811.9023, 7349.052
812.3845, 7368.563
812.8666, 7368.839
813.3487, 7368.704
813.8308, 7368.708
814.3129, 7389.373
814.7950, 7449.260
815.2772, 7510.413
815.7593, 7547.092
816.2414, 7589.323
816.7235, 7659.297
817.2056, 7760.451
817.6877, 7887.467
818.1699, 8033.762
818.6520, 8227.472
819.1341, 8520.282
819.6162, 8862.866
820.0983, 9173.494
820.5804, 9462.056
821.0626, 9783.528
821.5447, 10158.83
822.0268, 10540.93
822.5089, 10883.65
822.9910, 11190.97
823.4731, 11486.66
823.9553, 11774.36
824.4374, 12008.63
824.9195, 12167.53
825.4016, 12320.98
825.8837, 12517.54
826.3658, 12751.91
826.8480, 13000.22
827.3301, 13233.32
827.8122, 13547.74
828.2943, 13956.96
828.7764, 14433.25
829.2585, 15019.65
829.7407, 15635.35
830.2228, 16205.25
830.7049, 16723.80
831.1870, 17127.54
831.6691, 17470.84
832.1512, 17611.11
832.6334, 17503.03
833.1155, 17151.61
833.5976, 16520.88
834.0797, 15651.10
834.5618, 14631.95
835.0439, 13479.84
835.5261, 12320.26
836.0082, 11239.83
836.4903, 10237.60
836.9724, 9297.290
837.4545, 8429.601
837.9366, 7675.671
838.4188, 7049.521
838.9009, 6525.174
839.3830, 6087.470
839.8651, 5725.624
840.3472, 5394.109
840.8293, 5092.709
841.3115, 4836.349
841.7936, 4630.570
842.2757, 4454.756
842.7578, 4294.428
843.2399, 4153.486
843.7220, 4043.044
844.2042, 3976.148
844.6863, 3894.978
845.1684, 3785.803
845.6505, 3682.976
846.1326, 3599.039
846.6147, 3525.656
847.0969, 3453.870
847.5790, 3384.267
848.0611, 3325.863
848.5432, 3287.794
849.0253, 3249.940
849.5074, 3203.979
849.9896, 3158.773
850.4717, 3119.445
850.9538, 3086.482
851.4359, 3062.462
851.9180, 3048.878
852.4001, 3030.980
852.8823, 2991.890
853.3644, 2949.437
853.8465, 2919.284
854.3286, 2901.158
854.8107, 2896.086
855.2928, 2901.978
855.7750, 2908.914
856.2571, 2910.600
856.7392, 2906.368
857.2213, 2890.926
857.7034, 2868.050
858.1855, 2856.330
858.6677, 2857.113
859.1498, 2856.156
859.6319, 2846.599
860.1140, 2833.621
860.5961, 2823.064
861.0782, 2815.317
861.5604, 2822.716
862.0425, 2852.829
862.5246, 2867.840
863.0067, 2855.969
863.4888, 2833.511
863.9709, 2808.830
864.4531, 2784.783
864.9352, 2772.410
865.4173, 2778.062
865.8994, 2782.123
866.3815, 2786.985
866.8636, 2787.510
867.3458, 2777.716
867.8279, 2765.317
868.3100, 2761.216
868.7921, 2764.992
869.2742, 2761.681
869.7563, 2741.247
870.2385, 2721.203
870.7206, 2708.613
871.2027, 2698.982
871.6848, 2690.372
872.1669, 2680.964
872.6490, 2666.512
873.1312, 2645.258
873.6133, 2627.000
874.0954, 2626.116
874.5775, 2625.798
875.0596, 2601.921
875.5417, 2565.322
876.0239, 2537.551
876.5060, 2523.385
876.9881, 2520.549
877.4702, 2529.739
877.9523, 2540.254
878.4344, 2534.527
878.9166, 2515.362
879.3987, 2486.533
879.8808, 2450.905
880.3629, 2439.527
880.8450, 2466.604
881.3271, 2497.394
881.8093, 2489.199
882.2914, 2448.597
882.7735, 2415.077
883.2556, 2388.127
883.7377, 2375.080
884.2198, 2381.626
884.7020, 2387.325
885.1841, 2377.638
885.6662, 2360.166
886.1483, 2351.522
886.6304, 2353.487
887.1125, 2357.131
887.5947, 2372.544
888.0768, 2372.848
888.5589, 2328.694
889.0410, 2286.367
889.5231, 2293.241
890.0052, 2337.739
890.4874, 2366.781
890.9695, 2373.559
891.4516, 2370.625
891.9337, 2349.480
892.4158, 2330.098
892.8979, 2322.397
893.3801, 2323.136
893.8622, 2330.715
894.3443, 2343.534
894.8264, 2348.888
895.3085, 2334.345
895.7906, 2319.991
896.2728, 2315.466
896.7549, 2317.275
897.2370, 2325.911
897.7191, 2337.005
898.2012, 2340.675
898.6833, 2333.342
899.1655, 2324.344
899.6476, 2323.230
900.1297, 2322.921
900.6118, 2310.084
901.0939, 2292.618
901.5760, 2288.966
902.0582, 2300.479
902.5403, 2314.949
903.0224, 2325.397
903.5045, 2330.990
903.9866, 2327.649
904.4688, 2318.808
904.9509, 2315.464
905.4330, 2317.557
905.9151, 2320.709
906.3972, 2323.477
906.8793, 2325.912
907.3615, 2326.875
907.8436, 2329.599
908.3257, 2352.143
908.8078, 2394.859
909.2899, 2398.360
909.7720, 2349.642
910.2542, 2316.464
910.7363, 2336.486
911.2184, 2373.210
911.7005, 2371.925
912.1826, 2333.292
912.6647, 2313.722
913.1469, 2319.940
913.6290, 2323.709
914.1111, 2319.377
914.5932, 2313.302
915.0753, 2308.992
915.5574, 2306.290
916.0396, 2305.860
916.5217, 2311.166
917.0038, 2305.446
917.4859, 2277.907
917.9680, 2254.646
918.4501, 2238.410
918.9323, 2231.357
919.4144, 2238.414
919.8965, 2256.337
920.3786, 2274.275
920.8607, 2297.681
921.3428, 2307.223
921.8250, 2280.875
922.3071, 2262.354
922.7892, 2287.259
923.2713, 2320.899
923.7534, 2314.714
924.2355, 2272.165
924.7177, 2248.368
925.1998, 2277.626
925.6819, 2298.693
926.1640, 2273.498
926.6461, 2242.710
927.1282, 2241.836
927.6104, 2257.739
928.0925, 2262.587
928.5746, 2251.257
929.0567, 2243.218
929.5388, 2253.213
930.0209, 2265.928
930.5031, 2270.420
930.9852, 2270.727
931.4673, 2271.366
931.9494, 2272.564
932.4315, 2274.103
932.9136, 2275.796
933.3958, 2273.144
933.8779, 2256.107
934.3600, 2237.531
934.8421, 2238.298
935.3242, 2248.849
935.8063, 2246.736
936.2885, 2232.286
936.7706, 2225.080
937.2527, 2235.913
937.7348, 2250.997
938.2169, 2253.283
938.6990, 2247.421
939.1812, 2244.689
939.6633, 2243.708
940.1454, 2235.565
940.6275, 2219.533
941.1096, 2209.803
941.5917, 2217.323
942.0739, 2231.717
942.5560, 2233.167
943.0381, 2224.591
943.5202, 2221.525
944.0023, 2224.194
944.4844, 2227.416
944.9666, 2229.688
945.4487, 2228.055
945.9308, 2218.907
946.4129, 2206.143
946.8950, 2200.528
947.3771, 2202.045
947.8593, 2207.611
948.3414, 2217.533
948.8235, 2226.070
949.3056, 2231.485
949.7877, 2232.168
950.2698, 2225.739
950.7520, 2213.385
951.2341, 2199.691
951.7162, 2182.753
952.1983, 2178.766
952.6804, 2193.278
953.1625, 2205.567
953.6447, 2205.424
954.1268, 2199.597
954.6089, 2197.349
955.0910, 2198.365
955.5731, 2194.614
956.0552, 2182.811
956.5374, 2176.502
957.0195, 2178.197
957.5016, 2184.292
957.9837, 2196.760
958.4658, 2208.200
958.9479, 2205.437
959.4301, 2187.248
959.9122, 2171.683
960.3943, 2156.291
960.8764, 2148.613
961.3585, 2152.558
961.8406, 2160.845
962.3228, 2173.677
962.8049, 2185.516
963.2870, 2183.976
963.7691, 2165.439
964.2512, 2152.914
964.7333, 2151.687
965.2155, 2148.787
965.6976, 2138.501
966.1797, 2129.322
966.6618, 2126.082
967.1439, 2128.035
967.6260, 2135.002
968.1082, 2150.323
968.5903, 2157.088
969.0724, 2142.354
969.5545, 2135.277
970.0366, 2154.344
970.5187, 2173.535
971.0009, 2170.021
971.4830, 2151.247
971.9651, 2136.886
972.4472, 2126.450
972.9293, 2128.688
973.4114, 2164.014
973.8936, 2187.663
974.3757, 2171.435
974.8578, 2147.315
975.3399, 2145.341
975.8220, 2159.691
976.3041, 2167.024
976.7863, 2160.872
977.2684, 2157.028
977.7505, 2161.285
978.2326, 2165.771
978.7147, 2169.742
979.1968, 2170.196
979.6790, 2159.069
980.1611, 2141.830
980.6432, 2138.581
981.1253, 2159.778
981.6074, 2175.725
982.0895, 2177.592
982.5717, 2172.097
983.0538, 2150.005
983.5359, 2131.554
984.0180, 2147.360
984.5001, 2187.823
984.9822, 2209.295
985.4644, 2195.477
985.9465, 2176.554
986.4286, 2158.281
986.9107, 2143.673
987.3928, 2131.184
987.8749, 2125.556
988.3571, 2138.484
988.8392, 2164.386
989.3213, 2178.987
989.8034, 2173.163
990.2855, 2160.956
990.7676, 2140.474
991.2498, 2123.799
991.7319, 2121.256
992.2140, 2125.340
992.6961, 2127.967
993.1782, 2127.851
993.6603, 2125.275
994.1425, 2118.936
994.6246, 2114.286
995.1067, 2117.207
995.5888, 2118.917
996.0709, 2112.129
996.5530, 2101.443
997.0352, 2089.865
997.5173, 2080.043
997.9994, 2080.066
998.4815, 2096.970
998.9636, 2110.921
999.4457, 2110.619
999.9279, 2106.528
1000.410, 2104.649
1000.892, 2104.146
1001.374, 2103.639
1001.856, 2102.915
1002.338, 2102.382
1002.821, 2102.870
1003.303, 2101.381
1003.785, 2094.278
1004.267, 2087.116
1004.749, 2079.298
1005.231, 2076.618
1005.713, 2092.606
1006.195, 2121.134
1006.677, 2135.534
1007.160, 2123.797
1007.642, 2107.475
1008.124, 2089.686
1008.606, 2077.969
1009.088, 2080.067
1009.570, 2089.177
1010.052, 2099.604
1010.534, 2109.042
1011.017, 2113.949
1011.499, 2113.241
1011.981, 2107.990
1012.463, 2089.165
1012.945, 2076.740
1013.427, 2085.695
1013.909, 2105.630
1014.391, 2133.091
1014.873, 2159.982
1015.356, 2163.825
1015.838, 2131.741
1016.320, 2105.708
1016.802, 2106.705
1017.284, 2112.164
1017.766, 2106.924
1018.248, 2102.216
1018.730, 2115.243
1019.213, 2138.995
1019.695, 2148.897
1020.177, 2135.937
1020.659, 2126.324
1021.141, 2128.904
1021.623, 2136.302
1022.105, 2153.233
1022.587, 2166.530
1023.069, 2160.248
1023.552, 2141.225
1024.034, 2129.206
1024.516, 2129.524
1024.998, 2125.555
1025.480, 2101.781
1025.962, 2087.744
1026.444, 2105.287
1026.926, 2126.978
1027.409, 2127.245
1027.891, 2115.560
1028.373, 2117.147
1028.855, 2138.046
1029.337, 2147.315
1029.819, 2125.798
1030.301, 2110.813
1030.783, 2122.025
1031.266, 2133.200
1031.748, 2120.849
1032.230, 2098.317
1032.712, 2092.681
1033.194, 2107.657
1033.676, 2113.160
1034.158, 2095.512
1034.640, 2083.821
1035.122, 2088.388
1035.604, 2093.954
1036.087, 2086.055
1036.569, 2077.115
1037.051, 2092.537
1037.533, 2133.965
1038.015, 2147.641
1038.497, 2100.959
1038.979, 2078.966
1039.461, 2107.719
1039.944, 2134.215
1040.426, 2132.374
1040.908, 2118.993
1041.390, 2113.947
1041.872, 2116.266
1042.354, 2114.961
1042.836, 2107.949
1043.318, 2101.756
1043.800, 2095.476
1044.283, 2092.445
1044.765, 2096.572
1045.247, 2100.096
1045.729, 2091.285
1046.211, 2076.085
1046.693, 2085.335
1047.175, 2135.100
1047.657, 2151.571
1048.140, 2120.131
1048.622, 2097.986
1049.104, 2105.250
1049.586, 2119.147
1050.068, 2120.671
1050.550, 2114.443
1051.032, 2113.652
1051.514, 2119.461
1051.996, 2117.519
1052.479, 2105.523
1052.961, 2101.026
1053.443, 2109.090
1053.925, 2121.047
1054.407, 2132.676
1054.889, 2139.500
1055.371, 2130.383
1055.853, 2107.660
1056.335, 2101.805
1056.818, 2112.679
1057.300, 2112.782
1057.782, 2097.244
1058.264, 2089.890
1058.746, 2104.114
1059.228, 2121.286
1059.710, 2113.549
1060.192, 2091.667
1060.675, 2097.094
1061.157, 2123.030
1061.639, 2128.767
1062.121, 2112.771
1062.603, 2105.477
1063.085, 2118.090
1063.567, 2126.478
1064.049, 2104.354
1064.531, 2069.862
1065.014, 2052.892
1065.496, 2050.959
1065.978, 2063.404
1066.460, 2085.145
1066.942, 2102.627
1067.424, 2111.572
1067.906, 2111.510
1068.388, 2100.722
1068.870, 2086.055
1069.353, 2072.208
1069.835, 2061.588
1070.317, 2057.729
1070.799, 2059.631
1071.281, 2068.051
1071.763, 2080.197
1072.245, 2085.784
1072.727, 2079.250
1073.210, 2072.449
1073.692, 2078.641
1074.174, 2083.175
1074.656, 2068.486
1075.138, 2048.838
1075.620, 2043.347
1076.102, 2048.527
1076.584, 2047.909
1077.067, 2036.706
1077.549, 2034.230
1078.031, 2066.771
1078.513, 2086.170
1078.995, 2053.378
1079.477, 2016.119
1079.959, 2013.441
1080.441, 2030.965
1080.923, 2041.940
1081.406, 2043.570
1081.888, 2047.604
1082.370, 2061.945
1082.852, 2069.949
1083.334, 2067.819
1083.816, 2060.378
1084.298, 2042.240
1084.780, 2025.506
1085.262, 2025.961
1085.745, 2039.821
1086.227, 2048.697
1086.709, 2051.590
1087.191, 2051.862
1087.673, 2047.700
1088.155, 2044.496
1088.637, 2043.204
1089.119, 2044.492
1089.602, 2051.105
1090.084, 2057.638
1090.566, 2049.261
1091.048, 2024.594
1091.530, 2030.282
1092.012, 2074.850
1092.494, 2090.758
1092.976, 2062.482
1093.458, 2036.819
1093.941, 2037.793
1094.423, 2050.388
1094.905, 2056.657
1095.387, 2057.353
1095.869, 2054.347
1096.351, 2048.029
1096.833, 2039.282
1097.315, 2029.281
1097.797, 2028.692
1098.280, 2040.336
1098.762, 2052.875
1099.244, 2057.523
1099.726, 2057.179
1100.208, 2053.910
1100.690, 2050.159
1101.172, 2056.522
1101.654, 2065.194
1102.137, 2047.239
1102.619, 2007.992
1103.101, 1992.917
1103.583, 2024.625
1104.065, 2061.235
1104.547, 2071.536
1105.029, 2067.426
1105.511, 2053.180
1105.994, 2035.869
1106.476, 2021.389
1106.958, 2011.548
1107.440, 2008.896
1107.922, 2013.621
1108.404, 2020.515
1108.886, 2031.419
1109.368, 2038.109
1109.850, 2038.093
1110.333, 2032.290
1110.815, 2014.086
1111.297, 1995.350
1111.779, 1993.648
1112.261, 2005.477
1112.743, 2007.792
1113.225, 1990.724
1113.707, 1983.950
1114.189, 1996.696
1114.672, 2005.958
1115.154, 1999.008
1115.636, 1999.174
1116.118, 2030.386
1116.600, 2070.376
1117.082, 2075.279
1117.564, 2044.868
1118.046, 2026.042
1118.529, 2020.813
1119.011, 2015.509
1119.493, 2007.993
1119.975, 2005.017
1120.457, 2010.261
1120.939, 2014.363
1121.421, 2005.676
1121.903, 1993.557
1122.385, 2008.573
1122.868, 2042.832
1123.350, 2051.688
1123.832, 2038.671
1124.314, 2036.465
1124.796, 2050.129
1125.278, 2054.330
1125.760, 2034.008
1126.242, 2010.471
1126.724, 2007.981
1127.207, 2016.439
1127.689, 2026.905
1128.171, 2035.500
1128.653, 2033.769
1129.135, 2025.370
1129.617, 2021.874
1130.099, 2025.721
1130.581, 2027.768
1131.064, 2020.958
1131.546, 2015.673
1132.028, 2018.457
1132.510, 2023.311
1132.992, 2028.627
1133.474, 2031.850
1133.956, 2028.631
1134.438, 2020.762
1134.921, 2016.186
1135.403, 2017.493
1135.885, 2016.453
1136.367, 2004.476
1136.849, 2002.522
1137.331, 2022.265
1137.813, 2040.942
1138.295, 2045.600
1138.777, 2041.851
1139.260, 2037.407
1139.742, 2032.284
1140.224, 2025.592
1140.706, 2016.281
1141.188, 2014.113
1141.670, 2020.276
1142.152, 2028.195
1142.634, 2036.088
1143.116, 2038.751
1143.599, 2031.081
1144.081, 2021.257
1144.563, 2028.064
1145.045, 2042.791
1145.527, 2034.636
1146.009, 2012.001
1146.491, 1999.370
1146.973, 2000.160
1147.456, 2013.680
1147.938, 2038.357
1148.420, 2057.759
1148.902, 2058.821
1149.384, 2051.272
1149.866, 2038.214
1150.348, 2025.904
1150.830, 2018.863
1151.313, 2017.898
1151.795, 2027.976
1152.277, 2044.935
1152.759, 2051.563
1153.241, 2041.415
1153.723, 2029.957
1154.205, 2015.806
1154.687, 2007.548
1155.169, 2012.544
1155.651, 2018.954
1156.134, 2019.471
1156.616, 2017.092
1157.098, 2016.594
1157.580, 2017.498
1158.062, 2013.471
1158.544, 2002.582
1159.026, 1994.335
1159.508, 1987.723
1159.991, 1996.118
1160.473, 2026.197
1160.955, 2048.551
1161.437, 2040.437
1161.919, 2020.193
1162.401, 2019.609
1162.883, 2032.019
1163.365, 2036.261
1163.848, 2033.785
1164.330, 2028.457
1164.812, 2021.038
1165.294, 2008.880
1165.776, 1992.796
1166.258, 1987.550
1166.740, 2007.517
1167.222, 2029.697
1167.704, 2039.250
1168.187, 2038.304
1168.669, 2020.870
1169.151, 1999.764
1169.633, 1989.710
1170.115, 1989.946
1170.597, 1994.196
1171.079, 2002.012
1171.561, 2008.268
1172.043, 2015.591
1172.526, 2015.799
1173.008, 2003.021
1173.490, 1989.203
1173.972, 1974.752
1174.454, 1968.424
1174.936, 1982.605
1175.418, 2009.752
1175.900, 2024.656
1176.383, 2027.237
1176.865, 2014.000
1177.347, 1984.220
1177.829, 1970.766
1178.311, 1979.510
1178.793, 1995.762
1179.275, 2012.388
1179.757, 2026.558
1180.240, 2036.183
1180.722, 2039.520
1181.204, 2033.947
1181.686, 2019.901
1182.168, 1987.462
1182.650, 1951.723
1183.132, 1946.632
1183.614, 1970.516
1184.096, 1995.188
1184.578, 2012.146
1185.061, 2015.268
1185.543, 1984.952
1186.025, 1963.176
1186.507, 1976.020
1186.989, 1994.520
1187.471, 2001.018
1187.953, 1999.083
1188.435, 1993.759
1188.918, 1985.662
1189.400, 1977.927
1189.882, 1970.020
1190.364, 1963.069
1190.846, 1954.494
1191.328, 1961.143
1191.810, 1989.715
1192.292, 2012.730
1192.775, 2014.353
1193.257, 2004.250
1193.739, 1992.940
1194.221, 1981.295
1194.703, 1970.855
1195.185, 1961.897
1195.667, 1954.393
1196.149, 1949.140
1196.631, 1947.491
1197.114, 1950.233
1197.596, 1960.259
1198.078, 1979.707
1198.560, 1997.383
1199.042, 2008.574
1199.524, 2012.993
1200.006, 2006.057
1200.488, 1996.917
1200.970, 1988.638
1201.453, 1985.240
1201.935, 1996.945
1202.417, 2020.215
1202.899, 2026.451
1203.381, 2006.703
1203.863, 1999.277
1204.345, 2009.581
1204.827, 2013.943
1205.310, 2006.075
1205.792, 1998.918
1206.274, 1999.287
1206.756, 2005.069
1207.238, 2016.913
1207.720, 2026.044
1208.202, 1999.403
1208.684, 1955.752
1209.167, 1955.083
1209.649, 1985.325
1210.131, 2006.397
1210.613, 2011.432
1211.095, 2007.817
1211.577, 1998.240
1212.059, 1993.748
1212.541, 2010.349
1213.023, 2021.283
1213.505, 2005.146
1213.988, 1986.425
1214.470, 1986.264
1214.952, 1990.357
1215.434, 1972.882
1215.916, 1944.143
1216.398, 1947.246
1216.880, 1992.353
1217.362, 2002.687
1217.845, 1965.598
1218.327, 1949.689
1218.809, 1967.596
1219.291, 1984.062
1219.773, 1984.311
1220.255, 1982.987
1220.737, 1995.606
1221.219, 2005.925
1221.702, 1971.620
1222.184, 1922.549
1222.666, 1930.011
1223.148, 1966.629
1223.630, 1971.076
1224.112, 1949.310
1224.594, 1945.622
1225.076, 1969.168
1225.558, 1979.714
1226.041, 1945.931
1226.523, 1924.695
1227.005, 1945.822
1227.487, 1969.399
1227.969, 1979.139
1228.451, 1983.566
1228.933, 1990.368
1229.415, 1995.408
1229.897, 1990.827
1230.380, 1977.587
1230.862, 1966.823
1231.344, 1958.706
1231.826, 1944.672
1232.308, 1925.329
1232.790, 1932.638
1233.272, 1971.180
1233.754, 1991.897
1234.237, 1966.204
1234.719, 1935.880
1235.201, 1948.681
1235.683, 1974.258
1236.165, 1982.247
1236.647, 1981.780
1237.129, 1977.752
1237.611, 1975.701
1238.094, 1987.591
1238.576, 2008.606
1239.058, 2014.741
1239.540, 1997.987
1240.022, 1983.835
1240.504, 1968.413
1240.986, 1967.593
1241.468, 1989.455
1241.950, 2011.083
1242.432, 2024.707
1242.915, 2029.011
##END=



