##NAMES=Conichalcite
##RRUFFID=R070430
##IDEAL CHEMISTRY=CaCu^2+^As^5+^O_4_(OH)
##LOCALITY=Maria Catalina mine, Pampa Larga Mining District, Tierra Amarilla, Chile
##OWNER=RRUFF
##SOURCE=Bob Jenkins
##DESCRIPTION=Apple-green prismatic crystals, associated with pale blue blocky rruffite (R070431), and pale blue granular barahonite-(Al)
##STATUS=The identification of this mineral is confirmed by single-crystal X-ray diffraction and chemical analysis.
##URL=rruff.info/R070430
##MEASURED CHEMISTRY=Ca_1.00_(Cu_0.99_Zn_0.01_)_Î£=1_As_1.00_O_4_(OH); OH estimated by charge balance
150.8870, 1924.459
151.3692, 1992.118
151.8513, 2052.022
152.3334, 2094.448
152.8155, 2133.574
153.2976, 2181.027
153.7797, 2246.575
154.2619, 2310.466
154.7440, 2366.839
155.2261, 2412.460
155.7082, 2468.293
156.1903, 2549.774
156.6724, 2639.446
157.1546, 2714.355
157.6367, 2760.614
158.1188, 2800.730
158.6009, 2841.888
159.0830, 2885.889
159.5651, 2929.122
160.0473, 2978.762
160.5294, 3027.041
161.0115, 3058.230
161.4936, 3063.966
161.9757, 3054.246
162.4578, 3033.019
162.9400, 2994.465
163.4221, 2955.611
163.9042, 2927.562
164.3863, 2905.915
164.8684, 2875.777
165.3505, 2822.513
165.8327, 2762.177
166.3148, 2707.744
166.7969, 2661.874
167.2790, 2623.746
167.7611, 2595.754
168.2433, 2576.839
168.7254, 2558.888
169.2075, 2534.325
169.6896, 2508.890
170.1717, 2489.464
170.6538, 2479.671
171.1360, 2476.151
171.6181, 2476.604
172.1002, 2481.012
172.5823, 2489.546
173.0644, 2507.599
173.5465, 2529.591
174.0287, 2545.868
174.5108, 2545.030
174.9929, 2539.417
175.4750, 2541.595
175.9571, 2552.381
176.4392, 2571.137
176.9214, 2606.889
177.4035, 2651.832
177.8856, 2684.748
178.3677, 2686.516
178.8498, 2670.647
179.3319, 2658.291
179.8141, 2652.688
180.2962, 2649.125
180.7783, 2640.209
181.2604, 2627.403
181.7425, 2617.534
182.2246, 2618.920
182.7068, 2626.604
183.1889, 2627.563
183.6710, 2615.640
184.1531, 2601.406
184.6352, 2605.231
185.1173, 2626.208
185.5995, 2647.115
186.0816, 2652.185
186.5637, 2645.333
187.0458, 2641.105
187.5279, 2643.743
188.0100, 2650.684
188.4922, 2655.096
188.9743, 2656.698
189.4564, 2660.526
189.9385, 2673.090
190.4206, 2693.293
190.9027, 2712.719
191.3849, 2729.659
191.8670, 2743.943
192.3491, 2752.210
192.8312, 2752.588
193.3133, 2756.607
193.7954, 2782.143
194.2776, 2828.699
194.7597, 2871.497
195.2418, 2898.382
195.7239, 2911.810
196.2060, 2932.951
196.6881, 2962.823
197.1703, 2997.611
197.6524, 3031.601
198.1345, 3064.083
198.6166, 3099.668
199.0987, 3140.757
199.5808, 3187.354
200.0630, 3233.720
200.5451, 3278.376
201.0272, 3324.756
201.5093, 3381.887
201.9914, 3451.880
202.4735, 3521.480
202.9557, 3585.968
203.4378, 3645.546
203.9199, 3698.179
204.4020, 3745.133
204.8841, 3783.912
205.3662, 3808.525
205.8484, 3818.773
206.3305, 3815.478
206.8126, 3799.328
207.2947, 3770.477
207.7768, 3727.106
208.2589, 3666.937
208.7411, 3592.875
209.2232, 3513.119
209.7053, 3424.018
210.1874, 3337.016
210.6695, 3258.331
211.1517, 3189.158
211.6338, 3123.204
212.1159, 3059.543
212.5980, 2998.437
213.0801, 2941.291
213.5622, 2888.892
214.0444, 2839.897
214.5265, 2795.012
215.0086, 2755.752
215.4907, 2713.856
215.9728, 2664.684
216.4549, 2609.644
216.9371, 2569.110
217.4192, 2549.534
217.9013, 2535.479
218.3834, 2511.730
218.8655, 2473.378
219.3476, 2439.069
219.8298, 2413.483
220.3119, 2396.923
220.7940, 2378.534
221.2761, 2356.842
221.7582, 2335.007
222.2403, 2316.774
222.7225, 2305.275
223.2046, 2290.724
223.6867, 2268.873
224.1688, 2238.099
224.6509, 2213.776
225.1330, 2166.480
225.6152, 2181.287
226.0973, 2186.481
226.5794, 2182.577
227.0615, 2142.324
227.5436, 2149.008
228.0257, 2136.881
228.5079, 2123.982
228.9900, 2137.272
229.4721, 2102.305
229.9542, 2115.180
230.4363, 2108.957
230.9184, 2090.100
231.4006, 2076.168
231.8827, 2064.744
232.3648, 2054.408
232.8469, 2046.141
233.3290, 2038.287
233.8111, 2027.795
234.2933, 2013.438
234.7754, 1998.466
235.2575, 1983.676
235.7396, 1968.561
236.2217, 1955.478
236.7038, 1945.437
237.1860, 1936.861
237.6681, 1925.829
238.1502, 1908.263
238.6323, 1894.701
239.1144, 1889.308
239.5965, 1894.907
240.0787, 1902.102
240.5608, 1915.740
241.0429, 1929.193
241.5250, 1925.294
242.0071, 1889.743
242.4892, 1858.477
242.9714, 1848.324
243.4535, 1871.685
243.9356, 1886.536
244.4177, 1890.017
244.8998, 1885.703
245.3819, 1883.023
245.8641, 1883.536
246.3462, 1883.379
246.8283, 1879.960
247.3104, 1869.223
247.7925, 1865.250
248.2746, 1870.998
248.7568, 1883.010
249.2389, 1891.856
249.7210, 1897.978
250.2031, 1900.265
250.6852, 1896.473
251.1674, 1879.765
251.6495, 1874.368
252.1316, 1887.019
252.6137, 1910.403
253.0958, 1920.201
253.5779, 1908.828
254.0601, 1895.613
254.5422, 1890.746
255.0243, 1896.952
255.5064, 1904.440
255.9885, 1912.914
256.4706, 1922.357
256.9528, 1933.534
257.4349, 1948.505
257.9170, 1961.830
258.3991, 1969.649
258.8812, 1968.042
259.3633, 1972.218
259.8455, 1985.832
260.3276, 2005.334
260.8097, 2016.462
261.2918, 2013.010
261.7739, 2012.706
262.2560, 2028.094
262.7382, 2067.928
263.2203, 2096.900
263.7024, 2110.408
264.1845, 2112.469
264.6666, 2116.013
265.1487, 2118.618
265.6309, 2127.677
266.1130, 2150.443
266.5951, 2193.811
267.0772, 2226.099
267.5593, 2241.317
268.0414, 2245.525
268.5236, 2258.874
269.0057, 2283.753
269.4878, 2312.271
269.9699, 2341.006
270.4520, 2370.499
270.9341, 2396.880
271.4163, 2419.385
271.8984, 2438.796
272.3805, 2456.701
272.8626, 2472.291
273.3447, 2489.289
273.8268, 2512.516
274.3090, 2544.138
274.7911, 2565.407
275.2732, 2570.875
275.7553, 2567.246
276.2374, 2573.125
276.7195, 2590.231
277.2017, 2610.434
277.6838, 2630.984
278.1659, 2652.523
278.6480, 2664.941
279.1301, 2663.775
279.6122, 2656.358
280.0944, 2662.006
280.5765, 2682.710
281.0586, 2705.164
281.5407, 2722.296
282.0228, 2734.096
282.5049, 2741.150
282.9871, 2742.279
283.4692, 2740.253
283.9513, 2742.225
284.4334, 2748.771
284.9155, 2752.603
285.3976, 2746.981
285.8798, 2732.854
286.3619, 2723.746
286.8440, 2722.230
287.3261, 2723.815
287.8082, 2721.087
288.2903, 2714.045
288.7725, 2702.621
289.2546, 2686.330
289.7367, 2665.534
290.2188, 2640.318
290.7009, 2609.225
291.1830, 2576.997
291.6652, 2553.253
292.1473, 2537.182
292.6294, 2520.470
293.1115, 2495.384
293.5936, 2465.278
294.0757, 2442.369
294.5579, 2428.483
295.0400, 2419.107
295.5221, 2408.995
296.0042, 2398.077
296.4863, 2386.544
296.9684, 2370.925
297.4506, 2354.874
297.9327, 2347.465
298.4148, 2349.723
298.8969, 2358.538
299.3790, 2372.779
299.8611, 2391.088
300.3433, 2408.470
300.8254, 2421.452
301.3075, 2432.027
301.7896, 2440.952
302.2717, 2447.270
302.7538, 2459.357
303.2360, 2491.436
303.7181, 2536.183
304.2002, 2576.452
304.6823, 2596.412
305.1644, 2610.674
305.6465, 2636.026
306.1287, 2673.850
306.6108, 2717.998
307.0929, 2765.508
307.5750, 2815.634
308.0571, 2869.072
308.5392, 2926.864
309.0214, 2986.772
309.5035, 3046.795
309.9856, 3106.534
310.4677, 3169.445
310.9498, 3234.110
311.4319, 3304.563
311.9141, 3387.315
312.3962, 3494.293
312.8783, 3608.081
313.3604, 3719.549
313.8426, 3827.982
314.3247, 3933.935
314.8068, 4027.640
315.2889, 4121.451
315.7710, 4229.049
316.2531, 4366.500
316.7353, 4509.549
317.2174, 4650.927
317.6995, 4790.034
318.1816, 4922.396
318.6637, 5039.055
319.1458, 5151.899
319.6280, 5270.479
320.1101, 5406.977
320.5922, 5539.579
321.0743, 5664.228
321.5564, 5780.564
322.0385, 5886.725
322.5207, 5998.729
323.0028, 6090.339
323.4849, 6144.175
323.9670, 6141.070
324.4491, 6120.822
324.9312, 6089.251
325.4134, 6045.034
325.8955, 5983.198
326.3776, 5893.996
326.8597, 5793.884
327.3418, 5689.249
327.8239, 5569.016
328.3061, 5462.141
328.7882, 5374.783
329.2703, 5300.869
329.7524, 5224.620
330.2345, 5137.985
330.7166, 5056.929
331.1988, 4987.948
331.6809, 4940.262
332.1630, 4886.193
332.6451, 4819.587
333.1272, 4748.564
333.6093, 4690.569
334.0915, 4656.714
334.5736, 4617.861
335.0557, 4563.073
335.5378, 4488.792
336.0199, 4417.031
336.5020, 4349.098
336.9842, 4281.833
337.4663, 4208.596
337.9484, 4125.648
338.4305, 4046.525
338.9126, 3975.694
339.3947, 3913.536
339.8769, 3846.653
340.3590, 3772.627
340.8411, 3697.645
341.3232, 3625.874
341.8053, 3557.435
342.2874, 3496.361
342.7696, 3446.546
343.2517, 3404.985
343.7338, 3357.869
344.2159, 3302.719
344.6980, 3251.691
345.1801, 3218.924
345.6623, 3203.215
346.1444, 3181.785
346.6265, 3147.462
347.1086, 3107.069
347.5907, 3076.392
348.0728, 3055.900
348.5550, 3037.509
349.0371, 3014.539
349.5192, 2989.020
350.0013, 2965.983
350.4834, 2944.594
350.9655, 2929.754
351.4477, 2931.580
351.9298, 2947.744
352.4119, 2966.798
352.8940, 2984.875
353.3761, 3000.558
353.8582, 3010.401
354.3404, 3013.036
354.8225, 3013.536
355.3046, 3018.961
355.7867, 3026.215
356.2688, 3027.861
356.7509, 3015.525
357.2331, 2998.573
357.7152, 2984.104
358.1973, 2972.364
358.6794, 2966.167
359.1615, 2974.612
359.6436, 2988.102
360.1258, 2993.204
360.6079, 2977.461
361.0900, 2957.952
361.5721, 2944.473
362.0542, 2937.207
362.5363, 2927.856
363.0185, 2907.899
363.5006, 2886.632
363.9827, 2872.611
364.4648, 2874.915
364.9469, 2877.353
365.4290, 2873.590
365.9112, 2865.019
366.3933, 2861.543
366.8754, 2873.886
367.3575, 2885.926
367.8396, 2888.395
368.3217, 2870.348
368.8039, 2855.271
369.2860, 2844.405
369.7681, 2837.455
370.2502, 2833.542
370.7323, 2840.917
371.2144, 2843.004
371.6966, 2832.344
372.1787, 2801.805
372.6608, 2775.925
373.1429, 2751.557
373.6250, 2733.623
374.1071, 2733.241
374.5893, 2764.522
375.0714, 2784.782
375.5535, 2777.532
376.0356, 2740.758
376.5177, 2707.686
376.9998, 2677.086
377.4820, 2652.807
377.9641, 2642.709
378.4462, 2649.429
378.9283, 2652.004
379.4104, 2642.957
379.8925, 2625.830
380.3747, 2618.768
380.8568, 2623.332
381.3389, 2627.906
381.8210, 2621.010
382.3031, 2604.167
382.7852, 2589.807
383.2674, 2581.482
383.7495, 2575.082
384.2316, 2562.097
384.7137, 2543.080
385.1958, 2524.977
385.6779, 2510.641
386.1601, 2500.542
386.6422, 2496.703
387.1243, 2500.121
387.6064, 2506.911
388.0885, 2519.745
388.5706, 2533.554
389.0528, 2534.857
389.5349, 2504.875
390.0170, 2466.264
390.4991, 2441.344
390.9812, 2432.290
391.4633, 2425.627
391.9455, 2410.316
392.4276, 2392.901
392.9097, 2381.695
393.3918, 2391.210
393.8739, 2397.246
394.3561, 2383.652
394.8382, 2352.856
395.3203, 2328.374
395.8024, 2326.371
396.2845, 2329.369
396.7667, 2325.278
397.2488, 2302.478
397.7309, 2284.280
398.2130, 2275.214
398.6951, 2273.894
399.1772, 2275.954
399.6594, 2284.357
400.1415, 2293.147
400.6236, 2300.722
401.1057, 2308.855
401.5878, 2311.120
402.0699, 2301.662
402.5521, 2289.191
403.0342, 2287.092
403.5163, 2301.138
403.9984, 2315.463
404.4805, 2327.038
404.9626, 2335.807
405.4448, 2338.200
405.9269, 2330.149
406.4090, 2323.194
406.8911, 2330.313
407.3732, 2353.993
407.8553, 2374.887
408.3375, 2387.812
408.8196, 2396.558
409.3017, 2416.363
409.7838, 2448.774
410.2659, 2474.902
410.7480, 2473.072
411.2302, 2450.618
411.7123, 2445.842
412.1944, 2465.539
412.6765, 2496.487
413.1586, 2520.144
413.6407, 2539.172
414.1229, 2564.507
414.6050, 2608.819
415.0871, 2660.688
415.5692, 2700.144
416.0513, 2726.474
416.5334, 2752.023
417.0156, 2782.426
417.4977, 2819.682
417.9798, 2866.298
418.4619, 2936.053
418.9440, 3004.751
419.4261, 3054.114
419.9083, 3086.887
420.3904, 3124.784
420.8725, 3186.409
421.3546, 3250.816
421.8367, 3300.595
422.3188, 3318.261
422.8010, 3346.977
423.2831, 3405.927
423.7652, 3482.920
424.2473, 3553.076
424.7294, 3616.477
425.2115, 3669.849
425.6937, 3708.756
426.1758, 3726.035
426.6579, 3756.809
427.1400, 3815.036
427.6221, 3877.702
428.1042, 3922.075
428.5864, 3941.989
429.0685, 3955.033
429.5506, 3959.146
430.0327, 3957.262
430.5148, 3973.273
430.9969, 4011.623
431.4791, 4057.318
431.9612, 4100.520
432.4433, 4141.118
432.9254, 4181.688
433.4075, 4222.437
433.8896, 4262.782
434.3718, 4299.470
434.8539, 4332.745
435.3360, 4371.390
435.8181, 4421.553
436.3002, 4479.875
436.7823, 4539.793
437.2645, 4601.439
437.7466, 4658.603
438.2287, 4701.809
438.7108, 4736.018
439.1929, 4772.706
439.6750, 4820.514
440.1572, 4867.235
440.6393, 4901.473
441.1214, 4924.147
441.6035, 4939.794
442.0856, 4941.543
442.5677, 4942.736
443.0499, 4956.521
443.5320, 4991.560
444.0141, 5023.362
444.4962, 5043.870
444.9783, 5054.567
445.4604, 5057.946
445.9426, 5054.778
446.4247, 5044.229
446.9068, 5027.479
447.3889, 5005.672
447.8710, 4969.710
448.3531, 4910.376
448.8353, 4842.400
449.3174, 4776.570
449.7995, 4722.074
450.2816, 4654.102
450.7637, 4570.926
451.2458, 4472.475
451.7280, 4357.818
452.2101, 4218.276
452.6922, 4084.385
453.1743, 3975.380
453.6564, 3895.601
454.1385, 3800.884
454.6207, 3681.765
455.1028, 3566.948
455.5849, 3508.224
456.0670, 3501.917
456.5491, 3477.767
457.0313, 3391.452
457.5134, 3279.740
457.9955, 3250.959
458.4776, 3301.462
458.9597, 3339.296
459.4418, 3266.012
459.9240, 3136.532
460.4061, 3044.614
460.8882, 3018.002
461.3703, 3015.200
461.8524, 3006.650
462.3345, 2995.066
462.8167, 2986.932
463.2988, 2983.096
463.7809, 2985.438
464.2630, 2996.327
464.7451, 3016.342
465.2272, 3039.151
465.7094, 3064.112
466.1915, 3089.892
466.6736, 3115.595
467.1557, 3134.364
467.6378, 3160.391
468.1199, 3196.975
468.6021, 3243.186
469.0842, 3293.293
469.5663, 3347.810
470.0484, 3405.347
470.5305, 3465.108
471.0126, 3524.892
471.4948, 3593.689
471.9769, 3670.935
472.4590, 3758.428
472.9411, 3861.795
473.4232, 3983.303
473.9053, 4102.677
474.3875, 4208.901
474.8696, 4309.458
475.3517, 4435.471
475.8338, 4588.616
476.3159, 4745.208
476.7981, 4886.286
477.2802, 5016.045
477.7623, 5145.479
478.2444, 5274.130
478.7265, 5409.847
479.2086, 5570.101
479.6908, 5744.391
480.1729, 5904.674
480.6550, 6033.736
481.1371, 6146.111
481.6192, 6250.075
482.1013, 6346.613
482.5835, 6439.215
483.0656, 6538.667
483.5477, 6629.159
484.0298, 6697.505
484.5119, 6745.820
484.9940, 6764.887
485.4762, 6754.977
485.9583, 6714.844
486.4404, 6641.289
486.9225, 6530.367
487.4046, 6388.398
487.8867, 6212.358
488.3689, 5997.802
488.8510, 5769.124
489.3331, 5516.817
489.8152, 5259.762
490.2973, 5015.734
490.7794, 4788.534
491.2616, 4562.349
491.7437, 4331.891
492.2258, 4103.694
492.7079, 3897.191
493.1900, 3714.311
493.6721, 3548.463
494.1543, 3398.836
494.6364, 3264.597
495.1185, 3145.758
495.6006, 3044.886
496.0827, 2955.128
496.5648, 2873.279
497.0470, 2798.451
497.5291, 2731.072
498.0112, 2673.438
498.4933, 2619.671
498.9754, 2564.112
499.4576, 2507.745
499.9397, 2457.470
500.4218, 2417.321
500.9039, 2383.223
501.3860, 2353.199
501.8681, 2329.009
502.3503, 2302.835
502.8324, 2268.486
503.3145, 2232.859
503.7966, 2204.332
504.2787, 2185.773
504.7608, 2171.115
505.2430, 2161.409
505.7251, 2155.654
506.2072, 2145.823
506.6893, 2128.419
507.1714, 2113.287
507.6535, 2107.060
508.1357, 2111.283
508.6178, 2111.749
509.0999, 2107.770
509.5820, 2100.763
510.0641, 2090.251
510.5462, 2076.856
511.0284, 2069.292
511.5105, 2073.819
511.9926, 2083.105
512.4747, 2081.088
512.9568, 2069.185
513.4389, 2059.253
513.9210, 2061.360
514.4031, 2069.374
514.8853, 2075.483
515.3674, 2077.938
515.8495, 2081.202
516.3316, 2088.474
516.8137, 2098.093
517.2958, 2107.763
517.7780, 2116.098
518.2601, 2125.073
518.7422, 2135.065
519.2244, 2146.144
519.7065, 2158.538
520.1886, 2170.227
520.6707, 2184.902
521.1528, 2204.105
521.6349, 2227.936
522.1171, 2256.779
522.5992, 2294.352
523.0813, 2333.215
523.5634, 2363.041
524.0455, 2381.672
524.5276, 2402.596
525.0098, 2428.623
525.4919, 2459.599
525.9740, 2498.011
526.4561, 2544.411
526.9382, 2589.612
527.4203, 2624.182
527.9025, 2654.188
528.3846, 2696.383
528.8667, 2754.768
529.3488, 2811.064
529.8309, 2842.588
530.3130, 2860.873
530.7952, 2885.095
531.2773, 2933.049
531.7594, 2979.151
532.2415, 3008.383
532.7236, 3023.519
533.2057, 3035.234
533.6879, 3048.054
534.1700, 3057.576
534.6521, 3062.522
535.1342, 3064.821
535.6163, 3056.628
536.0984, 3042.380
536.5806, 3014.656
537.0627, 2962.674
537.5448, 2870.868
538.0269, 2792.099
538.5090, 2740.726
538.9911, 2705.535
539.4733, 2651.055
539.9554, 2574.526
540.4375, 2495.275
540.9196, 2421.993
541.4017, 2354.064
541.8839, 2290.941
542.3660, 2232.097
542.8481, 2181.474
543.3302, 2145.691
543.8123, 2119.449
544.2944, 2091.656
544.7766, 2057.417
545.2587, 2023.712
545.7408, 1994.666
546.2229, 1970.770
546.7050, 1952.495
547.1871, 1943.863
547.6693, 1937.647
548.1514, 1930.893
548.6335, 1923.361
549.1156, 1915.411
549.5977, 1906.427
550.0798, 1897.461
550.5620, 1889.115
551.0441, 1879.935
551.5262, 1874.623
552.0083, 1876.006
552.4904, 1879.443
552.9725, 1874.655
553.4547, 1859.770
553.9368, 1846.420
554.4189, 1838.923
554.9010, 1836.115
555.3831, 1834.943
555.8652, 1835.483
556.3474, 1833.842
556.8295, 1822.448
557.3116, 1807.377
557.7937, 1803.136
558.2758, 1814.062
558.7579, 1825.381
559.2401, 1821.956
559.7222, 1811.146
560.2043, 1804.341
560.6864, 1812.727
561.1685, 1819.320
561.6506, 1812.422
562.1328, 1795.549
562.6149, 1787.727
563.0970, 1801.991
563.5791, 1817.747
564.0612, 1826.736
564.5433, 1827.557
565.0255, 1826.396
565.5076, 1820.993
565.9897, 1816.306
566.4718, 1819.800
566.9539, 1834.175
567.4360, 1838.420
567.9182, 1826.233
568.4003, 1805.859
568.8824, 1793.846
569.3645, 1789.943
569.8466, 1789.823
570.3287, 1794.831
570.8109, 1800.909
571.2930, 1799.557
571.7751, 1791.028
572.2572, 1783.536
572.7393, 1781.853
573.2214, 1784.531
573.7036, 1791.807
574.1857, 1809.455
574.6678, 1818.242
575.1499, 1801.901
575.6320, 1774.772
576.1141, 1757.641
576.5963, 1763.442
577.0784, 1768.751
577.5605, 1768.951
578.0426, 1764.991
578.5247, 1763.039
579.0068, 1763.929
579.4890, 1765.153
579.9711, 1765.661
580.4532, 1765.461
580.9353, 1764.311
581.4174, 1762.260
581.8995, 1759.051
582.3817, 1753.013
582.8638, 1745.301
583.3459, 1740.241
583.8280, 1739.184
584.3101, 1740.567
584.7922, 1745.409
585.2744, 1751.497
585.7565, 1753.272
586.2386, 1742.473
586.7207, 1731.250
587.2028, 1727.212
587.6849, 1730.467
588.1671, 1734.306
588.6492, 1741.984
589.1313, 1746.047
589.6134, 1740.712
590.0955, 1717.256
590.5776, 1703.920
591.0598, 1704.414
591.5419, 1711.699
592.0240, 1716.064
592.5061, 1716.127
592.9882, 1721.289
593.4703, 1736.657
593.9525, 1755.262
594.4346, 1756.537
594.9167, 1741.756
595.3988, 1728.848
595.8809, 1731.770
596.3630, 1741.772
596.8452, 1744.609
597.3273, 1739.775
597.8094, 1732.641
598.2915, 1723.895
598.7736, 1716.085
599.2557, 1711.864
599.7379, 1713.109
600.2200, 1715.377
600.7021, 1718.366
601.1842, 1721.374
601.6663, 1723.268
602.1484, 1723.465
602.6306, 1723.291
603.1127, 1722.525
603.5948, 1721.501
604.0769, 1722.019
604.5590, 1724.294
605.0411, 1727.400
605.5233, 1732.351
606.0054, 1738.469
606.4875, 1737.552
606.9696, 1728.894
607.4517, 1720.330
607.9338, 1720.156
608.4160, 1725.505
608.8981, 1730.379
609.3802, 1733.110
609.8623, 1736.421
610.3444, 1745.892
610.8265, 1756.727
611.3087, 1761.070
611.7908, 1744.910
612.2729, 1733.170
612.7550, 1738.686
613.2371, 1758.537
613.7192, 1770.550
614.2014, 1771.366
614.6835, 1767.423
615.1656, 1759.903
615.6477, 1748.041
616.1298, 1740.237
616.6119, 1736.993
617.0941, 1736.665
617.5762, 1736.853
618.0583, 1738.053
618.5404, 1746.163
619.0225, 1764.516
619.5046, 1782.427
619.9868, 1784.858
620.4689, 1776.321
620.9510, 1767.960
621.4331, 1761.599
621.9152, 1759.541
622.3973, 1766.792
622.8795, 1780.659
623.3616, 1790.060
623.8437, 1790.075
624.3258, 1785.893
624.8079, 1777.891
625.2900, 1764.529
625.7722, 1758.419
626.2543, 1763.378
626.7364, 1770.845
627.2185, 1773.871
627.7006, 1771.293
628.1827, 1772.178
628.6649, 1777.953
629.1470, 1785.386
629.6291, 1791.486
630.1112, 1795.657
630.5933, 1794.191
631.0754, 1781.933
631.5576, 1768.207
632.0397, 1766.853
632.5218, 1774.158
633.0039, 1778.519
633.4860, 1770.133
633.9681, 1760.338
634.4503, 1754.176
634.9324, 1751.976
635.4145, 1756.005
635.8966, 1777.931
636.3787, 1797.133
636.8608, 1801.573
637.3430, 1783.739
637.8251, 1772.282
638.3072, 1769.524
638.7893, 1769.780
639.2714, 1764.458
639.7535, 1753.487
640.2357, 1749.726
640.7178, 1757.389
641.1999, 1770.301
641.6820, 1780.687
642.1641, 1788.391
642.6462, 1792.712
643.1284, 1792.681
643.6105, 1789.677
644.0926, 1782.956
644.5747, 1773.472
645.0568, 1766.687
645.5389, 1764.946
646.0211, 1766.283
646.5032, 1770.715
646.9853, 1780.161
647.4674, 1784.923
647.9495, 1781.980
648.4316, 1777.774
648.9138, 1778.478
649.3959, 1785.772
649.8780, 1787.024
650.3601, 1779.390
650.8422, 1769.365
651.3243, 1767.621
651.8065, 1772.561
652.2886, 1775.754
652.7707, 1773.375
653.2528, 1769.298
653.7349, 1766.323
654.2170, 1765.062
654.6992, 1767.414
655.1813, 1778.711
655.6634, 1789.950
656.1455, 1797.037
656.6276, 1799.728
657.1097, 1798.633
657.5919, 1789.065
658.0740, 1780.355
658.5561, 1777.805
659.0382, 1783.790
659.5203, 1784.513
660.0024, 1777.886
660.4846, 1770.920
660.9667, 1771.725
661.4488, 1779.516
661.9309, 1787.987
662.4130, 1797.132
662.8951, 1803.481
663.3773, 1799.502
663.8594, 1789.566
664.3415, 1782.968
664.8236, 1789.019
665.3057, 1794.286
665.7878, 1789.247
666.2700, 1777.022
666.7521, 1768.204
667.2342, 1767.419
667.7163, 1768.480
668.1984, 1768.834
668.6805, 1768.491
669.1627, 1773.172
669.6448, 1785.768
670.1269, 1796.807
670.6090, 1799.866
671.0911, 1795.232
671.5732, 1786.824
672.0554, 1773.813
672.5375, 1764.938
673.0196, 1775.311
673.5017, 1794.925
673.9838, 1802.783
674.4659, 1788.336
674.9481, 1776.702
675.4302, 1791.730
675.9123, 1817.635
676.3944, 1831.589
676.8765, 1815.150
677.3586, 1800.614
677.8408, 1794.012
678.3229, 1793.912
678.8050, 1797.133
679.2871, 1805.198
679.7692, 1812.770
680.2513, 1817.922
680.7335, 1821.085
681.2156, 1824.109
681.6977, 1827.021
682.1799, 1829.675
682.6620, 1831.844
683.1441, 1833.738
683.6262, 1835.969
684.1083, 1838.562
684.5905, 1840.421
685.0726, 1840.082
685.5547, 1839.107
686.0368, 1838.403
686.5189, 1836.287
687.0010, 1838.656
687.4832, 1854.247
687.9653, 1870.129
688.4474, 1871.725
688.9295, 1852.280
689.4116, 1837.821
689.8937, 1831.045
690.3759, 1831.444
690.8580, 1840.826
691.3401, 1858.317
691.8222, 1873.768
692.3043, 1883.568
692.7864, 1889.391
693.2686, 1891.131
693.7507, 1890.415
694.2328, 1893.063
694.7149, 1906.665
695.1970, 1920.511
695.6791, 1928.224
696.1613, 1929.547
696.6434, 1930.111
697.1255, 1928.059
697.6076, 1928.115
698.0897, 1933.684
698.5718, 1946.365
699.0540, 1952.277
699.5361, 1949.786
700.0182, 1945.481
700.5003, 1945.371
700.9824, 1948.769
701.4645, 1951.503
701.9467, 1952.295
702.4288, 1956.401
702.9109, 1974.448
703.3930, 1997.609
703.8751, 2012.469
704.3572, 2010.411
704.8394, 2006.241
705.3215, 2003.096
705.8036, 2001.983
706.2857, 2005.285
706.7678, 2019.598
707.2499, 2027.410
707.7321, 2022.007
708.2142, 2009.162
708.6963, 2009.252
709.1784, 2023.254
709.6605, 2040.616
710.1426, 2059.987
710.6248, 2077.949
711.1069, 2083.142
711.5890, 2077.367
712.0711, 2072.725
712.5532, 2079.618
713.0353, 2089.172
713.5175, 2092.892
713.9996, 2089.770
714.4817, 2089.867
714.9638, 2093.917
715.4459, 2103.911
715.9280, 2121.784
716.4102, 2151.326
716.8923, 2177.175
717.3744, 2201.394
717.8565, 2218.468
718.3386, 2218.840
718.8207, 2204.575
719.3029, 2198.698
719.7850, 2205.482
720.2671, 2217.178
720.7492, 2227.282
721.2313, 2235.438
721.7134, 2240.373
722.1956, 2235.315
722.6777, 2236.350
723.1598, 2256.161
723.6419, 2286.455
724.1240, 2310.978
724.6061, 2324.297
725.0883, 2336.408
725.5704, 2348.423
726.0525, 2360.447
726.5346, 2373.188
727.0167, 2386.845
727.4988, 2399.272
727.9810, 2408.646
728.4631, 2416.497
728.9452, 2425.748
729.4273, 2436.562
729.9094, 2449.994
730.3915, 2470.266
730.8737, 2490.743
731.3558, 2505.607
731.8379, 2514.425
732.3200, 2523.643
732.8021, 2533.075
733.2842, 2545.236
733.7664, 2562.164
734.2485, 2585.697
734.7306, 2605.118
735.2127, 2619.569
735.6948, 2631.926
736.1769, 2640.364
736.6591, 2647.195
737.1412, 2671.735
737.6233, 2718.064
738.1054, 2765.969
738.5875, 2794.971
739.0696, 2813.151
739.5518, 2831.803
740.0339, 2853.800
740.5160, 2876.603
740.9981, 2899.494
741.4802, 2922.802
741.9623, 2946.296
742.4445, 2965.287
742.9266, 2993.766
743.4087, 3036.694
743.8908, 3086.541
744.3729, 3129.532
744.8550, 3165.457
745.3372, 3195.888
745.8193, 3217.904
746.3014, 3239.822
746.7835, 3277.100
747.2656, 3325.163
747.7477, 3371.604
748.2299, 3408.173
748.7120, 3443.054
749.1941, 3480.930
749.6762, 3521.004
750.1583, 3557.798
750.6404, 3590.890
751.1226, 3619.684
751.6047, 3641.548
752.0868, 3657.743
752.5689, 3684.171
753.0510, 3721.924
753.5331, 3760.258
754.0153, 3792.850
754.4974, 3820.880
754.9795, 3846.748
755.4616, 3870.622
755.9437, 3895.995
756.4258, 3934.676
756.9080, 3969.265
757.3901, 3980.997
757.8722, 3962.321
758.3543, 3955.527
758.8364, 3972.719
759.3185, 3999.286
759.8007, 4027.014
760.2828, 4054.772
760.7649, 4090.198
761.2470, 4135.793
761.7291, 4181.802
762.2112, 4210.820
762.6934, 4231.807
763.1755, 4272.101
763.6576, 4335.958
764.1397, 4417.175
764.6218, 4518.932
765.1039, 4632.505
765.5861, 4748.368
766.0682, 4866.279
766.5503, 4982.681
767.0324, 5093.548
767.5145, 5203.579
767.9966, 5316.417
768.4788, 5425.541
768.9609, 5564.518
769.4430, 5744.500
769.9251, 5942.559
770.4072, 6121.149
770.8893, 6284.860
771.3715, 6448.563
771.8536, 6617.991
772.3357, 6790.505
772.8178, 6970.151
773.2999, 7150.480
773.7820, 7318.744
774.2642, 7453.043
774.7463, 7596.305
775.2284, 7764.021
775.7105, 7946.100
776.1926, 8117.988
776.6747, 8283.313
777.1569, 8424.416
777.6390, 8532.918
778.1211, 8615.854
778.6032, 8697.230
779.0853, 8772.093
779.5674, 8816.255
780.0496, 8816.319
780.5317, 8780.059
781.0138, 8707.224
781.4959, 8601.725
781.9780, 8481.556
782.4601, 8345.783
782.9423, 8202.379
783.4244, 8056.110
783.9065, 7905.457
784.3886, 7726.378
784.8707, 7511.403
785.3528, 7302.946
785.8350, 7126.988
786.3171, 6976.348
786.7992, 6816.268
787.2813, 6649.205
787.7634, 6496.683
788.2455, 6373.382
788.7277, 6268.531
789.2098, 6177.509
789.6919, 6099.147
790.1740, 6023.464
790.6561, 5934.420
791.1382, 5861.141
791.6204, 5818.042
792.1025, 5807.388
792.5846, 5803.361
793.0667, 5805.945
793.5488, 5815.380
794.0309, 5826.729
794.5131, 5845.590
794.9952, 5889.123
795.4773, 5958.861
795.9594, 6040.783
796.4415, 6114.224
796.9236, 6202.549
797.4058, 6326.652
797.8879, 6497.658
798.3700, 6679.508
798.8521, 6864.974
799.3342, 7064.008
799.8163, 7280.081
800.2985, 7512.169
800.7806, 7768.685
801.2627, 8052.482
801.7448, 8360.298
802.2269, 8684.665
802.7090, 9028.086
803.1912, 9404.629
803.6733, 9819.275
804.1554, 10235.26
804.6375, 10610.49
805.1196, 10987.88
805.6017, 11407.22
806.0839, 11893.86
806.5660, 12387.54
807.0481, 12885.68
807.5302, 13393.57
808.0123, 13923.70
808.4944, 14476.07
808.9766, 15013.76
809.4587, 15538.74
809.9408, 16026.83
810.4229, 16449.94
810.9050, 16826.02
811.3871, 17186.35
811.8693, 17547.90
812.3514, 17867.55
812.8335, 18119.45
813.3156, 18324.13
813.7977, 18499.15
814.2798, 18624.16
814.7620, 18770.21
815.2441, 18936.14
815.7262, 19127.91
816.2083, 19345.59
816.6904, 19592.71
817.1725, 19892.34
817.6547, 20247.47
818.1368, 20654.69
818.6189, 21116.75
819.1010, 21630.10
819.5831, 22190.16
820.0652, 22762.90
820.5474, 23427.71
821.0295, 24245.34
821.5116, 25129.96
821.9937, 26008.43
822.4758, 26885.52
822.9579, 27743.97
823.4401, 28582.91
823.9222, 29380.84
824.4043, 30130.46
824.8864, 30800.55
825.3685, 31298.00
825.8506, 31535.90
826.3328, 31740.92
826.8149, 32034.73
827.2970, 32394.09
827.7791, 32784.01
828.2612, 33223.88
828.7433, 33663.62
829.2255, 34096.18
829.7076, 34540.41
830.1897, 35056.53
830.6718, 35640.18
831.1539, 36170.45
831.6360, 36652.91
832.1182, 36971.77
832.6003, 37087.92
833.0824, 36919.16
833.5645, 36324.63
834.0466, 35251.22
834.5287, 33772.79
835.0109, 31706.69
835.4930, 29315.41
835.9751, 26919.88
836.4572, 24476.59
836.9393, 22228.99
837.4214, 20208.87
837.9036, 18409.00
838.3857, 16842.63
838.8678, 15484.29
839.3499, 14290.56
839.8320, 13270.42
840.3141, 12386.01
840.7963, 11641.06
841.2784, 11001.96
841.7605, 10438.35
842.2426, 9964.268
842.7247, 9539.286
843.2068, 9168.816
843.6890, 8834.097
844.1711, 8518.512
844.6532, 8220.615
845.1353, 7942.704
845.6174, 7685.357
846.0995, 7446.977
846.5817, 7232.625
847.0638, 7033.303
847.5460, 6833.959
848.0281, 6621.223
848.5102, 6429.302
848.9923, 6290.256
849.4744, 6169.245
849.9565, 6026.316
850.4387, 5839.575
850.9208, 5687.129
851.4029, 5579.407
851.8850, 5491.660
852.3671, 5392.191
852.8492, 5286.892
853.3314, 5199.396
853.8135, 5134.859
854.2956, 5079.208
854.7777, 5026.021
855.2598, 4972.675
855.7419, 4915.091
856.2241, 4849.627
856.7062, 4787.929
857.1883, 4730.039
857.6704, 4676.684
858.1525, 4627.115
858.6346, 4581.066
859.1168, 4544.308
859.5989, 4517.916
860.0810, 4495.487
860.5631, 4474.983
861.0452, 4453.145
861.5273, 4423.562
862.0095, 4383.665
862.4916, 4347.969
862.9737, 4326.853
863.4558, 4308.812
863.9379, 4287.169
864.4200, 4262.011
864.9022, 4230.589
865.3843, 4190.858
865.8664, 4151.622
866.3485, 4120.195
866.8306, 4094.649
867.3127, 4068.584
867.7949, 4041.437
868.2770, 4017.486
868.7591, 4003.361
869.2412, 3990.026
869.7233, 3972.545
870.2054, 3950.523
870.6876, 3917.061
871.1697, 3862.566
871.6518, 3815.141
872.1339, 3797.681
872.6160, 3803.784
873.0981, 3784.844
873.5803, 3741.766
874.0624, 3699.999
874.5445, 3686.971
875.0266, 3675.175
875.5087, 3633.482
875.9908, 3563.518
876.4730, 3508.446
876.9551, 3493.538
877.4372, 3477.798
877.9193, 3446.675
878.4014, 3403.554
878.8835, 3367.563
879.3657, 3338.810
879.8478, 3316.804
880.3299, 3307.546
880.8120, 3301.021
881.2941, 3282.151
881.7762, 3253.749
882.2584, 3225.040
882.7405, 3198.105
883.2226, 3173.326
883.7047, 3150.466
884.1868, 3129.915
884.6689, 3113.347
885.1511, 3101.887
885.6332, 3088.295
886.1153, 3069.351
886.5974, 3048.812
887.0795, 3035.496
887.5616, 3026.377
888.0438, 3013.116
888.5259, 2990.028
889.0080, 2964.584
889.4901, 2938.685
889.9722, 2913.162
890.4543, 2889.905
890.9365, 2870.978
891.4186, 2849.524
891.9007, 2824.056
892.3828, 2796.717
892.8649, 2766.452
893.3470, 2736.502
893.8292, 2720.321
894.3113, 2728.101
894.7934, 2730.008
895.2755, 2698.035
895.7576, 2651.784
896.2397, 2613.311
896.7219, 2589.477
897.2040, 2568.692
897.6861, 2552.205
898.1682, 2536.786
898.6503, 2519.311
899.1324, 2500.025
899.6146, 2479.369
900.0967, 2456.850
900.5788, 2440.245
901.0609, 2442.285
901.5430, 2448.985
902.0251, 2445.646
902.5073, 2427.516
902.9894, 2413.839
903.4715, 2408.761
903.9536, 2405.614
904.4357, 2399.542
904.9178, 2391.051
905.4000, 2391.335
905.8821, 2400.468
906.3642, 2408.405
906.8463, 2404.699
907.3284, 2398.410
907.8105, 2402.765
908.2927, 2416.235
908.7748, 2420.338
909.2569, 2398.723
909.7390, 2379.061
910.2211, 2370.377
910.7032, 2370.671
911.1854, 2371.504
911.6675, 2373.003
912.1496, 2369.561
912.6317, 2354.914
913.1138, 2338.042
913.5959, 2330.815
914.0781, 2330.608
914.5602, 2330.976
915.0423, 2331.340
915.5244, 2329.911
916.0065, 2327.219
916.4886, 2322.114
916.9708, 2310.977
917.4529, 2292.943
917.9350, 2278.413
918.4171, 2270.007
918.8992, 2264.324
919.3813, 2258.090
919.8635, 2251.207
920.3456, 2243.379
920.8277, 2233.967
921.3098, 2225.040
921.7919, 2219.256
922.2740, 2212.762
922.7562, 2200.813
923.2383, 2180.815
923.7204, 2170.166
924.2025, 2170.371
924.6846, 2174.469
925.1667, 2181.953
925.6489, 2186.426
926.1310, 2172.361
926.6131, 2137.424
927.0952, 2112.169
927.5773, 2122.894
928.0594, 2133.780
928.5416, 2123.416
929.0237, 2091.876
929.5058, 2071.212
929.9879, 2061.991
930.4700, 2058.754
930.9521, 2064.125
931.4343, 2070.459
931.9164, 2061.235
932.3985, 2040.485
932.8806, 2023.412
933.3627, 2020.684
933.8448, 2018.810
934.3270, 2012.972
934.8091, 2004.410
935.2912, 1996.243
935.7733, 1988.668
936.2554, 1979.547
936.7375, 1967.713
937.2197, 1955.234
937.7018, 1945.132
938.1839, 1936.489
938.6660, 1927.440
939.1481, 1916.330
939.6302, 1906.399
940.1124, 1900.387
940.5945, 1894.846
941.0766, 1886.030
941.5587, 1872.983
942.0408, 1860.090
942.5229, 1846.729
943.0051, 1838.798
943.4872, 1851.262
943.9693, 1869.222
944.4514, 1864.135
944.9335, 1831.327
945.4156, 1808.486
945.8978, 1825.549
946.3799, 1842.644
946.8620, 1837.435
947.3441, 1811.032
947.8262, 1797.995
948.3083, 1799.580
948.7905, 1799.688
949.2726, 1786.418
949.7547, 1767.856
950.2368, 1752.324
950.7189, 1740.979
951.2010, 1737.609
951.6832, 1754.098
952.1653, 1766.105
952.6474, 1765.233
953.1295, 1757.078
953.6116, 1754.836
954.0938, 1758.922
954.5759, 1755.510
955.0580, 1738.613
955.5401, 1721.729
956.0222, 1722.884
956.5043, 1733.773
956.9865, 1742.615
957.4686, 1747.407
957.9507, 1747.235
958.4328, 1738.841
958.9149, 1728.985
959.3970, 1721.399
959.8792, 1715.984
960.3613, 1722.189
960.8434, 1740.944
961.3255, 1755.093
961.8076, 1742.853
962.2897, 1724.915
962.7719, 1725.352
963.2540, 1744.424
963.7361, 1753.488
964.2182, 1737.601
964.7003, 1724.682
965.1824, 1724.422
965.6646, 1733.517
966.1467, 1741.489
966.6288, 1748.257
967.1109, 1753.672
967.5930, 1757.344
968.0751, 1760.057
968.5573, 1761.891
969.0394, 1763.360
969.5215, 1765.637
970.0036, 1774.096
970.4857, 1772.333
970.9678, 1752.914
971.4500, 1734.026
971.9321, 1743.619
972.4142, 1774.348
972.8963, 1796.860
973.3784, 1806.952
973.8605, 1812.213
974.3427, 1813.613
974.8248, 1815.308
975.3069, 1821.315
975.7890, 1832.500
976.2711, 1841.208
976.7532, 1846.852
977.2354, 1851.741
977.7175, 1855.850
978.1996, 1860.724
978.6817, 1871.607
979.1638, 1887.161
979.6459, 1902.043
980.1281, 1917.706
980.6102, 1927.722
981.0923, 1928.279
981.5744, 1921.484
982.0565, 1908.294
982.5386, 1885.080
983.0208, 1877.312
983.5029, 1893.006
983.9850, 1914.029
984.4671, 1917.083
984.9492, 1909.955
985.4313, 1905.142
985.9135, 1905.934
986.3956, 1906.269
986.8777, 1903.543
987.3598, 1900.623
987.8419, 1900.531
988.3240, 1903.311
988.8062, 1897.902
989.2883, 1884.293
989.7704, 1863.524
990.2525, 1828.895
990.7346, 1792.950
991.2167, 1769.704
991.6989, 1756.943
992.1810, 1744.464
992.6631, 1731.360
993.1452, 1716.000
993.6273, 1696.113
994.1094, 1676.158
994.5916, 1668.323
995.0737, 1669.635
995.5558, 1662.969
996.0379, 1640.314
996.5200, 1603.274
997.0021, 1622.460
997.4843, 1632.031
997.9664, 1632.504
998.4485, 1596.628
998.9306, 1607.688
999.4127, 1599.939
999.8948, 1591.419
1000.377, 1609.085
1000.859, 1578.497
1001.341, 1595.749
1001.823, 1593.905
1002.305, 1600.800
1002.788, 1588.763
1003.270, 1582.578
1003.752, 1595.326
1004.234, 1597.590
1004.716, 1583.380
1005.198, 1590.831
1005.680, 1559.582
1006.162, 1562.293
1006.644, 1579.656
1007.127, 1572.891
1007.609, 1588.951
1008.091, 1594.236
1008.573, 1578.026
1009.055, 1568.733
1009.537, 1572.746
1010.019, 1580.110
1010.501, 1584.843
1010.984, 1586.904
1011.466, 1584.344
1011.948, 1577.521
1012.430, 1572.458
1012.912, 1574.541
1013.394, 1578.538
1013.876, 1581.411
1014.358, 1583.083
1014.841, 1584.172
1015.323, 1585.116
1015.805, 1584.063
1016.287, 1579.765
1016.769, 1574.972
1017.251, 1573.418
1017.733, 1575.036
1018.215, 1580.705
1018.697, 1592.833
1019.180, 1601.899
1019.662, 1602.205
1020.144, 1599.399
1020.626, 1597.627
1021.108, 1597.104
1021.590, 1591.867
1022.072, 1581.453
1022.554, 1577.453
1023.036, 1596.671
1023.519, 1619.621
1024.001, 1625.613
1024.483, 1617.189
1024.965, 1605.780
1025.447, 1588.184
1025.929, 1576.535
1026.411, 1573.181
1026.893, 1576.042
1027.375, 1585.543
1027.858, 1598.619
1028.340, 1601.440
1028.822, 1589.117
1029.304, 1578.077
1029.786, 1580.133
1030.268, 1586.665
1030.750, 1591.372
1031.232, 1594.132
1031.715, 1593.283
1032.197, 1587.967
1032.679, 1584.686
1033.161, 1588.626
1033.643, 1595.993
1034.125, 1601.487
1034.607, 1605.657
1035.089, 1609.977
1035.572, 1617.117
1036.054, 1621.386
1036.536, 1621.118
1037.018, 1618.673
1037.500, 1616.250
1037.982, 1614.258
1038.464, 1618.585
1038.946, 1631.055
1039.428, 1636.877
1039.911, 1612.906
1040.393, 1586.854
1040.875, 1585.134
1041.357, 1609.423
1041.839, 1618.296
1042.321, 1607.511
1042.803, 1597.806
1043.285, 1599.755
1043.767, 1606.310
1044.250, 1602.329
1044.732, 1593.282
1045.214, 1591.343
1045.696, 1608.002
1046.178, 1622.320
1046.660, 1632.729
1047.142, 1637.385
1047.624, 1631.079
1048.107, 1614.998
1048.589, 1610.191
1049.071, 1617.844
1049.553, 1626.032
1050.035, 1624.988
1050.517, 1621.752
1050.999, 1621.914
1051.481, 1625.181
1051.964, 1626.213
1052.446, 1624.297
1052.928, 1622.512
1053.410, 1622.055
1053.892, 1621.379
1054.374, 1616.414
1054.856, 1609.772
1055.338, 1606.670
1055.820, 1609.566
1056.302, 1612.857
1056.785, 1615.905
1057.267, 1618.013
1057.749, 1618.703
1058.231, 1618.002
1058.713, 1616.509
1059.195, 1614.176
1059.677, 1610.379
1060.159, 1600.918
1060.642, 1593.558
1061.124, 1595.465
1061.606, 1603.400
1062.088, 1608.979
1062.570, 1613.253
1063.052, 1608.920
1063.534, 1591.754
1064.016, 1576.946
1064.499, 1588.502
1064.981, 1612.013
1065.463, 1624.207
1065.945, 1621.642
1066.427, 1615.548
1066.909, 1606.799
1067.391, 1597.624
1067.873, 1588.182
1068.355, 1579.234
1068.838, 1576.111
1069.320, 1577.129
1069.802, 1571.841
1070.284, 1549.152
1070.766, 1531.263
1071.248, 1536.251
1071.730, 1551.003
1072.212, 1560.140
1072.694, 1563.495
1073.177, 1558.266
1073.659, 1542.692
1074.141, 1530.836
1074.623, 1539.677
1075.105, 1554.596
1075.587, 1558.406
1076.069, 1551.575
1076.551, 1540.223
1077.034, 1515.800
1077.516, 1503.499
1077.998, 1510.879
1078.480, 1527.085
1078.962, 1536.204
1079.444, 1538.904
1079.926, 1534.958
1080.408, 1522.919
1080.891, 1515.146
1081.373, 1524.965
1081.855, 1534.632
1082.337, 1533.288
1082.819, 1521.898
1083.301, 1509.782
1083.783, 1497.009
1084.265, 1490.092
1084.747, 1495.042
1085.229, 1502.790
1085.712, 1506.230
1086.194, 1506.464
1086.676, 1504.980
1087.158, 1500.484
1087.640, 1497.874
1088.122, 1497.535
1088.604, 1498.058
1089.086, 1498.250
1089.569, 1498.449
1090.051, 1500.366
1090.533, 1503.359
1091.015, 1503.292
1091.497, 1492.351
1091.979, 1486.600
1092.461, 1491.251
1092.943, 1501.234
1093.426, 1508.482
1093.908, 1512.792
1094.390, 1512.492
1094.872, 1506.790
1095.354, 1500.033
1095.836, 1492.559
1096.318, 1487.250
1096.800, 1487.202
1097.282, 1491.841
1097.765, 1492.237
1098.247, 1488.080
1098.729, 1485.093
1099.211, 1485.770
1099.693, 1488.771
1100.175, 1495.542
1100.657, 1502.735
1101.139, 1504.770
1101.622, 1497.507
1102.104, 1491.608
1102.586, 1487.256
1103.068, 1484.026
1103.550, 1480.587
1104.032, 1478.479
1104.514, 1484.048
1104.996, 1494.837
1105.479, 1498.677
1105.961, 1478.362
1106.443, 1467.876
1106.925, 1478.704
1107.407, 1497.310
1107.889, 1500.754
1108.371, 1492.128
1108.853, 1487.498
1109.335, 1489.371
1109.818, 1490.982
1110.300, 1487.073
1110.782, 1482.384
1111.264, 1479.225
1111.746, 1477.761
1112.228, 1479.865
1112.710, 1485.666
1113.192, 1490.876
1113.674, 1494.696
1114.157, 1495.737
1114.639, 1488.578
1115.121, 1479.874
1115.603, 1479.304
1116.085, 1493.245
1116.567, 1492.859
1117.049, 1473.994
1117.531, 1457.399
1118.014, 1459.736
1118.496, 1470.666
1118.978, 1473.032
1119.460, 1469.782
1119.942, 1468.523
1120.424, 1476.570
1120.906, 1478.905
1121.388, 1471.694
1121.870, 1463.056
1122.353, 1462.557
1122.835, 1467.825
1123.317, 1471.740
1123.799, 1473.955
1124.281, 1476.375
1124.763, 1482.244
1125.245, 1485.520
1125.727, 1482.342
1126.209, 1476.472
1126.692, 1477.870
1127.174, 1485.406
1127.656, 1487.952
1128.138, 1482.456
1128.620, 1476.508
1129.102, 1478.636
1129.584, 1479.821
1130.066, 1468.535
1130.549, 1446.778
1131.031, 1447.639
1131.513, 1473.002
1131.995, 1492.636
1132.477, 1493.273
1132.959, 1485.117
1133.441, 1472.695
1133.923, 1460.689
1134.406, 1456.292
1134.888, 1462.564
1135.370, 1469.613
1135.852, 1477.940
1136.334, 1484.867
1136.816, 1486.820
1137.298, 1487.354
1137.780, 1494.098
1138.262, 1504.277
1138.745, 1509.782
1139.227, 1503.942
1139.709, 1500.083
1140.191, 1501.177
1140.673, 1500.514
1141.155, 1484.826
1141.637, 1462.953
1142.119, 1462.517
1142.601, 1482.564
1143.084, 1493.083
1143.566, 1466.524
1144.048, 1448.249
1144.530, 1454.304
1145.012, 1472.026
1145.494, 1475.433
1145.976, 1468.067
1146.458, 1467.639
1146.941, 1478.339
1147.423, 1487.426
1147.905, 1486.563
1148.387, 1482.733
1148.869, 1478.957
1149.351, 1475.867
1149.833, 1478.891
1150.315, 1487.335
1150.797, 1490.410
1151.280, 1481.968
1151.762, 1473.758
1152.244, 1480.201
1152.726, 1487.318
1153.208, 1477.717
1153.690, 1447.974
1154.172, 1441.840
1154.654, 1460.320
1155.136, 1479.326
1155.619, 1486.399
1156.101, 1486.790
1156.583, 1480.611
1157.065, 1472.597
1157.547, 1472.500
1158.029, 1485.680
1158.511, 1490.745
1158.993, 1485.828
1159.476, 1480.230
1159.958, 1484.741
1160.440, 1490.892
1160.922, 1484.590
1161.404, 1469.829
1161.886, 1464.057
1162.368, 1477.323
1162.850, 1481.934
1163.333, 1471.701
1163.815, 1460.181
1164.297, 1466.416
1164.779, 1480.777
1165.261, 1486.725
1165.743, 1483.292
1166.225, 1479.483
1166.707, 1477.509
1167.189, 1475.356
1167.672, 1472.488
1168.154, 1469.303
1168.636, 1466.041
1169.118, 1463.173
1169.600, 1460.540
1170.082, 1457.283
1170.564, 1461.354
1171.046, 1487.815
1171.528, 1505.913
1172.011, 1500.652
1172.493, 1481.030
1172.975, 1471.574
1173.457, 1470.304
1173.939, 1470.634
1174.421, 1470.898
1174.903, 1471.555
1175.385, 1473.722
1175.868, 1475.415
1176.350, 1475.699
1176.832, 1474.491
1177.314, 1469.218
1177.796, 1461.193
1178.278, 1457.959
1178.760, 1470.633
1179.242, 1478.053
1179.724, 1461.681
1180.207, 1442.971
1180.689, 1443.451
1181.171, 1462.756
1181.653, 1474.198
1182.135, 1477.720
1182.617, 1475.490
1183.099, 1460.839
1183.581, 1449.656
1184.063, 1454.146
1184.546, 1465.324
1185.028, 1470.701
1185.510, 1470.227
1185.992, 1465.148
1186.474, 1455.447
1186.956, 1448.165
1187.438, 1449.507
1187.920, 1453.862
1188.403, 1461.341
1188.885, 1468.071
1189.367, 1461.932
1189.849, 1441.476
1190.331, 1433.462
1190.813, 1442.870
1191.295, 1455.549
1191.777, 1461.645
1192.260, 1464.117
1192.742, 1464.044
1193.224, 1462.213
1193.706, 1463.280
1194.188, 1468.045
1194.670, 1466.037
1195.152, 1452.810
1195.634, 1440.629
1196.116, 1440.420
1196.599, 1447.886
1197.081, 1463.500
1197.563, 1486.449
1198.045, 1489.876
1198.527, 1471.062
1199.009, 1459.800
1199.491, 1471.245
1199.973, 1483.389
1200.455, 1467.002
1200.938, 1441.303
1201.420, 1429.898
1201.902, 1436.449
1202.384, 1443.885
1202.866, 1452.797
1203.348, 1457.767
1203.830, 1453.885
1204.312, 1448.095
1204.795, 1450.115
1205.277, 1454.503
1205.759, 1451.495
1206.241, 1434.874
1206.723, 1433.728
1207.205, 1450.426
1207.687, 1466.610
1208.169, 1469.532
1208.651, 1467.167
1209.134, 1469.047
1209.616, 1472.170
1210.098, 1470.196
1210.580, 1461.176
1211.062, 1450.019
1211.544, 1435.162
1212.026, 1427.647
1212.508, 1443.480
1212.990, 1465.195
1213.473, 1474.777
1213.955, 1474.355
1214.437, 1470.543
1214.919, 1465.332
1215.401, 1450.714
1215.883, 1423.097
1216.365, 1403.151
1216.847, 1418.690
1217.330, 1444.000
1217.812, 1450.587
1218.294, 1441.476
1218.776, 1434.259
1219.258, 1429.323
1219.740, 1430.345
1220.222, 1439.071
1220.704, 1446.990
1221.187, 1442.419
1221.669, 1434.709
1222.151, 1435.123
1222.633, 1442.695
1223.115, 1445.065
1223.597, 1440.267
1224.079, 1436.636
1224.561, 1435.601
1225.043, 1436.520
1225.526, 1441.020
1226.008, 1445.460
1226.490, 1443.636
1226.972, 1436.094
1227.454, 1439.767
1227.936, 1458.464
1228.418, 1467.022
1228.900, 1456.585
1229.382, 1443.896
1229.865, 1450.484
1230.347, 1462.752
1230.829, 1465.629
1231.311, 1457.877
1231.793, 1452.104
1232.275, 1448.268
1232.757, 1446.953
1233.239, 1449.340
1233.722, 1451.289
1234.204, 1448.862
1234.686, 1443.309
1235.168, 1434.732
1235.650, 1423.207
1236.132, 1414.705
1236.614, 1409.216
1237.096, 1408.060
1237.578, 1413.046
1238.061, 1419.617
1238.543, 1423.325
1239.025, 1426.519
1239.507, 1433.233
1239.989, 1443.892
1240.471, 1443.954
1240.953, 1433.131
1241.435, 1426.225
1241.917, 1432.198
1242.400, 1440.263
1242.882, 1443.909
1243.364, 1443.278
1243.846, 1437.181
1244.328, 1425.219
1244.810, 1421.798
1245.292, 1426.656
1245.774, 1432.077
1246.257, 1434.719
1246.739, 1436.179
1247.221, 1437.267
1247.703, 1437.860
1248.185, 1437.622
1248.667, 1436.497
1249.149, 1437.351
1249.631, 1439.934
1250.114, 1441.771
1250.596, 1442.253
1251.078, 1440.684
1251.560, 1432.236
1252.042, 1425.070
1252.524, 1429.779
1253.006, 1445.239
1253.488, 1445.988
1253.970, 1434.261
1254.453, 1427.534
1254.935, 1441.545
1255.417, 1454.281
1255.899, 1458.602
1256.381, 1457.188
1256.863, 1449.575
1257.345, 1437.570
1257.827, 1432.304
1258.310, 1433.523
1258.792, 1438.268
1259.274, 1452.743
1259.756, 1459.355
1260.238, 1450.290
1260.720, 1438.184
1261.202, 1436.927
1261.684, 1443.104
1262.167, 1446.993
1262.649, 1447.939
1263.131, 1444.843
1263.613, 1430.668
1264.095, 1422.203
1264.577, 1422.322
1265.059, 1427.464
1265.541, 1436.545
1266.023, 1446.663
1266.505, 1453.192
1266.988, 1455.259
1267.470, 1450.067
1267.952, 1426.455
1268.434, 1414.542
1268.916, 1419.336
1269.398, 1429.871
1269.880, 1436.558
1270.362, 1440.526
1270.845, 1444.374
1271.327, 1447.356
1271.809, 1444.376
1272.291, 1432.233
1272.773, 1422.620
1273.255, 1416.491
1273.737, 1415.482
1274.219, 1427.826
1274.702, 1440.951
1275.184, 1438.883
1275.666, 1425.375
1276.148, 1419.234
1276.630, 1422.172
1277.112, 1425.946
1277.594, 1429.779
1278.076, 1431.981
1278.558, 1430.378
1279.041, 1427.196
1279.523, 1422.565
1280.005, 1418.173
1280.487, 1418.721
1280.969, 1424.314
1281.451, 1428.768
1281.933, 1431.313
1282.415, 1431.021
1282.897, 1421.286
1283.380, 1415.085
1283.862, 1422.818
1284.344, 1436.859
1284.826, 1443.827
1285.308, 1444.116
1285.790, 1437.961
1286.272, 1425.580
1286.754, 1418.347
1287.237, 1431.761
1287.719, 1438.853
1288.201, 1427.232
1288.683, 1409.700
1289.165, 1410.564
1289.647, 1422.949
1290.129, 1426.561
1290.611, 1419.836
1291.094, 1417.187
1291.576, 1427.899
1292.058, 1437.180
1292.540, 1442.934
1293.022, 1444.427
1293.504, 1437.309
1293.986, 1426.877
1294.468, 1420.923
1294.950, 1420.165
1295.432, 1424.944
1295.915, 1440.565
1296.397, 1442.971
1296.879, 1424.764
1297.361, 1405.022
1297.843, 1406.144
1298.325, 1416.462
1298.807, 1426.976
1299.289, 1435.378
1299.772, 1432.980
1300.254, 1417.511
1300.736, 1412.055
1301.218, 1421.333
1301.700, 1433.367
1302.182, 1441.672
1302.664, 1444.944
1303.146, 1439.178
1303.629, 1428.412
1304.111, 1419.739
1304.593, 1413.336
1305.075, 1413.106
1305.557, 1419.741
1306.039, 1424.554
1306.521, 1416.757
1307.003, 1413.304
1307.485, 1424.956
1307.968, 1439.638
1308.450, 1431.625
1308.932, 1408.809
1309.414, 1393.896
1309.896, 1389.704
1310.378, 1393.152
1310.860, 1411.264
1311.342, 1425.025
1311.824, 1431.003
1312.307, 1430.544
1312.789, 1422.331
1313.271, 1410.503
1313.753, 1399.106
1314.235, 1389.705
1314.717, 1392.167
1315.199, 1412.460
1315.681, 1423.126
1316.164, 1417.899
1316.646, 1410.556
1317.128, 1421.031
1317.610, 1431.222
##END=



