##NAMES=Conichalcite
##RRUFFID=R040167
##IDEAL CHEMISTRY=CaCu^2+^As^5+^O_4_(OH)
##LOCALITY=Ojuela mine, Mapimi, Durango, Mexico
##OWNER=RRUFF
##SOURCE=University of Arizona Mineral Museum
##DESCRIPTION=Green druse
##STATUS=The identification of this mineral is confirmed by single-crystal X-ray diffraction and chemical analysis.
##URL=rruff.info/R040167
##MEASURED CHEMISTRY=Ca_1.00_(Cu_0.70_Zn_0.30_)_Î£=1_(As_1.00_O_4_)(OH) ; OH estimated by difference and stoichiometry
123.1454, 153.6236
123.6275, 161.6487
124.1096, 174.8733
124.5917, 192.0866
125.0739, 208.3423
125.5560, 219.1020
126.0381, 226.6661
126.5202, 235.6169
127.0023, 246.5698
127.4844, 259.7511
127.9666, 276.5137
128.4487, 296.8178
128.9308, 317.5528
129.4129, 335.7635
129.8950, 351.9092
130.3772, 367.3637
130.8593, 382.4385
131.3414, 397.2508
131.8235, 412.1709
132.3056, 427.0113
132.7877, 442.1524
133.2699, 457.9600
133.7520, 474.5117
134.2341, 491.6202
134.7162, 509.7117
135.1983, 528.8702
135.6804, 546.5220
136.1626, 562.4163
136.6447, 576.8710
137.1268, 589.9352
137.6089, 600.9642
138.0910, 612.5373
138.5731, 627.1091
139.0553, 646.8513
139.5374, 659.7807
140.0195, 663.1531
140.5016, 659.4873
140.9837, 658.4473
141.4658, 661.0790
141.9480, 664.6748
142.4301, 667.2396
142.9122, 667.7005
143.3943, 669.4234
143.8764, 673.1027
144.3585, 678.6662
144.8407, 684.1668
145.3228, 688.7629
145.8049, 693.9049
146.2870, 700.9218
146.7691, 710.2741
147.2512, 720.7500
147.7334, 731.7606
148.2155, 742.9943
148.6976, 756.7214
149.1797, 776.1982
149.6618, 797.2743
150.1439, 814.3065
150.6261, 821.6476
151.1082, 829.8179
151.5903, 841.9107
152.0724, 860.7413
152.5545, 877.2567
153.0366, 886.9589
153.5188, 893.9762
154.0009, 906.3676
154.4830, 931.6714
154.9651, 957.9594
155.4472, 979.9771
155.9293, 993.2447
156.4115, 1007.743
156.8936, 1026.031
157.3757, 1047.280
157.8578, 1068.845
158.3399, 1092.862
158.8221, 1115.248
159.3042, 1133.584
159.7863, 1145.782
160.2684, 1155.299
160.7505, 1162.394
161.2326, 1167.363
161.7148, 1171.985
162.1969, 1177.195
162.6790, 1182.379
163.1611, 1186.884
163.6432, 1195.031
164.1253, 1198.916
164.6075, 1190.878
165.0896, 1170.519
165.5717, 1153.483
166.0538, 1151.579
166.5359, 1157.976
167.0180, 1162.851
167.5002, 1159.697
167.9823, 1155.045
168.4644, 1153.874
168.9465, 1156.808
169.4286, 1161.418
169.9107, 1165.357
170.3929, 1169.621
170.8750, 1176.418
171.3571, 1190.535
171.8392, 1206.102
172.3213, 1215.831
172.8034, 1217.199
173.2856, 1217.723
173.7677, 1225.180
174.2498, 1237.939
174.7319, 1250.255
175.2140, 1256.932
175.6961, 1261.372
176.1783, 1269.523
176.6604, 1284.340
177.1425, 1299.611
177.6246, 1305.446
178.1067, 1303.304
178.5888, 1303.082
179.0710, 1314.304
179.5531, 1332.668
180.0352, 1349.214
180.5173, 1363.585
180.9994, 1373.116
181.4815, 1370.721
181.9637, 1356.683
182.4458, 1340.594
182.9279, 1331.584
183.4100, 1327.565
183.8921, 1320.243
184.3742, 1305.090
184.8564, 1286.042
185.3385, 1274.030
185.8206, 1269.519
186.3027, 1265.152
186.7848, 1250.214
187.2669, 1226.663
187.7491, 1209.124
188.2312, 1207.259
188.7133, 1215.580
189.1954, 1211.380
189.6775, 1192.381
190.1596, 1171.152
190.6418, 1162.852
191.1239, 1167.334
191.6060, 1175.702
192.0881, 1186.482
192.5702, 1199.064
193.0524, 1207.601
193.5345, 1211.350
194.0166, 1212.949
194.4987, 1214.513
194.9808, 1215.693
195.4629, 1222.123
195.9451, 1237.516
196.4272, 1261.904
196.9093, 1287.684
197.3914, 1315.250
197.8735, 1343.219
198.3556, 1368.565
198.8378, 1390.768
199.3199, 1413.112
199.8020, 1437.159
200.2841, 1462.758
200.7662, 1488.509
201.2483, 1512.825
201.7305, 1538.619
202.2126, 1574.080
202.6947, 1620.916
203.1768, 1671.051
203.6589, 1721.328
204.1410, 1771.998
204.6232, 1817.450
205.1053, 1855.938
205.5874, 1889.415
206.0695, 1923.564
206.5516, 1957.540
207.0337, 1994.408
207.5159, 2040.099
207.9980, 2098.359
208.4801, 2143.198
208.9622, 2169.084
209.4443, 2179.133
209.9264, 2189.639
210.4086, 2203.931
210.8907, 2211.980
211.3728, 2204.473
211.8549, 2177.100
212.3370, 2149.096
212.8191, 2125.203
213.3013, 2103.890
213.7834, 2068.668
214.2655, 2013.983
214.7476, 1954.089
215.2297, 1901.836
215.7118, 1858.895
216.1940, 1817.553
216.6761, 1776.571
217.1582, 1735.838
217.6403, 1697.069
218.1224, 1661.486
218.6045, 1626.834
219.0867, 1589.530
219.5688, 1545.122
220.0509, 1509.569
220.5330, 1489.105
221.0151, 1483.845
221.4972, 1475.216
221.9794, 1462.738
222.4615, 1447.360
222.9436, 1429.164
223.4257, 1405.377
223.9078, 1384.498
224.3899, 1370.567
224.8721, 1364.508
225.3542, 1350.458
225.8363, 1325.285
226.3184, 1294.993
226.8005, 1265.827
227.2827, 1237.628
227.7648, 1211.386
228.2469, 1188.650
228.7290, 1170.695
229.2111, 1146.247
229.6932, 1110.347
230.1754, 1072.262
230.6575, 1044.284
231.1396, 1031.800
231.6217, 1020.250
232.1038, 1005.218
232.5859, 985.3967
233.0681, 969.1703
233.5502, 957.3115
234.0323, 948.5291
234.5144, 941.2294
234.9965, 937.0827
235.4786, 931.5868
235.9608, 922.2219
236.4429, 907.0159
236.9250, 898.0366
237.4071, 898.7010
237.8892, 903.5464
238.3713, 903.8998
238.8535, 897.9516
239.3356, 890.4913
239.8177, 882.5118
240.2998, 873.2537
240.7819, 866.3262
241.2640, 861.6806
241.7462, 859.2793
242.2283, 859.5847
242.7104, 865.4827
243.1925, 869.2784
243.6746, 867.3500
244.1567, 856.4070
244.6389, 851.1838
245.1210, 853.5109
245.6031, 860.4381
246.0852, 867.0209
246.5673, 873.4906
247.0494, 879.2275
247.5316, 884.1102
248.0137, 888.3217
248.4958, 890.9831
248.9779, 891.6130
249.4600, 890.9450
249.9421, 890.2126
250.4243, 889.1381
250.9064, 888.4869
251.3885, 888.6235
251.8706, 889.8311
252.3527, 890.5665
252.8348, 889.2594
253.3170, 888.4307
253.7991, 894.0332
254.2812, 910.7052
254.7633, 924.7800
255.2454, 930.0807
255.7275, 923.1809
256.2097, 919.9350
256.6918, 920.5704
257.1739, 924.7299
257.6560, 932.7353
258.1381, 947.4379
258.6202, 960.1123
259.1024, 966.8234
259.5845, 965.5305
260.0666, 966.5457
260.5487, 970.5503
261.0308, 976.3491
261.5129, 981.4774
261.9951, 984.5181
262.4772, 990.2393
262.9593, 1002.261
263.4414, 1023.753
263.9235, 1035.928
264.4056, 1035.104
264.8878, 1028.516
265.3699, 1029.572
265.8520, 1041.086
266.3341, 1052.260
266.8162, 1059.045
267.2983, 1060.883
267.7805, 1060.992
268.2626, 1057.999
268.7447, 1054.817
269.2268, 1056.616
269.7089, 1064.137
270.1910, 1074.009
270.6732, 1086.564
271.1553, 1102.569
271.6374, 1112.408
272.1195, 1114.519
272.6016, 1112.762
273.0837, 1113.067
273.5659, 1115.705
274.0480, 1119.013
274.5301, 1122.724
275.0122, 1126.868
275.4943, 1129.463
275.9764, 1129.506
276.4586, 1129.891
276.9407, 1136.539
277.4228, 1150.394
277.9049, 1161.619
278.3870, 1165.089
278.8691, 1161.224
279.3513, 1159.833
279.8334, 1161.301
280.3155, 1164.253
280.7976, 1166.897
281.2798, 1169.178
281.7619, 1171.984
282.2440, 1176.922
282.7261, 1183.219
283.2082, 1183.758
283.6903, 1177.283
284.1725, 1169.674
284.6546, 1169.948
285.1367, 1177.698
285.6188, 1182.041
286.1009, 1176.594
286.5830, 1164.379
287.0652, 1159.095
287.5473, 1161.551
288.0294, 1166.397
288.5115, 1170.740
288.9936, 1173.779
289.4757, 1168.586
289.9579, 1147.103
290.4400, 1117.137
290.9221, 1101.076
291.4042, 1099.690
291.8863, 1102.598
292.3684, 1099.631
292.8506, 1092.059
293.3327, 1085.381
293.8148, 1081.585
294.2969, 1079.556
294.7790, 1077.165
295.2611, 1074.400
295.7433, 1071.583
296.2254, 1070.119
296.7075, 1068.900
297.1896, 1064.499
297.6717, 1052.743
298.1538, 1039.958
298.6360, 1036.813
299.1181, 1042.673
299.6002, 1050.364
300.0823, 1054.759
300.5644, 1057.088
301.0465, 1059.402
301.5287, 1060.883
302.0108, 1064.260
302.4929, 1073.157
302.9750, 1087.087
303.4571, 1102.730
303.9392, 1118.879
304.4214, 1135.174
304.9035, 1151.297
305.3856, 1166.012
305.8677, 1181.827
306.3498, 1200.828
306.8319, 1222.526
307.3141, 1245.682
307.7962, 1267.251
308.2783, 1290.665
308.7604, 1320.065
309.2425, 1357.015
309.7246, 1397.142
310.2068, 1438.909
310.6889, 1481.969
311.1710, 1525.859
311.6531, 1571.593
312.1352, 1617.390
312.6173, 1660.276
313.0995, 1696.598
313.5816, 1737.936
314.0637, 1793.420
314.5458, 1857.703
315.0279, 1921.110
315.5100, 1973.652
315.9922, 2029.078
316.4743, 2095.184
316.9564, 2174.329
317.4385, 2258.101
317.9206, 2347.022
318.4027, 2438.168
318.8849, 2527.454
319.3670, 2612.543
319.8491, 2696.679
320.3312, 2782.615
320.8133, 2872.315
321.2954, 2954.628
321.7776, 3026.414
322.2597, 3090.792
322.7418, 3151.088
323.2239, 3209.499
323.7060, 3262.149
324.1881, 3312.365
324.6703, 3361.679
325.1524, 3389.186
325.6345, 3381.280
326.1166, 3357.070
326.5987, 3331.880
327.0808, 3312.346
327.5630, 3284.194
328.0451, 3244.736
328.5272, 3194.267
329.0093, 3138.193
329.4914, 3070.835
329.9735, 3004.341
330.4557, 2946.776
330.9378, 2899.574
331.4199, 2859.018
331.9020, 2826.902
332.3841, 2801.384
332.8662, 2772.866
333.3484, 2738.394
333.8305, 2705.830
334.3126, 2679.721
334.7947, 2662.605
335.2768, 2645.137
335.7589, 2627.503
336.2411, 2608.947
336.7232, 2586.312
337.2053, 2558.258
337.6874, 2530.500
338.1695, 2506.416
338.6516, 2487.077
339.1338, 2463.100
339.6159, 2432.922
340.0980, 2400.634
340.5801, 2374.836
341.0622, 2356.045
341.5443, 2336.042
342.0265, 2310.184
342.5086, 2279.396
342.9907, 2248.627
343.4728, 2217.086
343.9549, 2189.718
344.4370, 2178.718
344.9192, 2181.745
345.4013, 2175.077
345.8834, 2144.782
346.3655, 2100.487
346.8476, 2067.416
347.3297, 2045.758
347.8119, 2032.234
348.2940, 2026.941
348.7761, 2027.956
349.2582, 2030.378
349.7403, 2036.754
350.2225, 2039.900
350.7046, 2025.386
351.1867, 1995.309
351.6688, 1966.833
352.1509, 1955.304
352.6331, 1952.454
353.1152, 1945.104
353.5973, 1927.337
354.0794, 1910.039
354.5615, 1904.597
355.0436, 1907.978
355.5258, 1910.955
356.0079, 1910.588
356.4900, 1906.418
356.9721, 1897.453
357.4542, 1882.587
357.9363, 1866.153
358.4185, 1852.567
358.9006, 1838.848
359.3827, 1819.838
359.8648, 1785.929
360.3469, 1752.233
360.8290, 1726.814
361.3112, 1711.016
361.7933, 1698.226
362.2754, 1692.135
362.7575, 1685.671
363.2396, 1671.087
363.7217, 1634.453
364.2039, 1601.900
364.6860, 1582.840
365.1681, 1577.505
365.6502, 1568.409
366.1323, 1550.859
366.6144, 1530.500
367.0966, 1511.122
367.5787, 1492.840
368.0608, 1475.787
368.5429, 1459.281
369.0250, 1443.743
369.5071, 1432.049
369.9893, 1428.546
370.4714, 1423.893
370.9535, 1412.435
371.4356, 1387.397
371.9177, 1371.785
372.3998, 1369.590
372.8820, 1375.078
373.3641, 1375.030
373.8462, 1366.812
374.3283, 1359.993
374.8104, 1360.352
375.2925, 1369.215
375.7747, 1368.668
376.2568, 1356.601
376.7389, 1339.306
377.2210, 1323.935
377.7031, 1310.334
378.1852, 1301.179
378.6674, 1299.185
379.1495, 1302.167
379.6316, 1299.236
380.1137, 1289.658
380.5958, 1281.021
381.0779, 1283.505
381.5601, 1294.278
382.0422, 1298.337
382.5243, 1289.318
383.0064, 1275.987
383.4885, 1274.485
383.9706, 1283.303
384.4528, 1291.399
384.9349, 1290.463
385.4170, 1284.134
385.8991, 1278.475
386.3812, 1274.590
386.8633, 1270.607
387.3455, 1262.921
387.8276, 1253.708
388.3097, 1247.848
388.7918, 1250.039
389.2739, 1255.230
389.7560, 1260.323
390.2382, 1265.268
390.7203, 1267.764
391.2024, 1263.905
391.6845, 1257.820
392.1666, 1254.226
392.6487, 1256.881
393.1309, 1260.295
393.6130, 1264.206
394.0951, 1268.116
394.5772, 1266.820
395.0593, 1254.764
395.5414, 1239.760
396.0236, 1226.778
396.5057, 1210.869
396.9878, 1203.665
397.4699, 1212.908
397.9520, 1232.610
398.4341, 1243.865
398.9163, 1241.758
399.3984, 1236.252
399.8805, 1230.454
400.3626, 1223.925
400.8447, 1218.258
401.3268, 1212.553
401.8090, 1208.386
402.2911, 1207.602
402.7732, 1209.671
403.2553, 1216.760
403.7374, 1231.201
404.2195, 1252.389
404.7017, 1268.678
405.1838, 1278.736
405.6659, 1287.632
406.1480, 1301.438
406.6301, 1320.366
407.1122, 1333.104
407.5944, 1333.968
408.0765, 1331.311
408.5586, 1347.766
409.0407, 1383.030
409.5228, 1419.142
410.0049, 1441.542
410.4871, 1455.242
410.9692, 1475.187
411.4513, 1503.795
411.9334, 1535.250
412.4155, 1561.425
412.8976, 1585.304
413.3798, 1614.273
413.8619, 1655.311
414.3440, 1701.549
414.8261, 1747.283
415.3082, 1792.518
415.7903, 1836.342
416.2725, 1876.689
416.7546, 1916.215
417.2367, 1958.891
417.7188, 2007.281
418.2009, 2056.452
418.6830, 2106.623
419.1652, 2156.366
419.6473, 2198.479
420.1294, 2217.915
420.6115, 2238.806
421.0937, 2276.909
421.5758, 2346.163
422.0579, 2405.342
422.5400, 2441.651
423.0221, 2466.378
423.5042, 2498.721
423.9864, 2538.966
424.4685, 2586.941
424.9506, 2646.845
425.4327, 2719.519
425.9148, 2782.654
426.3969, 2831.638
426.8791, 2876.320
427.3612, 2924.420
427.8433, 2976.612
428.3254, 3030.389
428.8075, 3087.824
429.2896, 3145.501
429.7718, 3192.901
430.2539, 3231.378
430.7360, 3253.794
431.2181, 3250.724
431.7002, 3223.855
432.1823, 3200.013
432.6645, 3183.094
433.1466, 3160.465
433.6287, 3112.543
434.1108, 3042.896
434.5929, 2968.191
435.0750, 2894.143
435.5572, 2820.437
436.0393, 2747.418
436.5214, 2674.954
437.0035, 2599.935
437.4856, 2517.520
437.9677, 2432.466
438.4499, 2351.851
438.9320, 2277.934
439.4141, 2208.081
439.8962, 2138.398
440.3783, 2071.447
440.8604, 2011.768
441.3426, 1966.824
441.8247, 1926.465
442.3068, 1882.851
442.7889, 1832.002
443.2710, 1793.097
443.7531, 1778.387
444.2353, 1775.532
444.7174, 1770.636
445.1995, 1756.464
445.6816, 1746.059
446.1637, 1741.605
446.6458, 1742.888
447.1280, 1747.787
447.6101, 1756.154
448.0922, 1768.365
448.5743, 1783.947
449.0564, 1801.127
449.5385, 1827.997
450.0207, 1868.693
450.5028, 1915.430
450.9849, 1951.530
451.4670, 1973.747
451.9491, 2000.034
452.4312, 2037.067
452.9134, 2084.123
453.3955, 2137.149
453.8776, 2196.169
454.3597, 2259.466
454.8418, 2327.150
455.3239, 2398.061
455.8061, 2463.903
456.2882, 2521.531
456.7703, 2576.636
457.2524, 2635.079
457.7345, 2697.284
458.2166, 2766.654
458.6988, 2849.289
459.1809, 2937.533
459.6630, 3022.697
460.1451, 3104.871
460.6272, 3183.068
461.1093, 3248.884
461.5915, 3312.449
462.0736, 3385.109
462.5557, 3494.897
463.0378, 3590.747
463.5199, 3646.095
464.0020, 3665.628
464.4842, 3687.996
464.9663, 3742.540
465.4484, 3785.691
465.9305, 3794.830
466.4126, 3762.411
466.8947, 3707.528
467.3769, 3621.666
467.8590, 3517.464
468.3411, 3413.291
468.8232, 3308.998
469.3053, 3205.943
469.7874, 3104.040
470.2696, 3003.213
470.7517, 2900.162
471.2338, 2792.623
471.7159, 2690.620
472.1980, 2605.655
472.6801, 2537.102
473.1623, 2471.052
473.6444, 2404.272
474.1265, 2340.544
474.6086, 2289.598
475.0907, 2249.412
475.5728, 2206.922
476.0550, 2148.029
476.5371, 2084.724
477.0192, 2038.220
477.5013, 2009.093
477.9834, 1986.518
478.4655, 1964.768
478.9477, 1943.657
479.4298, 1923.385
479.9119, 1905.738
480.3940, 1886.405
480.8761, 1862.260
481.3582, 1834.625
481.8404, 1807.571
482.3225, 1778.033
482.8046, 1753.023
483.2867, 1736.464
483.7688, 1731.169
484.2509, 1725.726
484.7331, 1722.790
485.2152, 1717.414
485.6973, 1704.646
486.1794, 1681.825
486.6615, 1655.617
487.1436, 1624.108
487.6258, 1589.657
488.1079, 1564.371
488.5900, 1551.109
489.0721, 1539.551
489.5542, 1522.980
490.0363, 1501.239
490.5185, 1485.750
491.0006, 1478.275
491.4827, 1472.580
491.9648, 1460.171
492.4470, 1442.163
492.9291, 1424.772
493.4112, 1410.747
493.8933, 1398.306
494.3754, 1383.926
494.8575, 1368.215
495.3397, 1355.871
495.8218, 1355.707
496.3039, 1357.557
496.7860, 1348.464
497.2681, 1322.976
497.7502, 1300.170
498.2324, 1293.211
498.7145, 1294.071
499.1966, 1291.704
499.6787, 1278.103
500.1608, 1265.648
500.6429, 1258.725
501.1251, 1257.057
501.6072, 1254.858
502.0893, 1249.924
502.5714, 1245.930
503.0535, 1244.700
503.5356, 1247.331
504.0178, 1250.354
504.4999, 1254.824
504.9820, 1258.682
505.4641, 1257.464
505.9462, 1249.430
506.4283, 1245.820
506.9105, 1252.305
507.3926, 1265.145
507.8747, 1268.503
508.3568, 1261.963
508.8389, 1253.569
509.3210, 1248.149
509.8032, 1245.426
510.2853, 1245.603
510.7674, 1249.691
511.2495, 1252.429
511.7316, 1246.322
512.2137, 1234.955
512.6959, 1225.731
513.1780, 1224.870
513.6601, 1224.484
514.1422, 1217.885
514.6243, 1206.224
515.1064, 1197.622
515.5886, 1197.536
516.0707, 1199.892
516.5528, 1201.479
517.0349, 1203.565
517.5170, 1201.389
517.9991, 1187.851
518.4813, 1172.404
518.9634, 1167.764
519.4455, 1182.037
519.9276, 1193.279
520.4097, 1197.175
520.8918, 1194.351
521.3740, 1188.638
521.8561, 1179.336
522.3382, 1169.460
522.8203, 1159.797
523.3024, 1150.636
523.7845, 1147.100
524.2667, 1150.923
524.7488, 1154.745
525.2309, 1147.193
525.7130, 1131.525
526.1951, 1119.349
526.6772, 1116.453
527.1594, 1117.164
527.6415, 1116.448
528.1236, 1114.071
528.6057, 1108.905
529.0878, 1099.263
529.5699, 1087.292
530.0521, 1074.296
530.5342, 1059.923
531.0163, 1046.387
531.4984, 1033.720
531.9805, 1022.399
532.4626, 1012.862
532.9448, 1014.748
533.4269, 1006.549
533.9090, 979.5775
534.3911, 940.0942
534.8732, 913.8425
535.3553, 904.9628
535.8375, 901.2371
536.3196, 899.5367
536.8017, 900.2835
537.2838, 892.4085
537.7659, 873.8468
538.2480, 853.2148
538.7302, 840.4865
539.2123, 834.4007
539.6944, 826.7311
540.1765, 814.7800
540.6586, 802.1419
541.1407, 793.6848
541.6229, 788.6830
542.1050, 784.3675
542.5871, 779.1649
543.0692, 774.0318
543.5513, 769.1445
544.0334, 764.5929
544.5156, 762.8166
544.9977, 769.3102
545.4798, 776.5513
545.9619, 778.2428
546.4440, 767.0839
546.9261, 759.4595
547.4083, 761.0255
547.8904, 766.8342
548.3725, 767.7978
548.8546, 760.5927
549.3367, 754.0036
549.8188, 750.1841
550.3010, 748.9349
550.7831, 747.6790
551.2652, 745.9771
551.7473, 745.7415
552.2294, 749.9787
552.7115, 757.9211
553.1937, 760.5676
553.6758, 756.1081
554.1579, 750.9150
554.6400, 754.7720
555.1221, 764.5169
555.6042, 770.9543
556.0864, 769.1046
556.5685, 764.3442
557.0506, 761.5800
557.5327, 760.2496
558.0148, 758.3040
558.4969, 752.5847
558.9791, 747.5611
559.4612, 747.2877
559.9433, 753.8889
560.4254, 756.2436
560.9075, 746.8844
561.3896, 735.4916
561.8718, 730.5951
562.3539, 736.6981
562.8360, 741.7741
563.3181, 745.1595
563.8002, 746.8510
564.2823, 745.8058
564.7645, 740.7690
565.2466, 738.9548
565.7287, 746.0161
566.2108, 758.8577
566.6929, 760.8224
567.1750, 751.5434
567.6572, 739.3269
568.1393, 728.2961
568.6214, 719.9161
569.1035, 718.6829
569.5856, 726.7373
570.0677, 735.9135
570.5499, 740.1425
571.0320, 740.9353
571.5141, 740.7339
571.9962, 739.7873
572.4783, 738.6597
572.9604, 737.9791
573.4426, 737.4743
573.9247, 735.7083
574.4068, 731.9563
574.8889, 727.2854
575.3710, 720.9828
575.8531, 711.5280
576.3353, 709.5274
576.8174, 718.7432
577.2995, 729.8627
577.7816, 733.2124
578.2637, 727.8486
578.7458, 724.9238
579.2280, 726.8135
579.7101, 730.4214
580.1922, 729.0279
580.6743, 723.7639
581.1564, 721.0164
581.6385, 727.2302
582.1207, 735.7674
582.6028, 737.3953
583.0849, 732.7769
583.5670, 727.2481
584.0491, 722.9595
584.5313, 719.6521
585.0134, 717.1182
585.4955, 715.2953
585.9776, 714.3597
586.4597, 714.5059
586.9418, 715.5261
587.4240, 717.2889
587.9061, 721.5712
588.3882, 723.6469
588.8703, 721.5538
589.3524, 717.3265
589.8345, 718.2682
590.3167, 726.7117
590.7988, 731.1235
591.2809, 723.5145
591.7630, 707.2911
592.2451, 701.4819
592.7272, 706.4249
593.2094, 713.5339
593.6915, 716.0344
594.1736, 715.5453
594.6557, 715.0682
595.1378, 715.1075
595.6199, 715.1221
596.1021, 714.4414
596.5842, 713.5522
597.0663, 713.1468
597.5485, 713.3666
598.0306, 714.2081
598.5127, 716.7615
598.9948, 720.2320
599.4769, 721.2590
599.9590, 719.7035
600.4412, 715.5975
600.9233, 707.2852
601.4054, 693.9853
601.8875, 689.1464
602.3696, 695.3911
602.8517, 703.7645
603.3339, 706.0115
603.8160, 702.7263
604.2981, 701.5317
604.7802, 703.5829
605.2623, 706.8136
605.7444, 708.8394
606.2266, 709.9231
606.7087, 710.7398
607.1908, 712.6006
607.6729, 713.2260
608.1550, 708.6329
608.6371, 700.9232
609.1193, 696.7708
609.6014, 702.7310
610.0835, 709.5959
610.5656, 713.3316
611.0477, 713.5512
611.5298, 711.2496
612.0120, 702.7640
612.4941, 695.5200
612.9762, 695.1174
613.4583, 703.9573
613.9404, 710.8998
614.4225, 715.1957
614.9047, 717.9944
615.3868, 721.6317
615.8689, 725.8804
616.3510, 727.2348
616.8331, 724.1348
617.3152, 718.3502
617.7974, 709.4083
618.2795, 699.2876
618.7616, 695.1071
619.2437, 707.6041
619.7258, 722.4639
620.2079, 728.3716
620.6901, 724.7430
621.1722, 721.0284
621.6543, 721.4895
622.1364, 722.2339
622.6185, 720.5166
623.1006, 714.2778
623.5828, 709.6756
624.0649, 706.0553
624.5470, 704.6735
625.0291, 708.4216
625.5112, 719.0602
625.9933, 725.1103
626.4755, 723.6193
626.9576, 717.5755
627.4397, 711.7209
627.9218, 706.3167
628.4039, 703.3537
628.8860, 705.2353
629.3682, 709.3865
629.8503, 713.1249
630.3324, 716.2868
630.8145, 717.6765
631.2966, 713.8734
631.7787, 709.9297
632.2609, 710.2118
632.7430, 716.9797
633.2251, 721.1953
633.7072, 719.3591
634.1893, 715.2874
634.6714, 711.8784
635.1536, 708.3992
635.6357, 707.1297
636.1178, 708.0414
636.5999, 711.4373
637.0820, 719.7590
637.5641, 733.3250
638.0463, 742.5965
638.5284, 742.9647
639.0105, 738.5528
639.4926, 738.2659
639.9747, 741.1774
640.4568, 741.9670
640.9390, 734.7242
641.4211, 725.6182
641.9032, 720.5933
642.3853, 720.0804
642.8674, 719.9374
643.3495, 718.8995
643.8317, 717.4025
644.3138, 715.5804
644.7959, 712.2289
645.2780, 711.0188
645.7601, 712.5211
646.2422, 715.6525
646.7244, 719.0949
647.2065, 722.5981
647.6886, 728.2319
648.1707, 737.9899
648.6528, 747.6684
649.1349, 747.3851
649.6171, 738.3743
650.0992, 729.4380
650.5813, 723.7350
651.0634, 720.9345
651.5455, 721.5730
652.0276, 725.1522
652.5098, 728.9720
652.9919, 732.0657
653.4740, 734.5873
653.9561, 737.0405
654.4382, 739.8654
654.9203, 740.1094
655.4025, 734.9740
655.8846, 729.1437
656.3667, 725.4641
656.8488, 723.6467
657.3309, 725.4976
657.8130, 732.5327
658.2952, 740.6075
658.7773, 743.9271
659.2594, 742.7667
659.7415, 739.7031
660.2236, 734.2754
660.7057, 729.1466
661.1879, 728.7778
661.6700, 731.9312
662.1521, 735.1796
662.6342, 738.5164
663.1163, 739.9863
663.5984, 736.6696
664.0806, 729.4103
664.5627, 725.0186
665.0448, 726.8964
665.5269, 730.5178
666.0090, 733.6066
666.4911, 735.6412
666.9733, 741.4785
667.4554, 753.2583
667.9375, 764.5970
668.4196, 770.8155
668.9017, 771.9314
669.3839, 766.9681
669.8660, 754.4663
670.3481, 742.5085
670.8302, 741.1960
671.3123, 747.5045
671.7944, 755.5903
672.2766, 767.0317
672.7587, 774.1345
673.2408, 765.9256
673.7229, 750.4941
674.2050, 743.5109
674.6871, 762.6118
675.1693, 776.2171
675.6514, 771.1608
676.1335, 752.1965
676.6156, 744.8140
677.0977, 753.5919
677.5798, 763.5518
678.0620, 767.9564
678.5441, 767.5052
679.0262, 768.6349
679.5083, 771.4264
679.9904, 774.6398
680.4725, 779.9313
680.9547, 784.2000
681.4368, 779.0562
681.9189, 762.1005
682.4010, 750.0184
682.8831, 758.9934
683.3652, 776.2210
683.8474, 788.9017
684.3295, 793.5003
684.8116, 794.5270
685.2937, 789.9373
685.7758, 783.3282
686.2579, 779.5282
686.7401, 779.7795
687.2222, 779.2525
687.7043, 776.4055
688.1864, 772.9530
688.6685, 773.8173
689.1506, 778.7032
689.6328, 782.8399
690.1149, 783.5826
690.5970, 782.6973
691.0791, 782.4614
691.5612, 782.8774
692.0433, 783.9382
692.5255, 786.4396
693.0076, 788.9608
693.4897, 790.8027
693.9718, 791.9355
694.4539, 791.8884
694.9360, 787.2850
695.4182, 784.5917
695.9003, 788.6885
696.3824, 802.9863
696.8645, 807.8447
697.3466, 800.2189
697.8287, 791.1453
698.3109, 795.0933
698.7930, 809.0157
699.2751, 815.8528
699.7572, 811.2147
700.2393, 804.0628
700.7214, 803.0879
701.2036, 806.1370
701.6857, 809.6736
702.1678, 814.4205
702.6499, 817.1270
703.1320, 813.6369
703.6141, 807.2723
704.0963, 806.6066
704.5784, 815.9189
705.0605, 825.0408
705.5426, 832.7739
706.0247, 838.6109
706.5068, 838.8425
706.9890, 832.6167
707.4711, 827.9321
707.9532, 829.0524
708.4353, 834.7361
708.9174, 844.0247
709.3995, 856.2810
709.8817, 864.7738
710.3638, 860.7976
710.8459, 853.5817
711.3280, 851.5742
711.8101, 856.2386
712.2922, 860.7502
712.7744, 861.5291
713.2565, 862.7968
713.7386, 867.7828
714.2207, 879.4557
714.7028, 886.8318
715.1849, 888.5533
715.6671, 888.4553
716.1492, 890.5728
716.6313, 894.8015
717.1134, 900.3616
717.5955, 907.3531
718.0776, 914.7328
718.5598, 921.5711
719.0419, 927.7360
719.5240, 932.9718
720.0061, 937.6967
720.4882, 940.9210
720.9703, 942.2211
721.4525, 941.7139
721.9346, 939.6475
722.4167, 933.7321
722.8988, 929.1872
723.3809, 926.5523
723.8630, 926.0488
724.3452, 929.0086
724.8273, 935.7524
725.3094, 943.5223
725.7915, 950.9144
726.2736, 958.3939
726.7557, 968.7223
727.2379, 981.1950
727.7200, 990.2683
728.2021, 986.6078
728.6842, 982.0876
729.1663, 989.0145
729.6484, 1008.798
730.1306, 1023.095
730.6127, 1019.251
731.0948, 1014.665
731.5769, 1019.562
732.0590, 1037.249
732.5411, 1050.657
733.0233, 1058.892
733.5054, 1064.854
733.9875, 1070.843
734.4696, 1076.870
734.9517, 1081.835
735.4338, 1084.962
735.9160, 1091.109
736.3981, 1109.476
736.8802, 1132.707
737.3623, 1149.579
737.8444, 1154.200
738.3266, 1157.787
738.8087, 1163.349
739.2908, 1170.942
739.7729, 1180.568
740.2551, 1191.997
740.7372, 1205.743
741.2193, 1222.009
741.7014, 1240.501
742.1835, 1262.398
742.6656, 1287.680
743.1478, 1307.412
743.6299, 1314.290
744.1120, 1319.867
744.5941, 1347.955
745.0762, 1390.891
745.5583, 1425.780
746.0405, 1431.942
746.5226, 1435.269
747.0047, 1446.697
747.4868, 1466.709
747.9689, 1496.380
748.4510, 1545.109
748.9332, 1590.896
749.4153, 1625.853
749.8974, 1650.975
750.3795, 1679.146
750.8616, 1710.138
751.3438, 1744.864
751.8259, 1788.039
752.3080, 1834.343
752.7901, 1871.199
753.2722, 1898.537
753.7543, 1924.048
754.2365, 1945.986
754.7186, 1972.994
755.2007, 2014.038
755.6828, 2073.407
756.1649, 2128.704
756.6470, 2176.478
757.1292, 2219.607
757.6113, 2259.761
758.0934, 2297.058
758.5755, 2328.341
759.0576, 2350.720
759.5397, 2377.774
760.0219, 2430.500
760.5040, 2500.119
760.9861, 2556.648
761.4682, 2593.597
761.9503, 2624.603
762.4324, 2656.790
762.9146, 2690.956
763.3967, 2728.323
763.8788, 2771.045
764.3609, 2813.810
764.8430, 2852.798
765.3251, 2892.771
765.8073, 2941.686
766.2894, 3003.852
766.7715, 3056.750
767.2536, 3095.164
767.7357, 3126.302
768.2178, 3157.393
768.7000, 3190.784
769.1821, 3236.669
769.6642, 3306.500
770.1463, 3377.303
770.6284, 3424.727
771.1105, 3459.444
771.5927, 3502.086
772.0748, 3562.867
772.5569, 3628.272
773.0390, 3699.381
773.5211, 3771.707
774.0032, 3830.612
774.4854, 3870.423
774.9675, 3918.727
775.4496, 3986.620
775.9317, 4065.781
776.4138, 4134.511
776.8959, 4194.475
777.3781, 4257.957
777.8602, 4336.079
778.3423, 4416.451
778.8244, 4492.084
779.3065, 4562.312
779.7886, 4625.013
780.2708, 4670.217
780.7529, 4717.794
781.2350, 4778.813
781.7171, 4850.505
782.1992, 4904.403
782.6813, 4935.153
783.1635, 4967.346
783.6456, 5011.599
784.1277, 5066.976
784.6098, 5133.239
785.0919, 5209.808
785.5740, 5292.759
786.0562, 5381.272
786.5383, 5474.975
787.0204, 5570.044
787.5025, 5667.250
787.9846, 5777.869
788.4667, 5908.890
788.9489, 6049.621
789.4310, 6193.023
789.9131, 6336.252
790.3952, 6519.355
790.8773, 6747.743
791.3594, 6983.929
791.8416, 7199.346
792.3237, 7399.010
792.8058, 7589.599
793.2879, 7773.423
793.7700, 7969.152
794.2521, 8203.606
794.7343, 8446.952
795.2164, 8674.002
795.6985, 8885.343
796.1806, 9074.978
796.6627, 9242.473
797.1448, 9392.146
797.6270, 9521.986
798.1091, 9629.352
798.5912, 9738.868
799.0733, 9852.886
799.5554, 9962.804
800.0375, 10060.75
800.5197, 10147.62
801.0018, 10224.74
801.4839, 10291.40
801.9660, 10351.89
802.4481, 10407.22
802.9302, 10458.50
803.4124, 10506.47
803.8945, 10550.07
804.3766, 10590.45
804.8587, 10614.80
805.3408, 10652.84
805.8229, 10734.77
806.3051, 10860.37
806.7872, 10995.49
807.2693, 11137.34
807.7514, 11291.35
808.2335, 11447.38
808.7156, 11626.61
809.1978, 11863.66
809.6799, 12172.83
810.1620, 12515.98
810.6441, 12900.74
811.1262, 13300.38
811.6083, 13683.17
812.0905, 14033.53
812.5726, 14410.03
813.0547, 14820.28
813.5368, 15236.81
814.0189, 15620.98
814.5010, 15979.04
814.9832, 16346.02
815.4653, 16723.43
815.9474, 17119.29
816.4295, 17535.59
816.9116, 17980.58
817.3937, 18464.20
817.8759, 18971.12
818.3580, 19543.76
818.8401, 20186.89
819.3222, 20897.16
819.8043, 21678.45
820.2864, 22527.58
820.7686, 23468.67
821.2507, 24499.16
821.7328, 25612.61
822.2149, 26780.84
822.6970, 28008.22
823.1791, 29323.45
823.6613, 30712.05
824.1434, 32217.79
824.6255, 33940.79
825.1076, 35752.48
825.5897, 37481.43
826.0718, 39252.05
826.5540, 40758.18
827.0361, 42165.61
827.5182, 43147.08
828.0003, 43332.70
828.4824, 42724.02
828.9645, 41458.35
829.4467, 39508.99
829.9288, 37114.98
830.4109, 34345.81
830.8930, 31388.01
831.3751, 28468.77
831.8572, 25603.57
832.3394, 22945.86
832.8215, 20507.08
833.3036, 18313.26
833.7857, 16343.99
834.2678, 14631.68
834.7499, 13122.72
835.2321, 11834.66
835.7142, 10727.63
836.1963, 9781.161
836.6784, 8972.461
837.1605, 8252.015
837.6426, 7620.559
838.1248, 7058.270
838.6069, 6566.211
839.0890, 6128.159
839.5711, 5734.642
840.0532, 5401.336
840.5353, 5080.814
841.0175, 4760.143
841.4996, 4458.926
841.9817, 4202.162
842.4638, 3989.591
842.9459, 3799.569
843.4280, 3631.559
843.9102, 3478.155
844.3923, 3331.742
844.8744, 3193.791
845.3565, 3069.188
845.8386, 2959.313
846.3207, 2857.722
846.8029, 2759.259
847.2850, 2670.039
847.7671, 2595.136
848.2492, 2537.643
848.7313, 2486.561
849.2134, 2443.767
849.6956, 2403.531
850.1777, 2356.826
850.6598, 2307.386
851.1419, 2272.062
851.6240, 2254.528
852.1061, 2232.154
852.5883, 2173.361
853.0704, 2110.191
853.5525, 2074.628
854.0346, 2085.605
854.5167, 2080.472
854.9988, 2046.060
855.4810, 2007.513
855.9631, 1982.716
856.4452, 1971.818
856.9273, 1960.738
857.4094, 1949.276
857.8915, 1936.424
858.3737, 1921.783
858.8558, 1905.186
859.3379, 1886.851
859.8200, 1867.087
860.3021, 1843.310
860.7842, 1808.341
861.2664, 1775.118
861.7485, 1752.433
862.2306, 1741.659
862.7127, 1725.543
863.1948, 1703.364
863.6769, 1678.450
864.1591, 1649.676
864.6412, 1620.555
865.1233, 1601.274
865.6054, 1591.002
866.0875, 1577.283
866.5696, 1546.728
867.0518, 1515.046
867.5339, 1493.479
868.0160, 1483.104
868.4981, 1468.517
868.9802, 1448.722
869.4623, 1426.458
869.9445, 1401.327
870.4266, 1375.016
870.9087, 1357.301
871.3908, 1347.104
871.8729, 1335.456
872.3550, 1313.299
872.8372, 1290.055
873.3193, 1273.006
873.8014, 1261.801
874.2835, 1253.953
874.7656, 1251.835
875.2477, 1249.679
875.7299, 1246.690
876.2120, 1242.463
876.6941, 1234.576
877.1762, 1223.075
877.6583, 1211.710
878.1404, 1202.143
878.6226, 1193.673
879.1047, 1185.466
879.5869, 1177.644
880.0690, 1170.317
880.5511, 1164.183
881.0332, 1157.799
881.5153, 1149.759
881.9974, 1141.515
882.4796, 1136.491
882.9617, 1135.557
883.4438, 1132.729
883.9259, 1126.165
884.4080, 1118.049
884.8901, 1111.276
885.3723, 1105.727
885.8544, 1101.034
886.3365, 1096.466
886.8186, 1093.805
887.3007, 1095.550
887.7828, 1099.014
888.2650, 1100.088
888.7471, 1096.555
889.2292, 1097.173
889.7113, 1104.423
890.1934, 1111.989
890.6755, 1109.869
891.1577, 1101.286
891.6398, 1097.027
892.1219, 1100.113
892.6040, 1102.496
893.0861, 1095.411
893.5682, 1086.842
894.0504, 1085.023
894.5325, 1095.822
895.0146, 1101.226
895.4967, 1100.403
895.9788, 1095.740
896.4609, 1085.924
896.9431, 1072.967
897.4252, 1072.204
897.9073, 1084.603
898.3894, 1096.297
898.8715, 1095.687
899.3536, 1090.763
899.8358, 1088.136
900.3179, 1088.678
900.8000, 1088.600
901.2821, 1083.738
901.7642, 1083.981
902.2463, 1098.495
902.7285, 1123.172
903.2106, 1122.919
903.6927, 1098.842
904.1748, 1080.300
904.6569, 1094.435
905.1390, 1115.877
905.6212, 1117.251
906.1033, 1102.614
906.5854, 1091.905
907.0675, 1093.320
907.5496, 1096.334
908.0317, 1099.042
908.5139, 1101.374
908.9960, 1103.145
909.4781, 1104.344
909.9602, 1104.809
910.4423, 1103.018
910.9244, 1102.823
911.4066, 1113.490
911.8887, 1128.271
912.3708, 1134.841
912.8529, 1115.120
913.3350, 1104.756
913.8171, 1113.674
914.2993, 1132.119
914.7814, 1149.312
915.2635, 1165.662
915.7456, 1174.248
916.2277, 1172.906
916.7098, 1168.795
917.1920, 1170.642
917.6741, 1174.928
918.1562, 1176.118
918.6383, 1171.997
919.1204, 1168.699
919.6025, 1169.014
920.0847, 1170.024
920.5668, 1170.338
921.0489, 1170.363
921.5310, 1166.333
922.0131, 1158.042
922.4952, 1147.681
922.9774, 1137.433
923.4595, 1126.058
923.9416, 1109.104
924.4237, 1087.216
924.9058, 1071.542
925.3879, 1074.847
925.8701, 1076.551
926.3522, 1066.483
926.8343, 1046.542
927.3164, 1032.967
927.7985, 1026.305
928.2806, 1020.291
928.7628, 1011.897
929.2449, 1002.747
929.7270, 995.6707
930.2091, 989.9148
930.6912, 983.2268
931.1733, 974.0092
931.6555, 964.5815
932.1376, 954.0994
932.6197, 944.5580
933.1018, 940.4921
933.5839, 943.0003
934.0660, 941.9711
934.5482, 934.6680
935.0303, 926.0818
935.5124, 920.9493
935.9945, 919.4784
936.4766, 923.2170
936.9587, 936.3591
937.4409, 944.0052
937.9230, 936.0564
938.4051, 924.7703
938.8872, 919.9058
939.3693, 923.0557
939.8514, 923.3296
940.3336, 920.6993
940.8157, 915.1877
941.2978, 901.6771
941.7799, 887.8119
942.2620, 888.1722
942.7441, 902.4282
943.2263, 910.7950
943.7084, 898.6583
944.1905, 886.1801
944.6726, 881.8937
945.1547, 884.3330
945.6368, 884.7748
946.1190, 883.2192
946.6011, 879.4148
947.0832, 870.9708
947.5653, 862.7182
948.0474, 861.7206
948.5295, 865.8809
949.0117, 870.3195
949.4938, 876.3823
949.9759, 878.3097
950.4580, 871.5529
950.9401, 862.9285
951.4222, 864.4738
951.9044, 876.4412
952.3865, 883.0680
952.8686, 881.2209
953.3507, 876.6030
953.8328, 874.5071
954.3149, 873.6325
954.7971, 871.7320
955.2792, 867.0838
955.7613, 866.8174
956.2434, 874.6547
956.7255, 883.8467
957.2076, 891.8641
957.6898, 898.5399
958.1719, 894.6301
958.6540, 880.3168
959.1361, 869.9760
959.6182, 879.3474
960.1003, 892.5361
960.5825, 893.2750
961.0646, 883.6154
961.5467, 878.9225
962.0288, 888.1816
962.5109, 892.8200
962.9930, 886.6006
963.4752, 874.6857
963.9573, 868.6820
964.4394, 868.4766
964.9215, 873.9388
965.4036, 888.4952
965.8857, 901.6958
966.3679, 901.8021
966.8500, 896.9095
967.3321, 897.8598
967.8142, 911.3438
968.2963, 920.9999
968.7784, 925.4540
969.2606, 928.5655
969.7427, 934.2025
970.2248, 941.7017
970.7069, 949.8594
971.1890, 958.4980
971.6711, 963.1689
972.1533, 957.7958
972.6354, 950.0102
973.1175, 943.1217
973.5996, 937.6141
974.0817, 940.6439
974.5638, 955.2318
975.0460, 967.5444
975.5281, 971.0111
976.0102, 969.4554
976.4923, 970.7783
976.9744, 974.0192
977.4565, 976.3579
977.9387, 977.1427
978.4208, 976.1376
978.9029, 973.1144
979.3850, 968.2662
979.8671, 961.3533
980.3492, 951.9004
980.8314, 942.7565
981.3135, 933.6505
981.7956, 927.4459
982.2777, 929.6684
982.7598, 935.6067
983.2419, 938.6679
983.7241, 937.7192
984.2062, 935.2224
984.6883, 930.0267
985.1704, 925.4152
985.6525, 923.7855
986.1346, 924.4647
986.6168, 919.5682
987.0989, 909.2484
987.5810, 898.2831
988.0631, 887.2709
988.5452, 878.6426
989.0273, 877.6992
989.5095, 880.9296
989.9916, 879.2137
990.4737, 865.0374
990.9558, 854.7838
991.4379, 850.6318
991.9200, 850.8937
992.4022, 854.4481
992.8843, 860.4119
993.3664, 865.7823
993.8485, 870.4448
994.3306, 871.3458
994.8127, 862.2716
995.2949, 851.2628
995.7770, 846.0397
996.2591, 848.0372
996.7412, 847.2438
997.2233, 842.7453
997.7054, 838.8112
998.1876, 837.9629
998.6697, 839.5338
999.1518, 841.4008
999.6339, 844.1971
1000.116, 850.3941
1000.598, 871.5014
1001.080, 884.0588
1001.562, 874.2243
1002.044, 853.6078
1002.527, 841.4960
1003.009, 838.2021
1003.491, 841.5885
1003.973, 852.8052
1004.455, 863.9489
1004.937, 865.6891
1005.419, 862.3019
1005.901, 858.7161
1006.384, 855.5512
1006.866, 853.3586
1007.348, 852.4382
1007.830, 852.0316
1008.312, 851.4088
1008.794, 850.8876
1009.276, 853.4222
1009.758, 858.4867
1010.240, 861.8113
1010.723, 858.6119
1011.205, 855.1475
1011.687, 857.9662
1012.169, 863.2428
1012.651, 859.7808
1013.133, 841.7410
1013.615, 832.5988
1014.097, 838.0640
1014.580, 847.5499
1015.062, 844.7119
1015.544, 835.6856
1016.026, 832.9164
1016.508, 839.8850
1016.990, 846.0987
1017.472, 844.6964
1017.954, 843.9894
1018.436, 850.7426
1018.919, 864.1266
1019.401, 864.2562
1019.883, 851.0911
1020.365, 839.6368
1020.847, 840.0186
1021.329, 845.0113
1021.811, 848.1913
1022.293, 850.2701
1022.776, 853.1703
1023.258, 859.5664
1023.740, 862.5974
1024.222, 860.2770
1024.704, 856.5826
1025.186, 857.9284
1025.668, 862.5390
1026.150, 863.9026
1026.632, 860.9005
1027.115, 857.7621
1027.597, 857.2870
1028.079, 857.3348
1028.561, 855.6694
1029.043, 852.4631
1029.525, 854.0810
1030.007, 861.1814
1030.489, 867.3568
1030.972, 868.7643
1031.454, 868.6260
1031.936, 872.6488
1032.418, 878.4927
1032.900, 881.1006
1033.382, 876.1724
1033.864, 871.5228
1034.346, 867.3031
1034.828, 864.5266
1035.311, 865.6991
1035.793, 869.8521
1036.275, 869.2124
1036.757, 863.1190
1037.239, 859.1942
1037.721, 864.0872
1038.203, 871.9933
1038.685, 879.4331
1039.167, 886.2109
1039.650, 893.6151
1040.132, 902.8635
1040.614, 906.7535
1041.096, 901.2885
1041.578, 891.7852
1042.060, 884.6173
1042.542, 880.1976
1043.024, 879.4731
1043.507, 884.6819
1043.989, 889.9479
1044.471, 896.3374
1044.953, 900.1004
1045.435, 896.2636
1045.917, 885.8218
1046.399, 881.5350
1046.881, 883.6227
1047.364, 890.7012
1047.846, 908.4973
1048.328, 924.8122
1048.810, 929.1774
1049.292, 924.3442
1049.774, 923.6732
1050.256, 927.3326
1050.738, 935.4896
1051.220, 949.2343
1051.703, 964.5952
1052.185, 974.0773
1052.667, 981.4485
1053.149, 994.7260
1053.631, 1018.298
1054.113, 1034.074
1054.595, 1032.600
1055.077, 1027.420
1055.559, 1024.960
1056.042, 1024.637
1056.524, 1022.602
1057.006, 1018.854
1057.488, 1013.385
1057.970, 1007.799
1058.452, 998.8204
1058.934, 982.0319
1059.416, 960.9366
1059.899, 942.4359
1060.381, 927.0287
1060.863, 912.4881
1061.345, 898.3638
1061.827, 886.1046
1062.309, 878.1462
1062.791, 872.3182
1063.273, 865.9230
1063.755, 858.6202
1064.238, 850.0164
1064.720, 836.5034
1065.202, 826.3164
1065.684, 823.0304
1066.166, 823.9763
1066.648, 820.5870
1067.130, 814.4090
1067.612, 812.7294
1068.094, 819.5130
1068.577, 827.3782
1069.059, 836.6251
1069.541, 841.4471
1070.023, 835.1893
1070.505, 814.7874
1070.987, 801.0513
1071.469, 793.9922
1071.951, 791.6443
1072.434, 796.0920
1072.916, 801.9056
1073.398, 802.8824
1073.880, 799.7038
1074.362, 795.1235
1074.844, 787.9808
1075.326, 782.4259
1075.808, 779.4277
1076.291, 777.2783
1076.773, 770.9498
1077.255, 763.7088
1077.737, 767.9738
1078.219, 786.2330
1078.701, 799.2570
1079.183, 790.8079
1079.665, 780.9173
1080.147, 780.1867
1080.630, 786.8477
1081.112, 790.9529
1081.594, 792.5079
1082.076, 791.4181
1082.558, 786.4021
1083.040, 781.1232
1083.522, 779.1483
1084.004, 778.7714
1084.486, 777.8147
1084.969, 776.3389
1085.451, 773.1236
1085.933, 767.6395
1086.415, 762.5168
1086.897, 759.2624
1087.379, 757.9796
1087.861, 759.3082
1088.343, 762.8826
1088.826, 767.1862
1089.308, 771.8781
1089.790, 777.3611
1090.272, 785.7256
1090.754, 792.4407
1091.236, 788.6341
1091.718, 776.5677
1092.200, 765.5256
1092.682, 756.6904
1093.165, 752.7601
1093.647, 759.4863
1094.129, 768.0803
1094.611, 773.4255
1095.093, 775.7280
1095.575, 775.8635
1096.057, 773.6598
1096.539, 774.1130
1097.022, 781.1498
1097.504, 787.3973
1097.986, 783.0779
1098.468, 774.1229
1098.950, 768.6284
1099.432, 768.1801
1099.914, 770.9117
1100.396, 777.9594
1100.879, 784.3446
1101.361, 785.6388
1101.843, 784.1474
1102.325, 785.0886
1102.807, 787.4252
1103.289, 787.1464
1103.771, 777.8569
1104.253, 772.7908
1104.735, 775.8524
1105.218, 781.6631
1105.700, 782.3417
1106.182, 779.0507
1106.664, 777.3502
1107.146, 777.8540
1107.628, 778.6971
1108.110, 778.1095
1108.592, 778.1969
1109.074, 780.8849
1109.557, 785.1849
1110.039, 788.1063
1110.521, 789.7189
1111.003, 784.0961
1111.485, 766.2403
1111.967, 750.8342
1112.449, 757.3646
1112.931, 770.9565
1113.414, 774.5698
1113.896, 763.9022
1114.378, 756.7119
1114.860, 753.1968
1115.342, 752.3138
1115.824, 753.7264
1116.306, 757.2042
1116.788, 764.6218
1117.271, 773.5309
1117.753, 778.5569
1118.235, 774.0103
1118.717, 771.1381
1119.199, 770.4910
1119.681, 771.9263
1120.163, 777.2937
1120.645, 784.3376
1121.127, 785.6292
1121.609, 781.3939
1122.092, 776.9180
1122.574, 775.6918
1123.056, 773.5009
1123.538, 767.7186
1124.020, 761.1310
1124.502, 759.7022
1124.984, 762.8979
1125.466, 765.9010
1125.949, 767.5770
1126.431, 771.0003
1126.913, 782.8524
1127.395, 793.3023
1127.877, 792.5938
1128.359, 782.8392
1128.841, 782.6426
1129.323, 792.7033
1129.806, 799.6367
1130.288, 797.5425
1130.770, 792.6251
1131.252, 791.6276
1131.734, 791.3607
1132.216, 786.9249
1132.698, 775.2069
1133.180, 769.0040
1133.662, 768.9141
1134.145, 772.0323
1134.627, 777.9918
1135.109, 785.0624
1135.591, 792.1149
1136.073, 797.9518
1136.555, 799.3560
1137.037, 792.4113
1137.519, 784.6832
1138.001, 775.2359
1138.484, 768.0664
1138.966, 768.0779
1139.448, 773.4755
1139.930, 781.8846
1140.412, 792.4557
1140.894, 798.9377
1141.376, 793.0053
1141.858, 790.6973
1142.341, 799.4226
1142.823, 810.5359
1143.305, 803.7958
1143.787, 784.6553
1144.269, 779.8110
1144.751, 795.1257
1145.233, 808.7574
1145.715, 808.1241
1146.198, 802.1706
1146.680, 794.9223
1147.162, 787.0153
1147.644, 780.9651
1148.126, 776.8774
1148.608, 776.9039
1149.090, 783.5289
1149.572, 789.5098
1150.054, 786.4729
1150.536, 782.2943
1151.019, 786.0184
1151.501, 798.8719
1151.983, 801.9648
1152.465, 794.8874
1152.947, 788.7607
1153.429, 791.2294
1153.911, 795.4805
1154.393, 794.5807
1154.876, 791.0983
1155.358, 789.7075
1155.840, 792.0189
1156.322, 792.1132
1156.804, 789.4210
1157.286, 787.0493
1157.768, 788.1327
1158.250, 790.5334
1158.733, 791.0662
1159.215, 790.4739
1159.697, 792.2426
1160.179, 800.6174
1160.661, 802.2254
1161.143, 793.3669
1161.625, 783.5623
1162.107, 784.8897
1162.589, 792.2177
1163.072, 797.6324
1163.554, 800.4706
1164.036, 801.6465
1164.518, 800.1157
1165.000, 798.9252
1165.482, 798.4149
1165.964, 799.2087
1166.446, 804.5488
1166.928, 811.5790
1167.411, 812.6204
1167.893, 804.9567
1168.375, 801.1625
1168.857, 810.6521
1169.339, 818.0402
1169.821, 817.0975
1170.303, 810.2191
1170.785, 801.8251
1171.268, 793.3801
1171.750, 790.1125
1172.232, 796.3668
1172.714, 801.0035
1173.196, 797.0728
1173.678, 792.5394
1174.160, 792.0379
1174.642, 795.0978
1175.125, 799.6149
1175.607, 805.1967
1176.089, 809.4781
1176.571, 811.6559
1177.053, 811.9438
1177.535, 809.8529
1178.017, 806.2541
1178.499, 801.0691
1178.981, 794.3193
1179.464, 791.8212
1179.946, 793.3940
1180.428, 795.4303
1180.910, 797.4042
1181.392, 797.3277
1181.874, 790.9487
1182.356, 783.4497
1182.838, 783.0570
1183.320, 790.0004
1183.803, 798.8687
1184.285, 809.4437
1184.767, 814.8599
1185.249, 803.0653
1185.731, 791.0117
1186.213, 792.8183
1186.695, 803.4488
1187.177, 807.6364
1187.660, 804.8008
1188.142, 804.7930
1188.624, 809.4914
1189.106, 814.8125
1189.588, 819.8106
1190.070, 821.7430
1190.552, 815.4879
1191.034, 803.0229
1191.516, 798.1874
1191.999, 801.4915
1192.481, 808.9687
1192.963, 821.4717
1193.445, 830.9299
1193.927, 823.5579
1194.409, 812.9441
1194.891, 815.5427
1195.373, 832.7015
1195.855, 837.5413
1196.338, 828.6187
1196.820, 819.9413
1197.302, 816.4933
1197.784, 816.5997
1198.266, 822.4712
1198.748, 828.7189
1199.230, 827.1621
1199.712, 815.1075
1200.195, 808.8803
1200.677, 809.0941
1201.159, 810.9420
1201.641, 812.8171
1202.123, 813.8450
1202.605, 810.4114
1203.087, 806.3751
1203.569, 809.2000
1204.052, 825.6915
1204.534, 828.5419
1205.016, 815.4060
1205.498, 802.8071
1205.980, 802.6169
1206.462, 808.6583
1206.944, 816.9547
1207.426, 825.3997
1207.908, 828.3600
1208.391, 822.2319
1208.873, 821.4429
1209.355, 827.9599
1209.837, 832.3708
1210.319, 820.5546
1210.801, 806.9826
1211.283, 812.2150
1211.765, 830.3899
1212.247, 838.7765
1212.730, 832.5698
1213.212, 826.9858
1213.694, 823.6367
1214.176, 820.7793
1214.658, 814.2795
1215.140, 808.9791
1215.622, 813.6802
1216.104, 825.8513
1216.587, 827.9769
1217.069, 814.7340
1217.551, 807.5208
1218.033, 810.7741
1218.515, 816.5789
1218.997, 814.9095
1219.479, 811.7476
1219.961, 815.4145
1220.443, 825.6833
1220.926, 830.1785
1221.408, 826.9257
1221.890, 824.0042
1222.372, 823.3726
1222.854, 823.3695
1223.336, 821.5468
1223.818, 819.5299
1224.300, 819.7217
1224.782, 822.4635
1225.265, 823.2045
1225.747, 822.0120
1226.229, 817.6317
1226.711, 807.8773
1227.193, 799.7593
1227.675, 804.3909
1228.157, 813.9844
1228.639, 818.7874
1229.122, 817.1481
1229.604, 819.5165
1230.086, 826.9963
1230.568, 830.7262
1231.050, 825.2769
1231.532, 818.8840
1232.014, 822.9381
1232.496, 830.5263
1232.979, 832.3636
1233.461, 826.8486
1233.943, 825.1200
1234.425, 827.5853
1234.907, 829.7571
1235.389, 828.5687
1235.871, 827.7529
1236.353, 833.3037
1236.835, 840.2444
1237.318, 841.3318
1237.800, 835.4833
1238.282, 831.5762
1238.764, 829.7139
1239.246, 828.2252
1239.728, 825.5065
1240.210, 823.7147
1240.692, 824.4625
1241.175, 827.4827
1241.657, 832.2042
1242.139, 838.5480
1242.621, 848.9454
1243.103, 863.5779
1243.585, 871.5952
1244.067, 859.6233
1244.549, 846.2844
1245.031, 846.6536
1245.514, 851.9036
1245.996, 848.3307
1246.478, 834.5034
1246.960, 830.4281
1247.442, 835.9814
1247.924, 842.0734
1248.406, 844.1998
1248.888, 843.6880
1249.370, 838.5372
1249.853, 832.8292
1250.335, 831.8595
1250.817, 835.5123
1251.299, 841.7672
1251.781, 850.1556
1252.263, 855.6995
1252.745, 855.4265
1253.227, 851.2983
1253.710, 839.2953
1254.192, 827.8741
1254.674, 830.0795
1255.156, 843.5207
1255.638, 852.0697
1256.120, 854.6787
1256.602, 851.8803
1257.084, 835.0581
1257.567, 824.5768
1258.049, 828.5025
1258.531, 839.1626
1259.013, 847.0186
1259.495, 852.5842
1259.977, 858.3867
1260.459, 864.3084
1260.941, 866.9799
1261.423, 863.1091
1261.906, 857.5522
1262.388, 849.9997
1262.870, 843.6586
1263.352, 844.8140
1263.834, 850.2919
1264.316, 853.1502
1264.798, 852.7933
1265.280, 850.7880
1265.762, 845.4440
1266.245, 842.0310
1266.727, 841.6377
1267.209, 843.1129
1267.691, 845.8820
1268.173, 848.9622
1268.655, 850.4907
1269.137, 850.4308
1269.619, 850.9849
1270.102, 853.1303
1270.584, 853.6415
1271.066, 851.2407
1271.548, 849.0703
1272.030, 852.8017
1272.512, 857.8973
1272.994, 859.2957
1273.476, 856.4249
1273.958, 849.8572
1274.441, 837.1506
1274.923, 835.0405
1275.405, 849.6289
1275.887, 864.6175
1276.369, 860.3402
1276.851, 850.3636
1277.333, 846.8531
1277.815, 849.7841
1278.297, 855.7402
1278.780, 865.1251
1279.262, 866.4037
1279.744, 855.3763
1280.226, 845.4823
1280.708, 848.2804
1281.190, 855.8118
1281.672, 864.0770
1282.154, 871.8574
1282.637, 874.7175
1283.119, 872.9828
1283.601, 869.2677
1284.083, 863.7497
1284.565, 858.9556
1285.047, 855.2321
1285.529, 854.3159
1286.011, 858.1909
1286.494, 864.2422
1286.976, 865.2280
1287.458, 861.9619
1287.940, 856.2698
1288.422, 847.9764
1288.904, 842.0040
1289.386, 842.1823
1289.868, 842.0739
1290.350, 838.4450
1290.833, 835.0612
1291.315, 842.3414
1291.797, 854.6222
1292.279, 859.4523
1292.761, 853.2011
1293.243, 852.8397
1293.725, 863.5381
1294.207, 871.0500
1294.689, 870.1168
1295.172, 865.3702
1295.654, 864.6208
1296.136, 863.6354
1296.618, 854.0007
1297.100, 833.3510
1297.582, 827.8437
1298.064, 839.7120
1298.546, 852.9619
1299.029, 864.3130
1299.511, 869.8401
1299.993, 858.4085
1300.475, 844.2635
1300.957, 843.4968
1301.439, 853.9224
1301.921, 859.8945
1302.403, 861.4890
1302.885, 860.1397
1303.368, 855.3525
1303.850, 851.6718
1304.332, 854.1887
1304.814, 856.8209
##END=



