##NAMES=Conichalcite
##RRUFFID=R050028
##IDEAL CHEMISTRY=CaCu^2+^As^5+^O_4_(OH)
##LOCALITY=Mapimi, Durango, Mexico
##OWNER=RRUFF
##SOURCE=Eugene Schlepp
##DESCRIPTION=Green botryoidal groups covering adamite
##STATUS=The identification of this mineral has been confirmed by X-ray diffraction and chemical analysis
##URL=rruff.info/R050028
##MEASURED CHEMISTRY=Ca_1.00_(Cu_0.70_Zn_0.30_)_Î£=1_(As_1.00_O_4_)(OH)
137.6089, 2380.061
138.0910, 2455.262
138.5731, 2524.785
139.0553, 2590.687
139.5374, 2644.439
140.0195, 2681.675
140.5016, 2706.852
140.9837, 2735.442
141.4658, 2768.262
141.9480, 2803.655
142.4301, 2840.010
142.9122, 2876.020
143.3943, 2915.788
143.8764, 2961.750
144.3585, 3013.333
144.8407, 3061.677
145.3228, 3102.755
145.8049, 3143.343
146.2870, 3189.872
146.7691, 3249.530
147.2512, 3304.820
147.7334, 3348.689
148.2155, 3376.115
148.6976, 3416.795
149.1797, 3479.881
149.6618, 3553.780
150.1439, 3622.546
150.6261, 3671.172
151.1082, 3727.348
151.5903, 3801.203
152.0724, 3907.947
152.5545, 3998.121
153.0366, 4051.442
153.5188, 4085.977
154.0009, 4137.014
154.4830, 4229.728
154.9651, 4325.499
155.4472, 4407.791
155.9293, 4465.645
156.4115, 4522.613
156.8936, 4587.024
157.3757, 4655.270
157.8578, 4715.906
158.3399, 4766.333
158.8221, 4807.574
159.3042, 4840.785
159.7863, 4859.006
160.2684, 4876.248
160.7505, 4901.441
161.2326, 4932.644
161.7148, 4952.929
162.1969, 4952.845
162.6790, 4939.310
163.1611, 4919.120
163.6432, 4894.127
164.1253, 4863.280
164.6075, 4821.656
165.0896, 4768.923
165.5717, 4721.806
166.0538, 4688.700
166.5359, 4667.291
167.0180, 4654.008
167.5002, 4655.377
167.9823, 4659.151
168.4644, 4654.641
168.9465, 4639.828
169.4286, 4625.335
169.9107, 4618.920
170.3929, 4618.586
170.8750, 4619.967
171.3571, 4616.519
171.8392, 4615.520
172.3213, 4626.159
172.8034, 4651.479
173.2856, 4681.817
173.7677, 4710.394
174.2498, 4737.200
174.7319, 4761.706
175.2140, 4784.509
175.6961, 4804.676
176.1783, 4819.306
176.6604, 4824.617
177.1425, 4829.800
177.6246, 4849.340
178.1067, 4880.901
178.5888, 4910.627
179.0710, 4929.349
179.5531, 4938.511
180.0352, 4940.008
180.5173, 4931.835
180.9994, 4918.689
181.4815, 4907.895
181.9637, 4899.310
182.4458, 4891.503
182.9279, 4885.542
183.4100, 4879.905
183.8921, 4868.370
184.3742, 4845.828
184.8564, 4817.677
185.3385, 4798.343
185.8206, 4788.275
186.3027, 4779.538
186.7848, 4757.655
187.2669, 4725.979
187.7491, 4709.472
188.2312, 4725.269
188.7133, 4763.282
189.1954, 4785.121
189.6775, 4788.372
190.1596, 4785.534
190.6418, 4789.486
191.1239, 4800.249
191.6060, 4817.751
192.0881, 4845.927
192.5702, 4882.987
193.0524, 4911.129
193.5345, 4927.440
194.0166, 4942.208
194.4987, 4968.910
194.9808, 5007.557
195.4629, 5058.276
195.9451, 5126.749
196.4272, 5213.294
196.9093, 5286.535
197.3914, 5343.034
197.8735, 5390.099
198.3556, 5438.169
198.8378, 5485.715
199.3199, 5542.568
199.8020, 5616.893
200.2841, 5709.327
200.7662, 5800.445
201.2483, 5890.062
201.7305, 5976.897
202.2126, 6054.488
202.6947, 6118.847
203.1768, 6188.848
203.6589, 6281.615
204.1410, 6401.560
204.6232, 6506.768
205.1053, 6592.020
205.5874, 6660.816
206.0695, 6725.842
206.5516, 6789.736
207.0337, 6842.929
207.5159, 6878.472
207.9980, 6894.179
208.4801, 6899.847
208.9622, 6896.881
209.4443, 6884.748
209.9264, 6861.050
210.4086, 6826.092
210.8907, 6778.707
211.3728, 6714.951
211.8549, 6627.294
212.3370, 6547.558
212.8191, 6481.969
213.3013, 6429.016
213.7834, 6370.543
214.2655, 6304.243
214.7476, 6235.854
215.2297, 6169.702
215.7118, 6102.687
216.1940, 6045.401
216.6761, 6003.567
217.1582, 5975.944
217.6403, 5938.219
218.1224, 5888.238
218.6045, 5831.666
219.0867, 5773.214
219.5688, 5712.553
220.0509, 5651.789
220.5330, 5593.042
221.0151, 5535.638
221.4972, 5475.366
221.9794, 5408.184
222.4615, 5342.062
222.9436, 5285.733
223.4257, 5244.716
223.9078, 5201.258
224.3899, 5149.862
224.8721, 5088.497
225.3542, 5037.441
225.8363, 5000.181
226.3184, 4969.491
226.8005, 4936.392
227.2827, 4900.374
227.7648, 4863.123
228.2469, 4823.445
228.7290, 4780.128
229.2111, 4745.586
229.6932, 4725.177
230.1754, 4709.608
230.6575, 4685.567
231.1396, 4646.698
231.6217, 4611.116
232.1038, 4586.494
232.5859, 4577.375
233.0681, 4552.876
233.5502, 4500.822
234.0323, 4442.258
234.5144, 4408.420
234.9965, 4412.051
235.4786, 4419.474
235.9608, 4420.950
236.4429, 4415.018
236.9250, 4409.748
237.4071, 4404.531
237.8892, 4400.403
238.3713, 4399.121
238.8535, 4401.586
239.3356, 4405.388
239.8177, 4409.742
240.2998, 4414.469
240.7819, 4421.230
241.2640, 4434.452
241.7462, 4447.246
242.2283, 4446.041
242.7104, 4419.416
243.1925, 4397.625
243.6746, 4391.854
244.1567, 4407.602
244.6389, 4420.982
245.1210, 4432.253
245.6031, 4441.001
246.0852, 4445.092
246.5673, 4438.503
247.0494, 4437.681
247.5316, 4451.457
248.0137, 4488.788
248.4958, 4509.364
248.9779, 4505.474
249.4600, 4489.027
249.9421, 4481.680
250.4243, 4484.835
250.9064, 4494.475
251.3885, 4510.510
251.8706, 4536.100
252.3527, 4557.857
252.8348, 4575.439
253.3170, 4589.392
253.7991, 4599.578
254.2812, 4602.356
254.7633, 4608.162
255.2454, 4622.026
255.7275, 4646.963
256.2097, 4668.048
256.6918, 4683.271
257.1739, 4695.790
257.6560, 4712.368
258.1381, 4736.134
258.6202, 4757.496
259.1024, 4771.024
259.5845, 4772.281
260.0666, 4784.568
260.5487, 4812.956
261.0308, 4848.508
261.5129, 4875.420
261.9951, 4890.093
262.4772, 4904.148
262.9593, 4921.639
263.4414, 4943.102
263.9235, 4966.602
264.4056, 4993.728
264.8878, 5021.690
265.3699, 5045.913
265.8520, 5065.552
266.3341, 5084.418
266.8162, 5103.616
267.2983, 5122.568
267.7805, 5145.164
268.2626, 5173.185
268.7447, 5202.661
269.2268, 5225.117
269.7089, 5237.521
270.1910, 5253.729
270.6732, 5281.208
271.1553, 5321.502
271.6374, 5357.711
272.1195, 5391.091
272.6016, 5418.597
273.0837, 5431.192
273.5659, 5425.513
274.0480, 5422.447
274.5301, 5430.677
275.0122, 5450.556
275.4943, 5472.448
275.9764, 5498.099
276.4586, 5522.470
276.9407, 5537.501
277.4228, 5542.344
277.9049, 5543.844
278.3870, 5543.698
278.8691, 5541.991
279.3513, 5540.764
279.8334, 5540.107
280.3155, 5539.697
280.7976, 5539.053
281.2798, 5538.167
281.7619, 5537.472
282.2440, 5537.715
282.7261, 5538.542
283.2082, 5536.781
283.6903, 5531.938
284.1725, 5526.314
284.6546, 5523.701
285.1367, 5523.924
285.6188, 5521.667
286.1009, 5513.854
286.5830, 5501.926
287.0652, 5491.909
287.5473, 5483.991
288.0294, 5477.407
288.5115, 5472.083
288.9936, 5467.758
289.4757, 5462.920
289.9579, 5460.580
290.4400, 5456.512
290.9221, 5433.677
291.4042, 5390.454
291.8863, 5348.740
292.3684, 5333.736
292.8506, 5340.354
293.3327, 5346.133
293.8148, 5343.078
294.2969, 5335.389
294.7790, 5330.957
295.2611, 5329.778
295.7433, 5330.075
296.2254, 5332.151
296.7075, 5334.669
297.1896, 5332.866
297.6717, 5318.635
298.1538, 5305.170
298.6360, 5313.062
299.1181, 5341.490
299.6002, 5379.813
300.0823, 5426.268
300.5644, 5476.447
301.0465, 5523.058
301.5287, 5566.645
302.0108, 5602.789
302.4929, 5619.544
302.9750, 5620.561
303.4571, 5625.813
303.9392, 5640.983
304.4214, 5670.832
304.9035, 5725.007
305.3856, 5814.656
305.8677, 5913.048
306.3498, 5992.263
306.8319, 6058.066
307.3141, 6132.762
307.7962, 6228.218
308.2783, 6338.353
308.7604, 6461.071
309.2425, 6599.011
309.7246, 6737.207
310.2068, 6861.038
310.6889, 6977.450
311.1710, 7105.745
311.6531, 7263.093
312.1352, 7431.305
312.6173, 7594.850
313.0995, 7745.937
313.5816, 7902.471
314.0637, 8074.385
314.5458, 8258.277
315.0279, 8448.984
315.5100, 8645.357
315.9922, 8847.398
316.4743, 9055.993
316.9564, 9272.390
317.4385, 9490.561
317.9206, 9713.997
318.4027, 9936.778
318.8849, 10150.62
319.3670, 10358.75
319.8491, 10552.78
320.3312, 10726.30
320.8133, 10876.45
321.2954, 11024.57
321.7776, 11207.40
322.2597, 11379.05
322.7418, 11490.65
323.2239, 11500.52
323.7060, 11484.28
324.1881, 11462.25
324.6703, 11437.30
325.1524, 11377.22
325.6345, 11259.35
326.1166, 11116.89
326.5987, 10975.58
327.0808, 10850.40
327.5630, 10708.98
328.0451, 10539.61
328.5272, 10344.10
329.0093, 10159.77
329.4914, 9986.418
329.9735, 9828.556
330.4557, 9692.274
330.9378, 9595.888
331.4199, 9488.297
331.9020, 9359.337
332.3841, 9214.658
332.8662, 9080.849
333.3484, 8959.116
333.8305, 8848.400
334.3126, 8749.792
334.7947, 8671.240
335.2768, 8581.829
335.7589, 8473.425
336.2411, 8357.169
336.7232, 8260.141
337.2053, 8188.725
337.6874, 8119.916
338.1695, 8039.095
338.6516, 7943.997
339.1338, 7865.068
339.6159, 7808.893
340.0980, 7760.436
340.5801, 7692.771
341.0622, 7602.479
341.5443, 7516.939
342.0265, 7447.937
342.5086, 7394.109
342.9907, 7334.165
343.4728, 7265.991
343.9549, 7201.991
344.4370, 7162.652
344.9192, 7145.636
345.4013, 7126.778
345.8834, 7096.430
346.3655, 7058.830
346.8476, 7023.374
347.3297, 6989.938
347.8119, 6964.944
348.2940, 6961.816
348.7761, 6973.250
349.2582, 6976.651
349.7403, 6960.211
350.2225, 6938.413
350.7046, 6931.291
351.1867, 6937.837
351.6688, 6950.782
352.1509, 6975.784
352.6331, 7001.064
353.1152, 7005.835
353.5973, 6975.292
354.0794, 6942.421
354.5615, 6941.646
355.0436, 6963.839
355.5258, 6981.218
356.0079, 6977.683
356.4900, 6963.119
356.9721, 6943.621
357.4542, 6916.962
357.9363, 6896.104
358.4185, 6902.155
358.9006, 6917.479
359.3827, 6911.563
359.8648, 6855.115
360.3469, 6788.150
360.8290, 6729.647
361.3112, 6681.479
361.7933, 6639.152
362.2754, 6601.066
362.7575, 6567.716
363.2396, 6539.521
363.7217, 6517.391
364.2039, 6500.008
364.6860, 6491.618
365.1681, 6492.245
365.6502, 6482.312
366.1323, 6443.253
366.6144, 6402.753
367.0966, 6379.920
367.5787, 6392.514
368.0608, 6402.201
368.5429, 6410.721
369.0250, 6415.747
369.5071, 6404.203
369.9893, 6360.808
370.4714, 6318.704
370.9535, 6294.786
371.4356, 6298.869
371.9177, 6299.417
372.3998, 6295.482
372.8820, 6288.068
373.3641, 6280.371
373.8462, 6274.762
374.3283, 6262.698
374.8104, 6238.058
375.2925, 6198.818
375.7747, 6169.301
376.2568, 6151.577
376.7389, 6138.971
377.2210, 6122.725
377.7031, 6102.547
378.1852, 6082.938
378.6674, 6064.312
379.1495, 6047.368
379.6316, 6035.886
380.1137, 6030.618
380.5958, 6024.869
381.0779, 6009.677
381.5601, 5987.493
382.0422, 5972.202
382.5243, 5969.043
383.0064, 5971.023
383.4885, 5966.361
383.9706, 5955.753
384.4528, 5944.667
384.9349, 5936.701
385.4170, 5930.648
385.8991, 5924.476
386.3812, 5917.950
386.8633, 5910.865
387.3455, 5899.727
387.8276, 5887.716
388.3097, 5882.000
388.7918, 5890.950
389.2739, 5904.715
389.7560, 5918.701
390.2382, 5933.424
390.7203, 5937.653
391.2024, 5912.553
391.6845, 5878.001
392.1666, 5856.619
392.6487, 5867.962
393.1309, 5882.796
393.6130, 5891.911
394.0951, 5895.118
394.5772, 5892.729
395.0593, 5879.849
395.5414, 5864.547
396.0236, 5851.981
396.5057, 5843.510
396.9878, 5836.989
397.4699, 5831.235
397.9520, 5827.222
398.4341, 5828.119
398.9163, 5839.436
399.3984, 5849.948
399.8805, 5855.258
400.3626, 5853.059
400.8447, 5852.323
401.3268, 5852.372
401.8090, 5854.393
402.2911, 5860.143
402.7732, 5869.903
403.2553, 5882.486
403.7374, 5897.572
404.2195, 5915.181
404.7017, 5937.078
405.1838, 5965.542
405.6659, 5992.350
406.1480, 6005.857
406.6301, 6005.746
407.1122, 6017.555
407.5944, 6048.401
408.0765, 6091.316
408.5586, 6130.619
409.0407, 6166.507
409.5228, 6200.151
410.0049, 6228.341
410.4871, 6254.443
410.9692, 6288.825
411.4513, 6333.304
411.9334, 6383.474
412.4155, 6440.395
412.8976, 6500.729
413.3798, 6552.766
413.8619, 6574.618
414.3440, 6596.095
414.8261, 6657.771
415.3082, 6760.405
415.7903, 6855.854
416.2725, 6898.743
416.7546, 6922.918
417.2367, 6968.076
417.7188, 7063.802
418.2009, 7162.840
418.6830, 7240.217
419.1652, 7302.148
419.6473, 7368.408
420.1294, 7447.128
420.6115, 7531.407
421.0937, 7619.737
421.5758, 7713.644
422.0579, 7804.118
422.5400, 7889.711
423.0221, 7971.408
423.5042, 8052.596
423.9864, 8131.256
424.4685, 8211.037
424.9506, 8297.393
425.4327, 8390.928
425.9148, 8466.920
426.3969, 8513.735
426.8791, 8556.237
427.3612, 8616.059
427.8433, 8698.262
428.3254, 8782.590
428.8075, 8870.563
429.2896, 8956.848
429.7718, 9020.925
430.2539, 9061.312
430.7360, 9088.829
431.2181, 9104.726
431.7002, 9110.094
432.1823, 9123.091
432.6645, 9147.062
433.1466, 9170.543
433.6287, 9179.758
434.1108, 9175.257
434.5929, 9158.791
435.0750, 9125.401
435.5572, 9082.988
436.0393, 9047.769
436.5214, 9019.136
437.0035, 8984.075
437.4856, 8934.278
437.9677, 8871.578
438.4499, 8797.209
438.9320, 8705.277
439.4141, 8612.343
439.8962, 8527.644
440.3783, 8451.274
440.8604, 8380.974
441.3426, 8309.295
441.8247, 8249.338
442.3068, 8213.017
442.7889, 8207.303
443.2710, 8197.629
443.7531, 8175.582
444.2353, 8144.619
444.7174, 8108.167
445.1995, 8035.050
445.6816, 7991.736
446.1637, 8004.759
446.6458, 8067.196
447.1280, 8106.633
447.6101, 8109.002
448.0922, 8103.895
448.5743, 8105.986
449.0564, 8113.878
449.5385, 8134.665
450.0207, 8174.832
450.5028, 8222.081
450.9849, 8250.092
451.4670, 8253.979
451.9491, 8262.376
452.4312, 8289.972
452.9134, 8333.088
453.3955, 8361.148
453.8776, 8372.063
454.3597, 8382.181
454.8418, 8412.913
455.3239, 8458.023
455.8061, 8488.554
456.2882, 8492.255
456.7703, 8488.054
457.2524, 8501.897
457.7345, 8531.213
458.2166, 8566.076
458.6988, 8596.742
459.1809, 8631.599
459.6630, 8682.604
460.1451, 8753.844
460.6272, 8823.527
461.1093, 8874.899
461.5915, 8917.370
462.0736, 8961.579
462.5557, 9008.942
463.0378, 9060.781
463.5199, 9115.450
464.0020, 9173.499
464.4842, 9241.234
464.9663, 9337.564
465.4484, 9430.271
465.9305, 9501.704
466.4126, 9535.089
466.8947, 9577.594
467.3769, 9638.883
467.8590, 9704.882
468.3411, 9753.701
468.8232, 9782.918
469.3053, 9798.599
469.7874, 9799.993
470.2696, 9787.827
470.7517, 9773.947
471.2338, 9756.631
471.7159, 9742.965
472.1980, 9745.287
472.6801, 9762.834
473.1623, 9760.658
473.6444, 9728.214
474.1265, 9685.053
474.6086, 9671.396
475.0907, 9681.579
475.5728, 9678.939
476.0550, 9632.607
476.5371, 9564.898
477.0192, 9512.563
477.5013, 9476.707
477.9834, 9444.983
478.4655, 9409.008
478.9477, 9370.941
479.4298, 9334.407
479.9119, 9304.361
480.3940, 9270.566
480.8761, 9225.359
481.3582, 9172.031
481.8404, 9120.554
482.3225, 9077.646
482.8046, 9034.494
483.2867, 8988.633
483.7688, 8942.906
484.2509, 8883.827
484.7331, 8800.333
485.2152, 8708.272
485.6973, 8620.222
486.1794, 8537.359
486.6615, 8456.426
487.1436, 8377.496
487.6258, 8299.783
488.1079, 8219.528
488.5900, 8137.378
489.0721, 8052.079
489.5542, 7960.742
490.0363, 7862.862
490.5185, 7773.190
491.0006, 7693.979
491.4827, 7619.230
491.9648, 7542.581
492.4470, 7464.466
492.9291, 7387.835
493.4112, 7310.961
493.8933, 7240.199
494.3754, 7194.103
494.8575, 7168.339
495.3397, 7138.433
495.8218, 7082.052
496.3039, 7015.401
496.7860, 6955.807
497.2681, 6904.798
497.7502, 6861.388
498.2324, 6825.537
498.7145, 6796.464
499.1966, 6772.425
499.6787, 6760.775
500.1608, 6746.504
500.6429, 6722.478
501.1251, 6689.511
501.6072, 6662.078
502.0893, 6646.987
502.5714, 6632.121
503.0535, 6610.561
503.5356, 6574.423
504.0178, 6551.775
504.4999, 6549.812
504.9820, 6554.985
505.4641, 6544.006
505.9462, 6512.479
506.4283, 6488.091
506.9105, 6480.559
507.3926, 6485.979
507.8747, 6488.115
508.3568, 6486.622
508.8389, 6488.621
509.3210, 6506.354
509.8032, 6531.703
510.2853, 6538.609
510.7674, 6519.552
511.2495, 6500.387
511.7316, 6511.687
512.2137, 6542.334
512.6959, 6569.466
513.1780, 6584.328
513.6601, 6592.077
514.1422, 6592.457
514.6243, 6586.947
515.1064, 6585.070
515.5886, 6595.147
516.0707, 6606.804
516.5528, 6612.726
517.0349, 6605.714
517.5170, 6606.205
517.9991, 6620.044
518.4813, 6640.899
518.9634, 6661.263
519.4455, 6681.968
519.9276, 6700.764
520.4097, 6717.349
520.8918, 6731.516
521.3740, 6741.294
521.8561, 6743.110
522.3382, 6752.376
522.8203, 6788.929
523.3024, 6849.484
523.7845, 6879.756
524.2667, 6873.314
524.7488, 6849.783
525.2309, 6820.366
525.7130, 6791.473
526.1951, 6787.413
526.6772, 6836.054
527.1594, 6894.915
527.6415, 6912.113
528.1236, 6894.452
528.6057, 6871.917
529.0878, 6861.529
529.5699, 6852.918
530.0521, 6839.435
530.5342, 6820.554
531.0163, 6794.721
531.4984, 6751.877
531.9805, 6705.670
532.4626, 6670.412
532.9448, 6661.952
533.4269, 6648.007
533.9090, 6626.861
534.3911, 6597.834
534.8732, 6557.642
535.3553, 6498.541
535.8375, 6441.898
536.3196, 6400.255
536.8017, 6374.295
537.2838, 6334.191
537.7659, 6274.704
538.2480, 6217.124
538.7302, 6186.166
539.2123, 6178.633
539.6944, 6175.163
540.1765, 6173.163
540.6586, 6170.424
541.1407, 6165.298
541.6229, 6157.071
542.1050, 6143.205
542.5871, 6113.408
543.0692, 6083.181
543.5513, 6070.725
544.0334, 6076.854
544.5156, 6077.440
544.9977, 6051.740
545.4798, 6021.283
545.9619, 6003.423
546.4440, 6007.930
546.9261, 6015.419
547.4083, 6026.845
547.8904, 6038.968
548.3725, 6045.942
548.8546, 6047.207
549.3367, 6044.157
549.8188, 6035.693
550.3010, 6022.477
550.7831, 6011.669
551.2652, 6002.804
551.7473, 5997.905
552.2294, 5999.601
552.7115, 6007.300
553.1937, 6015.451
553.6758, 6023.774
554.1579, 6031.873
554.6400, 6043.258
555.1221, 6054.447
555.6042, 6055.067
556.0864, 6036.120
556.5685, 6010.417
557.0506, 5981.784
557.5327, 5954.571
558.0148, 5945.720
558.4969, 5981.612
558.9791, 6024.840
559.4612, 6054.291
559.9433, 6067.369
560.4254, 6068.227
560.9075, 6038.349
561.3896, 6007.467
561.8718, 6002.661
562.3539, 6051.809
562.8360, 6078.251
563.3181, 6065.424
563.8002, 6031.551
564.2823, 6022.466
564.7645, 6043.742
565.2466, 6065.187
565.7287, 6074.977
566.2108, 6075.128
566.6929, 6076.647
567.1750, 6079.849
567.6572, 6076.974
568.1393, 6046.727
568.6214, 6008.196
569.1035, 6007.428
569.5856, 6060.772
570.0677, 6114.264
570.5499, 6115.819
571.0320, 6089.833
571.5141, 6075.007
571.9962, 6099.698
572.4783, 6124.101
572.9604, 6136.979
573.4426, 6137.423
573.9247, 6122.294
574.4068, 6061.637
574.8889, 6012.591
575.3710, 6001.267
575.8531, 6037.418
576.3353, 6060.068
576.8174, 6064.835
577.2995, 6062.269
577.7816, 6062.608
578.2637, 6066.471
578.7458, 6064.682
579.2280, 6052.317
579.7101, 6040.338
580.1922, 6056.200
580.6743, 6093.881
581.1564, 6119.363
581.6385, 6104.903
582.1207, 6075.783
582.6028, 6065.014
583.0849, 6070.925
583.5670, 6079.562
584.0491, 6087.232
584.5313, 6091.463
585.0134, 6088.487
585.4955, 6073.719
585.9776, 6065.057
586.4597, 6074.610
586.9418, 6089.472
587.4240, 6094.604
587.9061, 6080.450
588.3882, 6070.655
588.8703, 6066.769
589.3524, 6069.115
589.8345, 6081.098
590.3167, 6106.350
590.7988, 6127.153
591.2809, 6132.421
591.7630, 6126.261
592.2451, 6132.488
592.7272, 6151.742
593.2094, 6167.760
593.6915, 6165.341
594.1736, 6150.402
594.6557, 6131.757
595.1378, 6108.957
595.6199, 6092.140
596.1021, 6087.881
596.5842, 6094.813
597.0663, 6111.062
597.5485, 6157.080
598.0306, 6189.802
598.5127, 6187.720
598.9948, 6158.775
599.4769, 6137.896
599.9590, 6129.431
600.4412, 6126.346
600.9233, 6126.999
601.4054, 6131.500
601.8875, 6138.824
602.3696, 6150.729
602.8517, 6160.988
603.3339, 6161.344
603.8160, 6152.986
604.2981, 6152.604
604.7802, 6163.267
605.2623, 6177.923
605.7444, 6188.940
606.2266, 6196.726
606.7087, 6201.878
607.1908, 6204.180
607.6729, 6204.600
608.1550, 6202.847
608.6371, 6199.680
609.1193, 6197.498
609.6014, 6200.430
610.0835, 6201.853
610.5656, 6197.315
611.0477, 6185.343
611.5298, 6176.563
612.0120, 6163.314
612.4941, 6161.227
612.9762, 6186.478
613.4583, 6254.521
613.9404, 6290.770
614.4225, 6283.579
614.9047, 6258.844
615.3868, 6255.397
615.8689, 6271.252
616.3510, 6279.834
616.8331, 6269.954
617.3152, 6253.352
617.7974, 6248.550
618.2795, 6253.009
618.7616, 6256.527
619.2437, 6251.271
619.7258, 6244.605
620.2079, 6241.251
620.6901, 6241.549
621.1722, 6245.345
621.6543, 6257.708
622.1364, 6269.993
622.6185, 6276.062
623.1006, 6271.987
623.5828, 6270.050
624.0649, 6272.048
624.5470, 6274.536
625.0291, 6273.230
625.5112, 6267.562
625.9933, 6259.952
626.4755, 6248.086
626.9576, 6238.337
627.4397, 6247.163
627.9218, 6272.441
628.4039, 6297.977
628.8860, 6319.183
629.3682, 6334.325
629.8503, 6336.149
630.3324, 6326.875
630.8145, 6322.884
631.2966, 6345.416
631.7787, 6368.523
632.2609, 6369.087
632.7430, 6334.313
633.2251, 6316.248
633.7072, 6346.874
634.1893, 6384.870
634.6714, 6394.080
635.1536, 6353.112
635.6357, 6332.707
636.1178, 6347.561
636.5999, 6375.319
637.0820, 6367.526
637.5641, 6322.064
638.0463, 6295.575
638.5284, 6313.228
639.0105, 6354.936
639.4926, 6382.756
639.9747, 6398.596
640.4568, 6412.787
640.9390, 6442.186
641.4211, 6466.179
641.9032, 6457.971
642.3853, 6415.857
642.8674, 6384.259
643.3495, 6387.172
643.8317, 6402.688
644.3138, 6416.147
644.7959, 6426.062
645.2780, 6433.519
645.7601, 6437.952
646.2422, 6440.418
646.7244, 6442.957
647.2065, 6446.617
647.6886, 6443.003
648.1707, 6426.133
648.6528, 6407.682
649.1349, 6415.976
649.6171, 6447.181
650.0992, 6474.313
650.5813, 6480.682
651.0634, 6478.651
651.5455, 6486.339
652.0276, 6500.824
652.5098, 6505.995
652.9919, 6482.690
653.4740, 6455.616
653.9561, 6440.150
654.4382, 6439.299
654.9203, 6440.982
655.4025, 6443.530
655.8846, 6448.282
656.3667, 6456.073
656.8488, 6466.957
657.3309, 6481.784
657.8130, 6502.771
658.2952, 6523.890
658.7773, 6537.811
659.2594, 6544.626
659.7415, 6542.813
660.2236, 6528.179
660.7057, 6511.085
661.1879, 6508.248
661.6700, 6515.408
662.1521, 6520.760
662.6342, 6512.721
663.1163, 6506.113
663.5984, 6514.073
664.0806, 6534.290
664.5627, 6546.655
665.0448, 6537.759
665.5269, 6527.562
666.0090, 6525.818
666.4911, 6534.668
666.9733, 6534.892
667.4554, 6522.037
667.9375, 6509.386
668.4196, 6506.174
668.9017, 6512.485
669.3839, 6533.735
669.8660, 6574.065
670.3481, 6611.607
670.8302, 6615.929
671.3123, 6598.535
671.7944, 6583.918
672.2766, 6579.437
672.7587, 6580.241
673.2408, 6587.463
673.7229, 6597.169
674.2050, 6601.807
674.6871, 6593.190
675.1693, 6585.822
675.6514, 6583.532
676.1335, 6585.700
676.6156, 6589.670
677.0977, 6596.563
677.5798, 6602.890
678.0620, 6609.282
678.5441, 6614.685
679.0262, 6602.891
679.5083, 6572.339
679.9904, 6548.705
680.4725, 6558.286
680.9547, 6586.958
681.4368, 6611.174
681.9189, 6627.986
682.4010, 6640.814
682.8831, 6649.965
683.3652, 6657.082
683.8474, 6664.614
684.3295, 6685.656
684.8116, 6687.025
685.2937, 6641.651
685.7758, 6583.979
686.2579, 6560.471
686.7401, 6582.599
687.2222, 6608.368
687.7043, 6632.954
688.1864, 6654.311
688.6685, 6666.137
689.1506, 6668.886
689.6328, 6669.899
690.1149, 6673.151
690.5970, 6676.157
691.0791, 6673.104
691.5612, 6665.559
692.0433, 6661.545
692.5255, 6669.626
693.0076, 6679.119
693.4897, 6684.525
693.9718, 6685.523
694.4539, 6680.093
694.9360, 6660.092
695.4182, 6640.938
695.9003, 6628.698
696.3824, 6620.983
696.8645, 6635.533
697.3466, 6680.033
697.8287, 6726.624
698.3109, 6742.763
698.7930, 6733.476
699.2751, 6723.528
699.7572, 6715.416
700.2393, 6714.328
700.7214, 6733.483
701.2036, 6761.814
701.6857, 6780.815
702.1678, 6778.638
702.6499, 6772.157
703.1320, 6767.476
703.6141, 6763.080
704.0963, 6754.229
704.5784, 6725.920
705.0605, 6716.174
705.5426, 6739.936
706.0247, 6788.057
706.5068, 6820.024
706.9890, 6835.283
707.4711, 6840.566
707.9532, 6828.498
708.4353, 6811.321
708.9174, 6829.186
709.3995, 6878.263
709.8817, 6920.484
710.3638, 6920.155
710.8459, 6907.265
711.3280, 6911.651
711.8101, 6939.788
712.2922, 6954.545
712.7744, 6927.005
713.2565, 6896.308
713.7386, 6889.358
714.2207, 6917.588
714.7028, 6940.599
715.1849, 6958.499
715.6671, 6971.352
716.1492, 6975.732
716.6313, 6972.986
717.1134, 6983.454
717.5955, 7015.590
718.0776, 7045.340
718.5598, 7032.112
719.0419, 6996.231
719.5240, 6977.123
720.0061, 6994.160
720.4882, 7024.360
720.9703, 7069.098
721.4525, 7118.678
721.9346, 7151.287
722.4167, 7156.754
722.8988, 7154.202
723.3809, 7141.474
723.8630, 7123.882
724.3452, 7126.147
724.8273, 7151.398
725.3094, 7173.827
725.7915, 7178.810
726.2736, 7173.063
726.7557, 7169.504
727.2379, 7169.220
727.7200, 7180.765
728.2021, 7228.813
728.6842, 7277.365
729.1663, 7289.589
729.6484, 7261.087
730.1306, 7247.026
730.6127, 7276.512
731.0948, 7313.841
731.5769, 7337.990
732.0590, 7343.240
732.5411, 7360.832
733.0233, 7393.334
733.5054, 7432.416
733.9875, 7477.163
734.4696, 7524.630
734.9517, 7547.074
735.4338, 7538.027
735.9160, 7525.544
736.3981, 7528.686
736.8802, 7549.764
737.3623, 7596.363
737.8444, 7693.047
738.3266, 7771.644
738.8087, 7789.584
739.2908, 7780.143
739.7729, 7791.533
740.2551, 7833.828
740.7372, 7883.465
741.2193, 7944.112
741.7014, 8005.399
742.1835, 8035.247
742.6656, 8032.985
743.1478, 8059.625
743.6299, 8147.518
744.1120, 8259.122
744.5941, 8342.761
745.0762, 8400.778
745.5583, 8443.140
746.0405, 8446.073
746.5226, 8460.706
747.0047, 8524.735
747.4868, 8629.438
747.9689, 8720.802
748.4510, 8781.354
748.9332, 8841.373
749.4153, 8914.592
749.8974, 8997.835
750.3795, 9051.010
750.8616, 9069.254
751.3438, 9093.511
751.8259, 9162.802
752.3080, 9254.146
752.7901, 9307.173
753.2722, 9322.595
753.7543, 9345.161
754.2365, 9424.036
754.7186, 9509.119
755.2007, 9551.762
755.6828, 9535.927
756.1649, 9544.883
756.6470, 9612.283
757.1292, 9691.193
757.6113, 9753.929
758.0934, 9795.929
758.5755, 9842.391
759.0576, 9894.721
759.5397, 9948.298
760.0219, 9998.026
760.5040, 10045.40
760.9861, 10092.02
761.4682, 10136.28
761.9503, 10187.65
762.4324, 10261.14
762.9146, 10343.22
763.3967, 10417.51
763.8788, 10467.83
764.3609, 10530.00
764.8430, 10614.96
765.3251, 10711.29
765.8073, 10807.68
766.2894, 10902.22
766.7715, 11003.36
767.2536, 11112.67
767.7357, 11226.88
768.2178, 11338.06
768.7000, 11449.22
769.1821, 11569.93
769.6642, 11704.33
770.1463, 11849.42
770.6284, 12014.89
771.1105, 12187.58
771.5927, 12342.13
772.0748, 12419.85
772.5569, 12539.53
773.0390, 12758.16
773.5211, 13030.93
774.0032, 13243.00
774.4854, 13383.66
774.9675, 13500.40
775.4496, 13594.63
775.9317, 13685.16
776.4138, 13832.76
776.8959, 14025.17
777.3781, 14202.77
777.8602, 14311.05
778.3423, 14409.55
778.8244, 14559.96
779.3065, 14748.51
779.7886, 14914.90
780.2708, 15019.69
780.7529, 15121.10
781.2350, 15237.54
781.7171, 15368.45
782.1992, 15514.90
782.6813, 15683.42
783.1635, 15835.87
783.6456, 15940.45
784.1277, 16015.09
784.6098, 16123.22
785.0919, 16262.26
785.5740, 16409.32
786.0562, 16557.82
786.5383, 16704.01
787.0204, 16841.79
787.5025, 16972.06
787.9846, 17102.60
788.4667, 17235.10
788.9489, 17367.95
789.4310, 17499.42
789.9131, 17627.55
790.3952, 17775.78
790.8773, 17948.44
791.3594, 18115.39
791.8416, 18239.47
792.3237, 18340.83
792.8058, 18472.96
793.2879, 18639.35
793.7700, 18820.37
794.2521, 19023.21
794.7343, 19221.54
795.2164, 19388.73
795.6985, 19517.97
796.1806, 19641.70
796.6627, 19755.57
797.1448, 19875.59
797.6270, 20014.31
798.1091, 20175.59
798.5912, 20324.43
799.0733, 20461.67
799.5554, 20588.03
800.0375, 20691.57
800.5197, 20786.86
801.0018, 20899.13
801.4839, 21029.98
801.9660, 21189.38
802.4481, 21404.57
802.9302, 21637.86
803.4124, 21855.81
803.8945, 22036.89
804.3766, 22240.00
804.8587, 22460.74
805.3408, 22709.15
805.8229, 22994.48
806.3051, 23316.70
806.7872, 23679.63
807.2693, 24091.97
807.7514, 24501.32
808.2335, 24847.90
808.7156, 25163.43
809.1978, 25495.69
809.6799, 25857.15
810.1620, 26227.13
810.6441, 26571.35
811.1262, 26936.70
811.6083, 27368.86
812.0905, 27910.55
812.5726, 28422.57
813.0547, 28883.29
813.5368, 29340.74
814.0189, 29846.27
814.5010, 30396.36
814.9832, 30970.91
815.4653, 31562.10
815.9474, 32183.17
816.4295, 32835.47
816.9116, 33535.08
817.3937, 34303.79
817.8759, 35134.08
818.3580, 36046.36
818.8401, 37068.06
819.3222, 38149.61
819.8043, 39263.89
820.2864, 40419.77
820.7686, 41568.01
821.2507, 42688.27
821.7328, 43819.71
822.2149, 45002.63
822.6970, 46217.84
823.1791, 47429.37
823.6613, 48599.84
824.1434, 49824.77
824.6255, 51200.90
825.1076, 52640.41
825.5897, 54022.60
826.0718, 55358.26
826.5540, 56617.66
827.0361, 57882.48
827.5182, 59000.02
828.0003, 59868.92
828.4824, 60480.20
828.9645, 60622.53
829.4467, 60267.52
829.9288, 59409.41
830.4109, 57979.95
830.8930, 56070.39
831.3751, 53771.21
831.8572, 51030.37
832.3394, 48119.62
832.8215, 44960.37
833.3036, 41742.38
833.7857, 38625.08
834.2678, 35604.48
834.7499, 32801.34
835.2321, 30232.09
835.7142, 27905.80
836.1963, 25859.18
836.6784, 24058.81
837.1605, 22450.76
837.6426, 21043.03
838.1248, 19806.26
838.6069, 18758.53
839.0890, 17852.35
839.5711, 17052.46
840.0532, 16376.14
840.5353, 15767.03
841.0175, 15229.89
841.4996, 14742.74
841.9817, 14289.26
842.4638, 13867.03
842.9459, 13489.41
843.4280, 13159.50
843.9102, 12864.74
844.3923, 12608.15
844.8744, 12371.01
845.3565, 12120.37
845.8386, 11835.29
846.3207, 11584.59
846.8029, 11415.71
847.2850, 11281.68
847.7671, 11138.84
848.2492, 10972.25
848.7313, 10837.27
849.2134, 10741.48
849.6956, 10660.47
850.1777, 10568.29
850.6598, 10469.79
851.1419, 10382.26
851.6240, 10307.85
852.1061, 10240.80
852.5883, 10174.32
853.0704, 10113.76
853.5525, 10066.21
854.0346, 10042.91
854.5167, 9999.682
854.9988, 9913.816
855.4810, 9834.132
855.9631, 9799.632
856.4452, 9811.070
856.9273, 9813.835
857.4094, 9806.522
857.8915, 9792.465
858.3737, 9774.442
858.8558, 9751.636
859.3379, 9720.565
859.8200, 9680.329
860.3021, 9643.820
860.7842, 9615.084
861.2664, 9593.482
861.7485, 9582.814
862.2306, 9586.155
862.7127, 9563.547
863.1948, 9508.633
863.6769, 9454.973
864.1591, 9435.542
864.6412, 9432.663
865.1233, 9399.848
865.6054, 9337.482
866.0875, 9274.551
866.5696, 9232.646
867.0518, 9191.316
867.5339, 9138.426
868.0160, 9071.761
868.4981, 8996.874
868.9802, 8904.551
869.4623, 8823.335
869.9445, 8771.977
870.4266, 8742.987
870.9087, 8704.164
871.3908, 8655.175
871.8729, 8598.475
872.3550, 8519.609
872.8372, 8445.799
873.3193, 8406.121
873.8014, 8394.594
874.2835, 8376.798
874.7656, 8340.774
875.2477, 8301.876
875.7299, 8260.474
876.2120, 8219.860
876.6941, 8193.742
877.1762, 8182.162
877.6583, 8170.583
878.1404, 8148.055
878.6226, 8127.306
879.1047, 8132.901
879.5869, 8154.001
880.0690, 8162.847
880.5511, 8131.333
881.0332, 8106.478
881.5153, 8107.196
881.9974, 8121.735
882.4796, 8127.752
882.9617, 8124.977
883.4438, 8113.448
883.9259, 8089.460
884.4080, 8064.547
884.8901, 8059.411
885.3723, 8067.644
885.8544, 8075.161
886.3365, 8083.426
886.8186, 8079.558
887.3007, 8048.946
887.7828, 8006.359
888.2650, 7972.402
888.7471, 7949.853
889.2292, 7931.132
889.7113, 7917.437
890.1934, 7903.259
890.6755, 7877.447
891.1577, 7845.026
891.6398, 7822.642
892.1219, 7815.674
892.6040, 7808.060
893.0861, 7786.954
893.5682, 7761.110
894.0504, 7738.625
894.5325, 7721.542
895.0146, 7705.793
895.4967, 7691.125
895.9788, 7678.289
896.4609, 7667.063
896.9431, 7658.012
897.4252, 7657.888
897.9073, 7667.188
898.3894, 7672.678
898.8715, 7662.755
899.3536, 7645.893
899.8358, 7623.312
900.3179, 7593.487
900.8000, 7589.060
901.2821, 7635.005
901.7642, 7673.173
902.2463, 7671.963
902.7285, 7638.502
903.2106, 7628.959
903.6927, 7642.578
904.1748, 7657.436
904.6569, 7658.710
905.1390, 7655.843
905.6212, 7658.391
906.1033, 7665.306
906.5854, 7671.304
907.0675, 7673.223
907.5496, 7675.793
908.0317, 7678.108
908.5139, 7682.569
908.9960, 7704.784
909.4781, 7744.776
909.9602, 7756.748
910.4423, 7705.791
910.9244, 7649.702
911.4066, 7672.811
911.8887, 7738.895
912.3708, 7781.575
912.8529, 7752.429
913.3350, 7730.673
913.8171, 7731.818
914.2993, 7746.109
914.7814, 7763.199
915.2635, 7783.627
915.7456, 7801.361
916.2277, 7817.198
916.7098, 7822.986
917.1920, 7795.949
917.6741, 7757.879
918.1562, 7745.708
918.6383, 7778.646
919.1204, 7795.128
919.6025, 7752.783
920.0847, 7707.215
920.5668, 7700.313
921.0489, 7741.463
921.5310, 7751.653
922.0131, 7728.441
922.4952, 7695.015
922.9774, 7654.712
923.4595, 7623.652
923.9416, 7643.092
924.4237, 7709.499
924.9058, 7742.445
925.3879, 7672.071
925.8701, 7599.936
926.3522, 7569.239
926.8343, 7575.041
927.3164, 7581.133
927.7985, 7588.783
928.2806, 7585.065
928.7628, 7558.258
929.2449, 7522.253
929.7270, 7493.809
930.2091, 7473.919
930.6912, 7464.470
931.1733, 7474.847
931.6555, 7486.099
932.1376, 7495.064
932.6197, 7500.330
933.1018, 7499.284
933.5839, 7491.761
934.0660, 7478.271
934.5482, 7457.600
935.0303, 7434.729
935.5124, 7410.390
935.9945, 7389.641
936.4766, 7384.078
936.9587, 7405.201
937.4409, 7416.403
937.9230, 7392.025
938.4051, 7363.804
938.8872, 7359.020
939.3693, 7384.904
939.8514, 7386.874
940.3336, 7361.243
940.8157, 7338.246
941.2978, 7352.923
941.7799, 7381.052
942.2620, 7385.256
942.7441, 7364.508
943.2263, 7344.263
943.7084, 7331.591
944.1905, 7324.981
944.6726, 7324.709
945.1547, 7329.866
945.6368, 7336.274
946.1190, 7344.354
946.6011, 7346.866
947.0832, 7335.856
947.5653, 7322.737
948.0474, 7327.437
948.5295, 7341.685
949.0117, 7346.241
949.4938, 7319.692
949.9759, 7301.809
950.4580, 7301.992
950.9401, 7312.759
951.4222, 7326.813
951.9044, 7344.519
952.3865, 7344.421
952.8686, 7318.520
953.3507, 7296.371
953.8328, 7321.775
954.3149, 7363.844
954.7971, 7382.850
955.2792, 7365.918
955.7613, 7344.215
956.2434, 7310.918
956.7255, 7288.565
957.2076, 7298.580
957.6898, 7339.335
958.1719, 7347.584
958.6540, 7323.779
959.1361, 7294.742
959.6182, 7271.100
960.1003, 7256.601
960.5825, 7257.075
961.0646, 7270.649
961.5467, 7286.463
962.0288, 7310.479
962.5109, 7323.082
962.9930, 7313.639
963.4752, 7294.806
963.9573, 7300.768
964.4394, 7327.745
964.9215, 7354.071
965.4036, 7377.202
965.8857, 7388.023
966.3679, 7368.004
966.8500, 7336.106
967.3321, 7317.458
967.8142, 7327.928
968.2963, 7327.858
968.7784, 7311.230
969.2606, 7295.894
969.7427, 7307.337
970.2248, 7335.522
970.7069, 7338.762
971.1890, 7314.285
971.6711, 7296.469
972.1533, 7327.703
972.6354, 7356.784
973.1175, 7336.806
973.5996, 7268.856
974.0817, 7247.675
974.5638, 7288.774
975.0460, 7320.788
975.5281, 7306.919
976.0102, 7272.083
976.4923, 7273.447
976.9744, 7299.135
977.4565, 7314.271
977.9387, 7293.062
978.4208, 7271.092
978.9029, 7253.441
979.3850, 7245.929
979.8671, 7260.913
980.3492, 7304.534
980.8314, 7334.640
981.3135, 7346.542
981.7956, 7345.069
982.2777, 7323.749
982.7598, 7297.945
983.2419, 7291.917
983.7241, 7311.544
984.2062, 7330.973
984.6883, 7354.176
985.1704, 7362.226
985.6525, 7337.708
986.1346, 7286.392
986.6168, 7275.763
987.0989, 7304.533
987.5810, 7332.268
988.0631, 7341.346
988.5452, 7334.025
989.0273, 7296.704
989.5095, 7245.169
989.9916, 7220.981
990.4737, 7261.979
990.9558, 7281.192
991.4379, 7256.651
991.9200, 7223.094
992.4022, 7248.166
992.8843, 7314.216
993.3664, 7339.274
993.8485, 7301.472
994.3306, 7264.009
994.8127, 7272.736
995.2949, 7299.489
995.7770, 7322.024
996.2591, 7339.082
996.7412, 7350.224
997.2233, 7355.979
997.7054, 7353.523
998.1876, 7335.217
998.6697, 7309.869
999.1518, 7297.941
999.6339, 7296.612
1000.116, 7294.366
1000.598, 7278.564
1001.080, 7269.700
1001.562, 7278.848
1002.044, 7297.370
1002.527, 7310.053
1003.009, 7316.208
1003.491, 7326.961
1003.973, 7346.353
1004.455, 7361.323
1004.937, 7353.671
1005.419, 7334.551
1005.901, 7317.505
1006.384, 7305.210
1006.866, 7293.137
1007.348, 7272.313
1007.830, 7264.416
1008.312, 7290.605
1008.794, 7341.399
1009.276, 7355.493
1009.758, 7337.101
1010.240, 7322.056
1010.723, 7343.158
1011.205, 7362.478
1011.687, 7350.467
1012.169, 7318.591
1012.651, 7297.332
1013.133, 7283.563
1013.615, 7296.736
1014.097, 7350.191
1014.580, 7403.665
1015.062, 7385.609
1015.544, 7331.209
1016.026, 7312.086
1016.508, 7348.526
1016.990, 7378.356
1017.472, 7362.602
1017.954, 7346.486
1018.436, 7360.532
1018.919, 7402.267
1019.401, 7415.533
1019.883, 7400.256
1020.365, 7383.439
1020.847, 7377.515
1021.329, 7380.076
1021.811, 7396.247
1022.293, 7418.509
1022.776, 7428.348
1023.258, 7411.933
1023.740, 7399.498
1024.222, 7393.104
1024.704, 7393.108
1025.186, 7402.531
1025.668, 7418.868
1026.150, 7437.312
1026.632, 7458.586
1027.115, 7463.563
1027.597, 7415.469
1028.079, 7368.582
1028.561, 7363.960
1029.043, 7399.465
1029.525, 7426.723
1030.007, 7445.128
1030.489, 7456.393
1030.972, 7457.467
1031.454, 7456.003
1031.936, 7467.467
1032.418, 7484.117
1032.900, 7489.270
1033.382, 7460.198
1033.864, 7444.449
1034.346, 7449.803
1034.828, 7465.376
1035.311, 7485.476
1035.793, 7506.982
1036.275, 7499.969
1036.757, 7461.811
1037.239, 7435.608
1037.721, 7469.536
1038.203, 7511.137
1038.685, 7520.623
1039.167, 7500.360
1039.650, 7489.524
1040.132, 7489.119
1040.614, 7494.858
1041.096, 7507.477
1041.578, 7521.641
1042.060, 7527.506
1042.542, 7528.715
1043.024, 7532.433
1043.507, 7543.500
1043.989, 7551.130
1044.471, 7545.436
1044.953, 7544.895
1045.435, 7572.572
1045.917, 7624.199
1046.399, 7635.973
1046.881, 7608.746
1047.364, 7585.968
1047.846, 7609.871
1048.328, 7636.394
1048.810, 7628.214
1049.292, 7595.384
1049.774, 7586.800
1050.256, 7610.102
1050.738, 7632.418
1051.220, 7648.011
1051.703, 7657.930
1052.185, 7657.507
1052.667, 7654.198
1053.149, 7664.895
1053.631, 7699.751
1054.113, 7715.190
1054.595, 7682.715
1055.077, 7647.148
1055.559, 7628.911
1056.042, 7627.016
1056.524, 7644.223
1057.006, 7676.044
1057.488, 7685.796
1057.970, 7624.997
1058.452, 7565.271
1058.934, 7559.489
1059.416, 7583.088
1059.899, 7589.499
1060.381, 7575.957
1060.863, 7548.144
1061.345, 7502.431
1061.827, 7459.543
1062.309, 7442.057
1062.791, 7439.982
1063.273, 7441.210
1063.755, 7444.345
1064.238, 7444.551
1064.720, 7437.612
1065.202, 7431.202
1065.684, 7427.410
1066.166, 7425.795
1066.648, 7425.129
1067.130, 7425.571
1067.612, 7428.214
1068.094, 7434.940
1068.577, 7440.244
1069.059, 7438.536
1069.541, 7435.421
1070.023, 7438.271
1070.505, 7450.761
1070.987, 7443.796
1071.469, 7414.789
1071.951, 7390.750
1072.434, 7399.624
1072.916, 7416.788
1073.398, 7408.445
1073.880, 7382.650
1074.362, 7369.283
1074.844, 7385.348
1075.326, 7395.603
1075.808, 7394.050
1076.291, 7388.360
1076.773, 7389.265
1077.255, 7394.835
1077.737, 7399.412
1078.219, 7402.051
1078.701, 7405.710
1079.183, 7418.826
1079.665, 7425.832
1080.147, 7418.278
1080.630, 7398.386
1081.112, 7375.146
1081.594, 7349.067
1082.076, 7336.999
1082.558, 7350.896
1083.040, 7370.363
1083.522, 7376.674
1084.004, 7377.682
1084.486, 7384.709
1084.969, 7404.507
1085.451, 7413.656
1085.933, 7409.748
1086.415, 7404.010
1086.897, 7403.801
1087.379, 7408.091
1087.861, 7419.480
1088.343, 7434.754
1088.826, 7440.806
1089.308, 7418.682
1089.790, 7407.270
1090.272, 7421.075
1090.754, 7439.278
1091.236, 7420.444
1091.718, 7375.515
1092.200, 7358.301
1092.682, 7378.584
1093.165, 7401.569
1093.647, 7405.385
1094.129, 7404.998
1094.611, 7409.900
1095.093, 7419.354
1095.575, 7427.509
1096.057, 7434.380
1096.539, 7440.440
1097.022, 7448.839
1097.504, 7450.335
1097.986, 7423.366
1098.468, 7388.575
1098.950, 7375.848
1099.432, 7399.092
1099.914, 7420.438
1100.396, 7441.219
1100.879, 7454.666
1101.361, 7451.646
1101.843, 7439.700
1102.325, 7434.817
1102.807, 7434.374
1103.289, 7428.235
1103.771, 7395.981
1104.253, 7381.271
1104.735, 7395.133
1105.218, 7423.494
1105.700, 7449.214
1106.182, 7472.490
1106.664, 7498.325
1107.146, 7527.827
1107.628, 7535.454
1108.110, 7481.125
1108.592, 7424.895
1109.074, 7398.029
1109.557, 7397.244
1110.039, 7418.444
1110.521, 7462.250
1111.003, 7491.090
1111.485, 7492.101
1111.967, 7479.971
1112.449, 7467.850
1112.931, 7450.511
1113.414, 7413.220
1113.896, 7340.931
1114.378, 7336.076
1114.860, 7415.448
1115.342, 7488.869
1115.824, 7500.510
1116.306, 7479.785
1116.788, 7462.068
1117.271, 7450.170
1117.753, 7450.228
1118.235, 7477.020
1118.717, 7497.350
1119.199, 7508.370
1119.681, 7514.222
1120.163, 7516.686
1120.645, 7517.619
1121.127, 7525.372
1121.609, 7538.895
1122.092, 7545.146
1122.574, 7536.189
1123.056, 7519.427
1123.538, 7491.141
1124.020, 7462.029
1124.502, 7451.392
1124.984, 7459.044
1125.466, 7491.701
1125.949, 7554.815
1126.431, 7601.084
1126.913, 7587.857
1127.395, 7552.976
1127.877, 7515.758
1128.359, 7479.548
1128.841, 7470.002
1129.323, 7488.659
1129.806, 7507.097
1130.288, 7516.250
1130.770, 7518.308
1131.252, 7511.341
1131.734, 7500.503
1132.216, 7490.804
1132.698, 7477.781
1133.180, 7489.724
1133.662, 7534.717
1134.145, 7570.177
1134.627, 7559.436
1135.109, 7529.029
1135.591, 7518.418
1136.073, 7522.375
1136.555, 7527.942
1137.037, 7536.959
1137.519, 7537.694
1138.001, 7525.565
1138.484, 7513.375
1138.966, 7516.915
1139.448, 7530.121
1139.930, 7538.246
1140.412, 7541.051
1140.894, 7543.855
1141.376, 7540.725
1141.858, 7550.692
1142.341, 7589.345
1142.823, 7631.841
1143.305, 7626.658
1143.787, 7584.037
1144.269, 7544.949
1144.751, 7514.420
1145.233, 7508.393
1145.715, 7571.256
1146.198, 7624.664
1146.680, 7619.436
1147.162, 7570.809
1147.644, 7548.978
1148.126, 7552.708
1148.608, 7567.955
1149.090, 7597.090
1149.572, 7618.311
1150.054, 7604.774
1150.536, 7582.837
1151.019, 7579.316
1151.501, 7596.540
1151.983, 7606.140
1152.465, 7608.104
1152.947, 7604.029
1153.429, 7588.338
1153.911, 7574.252
1154.393, 7578.469
1154.876, 7591.900
1155.358, 7597.938
1155.840, 7590.434
1156.322, 7592.885
1156.804, 7608.212
1157.286, 7619.796
1157.768, 7602.110
1158.250, 7581.487
1158.733, 7600.682
1159.215, 7647.403
1159.697, 7671.696
1160.179, 7655.960
1160.661, 7639.974
1161.143, 7627.241
1161.625, 7618.124
1162.107, 7616.117
1162.589, 7616.373
1163.072, 7609.212
1163.554, 7594.548
1164.036, 7583.528
1164.518, 7575.679
1165.000, 7577.802
1165.482, 7593.877
1165.964, 7617.209
1166.446, 7641.558
1166.928, 7662.185
1167.411, 7665.444
1167.893, 7645.805
1168.375, 7631.439
1168.857, 7638.925
1169.339, 7643.256
1169.821, 7630.708
1170.303, 7611.511
1170.785, 7620.115
1171.268, 7648.057
1171.750, 7666.066
1172.232, 7657.166
1172.714, 7657.378
1173.196, 7701.984
1173.678, 7739.094
1174.160, 7732.791
1174.642, 7690.610
1175.125, 7657.081
1175.607, 7632.682
1176.089, 7621.859
1176.571, 7636.106
1177.053, 7651.602
1177.535, 7658.721
1178.017, 7661.542
1178.499, 7664.894
1178.981, 7668.677
1179.464, 7657.550
1179.946, 7632.885
1180.428, 7618.400
1180.910, 7636.295
1181.392, 7660.341
1181.874, 7681.920
1182.356, 7698.234
1182.838, 7701.723
1183.320, 7691.525
1183.803, 7702.115
1184.285, 7737.141
1184.767, 7759.227
1185.249, 7729.444
1185.731, 7687.671
1186.213, 7651.161
1186.695, 7626.492
1187.177, 7634.962
1187.660, 7679.775
1188.142, 7706.818
1188.624, 7705.674
1189.106, 7697.809
1189.588, 7695.562
1190.070, 7699.771
1190.552, 7718.254
1191.034, 7746.235
1191.516, 7750.753
1191.999, 7729.456
1192.481, 7704.266
1192.963, 7677.498
1193.445, 7659.965
1193.927, 7672.050
1194.409, 7692.338
1194.891, 7695.131
1195.373, 7678.321
1195.855, 7686.909
1196.338, 7725.614
1196.820, 7747.165
1197.302, 7724.220
1197.784, 7695.001
1198.266, 7709.747
1198.748, 7738.612
1199.230, 7738.915
1199.712, 7698.018
1200.195, 7688.716
1200.677, 7715.418
1201.159, 7743.114
1201.641, 7754.468
1202.123, 7755.521
1202.605, 7748.246
1203.087, 7737.058
1203.569, 7729.681
1204.052, 7731.027
1204.534, 7720.398
1205.016, 7694.202
1205.498, 7677.083
1205.980, 7693.489
1206.462, 7721.984
1206.944, 7744.349
1207.426, 7758.548
1207.908, 7757.361
1208.391, 7731.529
1208.873, 7716.506
1209.355, 7713.125
1209.837, 7723.416
1210.319, 7764.153
1210.801, 7807.752
1211.283, 7818.717
1211.765, 7804.486
1212.247, 7794.752
1212.730, 7798.110
1213.212, 7782.460
1213.694, 7738.003
1214.176, 7706.099
1214.658, 7748.926
1215.140, 7809.983
1215.622, 7819.907
1216.104, 7784.667
1216.587, 7762.161
1217.069, 7758.655
1217.551, 7759.657
1218.033, 7763.434
1218.515, 7768.571
1218.997, 7774.246
1219.479, 7779.902
1219.961, 7784.552
1220.443, 7788.276
1220.926, 7792.845
1221.408, 7797.306
1221.890, 7807.838
1222.372, 7828.505
1222.854, 7846.425
1223.336, 7842.705
1223.818, 7829.804
1224.300, 7821.696
1224.782, 7820.221
1225.265, 7816.627
1225.747, 7809.384
1226.229, 7808.055
1226.711, 7817.934
1227.193, 7828.366
1227.675, 7826.184
1228.157, 7817.314
1228.639, 7808.511
1229.122, 7800.567
1229.604, 7788.881
1230.086, 7771.093
1230.568, 7765.824
1231.050, 7784.593
1231.532, 7809.756
1232.014, 7825.792
1232.496, 7833.609
1232.979, 7831.773
1233.461, 7818.456
1233.943, 7817.254
1234.425, 7829.307
1234.907, 7842.748
1235.389, 7855.923
1235.871, 7861.683
1236.353, 7844.821
1236.835, 7820.857
1237.318, 7811.758
1237.800, 7820.473
1238.282, 7824.507
1238.764, 7823.644
1239.246, 7821.706
1239.728, 7815.537
1240.210, 7815.809
1240.692, 7838.900
1241.175, 7870.126
1241.657, 7888.424
1242.139, 7890.868
1242.621, 7900.515
1243.103, 7917.571
1243.585, 7927.040
1244.067, 7910.267
1244.549, 7893.242
1245.031, 7894.730
1245.514, 7906.317
1245.996, 7917.268
1246.478, 7928.474
1246.960, 7925.004
1247.442, 7907.556
1247.924, 7895.104
1248.406, 7909.586
1248.888, 7921.868
1249.370, 7911.177
1249.853, 7891.250
1250.335, 7878.683
1250.817, 7873.521
1251.299, 7875.319
1251.781, 7883.700
1252.263, 7893.340
1252.745, 7909.427
1253.227, 7915.493
1253.710, 7888.342
1254.192, 7860.075
1254.674, 7882.097
1255.156, 7944.029
1255.638, 7968.704
1256.120, 7953.836
1256.602, 7931.206
1257.084, 7900.312
1257.567, 7889.312
1258.049, 7915.513
1258.531, 7952.980
1259.013, 7967.850
1259.495, 7963.316
1259.977, 7943.238
1260.459, 7910.855
1260.941, 7894.653
1261.423, 7926.058
1261.906, 7950.872
1262.388, 7957.224
1262.870, 7951.620
1263.352, 7933.960
1263.834, 7914.406
1264.316, 7924.441
1264.798, 7963.218
1265.280, 7985.457
1265.762, 7965.279
1266.245, 7946.390
1266.727, 7935.121
1267.209, 7930.834
1267.691, 7934.970
1268.173, 7944.402
1268.655, 7955.605
1269.137, 7967.906
1269.619, 7975.151
1270.102, 7974.367
1270.584, 7976.427
1271.066, 7984.779
1271.548, 7992.486
1272.030, 7991.308
1272.512, 7984.067
1272.994, 7969.059
1273.476, 7948.503
1273.958, 7948.798
1274.441, 7978.761
1274.923, 7983.470
1275.405, 7943.751
1275.887, 7908.649
1276.369, 7947.832
1276.851, 8001.821
1277.333, 8010.178
1277.815, 7977.985
1278.297, 7953.747
1278.780, 7937.514
1279.262, 7935.290
1279.744, 7951.764
1280.226, 7962.686
1280.708, 7931.129
1281.190, 7903.136
1281.672, 7921.116
1282.154, 7968.207
1282.637, 7978.139
1283.119, 7956.139
1283.601, 7953.337
1284.083, 7982.917
1284.565, 8015.113
1285.047, 8042.837
1285.529, 8054.547
1286.011, 8039.373
1286.494, 8010.332
1286.976, 8005.737
1287.458, 8019.221
1287.940, 8029.834
1288.422, 8032.995
1288.904, 8035.804
1289.386, 8042.129
1289.868, 8046.768
1290.350, 8047.871
1290.833, 8046.471
1291.315, 8042.928
1291.797, 8038.950
1292.279, 8039.149
1292.761, 8045.420
1293.243, 8046.507
1293.725, 8043.748
1294.207, 8027.193
1294.689, 7985.317
1295.172, 7947.410
1295.654, 7964.065
1296.136, 8006.652
1296.618, 8040.999
1297.100, 8061.778
1297.582, 8064.932
1298.064, 8047.028
##END=



