##NAMES=Connellite
##RRUFFID=R060503
##IDEAL CHEMISTRY=Cu^2+^_36_(S^6+^O_4_)(OH)_62_Cl_8_&#183;6H_2_O
##LOCALITY=Shattuck mine, Bisbee, Cochise County, Arizona, USA
##OWNER=RRUFF
##SOURCE=University of Arizona Mineral Museum
##DESCRIPTION=Blue thin prismatic crystals
##STATUS=The identification of this mineral is confirmed by single-crystal X-ray diffraction and chemical analysis.
##URL=rruff.info/R060503
##MEASURED CHEMISTRY=Cu_33.68_(SO_4_)_1.83_(OH)_62_Cl_7.55_Â·6H_2_O
103.685, 825.459
104.167, 938.713
104.649, 1070.192
105.131, 1238.036
105.613, 1392.596
106.095, 1526.720
106.577, 1638.634
107.060, 1741.797
107.542, 1835.820
108.024, 1922.193
108.506, 2004.333
108.988, 2071.740
109.470, 2143.938
109.952, 2226.150
110.434, 2324.417
110.916, 2420.725
111.399, 2499.770
111.881, 2574.607
112.363, 2679.677
112.845, 2838.202
113.327, 3015.167
113.809, 3192.111
114.291, 3369.512
114.773, 3546.429
115.256, 3727.325
115.738, 3910.301
116.220, 4077.701
116.702, 4219.985
117.184, 4343.752
117.666, 4455.358
118.148, 4546.807
118.630, 4634.560
119.113, 4722.007
119.595, 4808.319
120.077, 4904.880
120.559, 5035.117
121.041, 5180.174
121.523, 5304.181
122.005, 5381.272
122.487, 5432.335
122.969, 5475.121
123.451, 5509.738
123.934, 5543.125
124.416, 5574.237
124.898, 5606.099
125.380, 5653.648
125.862, 5742.223
126.344, 5852.572
126.826, 5946.517
127.308, 5995.447
127.791, 6033.488
128.273, 6123.474
128.755, 6266.993
129.237, 6414.020
129.719, 6520.790
130.201, 6589.940
130.683, 6634.792
131.165, 6651.037
131.648, 6645.045
132.130, 6642.260
132.612, 6644.497
133.094, 6645.013
133.576, 6629.872
134.058, 6598.403
134.540, 6568.843
135.022, 6555.437
135.504, 6558.143
135.986, 6548.737
136.469, 6521.031
136.951, 6482.313
137.433, 6460.871
137.915, 6465.437
138.397, 6458.479
138.879, 6402.588
139.361, 6282.542
139.844, 6182.485
140.326, 6122.601
140.808, 6099.407
141.290, 6061.356
141.772, 5999.227
142.254, 5933.875
142.736, 5890.230
143.218, 5876.974
143.700, 5867.222
144.182, 5854.110
144.665, 5836.619
145.147, 5820.590
145.629, 5809.929
146.111, 5798.846
146.593, 5777.314
147.075, 5743.748
147.557, 5700.579
148.040, 5648.157
148.522, 5582.051
149.004, 5513.580
149.486, 5435.808
149.968, 5353.584
150.450, 5286.244
150.932, 5246.042
151.414, 5211.865
151.896, 5173.991
152.378, 5124.296
152.861, 5079.465
153.343, 5049.183
153.825, 5032.202
154.307, 4997.042
154.789, 4917.925
155.271, 4830.762
155.753, 4762.985
156.235, 4730.455
156.718, 4709.027
157.200, 4696.107
157.682, 4693.006
158.164, 4685.567
158.646, 4667.479
159.128, 4643.350
159.610, 4619.195
160.092, 4600.787
160.574, 4579.427
161.057, 4549.914
161.539, 4507.981
162.021, 4466.278
162.503, 4429.084
162.985, 4395.372
163.467, 4363.046
163.949, 4331.973
164.431, 4301.560
164.913, 4271.595
165.396, 4244.760
165.878, 4214.481
166.360, 4173.260
166.842, 4124.188
167.324, 4079.742
167.806, 4046.401
168.288, 4021.588
168.770, 4002.332
169.253, 3985.424
169.735, 3975.577
170.217, 3978.396
170.699, 3993.435
171.181, 4012.308
171.663, 4035.744
172.145, 4058.223
172.627, 4071.835
173.109, 4056.648
173.592, 4039.312
174.074, 4051.587
174.556, 4096.428
175.038, 4148.590
175.520, 4186.270
176.002, 4214.022
176.484, 4242.457
176.966, 4278.091
177.449, 4317.890
177.931, 4359.479
178.413, 4405.323
178.895, 4444.347
179.377, 4452.369
179.859, 4437.066
180.341, 4433.414
180.823, 4478.301
181.305, 4550.118
181.788, 4596.558
182.270, 4603.226
182.752, 4594.015
183.234, 4606.416
183.716, 4639.229
184.198, 4673.972
184.680, 4692.998
185.162, 4701.383
185.645, 4720.792
186.127, 4761.071
186.609, 4811.086
187.091, 4843.886
187.573, 4858.723
188.055, 4869.457
188.537, 4895.937
189.019, 4933.975
189.501, 4952.457
189.984, 4943.236
190.466, 4907.646
190.948, 4850.943
191.430, 4772.858
191.912, 4672.693
192.394, 4539.427
192.876, 4375.948
193.358, 4215.650
193.840, 4073.822
194.323, 3948.907
194.805, 3820.822
195.287, 3687.821
195.769, 3558.134
196.251, 3442.516
196.733, 3341.037
197.215, 3252.782
197.697, 3180.306
198.180, 3123.646
198.662, 3068.190
199.144, 3012.056
199.626, 2959.581
200.108, 2919.886
200.590, 2894.990
201.072, 2873.528
201.554, 2847.847
202.036, 2816.885
202.519, 2794.376
203.001, 2784.140
203.483, 2780.621
203.965, 2767.028
204.447, 2739.933
204.929, 2713.386
205.411, 2697.558
205.893, 2694.068
206.376, 2690.943
206.858, 2688.120
207.340, 2684.430
207.822, 2673.360
208.304, 2651.949
208.786, 2629.897
209.268, 2616.058
209.750, 2613.201
210.232, 2607.280
210.715, 2594.447
211.197, 2576.030
211.679, 2565.779
212.161, 2569.038
212.643, 2571.724
213.125, 2557.011
213.607, 2514.890
214.089, 2486.993
214.572, 2487.412
215.054, 2515.923
215.536, 2527.750
216.018, 2514.367
216.500, 2494.728
216.982, 2493.575
217.464, 2523.820
217.946, 2539.875
218.428, 2522.519
218.911, 2464.936
219.393, 2438.482
219.875, 2455.385
220.357, 2491.621
220.839, 2513.655
221.321, 2517.006
221.803, 2515.497
222.285, 2512.175
222.768, 2506.067
223.250, 2503.331
223.732, 2506.274
224.214, 2511.174
224.696, 2510.128
225.178, 2495.976
225.660, 2488.804
226.142, 2498.659
226.624, 2535.686
227.107, 2557.678
227.589, 2559.510
228.071, 2548.526
228.553, 2539.815
229.035, 2531.620
229.517, 2528.179
229.999, 2533.241
230.481, 2556.554
230.964, 2564.303
231.446, 2548.607
231.928, 2519.020
232.410, 2503.952
232.892, 2513.964
233.374, 2523.330
233.856, 2517.406
234.338, 2481.511
234.820, 2463.595
235.303, 2472.499
235.785, 2500.313
236.267, 2518.172
236.749, 2525.975
237.231, 2524.053
237.713, 2509.775
238.195, 2469.113
238.677, 2446.503
239.160, 2453.611
239.642, 2482.364
240.124, 2490.167
240.606, 2458.376
241.088, 2429.221
241.570, 2431.605
242.052, 2489.796
242.534, 2529.701
243.016, 2538.905
243.499, 2522.307
243.981, 2513.453
244.463, 2514.438
244.945, 2520.541
245.427, 2528.622
245.909, 2538.056
246.391, 2550.454
246.873, 2567.191
247.355, 2587.701
247.838, 2604.805
248.320, 2615.038
248.802, 2626.065
249.284, 2644.568
249.766, 2675.172
250.248, 2703.531
250.730, 2730.094
251.212, 2754.441
251.695, 2764.502
252.177, 2750.909
252.659, 2734.818
253.141, 2735.474
253.623, 2763.193
254.105, 2785.329
254.587, 2795.472
255.069, 2794.201
255.551, 2797.771
256.034, 2815.209
256.516, 2826.430
256.998, 2808.913
257.480, 2744.309
257.962, 2694.326
258.444, 2676.283
258.926, 2689.053
259.408, 2678.665
259.891, 2634.362
260.373, 2580.897
260.855, 2542.413
261.337, 2524.439
261.819, 2508.493
262.301, 2493.632
262.783, 2479.493
263.265, 2451.203
263.747, 2399.910
264.229, 2346.616
264.712, 2314.169
265.194, 2310.774
265.676, 2304.781
266.158, 2288.264
266.640, 2261.405
267.122, 2237.386
267.604, 2214.338
268.086, 2197.311
268.569, 2195.745
269.051, 2216.759
269.533, 2228.208
270.015, 2221.513
270.497, 2197.263
270.979, 2167.103
271.461, 2127.478
271.943, 2088.979
272.426, 2066.120
272.908, 2062.893
273.390, 2056.037
273.872, 2034.920
274.354, 2001.943
274.836, 1993.100
275.318, 2015.107
275.800, 2045.366
276.282, 2058.858
276.765, 2053.730
277.247, 2043.903
277.729, 2031.599
278.211, 2017.257
278.693, 2006.655
279.175, 2001.734
279.657, 1994.778
280.139, 1970.629
280.621, 1926.727
281.104, 1901.702
281.586, 1914.599
282.068, 1956.923
282.550, 1976.308
283.032, 1968.866
283.514, 1954.050
283.996, 1950.876
284.478, 1959.325
284.961, 1974.917
285.443, 2001.780
285.925, 2034.742
286.407, 2050.557
286.889, 2048.490
287.371, 2035.081
287.853, 2007.365
288.335, 1967.915
288.818, 1948.151
289.300, 1964.206
289.782, 2004.790
290.264, 2037.374
290.746, 2062.121
291.228, 2079.203
291.710, 2087.073
292.192, 2086.637
292.674, 2082.534
293.156, 2072.668
293.639, 2061.729
294.121, 2063.325
294.603, 2077.638
295.085, 2092.302
295.567, 2093.260
296.049, 2084.874
296.531, 2081.817
297.013, 2090.568
297.496, 2105.448
297.978, 2116.543
298.460, 2124.061
298.942, 2131.938
299.424, 2144.361
299.906, 2159.501
300.388, 2173.268
300.870, 2182.636
301.353, 2191.658
301.835, 2205.299
302.317, 2223.169
302.799, 2244.438
303.281, 2273.634
303.763, 2304.719
304.245, 2326.465
304.727, 2331.924
305.209, 2332.007
305.691, 2335.157
306.174, 2341.780
306.656, 2354.183
307.138, 2381.735
307.620, 2413.451
308.102, 2434.693
308.584, 2435.823
309.066, 2435.243
309.548, 2445.710
310.031, 2466.331
310.513, 2493.634
310.995, 2536.147
311.477, 2579.746
311.959, 2610.136
312.441, 2617.274
312.923, 2622.924
313.405, 2640.853
313.888, 2667.681
314.370, 2692.871
314.852, 2710.655
315.334, 2726.182
315.816, 2743.566
316.298, 2765.469
316.780, 2785.371
317.262, 2800.865
317.744, 2812.582
318.227, 2821.320
318.709, 2817.878
319.191, 2818.723
319.673, 2836.619
320.155, 2886.586
320.637, 2920.440
321.119, 2912.346
321.601, 2881.122
322.083, 2860.375
322.566, 2872.854
323.048, 2884.636
323.530, 2880.096
324.012, 2848.501
324.494, 2827.654
324.976, 2825.530
325.458, 2836.184
325.940, 2851.115
326.422, 2880.500
326.905, 2903.513
327.387, 2913.692
327.869, 2907.625
328.351, 2899.805
328.833, 2881.511
329.315, 2865.151
329.797, 2865.436
330.280, 2894.401
330.762, 2924.993
331.244, 2952.763
331.726, 2977.625
332.208, 3000.476
332.690, 3019.393
333.172, 3037.937
333.654, 3060.388
334.136, 3090.843
334.618, 3116.929
335.101, 3131.593
335.583, 3136.196
336.065, 3165.254
336.547, 3229.121
337.029, 3301.661
337.511, 3359.675
337.993, 3399.907
338.475, 3439.824
338.958, 3484.674
339.440, 3531.303
339.922, 3558.429
340.404, 3560.060
340.886, 3561.781
341.368, 3585.860
341.850, 3633.825
342.332, 3676.127
342.815, 3707.104
343.297, 3731.031
343.779, 3759.509
344.261, 3793.847
344.743, 3820.995
345.225, 3835.017
345.707, 3835.638
346.189, 3819.361
346.671, 3783.837
347.154, 3736.334
347.636, 3684.305
348.118, 3628.491
348.600, 3574.865
349.082, 3529.273
349.564, 3487.808
350.046, 3439.749
350.528, 3383.639
351.010, 3323.485
351.493, 3263.202
351.975, 3202.722
352.457, 3140.666
352.939, 3074.126
353.421, 3007.172
353.903, 2943.313
354.385, 2882.414
354.867, 2830.096
355.349, 2796.095
355.832, 2773.238
356.314, 2749.454
356.796, 2721.300
357.278, 2689.625
357.760, 2648.466
358.242, 2599.284
358.724, 2562.938
359.207, 2560.608
359.689, 2573.573
360.171, 2582.662
360.653, 2576.776
361.135, 2570.456
361.617, 2567.660
362.099, 2568.845
362.581, 2576.686
363.063, 2599.950
363.546, 2625.278
364.028, 2643.396
364.510, 2640.962
364.992, 2646.495
365.474, 2667.376
365.956, 2701.001
366.438, 2739.113
366.920, 2786.183
367.402, 2833.260
367.885, 2878.279
368.367, 2931.007
368.849, 2963.072
369.331, 2951.920
369.813, 2924.602
370.295, 2929.886
370.777, 2995.958
371.259, 3059.333
371.741, 3100.458
372.224, 3113.019
372.706, 3133.604
373.188, 3162.873
373.670, 3199.173
374.152, 3241.082
374.634, 3288.360
375.116, 3339.549
375.598, 3395.777
376.081, 3456.078
376.563, 3513.773
377.045, 3569.792
377.527, 3621.215
378.009, 3661.584
378.491, 3688.369
378.973, 3729.333
379.455, 3791.147
379.938, 3869.489
380.420, 3947.607
380.902, 4025.418
381.384, 4114.349
381.866, 4230.313
382.348, 4367.784
382.830, 4497.860
383.312, 4612.488
383.794, 4727.819
384.276, 4865.735
384.759, 5025.371
385.241, 5194.582
385.723, 5368.218
386.205, 5546.548
386.687, 5727.325
387.169, 5907.877
387.651, 6101.564
388.134, 6321.761
388.616, 6561.045
389.098, 6808.783
389.580, 7065.500
390.062, 7323.251
390.544, 7567.327
391.026, 7800.815
391.508, 8041.622
391.990, 8288.753
392.473, 8552.563
392.955, 8847.134
393.437, 9218.605
393.919, 9580.658
394.401, 9885.154
394.883, 10144.150
395.365, 10414.250
395.847, 10731.520
396.329, 11052.380
396.812, 11349.680
397.294, 11627.410
397.776, 11870.980
398.258, 12065.420
398.740, 12222.710
399.222, 12370.230
399.704, 12555.020
400.186, 12684.930
400.668, 12727.960
401.151, 12667.960
401.633, 12571.520
402.115, 12429.860
402.597, 12258.120
403.079, 12078.810
403.561, 11913.300
404.043, 11690.440
404.525, 11384.240
405.008, 10997.400
405.490, 10611.840
405.972, 10225.730
406.454, 9842.963
406.936, 9460.148
407.418, 9074.872
407.900, 8701.309
408.382, 8337.045
408.865, 7986.194
409.347, 7660.527
409.829, 7363.033
410.311, 7078.335
410.793, 6799.052
411.275, 6525.485
411.757, 6268.743
412.239, 6028.449
412.721, 5803.512
413.203, 5593.119
413.686, 5397.388
414.168, 5223.552
414.650, 5082.653
415.132, 4961.533
415.614, 4848.400
416.096, 4743.891
416.578, 4639.375
417.060, 4521.201
417.543, 4401.539
418.025, 4300.277
418.507, 4231.059
418.989, 4173.258
419.471, 4115.342
419.953, 4059.107
420.435, 4011.185
420.917, 3978.491
421.400, 3952.770
421.882, 3929.988
422.364, 3916.247
422.846, 3894.608
423.328, 3857.937
423.810, 3811.514
424.292, 3766.876
424.774, 3715.167
425.256, 3674.395
425.738, 3650.752
426.221, 3647.188
426.703, 3648.848
427.185, 3661.319
427.667, 3674.391
428.149, 3674.525
428.631, 3652.297
429.113, 3640.733
429.595, 3651.080
430.078, 3678.693
430.560, 3688.358
431.042, 3676.149
431.524, 3659.287
432.006, 3646.946
432.488, 3639.109
432.970, 3648.539
433.452, 3683.450
433.935, 3724.259
434.417, 3725.594
434.899, 3692.224
435.381, 3670.834
435.863, 3699.816
436.345, 3757.022
436.827, 3792.157
437.309, 3802.264
437.791, 3801.781
438.274, 3798.398
438.756, 3794.774
439.238, 3795.958
439.720, 3804.354
440.202, 3817.803
440.684, 3839.642
441.166, 3867.483
441.648, 3886.941
442.130, 3881.661
442.613, 3869.597
443.095, 3865.692
443.577, 3880.818
444.059, 3889.538
444.541, 3884.915
445.023, 3868.491
445.505, 3843.098
445.987, 3786.720
446.470, 3743.069
446.952, 3732.883
447.434, 3769.226
447.916, 3783.755
448.398, 3772.887
448.880, 3743.102
449.362, 3695.903
449.844, 3610.101
450.327, 3552.391
450.809, 3543.170
451.291, 3569.314
451.773, 3565.270
452.255, 3521.773
452.737, 3474.110
453.219, 3448.011
453.701, 3444.524
454.183, 3419.586
454.665, 3364.425
455.148, 3301.593
455.630, 3268.480
456.112, 3261.901
456.594, 3251.528
457.076, 3213.549
457.558, 3165.673
458.040, 3153.111
458.522, 3175.245
459.005, 3192.990
459.487, 3168.728
459.969, 3120.506
460.451, 3074.585
460.933, 3038.166
461.415, 3006.144
461.897, 2969.388
462.379, 2933.900
462.862, 2915.881
463.344, 2940.061
463.826, 2971.196
464.308, 2990.220
464.790, 2994.774
465.272, 2987.809
465.754, 2955.371
466.236, 2917.419
466.718, 2896.092
467.201, 2909.444
467.683, 2921.862
468.165, 2929.367
468.647, 2931.890
469.129, 2927.802
469.611, 2909.642
470.093, 2894.425
470.575, 2894.417
471.057, 2917.420
471.540, 2925.150
472.022, 2910.765
472.504, 2887.445
472.986, 2881.144
473.468, 2893.671
473.950, 2904.434
474.432, 2904.230
474.914, 2896.144
475.397, 2892.915
475.879, 2894.867
476.361, 2897.171
476.843, 2891.712
477.325, 2883.353
477.807, 2886.264
478.289, 2910.248
478.771, 2934.123
479.254, 2928.767
479.736, 2904.074
480.218, 2888.563
480.700, 2914.739
481.182, 2944.102
481.664, 2941.684
482.146, 2900.543
482.628, 2865.500
483.110, 2862.728
483.592, 2871.083
484.075, 2869.516
484.557, 2840.199
485.039, 2814.972
485.521, 2802.710
486.003, 2800.807
486.485, 2794.350
486.967, 2782.276
487.449, 2766.861
487.931, 2750.419
488.414, 2737.125
488.896, 2706.901
489.378, 2648.922
489.860, 2587.261
490.342, 2557.330
490.824, 2564.609
491.306, 2566.446
491.789, 2549.685
492.271, 2519.599
492.753, 2491.738
493.235, 2465.832
493.717, 2444.381
494.199, 2432.670
494.681, 2426.243
495.163, 2412.333
495.645, 2387.668
496.128, 2361.292
496.610, 2340.537
497.092, 2325.151
497.574, 2315.398
498.056, 2317.203
498.538, 2319.776
499.020, 2316.421
499.502, 2307.072
499.984, 2293.830
500.467, 2268.771
500.949, 2245.407
501.431, 2234.917
501.913, 2257.580
502.395, 2264.339
502.877, 2235.499
503.359, 2188.620
503.841, 2158.815
504.323, 2152.225
504.806, 2154.529
505.288, 2166.953
505.770, 2189.820
506.252, 2193.096
506.734, 2170.889
507.216, 2141.653
507.698, 2118.422
508.181, 2101.006
508.663, 2094.453
509.145, 2100.618
509.627, 2115.820
510.109, 2138.490
510.591, 2167.084
511.073, 2189.766
511.555, 2195.281
512.037, 2192.994
512.519, 2200.697
513.002, 2218.495
513.484, 2233.168
513.966, 2228.903
514.448, 2218.287
514.930, 2216.540
515.412, 2232.041
515.894, 2249.982
516.376, 2265.888
516.859, 2279.136
517.341, 2288.116
517.823, 2286.427
518.305, 2285.957
518.787, 2290.753
519.269, 2301.463
519.751, 2315.911
520.233, 2339.260
520.716, 2361.932
521.198, 2375.519
521.680, 2375.797
522.162, 2379.221
522.644, 2389.204
523.126, 2401.717
523.608, 2408.088
524.090, 2408.397
524.572, 2401.789
525.055, 2382.248
525.537, 2354.853
526.019, 2343.523
526.501, 2349.188
526.983, 2355.682
527.465, 2349.835
527.947, 2333.987
528.429, 2311.765
528.911, 2281.747
529.394, 2250.482
529.876, 2218.479
530.358, 2189.225
530.840, 2169.828
531.322, 2180.896
531.804, 2188.096
532.286, 2171.688
532.768, 2129.607
533.250, 2085.221
533.733, 2037.992
534.215, 1993.844
534.697, 1957.558
535.179, 1930.911
535.661, 1909.389
536.143, 1897.735
536.625, 1888.817
537.107, 1866.506
537.589, 1825.642
538.072, 1786.708
538.554, 1754.627
539.036, 1729.780
539.518, 1721.226
540.000, 1730.878
540.482, 1740.055
540.964, 1731.697
541.446, 1709.821
541.929, 1685.152
542.411, 1658.341
542.893, 1632.825
543.375, 1611.499
543.857, 1594.162
544.339, 1580.837
544.821, 1571.796
545.303, 1566.657
545.786, 1568.138
546.268, 1575.175
546.750, 1577.717
547.232, 1569.293
547.714, 1557.435
548.196, 1546.911
548.678, 1541.683
549.160, 1530.839
549.643, 1506.682
550.125, 1481.043
550.607, 1470.787
551.089, 1483.222
551.571, 1493.232
552.053, 1493.642
552.535, 1487.855
553.017, 1493.346
553.499, 1512.009
553.982, 1528.516
554.464, 1534.068
554.946, 1529.723
555.428, 1516.756
555.910, 1493.780
556.392, 1472.872
556.874, 1466.143
557.356, 1469.924
557.838, 1477.555
558.321, 1488.771
558.803, 1500.820
559.285, 1514.487
559.767, 1527.981
560.249, 1535.762
560.731, 1524.447
561.213, 1516.846
561.695, 1526.882
562.177, 1560.296
562.660, 1582.841
563.142, 1584.022
563.624, 1580.162
564.106, 1581.853
564.588, 1586.357
565.070, 1604.776
565.552, 1644.267
566.034, 1692.388
566.516, 1723.432
566.999, 1736.277
567.481, 1744.653
567.963, 1750.660
568.445, 1757.219
568.927, 1773.265
569.409, 1798.555
569.891, 1830.435
570.373, 1875.467
570.856, 1922.637
571.338, 1953.365
571.820, 1961.580
572.302, 1966.917
572.784, 1978.766
573.266, 1996.428
573.748, 2019.188
574.230, 2052.066
574.713, 2084.256
575.195, 2111.148
575.677, 2133.913
576.159, 2160.467
576.641, 2198.363
577.123, 2230.906
577.605, 2249.982
578.087, 2252.736
578.570, 2262.254
579.052, 2280.681
579.534, 2301.624
580.016, 2316.031
580.498, 2324.643
580.980, 2343.436
581.462, 2379.345
581.944, 2417.993
582.426, 2439.379
582.909, 2444.885
583.391, 2438.842
583.873, 2409.806
584.355, 2379.501
584.837, 2375.984
585.319, 2396.100
585.801, 2402.337
586.283, 2355.085
586.765, 2302.022
587.248, 2280.377
587.730, 2320.947
588.212, 2334.967
588.694, 2303.229
589.176, 2244.246
589.658, 2174.086
590.140, 2078.865
590.622, 2002.016
591.104, 1952.903
591.587, 1925.893
592.069, 1905.330
592.551, 1892.111
593.033, 1876.904
593.515, 1854.344
593.997, 1825.948
594.479, 1795.182
594.961, 1761.787
595.443, 1732.637
595.926, 1714.974
596.408, 1704.341
596.890, 1696.058
597.372, 1692.563
597.854, 1682.207
598.336, 1651.438
598.818, 1610.615
599.300, 1577.289
599.783, 1555.335
600.265, 1541.227
600.747, 1541.645
601.229, 1552.524
601.711, 1545.972
602.193, 1509.433
602.675, 1474.848
603.157, 1455.644
603.640, 1452.562
604.122, 1462.075
604.604, 1487.909
605.086, 1513.703
605.568, 1521.368
606.050, 1513.922
606.532, 1506.878
607.014, 1504.091
607.497, 1500.733
607.979, 1485.092
608.461, 1464.406
608.943, 1455.611
609.425, 1483.924
609.907, 1510.900
610.389, 1506.795
610.871, 1476.363
611.353, 1458.946
611.836, 1480.616
612.318, 1505.304
612.800, 1516.297
613.282, 1512.815
613.764, 1497.192
614.246, 1460.907
614.728, 1422.895
615.210, 1402.090
615.692, 1400.455
616.175, 1402.153
616.657, 1407.110
617.139, 1410.743
617.621, 1405.642
618.103, 1392.063
618.585, 1371.270
619.067, 1334.402
619.549, 1296.842
620.031, 1280.791
620.514, 1282.865
620.996, 1284.407
621.478, 1276.305
621.960, 1263.153
622.442, 1244.836
622.924, 1217.678
623.406, 1203.251
623.888, 1224.597
624.370, 1248.248
624.853, 1246.152
625.335, 1203.633
625.817, 1165.884
626.299, 1132.797
626.781, 1108.665
627.263, 1105.400
627.745, 1124.377
628.227, 1139.011
628.710, 1137.692
629.192, 1128.115
629.674, 1128.932
630.156, 1138.586
630.638, 1145.680
631.120, 1144.758
631.602, 1136.778
632.084, 1117.991
632.567, 1087.027
633.049, 1066.064
633.531, 1073.312
634.013, 1089.648
634.495, 1099.468
634.977, 1092.908
635.459, 1092.130
635.941, 1105.854
636.424, 1121.018
636.906, 1115.925
637.388, 1083.104
637.870, 1054.942
638.352, 1037.306
638.834, 1029.945
639.316, 1035.329
639.798, 1052.911
640.280, 1067.796
640.763, 1073.709
641.245, 1070.987
641.727, 1052.942
642.209, 1021.050
642.691, 1001.345
643.173, 1024.154
643.655, 1057.962
644.137, 1075.168
644.619, 1066.127
645.102, 1055.315
645.584, 1051.524
646.066, 1047.043
646.548, 1031.983
647.030, 993.313
647.512, 970.507
647.994, 973.240
648.476, 990.532
648.958, 994.207
649.441, 982.362
649.923, 981.794
650.405, 1012.275
650.887, 1055.692
651.369, 1069.062
651.851, 1054.944
652.333, 1035.551
652.815, 1022.637
653.297, 1013.027
653.780, 1001.805
654.262, 987.790
654.744, 981.967
655.226, 1000.833
655.708, 1022.459
656.190, 1029.359
656.672, 1001.210
657.154, 988.447
657.636, 1002.379
658.119, 1022.914
658.601, 1016.760
659.083, 976.110
659.565, 956.074
660.047, 976.947
660.529, 1015.912
661.011, 1019.324
661.494, 991.690
661.976, 964.577
662.458, 956.116
662.940, 955.378
663.422, 949.534
663.904, 939.326
664.386, 931.957
664.868, 928.941
665.350, 931.564
665.833, 943.753
666.315, 972.140
666.797, 985.742
667.279, 973.265
667.761, 954.392
668.243, 945.058
668.725, 948.699
669.207, 947.759
669.690, 939.211
670.172, 929.194
670.654, 927.129
671.136, 932.250
671.618, 939.665
672.100, 949.628
672.582, 958.875
673.064, 961.677
673.546, 960.206
674.029, 960.483
674.511, 970.029
674.993, 977.965
675.475, 977.808
675.957, 969.867
676.439, 961.103
676.921, 951.021
677.403, 941.959
677.885, 935.115
678.368, 930.968
678.850, 925.007
679.332, 915.871
679.814, 908.739
680.296, 910.457
680.778, 919.307
681.260, 923.511
681.742, 920.353
682.224, 917.915
682.707, 931.698
683.189, 950.947
683.671, 956.169
684.153, 926.635
684.635, 901.013
685.117, 902.548
685.599, 920.053
686.081, 929.958
686.563, 925.186
687.046, 915.939
687.528, 900.238
688.010, 880.916
688.492, 875.565
688.974, 887.006
689.456, 900.721
689.938, 913.791
690.420, 923.383
690.903, 910.435
691.385, 875.280
691.867, 847.160
692.349, 859.937
692.831, 887.342
693.313, 894.654
693.795, 872.235
694.277, 861.018
694.760, 901.995
695.242, 950.000
695.724, 964.814
696.206, 895.372
696.688, 860.738
697.170, 878.232
697.652, 916.386
698.134, 927.567
698.617, 907.769
699.099, 893.703
699.581, 897.957
700.063, 905.304
700.545, 874.301
701.027, 816.995
701.509, 782.573
701.991, 820.241
702.473, 871.317
702.956, 879.938
703.438, 855.307
703.920, 841.822
704.402, 871.887
704.884, 902.524
705.366, 910.799
705.848, 895.365
706.330, 889.808
706.812, 900.964
707.295, 910.074
707.777, 903.340
708.259, 880.960
708.741, 860.210
709.223, 840.425
709.705, 829.502
710.187, 853.224
710.669, 887.998
711.151, 879.625
711.634, 800.972
712.116, 735.890
712.598, 753.729
713.080, 809.515
713.562, 847.648
714.044, 844.954
714.526, 837.005
715.008, 824.582
715.490, 810.934
715.973, 802.832
716.455, 801.344
716.937, 800.716
717.419, 798.821
717.901, 797.414
718.383, 803.207
718.865, 815.087
719.347, 823.707
719.830, 819.212
720.312, 812.502
720.794, 817.435
721.276, 832.132
721.758, 843.589
722.240, 849.939
722.722, 848.492
723.204, 834.154
723.687, 804.124
724.169, 784.906
724.651, 781.375
725.133, 781.001
725.615, 775.343
726.097, 763.986
726.579, 756.379
727.061, 752.863
727.544, 752.065
728.026, 752.003
728.508, 753.735
728.990, 760.051
729.472, 772.416
729.954, 785.479
730.436, 797.503
730.918, 807.374
731.400, 813.956
731.883, 821.326
732.365, 819.272
732.847, 802.570
733.329, 778.725
733.811, 758.494
734.293, 740.571
734.775, 733.028
735.257, 740.928
735.739, 756.020
736.222, 758.009
736.704, 750.454
737.186, 750.810
737.668, 779.507
738.150, 810.609
738.632, 816.487
739.114, 803.468
739.596, 794.673
740.078, 804.997
740.561, 814.813
741.043, 817.084
741.525, 811.954
742.007, 798.444
742.489, 769.456
742.971, 747.783
743.453, 747.281
743.935, 765.897
744.417, 789.891
744.900, 819.502
745.382, 836.368
745.864, 815.345
746.346, 776.993
746.828, 746.150
747.310, 724.994
747.792, 717.479
748.274, 741.381
748.757, 769.604
749.239, 778.786
749.721, 747.869
750.203, 742.705
750.685, 784.399
751.167, 824.016
751.649, 797.749
752.131, 703.784
752.614, 644.166
753.096, 634.123
753.578, 653.082
754.060, 690.485
754.542, 735.122
755.024, 764.443
755.506, 765.297
755.988, 758.899
756.471, 751.515
756.953, 745.283
757.435, 744.121
757.917, 755.614
758.399, 762.639
758.881, 762.298
759.363, 756.679
759.845, 751.061
760.327, 745.606
760.810, 737.063
761.292, 718.889
761.774, 702.571
762.256, 718.275
762.738, 757.219
763.220, 788.132
763.702, 790.658
764.184, 782.911
764.666, 771.167
765.148, 757.284
765.631, 751.925
766.113, 770.274
766.595, 781.550
767.077, 772.507
767.559, 745.118
768.041, 731.157
768.523, 731.792
769.005, 738.792
769.487, 753.549
769.970, 769.482
770.452, 767.885
770.934, 749.386
771.416, 729.639
771.898, 714.450
772.380, 705.203
772.862, 704.754
773.344, 715.053
773.827, 722.808
774.309, 722.734
774.791, 723.000
775.273, 730.445
775.755, 748.354
776.237, 750.424
776.719, 733.257
777.201, 714.357
777.683, 711.009
778.166, 718.863
778.648, 729.995
779.130, 745.054
779.612, 750.642
780.094, 725.970
780.576, 692.316
781.058, 671.612
781.541, 672.974
782.023, 678.059
782.505, 686.908
782.987, 697.070
783.469, 706.804
783.951, 716.594
784.433, 720.960
784.915, 717.601
785.397, 713.677
785.880, 724.260
786.362, 741.718
786.844, 743.810
787.326, 714.921
787.808, 690.429
788.290, 705.650
788.772, 736.633
789.254, 749.016
789.737, 710.161
790.219, 686.959
790.701, 692.245
791.183, 711.390
791.665, 716.291
792.147, 705.161
792.629, 699.407
793.111, 705.481
793.593, 716.804
794.076, 723.972
794.558, 727.864
795.040, 730.588
795.522, 735.800
796.004, 737.317
796.486, 731.303
796.968, 719.333
797.450, 704.598
797.932, 674.369
798.415, 663.238
798.897, 686.975
799.379, 729.670
799.861, 741.289
800.343, 721.361
800.825, 703.145
801.307, 698.937
801.789, 704.743
802.271, 722.388
802.754, 746.236
803.236, 758.818
803.718, 737.797
804.200, 717.928
804.682, 718.074
805.164, 734.106
805.646, 738.966
806.128, 727.777
806.610, 714.985
807.093, 704.922
807.575, 696.803
808.057, 684.974
808.539, 670.279
809.021, 664.116
809.503, 681.509
809.985, 704.746
810.468, 711.345
810.950, 705.131
811.432, 705.612
811.914, 730.132
812.396, 752.685
812.878, 762.132
813.360, 759.901
813.842, 756.927
814.324, 752.759
814.807, 749.547
815.289, 752.113
815.771, 755.440
816.253, 732.698
816.735, 689.004
817.217, 665.492
817.699, 714.504
818.181, 772.253
818.664, 785.568
819.146, 755.228
819.628, 726.227
820.110, 706.879
820.592, 690.847
821.074, 673.311
821.556, 655.571
822.038, 660.858
822.520, 691.727
823.003, 723.958
823.485, 742.218
823.967, 752.177
824.449, 770.997
824.931, 795.426
825.413, 801.102
825.895, 745.401
826.377, 691.480
826.859, 682.923
827.342, 724.479
827.824, 749.828
828.306, 753.613
828.788, 749.729
829.270, 742.373
829.752, 732.509
830.234, 727.031
830.716, 725.893
831.198, 724.969
831.681, 721.773
832.163, 717.213
832.645, 712.591
833.127, 707.812
833.609, 700.911
834.091, 678.763
834.573, 667.241
835.055, 682.644
835.537, 723.990
836.020, 741.941
836.502, 732.688
836.984, 717.027
837.466, 704.174
837.948, 694.426
838.430, 688.978
838.912, 687.580
839.394, 688.675
839.877, 692.558
840.359, 697.601
840.841, 704.135
841.323, 712.021
841.805, 714.705
842.287, 708.135
842.769, 702.440
843.251, 700.774
843.734, 703.326
844.216, 715.132
844.698, 735.921
845.180, 750.498
845.662, 744.375
846.144, 729.926
846.626, 716.439
847.108, 705.955
847.591, 708.104
848.073, 748.807
848.555, 780.156
849.037, 780.049
849.519, 752.315
850.001, 724.674
850.483, 696.124
850.965, 671.611
851.447, 648.171
851.930, 633.133
852.412, 655.164
852.894, 706.712
853.376, 748.455
853.858, 756.242
854.340, 749.829
854.822, 733.829
855.304, 711.292
855.786, 699.623
856.269, 703.655
856.751, 711.121
857.233, 718.932
857.715, 727.140
858.197, 740.148
858.679, 756.444
859.161, 759.083
859.643, 719.926
860.125, 679.684
860.608, 691.848
861.090, 738.487
861.572, 768.477
862.054, 752.821
862.536, 731.834
863.018, 712.519
863.500, 696.211
863.982, 686.955
864.464, 684.645
864.947, 691.510
865.429, 714.353
865.911, 737.855
866.393, 730.050
866.875, 702.442
867.357, 684.997
867.839, 700.139
868.321, 717.096
868.804, 722.039
869.286, 720.634
869.768, 726.521
870.250, 747.247
870.732, 753.788
871.214, 736.331
871.696, 710.255
872.178, 701.880
872.661, 708.592
873.143, 720.582
873.625, 738.659
874.107, 753.124
874.589, 758.353
875.071, 755.091
875.553, 744.393
876.035, 709.995
876.518, 693.327
877.000, 703.421
877.482, 722.638
877.964, 727.995
878.446, 720.166
878.928, 710.781
879.410, 700.950
879.892, 693.738
880.374, 691.925
880.857, 694.810
881.339, 703.597
881.821, 726.863
882.303, 734.995
882.785, 705.513
883.267, 672.200
883.749, 663.508
884.231, 683.437
884.713, 696.043
885.196, 699.763
885.678, 698.500
886.160, 697.125
886.642, 692.846
887.124, 677.016
887.606, 646.792
888.088, 627.685
888.570, 639.068
889.052, 658.213
889.534, 671.200
890.017, 677.117
890.499, 683.098
890.981, 689.438
891.463, 694.774
891.945, 701.761
892.427, 706.233
892.909, 689.807
893.391, 655.733
893.874, 636.171
894.356, 666.733
894.838, 702.443
895.320, 715.614
895.802, 706.129
896.284, 703.416
896.766, 712.194
897.248, 715.636
897.731, 703.257
898.213, 682.825
898.695, 680.268
899.177, 692.367
899.659, 702.175
900.141, 695.587
900.623, 688.496
901.105, 691.817
901.588, 703.029
902.070, 715.000
902.552, 736.142
903.034, 739.301
903.516, 710.944
903.998, 670.811
904.480, 663.792
904.962, 685.242
905.444, 703.632
905.927, 707.564
906.409, 708.557
906.891, 721.379
907.373, 736.280
907.855, 738.883
908.337, 704.856
908.819, 688.676
909.301, 698.325
909.783, 720.057
910.266, 741.242
910.748, 761.190
911.230, 766.402
911.712, 754.283
912.194, 733.565
912.676, 699.242
913.158, 667.507
913.640, 661.320
914.122, 693.323
914.605, 713.928
915.087, 711.336
915.569, 700.535
916.051, 685.449
916.533, 665.524
917.015, 675.831
917.497, 718.161
917.979, 751.411
918.461, 729.773
918.944, 692.108
919.426, 687.236
919.908, 714.374
920.390, 729.115
920.872, 698.875
921.354, 676.015
921.836, 680.761
922.318, 707.053
922.801, 722.081
923.283, 725.635
923.765, 725.355
924.247, 721.627
924.729, 719.013
925.211, 727.903
925.693, 742.290
926.175, 747.810
926.657, 731.171
927.140, 715.431
927.622, 707.658
928.104, 702.427
928.586, 683.375
929.068, 648.845
929.550, 648.544
930.032, 701.084
930.515, 761.056
930.997, 776.379
931.479, 763.761
931.961, 747.084
932.443, 728.954
932.925, 715.560
933.407, 708.986
933.889, 707.303
934.371, 711.813
934.854, 724.127
935.336, 722.961
935.818, 706.373
936.300, 690.650
936.782, 689.475
937.264, 697.640
937.746, 715.235
938.228, 741.508
938.710, 749.782
939.193, 697.744
939.675, 663.228
940.157, 686.881
940.639, 757.227
941.121, 782.659
941.603, 762.268
942.085, 747.627
942.567, 774.525
943.049, 812.384
943.532, 822.618
944.014, 813.000
944.496, 802.712
944.978, 798.587
945.460, 793.518
945.942, 784.342
946.424, 774.830
946.906, 772.203
947.388, 776.495
947.871, 784.363
948.353, 797.088
948.835, 805.990
949.317, 792.887
949.799, 774.159
950.281, 773.662
950.763, 809.749
951.245, 828.010
951.728, 809.779
952.210, 787.526
952.692, 786.792
953.174, 807.071
953.656, 815.049
954.138, 810.030
954.620, 812.191
955.102, 852.946
955.584, 896.591
956.067, 904.515
956.549, 877.615
957.031, 858.452
957.513, 853.719
957.995, 857.832
958.477, 872.481
958.959, 893.146
959.442, 905.647
959.924, 910.568
960.406, 912.707
960.888, 912.763
961.370, 912.487
961.852, 910.557
962.334, 909.974
962.816, 916.054
963.298, 930.230
963.781, 950.354
964.263, 978.494
964.745, 1008.930
965.227, 1033.803
965.709, 1055.181
966.191, 1083.605
966.673, 1121.957
967.155, 1153.031
967.638, 1152.878
968.120, 1149.721
968.602, 1168.675
969.084, 1214.989
969.566, 1251.756
970.048, 1275.390
970.530, 1297.957
971.012, 1322.069
971.494, 1351.224
971.977, 1397.808
972.459, 1458.846
972.941, 1519.493
973.423, 1563.131
973.905, 1614.370
974.387, 1685.380
974.869, 1771.939
975.351, 1865.375
975.833, 1965.163
976.316, 2073.901
976.798, 2196.379
977.280, 2319.508
977.762, 2412.096
978.244, 2494.718
978.726, 2609.054
979.208, 2775.785
979.690, 2933.553
980.172, 3059.436
980.655, 3169.787
981.137, 3279.085
981.619, 3389.494
982.101, 3455.230
982.583, 3474.899
983.065, 3473.275
983.547, 3483.744
984.029, 3472.289
984.511, 3392.155
984.994, 3250.595
985.476, 3093.406
985.958, 2914.832
986.440, 2745.550
986.922, 2597.231
987.404, 2458.784
987.886, 2297.152
988.369, 2114.873
988.851, 1948.602
989.333, 1803.916
989.815, 1683.401
990.297, 1599.239
990.779, 1535.790
991.261, 1475.005
991.743, 1416.305
992.225, 1353.798
992.708, 1284.026
993.190, 1219.031
993.672, 1163.566
994.154, 1120.736
994.636, 1111.091
995.118, 1131.974
995.600, 1141.027
996.082, 1097.464
996.565, 1049.827
997.047, 1027.139
997.529, 1024.260
998.011, 1015.031
998.493, 995.506
998.975, 992.354
999.457, 1021.255
999.939, 1056.404
1000.421, 1056.544
1000.904, 1034.601
1001.386, 1015.697
1001.868, 1009.635
1002.350, 1002.541
1002.832, 989.427
1003.314, 975.294
1003.796, 965.856
1004.278, 961.468
1004.760, 942.520
1005.243, 907.763
1005.725, 884.428
1006.207, 910.786
1006.689, 947.101
1007.171, 951.471
1007.653, 925.492
1008.135, 908.633
1008.617, 906.573
1009.099, 911.137
1009.582, 921.638
1010.064, 935.735
1010.546, 953.031
1011.028, 969.937
1011.510, 971.928
1011.992, 945.254
1012.474, 922.797
1012.956, 924.734
1013.438, 939.997
1013.921, 957.246
1014.403, 977.807
1014.885, 993.716
1015.367, 1004.447
1015.849, 1013.683
1016.331, 1024.760
1016.813, 1036.315
1017.295, 1045.560
1017.778, 1052.832
1018.260, 1061.621
1018.742, 1077.252
1019.224, 1089.010
1019.706, 1089.400
1020.188, 1086.385
1020.670, 1106.291
1021.152, 1146.821
1021.634, 1178.410
1022.117, 1192.239
1022.599, 1194.835
1023.081, 1181.488
1023.563, 1165.291
1024.045, 1161.255
1024.527, 1172.025
1025.009, 1197.738
1025.491, 1247.138
1025.974, 1289.794
1026.456, 1294.927
1026.938, 1277.082
1027.420, 1275.847
1027.902, 1289.362
1028.384, 1302.300
1028.866, 1303.320
1029.348, 1306.335
1029.830, 1323.519
1030.313, 1344.577
1030.795, 1342.104
1031.277, 1313.948
1031.759, 1299.738
1032.241, 1309.041
1032.723, 1329.373
1033.205, 1355.956
1033.687, 1380.353
1034.170, 1388.879
1034.652, 1371.048
1035.134, 1370.419
1035.616, 1398.518
1036.098, 1427.707
1036.580, 1441.873
1037.062, 1444.004
1037.544, 1445.990
1038.026, 1447.725
1038.509, 1448.874
1038.991, 1459.169
1039.473, 1457.969
1039.955, 1427.862
1040.437, 1381.429
1040.919, 1340.195
1041.401, 1301.532
1041.883, 1283.548
1042.365, 1291.413
1042.848, 1304.448
1043.330, 1301.473
1043.812, 1289.711
1044.294, 1275.703
1044.776, 1259.933
1045.258, 1253.059
1045.740, 1268.407
1046.222, 1274.374
1046.705, 1255.286
1047.187, 1219.478
1047.669, 1190.536
1048.151, 1170.542
1048.633, 1169.456
1049.115, 1209.198
1049.597, 1241.937
1050.079, 1233.527
1050.562, 1206.646
1051.044, 1191.741
1051.526, 1193.554
1052.008, 1186.733
1052.490, 1168.930
1052.972, 1152.682
1053.454, 1154.121
1053.936, 1160.423
1054.418, 1153.491
1054.901, 1134.018
1055.383, 1116.520
1055.865, 1108.225
1056.347, 1096.378
1056.829, 1074.019
1057.311, 1050.953
1057.793, 1053.220
1058.275, 1074.201
1058.757, 1087.662
1059.240, 1086.839
1059.722, 1077.687
1060.204, 1059.069
1060.686, 1036.971
1061.168, 1014.791
1061.650, 991.966
1062.132, 979.521
1062.614, 978.498
1063.097, 977.125
1063.579, 967.004
1064.061, 953.583
1064.543, 939.450
1065.025, 927.337
1065.507, 924.513
1065.989, 942.260
1066.471, 955.788
1066.953, 964.418
1067.436, 965.719
1067.918, 952.833
1068.400, 930.213
1068.882, 909.112
1069.364, 890.567
1069.846, 885.663
1070.328, 915.829
1070.810, 945.953
1071.292, 958.107
1071.775, 954.816
1072.257, 943.909
1072.739, 925.071
1073.221, 917.925
1073.703, 934.824
1074.185, 953.147
1074.667, 946.192
1075.149, 928.974
1075.631, 921.684
1076.114, 935.645
1076.596, 937.031
1077.078, 920.917
1077.560, 906.203
1078.042, 912.081
1078.524, 927.218
1079.006, 921.339
1079.488, 900.329
1079.971, 889.878
1080.453, 919.359
1080.935, 936.195
1081.417, 918.894
1081.899, 890.923
1082.381, 890.172
1082.863, 913.477
1083.345, 931.822
1083.828, 941.339
1084.310, 945.628
1084.792, 941.318
1085.274, 937.724
1085.756, 946.575
1086.238, 965.929
1086.720, 961.866
1087.202, 926.785
1087.684, 919.357
1088.167, 973.263
1088.649, 1041.526
1089.131, 1067.469
1089.613, 1061.520
1090.095, 1036.282
1090.577, 974.535
1091.059, 940.705
1091.541, 945.186
1092.023, 962.687
1092.506, 978.515
1092.988, 992.188
1093.470, 1007.818
1093.952, 1021.928
1094.434, 1017.490
1094.916, 953.495
1095.398, 908.757
1095.880, 924.166
1096.363, 964.870
1096.845, 980.283
1097.327, 971.417
1097.809, 974.117
1098.291, 993.340
1098.773, 1013.763
1099.255, 1032.221
1099.737, 1039.579
1100.219, 1019.882
1100.702, 976.745
1101.184, 956.192
1101.666, 962.158
1102.148, 973.198
1102.630, 985.193
1103.112, 994.078
1103.594, 990.991
1104.076, 981.975
1104.558, 976.295
1105.041, 977.500
1105.523, 976.293
1106.005, 967.882
1106.487, 965.201
1106.969, 983.468
1107.451, 1011.554
1107.933, 1006.518
1108.415, 977.104
1108.898, 955.201
1109.380, 962.544
1109.862, 969.946
1110.344, 965.671
1110.826, 960.183
1111.308, 969.917
1111.790, 993.083
1112.272, 992.642
1112.755, 966.599
1113.237, 940.724
1113.719, 931.846
1114.201, 931.335
1114.683, 938.339
1115.165, 948.993
1115.647, 949.092
1116.129, 936.473
1116.611, 929.388
1117.094, 933.036
1117.576, 938.007
1118.058, 933.040
1118.540, 923.939
1119.022, 917.757
1119.504, 916.198
1119.986, 910.379
1120.468, 896.154
1120.950, 889.712
1121.433, 904.070
1121.915, 923.123
1122.397, 912.247
1122.879, 881.447
1123.361, 850.606
1123.843, 816.567
1124.325, 802.671
1124.807, 820.070
1125.290, 844.593
1125.772, 862.484
1126.254, 872.402
1126.736, 864.149
1127.218, 840.431
1127.700, 817.037
1128.182, 789.741
1128.664, 779.795
1129.146, 812.823
1129.629, 856.810
1130.111, 868.720
1130.593, 849.282
1131.075, 831.539
1131.557, 818.777
1132.039, 801.843
1132.521, 752.752
1133.003, 715.916
1133.485, 737.126
1133.968, 800.291
1134.450, 830.379
1134.932, 823.473
1135.414, 812.041
1135.896, 801.557
1136.378, 796.302
1136.860, 816.029
1137.342, 834.689
1137.825, 815.249
1138.307, 743.265
1138.789, 710.927
1139.271, 729.716
1139.753, 753.019
1140.235, 764.197
1140.717, 764.589
1141.199, 743.932
1141.682, 717.816
1142.164, 717.325
1142.646, 776.330
1143.128, 804.937
1143.610, 788.419
1144.092, 757.797
1144.574, 728.668
1145.056, 704.119
1145.538, 697.457
1146.021, 704.218
1146.503, 707.248
1146.985, 696.834
1147.467, 684.480
1147.949, 668.664
1148.431, 657.036
1148.913, 660.724
1149.395, 677.013
1149.877, 694.454
1150.360, 711.612
1150.842, 719.981
1151.324, 712.357
1151.806, 696.491
1152.288, 667.904
1152.770, 637.722
1153.252, 631.127
1153.734, 646.790
1154.217, 662.188
1154.699, 674.150
1155.181, 682.183
1155.663, 682.591
1156.145, 682.020
1156.627, 689.733
1157.109, 701.978
1157.591, 694.227
1158.073, 665.278
1158.556, 640.835
1159.038, 629.286
1159.520, 623.799
1160.002, 616.234
1160.484, 612.178
1160.966, 622.745
1161.448, 652.606
1161.930, 652.846
1162.412, 617.354
1162.895, 590.317
1163.377, 600.724
1163.859, 620.319
1164.341, 612.461
1164.823, 590.324
1165.305, 575.011
1165.787, 571.940
1166.269, 572.131
1166.752, 575.322
1167.234, 582.670
1167.716, 602.994
1168.198, 623.125
1168.680, 614.119
1169.162, 587.406
1169.644, 575.900
1170.126, 604.971
1170.609, 623.374
1171.091, 627.711
1171.573, 621.390
1172.055, 599.193
1172.537, 572.250
1173.019, 566.707
1173.501, 580.151
1173.983, 587.126
1174.465, 565.251
1174.948, 557.065
1175.430, 575.824
1175.912, 600.711
1176.394, 598.643
1176.876, 579.413
1177.358, 566.858
1177.840, 563.949
1178.322, 564.046
1178.804, 570.717
1179.287, 571.271
1179.769, 557.214
1180.251, 539.608
1180.733, 551.705
1181.215, 581.587
1181.697, 586.349
1182.179, 552.423
1182.661, 523.027
1183.144, 519.565
1183.626, 524.728
1184.108, 534.375
1184.590, 544.537
1185.072, 535.199
1185.554, 511.906
1186.036, 501.144
1186.518, 519.353
1187.000, 529.104
1187.483, 495.556
1187.965, 463.032
1188.447, 465.952
1188.929, 497.706
1189.411, 500.024
1189.893, 477.976
1190.375, 463.278
1190.857, 477.531
1191.339, 491.804
1191.822, 488.191
1192.304, 480.220
1192.786, 477.920
1193.268, 481.210
1193.750, 507.115
1194.232, 552.115
1194.714, 574.647
1195.196, 521.110
1195.678, 470.703
1196.161, 476.116
1196.643, 501.668
1197.125, 500.632
1197.607, 472.084
1198.089, 448.451
1198.571, 431.096
1199.053, 422.260
1199.535, 420.665
1200.018, 430.392
1200.500, 467.107
1200.982, 511.811
1201.464, 528.043
1201.946, 515.026
1202.428, 503.460
1202.910, 496.630
1203.392, 489.635
1203.875, 472.086
1204.357, 459.514
1204.839, 466.789
1205.321, 486.665
1205.803, 502.031
1206.285, 513.167
1206.767, 512.473
1207.249, 497.990
1207.731, 478.747
1208.214, 454.961
1208.696, 435.827
1209.178, 430.542
1209.660, 436.477
1210.142, 444.438
1210.624, 454.496
1211.106, 469.264
1211.588, 491.642
1212.070, 508.188
1212.553, 498.242
1213.035, 485.006
1213.517, 495.224
1213.999, 522.731
1214.481, 516.250
1214.963, 475.877
1215.445, 447.499
1215.927, 445.883
1216.410, 460.204
1216.892, 500.462
1217.374, 538.077
1217.856, 545.678
1218.338, 524.841
1218.820, 490.929
1219.302, 444.352
1219.784, 418.951
1220.266, 436.457
1220.749, 461.631
1221.231, 467.947
1221.713, 467.810
1222.195, 475.948
1222.677, 493.105
1223.159, 489.876
1223.641, 466.981
1224.123, 451.371
1224.605, 463.856
1225.088, 476.394
1225.570, 460.759
1226.052, 440.841
1226.534, 449.615
1227.016, 491.848
1227.498, 477.248
1227.980, 408.949
1228.462, 364.862
1228.945, 414.903
1229.427, 472.469
1229.909, 487.090
1230.391, 478.718
1230.873, 472.165
1231.355, 467.952
1231.837, 451.840
1232.319, 424.976
1232.802, 407.753
1233.284, 419.684
1233.766, 437.070
1234.248, 452.353
1234.730, 462.409
1235.212, 460.088
1235.694, 445.948
1236.176, 445.971
1236.658, 460.196
1237.141, 473.288
1237.623, 482.259
1238.105, 479.861
1238.587, 451.621
1239.069, 417.240
1239.551, 397.072
1240.033, 391.481
1240.515, 410.459
1240.997, 452.513
1241.480, 483.564
1241.962, 479.574
1242.444, 464.418
1242.926, 439.406
1243.408, 416.980
1243.890, 419.294
1244.372, 441.166
1244.854, 454.544
1245.337, 457.284
1245.819, 460.189
1246.301, 477.316
1246.783, 483.682
1247.265, 466.979
1247.747, 442.075
1248.229, 432.486
1248.711, 435.068
1249.193, 441.131
1249.676, 449.483
1250.158, 455.513
1250.640, 454.934
1251.122, 455.419
1251.604, 461.988
1252.086, 466.031
1252.568, 445.048
1253.050, 412.075
1253.532, 401.671
1254.015, 417.465
1254.497, 433.781
1254.979, 445.380
1255.461, 451.884
1255.943, 451.819
1256.425, 449.057
1256.907, 450.098
1257.389, 452.773
1257.872, 451.115
1258.354, 444.221
1258.836, 447.891
1259.318, 470.892
1259.800, 488.506
1260.282, 495.420
1260.764, 491.372
1261.246, 465.293
1261.729, 433.889
1262.211, 425.120
1262.693, 443.459
1263.175, 441.892
1263.657, 408.449
1264.139, 393.660
1264.621, 417.772
1265.103, 447.630
1265.585, 433.925
1266.068, 409.226
1266.550, 415.907
1267.032, 458.406
1267.514, 479.832
1267.996, 478.507
1268.478, 467.293
1268.960, 446.323
1269.442, 428.929
1269.924, 429.716
1270.407, 439.453
1270.889, 450.851
1271.371, 463.105
1271.853, 475.580
1272.335, 488.142
1272.817, 490.218
1273.299, 476.170
1273.781, 460.176
1274.264, 450.745
1274.746, 446.036
1275.228, 447.900
1275.710, 452.740
1276.192, 432.318
1276.674, 393.667
1277.156, 389.564
1277.638, 446.719
1278.120, 493.827
1278.603, 488.768
1279.085, 462.108
1279.567, 419.580
1280.049, 375.188
1280.531, 388.932
1281.013, 442.450
1281.495, 473.491
1281.977, 459.632
1282.459, 443.587
1282.942, 438.053
1283.424, 433.043
1283.906, 421.844
1284.388, 411.380
1284.870, 421.115
1285.352, 443.038
1285.834, 461.683
1286.316, 474.773
1286.799, 475.646
1287.281, 458.930
1287.763, 444.567
1288.245, 440.326
1288.727, 443.916
1289.209, 458.093
1289.691, 474.613
1290.173, 481.613
1290.656, 475.915
1291.138, 462.979
1291.620, 439.184
1292.102, 431.474
1292.584, 458.891
1293.066, 487.384
1293.548, 472.387
1294.030, 442.140
1294.512, 430.784
1294.995, 438.187
1295.477, 433.609
1295.959, 417.201
1296.441, 401.534
1296.923, 387.039
1297.405, 387.679
1297.887, 431.811
1298.369, 476.124
1298.851, 491.434
1299.334, 480.934
1299.816, 453.101
1300.298, 414.094
1300.780, 395.018
##END=



