##NAMES=Copper
##RRUFFID=R061078
##IDEAL CHEMISTRY=Cu
##LOCALITY=Afton mine, Kamloops, British Columbia, Canada
##OWNER=RRUFF
##SOURCE=Lloyd Twaites
##DESCRIPTION=Rose-brass colored massive metallic
##STATUS=The identification of this mineral has been confirmed by X-ray diffraction.
##URL=rruff.info/R061078
124.4208, 2668.672
124.9029, 2897.508
125.3851, 3148.472
125.8672, 3422.440
126.3493, 3700.806
126.8314, 3964.595
127.3135, 4251.892
127.7956, 4585.534
128.2778, 4956.506
128.7599, 5346.602
129.2420, 5745.483
129.7241, 6164.894
130.2062, 6516.619
130.6884, 6813.600
131.1705, 7042.525
131.6526, 7207.379
132.1347, 7301.300
132.6168, 7302.052
133.0989, 7173.423
133.5811, 6860.257
134.0632, 6580.120
134.5453, 6339.951
135.0274, 6120.880
135.5095, 5904.973
135.9916, 5692.396
136.4738, 5499.132
136.9559, 5346.508
137.4380, 5237.371
137.9201, 5177.855
138.4022, 5183.008
138.8843, 5224.341
139.3665, 5272.782
139.8486, 5322.328
140.3307, 5398.062
140.8128, 5539.691
141.2949, 5783.306
141.7770, 6039.470
142.2592, 6311.932
142.7413, 6592.934
143.2234, 6876.100
143.7055, 7158.508
144.1876, 7442.152
144.6697, 7734.395
145.1519, 8045.339
145.6340, 8343.004
146.1161, 8623.035
146.5982, 8775.234
147.0803, 8778.209
147.5624, 8739.448
148.0446, 8667.328
148.5267, 8569.760
149.0088, 8448.818
149.4909, 8312.310
149.9730, 8159.431
150.4551, 7990.874
150.9372, 7804.648
151.4194, 7592.908
151.9015, 7370.391
152.3836, 7166.093
152.8657, 6973.266
153.3478, 6796.650
153.8299, 6632.560
154.3121, 6483.583
154.7942, 6360.208
155.2763, 6271.226
155.7584, 6204.255
156.2405, 6131.292
156.7226, 6043.470
157.2048, 5964.758
157.6869, 5904.968
158.1690, 5863.047
158.6511, 5837.747
159.1332, 5837.626
159.6153, 5846.519
160.0975, 5833.660
160.5796, 5793.749
161.0617, 5745.676
161.5438, 5706.098
162.0259, 5672.711
162.5080, 5623.212
162.9902, 5542.236
163.4723, 5445.055
163.9544, 5358.045
164.4365, 5284.200
164.9186, 5217.946
165.4007, 5156.951
165.8829, 5101.206
166.3650, 5048.550
166.8471, 4998.172
167.3292, 4951.494
167.8113, 4911.047
168.2934, 4882.005
168.7756, 4850.658
169.2577, 4800.889
169.7398, 4732.283
170.2219, 4668.489
170.7040, 4619.783
171.1861, 4581.234
171.6683, 4547.046
172.1504, 4517.963
172.6325, 4489.841
173.1146, 4455.525
173.5967, 4413.506
174.0788, 4379.572
174.5610, 4368.096
175.0431, 4364.345
175.5252, 4353.523
176.0073, 4334.231
176.4894, 4303.872
176.9715, 4252.949
177.4537, 4177.314
177.9358, 4110.299
178.4179, 4069.021
178.9000, 4042.757
179.3821, 4023.612
179.8642, 4012.114
180.3464, 4002.374
180.8285, 3987.367
181.3106, 3966.667
181.7927, 3943.411
182.2748, 3915.809
182.7569, 3887.391
183.2391, 3860.073
183.7212, 3832.745
184.2033, 3811.119
184.6854, 3807.661
185.1675, 3827.843
185.6496, 3838.508
186.1318, 3819.486
186.6139, 3788.422
187.0960, 3757.357
187.5781, 3727.922
188.0602, 3703.691
188.5423, 3693.434
189.0245, 3702.368
189.5066, 3701.272
189.9887, 3665.147
190.4708, 3621.585
190.9529, 3593.359
191.4350, 3588.422
191.9172, 3593.360
192.3993, 3591.759
192.8814, 3582.884
193.3635, 3571.031
193.8456, 3550.052
194.3277, 3530.439
194.8099, 3523.692
195.2920, 3534.777
195.7741, 3548.127
196.2562, 3543.440
196.7383, 3518.076
197.2204, 3488.052
197.7026, 3444.423
198.1847, 3405.450
198.6668, 3388.453
199.1489, 3399.098
199.6310, 3418.596
200.1131, 3422.841
200.5953, 3408.586
201.0774, 3397.627
201.5595, 3404.873
202.0416, 3412.516
202.5237, 3404.773
203.0058, 3377.312
203.4880, 3348.092
203.9701, 3341.660
204.4522, 3362.462
204.9343, 3373.854
205.4164, 3359.062
205.8985, 3335.919
206.3807, 3314.538
206.8628, 3296.516
207.3449, 3281.075
207.8270, 3266.014
208.3091, 3250.643
208.7912, 3242.841
209.2734, 3255.104
209.7555, 3267.800
210.2376, 3264.419
210.7197, 3243.375
211.2018, 3222.643
211.6839, 3225.673
212.1661, 3253.934
212.6482, 3264.204
213.1303, 3232.566
213.6124, 3193.757
214.0945, 3170.687
214.5766, 3164.580
215.0588, 3163.554
215.5409, 3156.550
216.0230, 3143.930
216.5051, 3138.901
216.9872, 3152.288
217.4693, 3164.786
217.9515, 3161.022
218.4336, 3142.453
218.9157, 3124.942
219.3978, 3122.812
219.8799, 3134.062
220.3620, 3140.019
220.8442, 3138.934
221.3263, 3131.393
221.8084, 3115.809
222.2905, 3093.829
222.7726, 3073.609
223.2547, 3060.367
223.7369, 3053.177
224.2190, 3047.065
224.7011, 3040.330
225.1832, 3037.000
225.6653, 3042.809
226.1474, 3054.490
226.6296, 3061.490
227.1117, 3055.439
227.5938, 3040.243
228.0759, 3026.741
228.5580, 3013.973
229.0401, 3005.811
229.5223, 3010.016
230.0044, 3020.692
230.4865, 3024.199
230.9686, 3006.912
231.4507, 2980.203
231.9328, 2969.993
232.4150, 2982.855
232.8971, 2993.155
233.3792, 2975.212
233.8613, 2944.606
234.3434, 2928.406
234.8255, 2946.810
235.3077, 2977.010
235.7898, 2984.720
236.2719, 2966.348
236.7540, 2946.404
237.2361, 2937.881
237.7182, 2937.005
238.2004, 2938.716
238.6825, 2946.071
239.1646, 2951.432
239.6467, 2943.632
240.1288, 2922.320
240.6109, 2905.416
241.0931, 2905.667
241.5752, 2913.865
242.0573, 2912.869
242.5394, 2896.010
243.0215, 2878.694
243.5036, 2874.692
243.9858, 2882.150
244.4679, 2886.734
244.9500, 2881.202
245.4321, 2870.822
245.9142, 2866.088
246.3963, 2869.816
246.8785, 2871.854
247.3606, 2863.750
247.8427, 2849.155
248.3248, 2840.140
248.8069, 2842.677
249.2890, 2849.247
249.7712, 2846.736
250.2533, 2833.396
250.7354, 2821.292
251.2175, 2816.559
251.6996, 2815.618
252.1817, 2811.116
252.6639, 2800.382
253.1460, 2789.104
253.6281, 2787.158
254.1102, 2796.417
254.5923, 2798.867
255.0744, 2784.281
255.5566, 2764.375
256.0387, 2752.772
256.5208, 2751.915
257.0029, 2757.034
257.4850, 2765.462
257.9671, 2778.443
258.4492, 2782.051
258.9314, 2767.548
259.4135, 2749.424
259.8956, 2738.695
260.3777, 2735.887
260.8598, 2735.573
261.3419, 2733.291
261.8241, 2729.002
262.3062, 2727.261
262.7883, 2731.275
263.2704, 2734.589
263.7525, 2732.623
264.2346, 2726.944
264.7168, 2723.447
265.1989, 2726.750
265.6810, 2735.316
266.1631, 2735.218
266.6452, 2718.892
267.1273, 2703.706
267.6095, 2695.935
268.0916, 2691.960
268.5737, 2684.559
269.0558, 2669.841
269.5379, 2651.458
270.0201, 2641.291
270.5022, 2648.080
270.9843, 2653.280
271.4664, 2655.306
271.9485, 2655.690
272.4306, 2656.180
272.9128, 2657.328
273.3949, 2658.278
273.8770, 2657.716
274.3591, 2656.721
274.8412, 2651.758
275.3233, 2637.486
275.8055, 2623.539
276.2876, 2617.981
276.7697, 2621.206
277.2518, 2626.548
277.7339, 2625.621
278.2160, 2616.035
278.6982, 2610.296
279.1803, 2613.078
279.6624, 2615.498
280.1445, 2613.010
280.6266, 2606.604
281.1087, 2600.716
281.5909, 2600.396
282.0730, 2605.117
282.5551, 2600.818
283.0372, 2574.850
283.5193, 2555.124
284.0014, 2557.459
284.4836, 2571.215
284.9657, 2577.054
285.4478, 2561.418
285.9299, 2533.805
286.4120, 2523.349
286.8941, 2538.493
287.3763, 2552.147
287.8584, 2554.348
288.3405, 2550.522
288.8226, 2545.887
289.3047, 2542.056
289.7868, 2537.967
290.2690, 2530.920
290.7511, 2520.117
291.2332, 2513.178
291.7153, 2513.349
292.1974, 2518.033
292.6795, 2527.063
293.1617, 2541.236
293.6438, 2551.271
294.1259, 2544.926
294.6080, 2526.302
295.0901, 2519.146
295.5722, 2535.005
296.0544, 2553.051
296.5365, 2549.337
297.0186, 2525.705
297.5007, 2505.173
297.9828, 2498.225
298.4649, 2499.497
298.9471, 2501.022
299.4292, 2502.176
299.9113, 2501.941
300.3934, 2496.709
300.8755, 2488.186
301.3576, 2488.504
301.8398, 2512.396
302.3219, 2535.492
302.8040, 2535.709
303.2861, 2515.329
303.7682, 2492.718
304.2503, 2477.664
304.7325, 2469.766
305.2146, 2465.740
305.6967, 2465.985
306.1788, 2468.997
306.6609, 2475.029
307.1430, 2483.416
307.6252, 2494.861
308.1073, 2510.285
308.5894, 2524.583
309.0715, 2526.213
309.5536, 2503.688
310.0357, 2484.959
310.5179, 2472.052
311.0000, 2462.387
311.4821, 2453.608
311.9642, 2445.209
312.4463, 2438.075
312.9284, 2432.931
313.4106, 2428.574
313.8927, 2431.019
314.3748, 2450.119
314.8569, 2465.962
315.3390, 2466.022
315.8211, 2453.645
316.3033, 2441.142
316.7854, 2438.409
317.2675, 2444.332
317.7496, 2445.390
318.2317, 2439.578
318.7138, 2430.742
319.1960, 2416.065
319.6781, 2400.246
320.1602, 2389.254
320.6423, 2385.830
321.1244, 2388.427
321.6065, 2395.310
322.0887, 2408.958
322.5708, 2419.114
323.0529, 2421.611
323.5350, 2420.670
324.0171, 2417.770
324.4992, 2413.209
324.9814, 2410.728
325.4635, 2416.816
325.9456, 2430.366
326.4277, 2435.645
326.9098, 2425.555
327.3919, 2412.914
327.8741, 2408.153
328.3562, 2410.277
328.8383, 2413.896
329.3204, 2419.511
329.8025, 2424.274
330.2846, 2420.839
330.7668, 2407.408
331.2489, 2397.429
331.7310, 2403.717
332.2131, 2421.547
332.6952, 2431.977
333.1773, 2429.730
333.6595, 2423.258
334.1416, 2416.092
334.6237, 2408.722
335.1058, 2402.733
335.5879, 2398.597
336.0700, 2396.619
336.5522, 2398.346
337.0343, 2407.821
337.5164, 2413.271
337.9985, 2407.499
338.4806, 2398.999
338.9627, 2399.390
339.4449, 2410.894
339.9270, 2423.627
340.4091, 2424.577
340.8912, 2408.937
341.3733, 2398.624
341.8554, 2394.143
342.3376, 2393.563
342.8197, 2399.062
343.3018, 2407.974
343.7839, 2413.621
344.2660, 2410.397
344.7481, 2399.925
345.2303, 2395.483
345.7124, 2403.073
346.1945, 2409.053
346.6766, 2410.363
347.1587, 2408.980
347.6408, 2406.545
348.1230, 2403.550
348.6051, 2401.766
349.0872, 2406.542
349.5693, 2421.396
350.0514, 2426.103
350.5335, 2405.794
351.0157, 2382.715
351.4978, 2370.513
351.9799, 2369.705
352.4620, 2373.479
352.9441, 2378.934
353.4262, 2385.387
353.9084, 2390.647
354.3905, 2395.146
354.8726, 2397.055
355.3547, 2390.887
355.8368, 2380.811
356.3189, 2376.963
356.8011, 2390.561
357.2832, 2404.409
357.7653, 2399.269
358.2474, 2378.013
358.7295, 2360.814
359.2116, 2357.332
359.6938, 2363.647
360.1759, 2369.878
360.6580, 2375.722
361.1401, 2381.940
361.6222, 2390.430
362.1043, 2398.678
362.5865, 2403.465
363.0686, 2404.049
363.5507, 2401.473
364.0328, 2396.385
364.5149, 2387.166
364.9970, 2382.778
365.4792, 2384.232
365.9613, 2388.781
366.4434, 2398.391
366.9255, 2410.128
367.4076, 2417.622
367.8897, 2416.610
368.3719, 2408.397
368.8540, 2398.063
369.3361, 2376.355
369.8182, 2367.801
370.3003, 2385.725
370.7824, 2412.179
371.2646, 2430.958
371.7467, 2437.383
372.2288, 2437.069
372.7109, 2437.119
373.1930, 2437.896
373.6751, 2432.090
374.1573, 2408.619
374.6394, 2390.220
375.1215, 2395.804
375.6036, 2419.955
376.0857, 2440.521
376.5678, 2446.058
377.0500, 2441.251
377.5321, 2431.353
378.0142, 2415.439
378.4963, 2404.582
378.9784, 2407.640
379.4605, 2419.789
379.9427, 2426.775
380.4248, 2426.038
380.9069, 2423.808
381.3890, 2421.646
381.8711, 2420.267
382.3532, 2421.774
382.8354, 2427.058
383.3175, 2433.289
383.7996, 2436.891
384.2817, 2438.146
384.7638, 2434.674
385.2459, 2419.139
385.7281, 2405.045
386.2102, 2402.591
386.6923, 2409.872
387.1744, 2418.120
387.6565, 2420.969
388.1386, 2419.334
388.6208, 2419.682
389.1029, 2422.878
389.5850, 2427.096
390.0671, 2433.715
390.5492, 2440.330
391.0313, 2444.103
391.5135, 2444.260
391.9956, 2443.394
392.4777, 2446.337
392.9598, 2453.995
393.4419, 2454.294
393.9240, 2438.499
394.4062, 2423.657
394.8883, 2423.433
395.3704, 2433.867
395.8525, 2440.277
396.3346, 2429.562
396.8167, 2413.364
397.2989, 2412.084
397.7810, 2426.449
398.2631, 2440.856
398.7452, 2449.018
399.2273, 2450.942
399.7094, 2447.029
400.1916, 2432.027
400.6737, 2421.690
401.1558, 2426.730
401.6379, 2438.718
402.1200, 2443.819
402.6021, 2438.808
403.0843, 2431.400
403.5664, 2431.033
404.0485, 2440.015
404.5306, 2443.698
405.0127, 2435.300
405.4948, 2428.951
405.9770, 2434.192
406.4591, 2446.150
406.9412, 2454.435
407.4233, 2453.302
407.9054, 2444.838
408.3875, 2433.822
408.8697, 2415.271
409.3518, 2405.006
409.8339, 2407.612
410.3160, 2416.801
410.7981, 2432.159
411.2802, 2451.962
411.7624, 2466.929
412.2445, 2467.440
412.7266, 2456.029
413.2087, 2443.601
413.6908, 2427.937
414.1729, 2417.710
414.6551, 2424.029
415.1372, 2439.058
415.6193, 2448.767
416.1014, 2448.170
416.5835, 2444.603
417.0656, 2441.085
417.5478, 2438.668
418.0299, 2441.547
418.5120, 2451.990
418.9941, 2465.379
419.4762, 2475.267
419.9583, 2481.958
420.4405, 2483.260
420.9226, 2469.898
421.4047, 2458.483
421.8868, 2465.631
422.3689, 2486.542
422.8510, 2502.238
423.3332, 2499.326
423.8153, 2480.702
424.2974, 2460.601
424.7795, 2430.073
425.2616, 2412.584
425.7437, 2418.227
426.2259, 2432.878
426.7080, 2446.104
427.1901, 2455.006
427.6722, 2459.196
428.1543, 2456.411
428.6364, 2447.293
429.1186, 2439.521
429.6007, 2430.665
430.0828, 2428.410
430.5649, 2443.701
431.0470, 2468.500
431.5291, 2486.297
432.0113, 2492.242
432.4934, 2490.377
432.9755, 2479.498
433.4576, 2462.574
433.9397, 2452.293
434.4218, 2454.268
434.9040, 2461.548
435.3861, 2462.497
435.8682, 2453.721
436.3503, 2449.610
436.8324, 2456.893
437.3145, 2464.368
437.7967, 2462.039
438.2788, 2452.041
438.7609, 2443.687
439.2430, 2443.129
439.7251, 2449.496
440.2072, 2459.035
440.6894, 2478.089
441.1715, 2489.868
441.6536, 2487.960
442.1357, 2481.501
442.6178, 2477.526
443.0999, 2477.433
443.5821, 2479.236
444.0642, 2482.515
444.5463, 2486.627
445.0284, 2487.608
445.5105, 2485.509
445.9926, 2479.679
446.4748, 2462.519
446.9569, 2442.213
447.4390, 2435.813
447.9211, 2454.230
448.4032, 2475.427
448.8853, 2485.208
449.3675, 2486.886
449.8496, 2488.558
450.3317, 2492.649
450.8138, 2496.616
451.2959, 2496.965
451.7780, 2492.588
452.2602, 2488.915
452.7423, 2488.691
453.2244, 2486.488
453.7065, 2475.996
454.1886, 2461.790
454.6707, 2453.888
455.1529, 2458.046
455.6350, 2468.920
456.1171, 2473.088
456.5992, 2466.406
457.0813, 2464.863
457.5634, 2479.859
458.0455, 2493.575
458.5276, 2491.759
459.0098, 2476.873
459.4919, 2466.155
459.9740, 2471.150
460.4561, 2486.836
460.9382, 2507.391
461.4203, 2533.805
461.9025, 2548.971
462.3846, 2538.273
462.8667, 2514.776
463.3488, 2510.562
463.8309, 2534.813
464.3130, 2554.573
464.7952, 2558.951
465.2773, 2555.096
465.7594, 2549.243
466.2415, 2542.959
466.7236, 2536.819
467.2057, 2530.428
467.6879, 2524.224
468.1700, 2528.037
468.6521, 2560.477
469.1342, 2580.257
469.6163, 2572.928
470.0984, 2554.061
470.5806, 2537.228
471.0627, 2526.708
471.5448, 2523.869
472.0269, 2534.003
472.5090, 2555.647
472.9911, 2570.727
473.4733, 2576.279
473.9554, 2579.058
474.4375, 2583.354
474.9196, 2588.150
475.4017, 2591.171
475.8839, 2590.822
476.3660, 2590.208
476.8481, 2593.444
477.3302, 2597.700
477.8123, 2595.806
478.2944, 2585.553
478.7766, 2571.708
479.2587, 2559.510
479.7408, 2547.996
480.2229, 2543.655
480.7050, 2553.967
481.1871, 2562.479
481.6693, 2561.395
482.1514, 2554.359
482.6335, 2546.961
483.1156, 2541.565
483.5977, 2539.418
484.0798, 2544.356
484.5620, 2558.058
485.0441, 2566.930
485.5262, 2565.644
486.0083, 2563.478
486.4904, 2568.799
486.9725, 2578.826
487.4547, 2583.686
487.9368, 2571.664
488.4189, 2559.696
488.9010, 2571.102
489.3831, 2599.626
489.8652, 2614.511
490.3474, 2601.586
490.8295, 2578.969
491.3116, 2575.475
491.7937, 2600.084
492.2758, 2620.210
492.7579, 2638.585
493.2401, 2649.987
493.7222, 2649.105
494.2043, 2638.987
494.6864, 2625.835
495.1685, 2612.559
495.6506, 2600.723
496.1328, 2593.100
496.6149, 2588.611
497.0970, 2592.585
497.5791, 2618.621
498.0612, 2641.788
498.5433, 2639.943
499.0255, 2618.258
499.5076, 2604.726
499.9897, 2620.562
500.4718, 2645.711
500.9539, 2655.408
501.4360, 2651.406
501.9182, 2646.541
502.4003, 2646.133
502.8824, 2647.732
503.3645, 2647.086
503.8466, 2644.189
504.3287, 2638.779
504.8109, 2624.166
505.2930, 2612.919
505.7751, 2615.651
506.2572, 2628.529
506.7393, 2640.878
507.2214, 2646.452
507.7036, 2647.319
508.1857, 2647.420
508.6678, 2645.220
509.1499, 2648.265
509.6320, 2667.969
510.1141, 2684.170
510.5963, 2678.318
511.0784, 2654.526
511.5605, 2637.139
512.0426, 2640.709
512.5247, 2653.114
513.0068, 2663.818
513.4890, 2671.879
513.9711, 2670.719
514.4532, 2655.248
514.9353, 2636.174
515.4174, 2633.580
515.8995, 2658.354
516.3817, 2672.737
516.8638, 2670.571
517.3459, 2663.929
517.8280, 2654.122
518.3101, 2645.687
518.7922, 2648.801
519.2744, 2670.352
519.7565, 2698.002
520.2386, 2705.209
520.7207, 2688.017
521.2028, 2674.675
521.6849, 2668.319
522.1671, 2668.909
522.6492, 2680.136
523.1313, 2698.801
523.6134, 2710.847
524.0955, 2709.109
524.5776, 2701.313
525.0598, 2691.211
525.5419, 2680.115
526.0240, 2672.604
526.5061, 2670.504
526.9882, 2670.075
527.4703, 2665.770
527.9525, 2656.107
528.4346, 2648.119
528.9167, 2642.653
529.3988, 2637.767
529.8809, 2632.044
530.3630, 2626.623
530.8452, 2622.882
531.3273, 2621.308
531.8094, 2622.887
532.2915, 2634.439
532.7736, 2654.759
533.2557, 2653.455
533.7379, 2615.774
534.2200, 2579.584
534.7021, 2577.437
535.1842, 2600.680
535.6663, 2621.523
536.1484, 2640.827
536.6306, 2652.917
537.1127, 2651.895
537.5948, 2643.101
538.0769, 2632.214
538.5590, 2621.353
539.0411, 2615.303
539.5233, 2620.454
540.0054, 2636.916
540.4875, 2645.325
540.9696, 2638.431
541.4517, 2633.138
541.9338, 2634.938
542.4160, 2639.388
542.8981, 2643.030
543.3802, 2645.035
543.8623, 2642.913
544.3444, 2631.348
544.8265, 2614.904
545.3087, 2604.538
545.7908, 2601.098
546.2729, 2599.831
546.7550, 2598.597
547.2371, 2597.138
547.7192, 2594.607
548.2014, 2590.683
548.6835, 2586.301
549.1656, 2580.313
549.6477, 2574.856
550.1298, 2570.140
550.6119, 2567.331
551.0941, 2570.412
551.5762, 2583.742
552.0583, 2601.153
552.5404, 2603.830
553.0225, 2588.130
553.5046, 2574.953
553.9868, 2568.784
554.4689, 2567.138
554.9510, 2568.058
555.4331, 2571.371
555.9152, 2575.617
556.3973, 2580.956
556.8795, 2586.565
557.3616, 2594.676
557.8437, 2602.513
558.3258, 2601.387
558.8079, 2587.918
559.2900, 2570.248
559.7722, 2559.738
560.2543, 2557.393
560.7364, 2557.192
561.2185, 2559.786
561.7006, 2563.964
562.1827, 2572.999
562.6649, 2582.082
563.1470, 2583.379
563.6291, 2574.018
564.1112, 2563.456
564.5933, 2563.480
565.0754, 2569.423
565.5576, 2563.482
566.0397, 2542.209
566.5218, 2525.322
567.0039, 2527.344
567.4860, 2544.069
567.9681, 2556.854
568.4503, 2563.546
568.9324, 2569.905
569.4145, 2579.795
569.8966, 2587.249
570.3787, 2584.431
570.8608, 2573.527
571.3430, 2565.128
571.8251, 2567.891
572.3072, 2576.520
572.7893, 2575.186
573.2714, 2561.602
573.7535, 2552.033
574.2357, 2550.606
574.7178, 2554.663
575.1999, 2562.877
575.6820, 2574.731
576.1641, 2585.807
576.6462, 2598.246
577.1284, 2606.579
577.6105, 2604.463
578.0926, 2596.135
578.5747, 2588.265
579.0568, 2583.322
579.5389, 2584.615
580.0211, 2598.517
580.5032, 2626.824
580.9853, 2644.323
581.4674, 2647.219
581.9495, 2644.251
582.4316, 2633.484
582.9138, 2621.437
583.3959, 2617.906
583.8780, 2625.648
584.3601, 2629.097
584.8422, 2608.590
585.3243, 2581.920
585.8065, 2581.817
586.2886, 2607.631
586.7707, 2631.664
587.2528, 2638.291
587.7349, 2632.832
588.2170, 2628.630
588.6992, 2624.058
589.1813, 2624.039
589.6634, 2632.937
590.1455, 2641.761
590.6276, 2647.207
591.1097, 2648.656
591.5919, 2645.182
592.0740, 2635.354
592.5561, 2623.781
593.0382, 2617.628
593.5203, 2615.233
594.0024, 2605.094
594.4846, 2582.507
594.9667, 2565.899
595.4488, 2573.091
595.9309, 2600.944
596.4130, 2618.508
596.8951, 2616.385
597.3773, 2617.628
597.8594, 2628.606
598.3415, 2643.258
598.8236, 2660.423
599.3057, 2676.851
599.7878, 2682.198
600.2700, 2664.501
600.7521, 2635.103
601.2342, 2625.093
601.7163, 2636.269
602.1984, 2645.354
602.6805, 2646.170
603.1627, 2642.324
603.6448, 2636.579
604.1269, 2629.058
604.6090, 2623.086
605.0911, 2622.996
605.5732, 2620.259
606.0554, 2601.089
606.5375, 2580.373
607.0196, 2584.768
607.5017, 2618.963
607.9838, 2657.342
608.4659, 2671.606
608.9481, 2664.418
609.4302, 2664.337
609.9123, 2676.745
610.3944, 2680.271
610.8765, 2658.072
611.3586, 2628.823
611.8408, 2617.369
612.3229, 2625.705
612.8050, 2632.276
613.2871, 2628.709
613.7692, 2622.821
614.2513, 2618.125
614.7335, 2616.349
615.2156, 2622.402
615.6977, 2638.124
616.1798, 2655.709
616.6619, 2663.211
617.1440, 2659.743
617.6262, 2654.652
618.1083, 2646.421
618.5904, 2639.139
619.0725, 2634.717
619.5546, 2632.264
620.0367, 2630.356
620.5189, 2628.336
621.0010, 2629.582
621.4831, 2636.918
621.9652, 2647.440
622.4473, 2662.274
622.9294, 2678.077
623.4116, 2682.823
623.8937, 2669.867
624.3758, 2646.628
624.8579, 2625.876
625.3400, 2605.382
625.8221, 2596.905
626.3043, 2610.669
626.7864, 2624.281
627.2685, 2624.803
627.7506, 2619.215
628.2327, 2620.521
628.7148, 2634.407
629.1970, 2645.003
629.6791, 2641.385
630.1612, 2629.870
630.6433, 2618.299
631.1254, 2607.635
631.6075, 2596.679
632.0897, 2584.419
632.5718, 2572.347
633.0539, 2564.944
633.5360, 2564.542
634.0181, 2562.057
634.5002, 2550.658
634.9824, 2543.987
635.4645, 2555.443
635.9466, 2575.150
636.4287, 2581.457
636.9108, 2563.421
637.3929, 2544.866
637.8751, 2546.944
638.3572, 2556.305
638.8393, 2548.456
639.3214, 2523.053
639.8035, 2500.625
640.2856, 2495.383
640.7678, 2501.500
641.2499, 2500.125
641.7320, 2485.162
642.2141, 2478.521
642.6962, 2491.633
643.1783, 2503.868
643.6605, 2502.849
644.1426, 2493.268
644.6247, 2487.099
645.1068, 2490.370
645.5889, 2491.577
646.0710, 2479.831
646.5532, 2462.389
647.0353, 2450.726
647.5174, 2446.015
647.9995, 2444.114
648.4816, 2442.836
648.9637, 2440.655
649.4459, 2431.053
649.9280, 2407.553
650.4101, 2394.814
650.8922, 2407.713
651.3743, 2418.865
651.8564, 2408.344
652.3386, 2385.171
652.8207, 2372.801
653.3028, 2384.886
653.7849, 2392.665
654.2670, 2370.138
654.7491, 2336.750
655.2313, 2321.439
655.7134, 2325.802
656.1955, 2333.508
656.6776, 2333.859
657.1597, 2329.230
657.6418, 2326.522
658.1240, 2326.911
658.6061, 2325.026
659.0882, 2320.613
659.5703, 2313.373
660.0524, 2299.080
660.5345, 2282.349
661.0167, 2274.572
661.4988, 2281.305
661.9809, 2289.826
662.4630, 2298.280
662.9451, 2302.729
663.4272, 2295.385
663.9094, 2278.481
664.3915, 2263.219
664.8736, 2256.301
665.3557, 2255.605
665.8378, 2257.683
666.3199, 2263.336
666.8021, 2266.001
667.2842, 2264.350
667.7663, 2260.853
668.2484, 2255.590
668.7305, 2249.870
669.2126, 2246.768
669.6948, 2248.031
670.1769, 2248.573
670.6590, 2247.863
671.1411, 2244.962
671.6232, 2235.561
672.1053, 2223.165
672.5875, 2218.747
673.0696, 2228.497
673.5517, 2242.031
674.0338, 2241.048
674.5159, 2226.043
674.9980, 2214.443
675.4802, 2206.646
675.9623, 2205.667
676.4444, 2218.627
676.9265, 2237.300
677.4086, 2239.071
677.8907, 2214.009
678.3729, 2199.831
678.8550, 2209.311
679.3371, 2223.471
679.8192, 2235.668
680.3013, 2242.354
680.7834, 2235.431
681.2656, 2211.827
681.7477, 2189.678
682.2298, 2195.378
682.7119, 2219.630
683.1940, 2224.525
683.6761, 2206.792
684.1583, 2197.141
684.6404, 2214.201
685.1225, 2240.140
685.6046, 2241.241
686.0867, 2205.079
686.5688, 2184.048
687.0510, 2186.975
687.5331, 2193.632
688.0152, 2199.446
688.4973, 2203.596
688.9794, 2206.454
689.4615, 2207.917
689.9437, 2205.047
690.4258, 2190.666
690.9079, 2173.456
691.3900, 2167.746
691.8721, 2172.016
692.3542, 2177.129
692.8364, 2179.874
693.3185, 2182.284
693.8006, 2187.072
694.2827, 2194.399
694.7648, 2200.724
695.2469, 2206.975
695.7291, 2210.720
696.2112, 2209.767
696.6933, 2207.354
697.1754, 2205.311
697.6575, 2204.061
698.1396, 2205.348
698.6218, 2215.792
699.1039, 2223.096
699.5860, 2214.811
700.0681, 2198.384
700.5502, 2185.949
701.0323, 2180.310
701.5145, 2179.261
701.9966, 2182.791
702.4787, 2187.089
702.9608, 2173.858
703.4429, 2137.228
703.9250, 2116.097
704.4072, 2121.262
704.8893, 2138.637
705.3714, 2163.485
705.8535, 2192.136
706.3356, 2207.572
706.8177, 2200.253
707.2999, 2191.919
707.7820, 2187.091
708.2641, 2183.759
708.7462, 2181.764
709.2283, 2179.706
709.7104, 2173.531
710.1926, 2160.177
710.6747, 2146.937
711.1568, 2144.077
711.6389, 2149.933
712.1210, 2158.254
712.6031, 2168.622
713.0853, 2177.826
713.5674, 2185.019
714.0495, 2188.166
714.5316, 2181.115
715.0137, 2154.051
715.4958, 2141.107
715.9780, 2152.216
716.4601, 2165.961
716.9422, 2175.385
717.4243, 2182.112
717.9064, 2189.526
718.3885, 2198.406
718.8707, 2204.607
719.3528, 2204.017
719.8349, 2200.771
720.3170, 2200.384
720.7991, 2201.375
721.2813, 2197.908
721.7634, 2188.153
722.2455, 2177.579
722.7276, 2173.198
723.2097, 2174.251
723.6918, 2170.326
724.1740, 2158.139
724.6561, 2152.140
725.1382, 2159.125
725.6203, 2170.965
726.1024, 2182.196
726.5845, 2192.249
727.0667, 2192.368
727.5488, 2169.305
728.0309, 2151.885
728.5130, 2154.235
728.9951, 2163.504
729.4772, 2167.678
729.9594, 2165.839
730.4415, 2162.359
730.9236, 2159.562
731.4057, 2156.933
731.8878, 2152.640
732.3699, 2147.726
732.8521, 2148.437
733.3342, 2155.868
733.8163, 2158.072
734.2984, 2145.106
734.7805, 2125.374
735.2626, 2123.296
735.7448, 2150.603
736.2269, 2167.595
736.7090, 2164.665
737.1911, 2161.988
737.6732, 2172.584
738.1553, 2185.981
738.6375, 2184.333
739.1196, 2162.740
739.6017, 2145.926
740.0838, 2147.565
740.5659, 2155.626
741.0480, 2162.494
741.5302, 2156.004
742.0123, 2171.275
742.4944, 2180.126
742.9765, 2182.903
743.4586, 2161.408
743.9407, 2171.254
744.4229, 2168.541
744.9050, 2165.312
745.3871, 2179.569
745.8692, 2161.604
746.3513, 2175.584
746.8334, 2176.812
747.3156, 2183.877
747.7977, 2173.111
748.2798, 2176.375
748.7619, 2177.017
749.2440, 2170.505
749.7261, 2164.595
750.2083, 2167.259
750.6904, 2174.787
751.1725, 2176.329
751.6546, 2166.420
752.1367, 2155.088
752.6188, 2147.237
753.1010, 2143.818
753.5831, 2150.353
754.0652, 2163.532
754.5473, 2168.106
755.0294, 2156.566
755.5115, 2140.406
755.9937, 2138.992
756.4758, 2152.401
756.9579, 2160.247
757.4400, 2162.439
757.9221, 2158.637
758.4042, 2144.826
758.8864, 2129.380
759.3685, 2124.227
759.8506, 2130.861
760.3327, 2134.264
760.8148, 2129.560
761.2969, 2127.712
761.7791, 2136.895
762.2612, 2146.507
762.7433, 2145.104
763.2254, 2133.974
763.7075, 2123.705
764.1896, 2118.181
764.6718, 2117.953
765.1539, 2129.139
765.6360, 2144.166
766.1181, 2147.970
766.6002, 2139.395
767.0823, 2123.129
767.5645, 2100.703
768.0466, 2081.021
768.5287, 2087.403
769.0108, 2123.512
769.4929, 2140.068
769.9750, 2128.476
770.4572, 2116.310
770.9393, 2114.530
771.4214, 2120.682
771.9035, 2133.753
772.3856, 2157.177
772.8677, 2167.425
773.3499, 2151.076
773.8320, 2136.430
774.3141, 2135.525
774.7962, 2139.711
775.2783, 2140.362
775.7604, 2136.400
776.2426, 2130.154
776.7247, 2118.152
777.2068, 2110.883
777.6889, 2124.885
778.1710, 2149.127
778.6531, 2161.552
779.1353, 2159.812
779.6174, 2152.413
780.0995, 2144.236
780.5816, 2136.889
781.0637, 2133.103
781.5458, 2132.766
782.0280, 2141.034
782.5101, 2163.336
782.9922, 2175.518
783.4743, 2159.378
783.9564, 2132.808
784.4385, 2128.072
784.9207, 2152.788
785.4028, 2166.096
785.8849, 2161.147
786.3670, 2153.499
786.8491, 2144.552
787.3312, 2137.185
787.8134, 2135.471
788.2955, 2138.574
788.7776, 2139.552
789.2597, 2131.819
789.7418, 2125.633
790.2239, 2131.684
790.7061, 2142.877
791.1882, 2148.500
791.6703, 2147.958
792.1524, 2145.586
792.6345, 2143.488
793.1166, 2143.964
793.5988, 2156.328
794.0809, 2177.499
794.5630, 2173.905
795.0451, 2140.167
795.5272, 2114.747
796.0093, 2116.099
796.4915, 2131.538
796.9736, 2143.357
797.4557, 2151.916
797.9378, 2153.426
798.4199, 2138.716
798.9020, 2130.253
799.3842, 2143.046
799.8663, 2154.962
800.3484, 2142.572
800.8305, 2111.749
801.3126, 2093.406
801.7947, 2101.607
802.2769, 2113.608
802.7590, 2120.651
803.2411, 2126.087
803.7232, 2134.110
804.2053, 2143.354
804.6874, 2149.571
805.1696, 2150.863
805.6517, 2149.561
806.1338, 2145.218
806.6159, 2141.080
807.0980, 2148.583
807.5801, 2165.486
808.0623, 2172.441
808.5444, 2162.530
809.0265, 2147.881
809.5086, 2141.783
809.9907, 2143.353
810.4728, 2145.970
810.9550, 2151.210
811.4371, 2151.328
811.9192, 2141.523
812.4013, 2131.803
812.8834, 2131.161
813.3655, 2136.637
813.8477, 2136.600
814.3298, 2126.362
814.8119, 2120.182
815.2940, 2117.723
815.7761, 2121.181
816.2582, 2136.806
816.7404, 2156.705
817.2225, 2171.356
817.7046, 2178.555
818.1867, 2177.181
818.6688, 2154.616
819.1509, 2134.496
819.6331, 2145.054
820.1152, 2170.139
820.5973, 2180.377
821.0794, 2171.765
821.5615, 2157.532
822.0436, 2145.688
822.5258, 2137.098
823.0079, 2135.184
823.4900, 2138.565
823.9721, 2137.801
824.4542, 2131.799
824.9363, 2126.051
825.4185, 2122.592
825.9006, 2124.055
826.3827, 2137.755
826.8648, 2167.196
827.3469, 2174.032
827.8290, 2143.428
828.3111, 2120.852
828.7932, 2124.224
829.2753, 2135.668
829.7574, 2138.324
830.2396, 2133.585
830.7217, 2130.723
831.2038, 2129.259
831.6859, 2131.285
832.1680, 2142.345
832.6501, 2152.228
833.1323, 2153.078
833.6144, 2147.486
834.0965, 2140.977
834.5786, 2135.011
835.0607, 2130.372
835.5428, 2128.329
836.0250, 2127.212
836.5071, 2123.530
836.9892, 2119.815
837.4713, 2123.806
837.9534, 2135.848
838.4355, 2144.632
838.9177, 2139.435
839.3998, 2128.130
839.8819, 2128.619
840.3640, 2138.653
840.8461, 2142.125
841.3282, 2136.682
841.8104, 2133.930
842.2925, 2141.294
842.7746, 2153.449
843.2567, 2160.567
843.7388, 2162.729
844.2209, 2158.544
844.7031, 2144.054
845.1852, 2132.169
845.6673, 2123.792
846.1494, 2123.358
846.6315, 2141.960
847.1136, 2177.823
847.5958, 2194.122
848.0779, 2172.178
848.5600, 2157.430
849.0421, 2160.586
849.5242, 2167.779
850.0063, 2174.229
850.4885, 2176.950
850.9706, 2168.490
851.4527, 2144.689
851.9348, 2130.307
852.4169, 2149.684
852.8990, 2170.708
853.3812, 2164.601
853.8633, 2144.335
854.3454, 2129.979
854.8275, 2126.136
855.3096, 2129.491
855.7917, 2139.922
856.2739, 2152.007
856.7560, 2157.544
857.2381, 2158.908
857.7202, 2164.271
858.2023, 2173.036
858.6844, 2172.911
859.1666, 2157.248
859.6487, 2139.619
860.1308, 2144.152
860.6129, 2167.539
861.0950, 2167.778
861.5771, 2141.825
862.0593, 2120.492
862.5414, 2111.858
863.0235, 2111.708
863.5056, 2117.380
863.9877, 2127.987
864.4698, 2139.707
864.9520, 2159.047
865.4341, 2163.687
865.9162, 2136.329
866.3983, 2115.855
866.8804, 2129.745
867.3625, 2157.291
867.8447, 2169.225
868.3268, 2163.233
868.8089, 2157.602
869.2910, 2152.506
869.7731, 2150.615
870.2552, 2156.183
870.7374, 2162.642
871.2195, 2163.941
871.7016, 2160.788
872.1837, 2157.302
872.6658, 2154.617
873.1479, 2152.565
873.6301, 2153.149
874.1122, 2152.521
874.5943, 2142.982
875.0764, 2130.401
875.5585, 2128.976
876.0406, 2140.937
876.5228, 2151.238
877.0049, 2145.651
877.4870, 2134.280
877.9691, 2134.491
878.4512, 2140.892
878.9333, 2135.522
879.4155, 2118.269
879.8976, 2109.198
880.3797, 2120.313
880.8618, 2137.164
881.3439, 2131.771
881.8260, 2108.100
882.3082, 2109.131
882.7903, 2136.620
883.2724, 2151.017
883.7545, 2137.611
884.2366, 2120.704
884.7188, 2124.663
885.2009, 2144.480
885.6830, 2154.428
886.1651, 2152.016
886.6472, 2147.717
887.1293, 2139.875
887.6115, 2135.220
888.0936, 2139.738
888.5757, 2147.384
889.0578, 2147.323
889.5399, 2137.536
890.0220, 2133.156
890.5042, 2139.629
890.9863, 2143.850
891.4684, 2136.408
891.9505, 2132.149
892.4326, 2149.680
892.9147, 2178.822
893.3969, 2188.828
893.8790, 2167.108
894.3611, 2147.520
894.8432, 2139.438
895.3253, 2136.813
895.8074, 2134.861
896.2896, 2136.865
896.7717, 2152.776
897.2538, 2180.220
897.7359, 2196.734
898.2180, 2186.682
898.7001, 2168.849
899.1823, 2152.660
899.6644, 2139.895
900.1465, 2132.924
900.6286, 2131.357
901.1107, 2134.531
901.5928, 2142.001
902.0750, 2149.368
902.5571, 2149.830
903.0392, 2149.178
903.5213, 2160.219
904.0034, 2178.120
904.4855, 2189.568
904.9677, 2191.968
905.4498, 2186.583
905.9319, 2173.300
906.4140, 2158.410
906.8961, 2152.408
907.3782, 2154.496
907.8604, 2163.253
908.3425, 2178.151
908.8246, 2183.938
909.3067, 2174.706
909.7888, 2163.050
910.2709, 2162.260
910.7531, 2169.238
911.2352, 2169.796
911.7173, 2163.083
912.1994, 2157.201
912.6815, 2154.405
913.1636, 2146.037
913.6458, 2123.503
914.1279, 2099.968
914.6100, 2097.647
915.0921, 2118.375
915.5742, 2134.511
916.0563, 2148.203
916.5385, 2152.007
917.0206, 2136.954
917.5027, 2121.312
917.9848, 2118.237
918.4669, 2124.452
918.9490, 2130.412
919.4312, 2134.776
919.9133, 2142.505
920.3954, 2164.894
920.8775, 2176.574
921.3596, 2159.424
921.8417, 2135.724
922.3239, 2125.102
922.8060, 2127.547
923.2881, 2136.818
923.7702, 2158.688
924.2523, 2174.899
924.7344, 2183.329
925.2166, 2182.111
925.6987, 2159.825
926.1808, 2132.321
926.6629, 2125.035
927.1450, 2140.306
927.6271, 2152.108
928.1093, 2143.552
928.5914, 2135.581
929.0735, 2143.817
929.5556, 2154.986
930.0377, 2153.752
930.5198, 2143.954
931.0020, 2137.483
931.4841, 2138.213
931.9662, 2142.343
932.4483, 2147.826
932.9304, 2154.835
933.4125, 2167.998
933.8947, 2180.708
934.3768, 2178.675
934.8589, 2164.081
935.3410, 2153.818
935.8231, 2156.753
936.3052, 2164.654
936.7874, 2172.223
937.2695, 2176.647
937.7516, 2171.455
938.2337, 2158.863
938.7158, 2143.411
939.1979, 2127.419
939.6801, 2118.363
940.1622, 2122.771
940.6443, 2133.474
941.1264, 2139.649
941.6085, 2141.829
942.0906, 2139.822
942.5728, 2134.775
943.0549, 2135.492
943.5370, 2144.981
944.0191, 2152.894
944.5012, 2147.296
944.9833, 2134.196
945.4655, 2133.242
945.9476, 2143.078
946.4297, 2147.406
946.9118, 2144.276
947.3939, 2142.095
947.8760, 2144.792
948.3582, 2151.755
948.8403, 2164.625
949.3224, 2181.024
949.8045, 2177.015
950.2866, 2149.979
950.7687, 2135.051
951.2509, 2139.816
951.7330, 2149.501
952.2151, 2156.824
952.6972, 2158.723
953.1793, 2146.377
953.6614, 2117.724
954.1436, 2111.092
954.6257, 2133.917
955.1078, 2149.370
955.5899, 2146.826
956.0720, 2139.830
956.5541, 2137.607
957.0363, 2139.561
957.5184, 2144.863
958.0005, 2155.901
958.4826, 2159.494
958.9647, 2149.497
959.4468, 2146.294
959.9290, 2161.354
960.4111, 2177.529
960.8932, 2177.396
961.3753, 2164.942
961.8574, 2159.872
962.3395, 2170.825
962.8217, 2169.752
963.3038, 2143.083
963.7859, 2124.853
964.2680, 2133.275
964.7501, 2150.477
965.2322, 2157.627
965.7144, 2155.627
966.1965, 2155.551
966.6786, 2162.850
967.1607, 2163.512
967.6428, 2152.247
968.1249, 2140.120
968.6071, 2131.278
969.0892, 2124.399
969.5713, 2115.318
970.0534, 2104.261
970.5355, 2105.219
971.0176, 2131.855
971.4998, 2151.837
971.9819, 2157.089
972.4640, 2158.683
972.9461, 2161.072
973.4282, 2164.406
973.9103, 2170.254
974.3925, 2178.951
974.8746, 2180.291
975.3567, 2164.615
975.8388, 2152.682
976.3209, 2153.265
976.8030, 2155.448
977.2852, 2150.337
977.7673, 2142.145
978.2494, 2138.971
978.7315, 2142.040
979.2136, 2147.904
979.6957, 2161.770
980.1779, 2170.449
980.6600, 2168.431
981.1421, 2160.310
981.6242, 2140.938
982.1063, 2120.780
982.5884, 2124.797
983.0706, 2161.333
983.5527, 2187.794
984.0348, 2187.075
984.5169, 2178.949
984.9990, 2167.066
985.4811, 2155.798
985.9633, 2149.847
986.4454, 2147.380
986.9275, 2143.111
987.4096, 2135.688
987.8917, 2127.538
988.3738, 2114.551
988.8560, 2106.996
989.3381, 2114.268
989.8202, 2126.327
990.3023, 2135.331
990.7844, 2139.703
991.2665, 2138.156
991.7487, 2129.527
992.2308, 2119.187
992.7129, 2102.953
993.1950, 2092.971
993.6771, 2098.095
994.1592, 2111.916
994.6414, 2130.594
995.1235, 2151.113
995.6056, 2168.532
996.0877, 2183.250
996.5698, 2186.727
997.0519, 2161.618
997.5341, 2139.184
998.0162, 2144.178
998.4983, 2159.403
998.9804, 2165.766
999.4625, 2162.473
999.9446, 2156.288
1000.427, 2147.768
1000.909, 2142.923
1001.391, 2147.436
1001.873, 2153.314
1002.355, 2156.879
1002.837, 2157.692
1003.319, 2155.572
1003.802, 2150.546
1004.284, 2141.318
1004.766, 2123.973
1005.248, 2114.904
1005.730, 2133.187
1006.212, 2149.746
1006.694, 2137.653
1007.176, 2117.449
1007.659, 2117.994
1008.141, 2136.312
1008.623, 2146.703
1009.105, 2137.567
1009.587, 2130.248
1010.069, 2140.869
1010.551, 2149.210
1011.033, 2135.805
1011.515, 2116.814
1011.998, 2113.170
1012.480, 2123.627
1012.962, 2133.003
1013.444, 2135.888
1013.926, 2139.506
1014.408, 2150.864
1014.890, 2159.449
1015.372, 2159.602
1015.854, 2152.782
1016.337, 2136.169
1016.819, 2114.217
1017.301, 2102.763
1017.783, 2109.438
1018.265, 2116.399
1018.747, 2121.962
1019.229, 2120.266
1019.711, 2093.081
1020.194, 2067.793
1020.676, 2085.049
1021.158, 2132.700
1021.640, 2155.891
1022.122, 2134.339
1022.604, 2111.595
1023.086, 2097.848
1023.568, 2090.317
1024.051, 2092.992
1024.533, 2096.953
1025.015, 2088.570
1025.497, 2073.563
1025.979, 2074.292
1026.461, 2100.555
1026.943, 2123.463
1027.425, 2138.977
1027.907, 2146.503
1028.390, 2138.609
1028.872, 2128.663
1029.354, 2132.334
1029.836, 2144.124
1030.318, 2144.393
1030.800, 2126.708
1031.282, 2111.131
1031.764, 2097.364
1032.246, 2090.780
1032.729, 2097.139
1033.211, 2107.942
1033.693, 2116.792
1034.175, 2124.440
1034.657, 2134.583
1035.139, 2149.766
1035.621, 2158.431
1036.103, 2151.404
1036.586, 2149.188
1037.068, 2162.120
1037.550, 2176.171
1038.032, 2183.829
1038.514, 2184.595
1038.996, 2176.053
1039.478, 2155.065
1039.960, 2139.559
1040.443, 2128.825
1040.925, 2125.164
1041.407, 2140.223
1041.889, 2147.925
1042.371, 2120.952
1042.853, 2083.025
1043.335, 2081.698
1043.817, 2122.619
1044.299, 2144.887
1044.781, 2140.578
1045.264, 2134.327
1045.746, 2127.295
1046.228, 2122.900
1046.710, 2122.911
1047.192, 2127.085
1047.674, 2136.783
1048.156, 2151.744
1048.638, 2155.635
1049.121, 2144.871
1049.603, 2134.817
1050.085, 2125.314
1050.567, 2123.538
1051.049, 2135.874
1051.531, 2150.738
1052.013, 2152.681
1052.495, 2143.599
1052.978, 2135.634
1053.460, 2128.291
1053.942, 2127.207
1054.424, 2134.198
1054.906, 2137.839
1055.388, 2133.214
1055.870, 2125.131
1056.352, 2117.691
1056.834, 2112.573
1057.317, 2117.600
1057.799, 2132.151
1058.281, 2140.893
1058.763, 2142.900
1059.245, 2137.582
1059.727, 2124.499
1060.209, 2117.758
1060.691, 2131.469
1061.173, 2151.265
1061.656, 2141.078
1062.138, 2110.367
1062.620, 2104.449
1063.102, 2120.892
1063.584, 2138.612
1064.066, 2151.034
1064.548, 2149.736
1065.030, 2127.483
1065.513, 2101.821
1065.995, 2100.690
1066.477, 2112.733
1066.959, 2111.593
1067.441, 2102.731
1067.923, 2104.761
1068.405, 2118.006
1068.887, 2126.267
1069.370, 2121.462
1069.852, 2116.983
1070.334, 2132.399
1070.816, 2149.701
1071.298, 2142.615
1071.780, 2123.946
1072.262, 2114.299
1072.744, 2113.080
1073.226, 2107.493
1073.708, 2093.781
1074.191, 2088.481
1074.673, 2114.261
1075.155, 2138.714
1075.637, 2132.187
1076.119, 2116.984
1076.601, 2116.186
1077.083, 2124.666
1077.565, 2130.637
1078.047, 2131.244
1078.530, 2125.593
1079.012, 2105.958
1079.494, 2091.951
1079.976, 2094.492
1080.458, 2101.703
1080.940, 2110.184
1081.422, 2115.957
1081.904, 2110.816
1082.387, 2097.459
1082.869, 2095.520
1083.351, 2120.679
1083.833, 2130.405
1084.315, 2098.048
1084.797, 2076.258
1085.279, 2096.739
1085.761, 2124.417
1086.244, 2126.274
1086.726, 2110.843
1087.208, 2104.307
1087.690, 2109.900
1088.172, 2111.365
1088.654, 2108.868
1089.136, 2101.025
1089.618, 2082.904
1090.100, 2068.271
1090.583, 2065.496
1091.065, 2072.353
1091.547, 2087.301
1092.029, 2109.811
1092.511, 2114.723
1092.993, 2098.345
1093.475, 2091.403
1093.957, 2099.089
1094.439, 2107.645
1094.922, 2111.531
1095.404, 2109.050
1095.886, 2095.850
1096.368, 2078.488
1096.850, 2079.887
1097.332, 2097.436
1097.814, 2114.667
1098.296, 2129.368
1098.779, 2128.368
1099.261, 2113.794
1099.743, 2127.684
1100.225, 2133.598
1100.707, 2131.963
1101.189, 2100.171
1101.671, 2107.321
1102.153, 2098.865
1102.635, 2089.768
1103.118, 2102.390
1103.600, 2074.984
1104.082, 2087.270
1104.564, 2072.328
1105.046, 2083.272
1105.528, 2094.473
1106.010, 2102.140
1106.492, 2104.602
1106.974, 2100.145
1107.457, 2076.780
1107.939, 2047.717
1108.421, 2045.273
1108.903, 2075.365
1109.385, 2101.399
1109.867, 2104.183
1110.349, 2106.362
1110.831, 2118.913
1111.314, 2130.701
1111.796, 2138.308
1112.278, 2138.509
1112.760, 2124.186
1113.242, 2097.701
1113.724, 2075.559
1114.206, 2052.732
1114.688, 2048.383
1115.171, 2079.893
1115.653, 2103.030
1116.135, 2101.714
1116.617, 2094.707
1117.099, 2095.578
1117.581, 2100.910
1118.063, 2103.438
1118.545, 2103.276
1119.027, 2097.950
1119.510, 2086.583
1119.992, 2072.859
1120.474, 2055.432
1120.956, 2049.231
1121.438, 2063.101
1121.920, 2082.647
1122.402, 2091.252
1122.884, 2090.276
1123.366, 2081.448
1123.849, 2066.687
1124.331, 2054.614
1124.813, 2046.857
1125.295, 2051.673
1125.777, 2069.425
1126.259, 2081.989
1126.741, 2075.461
1127.223, 2065.380
1127.706, 2074.447
1128.188, 2088.990
1128.670, 2086.619
1129.152, 2075.918
1129.634, 2076.401
1130.116, 2084.802
1130.598, 2079.973
1131.080, 2054.367
1131.563, 2033.505
1132.045, 2030.681
1132.527, 2038.042
1133.009, 2061.613
1133.491, 2083.414
1133.973, 2086.283
1134.455, 2078.774
1134.937, 2075.355
1135.419, 2076.775
1135.901, 2074.196
1136.384, 2056.748
1136.866, 2052.814
1137.348, 2078.631
1137.830, 2098.397
1138.312, 2101.809
1138.794, 2095.382
1139.276, 2079.859
1139.758, 2061.706
1140.241, 2056.731
1140.723, 2065.785
1141.205, 2075.366
1141.687, 2086.497
1142.169, 2090.637
1142.651, 2086.032
1143.133, 2077.381
1143.615, 2066.140
1144.098, 2060.245
1144.580, 2070.902
1145.062, 2088.602
1145.544, 2086.575
1146.026, 2071.735
1146.508, 2069.279
1146.990, 2076.559
1147.472, 2076.511
1147.954, 2066.767
1148.437, 2060.048
1148.919, 2063.896
1149.401, 2068.183
1149.883, 2060.978
1150.365, 2052.564
1150.847, 2055.470
1151.329, 2061.342
1151.811, 2058.478
1152.293, 2050.008
1152.776, 2044.645
1153.258, 2044.260
1153.740, 2047.938
1154.222, 2061.910
1154.704, 2070.060
1155.186, 2063.287
1155.668, 2056.028
1156.150, 2055.340
1156.633, 2057.524
1157.115, 2059.624
1157.597, 2061.199
1158.079, 2060.839
1158.561, 2058.532
1159.043, 2053.438
1159.525, 2043.345
1160.007, 2040.118
1160.490, 2047.459
1160.972, 2053.540
1161.454, 2051.780
1161.936, 2048.096
1162.418, 2049.450
1162.900, 2055.455
1163.382, 2069.438
1163.864, 2086.792
1164.346, 2086.296
1164.828, 2070.218
1165.311, 2052.403
1165.793, 2037.266
1166.275, 2026.254
1166.757, 2019.939
1167.239, 2020.449
1167.721, 2034.360
1168.203, 2051.214
1168.685, 2064.211
1169.168, 2071.476
1169.650, 2068.180
1170.132, 2058.612
1170.614, 2050.070
1171.096, 2044.275
1171.578, 2045.587
1172.060, 2061.528
1172.542, 2074.577
1173.025, 2087.010
1173.507, 2088.648
1173.989, 2063.299
1174.471, 2039.832
1174.953, 2045.579
1175.435, 2068.330
1175.917, 2077.658
1176.399, 2072.764
1176.881, 2069.420
1177.364, 2068.642
1177.846, 2056.440
1178.328, 2029.670
1178.810, 2020.166
1179.292, 2042.075
1179.774, 2065.119
1180.256, 2057.837
1180.738, 2039.624
1181.220, 2048.394
1181.703, 2071.000
1182.185, 2082.397
1182.667, 2082.722
1183.149, 2072.425
1183.631, 2054.854
1184.113, 2038.021
1184.595, 2024.798
1185.077, 2019.632
1185.560, 2033.176
1186.042, 2044.596
1186.524, 2041.927
1187.006, 2034.473
1187.488, 2023.891
1187.970, 2016.179
1188.452, 2020.511
1188.934, 2035.368
1189.417, 2048.338
1189.899, 2060.575
1190.381, 2066.995
1190.863, 2068.165
1191.345, 2059.914
1191.827, 2036.503
1192.309, 2022.490
1192.791, 2033.349
1193.273, 2052.208
1193.755, 2057.125
1194.238, 2053.443
1194.720, 2059.258
1195.202, 2071.087
1195.684, 2072.730
1196.166, 2066.787
1196.648, 2069.606
1197.130, 2081.873
1197.612, 2084.771
1198.095, 2067.899
1198.577, 2053.976
1199.059, 2066.333
1199.541, 2081.937
1200.023, 2087.134
1200.505, 2083.979
1200.987, 2068.301
1201.469, 2049.291
1201.952, 2044.967
1202.434, 2053.602
1202.916, 2046.260
1203.398, 2001.991
1203.880, 1983.297
1204.362, 2005.267
1204.844, 2020.553
1205.326, 2015.719
1205.808, 2011.315
1206.291, 2020.603
1206.773, 2032.705
1207.255, 2030.305
1207.737, 2020.702
1208.219, 2039.193
1208.701, 2076.123
1209.183, 2074.924
1209.665, 2042.908
1210.147, 2031.594
1210.630, 2047.764
1211.112, 2053.216
1211.594, 2027.588
1212.076, 2003.957
1212.558, 2010.555
1213.040, 2027.539
1213.522, 2047.677
1214.004, 2063.425
1214.487, 2065.389
1214.969, 2059.871
1215.451, 2056.649
1215.933, 2056.122
1216.415, 2053.339
1216.897, 2044.279
1217.379, 2044.076
1217.861, 2059.821
1218.344, 2066.035
1218.826, 2054.058
1219.308, 2045.068
1219.790, 2051.861
1220.272, 2059.338
1220.754, 2047.166
1221.236, 2026.058
1221.718, 2027.575
1222.200, 2045.041
1222.682, 2057.291
1223.165, 2064.031
1223.647, 2067.374
1224.129, 2068.486
1224.611, 2070.503
1225.093, 2074.674
1225.575, 2074.526
1226.057, 2060.786
1226.539, 2048.690
1227.022, 2047.291
1227.504, 2049.444
1227.986, 2053.345
1228.468, 2055.748
1228.950, 2051.504
1229.432, 2042.980
1229.914, 2037.632
1230.396, 2035.181
1230.879, 2039.555
1231.361, 2054.195
1231.843, 2056.690
1232.325, 2042.707
1232.807, 2032.130
1233.289, 2032.778
1233.771, 2038.066
1234.253, 2043.742
1234.735, 2044.471
1235.218, 2027.032
1235.700, 2002.680
1236.182, 1987.815
1236.664, 1981.982
1237.146, 1987.969
1237.628, 2000.166
1238.110, 2004.685
1238.592, 1999.522
1239.074, 1998.818
1239.557, 2009.387
1240.039, 2020.400
1240.521, 2030.088
1241.003, 2039.177
1241.485, 2050.319
1241.967, 2057.136
1242.449, 2053.457
1242.931, 2046.589
1243.414, 2048.688
1243.896, 2056.604
1244.378, 2051.834
1244.860, 2036.494
1245.342, 2032.745
1245.824, 2040.502
1246.306, 2055.751
1246.788, 2074.313
1247.271, 2077.127
1247.753, 2055.101
1248.235, 2037.002
1248.717, 2050.933
1249.199, 2070.750
1249.681, 2084.563
1250.163, 2089.417
1250.645, 2077.665
1251.127, 2059.543
1251.609, 2045.120
1252.092, 2035.780
1252.574, 2033.370
1253.056, 2038.468
1253.538, 2045.400
1254.020, 2055.549
1254.502, 2061.534
1254.984, 2062.501
1255.466, 2058.249
1255.949, 2048.437
1256.431, 2044.179
1256.913, 2054.895
1257.395, 2067.681
1257.877, 2063.483
1258.359, 2051.069
1258.841, 2039.222
1259.323, 2031.728
1259.806, 2037.238
1260.288, 2049.764
1260.770, 2056.930
1261.252, 2057.556
1261.734, 2058.509
1262.216, 2061.805
1262.698, 2064.031
1263.180, 2064.649
1263.662, 2064.348
1264.145, 2062.890
##END=



