##NAMES=Coquimbite
##RRUFFID=R070666
##IDEAL CHEMISTRY=AlFe^3+^_3_(S^6+^O_4_)_6_(H_2_O)_12_&#183;6H_2_O
##LOCALITY=United Verde Mine, Jerome, Verde District, Black Hills (Black Hill Range), Yavapai County, Arizona, USA
##OWNER=RRUFF
##SOURCE=Michael Scott
##DESCRIPTION=Massive, globular, chalky-white; associated with yellow copiapite
##STATUS=The identification of this mineral has been confirmed by X-ray diffraction.
##URL=rruff.info/R070666
125.5809, 10796.34
126.0631, 10814.61
126.5452, 10839.83
127.0273, 10873.07
127.5094, 10911.11
127.9915, 10950.18
128.4736, 10988.13
128.9558, 11025.06
129.4379, 11063.47
129.9200, 11102.77
130.4021, 11144.38
130.8842, 11193.50
131.3663, 11246.52
131.8485, 11294.25
132.3306, 11325.64
132.8127, 11331.74
133.2948, 11364.62
133.7769, 11444.59
134.2590, 11530.95
134.7412, 11595.93
135.2233, 11635.73
135.7054, 11668.84
136.1875, 11720.24
136.6696, 11793.34
137.1517, 11881.98
137.6339, 12005.46
138.1160, 12139.04
138.5981, 12247.08
139.0802, 12314.30
139.5623, 12359.97
140.0444, 12426.02
140.5266, 12521.59
141.0087, 12611.49
141.4908, 12672.85
141.9729, 12712.95
142.4550, 12765.30
142.9371, 12851.74
143.4193, 12956.93
143.9014, 13048.20
144.3835, 13114.26
144.8656, 13179.24
145.3477, 13265.28
145.8298, 13373.62
146.3120, 13496.46
146.7941, 13654.35
147.2762, 13818.90
147.7583, 13959.45
148.2404, 14079.08
148.7225, 14160.98
149.2047, 14156.89
149.6868, 14033.15
150.1689, 13868.57
150.6510, 13698.97
151.1331, 13519.65
151.6152, 13321.23
152.0974, 13087.16
152.5795, 12817.39
153.0616, 12574.65
153.5437, 12367.70
154.0258, 12181.51
154.5080, 12013.74
154.9901, 11862.94
155.4722, 11729.04
155.9543, 11611.40
156.4364, 11507.13
156.9185, 11428.08
157.4007, 11375.64
157.8828, 11341.89
158.3649, 11329.34
158.8470, 11335.65
159.3291, 11348.75
159.8112, 11349.28
160.2934, 11324.43
160.7755, 11306.50
161.2576, 11292.47
161.7397, 11286.12
162.2218, 11293.08
162.7039, 11315.75
163.1861, 11348.60
163.6682, 11378.04
164.1503, 11411.97
164.6324, 11433.22
165.1145, 11418.72
165.5966, 11390.39
166.0788, 11392.34
166.5609, 11451.53
167.0430, 11551.41
167.5251, 11623.77
168.0072, 11643.23
168.4893, 11665.71
168.9715, 11729.76
169.4536, 11826.20
169.9357, 11906.65
170.4178, 11934.29
170.8999, 11921.25
171.3820, 11919.98
171.8642, 11950.85
172.3463, 11983.34
172.8284, 11985.66
173.3105, 11954.72
173.7926, 11917.53
174.2747, 11888.94
174.7569, 11867.82
175.2390, 11853.43
175.7211, 11849.15
176.2032, 11851.10
176.6853, 11852.41
177.1674, 11854.08
177.6496, 11852.78
178.1317, 11848.01
178.6138, 11839.38
179.0959, 11825.07
179.5780, 11797.83
180.0602, 11761.04
180.5423, 11739.40
181.0244, 11749.97
181.5065, 11756.71
181.9886, 11734.40
182.4707, 11690.13
182.9529, 11650.41
183.4350, 11645.92
183.9171, 11682.92
184.3992, 11694.29
184.8813, 11650.74
185.3634, 11600.42
185.8456, 11561.94
186.3277, 11536.79
186.8098, 11516.30
187.2919, 11489.69
187.7740, 11453.65
188.2561, 11421.52
188.7383, 11387.41
189.2204, 11360.72
189.7025, 11349.23
190.1846, 11353.95
190.6667, 11368.67
191.1488, 11382.05
191.6310, 11380.56
192.1131, 11403.00
192.5952, 11463.99
193.0773, 11538.30
193.5594, 11605.53
194.0415, 11658.10
194.5237, 11702.36
195.0058, 11753.09
195.4879, 11812.99
195.9700, 11876.86
196.4521, 11957.62
196.9342, 12038.43
197.4164, 12100.18
197.8985, 12134.13
198.3806, 12143.94
198.8627, 12140.35
199.3448, 12099.33
199.8270, 12073.58
200.3091, 12088.70
200.7912, 12124.55
201.2733, 12145.67
201.7554, 12132.97
202.2375, 12091.56
202.7197, 12044.99
203.2018, 11976.89
203.6839, 11921.79
204.1660, 11890.87
204.6481, 11883.06
205.1302, 11898.17
205.6124, 11943.46
206.0945, 12010.59
206.5766, 12053.17
207.0587, 12063.67
207.5408, 12058.75
208.0229, 12047.29
208.5051, 12029.06
208.9872, 12000.29
209.4693, 11956.64
209.9514, 11899.08
210.4335, 11837.92
210.9156, 11778.64
211.3978, 11712.14
211.8799, 11626.20
212.3620, 11519.75
212.8441, 11411.78
213.3262, 11313.24
213.8083, 11223.42
214.2905, 11143.73
214.7726, 11078.45
215.2547, 11021.19
215.7368, 10963.56
216.2189, 10904.09
216.7010, 10849.38
217.1832, 10807.75
217.6653, 10774.46
218.1474, 10742.21
218.6295, 10705.43
219.1116, 10668.79
219.5937, 10640.75
220.0759, 10621.53
220.5580, 10611.61
221.0401, 10621.59
221.5222, 10641.04
222.0043, 10647.38
222.4864, 10612.40
222.9686, 10554.86
223.4507, 10537.42
223.9328, 10582.63
224.4149, 10632.44
224.8970, 10656.72
225.3791, 10660.26
225.8613, 10653.29
226.3434, 10632.12
226.8255, 10601.85
227.3076, 10594.24
227.7897, 10624.34
228.2718, 10659.43
228.7540, 10681.90
229.2361, 10695.32
229.7182, 10710.10
230.2003, 10736.22
230.6824, 10772.66
231.1645, 10799.77
231.6467, 10804.32
232.1288, 10813.14
232.6109, 10840.32
233.0930, 10881.99
233.5751, 10925.43
234.0572, 10961.78
234.5394, 10990.99
235.0215, 11014.63
235.5036, 11031.92
235.9857, 11043.49
236.4678, 11035.82
236.9500, 11018.84
237.4321, 11021.85
237.9142, 11085.41
238.3963, 11221.76
238.8784, 11302.67
239.3605, 11261.83
239.8427, 11218.73
240.3248, 11218.94
240.8069, 11258.97
241.2890, 11308.35
241.7711, 11336.76
242.2532, 11338.57
242.7354, 11353.59
243.2175, 11404.85
243.6996, 11449.35
244.1817, 11462.22
244.6638, 11448.03
245.1459, 11431.27
245.6281, 11437.83
246.1102, 11473.54
246.5923, 11503.70
247.0744, 11533.32
247.5565, 11553.55
248.0386, 11543.52
248.5208, 11513.52
249.0029, 11502.97
249.4850, 11564.96
249.9671, 11735.94
250.4492, 11820.18
250.9313, 11751.81
251.4135, 11665.07
251.8956, 11616.54
252.3777, 11611.94
252.8598, 11628.46
253.3419, 11642.72
253.8240, 11652.37
254.3062, 11670.21
254.7883, 11706.87
255.2704, 11741.37
255.7525, 11757.96
256.2346, 11759.34
256.7167, 11763.39
257.1989, 11790.75
257.6810, 11851.00
258.1631, 11894.50
258.6452, 11903.18
259.1273, 11913.83
259.6094, 11952.79
260.0916, 12016.40
260.5737, 12077.22
261.0558, 12104.53
261.5379, 12085.86
262.0200, 12089.18
262.5021, 12129.40
262.9843, 12174.00
263.4664, 12196.69
263.9485, 12202.67
264.4306, 12222.17
264.9127, 12287.64
265.3948, 12410.86
265.8770, 12523.24
266.3591, 12625.60
266.8412, 12718.80
267.3233, 12795.73
267.8054, 12860.70
268.2875, 12929.12
268.7697, 13015.99
269.2518, 13124.10
269.7339, 13233.50
270.2160, 13341.68
270.6981, 13452.49
271.1802, 13571.02
271.6624, 13695.14
272.1445, 13817.03
272.6266, 13928.34
273.1087, 14026.29
273.5908, 14138.39
274.0729, 14264.88
274.5551, 14402.27
275.0372, 14557.12
275.5193, 14723.30
276.0014, 14885.78
276.4835, 15030.64
276.9656, 15158.01
277.4478, 15281.64
277.9299, 15410.97
278.4120, 15529.71
278.8941, 15638.82
279.3762, 15733.56
279.8583, 15800.70
280.3405, 15827.67
280.8226, 15813.83
281.3047, 15805.37
281.7868, 15833.49
282.2689, 15835.58
282.7510, 15783.29
283.2332, 15684.98
283.7153, 15565.07
284.1974, 15440.62
284.6795, 15310.95
285.1616, 15152.73
285.6437, 14928.96
286.1259, 14720.72
286.6080, 14561.71
287.0901, 14436.66
287.5722, 14315.97
288.0543, 14181.24
288.5364, 14033.36
289.0186, 13874.04
289.5007, 13688.96
289.9828, 13509.80
290.4649, 13343.61
290.9470, 13189.30
291.4291, 13049.48
291.9113, 12927.67
292.3934, 12816.40
292.8755, 12679.07
293.3576, 12465.64
293.8397, 12284.97
294.3218, 12177.03
294.8040, 12107.23
295.2861, 12022.84
295.7682, 11896.83
296.2503, 11748.06
296.7325, 11637.11
297.2146, 11607.01
297.6967, 11566.27
298.1788, 11502.50
298.6609, 11426.71
299.1430, 11351.05
299.6252, 11280.35
300.1073, 11213.62
300.5894, 11147.74
301.0715, 11077.26
301.5536, 11015.20
302.0357, 10966.23
302.5179, 10923.49
303.0000, 10880.59
303.4821, 10835.67
303.9642, 10790.94
304.4463, 10751.78
304.9284, 10726.90
305.4106, 10693.25
305.8927, 10646.21
306.3748, 10594.40
306.8569, 10543.43
307.3390, 10495.14
307.8211, 10448.76
308.3033, 10402.67
308.7854, 10351.90
309.2675, 10314.38
309.7496, 10297.76
310.2317, 10286.30
310.7138, 10276.19
311.1960, 10263.58
311.6781, 10239.10
312.1602, 10188.20
312.6423, 10099.09
313.1244, 10031.31
313.6065, 9988.818
314.0887, 9960.874
314.5708, 9950.567
315.0529, 9952.454
315.5350, 9952.804
316.0171, 9939.075
316.4992, 9910.367
316.9814, 9877.784
317.4635, 9836.272
317.9456, 9795.451
318.4277, 9755.972
318.9098, 9719.671
319.3919, 9689.685
319.8741, 9668.849
320.3562, 9656.659
320.8383, 9646.342
321.3204, 9648.177
321.8025, 9640.224
322.2846, 9610.777
322.7668, 9569.438
323.2489, 9530.841
323.7310, 9503.471
324.2131, 9485.555
324.6952, 9470.626
325.1773, 9461.189
325.6595, 9451.218
326.1416, 9435.069
326.6237, 9419.357
327.1058, 9413.984
327.5879, 9424.444
328.0700, 9440.348
328.5522, 9437.287
329.0343, 9403.413
329.5164, 9376.267
329.9985, 9368.593
330.4806, 9366.785
330.9627, 9361.289
331.4449, 9349.251
331.9270, 9330.479
332.4091, 9300.395
332.8912, 9253.098
333.3733, 9219.713
333.8554, 9226.204
334.3376, 9234.793
334.8197, 9218.925
335.3018, 9176.306
335.7839, 9130.391
336.2660, 9101.286
336.7481, 9088.917
337.2303, 9095.083
337.7124, 9142.883
338.1945, 9187.074
338.6766, 9198.925
339.1587, 9180.987
339.6408, 9155.190
340.1230, 9134.984
340.6051, 9119.468
341.0872, 9103.498
341.5693, 9085.363
342.0514, 9068.941
342.5335, 9056.004
343.0157, 9046.261
343.4978, 9039.279
343.9799, 9035.231
344.4620, 9033.608
344.9441, 9032.928
345.4262, 9032.479
345.9084, 9034.979
346.3905, 9048.461
346.8726, 9065.332
347.3547, 9072.201
347.8368, 9059.947
348.3189, 9041.439
348.8011, 9030.875
349.2832, 9028.373
349.7653, 9027.698
350.2474, 9025.768
350.7295, 9024.040
351.2116, 9025.666
351.6938, 9034.228
352.1759, 9040.371
352.6580, 9039.495
353.1401, 9031.468
353.6222, 9012.876
354.1043, 8976.233
354.5865, 8936.746
355.0686, 8924.170
355.5507, 8945.763
356.0328, 8963.950
356.5149, 8958.429
356.9970, 8942.094
357.4792, 8939.688
357.9613, 8959.249
358.4434, 8984.345
358.9255, 8993.177
359.4076, 8983.410
359.8897, 8970.743
360.3719, 8953.477
360.8540, 8935.888
361.3361, 8921.949
361.8182, 8912.122
362.3003, 8905.752
362.7824, 8904.254
363.2646, 8908.917
363.7467, 8899.197
364.2288, 8858.934
364.7109, 8820.500
365.1930, 8805.123
365.6751, 8807.603
366.1573, 8807.261
366.6394, 8788.508
367.1215, 8755.259
367.6036, 8743.547
368.0857, 8781.826
368.5678, 8807.428
369.0500, 8790.688
369.5321, 8756.848
370.0142, 8747.392
370.4963, 8781.762
370.9784, 8838.449
371.4605, 8861.456
371.9427, 8819.896
372.4248, 8788.174
372.9069, 8775.590
373.3890, 8769.721
373.8711, 8757.375
374.3532, 8736.578
374.8354, 8719.280
375.3175, 8725.135
375.7996, 8766.479
376.2817, 8792.432
376.7638, 8796.947
377.2459, 8791.690
377.7281, 8775.361
378.2102, 8752.438
378.6923, 8734.298
379.1744, 8731.081
379.6566, 8742.313
380.1387, 8758.824
380.6208, 8796.556
381.1029, 8817.773
381.5850, 8797.654
382.0671, 8754.428
382.5493, 8720.702
383.0314, 8717.067
383.5135, 8727.862
383.9956, 8713.554
384.4777, 8660.973
384.9598, 8624.232
385.4420, 8637.962
385.9241, 8672.759
386.4062, 8704.698
386.8883, 8731.055
387.3704, 8745.122
387.8525, 8734.818
388.3347, 8701.677
388.8168, 8671.197
389.2989, 8647.289
389.7810, 8632.602
390.2631, 8632.368
390.7452, 8647.765
391.2274, 8658.541
391.7095, 8646.912
392.1916, 8625.546
392.6737, 8621.693
393.1558, 8642.161
393.6379, 8668.778
394.1201, 8687.108
394.6022, 8696.965
395.0843, 8696.192
395.5664, 8670.596
396.0485, 8644.079
396.5306, 8642.876
397.0128, 8663.560
397.4949, 8673.634
397.9770, 8645.470
398.4591, 8589.408
398.9412, 8576.813
399.4233, 8646.740
399.9055, 8707.866
400.3876, 8726.288
400.8697, 8718.215
401.3518, 8712.720
401.8339, 8721.991
402.3160, 8735.529
402.7982, 8730.815
403.2803, 8684.317
403.7624, 8655.282
404.2445, 8652.822
404.7266, 8661.116
405.2087, 8672.303
405.6909, 8682.857
406.1730, 8687.399
406.6551, 8677.638
407.1372, 8649.271
407.6193, 8634.067
408.1014, 8642.474
408.5836, 8653.984
409.0657, 8663.215
409.5478, 8670.058
410.0299, 8676.461
410.5120, 8684.731
410.9941, 8692.374
411.4763, 8687.940
411.9584, 8661.665
412.4405, 8641.821
412.9226, 8638.497
413.4047, 8643.633
413.8868, 8650.502
414.3690, 8657.469
414.8511, 8662.676
415.3332, 8662.118
415.8153, 8655.418
416.2974, 8602.548
416.7795, 8661.879
417.2617, 8696.261
417.7438, 8707.032
418.2259, 8623.483
418.7080, 8661.730
419.1901, 8651.167
419.6722, 8638.602
420.1544, 8693.991
420.6365, 8624.161
421.1186, 8678.473
421.6007, 8683.229
422.0828, 8710.665
422.5649, 8688.990
423.0471, 8682.484
423.5292, 8725.105
424.0113, 8740.524
424.4934, 8713.195
424.9755, 8742.074
425.4576, 8670.527
425.9398, 8687.105
426.4219, 8741.705
426.9040, 8716.845
427.3861, 8697.504
427.8682, 8718.813
428.3503, 8744.461
428.8325, 8740.024
429.3146, 8699.477
429.7967, 8654.002
430.2788, 8645.202
430.7609, 8686.646
431.2430, 8716.410
431.7252, 8721.004
432.2073, 8728.870
432.6894, 8759.668
433.1715, 8805.782
433.6536, 8846.206
434.1357, 8866.035
434.6179, 8868.066
435.1000, 8867.195
435.5821, 8863.623
436.0642, 8856.295
436.5463, 8831.568
437.0284, 8809.808
437.5106, 8817.047
437.9927, 8862.336
438.4748, 8917.216
438.9569, 8940.951
439.4390, 8930.842
439.9211, 8932.403
440.4033, 8958.009
440.8854, 8993.117
441.3675, 9030.301
441.8496, 9068.159
442.3317, 9099.850
442.8138, 9121.304
443.2960, 9134.468
443.7781, 9138.098
444.2602, 9129.122
444.7423, 9132.498
445.2244, 9172.285
445.7065, 9237.497
446.1887, 9288.174
446.6708, 9313.747
447.1529, 9333.871
447.6350, 9361.419
448.1171, 9391.789
448.5992, 9411.783
449.0814, 9414.896
449.5635, 9411.541
450.0456, 9421.584
450.5277, 9458.271
451.0098, 9479.451
451.4919, 9403.695
451.9741, 9477.644
452.4562, 9525.226
452.9383, 9547.782
453.4204, 9474.604
453.9025, 9521.808
454.3846, 9518.786
454.8668, 9512.351
455.3489, 9572.453
455.8310, 9505.922
456.3131, 9562.118
456.7952, 9567.345
457.2773, 9593.837
457.7595, 9569.803
458.2416, 9559.523
458.7237, 9596.957
459.2058, 9605.774
459.6879, 9528.420
460.1700, 9527.625
460.6522, 9539.020
461.1343, 9547.669
461.6164, 9553.239
462.0985, 9563.542
462.5807, 9593.514
463.0628, 9631.590
463.5449, 9645.325
464.0270, 9630.947
464.5091, 9600.305
464.9912, 9548.189
465.4734, 9486.336
465.9555, 9444.357
466.4376, 9435.400
466.9197, 9435.315
467.4018, 9430.555
467.8839, 9422.623
468.3661, 9413.681
468.8482, 9402.942
469.3303, 9397.587
469.8124, 9411.910
470.2945, 9459.296
470.7766, 9492.004
471.2588, 9508.463
471.7409, 9509.564
472.2230, 9485.995
472.7051, 9444.441
473.1872, 9409.306
473.6693, 9400.560
474.1515, 9416.016
474.6336, 9429.387
475.1157, 9429.672
475.5978, 9441.977
476.0799, 9479.586
476.5620, 9526.858
477.0442, 9568.372
477.5263, 9598.807
478.0084, 9620.536
478.4905, 9631.389
478.9726, 9628.450
479.4547, 9643.833
479.9369, 9688.293
480.4190, 9745.465
480.9011, 9811.279
481.3832, 9881.324
481.8653, 9940.925
482.3474, 9977.531
482.8296, 10001.99
483.3117, 10026.56
483.7938, 10050.90
484.2759, 10089.51
484.7580, 10156.02
485.2401, 10238.33
485.7223, 10305.80
486.2044, 10354.69
486.6865, 10397.01
487.1686, 10437.91
487.6507, 10474.27
488.1328, 10497.88
488.6150, 10507.63
489.0971, 10516.83
489.5792, 10539.95
490.0613, 10578.44
490.5434, 10619.86
491.0255, 10671.81
491.5077, 10717.92
491.9898, 10746.82
492.4719, 10766.22
492.9540, 10790.26
493.4361, 10825.99
493.9182, 10867.96
494.4004, 10905.92
494.8825, 10942.76
495.3646, 10967.58
495.8467, 10974.94
496.3288, 10972.57
496.8109, 10957.36
497.2931, 10933.14
497.7752, 10918.42
498.2573, 10939.66
498.7394, 10978.91
499.2215, 10981.39
499.7036, 10937.97
500.1858, 10896.94
500.6679, 10894.58
501.1500, 10911.19
501.6321, 10900.73
502.1142, 10845.71
502.5963, 10789.25
503.0785, 10767.78
503.5606, 10756.49
504.0427, 10699.83
504.5248, 10581.95
505.0069, 10450.28
505.4890, 10364.50
505.9712, 10341.05
506.4533, 10281.81
506.9354, 10147.41
507.4175, 10020.69
507.8996, 9949.525
508.3817, 9913.446
508.8639, 9868.175
509.3460, 9789.928
509.8281, 9691.101
510.3102, 9600.601
510.7923, 9519.946
511.2744, 9445.194
511.7566, 9378.270
512.2387, 9315.440
512.7208, 9255.551
513.2029, 9197.870
513.6851, 9139.972
514.1672, 9073.350
514.6493, 9006.021
515.1314, 8960.400
515.6135, 8939.476
516.0956, 8927.715
516.5778, 8929.233
517.0599, 8929.174
517.5420, 8892.851
518.0241, 8793.057
518.5062, 8706.813
518.9883, 8683.019
519.4705, 8689.304
519.9526, 8672.862
520.4347, 8622.153
520.9168, 8560.182
521.3989, 8510.106
521.8810, 8472.022
522.3632, 8444.735
522.8453, 8437.898
523.3274, 8429.652
523.8095, 8408.081
524.2916, 8381.436
524.7737, 8363.573
525.2559, 8360.653
525.7380, 8365.631
526.2201, 8367.932
526.7022, 8368.420
527.1843, 8361.563
527.6664, 8340.147
528.1486, 8317.169
528.6307, 8302.934
529.1128, 8294.389
529.5949, 8279.038
530.0770, 8239.819
530.5591, 8196.803
531.0413, 8185.864
531.5234, 8205.443
532.0055, 8213.540
532.4876, 8187.582
532.9697, 8143.923
533.4518, 8118.148
533.9340, 8116.989
534.4161, 8110.639
534.8982, 8078.039
535.3803, 8048.038
535.8624, 8061.282
536.3445, 8111.170
536.8267, 8143.425
537.3088, 8111.621
537.7909, 8026.270
538.2730, 7976.422
538.7551, 7983.776
539.2372, 7998.588
539.7194, 8025.359
540.2015, 8048.723
540.6836, 8051.092
541.1657, 8030.041
541.6478, 8003.799
542.1299, 7989.770
542.6121, 7986.226
543.0942, 7981.841
543.5763, 7976.089
544.0584, 7969.277
544.5405, 7962.729
545.0226, 7955.010
545.5048, 7942.160
545.9869, 7916.204
546.4690, 7896.180
546.9511, 7899.359
547.4332, 7915.492
547.9153, 7923.151
548.3975, 7916.589
548.8796, 7904.392
549.3617, 7896.341
549.8438, 7893.372
550.3259, 7889.345
550.8080, 7885.984
551.2902, 7879.965
551.7723, 7864.334
552.2544, 7846.741
552.7365, 7842.305
553.2186, 7857.857
553.7007, 7876.601
554.1829, 7866.309
554.6650, 7820.744
555.1471, 7791.862
555.6292, 7793.153
556.1113, 7803.873
556.5934, 7809.771
557.0756, 7813.080
557.5577, 7821.714
558.0398, 7843.472
558.5219, 7867.694
559.0040, 7889.550
559.4861, 7906.349
559.9683, 7900.203
560.4504, 7859.768
560.9325, 7807.620
561.4146, 7781.719
561.8967, 7795.049
562.3788, 7799.548
562.8610, 7777.691
563.3431, 7762.098
563.8252, 7782.131
564.3073, 7824.968
564.7894, 7857.714
565.2715, 7861.381
565.7537, 7843.202
566.2358, 7815.728
566.7179, 7767.801
567.2000, 7744.756
567.6821, 7778.365
568.1642, 7819.856
568.6464, 7842.987
569.1285, 7847.310
569.6106, 7841.394
570.0927, 7821.861
570.5748, 7798.727
571.0569, 7782.186
571.5391, 7772.943
572.0212, 7784.636
572.5033, 7830.744
572.9854, 7890.515
573.4675, 7921.089
573.9496, 7912.761
574.4318, 7904.073
574.9139, 7896.375
575.3960, 7891.315
575.8781, 7886.987
576.3602, 7885.982
576.8423, 7897.930
577.3245, 7931.429
577.8066, 7975.839
578.2887, 7993.980
578.7708, 7970.951
579.2529, 7958.436
579.7350, 7973.290
580.2172, 7996.070
580.6993, 8015.480
581.1814, 8031.048
581.6635, 8047.456
582.1456, 8065.468
582.6277, 8086.660
583.1099, 8118.408
583.5920, 8159.666
584.0741, 8187.503
584.5562, 8186.485
585.0383, 8172.133
585.5204, 8179.456
586.0026, 8221.160
586.4847, 8252.526
586.9668, 8259.609
587.4489, 8263.250
587.9310, 8276.078
588.4131, 8299.210
588.8953, 8332.430
589.3774, 8378.043
589.8595, 8427.313
590.3416, 8448.095
590.8237, 8420.795
591.3058, 8422.869
591.7880, 8505.944
592.2701, 8594.438
592.7522, 8634.939
593.2343, 8630.559
593.7164, 8621.113
594.1985, 8622.794
594.6807, 8631.156
595.1628, 8640.454
595.6449, 8651.011
596.1270, 8666.501
596.6091, 8689.612
597.0912, 8715.633
597.5734, 8735.434
598.0555, 8747.087
598.5376, 8755.908
599.0197, 8760.998
599.5018, 8764.030
599.9839, 8775.984
600.4661, 8786.194
600.9482, 8766.161
601.4303, 8696.607
601.9124, 8607.455
602.3945, 8565.052
602.8766, 8580.111
603.3588, 8574.599
603.8409, 8521.968
604.3230, 8460.662
604.8051, 8420.118
605.2872, 8396.990
605.7693, 8376.405
606.2515, 8353.321
606.7336, 8331.615
607.2157, 8318.285
607.6978, 8309.085
608.1799, 8290.322
608.6620, 8256.617
609.1442, 8218.530
609.6263, 8193.001
610.1084, 8187.896
610.5905, 8161.590
611.0726, 8087.705
611.5547, 8022.883
612.0369, 7994.266
612.5190, 7985.358
613.0011, 7968.385
613.4832, 7932.227
613.9653, 7894.580
614.4474, 7881.714
614.9296, 7889.879
615.4117, 7885.233
615.8938, 7860.279
616.3759, 7831.269
616.8580, 7808.923
617.3401, 7792.524
617.8223, 7778.520
618.3044, 7773.210
618.7865, 7762.600
619.2686, 7729.149
619.7507, 7692.800
620.2328, 7687.711
620.7150, 7716.351
621.1971, 7743.538
621.6792, 7734.295
622.1613, 7690.863
622.6434, 7647.446
623.1255, 7594.846
623.6077, 7558.746
624.0898, 7550.415
624.5719, 7557.299
625.0540, 7570.339
625.5361, 7588.022
626.0182, 7606.101
626.5004, 7623.688
626.9825, 7639.364
627.4646, 7652.763
627.9467, 7663.434
628.4288, 7662.797
628.9109, 7644.052
629.3931, 7614.222
629.8752, 7591.451
630.3573, 7577.985
630.8394, 7568.295
631.3215, 7562.043
631.8036, 7559.722
632.2858, 7565.947
632.7679, 7576.385
633.2500, 7580.753
633.7321, 7573.083
634.2142, 7556.549
634.6964, 7535.290
635.1785, 7508.918
635.6606, 7485.330
636.1427, 7465.389
636.6248, 7449.959
637.1069, 7438.220
637.5891, 7430.765
638.0712, 7434.033
638.5533, 7458.379
639.0354, 7484.078
639.5175, 7502.736
639.9996, 7514.834
640.4818, 7520.319
640.9639, 7519.631
641.4460, 7516.771
641.9281, 7516.982
642.4102, 7520.545
642.8923, 7518.723
643.3745, 7507.585
643.8566, 7496.689
644.3387, 7493.090
644.8208, 7489.109
645.3029, 7471.177
645.7850, 7435.215
646.2672, 7410.903
646.7493, 7427.927
647.2314, 7464.462
647.7135, 7489.221
648.1956, 7499.044
648.6777, 7485.648
649.1599, 7437.935
649.6420, 7374.338
650.1241, 7348.219
650.6062, 7398.764
651.0883, 7422.840
651.5704, 7400.898
652.0526, 7371.473
652.5347, 7357.896
653.0168, 7356.100
653.4989, 7348.928
653.9810, 7325.169
654.4631, 7298.361
654.9453, 7288.809
655.4274, 7295.632
655.9095, 7310.967
656.3916, 7338.704
656.8737, 7359.634
657.3558, 7351.159
657.8380, 7314.742
658.3201, 7294.143
658.8022, 7302.389
659.2843, 7311.045
659.7664, 7312.565
660.2485, 7308.259
660.7307, 7294.066
661.2128, 7272.594
661.6949, 7262.158
662.1770, 7287.635
662.6591, 7338.866
663.1412, 7350.068
663.6234, 7307.408
664.1055, 7268.835
664.5876, 7256.331
665.0697, 7256.043
665.5518, 7250.857
666.0339, 7240.034
666.5161, 7233.115
666.9982, 7235.606
667.4803, 7240.958
667.9625, 7245.130
668.4446, 7247.621
668.9267, 7249.945
669.4088, 7252.876
669.8909, 7249.860
670.3730, 7226.574
670.8552, 7176.058
671.3373, 7141.104
671.8194, 7121.948
672.3015, 7119.690
672.7836, 7152.621
673.2657, 7194.841
673.7479, 7204.648
674.2300, 7166.256
674.7121, 7124.191
675.1942, 7102.130
675.6763, 7096.111
676.1584, 7105.500
676.6406, 7127.690
677.1227, 7145.366
677.6048, 7147.309
678.0869, 7136.901
678.5690, 7124.646
679.0511, 7106.825
679.5333, 7094.043
680.0154, 7092.858
680.4975, 7090.731
680.9796, 7076.332
681.4617, 7055.487
681.9438, 7044.592
682.4260, 7054.338
682.9081, 7069.013
683.3902, 7076.545
683.8723, 7075.397
684.3544, 7055.684
684.8365, 7013.883
685.3187, 6973.712
685.8008, 6956.740
686.2829, 6960.814
686.7650, 6960.258
687.2471, 6940.541
687.7292, 6935.308
688.2114, 6971.181
688.6935, 7005.902
689.1756, 6997.232
689.6577, 6949.790
690.1398, 6906.127
690.6219, 6893.249
691.1041, 6900.903
691.5862, 6919.022
692.0683, 6945.835
692.5504, 6957.392
693.0325, 6943.711
693.5146, 6923.273
693.9968, 6917.951
694.4789, 6929.886
694.9610, 6930.814
695.4431, 6905.505
695.9252, 6888.524
696.4073, 6903.529
696.8895, 6924.431
697.3716, 6918.359
697.8537, 6881.700
698.3358, 6840.925
698.8179, 6812.084
699.3000, 6797.818
699.7822, 6816.550
700.2643, 6870.714
700.7464, 6900.843
701.2285, 6876.999
701.7106, 6833.315
702.1927, 6819.923
702.6749, 6845.059
703.1570, 6862.047
703.6391, 6871.924
704.1212, 6872.112
704.6033, 6851.079
705.0854, 6823.933
705.5676, 6814.463
706.0497, 6828.180
706.5318, 6845.429
707.0139, 6842.584
707.4960, 6825.633
707.9781, 6823.391
708.4603, 6838.798
708.9424, 6848.617
709.4245, 6841.111
709.9066, 6823.963
710.3887, 6809.926
710.8708, 6798.834
711.3530, 6790.932
711.8351, 6789.772
712.3172, 6788.070
712.7993, 6781.358
713.2814, 6771.527
713.7635, 6760.758
714.2457, 6749.934
714.7278, 6742.758
715.2099, 6745.632
715.6920, 6756.438
716.1741, 6763.852
716.6563, 6767.474
717.1384, 6767.577
717.6205, 6763.555
718.1026, 6756.712
718.5847, 6748.737
719.0668, 6737.308
719.5490, 6732.130
720.0311, 6739.993
720.5132, 6748.466
720.9953, 6749.577
721.4774, 6746.357
721.9595, 6744.313
722.4417, 6745.546
722.9238, 6750.470
723.4059, 6765.104
723.8880, 6785.283
724.3701, 6783.502
724.8522, 6753.779
725.3344, 6735.334
725.8165, 6757.479
726.2986, 6796.058
726.7807, 6795.326
727.2628, 6737.085
727.7449, 6687.638
728.2271, 6644.259
728.7092, 6616.104
729.1913, 6615.201
729.6734, 6631.215
730.1555, 6647.169
730.6376, 6656.781
731.1198, 6663.454
731.6019, 6672.472
732.0840, 6681.813
732.5661, 6679.294
733.0482, 6662.400
733.5303, 6659.967
734.0125, 6696.412
734.4946, 6745.093
734.9767, 6744.789
735.4588, 6656.508
735.9409, 6609.255
736.4230, 6643.841
736.9052, 6676.404
737.3873, 6654.985
737.8694, 6608.104
738.3515, 6588.215
738.8336, 6613.197
739.3157, 6647.852
739.7979, 6662.717
740.2800, 6661.436
740.7621, 6650.219
741.2442, 6629.850
741.7263, 6610.500
742.2084, 6596.529
742.6906, 6588.058
743.1727, 6586.084
743.6548, 6594.825
744.1369, 6597.720
744.6190, 6589.861
745.1011, 6581.952
745.5833, 6573.259
746.0654, 6568.805
746.5475, 6579.118
747.0296, 6607.393
747.5117, 6630.531
747.9938, 6627.003
748.4760, 6610.057
748.9581, 6600.021
749.4402, 6597.159
749.9223, 6594.601
750.4044, 6588.915
750.8865, 6585.635
751.3687, 6597.548
751.8508, 6633.258
752.3329, 6635.030
752.8150, 6565.917
753.2971, 6511.354
753.7792, 6507.957
754.2614, 6526.299
754.7435, 6533.484
755.2256, 6524.625
755.7077, 6514.772
756.1898, 6513.708
756.6719, 6513.024
757.1541, 6497.345
757.6362, 6475.115
758.1183, 6474.217
758.6004, 6503.762
759.0825, 6538.900
759.5646, 6548.137
760.0468, 6531.959
760.5289, 6518.748
761.0110, 6509.141
761.4931, 6501.031
761.9752, 6492.675
762.4573, 6486.376
762.9395, 6484.796
763.4216, 6487.961
763.9037, 6492.828
764.3858, 6501.701
764.8679, 6508.923
765.3500, 6510.829
765.8322, 6509.111
766.3143, 6506.611
766.7964, 6503.808
767.2785, 6498.645
767.7606, 6487.845
768.2427, 6474.120
768.7249, 6468.370
769.2070, 6471.727
769.6891, 6468.126
770.1712, 6449.078
770.6533, 6430.205
771.1354, 6428.933
771.6176, 6445.186
772.0997, 6456.179
772.5818, 6461.270
773.0639, 6462.497
773.5460, 6460.361
774.0281, 6454.638
774.5103, 6441.080
774.9924, 6422.947
775.4745, 6412.644
775.9566, 6420.679
776.4387, 6434.137
776.9208, 6436.470
777.4030, 6429.351
777.8851, 6416.099
778.3672, 6396.864
778.8493, 6384.812
779.3314, 6391.985
779.8135, 6412.804
780.2957, 6421.298
780.7778, 6407.050
781.2599, 6400.304
781.7420, 6414.280
782.2241, 6424.709
782.7062, 6412.893
783.1884, 6389.083
783.6705, 6377.893
784.1526, 6390.621
784.6347, 6402.236
785.1168, 6393.232
785.5989, 6376.762
786.0811, 6371.078
786.5632, 6374.986
787.0453, 6375.124
787.5274, 6364.214
788.0095, 6350.974
788.4916, 6354.703
788.9738, 6377.761
789.4559, 6381.730
789.9380, 6358.576
790.4201, 6333.020
790.9022, 6310.400
791.3843, 6296.230
791.8665, 6303.509
792.3486, 6339.066
792.8307, 6361.757
793.3128, 6353.914
793.7949, 6344.014
794.2770, 6346.446
794.7592, 6357.160
795.2413, 6373.300
795.7234, 6392.190
796.2055, 6400.933
796.6876, 6380.817
797.1697, 6345.085
797.6519, 6321.632
798.1340, 6310.162
798.6161, 6307.720
799.0982, 6313.800
799.5803, 6326.873
800.0624, 6348.765
800.5446, 6378.990
801.0267, 6384.745
801.5088, 6337.993
801.9909, 6309.895
802.4730, 6324.591
802.9551, 6348.686
803.4373, 6359.846
803.9194, 6358.294
804.4015, 6352.526
804.8836, 6342.217
805.3657, 6333.098
805.8478, 6332.398
806.3300, 6333.480
806.8121, 6321.481
807.2942, 6299.357
807.7763, 6291.364
808.2584, 6315.131
808.7405, 6351.313
809.2227, 6356.734
809.7048, 6330.436
810.1869, 6308.982
810.6690, 6294.868
811.1511, 6288.868
811.6332, 6295.366
812.1154, 6308.256
812.5975, 6312.348
813.0796, 6304.941
813.5617, 6296.241
814.0438, 6281.312
814.5259, 6270.963
815.0081, 6275.004
815.4902, 6284.975
815.9723, 6288.931
816.4544, 6283.816
816.9365, 6273.045
817.4186, 6249.305
817.9008, 6227.362
818.3829, 6238.627
818.8650, 6272.929
819.3471, 6284.566
819.8292, 6259.063
820.3113, 6231.944
820.7935, 6245.956
821.2756, 6294.851
821.7577, 6308.501
822.2398, 6271.639
822.7219, 6242.937
823.2040, 6240.231
823.6862, 6244.254
824.1683, 6235.418
824.6504, 6218.185
825.1325, 6213.114
825.6146, 6238.976
826.0967, 6255.053
826.5789, 6240.977
827.0610, 6219.217
827.5431, 6210.158
828.0252, 6211.532
828.5073, 6209.142
828.9894, 6195.290
829.4716, 6181.871
829.9537, 6181.710
830.4358, 6193.274
830.9180, 6218.558
831.4001, 6256.042
831.8822, 6279.641
832.3643, 6276.147
832.8464, 6254.080
833.3286, 6224.618
833.8107, 6182.373
834.2928, 6168.080
834.7749, 6203.620
835.2570, 6231.825
835.7391, 6233.858
836.2213, 6219.400
836.7034, 6186.663
837.1855, 6137.061
837.6676, 6115.987
838.1497, 6165.484
838.6318, 6210.308
839.1140, 6203.704
839.5961, 6176.884
840.0782, 6165.113
840.5603, 6174.133
841.0424, 6198.433
841.5245, 6242.207
842.0067, 6281.375
842.4888, 6263.289
842.9709, 6204.689
843.4530, 6190.481
843.9351, 6233.455
844.4172, 6271.226
844.8994, 6262.709
845.3815, 6225.406
845.8636, 6203.948
846.3457, 6204.564
846.8278, 6202.423
847.3099, 6197.101
847.7921, 6189.481
848.2742, 6175.910
848.7563, 6162.269
849.2384, 6158.356
849.7205, 6166.263
850.2026, 6167.842
850.6848, 6147.600
851.1669, 6131.091
851.6490, 6139.543
852.1311, 6157.754
852.6132, 6164.301
853.0953, 6155.771
853.5775, 6141.269
854.0596, 6122.887
854.5417, 6108.500
855.0238, 6116.050
855.5059, 6139.644
855.9880, 6156.538
856.4702, 6162.505
856.9523, 6152.787
857.4344, 6120.409
857.9165, 6076.941
858.3986, 6056.814
858.8807, 6063.640
859.3629, 6082.937
859.8450, 6125.971
860.3271, 6163.188
860.8092, 6180.687
861.2913, 6182.651
861.7734, 6175.202
862.2556, 6158.231
862.7377, 6132.961
863.2198, 6075.590
863.7019, 6036.423
864.1840, 6058.430
864.6661, 6104.458
865.1483, 6126.722
865.6304, 6117.784
866.1125, 6100.592
866.5946, 6086.525
867.0767, 6076.093
867.5588, 6068.969
868.0410, 6066.201
868.5231, 6074.599
869.0052, 6093.528
869.4873, 6105.642
869.9694, 6097.733
870.4515, 6077.963
870.9337, 6064.759
871.4158, 6057.843
871.8979, 6062.027
872.3800, 6082.741
872.8621, 6101.471
873.3442, 6111.734
873.8264, 6112.052
874.3085, 6097.612
874.7906, 6062.458
875.2727, 6034.152
875.7548, 6013.241
876.2369, 5998.466
876.7191, 5991.134
877.2012, 5988.418
877.6833, 5988.415
878.1654, 5990.377
878.6475, 5992.304
879.1296, 5993.335
879.6118, 5993.974
880.0939, 5991.531
880.5760, 5990.508
881.0581, 6000.971
881.5402, 6020.617
882.0223, 6035.917
882.5045, 6039.301
882.9866, 6033.791
883.4687, 6021.343
883.9508, 6003.604
884.4329, 5989.658
884.9150, 5980.201
885.3972, 5971.325
885.8793, 5959.816
886.3614, 5953.962
886.8435, 5969.798
887.3256, 6010.784
887.8077, 6022.153
888.2899, 5982.603
888.7720, 5952.395
889.2541, 5954.698
889.7362, 5963.237
890.2183, 5952.711
890.7004, 5928.712
891.1826, 5919.238
891.6647, 5937.618
892.1468, 5956.087
892.6289, 5968.546
893.1110, 5976.721
893.5931, 5982.626
894.0753, 5985.164
894.5574, 5981.356
895.0395, 5970.023
895.5216, 5955.045
896.0037, 5932.659
896.4858, 5912.922
896.9680, 5916.210
897.4501, 5934.970
897.9322, 5943.462
898.4143, 5934.657
898.8964, 5922.037
899.3785, 5918.841
899.8607, 5921.934
900.3428, 5919.014
900.8249, 5909.645
901.3070, 5908.272
901.7891, 5919.713
902.2712, 5929.949
902.7534, 5929.871
903.2355, 5920.891
903.7176, 5905.173
904.1997, 5870.669
904.6818, 5860.212
905.1639, 5904.758
905.6461, 5934.726
906.1282, 5911.541
906.6103, 5869.939
907.0924, 5851.674
907.5745, 5859.729
908.0566, 5865.514
908.5388, 5860.918
909.0209, 5854.573
909.5030, 5847.028
909.9851, 5842.094
910.4672, 5846.206
910.9493, 5856.937
911.4315, 5864.865
911.9136, 5865.896
912.3957, 5861.338
912.8778, 5848.708
913.3599, 5833.073
913.8420, 5819.522
914.3242, 5810.811
914.8063, 5818.410
915.2884, 5846.424
915.7705, 5875.200
916.2526, 5877.601
916.7347, 5860.518
917.2169, 5861.642
917.6990, 5881.563
918.1811, 5900.285
918.6632, 5914.725
919.1453, 5918.205
919.6274, 5902.150
920.1096, 5872.345
920.5917, 5854.533
921.0738, 5852.998
921.5559, 5852.605
922.0380, 5851.401
922.5201, 5853.142
923.0023, 5865.572
923.4844, 5879.378
923.9665, 5880.151
924.4486, 5866.150
924.9307, 5849.431
925.4128, 5823.178
925.8950, 5804.934
926.3771, 5804.783
926.8592, 5813.619
927.3413, 5827.198
927.8234, 5841.376
928.3055, 5844.593
928.7877, 5825.876
929.2698, 5808.681
929.7519, 5813.242
930.2340, 5826.409
930.7161, 5837.099
931.1982, 5841.497
931.6804, 5831.271
932.1625, 5803.830
932.6446, 5775.696
933.1267, 5765.425
933.6088, 5767.156
934.0909, 5766.007
934.5731, 5763.002
935.0552, 5766.745
935.5373, 5779.200
936.0194, 5785.598
936.5015, 5771.808
936.9836, 5747.734
937.4658, 5744.943
937.9479, 5766.632
938.4300, 5782.474
938.9121, 5789.144
939.3942, 5794.210
939.8763, 5801.691
940.3585, 5809.395
940.8406, 5815.070
941.3227, 5820.119
941.8048, 5812.270
942.2869, 5773.011
942.7690, 5747.993
943.2512, 5755.834
943.7333, 5771.501
944.2154, 5780.789
944.6975, 5782.569
945.1796, 5773.800
945.6617, 5742.724
946.1439, 5724.668
946.6260, 5742.285
947.1081, 5761.914
947.5902, 5759.934
948.0723, 5746.251
948.5544, 5739.355
949.0366, 5742.644
949.5187, 5743.356
950.0008, 5723.071
950.4829, 5708.128
950.9650, 5735.251
951.4471, 5776.042
951.9293, 5784.132
952.4114, 5759.324
952.8935, 5730.916
953.3756, 5714.200
953.8577, 5705.285
954.3398, 5699.708
954.8220, 5697.934
955.3041, 5701.635
955.7862, 5710.527
956.2683, 5726.487
956.7504, 5749.997
957.2325, 5762.753
957.7147, 5741.245
958.1968, 5697.841
958.6789, 5686.775
959.1610, 5710.312
959.6431, 5716.996
960.1252, 5694.856
960.6074, 5678.480
961.0895, 5692.517
961.5716, 5719.369
962.0537, 5719.725
962.5358, 5684.980
963.0179, 5670.659
963.5001, 5683.867
963.9822, 5704.232
964.4643, 5735.971
964.9464, 5762.375
965.4285, 5764.236
965.9106, 5744.257
966.3928, 5726.958
966.8749, 5713.204
967.3570, 5700.887
967.8391, 5686.045
968.3212, 5676.734
968.8033, 5679.627
969.2855, 5689.590
969.7676, 5699.170
970.2497, 5707.282
970.7318, 5715.324
971.2139, 5731.758
971.6960, 5738.742
972.1782, 5714.195
972.6603, 5684.789
973.1424, 5683.099
973.6245, 5703.840
974.1066, 5717.864
974.5887, 5711.128
975.0709, 5705.101
975.5530, 5719.057
976.0351, 5740.039
976.5172, 5754.000
976.9993, 5762.365
977.4814, 5770.195
977.9636, 5778.875
978.4457, 5787.538
978.9278, 5797.404
979.4099, 5803.701
979.8920, 5792.930
980.3741, 5773.399
980.8563, 5771.583
981.3384, 5787.472
981.8205, 5798.455
982.3026, 5793.247
982.7847, 5782.327
983.2668, 5780.555
983.7490, 5785.923
984.2311, 5788.042
984.7132, 5786.903
985.1953, 5779.687
985.6774, 5764.172
986.1595, 5760.462
986.6417, 5788.103
987.1238, 5831.829
987.6059, 5845.234
988.0880, 5823.014
988.5701, 5805.935
989.0522, 5792.830
989.5344, 5794.360
990.0165, 5819.865
990.4986, 5852.736
990.9807, 5872.947
991.4628, 5881.138
991.9449, 5889.626
992.4271, 5901.288
992.9092, 5906.937
993.3913, 5898.527
993.8734, 5893.227
994.3555, 5901.694
994.8376, 5919.518
995.3198, 5940.620
995.8019, 5968.795
996.2841, 5982.256
996.7662, 5950.027
997.2483, 5942.436
997.7304, 6001.035
998.2125, 6071.539
998.6946, 6112.013
999.1768, 6125.829
999.6589, 6131.551
1000.141, 6123.458
1000.623, 6130.338
1001.105, 6171.507
1001.587, 6217.363
1002.069, 6251.840
1002.552, 6279.846
1003.034, 6300.827
1003.516, 6320.019
1003.998, 6367.182
1004.480, 6476.778
1004.962, 6584.226
1005.444, 6643.077
1005.926, 6690.235
1006.409, 6761.441
1006.891, 6851.971
1007.373, 6942.373
1007.855, 7027.068
1008.337, 7121.977
1008.819, 7246.635
1009.301, 7379.115
1009.783, 7489.460
1010.265, 7595.047
1010.748, 7728.255
1011.230, 7886.315
1011.712, 8035.224
1012.194, 8157.293
1012.676, 8282.626
1013.158, 8442.099
1013.640, 8628.690
1014.122, 8828.311
1014.604, 9044.207
1015.087, 9288.617
1015.569, 9563.730
1016.051, 9860.132
1016.533, 10171.44
1017.015, 10495.81
1017.497, 10828.17
1017.979, 11173.71
1018.461, 11551.03
1018.944, 11958.27
1019.426, 12372.08
1019.908, 12781.59
1020.390, 13199.13
1020.872, 13634.73
1021.354, 14082.40
1021.836, 14533.62
1022.318, 14983.90
1022.800, 15361.72
1023.283, 15659.35
1023.765, 15868.27
1024.247, 15991.19
1024.729, 15985.43
1025.211, 15782.55
1025.693, 15389.19
1026.175, 14881.74
1026.657, 14252.34
1027.140, 13567.82
1027.622, 12822.60
1028.104, 12112.13
1028.586, 11502.54
1029.068, 10964.41
1029.550, 10427.55
1030.032, 9881.734
1030.514, 9428.012
1030.996, 9081.048
1031.479, 8781.976
1031.961, 8521.502
1032.443, 8294.100
1032.925, 8100.640
1033.407, 7936.660
1033.889, 7788.677
1034.371, 7658.739
1034.853, 7541.326
1035.335, 7449.566
1035.818, 7342.810
1036.300, 7192.035
1036.782, 7038.850
1037.264, 6929.612
1037.746, 6860.513
1038.228, 6786.924
1038.710, 6705.542
1039.192, 6626.223
1039.675, 6549.236
1040.157, 6474.017
1040.639, 6399.887
1041.121, 6327.175
1041.603, 6251.023
1042.085, 6170.042
1042.567, 6116.456
1043.049, 6127.946
1043.531, 6111.418
1044.014, 6028.027
1044.496, 5946.331
1044.978, 5906.012
1045.460, 5891.104
1045.942, 5876.138
1046.424, 5861.139
1046.906, 5838.784
1047.388, 5790.854
1047.870, 5759.763
1048.353, 5774.731
1048.835, 5790.846
1049.317, 5763.940
1049.799, 5716.647
1050.281, 5708.542
1050.763, 5759.967
1051.245, 5785.479
1051.727, 5746.311
1052.210, 5710.966
1052.692, 5705.528
1053.174, 5712.125
1053.656, 5718.036
1054.138, 5721.750
1054.620, 5722.312
1055.102, 5717.886
1055.584, 5715.604
1056.067, 5726.311
1056.549, 5728.597
1057.031, 5700.883
1057.513, 5667.891
1057.995, 5657.408
1058.477, 5666.641
1058.959, 5673.834
1059.441, 5673.616
1059.923, 5671.098
1060.406, 5673.654
1060.888, 5667.987
1061.370, 5631.400
1061.852, 5591.514
1062.334, 5587.903
1062.816, 5618.058
1063.298, 5641.658
1063.780, 5647.412
1064.262, 5642.800
1064.745, 5618.169
1065.227, 5597.068
1065.709, 5601.699
1066.191, 5616.966
1066.673, 5618.358
1067.155, 5604.406
1067.637, 5595.835
1068.119, 5603.668
1068.602, 5612.726
1069.084, 5618.423
1069.566, 5620.975
1070.048, 5618.353
1070.530, 5613.720
1071.012, 5611.371
1071.494, 5612.214
1071.976, 5616.415
1072.458, 5620.508
1072.941, 5632.554
1073.423, 5669.743
1073.905, 5704.203
1074.387, 5710.468
1074.869, 5696.998
1075.351, 5676.237
1075.833, 5652.099
1076.315, 5644.837
1076.797, 5676.743
1077.280, 5710.534
1077.762, 5720.129
1078.244, 5729.844
1078.726, 5771.912
1079.208, 5828.260
1079.690, 5854.969
1080.172, 5842.306
1080.655, 5840.240
1081.137, 5890.284
1081.619, 5932.494
1082.101, 5916.136
1082.583, 5894.086
1083.065, 5921.125
1083.547, 5981.938
1084.029, 6034.701
1084.511, 6069.686
1084.994, 6101.406
1085.476, 6132.708
1085.958, 6166.867
1086.440, 6210.282
1086.922, 6253.514
1087.404, 6286.445
1087.886, 6311.807
1088.368, 6337.387
1088.850, 6365.085
1089.333, 6392.684
1089.815, 6421.767
1090.297, 6447.471
1090.779, 6465.798
1091.261, 6480.646
1091.743, 6492.406
1092.225, 6504.435
1092.707, 6525.670
1093.190, 6560.062
1093.672, 6585.720
1094.154, 6595.144
1094.636, 6593.430
1095.118, 6571.280
1095.600, 6548.969
1096.082, 6553.459
1096.564, 6571.360
1097.047, 6563.300
1097.529, 6515.941
1098.011, 6482.819
1098.493, 6496.462
1098.975, 6507.824
1099.457, 6499.579
1099.939, 6477.052
1100.421, 6436.759
1100.903, 6388.502
1101.385, 6352.748
1101.868, 6334.356
1102.350, 6322.068
1102.832, 6317.713
1103.314, 6313.142
1103.796, 6303.074
1104.278, 6293.594
1104.760, 6287.591
1105.242, 6286.608
1105.725, 6296.567
1106.207, 6322.919
1106.689, 6333.871
1107.171, 6308.192
1107.653, 6287.301
1108.135, 6285.145
1108.617, 6290.869
1109.099, 6301.618
1109.582, 6312.581
1110.064, 6314.203
1110.546, 6305.495
1111.028, 6289.083
1111.510, 6259.616
1111.992, 6230.264
1112.474, 6202.231
1112.956, 6177.164
1113.438, 6163.206
1113.921, 6150.887
1114.403, 6115.392
1114.885, 6047.453
1115.367, 6001.622
1115.849, 5999.532
1116.331, 5985.991
1116.813, 5945.934
1117.295, 5899.732
1117.777, 5855.703
1118.260, 5816.083
1118.742, 5785.412
1119.224, 5764.199
1119.706, 5748.815
1120.188, 5749.435
1120.670, 5733.399
1121.152, 5684.485
1121.634, 5637.460
1122.117, 5613.734
1122.599, 5602.326
1123.081, 5584.074
1123.563, 5558.451
1124.045, 5540.643
1124.527, 5533.219
1125.009, 5525.554
1125.491, 5516.769
1125.974, 5504.961
1126.456, 5486.229
1126.938, 5470.141
1127.420, 5473.270
1127.902, 5493.424
1128.384, 5499.559
1128.866, 5491.055
1129.348, 5469.211
1129.830, 5430.293
1130.313, 5400.925
1130.795, 5394.970
1131.277, 5400.645
1131.759, 5405.547
1132.241, 5407.183
1132.723, 5386.393
1133.205, 5343.508
1133.687, 5328.215
1134.169, 5345.720
1134.652, 5371.465
1135.134, 5396.458
1135.616, 5409.207
1136.098, 5393.443
1136.580, 5363.383
1137.062, 5360.490
1137.544, 5379.718
1138.026, 5394.308
1138.509, 5401.976
1138.991, 5402.585
1139.473, 5396.477
1139.955, 5390.543
1140.437, 5391.546
1140.919, 5393.952
1141.401, 5383.317
1141.883, 5368.166
1142.365, 5372.609
1142.848, 5392.695
1143.330, 5413.214
1143.812, 5428.466
1144.294, 5429.092
1144.776, 5404.517
1145.258, 5379.651
1145.740, 5387.324
1146.222, 5410.140
1146.704, 5423.086
1147.187, 5430.359
1147.669, 5447.108
1148.151, 5471.881
1148.633, 5482.989
1149.115, 5464.926
1149.597, 5454.897
1150.079, 5496.346
1150.561, 5543.684
1151.044, 5551.169
1151.526, 5541.195
1152.008, 5543.136
1152.490, 5559.769
1152.972, 5587.919
1153.454, 5631.382
1153.936, 5654.061
1154.418, 5618.214
1154.901, 5583.062
1155.383, 5576.604
1155.865, 5589.378
1156.347, 5624.261
1156.829, 5667.190
1157.311, 5688.147
1157.793, 5680.271
1158.275, 5671.303
1158.757, 5661.837
1159.240, 5659.278
1159.722, 5668.993
1160.204, 5682.535
1160.686, 5696.090
1161.168, 5709.130
1161.650, 5721.101
1162.132, 5731.838
1162.614, 5742.396
1163.096, 5754.052
1163.579, 5762.771
1164.061, 5766.755
1164.543, 5770.310
1165.025, 5776.683
1165.507, 5781.630
1165.989, 5779.253
1166.471, 5770.915
1166.953, 5765.411
1167.436, 5761.921
1167.918, 5766.825
1168.400, 5783.835
1168.882, 5792.628
1169.364, 5784.585
1169.846, 5774.885
1170.328, 5778.702
1170.810, 5787.716
1171.292, 5778.772
1171.775, 5753.085
1172.257, 5726.708
1172.739, 5700.805
1173.221, 5690.315
1173.703, 5698.172
1174.185, 5705.579
1174.667, 5700.474
1175.149, 5688.428
1175.631, 5674.137
1176.114, 5660.779
1176.596, 5657.146
1177.078, 5661.197
1177.560, 5672.507
1178.042, 5686.149
1178.524, 5680.758
1179.006, 5647.515
1179.488, 5615.724
1179.971, 5619.342
1180.453, 5629.340
1180.935, 5608.967
1181.417, 5578.614
1181.899, 5561.846
1182.381, 5559.719
1182.863, 5569.370
1183.345, 5589.063
1183.828, 5611.354
1184.310, 5633.203
1184.792, 5655.640
1185.274, 5681.301
1185.756, 5705.401
1186.238, 5724.888
1186.720, 5740.541
1187.202, 5749.899
1187.684, 5755.653
1188.167, 5772.672
1188.649, 5807.783
1189.131, 5844.700
1189.613, 5885.293
1190.095, 5922.298
1190.577, 5934.734
1191.059, 5961.543
1191.541, 6045.836
1192.023, 6161.972
1192.506, 6242.896
1192.988, 6281.327
1193.470, 6333.966
1193.952, 6409.269
1194.434, 6468.078
1194.916, 6493.688
1195.398, 6538.580
1195.880, 6639.691
1196.363, 6752.371
1196.845, 6808.761
1197.327, 6821.073
1197.809, 6862.931
1198.291, 6931.643
1198.773, 6970.793
1199.255, 6976.680
1199.737, 6982.650
1200.219, 7000.267
1200.702, 7003.651
1201.184, 6969.429
1201.666, 6910.694
1202.148, 6840.732
1202.630, 6766.570
1203.112, 6709.083
1203.594, 6660.139
1204.076, 6598.704
1204.558, 6520.403
1205.041, 6427.535
1205.523, 6318.653
1206.005, 6214.775
1206.487, 6137.483
1206.969, 6065.823
1207.451, 5979.201
1207.933, 5890.943
1208.415, 5813.859
1208.898, 5749.893
1209.380, 5702.230
1209.862, 5672.398
1210.344, 5637.783
1210.826, 5580.321
1211.308, 5534.355
1211.790, 5519.732
1212.272, 5505.906
1212.755, 5474.826
1213.237, 5435.848
1213.719, 5400.776
1214.201, 5368.824
1214.683, 5334.454
1215.165, 5291.973
1215.647, 5263.418
1216.129, 5250.652
1216.611, 5247.685
1217.094, 5254.833
1217.576, 5266.473
1218.058, 5281.516
1218.540, 5289.783
1219.022, 5265.439
1219.504, 5214.211
1219.986, 5187.825
1220.468, 5183.403
1220.950, 5174.204
1221.433, 5156.448
1221.915, 5137.581
1222.397, 5120.805
1222.879, 5100.778
1223.361, 5065.849
1223.843, 5035.422
1224.325, 5045.438
1224.807, 5073.736
1225.290, 5089.894
1225.772, 5093.005
1226.254, 5085.847
1226.736, 5070.625
1227.218, 5051.820
1227.700, 5027.859
1228.182, 5012.789
1228.664, 5020.225
1229.146, 5031.190
1229.629, 5037.306
1230.111, 5039.303
1230.593, 5038.534
1231.075, 5034.630
1231.557, 5025.699
1232.039, 5010.625
1232.521, 4997.135
1233.003, 4980.968
1233.485, 4975.555
1233.968, 4990.559
1234.450, 4999.571
1234.932, 4986.798
1235.414, 4971.104
1235.896, 4976.428
1236.378, 4994.022
1236.860, 4983.910
1237.342, 4945.661
1237.825, 4941.492
1238.307, 4971.785
1238.789, 4980.837
1239.271, 4956.786
1239.753, 4942.987
1240.235, 4967.164
1240.717, 4997.462
1241.199, 4991.738
1241.682, 4966.230
1242.164, 4940.445
1242.646, 4920.182
1243.128, 4920.634
1243.610, 4935.439
1244.092, 4946.493
1244.574, 4948.654
1245.056, 4944.768
1245.538, 4931.347
1246.021, 4921.548
1246.503, 4922.530
1246.985, 4928.293
1247.467, 4937.914
1247.949, 4948.004
1248.431, 4957.323
1248.913, 4964.091
1249.395, 4962.618
1249.878, 4951.975
1250.360, 4935.345
1250.842, 4904.162
1251.324, 4888.415
1251.806, 4899.795
1252.288, 4907.991
1252.770, 4895.878
1253.252, 4878.463
1253.734, 4873.843
1254.217, 4879.863
1254.699, 4892.538
1255.181, 4909.510
1255.663, 4906.674
1256.145, 4887.810
1256.627, 4888.989
1257.109, 4915.412
1257.591, 4934.189
1258.073, 4925.915
1258.556, 4906.271
1259.038, 4883.947
1259.520, 4866.172
1260.002, 4858.853
1260.484, 4862.271
1260.966, 4884.049
1261.448, 4914.020
1261.930, 4930.358
1262.413, 4929.866
1262.895, 4930.906
1263.377, 4946.472
1263.859, 4951.001
1264.341, 4924.433
1264.823, 4905.745
1265.305, 4921.560
1265.787, 4937.496
1266.270, 4920.042
1266.752, 4887.168
1267.234, 4883.539
1267.716, 4910.486
1268.198, 4926.576
1268.680, 4931.457
1269.162, 4929.634
1269.644, 4921.615
1270.126, 4916.110
1270.609, 4916.721
1271.091, 4917.841
1271.573, 4914.341
1272.055, 4908.173
1272.537, 4900.700
1273.019, 4893.948
1273.501, 4891.394
1273.983, 4892.462
1274.465, 4894.691
1274.948, 4899.028
1275.430, 4911.308
1275.912, 4934.177
1276.394, 4953.556
1276.876, 4960.085
1277.358, 4966.074
1277.840, 4980.426
1278.322, 4991.204
1278.805, 4993.401
1279.287, 4985.539
1279.769, 4962.164
1280.251, 4928.117
1280.733, 4905.672
1281.215, 4894.751
1281.697, 4898.104
1282.179, 4919.336
1282.661, 4929.361
1283.144, 4920.193
1283.626, 4929.402
1284.108, 4979.804
1284.590, 5025.512
1285.072, 5003.987
1285.554, 4951.817
1286.036, 4943.555
1286.518, 4959.769
1287.000, 4964.813
1287.483, 4957.472
1287.965, 4934.062
1288.447, 4902.447
1288.929, 4897.770
1289.411, 4940.443
1289.893, 4973.988
1290.375, 4978.919
1290.857, 4956.772
##END=



