##NAMES=Coquimbite
##RRUFFID=R070666
##IDEAL CHEMISTRY=AlFe^3+^_3_(S^6+^O_4_)_6_(H_2_O)_12_&#183;6H_2_O
##LOCALITY=United Verde Mine, Jerome, Verde District, Black Hills (Black Hill Range), Yavapai County, Arizona, USA
##OWNER=RRUFF
##SOURCE=Michael Scott
##DESCRIPTION=Massive, globular, chalky-white; associated with yellow copiapite
##STATUS=The identification of this mineral has been confirmed by X-ray diffraction.
##URL=rruff.info/R070666
158.8235, 4099.399
159.3056, 4078.202
159.7877, 4073.880
160.2698, 4085.170
160.7519, 4095.739
161.2340, 4091.910
161.7162, 4088.303
162.1983, 4099.162
162.6804, 4151.366
163.1625, 4200.991
163.6446, 4220.582
164.1267, 4203.549
164.6089, 4196.614
165.0910, 4233.670
165.5731, 4293.205
166.0552, 4340.588
166.5373, 4345.072
167.0194, 4341.712
167.5016, 4355.563
167.9837, 4393.353
168.4658, 4440.972
168.9479, 4497.194
169.4300, 4557.906
169.9121, 4611.229
170.3943, 4652.258
170.8764, 4681.494
171.3585, 4697.847
171.8406, 4691.624
172.3227, 4683.067
172.8048, 4691.819
173.2870, 4715.813
173.7691, 4739.013
174.2512, 4748.922
174.7333, 4750.618
175.2154, 4752.382
175.6975, 4760.932
176.1797, 4769.342
176.6618, 4767.743
177.1439, 4755.538
177.6260, 4742.241
178.1081, 4737.554
178.5902, 4738.729
179.0724, 4738.384
179.5545, 4724.887
180.0366, 4709.321
180.5187, 4714.342
181.0008, 4745.080
181.4829, 4781.752
181.9651, 4808.307
182.4472, 4823.523
182.9293, 4820.392
183.4114, 4776.180
183.8935, 4709.413
184.3756, 4673.602
184.8578, 4687.118
185.3399, 4718.334
185.8220, 4714.668
186.3041, 4677.160
186.7862, 4630.626
187.2683, 4587.299
187.7504, 4548.879
188.2326, 4521.251
188.7147, 4505.826
189.1968, 4502.475
189.6789, 4513.856
190.1610, 4540.628
190.6431, 4573.911
191.1253, 4606.067
191.6074, 4636.958
192.0895, 4667.355
192.5716, 4696.056
193.0537, 4723.764
193.5358, 4753.375
194.0180, 4784.151
194.5001, 4818.829
194.9822, 4859.164
195.4643, 4905.402
195.9464, 4961.974
196.4285, 5040.800
196.9107, 5139.025
197.3928, 5210.963
197.8749, 5249.847
198.3570, 5272.744
198.8391, 5313.285
199.3212, 5375.213
199.8034, 5428.672
200.2855, 5455.847
200.7676, 5454.946
201.2497, 5451.100
201.7318, 5447.104
202.2139, 5440.031
202.6961, 5418.265
203.1782, 5376.866
203.6603, 5338.226
204.1424, 5320.324
204.6245, 5326.629
205.1066, 5327.499
205.5888, 5312.692
206.0709, 5289.681
206.5530, 5299.475
207.0351, 5351.364
207.5172, 5414.262
207.9993, 5466.974
208.4815, 5514.000
208.9636, 5532.274
209.4457, 5512.073
209.9278, 5455.259
210.4099, 5400.807
210.8920, 5353.669
211.3742, 5300.953
211.8563, 5225.216
212.3384, 5119.353
212.8205, 5010.652
213.3026, 4903.518
213.7847, 4798.368
214.2669, 4699.713
214.7490, 4606.845
215.2311, 4521.069
215.7132, 4444.296
216.1953, 4377.846
216.6774, 4318.806
217.1596, 4266.998
217.6417, 4223.052
218.1238, 4184.693
218.6059, 4152.422
219.0880, 4125.604
219.5701, 4101.382
220.0523, 4076.803
220.5344, 4060.282
221.0165, 4057.575
221.4986, 4075.911
221.9807, 4087.385
222.4628, 4087.428
222.9450, 4080.840
223.4271, 4084.932
223.9092, 4106.689
224.3913, 4128.031
224.8734, 4137.658
225.3555, 4129.594
225.8377, 4123.481
226.3198, 4118.634
226.8019, 4116.271
227.2840, 4125.554
227.7661, 4154.856
228.2482, 4184.903
228.7303, 4200.295
229.2125, 4191.336
229.6946, 4188.694
230.1767, 4197.562
230.6588, 4217.465
231.1409, 4237.354
231.6230, 4259.009
232.1052, 4278.845
232.5873, 4292.181
233.0694, 4291.959
233.5515, 4299.071
234.0336, 4320.244
234.5157, 4356.690
234.9979, 4384.818
235.4800, 4402.349
235.9621, 4413.937
236.4442, 4423.540
236.9263, 4425.502
237.4084, 4435.851
237.8906, 4462.773
238.3727, 4511.188
238.8548, 4541.682
239.3369, 4542.811
239.8190, 4534.293
240.3011, 4543.993
240.7833, 4583.441
241.2654, 4622.794
241.7475, 4653.210
242.2296, 4671.642
242.7117, 4692.672
243.1938, 4715.520
243.6760, 4741.295
244.1581, 4772.685
244.6402, 4813.714
245.1223, 4854.086
245.6044, 4889.910
246.0865, 4920.653
246.5687, 4948.744
247.0508, 4974.259
247.5329, 4996.953
248.0150, 5016.047
248.4971, 5029.858
248.9792, 5042.553
249.4614, 5053.834
249.9435, 5056.891
250.4256, 5076.879
250.9077, 5126.534
251.3898, 5190.692
251.8719, 5222.153
252.3541, 5200.868
252.8362, 5177.062
253.3183, 5174.282
253.8004, 5194.809
254.2825, 5232.637
254.7646, 5297.055
255.2468, 5377.953
255.7289, 5434.741
256.2110, 5456.597
256.6931, 5471.143
257.1752, 5494.147
257.6573, 5527.765
258.1395, 5563.616
258.6216, 5598.930
259.1037, 5635.986
259.5858, 5688.110
260.0679, 5766.292
260.5500, 5842.791
261.0322, 5894.921
261.5143, 5910.135
261.9964, 5935.975
262.4785, 5980.812
262.9606, 6041.175
263.4427, 6097.047
263.9249, 6145.077
264.4070, 6194.054
264.8891, 6250.973
265.3712, 6315.995
265.8533, 6388.055
266.3354, 6468.985
266.8176, 6557.506
267.2997, 6650.613
267.7818, 6750.150
268.2639, 6849.616
268.7460, 6942.492
269.2281, 7028.371
269.7103, 7108.157
270.1924, 7175.604
270.6745, 7234.590
271.1566, 7322.268
271.6387, 7445.588
272.1208, 7582.847
272.6030, 7712.756
273.0851, 7834.418
273.5672, 7952.569
274.0493, 8065.618
274.5314, 8174.837
275.0135, 8296.296
275.4957, 8434.020
275.9778, 8573.507
276.4599, 8692.814
276.9420, 8786.892
277.4241, 8894.991
277.9063, 9032.273
278.3884, 9195.365
278.8705, 9335.258
279.3526, 9448.652
279.8347, 9547.966
280.3168, 9647.880
280.7990, 9749.453
281.2811, 9841.531
281.7632, 9930.474
282.2453, 10010.11
282.7274, 10030.38
283.2095, 9986.664
283.6917, 9900.398
284.1738, 9786.769
284.6559, 9645.504
285.1380, 9501.782
285.6201, 9367.165
286.1022, 9238.157
286.5844, 9086.327
287.0665, 8908.161
287.5486, 8722.125
288.0307, 8551.088
288.5128, 8393.998
288.9949, 8233.565
289.4771, 8062.211
289.9592, 7883.125
290.4413, 7699.110
290.9234, 7510.243
291.4055, 7325.389
291.8876, 7153.433
292.3697, 6994.408
292.8518, 6848.215
293.3340, 6721.287
293.8161, 6607.171
294.2982, 6490.413
294.7803, 6369.270
295.2624, 6251.691
295.7445, 6148.947
296.2267, 6056.947
296.7088, 5960.592
297.1909, 5844.917
297.6730, 5720.725
298.1551, 5614.761
298.6372, 5526.356
299.1194, 5450.433
299.6015, 5391.737
300.0836, 5343.589
300.5657, 5287.169
301.0478, 5197.032
301.5299, 5100.350
302.0121, 5045.282
302.4942, 5033.672
302.9763, 5029.206
303.4584, 4999.614
303.9405, 4952.561
304.4226, 4903.901
304.9048, 4862.532
305.3869, 4821.899
305.8690, 4774.209
306.3511, 4718.403
306.8332, 4663.094
307.3153, 4615.576
307.7975, 4572.737
308.2796, 4530.441
308.7617, 4482.549
309.2438, 4436.546
309.7259, 4400.748
310.2080, 4374.961
310.6902, 4351.457
311.1723, 4324.270
311.6544, 4296.399
312.1365, 4272.326
312.6186, 4261.671
313.1007, 4249.528
313.5829, 4225.382
314.0650, 4189.115
314.5471, 4149.929
315.0292, 4108.199
315.5113, 4067.171
315.9934, 4030.328
316.4756, 3996.096
316.9577, 3968.571
317.4398, 3954.794
317.9219, 3954.666
318.4040, 3946.639
318.8861, 3916.065
319.3683, 3876.347
319.8504, 3840.239
320.3325, 3808.604
320.8146, 3783.569
321.2967, 3768.075
321.7788, 3762.121
322.2610, 3755.949
322.7431, 3748.114
323.2252, 3738.789
323.7073, 3728.111
324.1894, 3709.553
324.6715, 3696.488
325.1537, 3698.263
325.6358, 3714.000
326.1179, 3714.063
326.6000, 3676.562
327.0821, 3633.399
327.5642, 3606.376
328.0464, 3612.243
328.5285, 3616.743
329.0106, 3617.418
329.4927, 3614.235
329.9748, 3607.094
330.4569, 3593.046
330.9391, 3577.378
331.4212, 3563.237
331.9033, 3550.609
332.3854, 3540.081
332.8675, 3533.952
333.3496, 3530.870
333.8318, 3520.869
334.3139, 3498.790
334.7960, 3476.852
335.2781, 3462.609
335.7602, 3458.260
336.2423, 3456.622
336.7245, 3457.617
337.2066, 3460.878
337.6887, 3465.979
338.1708, 3474.892
338.6529, 3481.214
339.1350, 3479.912
339.6172, 3468.976
340.0993, 3461.697
340.5814, 3460.990
341.0635, 3463.012
341.5456, 3456.665
342.0277, 3440.178
342.5099, 3423.745
342.9920, 3411.289
343.4741, 3402.726
343.9562, 3405.123
344.4383, 3422.637
344.9204, 3444.927
345.4026, 3452.424
345.8847, 3444.771
346.3668, 3434.278
346.8489, 3425.057
347.3310, 3417.808
347.8131, 3417.310
348.2953, 3425.649
348.7774, 3434.701
349.2595, 3429.236
349.7416, 3412.197
350.2237, 3401.932
350.7058, 3416.977
351.1880, 3443.302
351.6701, 3449.111
352.1522, 3430.842
352.6343, 3408.133
353.1164, 3398.681
353.5985, 3400.628
354.0807, 3409.056
354.5628, 3429.661
355.0449, 3451.838
355.5270, 3464.687
356.0091, 3467.910
356.4912, 3461.920
356.9734, 3435.965
357.4555, 3402.733
357.9376, 3382.526
358.4197, 3390.992
358.9018, 3409.014
359.3839, 3429.298
359.8661, 3451.147
360.3482, 3461.311
360.8303, 3439.185
361.3124, 3407.230
361.7945, 3388.176
362.2766, 3403.238
362.7588, 3419.186
363.2409, 3420.426
363.7230, 3408.966
364.2051, 3404.183
364.6872, 3419.830
365.1693, 3439.638
365.6515, 3452.354
366.1336, 3451.813
366.6157, 3448.396
367.0978, 3443.632
367.5799, 3437.375
368.0620, 3428.735
368.5442, 3414.319
369.0263, 3400.110
369.5084, 3388.964
369.9905, 3381.822
370.4726, 3376.743
370.9547, 3373.528
371.4369, 3372.444
371.9190, 3374.355
372.4011, 3380.990
372.8832, 3388.424
373.3653, 3395.352
373.8474, 3402.290
374.3295, 3407.170
374.8116, 3409.132
375.2938, 3409.694
375.7759, 3411.539
376.2580, 3414.706
376.7401, 3418.901
377.2222, 3424.182
377.7043, 3430.657
378.1865, 3436.315
378.6686, 3440.507
379.1507, 3445.254
379.6328, 3453.500
380.1149, 3465.392
380.5970, 3478.798
381.0792, 3496.004
381.5613, 3514.384
382.0434, 3522.070
382.5255, 3518.488
383.0076, 3507.469
383.4897, 3487.367
383.9719, 3461.405
384.4540, 3443.349
384.9361, 3436.688
385.4182, 3440.962
385.9003, 3461.451
386.3824, 3496.964
386.8646, 3528.417
387.3467, 3540.641
387.8288, 3539.202
388.3109, 3532.477
388.7930, 3520.046
389.2751, 3507.042
389.7573, 3498.185
390.2394, 3493.054
390.7215, 3490.229
391.2036, 3492.697
391.6857, 3495.085
392.1678, 3490.885
392.6500, 3474.548
393.1321, 3462.821
393.6142, 3469.310
394.0963, 3486.406
394.5784, 3498.987
395.0605, 3497.953
395.5427, 3493.881
396.0248, 3490.925
396.5069, 3488.946
396.9890, 3490.285
397.4711, 3494.185
397.9532, 3502.020
398.4354, 3515.577
398.9175, 3548.839
399.3996, 3574.021
399.8817, 3582.110
400.3638, 3571.149
400.8459, 3562.489
401.3281, 3552.008
401.8102, 3546.879
402.2923, 3554.802
402.7744, 3588.966
403.2565, 3611.760
403.7386, 3614.374
404.2208, 3600.185
404.7029, 3593.372
405.1850, 3597.089
405.6671, 3602.219
406.1492, 3600.079
406.6313, 3587.818
407.1135, 3588.634
407.5956, 3609.936
408.0777, 3640.405
408.5598, 3650.674
409.0419, 3638.861
409.5240, 3626.564
410.0062, 3628.182
410.4883, 3640.950
410.9704, 3646.774
411.4525, 3643.375
411.9346, 3637.991
412.4167, 3640.403
412.8989, 3649.312
413.3810, 3659.085
413.8631, 3667.356
414.3452, 3674.590
414.8273, 3682.975
415.3094, 3692.686
415.7916, 3698.407
416.2737, 3690.000
416.7558, 3675.909
417.2379, 3669.375
417.7200, 3682.633
418.2021, 3698.822
418.6843, 3706.674
419.1664, 3707.098
419.6485, 3705.893
420.1306, 3703.316
420.6127, 3701.784
421.0948, 3703.276
421.5770, 3709.341
422.0591, 3716.850
422.5412, 3728.236
423.0233, 3740.733
423.5054, 3746.880
423.9875, 3730.079
424.4697, 3719.258
424.9518, 3728.266
425.4339, 3772.516
425.9160, 3803.052
426.3981, 3813.324
426.8802, 3812.421
427.3624, 3812.905
427.8445, 3815.971
428.3266, 3818.436
428.8087, 3818.424
429.2908, 3815.720
429.7729, 3819.881
430.2551, 3834.829
430.7372, 3850.066
431.2193, 3852.630
431.7014, 3839.103
432.1835, 3836.598
432.6656, 3852.865
433.1478, 3882.052
433.6299, 3905.759
434.1120, 3923.409
434.5941, 3940.874
435.0762, 3964.831
435.5583, 3992.764
436.0405, 4013.539
436.5226, 4024.800
437.0047, 4031.161
437.4868, 4036.038
437.9689, 4040.499
438.4510, 4048.454
438.9332, 4060.534
439.4153, 4077.903
439.8974, 4105.556
440.3795, 4144.814
440.8616, 4179.881
441.3438, 4193.512
441.8259, 4197.514
442.3080, 4208.100
442.7901, 4233.812
443.2722, 4265.001
443.7543, 4299.528
444.2365, 4336.434
444.7186, 4370.797
445.2007, 4398.452
445.6828, 4424.493
446.1649, 4452.506
446.6470, 4484.492
447.1292, 4516.465
447.6113, 4550.835
448.0934, 4585.210
448.5755, 4613.166
449.0576, 4631.367
449.5397, 4646.993
450.0219, 4662.989
450.5040, 4681.328
450.9861, 4692.185
451.4682, 4692.346
451.9503, 4688.899
452.4324, 4690.521
452.9146, 4697.553
453.3967, 4708.795
453.8788, 4726.636
454.3609, 4748.393
454.8430, 4755.682
455.3251, 4746.210
455.8072, 4738.458
456.2893, 4752.504
456.7715, 4783.756
457.2536, 4807.856
457.7357, 4820.408
458.2178, 4824.484
458.6999, 4818.591
459.1820, 4805.975
459.6642, 4800.710
460.1463, 4820.918
460.6284, 4848.743
461.1105, 4860.431
461.5926, 4851.920
462.0747, 4840.764
462.5569, 4840.070
463.0390, 4843.829
463.5211, 4843.710
464.0032, 4824.753
464.4853, 4812.186
464.9674, 4825.252
465.4496, 4861.300
465.9317, 4882.925
466.4138, 4870.769
466.8959, 4847.555
467.3780, 4827.308
467.8601, 4799.630
468.3423, 4790.774
468.8244, 4814.231
469.3065, 4855.950
469.7886, 4878.599
470.2707, 4874.070
470.7528, 4863.521
471.2350, 4850.302
471.7171, 4831.239
472.1992, 4836.361
472.6813, 4874.266
473.1634, 4921.229
473.6455, 4945.280
474.1277, 4945.030
474.6098, 4950.929
475.0919, 4974.608
475.5740, 5007.384
476.0561, 5019.957
476.5382, 5012.641
477.0204, 5012.206
477.5025, 5043.578
477.9846, 5096.035
478.4667, 5147.473
478.9488, 5195.161
479.4309, 5239.341
479.9131, 5276.108
480.3952, 5309.424
480.8773, 5348.502
481.3594, 5401.050
481.8415, 5457.999
482.3236, 5513.920
482.8058, 5567.896
483.2879, 5620.646
483.7700, 5669.394
484.2521, 5718.171
484.7342, 5770.766
485.2163, 5834.717
485.6985, 5893.871
486.1806, 5940.569
486.6627, 5978.762
487.1448, 6028.500
487.6269, 6099.268
488.1090, 6170.148
488.5912, 6232.608
489.0733, 6285.226
489.5554, 6334.515
490.0375, 6377.955
490.5196, 6422.476
491.0017, 6480.046
491.4839, 6554.052
491.9660, 6622.280
492.4481, 6679.099
492.9302, 6726.040
493.4123, 6764.895
493.8944, 6795.892
494.3766, 6825.148
494.8587, 6861.680
495.3408, 6900.438
495.8229, 6926.112
496.3050, 6930.487
496.7871, 6935.390
497.2693, 6970.754
497.7514, 7026.030
498.2335, 7073.501
498.7156, 7100.142
499.1977, 7114.058
499.6798, 7119.509
500.1620, 7116.505
500.6441, 7110.688
501.1262, 7105.547
501.6083, 7098.192
502.0904, 7085.987
502.5725, 7074.401
503.0547, 7051.370
503.5368, 7011.523
504.0189, 6957.820
504.5010, 6902.663
504.9831, 6854.702
505.4652, 6795.321
505.9474, 6715.099
506.4295, 6608.303
506.9116, 6507.237
507.3937, 6411.708
507.8758, 6320.388
508.3579, 6234.631
508.8401, 6155.332
509.3222, 6063.894
509.8043, 5945.763
510.2864, 5815.913
510.7685, 5719.217
511.2506, 5654.793
511.7328, 5594.676
512.2148, 5515.777
512.6970, 5427.840
513.1791, 5347.530
513.6612, 5277.391
514.1433, 5214.126
514.6254, 5157.090
515.1075, 5104.769
515.5897, 5054.408
516.0718, 5009.700
516.5539, 4962.477
517.0360, 4903.591
517.5181, 4833.901
518.0002, 4777.453
518.4824, 4750.407
518.9645, 4732.616
519.4466, 4711.444
519.9287, 4685.740
520.4108, 4656.075
520.8929, 4619.090
521.3751, 4579.767
521.8572, 4548.136
522.3393, 4525.074
522.8214, 4508.210
523.3035, 4500.448
523.7856, 4501.060
524.2678, 4485.843
524.7499, 4451.700
525.2320, 4414.141
525.7141, 4389.642
526.1962, 4375.867
526.6783, 4356.666
527.1605, 4326.196
527.6426, 4295.223
528.1247, 4281.524
528.6068, 4281.719
529.0889, 4282.241
529.5710, 4275.498
530.0532, 4265.747
530.5353, 4255.992
531.0174, 4246.265
531.4995, 4239.229
531.9816, 4237.363
532.4637, 4238.281
532.9459, 4239.690
533.4280, 4246.628
533.9101, 4247.749
534.3922, 4240.759
534.8743, 4226.271
535.3564, 4205.898
535.8386, 4165.459
536.3207, 4136.192
536.8028, 4132.454
537.2849, 4159.464
537.7670, 4174.509
538.2491, 4176.154
538.7313, 4168.813
539.2134, 4150.895
539.6955, 4120.928
540.1776, 4110.954
540.6597, 4134.033
541.1418, 4171.604
541.6240, 4187.389
542.1061, 4182.669
542.5882, 4167.524
543.0703, 4138.813
543.5524, 4106.926
544.0345, 4087.160
544.5167, 4080.747
544.9988, 4082.360
545.4809, 4097.731
545.9630, 4115.422
546.4451, 4122.205
546.9272, 4100.870
547.4094, 4081.823
547.8915, 4076.526
548.3736, 4081.835
548.8557, 4086.683
549.3378, 4089.908
549.8199, 4091.969
550.3021, 4093.339
550.7842, 4094.565
551.2663, 4092.009
551.7484, 4082.560
552.2305, 4073.288
552.7126, 4071.346
553.1948, 4077.435
553.6769, 4087.638
554.1590, 4104.180
554.6411, 4121.435
555.1232, 4124.897
555.6053, 4115.071
556.0875, 4102.011
556.5696, 4088.793
557.0517, 4076.943
557.5338, 4071.030
558.0159, 4071.559
558.4980, 4070.551
558.9802, 4057.003
559.4623, 4039.898
559.9444, 4031.148
560.4265, 4039.724
560.9086, 4049.616
561.3907, 4052.864
561.8729, 4052.600
562.3550, 4057.128
562.8371, 4071.365
563.3192, 4087.766
563.8013, 4106.389
564.2834, 4129.556
564.7656, 4136.849
565.2477, 4118.748
565.7298, 4096.772
566.2119, 4090.320
566.6940, 4102.309
567.1761, 4111.792
567.6583, 4115.179
568.1404, 4116.300
568.6225, 4124.690
569.1046, 4139.558
569.5867, 4150.786
570.0688, 4149.791
570.5510, 4143.544
571.0331, 4145.779
571.5152, 4156.263
571.9973, 4164.735
572.4794, 4159.721
572.9615, 4150.996
573.4437, 4149.091
573.9258, 4158.964
574.4079, 4170.720
574.8900, 4180.449
575.3721, 4189.686
575.8542, 4200.751
576.3364, 4216.628
576.8185, 4231.563
577.3006, 4243.330
577.7827, 4252.167
578.2648, 4263.997
578.7469, 4279.930
579.2291, 4296.738
579.7112, 4314.007
580.1933, 4332.464
580.6754, 4337.574
581.1575, 4323.188
581.6396, 4310.665
582.1218, 4336.348
582.6039, 4392.522
583.0860, 4442.819
583.5681, 4471.235
584.0502, 4490.189
584.5323, 4513.912
585.0145, 4541.494
585.4966, 4568.707
585.9787, 4591.349
586.4608, 4614.194
586.9429, 4640.434
587.4250, 4669.943
587.9072, 4704.006
588.3893, 4751.829
588.8714, 4800.200
589.3535, 4834.823
589.8356, 4839.721
590.3177, 4855.589
590.7999, 4893.288
591.2820, 4942.835
591.7641, 4972.915
592.2462, 4978.409
592.7283, 4983.686
593.2104, 4998.490
593.6926, 5022.210
594.1747, 5053.412
594.6568, 5093.195
595.1389, 5129.807
595.6210, 5151.638
596.1031, 5162.748
596.5853, 5171.015
597.0674, 5178.379
597.5495, 5182.582
598.0316, 5179.613
598.5137, 5172.448
598.9958, 5166.644
599.4780, 5165.674
599.9601, 5165.104
600.4422, 5167.315
600.9243, 5171.638
601.4064, 5161.102
601.8885, 5114.166
602.3707, 5072.465
602.8528, 5060.049
603.3349, 5091.696
603.8170, 5099.823
604.2991, 5077.283
604.7813, 5042.949
605.2634, 5021.651
605.7455, 5013.186
606.2276, 4999.646
606.7097, 4976.115
607.1918, 4945.674
607.6740, 4909.568
608.1561, 4869.641
608.6382, 4832.590
609.1203, 4807.831
609.6024, 4784.879
610.0845, 4748.999
610.5667, 4698.586
611.0488, 4662.320
611.5309, 4667.340
612.0130, 4682.732
612.4951, 4683.601
612.9772, 4644.035
613.4594, 4621.304
613.9415, 4627.083
614.4236, 4646.678
614.9057, 4655.354
615.3878, 4651.455
615.8699, 4640.607
616.3521, 4622.101
616.8342, 4597.914
617.3163, 4576.373
617.7984, 4557.213
618.2805, 4545.403
618.7626, 4554.362
619.2448, 4571.629
619.7269, 4566.066
620.2090, 4533.424
620.6911, 4497.959
621.1732, 4474.594
621.6553, 4461.382
622.1375, 4455.823
622.6196, 4462.076
623.1017, 4469.846
623.5838, 4481.121
624.0659, 4491.655
624.5480, 4490.193
625.0302, 4457.688
625.5123, 4434.505
625.9944, 4435.228
626.4765, 4458.824
626.9586, 4467.260
627.4407, 4455.329
627.9229, 4442.193
628.4050, 4444.195
628.8871, 4459.436
629.3692, 4465.929
629.8513, 4460.590
630.3334, 4452.545
630.8156, 4455.458
631.2977, 4463.221
631.7798, 4462.111
632.2619, 4441.938
632.7440, 4418.329
633.2261, 4399.342
633.7083, 4385.310
634.1904, 4377.629
634.6725, 4382.846
635.1546, 4388.641
635.6367, 4388.814
636.1188, 4382.117
636.6010, 4381.865
637.0831, 4389.951
637.5652, 4402.054
638.0473, 4417.875
638.5294, 4439.553
639.0115, 4446.691
639.4937, 4434.040
639.9758, 4416.989
640.4579, 4420.235
640.9400, 4439.119
641.4221, 4450.239
641.9042, 4442.683
642.3864, 4428.288
642.8685, 4417.780
643.3506, 4411.347
643.8327, 4409.945
644.3148, 4416.749
644.7969, 4426.403
645.2791, 4438.646
645.7612, 4453.869
646.2433, 4460.691
646.7254, 4450.705
647.2075, 4437.096
647.6896, 4427.192
648.1718, 4422.713
648.6539, 4416.094
649.1360, 4404.381
649.6181, 4394.815
650.1002, 4399.005
650.5823, 4416.441
651.0645, 4436.042
651.5466, 4461.529
652.0287, 4478.981
652.5108, 4452.448
652.9929, 4394.505
653.4750, 4354.178
653.9572, 4374.628
654.4393, 4408.856
654.9214, 4425.131
655.4035, 4421.753
655.8856, 4410.629
656.3677, 4379.728
656.8499, 4353.736
657.3320, 4351.160
657.8141, 4387.963
658.2962, 4406.566
658.7783, 4398.844
659.2604, 4382.548
659.7426, 4380.640
660.2247, 4394.777
660.7067, 4403.635
661.1888, 4402.594
661.6710, 4394.785
662.1531, 4381.865
662.6352, 4365.858
663.1173, 4355.439
663.5994, 4353.308
664.0815, 4359.856
664.5637, 4379.808
665.0458, 4411.228
665.5279, 4439.181
666.0100, 4460.010
666.4921, 4473.529
666.9742, 4480.104
667.4564, 4480.824
667.9385, 4469.056
668.4206, 4433.229
668.9027, 4396.555
669.3848, 4383.194
669.8669, 4397.324
670.3491, 4408.718
670.8312, 4414.337
671.3133, 4414.836
671.7954, 4408.822
672.2775, 4397.687
672.7596, 4389.013
673.2418, 4389.516
673.7239, 4390.289
674.2060, 4377.847
674.6881, 4356.320
675.1702, 4341.723
675.6523, 4350.782
676.1345, 4360.830
676.6166, 4357.480
677.0987, 4336.914
677.5808, 4325.135
678.0629, 4325.806
678.5450, 4332.385
679.0272, 4343.060
679.5093, 4361.166
679.9914, 4366.872
680.4735, 4357.863
680.9556, 4340.179
681.4377, 4313.848
681.9199, 4283.254
682.4020, 4272.654
682.8841, 4298.653
683.3662, 4329.518
683.8483, 4326.868
684.3304, 4302.155
684.8126, 4283.178
685.2947, 4283.625
685.7768, 4290.919
686.2589, 4302.938
686.7410, 4318.735
687.2231, 4328.271
687.7053, 4327.676
688.1874, 4324.997
688.6695, 4324.752
689.1516, 4327.899
689.6337, 4319.538
690.1158, 4295.094
690.5980, 4275.855
691.0801, 4289.735
691.5622, 4327.369
692.0443, 4349.196
692.5264, 4346.982
693.0085, 4338.833
693.4907, 4340.048
693.9728, 4347.269
694.4549, 4355.133
694.9370, 4367.229
695.4191, 4373.523
695.9012, 4366.837
696.3834, 4351.384
696.8655, 4339.636
697.3476, 4333.547
697.8297, 4328.676
698.3118, 4322.318
698.7939, 4315.693
699.2761, 4322.512
699.7582, 4345.879
700.2403, 4361.918
700.7224, 4350.412
701.2045, 4320.913
701.6866, 4295.641
702.1688, 4275.441
702.6509, 4266.956
703.1330, 4285.278
703.6151, 4313.024
704.0972, 4332.483
704.5793, 4339.050
705.0615, 4339.745
705.5436, 4329.617
706.0257, 4317.576
706.5078, 4315.174
706.9899, 4330.591
707.4720, 4339.172
707.9542, 4337.253
708.4363, 4327.632
708.9184, 4313.461
709.4005, 4294.849
709.8826, 4282.006
710.3647, 4279.668
710.8469, 4285.061
711.3290, 4297.323
711.8111, 4314.387
712.2932, 4326.122
712.7753, 4319.431
713.2574, 4310.983
713.7396, 4313.762
714.2217, 4329.603
714.7038, 4341.159
715.1859, 4333.390
715.6680, 4330.167
716.1501, 4347.769
716.6323, 4398.922
717.1144, 4420.053
717.5965, 4402.582
718.0786, 4375.531
718.5607, 4373.642
719.0428, 4392.087
719.5250, 4401.709
720.0071, 4396.258
720.4892, 4383.283
720.9713, 4364.678
721.4534, 4345.406
721.9355, 4334.710
722.4177, 4340.224
722.8998, 4350.563
723.3819, 4362.551
723.8640, 4376.341
724.3461, 4392.650
724.8282, 4419.399
725.3104, 4436.369
725.7925, 4435.199
726.2746, 4418.934
726.7567, 4409.036
727.2388, 4406.027
727.7209, 4404.150
728.2031, 4398.278
728.6852, 4391.221
729.1673, 4391.039
729.6494, 4397.718
730.1315, 4402.429
730.6136, 4394.117
731.0958, 4383.994
731.5779, 4382.659
732.0600, 4395.475
732.5421, 4405.750
733.0242, 4410.979
733.5063, 4412.051
733.9885, 4409.642
734.4706, 4404.268
734.9527, 4392.159
735.4348, 4369.062
735.9169, 4346.545
736.3990, 4346.912
736.8812, 4366.029
737.3633, 4379.862
737.8454, 4377.350
738.3275, 4372.076
738.8096, 4381.385
739.2917, 4399.218
739.7739, 4411.243
740.2560, 4403.559
740.7381, 4397.200
741.2202, 4403.214
741.7023, 4419.579
742.1844, 4427.467
742.6666, 4423.573
743.1487, 4416.968
743.6308, 4409.275
744.1129, 4401.179
744.5950, 4400.256
745.0771, 4406.602
745.5593, 4418.260
746.0414, 4444.687
746.5235, 4471.262
747.0056, 4467.652
747.4877, 4429.425
747.9698, 4396.480
748.4520, 4393.693
748.9341, 4404.948
749.4162, 4417.567
749.8983, 4431.523
750.3804, 4443.292
750.8625, 4454.631
751.3447, 4462.037
751.8268, 4460.206
752.3089, 4447.746
752.7910, 4437.056
753.2731, 4429.872
753.7552, 4424.929
754.2374, 4419.072
754.7195, 4413.812
755.2016, 4414.129
755.6837, 4427.741
756.1658, 4439.778
756.6479, 4432.551
757.1301, 4415.724
757.6122, 4412.571
758.0943, 4452.749
758.5764, 4479.257
759.0585, 4470.194
759.5406, 4436.109
760.0228, 4431.566
760.5049, 4466.047
760.9870, 4491.864
761.4691, 4480.011
761.9512, 4444.336
762.4333, 4428.656
762.9155, 4432.015
763.3976, 4444.219
763.8797, 4467.807
764.3618, 4490.797
764.8439, 4499.969
765.3260, 4493.368
765.8082, 4489.094
766.2903, 4497.451
766.7724, 4505.375
767.2545, 4505.737
767.7366, 4498.001
768.2188, 4482.181
768.7009, 4453.716
769.1830, 4428.100
769.6651, 4421.419
770.1472, 4430.915
770.6293, 4444.614
771.1115, 4462.010
771.5936, 4478.325
772.0757, 4490.832
772.5578, 4498.902
773.0399, 4500.950
773.5220, 4489.125
774.0042, 4482.841
774.4863, 4493.897
774.9684, 4510.824
775.4505, 4516.108
775.9326, 4504.366
776.4147, 4494.384
776.8969, 4488.517
777.3790, 4486.885
777.8611, 4490.405
778.3432, 4498.759
778.8253, 4510.491
779.3074, 4531.639
779.7896, 4549.065
780.2717, 4545.483
780.7538, 4526.313
781.2359, 4507.329
781.7180, 4493.317
782.2001, 4481.683
782.6823, 4467.289
783.1644, 4452.960
783.6465, 4458.359
784.1286, 4492.533
784.6107, 4523.831
785.0928, 4537.924
785.5750, 4537.968
786.0571, 4536.935
786.5392, 4534.814
787.0213, 4532.080
787.5034, 4526.684
787.9855, 4522.264
788.4677, 4521.208
788.9498, 4523.723
789.4319, 4533.575
789.9140, 4565.975
790.3961, 4594.673
790.8782, 4603.661
791.3604, 4588.864
791.8425, 4574.137
792.3246, 4558.261
792.8067, 4546.355
793.2888, 4547.001
793.7709, 4556.719
794.2531, 4554.905
794.7352, 4537.963
795.2173, 4524.695
795.6994, 4537.924
796.1815, 4561.476
796.6636, 4576.052
797.1458, 4573.307
797.6279, 4571.584
798.1100, 4576.688
798.5921, 4583.964
799.0742, 4588.240
799.5563, 4587.248
800.0385, 4593.014
800.5206, 4610.666
801.0027, 4626.816
801.4848, 4617.175
801.9669, 4588.690
802.4490, 4565.563
802.9312, 4553.728
803.4133, 4551.454
803.8954, 4562.075
804.3775, 4579.979
804.8596, 4596.369
805.3417, 4609.908
805.8239, 4620.104
806.3060, 4625.430
806.7881, 4628.180
807.2702, 4633.866
807.7523, 4643.575
808.2344, 4649.263
808.7166, 4648.415
809.1987, 4642.539
809.6808, 4630.595
810.1629, 4615.306
810.6450, 4606.327
811.1271, 4613.708
811.6093, 4623.883
812.0914, 4627.880
812.5735, 4627.611
813.0556, 4631.062
813.5377, 4646.059
814.0198, 4656.423
814.5020, 4659.748
814.9841, 4655.195
815.4662, 4631.152
815.9483, 4586.048
816.4304, 4556.338
816.9125, 4571.329
817.3947, 4608.961
817.8768, 4636.915
818.3589, 4654.906
818.8410, 4663.874
819.3231, 4657.317
819.8052, 4647.980
820.2874, 4641.293
820.7695, 4637.735
821.2516, 4639.995
821.7337, 4651.821
822.2158, 4662.741
822.6979, 4670.244
823.1801, 4673.222
823.6622, 4653.774
824.1443, 4612.126
824.6264, 4586.126
825.1085, 4619.596
825.5906, 4673.705
826.0727, 4704.218
826.5548, 4708.292
827.0369, 4705.185
827.5190, 4692.746
828.0012, 4682.958
828.4833, 4683.524
828.9654, 4696.487
829.4475, 4703.072
829.9296, 4701.912
830.4117, 4698.730
830.8939, 4697.752
831.3760, 4698.286
831.8581, 4699.025
832.3402, 4699.910
832.8223, 4697.897
833.3044, 4684.822
833.7866, 4671.717
834.2687, 4668.398
834.7508, 4678.722
835.2329, 4689.837
835.7150, 4704.041
836.1971, 4715.016
836.6793, 4716.272
837.1614, 4706.674
837.6435, 4706.142
838.1256, 4716.593
838.6077, 4727.905
839.0898, 4730.071
839.5720, 4726.585
840.0541, 4722.246
840.5362, 4717.339
841.0183, 4714.304
841.5004, 4719.765
841.9825, 4723.971
842.4647, 4716.114
842.9468, 4681.378
843.4289, 4675.752
843.9110, 4709.846
844.3931, 4751.317
844.8752, 4765.267
845.3574, 4756.616
845.8395, 4750.597
846.3216, 4750.551
846.8037, 4752.268
847.2858, 4755.229
847.7679, 4756.567
848.2501, 4751.861
848.7322, 4733.838
849.2143, 4724.896
849.6964, 4732.310
850.1785, 4745.496
850.6606, 4755.828
851.1428, 4763.283
851.6249, 4767.710
852.1070, 4768.825
852.5891, 4767.754
853.0712, 4762.585
853.5533, 4756.836
854.0355, 4758.001
854.5176, 4769.861
854.9997, 4781.305
855.4818, 4787.507
855.9639, 4790.365
856.4460, 4791.536
856.9282, 4789.425
857.4103, 4789.826
857.8924, 4793.249
858.3745, 4798.717
858.8566, 4808.502
859.3387, 4820.284
859.8209, 4821.550
860.3030, 4808.675
860.7851, 4793.131
861.2672, 4779.713
861.7493, 4771.292
862.2314, 4771.625
862.7136, 4788.876
863.1957, 4801.170
863.6778, 4804.454
864.1599, 4804.316
864.6420, 4806.883
865.1241, 4812.433
865.6063, 4814.623
866.0884, 4812.667
866.5705, 4807.381
867.0526, 4795.678
867.5347, 4782.435
868.0168, 4774.736
868.4990, 4772.545
868.9811, 4780.786
869.4632, 4814.927
869.9453, 4852.384
870.4274, 4871.155
870.9095, 4866.396
871.3917, 4855.538
871.8738, 4836.339
872.3559, 4819.269
872.8380, 4819.333
873.3201, 4831.247
873.8022, 4838.901
874.2844, 4839.179
874.7665, 4837.522
875.2486, 4838.398
875.7307, 4838.729
876.2128, 4834.672
876.6949, 4817.010
877.1771, 4813.443
877.6592, 4830.995
878.1413, 4852.335
878.6234, 4859.965
879.1055, 4855.009
879.5876, 4851.667
880.0698, 4851.326
880.5519, 4851.751
881.0340, 4851.310
881.5161, 4850.398
881.9982, 4849.129
882.4803, 4846.894
882.9625, 4847.016
883.4446, 4851.936
883.9267, 4857.967
884.4088, 4863.723
884.8909, 4869.958
885.3730, 4867.042
885.8552, 4852.625
886.3373, 4842.169
886.8194, 4859.361
887.3015, 4886.168
887.7836, 4890.771
888.2657, 4866.734
888.7479, 4848.121
889.2300, 4855.979
889.7121, 4869.901
890.1942, 4876.613
890.6763, 4875.000
891.1584, 4871.285
891.6406, 4865.232
892.1227, 4857.979
892.6048, 4843.862
893.0869, 4830.329
893.5690, 4840.425
894.0511, 4875.246
894.5333, 4910.956
895.0154, 4942.529
895.4975, 4962.948
895.9796, 4964.683
896.4617, 4944.318
896.9438, 4927.866
897.4260, 4916.309
897.9081, 4906.245
898.3902, 4893.078
898.8723, 4879.424
899.3544, 4880.106
899.8365, 4894.314
900.3187, 4911.138
900.8008, 4928.544
901.2829, 4941.343
901.7650, 4945.478
902.2471, 4940.860
902.7292, 4927.191
903.2114, 4890.688
903.6935, 4867.678
904.1756, 4877.088
904.6577, 4911.173
905.1398, 4927.210
905.6219, 4925.877
906.1041, 4921.141
906.5862, 4918.425
907.0683, 4918.002
907.5504, 4919.194
908.0325, 4922.649
908.5146, 4931.034
908.9968, 4954.693
909.4789, 4972.260
909.9610, 4981.140
910.4431, 4979.977
910.9252, 4955.942
911.4073, 4908.645
911.8895, 4880.744
912.3716, 4897.737
912.8537, 4931.927
913.3358, 4953.815
913.8179, 4964.198
914.3000, 4964.396
914.7822, 4944.912
915.2643, 4927.187
915.7464, 4912.801
916.2285, 4904.759
916.7106, 4912.906
917.1927, 4939.661
917.6749, 4956.771
918.1570, 4956.106
918.6391, 4947.201
919.1212, 4935.818
919.6033, 4927.082
920.0854, 4931.795
920.5676, 4966.974
921.0497, 4994.206
921.5318, 4997.995
922.0139, 4989.717
922.4960, 4979.052
922.9781, 4962.329
923.4603, 4965.015
923.9424, 4994.269
924.4245, 5026.339
924.9066, 5029.333
925.3887, 5014.956
925.8708, 5002.564
926.3530, 4994.545
926.8351, 4994.776
927.3172, 5009.431
927.7993, 5030.171
928.2814, 5052.609
928.7635, 5083.127
929.2457, 5082.792
929.7278, 5044.077
930.2099, 5005.972
930.6920, 5009.971
931.1741, 5036.866
931.6563, 5045.537
932.1384, 5033.000
932.6205, 5022.022
933.1026, 5023.278
933.5847, 5030.774
934.0668, 5043.524
934.5490, 5061.411
935.0311, 5072.912
935.5132, 5078.008
935.9953, 5076.455
936.4774, 5061.043
936.9595, 5041.163
937.4417, 5045.555
937.9238, 5068.447
938.4059, 5081.564
938.8880, 5051.555
939.3701, 5026.075
939.8522, 5037.233
940.3344, 5073.885
940.8165, 5090.148
941.2986, 5079.884
941.7807, 5071.687
942.2628, 5075.149
942.7449, 5084.805
943.2271, 5088.693
943.7092, 5089.679
944.1913, 5095.556
944.6734, 5124.069
945.1555, 5141.570
945.6376, 5123.006
946.1198, 5088.540
946.6019, 5073.487
947.0840, 5084.047
947.5661, 5092.749
948.0482, 5095.215
948.5303, 5097.048
949.0125, 5111.233
949.4946, 5129.770
949.9767, 5132.308
950.4588, 5107.671
950.9409, 5089.381
951.4230, 5098.964
951.9052, 5117.545
952.3873, 5127.612
952.8694, 5125.363
953.3515, 5128.787
953.8336, 5139.647
954.3157, 5148.683
954.7979, 5142.389
955.2800, 5130.132
955.7621, 5134.650
956.2442, 5157.087
956.7263, 5167.896
957.2084, 5133.550
957.6906, 5101.311
958.1727, 5099.005
958.6548, 5124.972
959.1369, 5150.081
959.6190, 5175.996
960.1011, 5190.139
960.5833, 5175.463
961.0654, 5151.376
961.5475, 5155.042
962.0296, 5179.266
962.5117, 5198.814
962.9938, 5195.955
963.4760, 5194.500
963.9581, 5205.366
964.4402, 5222.044
964.9223, 5228.862
965.4044, 5224.625
965.8865, 5221.107
966.3687, 5221.310
966.8508, 5223.078
967.3329, 5220.439
967.8150, 5218.127
968.2971, 5224.898
968.7792, 5252.268
969.2614, 5273.903
969.7435, 5282.943
970.2256, 5285.448
970.7077, 5286.024
971.1898, 5284.597
971.6719, 5282.837
972.1541, 5280.442
972.6362, 5281.635
973.1183, 5296.369
973.6004, 5313.327
974.0825, 5314.110
974.5646, 5292.480
975.0468, 5294.387
975.5289, 5353.378
976.0110, 5405.215
976.4931, 5416.727
976.9752, 5393.299
977.4573, 5381.988
977.9395, 5382.332
978.4216, 5388.501
978.9037, 5401.497
979.3858, 5415.161
979.8679, 5424.129
980.3500, 5429.330
980.8322, 5434.742
981.3143, 5443.455
981.7964, 5447.854
982.2785, 5444.075
982.7606, 5437.984
983.2427, 5440.768
983.7249, 5451.972
984.2070, 5470.548
984.6891, 5497.797
985.1712, 5527.749
985.6533, 5563.676
986.1354, 5596.485
986.6176, 5612.938
987.0997, 5600.631
987.5818, 5600.114
988.0639, 5614.469
988.5460, 5633.675
989.0281, 5651.207
989.5103, 5665.581
989.9923, 5669.898
990.4744, 5663.596
990.9565, 5662.129
991.4387, 5678.108
991.9208, 5698.054
992.4029, 5715.700
992.8850, 5730.819
993.3671, 5734.689
993.8492, 5722.271
994.3314, 5729.253
994.8135, 5788.554
995.2956, 5865.895
995.7777, 5897.171
996.2598, 5897.115
996.7419, 5908.014
997.2241, 5962.372
997.7062, 6009.481
998.1883, 6030.273
998.6704, 6040.888
999.1525, 6067.662
999.6346, 6110.241
1000.117, 6166.062
1000.599, 6238.544
1001.081, 6309.507
1001.563, 6359.532
1002.045, 6398.020
1002.527, 6434.267
1003.009, 6462.296
1003.492, 6512.134
1003.974, 6585.767
1004.456, 6680.171
1004.938, 6804.014
1005.420, 6950.200
1005.902, 7070.234
1006.384, 7165.035
1006.866, 7267.752
1007.349, 7401.048
1007.831, 7548.272
1008.313, 7700.823
1008.795, 7858.090
1009.277, 8024.953
1009.759, 8199.032
1010.241, 8387.197
1010.723, 8591.559
1011.205, 8811.324
1011.688, 9047.266
1012.170, 9298.316
1012.652, 9555.979
1013.134, 9817.484
1013.616, 10085.12
1014.098, 10357.03
1014.580, 10640.78
1015.062, 10955.96
1015.544, 11311.83
1016.027, 11619.57
1016.509, 11871.59
1016.991, 12120.89
1017.473, 12431.62
1017.955, 12759.06
1018.437, 13036.95
1018.919, 13258.98
1019.401, 13541.89
1019.884, 13946.45
1020.366, 14363.51
1020.848, 14757.27
1021.330, 15134.21
1021.812, 15508.93
1022.294, 15877.55
1022.776, 16236.28
1023.258, 16621.21
1023.740, 16950.38
1024.223, 17219.95
1024.705, 17385.29
1025.187, 17364.44
1025.669, 17160.20
1026.151, 16778.45
1026.633, 16205.17
1027.115, 15496.21
1027.597, 14657.44
1028.080, 13745.13
1028.562, 12869.41
1029.044, 12043.25
1029.526, 11313.70
1030.008, 10706.31
1030.490, 10205.80
1030.972, 9802.024
1031.454, 9491.902
1031.937, 9229.611
1032.419, 9017.382
1032.901, 8836.589
1033.383, 8687.610
1033.865, 8559.199
1034.347, 8443.808
1034.829, 8338.406
1035.311, 8237.800
1035.793, 8150.944
1036.276, 8051.118
1036.758, 7939.688
1037.240, 7810.530
1037.722, 7638.962
1038.204, 7442.398
1038.686, 7295.292
1039.168, 7216.273
1039.650, 7135.494
1040.132, 6992.315
1040.615, 6845.302
1041.097, 6736.713
1041.579, 6669.145
1042.061, 6601.968
1042.543, 6536.086
1043.025, 6467.484
1043.507, 6384.296
1043.989, 6304.581
1044.472, 6256.116
1044.954, 6230.880
1045.436, 6204.231
1045.918, 6157.900
1046.400, 6124.558
1046.882, 6113.921
1047.364, 6112.861
1047.846, 6100.554
1048.328, 6078.880
1048.811, 6059.952
1049.293, 6047.266
1049.775, 6027.724
1050.257, 5970.133
1050.739, 5916.701
1051.221, 5913.576
1051.703, 5968.027
1052.185, 5991.420
1052.667, 5978.370
1053.150, 5957.408
1053.632, 5939.966
1054.114, 5928.305
1054.596, 5934.259
1055.078, 5950.072
1055.560, 5951.742
1056.042, 5910.874
1056.524, 5881.291
1057.007, 5876.807
1057.489, 5884.426
1057.971, 5884.522
1058.453, 5878.071
1058.935, 5871.003
1059.417, 5863.321
1059.899, 5863.038
1060.381, 5891.523
1060.864, 5919.346
1061.346, 5914.936
1061.828, 5872.084
1062.310, 5851.246
1062.792, 5855.088
1063.274, 5869.068
1063.756, 5891.136
1064.238, 5914.460
1064.720, 5927.614
1065.203, 5931.690
1065.685, 5929.448
1066.167, 5906.947
1066.649, 5899.816
1067.131, 5923.278
1067.613, 5953.370
1068.095, 5953.436
1068.577, 5928.098
1069.059, 5911.605
1069.542, 5908.212
1070.024, 5916.838
1070.506, 5953.167
1070.988, 5988.385
1071.470, 5992.341
1071.952, 5964.856
1072.434, 5969.864
1072.916, 6014.698
1073.398, 6054.862
1073.881, 6065.341
1074.363, 6065.090
1074.845, 6081.115
1075.327, 6109.073
1075.809, 6139.528
1076.291, 6175.887
1076.773, 6204.697
1077.255, 6220.699
1077.738, 6234.551
1078.220, 6258.056
1078.702, 6289.821
1079.184, 6320.730
1079.666, 6350.385
1080.148, 6384.673
1080.630, 6440.853
1081.112, 6490.712
1081.594, 6506.438
1082.077, 6499.026
1082.559, 6525.614
1083.041, 6590.539
1083.523, 6656.142
1084.005, 6714.542
1084.487, 6760.225
1084.969, 6769.985
1085.451, 6767.980
1085.933, 6790.674
1086.416, 6861.360
1086.898, 6929.219
1087.380, 6992.896
1087.862, 7052.396
1088.344, 7113.296
1088.826, 7169.008
1089.308, 7191.278
1089.790, 7185.140
1090.273, 7190.223
1090.755, 7243.275
1091.237, 7293.370
1091.719, 7319.918
1092.201, 7329.812
1092.683, 7335.036
1093.165, 7335.771
1093.647, 7345.108
1094.130, 7368.165
1094.612, 7390.750
1095.094, 7397.799
1095.576, 7399.205
1096.058, 7408.623
1096.540, 7432.924
1097.022, 7427.551
1097.504, 7385.263
1097.986, 7340.854
1098.469, 7312.514
1098.951, 7295.587
1099.433, 7287.836
1099.915, 7284.591
1100.397, 7272.960
1100.879, 7245.042
1101.361, 7210.637
1101.843, 7162.699
1102.325, 7119.683
1102.808, 7113.086
1103.290, 7134.003
1103.772, 7134.667
1104.254, 7109.854
1104.736, 7086.835
1105.218, 7083.029
1105.700, 7086.138
1106.182, 7092.762
1106.665, 7100.414
1107.147, 7091.793
1107.629, 7066.098
1108.111, 7053.431
1108.593, 7071.183
1109.075, 7092.404
1109.557, 7091.836
1110.039, 7075.768
1110.521, 7051.062
1111.004, 7008.751
1111.486, 6985.527
1111.968, 6987.458
1112.450, 6989.241
1112.932, 6968.706
1113.414, 6935.703
1113.896, 6909.729
1114.378, 6889.764
1114.860, 6867.233
1115.343, 6833.490
1115.825, 6804.713
1116.307, 6786.347
1116.789, 6771.547
1117.271, 6749.992
1117.753, 6721.559
1118.235, 6685.788
1118.717, 6641.460
1119.200, 6595.215
1119.682, 6543.484
1120.164, 6498.340
1120.646, 6469.236
1121.128, 6454.427
1121.610, 6437.722
1122.092, 6419.337
1122.574, 6394.996
1123.057, 6361.539
1123.539, 6323.376
1124.021, 6276.753
1124.503, 6230.939
1124.985, 6201.896
1125.467, 6195.427
1125.949, 6192.850
1126.431, 6194.413
1126.913, 6197.872
1127.396, 6209.393
1127.878, 6217.090
1128.360, 6190.772
1128.842, 6138.330
1129.324, 6113.197
1129.806, 6163.044
1130.288, 6190.432
1130.770, 6171.969
1131.252, 6130.842
1131.735, 6098.686
1132.217, 6077.703
1132.699, 6079.518
1133.181, 6110.606
1133.663, 6135.418
1134.145, 6136.867
1134.627, 6127.877
1135.109, 6109.920
1135.592, 6087.118
1136.074, 6093.894
1136.556, 6126.165
1137.038, 6150.438
1137.520, 6150.128
1138.002, 6139.166
1138.484, 6117.033
1138.966, 6094.279
1139.448, 6083.067
1139.931, 6083.521
1140.413, 6098.144
1140.895, 6128.135
1141.377, 6160.012
1141.859, 6188.962
1142.341, 6210.388
1142.823, 6220.619
1143.305, 6219.305
1143.787, 6204.101
1144.270, 6162.148
1144.752, 6149.667
1145.234, 6184.039
1145.716, 6231.105
1146.198, 6241.898
1146.680, 6235.814
1147.162, 6245.134
1147.644, 6278.423
1148.127, 6296.403
1148.609, 6281.684
1149.091, 6275.302
1149.573, 6298.272
1150.055, 6337.987
1150.537, 6362.125
1151.019, 6374.835
1151.501, 6388.339
1151.984, 6409.673
1152.466, 6427.472
1152.948, 6433.316
1153.430, 6440.746
1153.912, 6465.395
1154.394, 6503.996
1154.876, 6518.621
1155.358, 6511.441
1155.840, 6507.144
1156.323, 6527.543
1156.805, 6546.310
1157.287, 6541.396
1157.769, 6530.795
1158.251, 6547.051
1158.733, 6589.986
1159.215, 6632.002
1159.697, 6670.915
1160.179, 6693.049
1160.662, 6659.704
1161.144, 6627.566
1161.626, 6654.737
1162.108, 6732.411
1162.590, 6775.442
1163.072, 6781.112
1163.554, 6773.655
1164.036, 6754.106
1164.519, 6740.382
1165.001, 6758.596
1165.483, 6792.072
1165.965, 6821.172
1166.447, 6846.204
1166.929, 6852.926
1167.411, 6839.109
1167.893, 6815.278
1168.375, 6771.633
1168.858, 6733.230
1169.340, 6757.163
1169.822, 6816.852
1170.304, 6849.151
1170.786, 6810.039
1171.268, 6787.750
1171.750, 6790.506
1172.232, 6801.405
1172.714, 6809.113
1173.197, 6810.440
1173.679, 6792.862
1174.161, 6758.972
1174.643, 6735.600
1175.125, 6740.493
1175.607, 6745.342
1176.089, 6742.797
1176.571, 6739.477
1177.054, 6748.509
1177.536, 6766.051
1178.018, 6782.992
1178.500, 6797.965
1178.982, 6808.443
1179.464, 6808.099
1179.946, 6808.392
1180.428, 6813.054
1180.911, 6822.581
1181.393, 6845.444
1181.875, 6876.418
1182.357, 6889.554
1182.839, 6859.367
1183.321, 6845.752
1183.803, 6890.313
1184.285, 6952.160
1184.767, 7003.937
1185.250, 7045.611
1185.732, 7077.998
1186.214, 7102.398
1186.696, 7132.658
1187.178, 7172.450
1187.660, 7224.815
1188.142, 7300.572
1188.624, 7385.664
1189.106, 7458.210
1189.589, 7517.604
1190.071, 7591.432
1190.553, 7682.162
1191.035, 7774.192
1191.517, 7852.511
1191.999, 7931.930
1192.481, 8025.407
1192.963, 8128.354
1193.446, 8224.710
1193.928, 8313.594
1194.410, 8406.969
1194.892, 8506.452
1195.374, 8609.733
1195.856, 8720.092
1196.338, 8829.024
1196.820, 8929.930
1197.302, 9021.759
1197.785, 9103.848
1198.267, 9176.257
1198.749, 9242.820
1199.231, 9309.436
1199.713, 9362.322
1200.195, 9385.974
1200.677, 9386.425
1201.159, 9369.776
1201.641, 9337.421
1202.124, 9286.992
1202.606, 9219.943
1203.088, 9130.316
1203.570, 9008.460
1204.052, 8868.315
1204.534, 8707.545
1205.016, 8542.953
1205.498, 8414.878
1205.981, 8355.852
1206.463, 8257.215
1206.945, 8112.025
1207.427, 7950.765
1207.909, 7781.334
1208.391, 7624.891
1208.873, 7519.126
1209.355, 7454.142
1209.838, 7385.856
1210.320, 7306.662
1210.802, 7226.416
1211.284, 7143.604
1211.766, 7066.669
1212.248, 7006.759
1212.730, 6956.314
1213.212, 6902.281
1213.694, 6844.430
1214.177, 6802.999
1214.659, 6785.713
1215.141, 6766.222
1215.623, 6737.481
1216.105, 6704.349
1216.587, 6673.999
1217.069, 6644.592
1217.551, 6611.382
1218.033, 6572.099
1218.516, 6543.539
1218.998, 6527.851
1219.480, 6519.398
1219.962, 6519.374
1220.444, 6520.228
1220.926, 6503.575
1221.408, 6479.477
1221.890, 6467.537
1222.373, 6482.086
1222.855, 6482.965
1223.337, 6465.583
1223.819, 6441.965
1224.301, 6416.465
1224.783, 6392.097
1225.265, 6372.542
1225.747, 6359.091
1226.229, 6354.795
1226.712, 6372.183
1227.194, 6380.183
1227.676, 6375.901
1228.158, 6367.752
1228.640, 6360.347
1229.122, 6355.333
1229.604, 6362.378
1230.086, 6375.769
1230.568, 6371.234
1231.051, 6324.241
1231.533, 6291.086
1232.015, 6278.954
1232.497, 6277.900
1232.979, 6281.174
1233.461, 6285.598
1233.943, 6286.158
1234.425, 6282.626
1234.908, 6276.415
1235.390, 6263.554
1235.872, 6257.983
1236.354, 6264.010
1236.836, 6274.896
1237.318, 6286.453
1237.800, 6294.055
1238.282, 6285.649
1238.764, 6258.199
1239.247, 6246.215
1239.729, 6255.480
1240.211, 6273.290
1240.693, 6301.245
1241.175, 6324.342
1241.657, 6311.466
1242.139, 6280.822
1242.621, 6260.422
1243.104, 6258.203
1243.586, 6256.748
1244.068, 6256.472
1244.550, 6252.659
1245.032, 6239.239
1245.514, 6226.532
1245.996, 6237.689
1246.478, 6259.425
1246.960, 6267.770
1247.443, 6245.334
1247.925, 6246.002
1248.407, 6276.943
1248.889, 6303.247
1249.371, 6297.216
1249.853, 6277.168
1250.335, 6263.052
1250.817, 6255.339
1251.299, 6256.513
1251.782, 6272.204
1252.264, 6282.270
1252.746, 6285.717
1253.228, 6286.158
1253.710, 6287.544
1254.192, 6286.765
1254.674, 6274.560
1255.156, 6257.855
1255.639, 6258.986
1256.121, 6288.643
1256.603, 6299.547
1257.085, 6286.126
1257.567, 6266.908
1258.049, 6252.658
1258.531, 6245.475
1259.013, 6248.166
1259.495, 6260.280
1259.978, 6279.508
1260.460, 6308.895
1260.942, 6322.926
1261.424, 6316.179
1261.906, 6305.399
1262.388, 6306.984
1262.870, 6310.706
1263.352, 6303.600
1263.834, 6290.057
1264.317, 6295.759
1264.799, 6322.055
1265.281, 6338.383
1265.763, 6337.581
1266.245, 6328.684
1266.727, 6310.126
1267.209, 6294.559
1267.691, 6294.246
1268.174, 6306.176
1268.656, 6319.008
1269.138, 6332.438
1269.620, 6336.938
1270.102, 6327.524
1270.584, 6317.486
1271.066, 6317.508
1271.548, 6319.432
1272.031, 6316.461
1272.513, 6310.193
1272.995, 6309.623
1273.477, 6314.763
1273.959, 6326.941
1274.441, 6352.454
1274.923, 6370.379
1275.405, 6362.697
1275.887, 6350.630
1276.370, 6346.148
1276.852, 6348.774
1277.334, 6359.361
1277.816, 6375.572
1278.298, 6387.923
1278.780, 6388.484
1279.262, 6392.065
1279.744, 6407.548
1280.226, 6420.521
1280.709, 6423.008
1281.191, 6414.365
1281.673, 6381.667
1282.155, 6334.922
1282.637, 6307.330
1283.119, 6324.106
1283.601, 6345.406
1284.083, 6372.359
1284.566, 6391.096
1285.048, 6382.033
1285.530, 6359.827
1286.012, 6356.344
1286.494, 6367.409
1286.976, 6377.209
1287.458, 6384.189
1287.940, 6382.292
1288.422, 6366.575
1288.905, 6357.021
1289.387, 6386.223
1289.869, 6423.305
1290.351, 6420.533
1290.833, 6387.974
1291.315, 6373.227
1291.797, 6384.676
1292.279, 6401.266
1292.761, 6423.805
1293.244, 6434.196
1293.726, 6397.429
1294.208, 6355.797
1294.690, 6353.421
1295.172, 6383.191
1295.654, 6404.754
1296.136, 6418.114
1296.618, 6421.691
1297.101, 6414.534
1297.583, 6407.083
1298.065, 6412.249
1298.547, 6416.262
1299.029, 6403.086
1299.511, 6382.096
1299.993, 6377.664
1300.475, 6389.271
1300.958, 6408.057
1301.440, 6433.274
1301.922, 6450.941
1302.404, 6448.955
1302.886, 6439.538
1303.368, 6425.899
1303.850, 6412.160
1304.332, 6407.259
1304.814, 6412.598
##END=



