##NAMES=Coquimbite
##RRUFFID=R060638
##IDEAL CHEMISTRY=AlFe^3+^_3_(S^6+^O_4_)_6_(H_2_O)_12_&#183;6H_2_O
##LOCALITY=Dexter no. 7 mine, Calf Mesa, San Rafael Swell, Emery County, Utah, USA
##OWNER=RRUFF
##SOURCE=University of Arizona Mineral Museum
##DESCRIPTION=Purple blocky crystals
##STATUS=The identification of this mineral is confirmed by single-crystal X-ray diffraction and chemical analysis.
##URL=rruff.info/R060638
##MEASURED CHEMISTRY=(Fe^3+^_1.43_Al_0.57_)_Σ=2_(S_1.00_O_4_)_3_·9H_2_O; trace amounts of As; H_2_O estimated by difference
150.4142, 133.7178
150.8963, 137.7863
151.3785, 141.6433
151.8606, 145.2004
152.3427, 148.7234
152.8248, 151.4953
153.3069, 153.5562
153.7890, 154.8622
154.2712, 154.8740
154.7533, 152.0613
155.2354, 149.1546
155.7175, 146.7179
156.1996, 144.7023
156.6817, 143.3777
157.1639, 142.9836
157.6460, 143.2728
158.1281, 143.7446
158.6102, 144.0127
159.0923, 144.6204
159.5744, 145.8854
160.0566, 148.2482
160.5387, 150.5992
161.0208, 152.4984
161.5029, 154.1217
161.9850, 155.9797
162.4671, 158.6321
162.9493, 161.3560
163.4314, 163.7008
163.9135, 165.8344
164.3956, 167.2543
164.8777, 167.4870
165.3598, 166.7509
165.8420, 165.9355
166.3241, 165.5823
166.8062, 165.2803
167.2883, 164.6363
167.7704, 163.0163
168.2525, 161.5514
168.7346, 161.1141
169.2168, 161.5495
169.6989, 161.8905
170.1810, 161.4590
170.6631, 160.6377
171.1452, 159.8834
171.6273, 159.5212
172.1095, 159.1581
172.5916, 158.4037
173.0737, 157.2898
173.5558, 156.1672
174.0379, 155.3578
174.5201, 154.7015
175.0022, 153.9234
175.4843, 152.7605
175.9664, 151.5066
176.4485, 150.4860
176.9306, 149.6844
177.4128, 149.1199
177.8949, 148.7557
178.3770, 148.6360
178.8591, 148.8548
179.3412, 149.6890
179.8233, 150.8039
180.3055, 151.6066
180.7876, 152.0827
181.2697, 152.6008
181.7518, 153.4641
182.2339, 154.6553
182.7160, 156.1561
183.1982, 158.0242
183.6803, 160.1760
184.1624, 162.4645
184.6445, 164.8942
185.1266, 167.3559
185.6087, 169.6174
186.0909, 171.7641
186.5730, 174.1237
187.0551, 177.3716
187.5372, 181.0081
188.0193, 183.1776
188.5014, 183.6039
188.9836, 183.6233
189.4657, 184.9728
189.9478, 187.5488
190.4299, 190.3669
190.9120, 192.9983
191.3941, 195.4676
191.8763, 197.9461
192.3584, 200.3858
192.8405, 202.9476
193.3226, 206.0178
193.8047, 209.5855
194.2868, 213.2101
194.7690, 216.5353
195.2511, 219.6177
195.7332, 223.4635
196.2153, 228.1582
196.6974, 233.4676
197.1795, 238.8891
197.6617, 244.4476
198.1438, 250.1460
198.6259, 256.0903
199.1080, 262.2571
199.5901, 268.2290
200.0722, 274.0073
200.5544, 279.5309
201.0365, 284.7354
201.5186, 289.7282
202.0007, 293.9161
202.4828, 296.9438
202.9649, 298.7657
203.4471, 299.9864
203.9292, 300.4936
204.4113, 300.5684
204.8934, 300.5716
205.3755, 300.3167
205.8576, 300.7121
206.3398, 302.1508
206.8219, 304.6516
207.3040, 308.1909
207.7861, 313.0688
208.2682, 318.6380
208.7503, 323.6161
209.2325, 327.9575
209.7146, 331.7232
210.1967, 335.3013
210.6788, 339.1923
211.1609, 340.4608
211.6430, 338.7889
212.1252, 334.6971
212.6073, 329.3660
213.0894, 322.9047
213.5715, 315.0425
214.0536, 305.4927
214.5357, 293.8450
215.0179, 281.8010
215.5000, 268.9794
215.9821, 255.9303
216.4642, 243.7450
216.9463, 232.3606
217.4284, 222.1759
217.9105, 213.3375
218.3927, 206.1300
218.8748, 199.6201
219.3569, 193.8982
219.8390, 188.8318
220.3211, 183.9622
220.8032, 179.0645
221.2854, 174.7551
221.7675, 171.2692
222.2496, 168.8715
222.7317, 166.5611
223.2138, 164.2348
223.6959, 162.0498
224.1781, 160.3178
224.6602, 159.1929
225.1423, 158.2699
225.6244, 157.3934
226.1065, 156.4714
226.5886, 155.8390
227.0708, 155.5737
227.5529, 155.5537
228.0350, 155.5286
228.5171, 155.4817
228.9992, 155.4587
229.4813, 155.4984
229.9635, 155.6660
230.4456, 155.6727
230.9277, 155.3670
231.4098, 154.9793
231.8919, 154.9684
232.3740, 155.5156
232.8562, 156.1529
233.3383, 156.7530
233.8204, 157.3776
234.3025, 157.7466
234.7846, 157.7146
235.2667, 157.5083
235.7489, 157.5306
236.2310, 157.8207
236.7131, 158.2752
237.1952, 158.8831
237.6773, 159.6633
238.1594, 160.4939
238.6416, 161.3391
239.1237, 162.2582
239.6058, 163.3688
240.0879, 164.8511
240.5700, 166.2518
241.0521, 167.3807
241.5343, 168.1035
242.0164, 169.1211
242.4985, 170.6088
242.9806, 172.2684
243.4627, 173.6407
243.9448, 174.5064
244.4270, 175.4500
244.9091, 176.6359
245.3912, 178.1020
245.8733, 179.6145
246.3554, 181.1616
246.8375, 182.7688
247.3197, 184.5233
247.8018, 186.6901
248.2839, 188.5127
248.7660, 189.6763
249.2481, 190.0567
249.7302, 190.8024
250.2124, 191.9743
250.6945, 193.4634
251.1766, 195.2003
251.6587, 197.3340
252.1408, 199.4219
252.6229, 201.2753
253.1051, 202.8692
253.5872, 204.9328
254.0693, 207.6543
254.5514, 210.6705
255.0335, 213.6247
255.5156, 216.4307
255.9978, 219.2991
256.4799, 222.3032
256.9620, 225.4520
257.4441, 228.4515
257.9262, 231.2146
258.4083, 233.9322
258.8904, 236.7012
259.3726, 239.4694
259.8547, 242.5017
260.3368, 246.0228
260.8189, 249.9572
261.3010, 253.0629
261.7831, 255.1094
262.2653, 256.6888
262.7474, 258.2016
263.2295, 259.6549
263.7116, 261.0354
264.1937, 262.2285
264.6758, 263.3336
265.1580, 264.9521
265.6401, 267.0323
266.1222, 269.7129
266.6043, 273.1412
267.0864, 277.4950
267.5685, 282.0757
268.0507, 286.8791
268.5328, 291.8806
269.0149, 297.0034
269.4970, 302.2488
269.9791, 307.7549
270.4612, 313.6958
270.9434, 320.0268
271.4255, 326.8633
271.9076, 334.3226
272.3897, 342.2878
272.8718, 350.5218
273.3539, 358.9861
273.8361, 367.8284
274.3182, 377.2007
274.8003, 387.1216
275.2824, 397.0565
275.7645, 406.8213
276.2466, 416.6797
276.7288, 427.2621
277.2109, 438.6559
277.6930, 450.1804
278.1751, 461.3034
278.6572, 472.0541
279.1393, 482.8785
279.6215, 493.8622
280.1036, 504.7682
280.5857, 515.4525
281.0678, 525.9640
281.5499, 535.5798
282.0320, 544.0803
282.5142, 551.4573
282.9963, 556.8762
283.4784, 560.3104
283.9605, 561.8978
284.4426, 561.9271
284.9247, 560.4118
285.4069, 556.7123
285.8890, 550.2480
286.3711, 541.4172
286.8532, 531.8013
287.3353, 521.4016
287.8174, 510.1469
288.2996, 497.7716
288.7817, 484.3336
289.2638, 471.0773
289.7459, 458.2578
290.2280, 445.9123
290.7101, 433.7187
291.1923, 421.6099
291.6744, 409.9978
292.1565, 399.4152
292.6386, 389.6292
293.1207, 379.3846
293.6028, 368.0650
294.0850, 356.5410
294.5671, 345.9017
295.0492, 336.1333
295.5313, 327.0285
296.0134, 318.7986
296.4955, 311.1932
296.9777, 303.5276
297.4598, 295.6888
297.9419, 287.9272
298.4240, 280.7065
298.9061, 274.0273
299.3882, 267.7078
299.8704, 261.8138
300.3525, 256.2178
300.8346, 250.4789
301.3167, 244.5346
301.7988, 238.7148
302.2809, 233.2667
302.7631, 228.2076
303.2452, 223.4041
303.7273, 218.9287
304.2094, 214.6543
304.6915, 210.4196
305.1736, 206.1519
305.6558, 202.2216
306.1379, 199.1970
306.6200, 196.7119
307.1021, 194.0894
307.5842, 190.7641
308.0663, 187.3240
308.5485, 184.2830
309.0306, 181.6492
309.5127, 179.1478
309.9948, 176.6794
310.4769, 174.2032
310.9590, 171.6677
311.4412, 168.8013
311.9233, 166.0806
312.4054, 163.8962
312.8875, 162.1624
313.3696, 160.5339
313.8517, 159.0034
314.3339, 157.4230
314.8160, 155.6329
315.2981, 153.4846
315.7802, 151.3257
316.2623, 149.3223
316.7444, 147.4535
317.2266, 145.6206
317.7087, 143.6643
318.1908, 141.8374
318.6729, 140.2912
319.1550, 139.1038
319.6371, 138.0507
320.1193, 137.1452
320.6014, 136.3142
321.0835, 135.4251
321.5656, 134.3056
322.0477, 133.2401
322.5298, 132.3822
323.0120, 131.8010
323.4941, 131.1065
323.9762, 130.2062
324.4583, 129.1556
324.9404, 128.0150
325.4225, 126.6458
325.9047, 125.3270
326.3868, 124.1381
326.8689, 123.0709
327.3510, 122.1238
327.8331, 121.5877
328.3152, 121.0032
328.7974, 120.0508
329.2795, 118.0704
329.7616, 116.4997
330.2437, 115.7081
330.7258, 115.5169
331.2079, 114.9057
331.6901, 113.5632
332.1722, 112.1075
332.6543, 110.8357
333.1364, 109.9086
333.6185, 108.8742
334.1006, 107.6260
334.5828, 106.2993
335.0649, 105.2716
335.5470, 104.7024
336.0291, 104.1310
336.5112, 103.3489
336.9933, 102.2620
337.4755, 101.4480
337.9576, 101.0048
338.4397, 100.7331
338.9218, 100.3561
339.4039, 99.84560
339.8860, 99.34998
340.3681, 98.94559
340.8503, 98.61353
341.3324, 98.09011
341.8145, 97.28739
342.2966, 96.52750
342.7787, 96.13737
343.2608, 96.13894
343.7430, 96.12715
344.2251, 96.04086
344.7072, 95.87927
345.1893, 95.60806
345.6714, 95.21415
346.1535, 94.84361
346.6357, 94.66298
347.1178, 94.62332
347.5999, 94.40199
348.0820, 93.91666
348.5641, 93.34524
349.0462, 92.93530
349.5284, 92.67964
350.0105, 92.50941
350.4926, 92.37302
350.9747, 92.29750
351.4568, 92.42919
351.9389, 92.80602
352.4211, 93.07891
352.9032, 92.70959
353.3853, 91.94518
353.8674, 91.38537
354.3495, 91.40220
354.8316, 91.65952
355.3138, 91.81695
355.7959, 91.87556
356.2780, 91.84079
356.7601, 91.71265
357.2422, 91.49510
357.7243, 91.16237
358.2065, 90.56057
358.6886, 90.07454
359.1707, 90.19788
359.6528, 90.69875
360.1349, 90.87792
360.6170, 89.85545
361.0992, 88.73257
361.5813, 88.41281
362.0634, 89.32638
362.5455, 90.05301
363.0276, 89.80333
363.5097, 89.05412
363.9919, 88.51533
364.4740, 88.68275
364.9561, 88.83887
365.4382, 88.61764
365.9203, 87.95205
366.4024, 87.54041
366.8846, 87.72842
367.3667, 88.11030
367.8488, 88.35759
368.3309, 88.46329
368.8130, 88.39952
369.2951, 88.12566
369.7773, 87.65966
370.2594, 87.13806
370.7415, 86.33569
371.2236, 85.68394
371.7057, 85.40797
372.1878, 85.86938
372.6700, 85.99344
373.1521, 85.54845
373.6342, 84.86644
374.1163, 84.62375
374.5984, 85.05403
375.0805, 85.47084
375.5627, 85.65422
376.0448, 85.58584
376.5269, 85.50191
377.0090, 85.40951
377.4911, 85.28611
377.9732, 85.09855
378.4554, 84.83957
378.9375, 84.55269
379.4196, 84.19883
379.9017, 83.84042
380.3838, 83.73479
380.8659, 83.90969
381.3481, 84.12940
381.8302, 84.28041
382.3123, 84.34947
382.7944, 84.18752
383.2765, 83.71352
383.7586, 83.17131
384.2408, 82.90318
384.7229, 82.89291
385.2050, 83.02446
385.6871, 83.36082
386.1692, 83.76870
386.6513, 83.98097
387.1335, 83.98307
387.6156, 83.93233
388.0977, 83.93742
388.5798, 83.99281
389.0619, 84.09704
389.5440, 84.33243
390.0262, 84.52923
390.5083, 84.41734
390.9904, 84.08183
391.4725, 83.92979
391.9546, 84.37942
392.4367, 85.01365
392.9189, 85.48878
393.4010, 85.72691
393.8831, 85.82091
394.3652, 85.72031
394.8473, 85.51930
395.3294, 85.37203
395.8116, 85.34074
396.2937, 85.36608
396.7758, 85.43931
397.2579, 85.56517
397.7400, 85.68107
398.2221, 85.87411
398.7043, 85.99873
399.1864, 85.93533
399.6685, 85.38177
400.1506, 84.97674
400.6327, 84.75143
401.1148, 84.71277
401.5970, 84.93054
402.0791, 85.78065
402.5612, 86.44877
403.0433, 86.52204
403.5254, 85.69964
404.0075, 85.12325
404.4897, 84.83469
404.9718, 84.75801
405.4539, 84.80559
405.9360, 85.02280
406.4181, 85.22852
406.9002, 85.37632
407.3824, 85.46914
407.8645, 85.56709
408.3466, 85.69588
408.8287, 85.73035
409.3108, 85.46769
409.7929, 84.92885
410.2751, 84.60448
410.7572, 84.62527
411.2393, 84.79198
411.7214, 84.69122
412.2035, 84.35364
412.6856, 84.07668
413.1678, 84.15591
413.6499, 84.39626
414.1320, 84.31168
414.6141, 83.85126
415.0962, 83.39211
415.5783, 83.38062
416.0605, 83.61308
416.5426, 83.69809
417.0247, 83.34705
417.5068, 82.92920
417.9889, 82.84570
418.4710, 83.01271
418.9532, 83.03762
419.4353, 82.38268
419.9174, 81.68684
420.3995, 81.56590
420.8816, 82.44446
421.3637, 83.05689
421.8459, 82.59077
422.3280, 81.61597
422.8101, 80.99361
423.2922, 81.30555
423.7743, 81.65541
424.2564, 81.70721
424.7386, 81.41869
425.2207, 81.31493
425.7028, 81.58755
426.1849, 81.96600
426.6670, 82.27449
427.1491, 82.44127
427.6313, 82.66553
428.1134, 83.05959
428.5955, 83.49885
429.0776, 83.59969
429.5597, 83.15714
430.0418, 82.78981
430.5240, 82.76966
431.0061, 83.12897
431.4882, 83.39659
431.9703, 83.56518
432.4524, 83.65282
432.9345, 83.57790
433.4167, 83.32690
433.8988, 83.39898
434.3809, 83.99229
434.8630, 84.90614
435.3451, 85.70295
435.8272, 86.38196
436.3094, 86.92708
436.7915, 87.22212
437.2736, 87.38459
437.7557, 87.67009
438.2378, 88.09386
438.7199, 88.69283
439.2020, 89.71712
439.6841, 90.93645
440.1663, 91.87857
440.6484, 92.07713
441.1305, 92.11764
441.6126, 92.42870
442.0947, 92.99483
442.5768, 93.72094
443.0590, 94.62067
443.5411, 95.62156
444.0232, 96.67269
444.5053, 97.77650
444.9874, 98.90484
445.4695, 100.0542
445.9517, 101.2088
446.4338, 102.3563
446.9159, 103.4572
447.3980, 104.5910
447.8801, 105.8002
448.3622, 107.1012
448.8444, 108.3092
449.3265, 109.5020
449.8086, 110.5369
450.2907, 111.3116
450.7728, 111.7489
451.2549, 112.1086
451.7371, 112.3733
452.2192, 112.5860
452.7013, 112.8504
453.1834, 113.1909
453.6655, 113.4940
454.1476, 113.7694
454.6298, 113.9945
455.1119, 113.8194
455.5940, 113.1745
456.0761, 112.5056
456.5582, 112.3961
457.0403, 112.7084
457.5225, 112.6275
458.0046, 111.8178
458.4867, 110.8711
458.9688, 110.6942
459.4509, 111.1702
459.9330, 111.8259
460.4152, 112.6940
460.8973, 113.4575
461.3794, 113.6016
461.8615, 113.0910
462.3436, 112.6205
462.8257, 112.8220
463.3079, 113.2425
463.7900, 113.3691
464.2721, 112.8764
464.7542, 112.2820
465.2363, 111.7160
465.7184, 111.1994
466.2006, 110.7911
466.6827, 110.5646
467.1648, 110.3981
467.6469, 110.2951
468.1290, 110.3302
468.6111, 110.1248
469.0933, 109.5072
469.5754, 108.7578
470.0575, 108.0983
470.5396, 107.4862
471.0217, 107.0603
471.5038, 106.8869
471.9860, 106.8965
472.4681, 106.8514
472.9502, 106.7391
473.4323, 106.6114
473.9144, 106.4192
474.3965, 106.1723
474.8787, 106.3032
475.3608, 106.8683
475.8429, 107.5356
476.3250, 107.8251
476.8071, 107.8458
477.2892, 108.1687
477.7714, 109.0036
478.2535, 110.1077
478.7356, 111.1878
479.2177, 112.2491
479.6998, 113.2867
480.1819, 114.2544
480.6641, 115.2386
481.1462, 116.2952
481.6283, 117.4309
482.1104, 118.7014
482.5925, 120.2166
483.0746, 121.8523
483.5568, 123.4868
484.0389, 124.8789
484.5210, 126.4700
485.0031, 128.5444
485.4852, 130.9259
485.9673, 133.1338
486.4495, 134.6462
486.9316, 136.3706
487.4137, 138.6605
487.8958, 141.6565
488.3779, 144.5322
488.8600, 147.1777
489.3422, 149.8367
489.8243, 152.7852
490.3064, 156.0614
490.7885, 159.3836
491.2706, 162.7140
491.7527, 166.0634
492.2349, 169.6049
492.7170, 173.3285
493.1991, 177.0135
493.6812, 180.4776
494.1633, 183.7688
494.6454, 187.2330
495.1276, 190.8580
495.6097, 194.3689
496.0918, 197.2846
496.5739, 199.9104
497.0560, 202.7934
497.5381, 206.2186
498.0203, 209.6981
498.5024, 212.9038
498.9845, 215.8515
499.4666, 218.6596
499.9487, 221.2094
500.4308, 223.7433
500.9130, 226.6001
501.3951, 229.7695
501.8772, 232.3433
502.3593, 233.5878
502.8414, 234.4105
503.3235, 235.4359
503.8057, 237.3490
504.2878, 238.5418
504.7699, 238.7893
505.2520, 238.3685
505.7341, 237.7535
506.2162, 237.0830
506.6984, 235.9469
507.1805, 234.2727
507.6626, 232.0515
508.1447, 229.1671
508.6268, 225.5543
509.1089, 221.5146
509.5911, 217.1847
510.0732, 212.5805
510.5553, 207.8946
511.0374, 203.1590
511.5195, 198.2834
512.0016, 192.9896
512.4838, 187.4091
512.9659, 182.1156
513.4480, 177.2937
513.9301, 172.7367
514.4122, 168.1635
514.8943, 163.6185
515.3765, 159.2871
515.8586, 155.3149
516.3407, 151.5535
516.8228, 147.8949
517.3049, 144.2626
517.7870, 140.9466
518.2692, 138.3105
518.7513, 135.9431
519.2334, 133.4616
519.7155, 130.4101
520.1976, 127.7184
520.6797, 125.5527
521.1619, 123.8115
521.6440, 122.2708
522.1261, 121.1326
522.6082, 119.8587
523.0903, 118.1706
523.5724, 116.0546
524.0546, 114.3176
524.5367, 113.0074
525.0188, 111.9678
525.5009, 111.1395
525.9830, 110.4960
526.4651, 109.7667
526.9473, 108.9060
527.4294, 107.9499
527.9115, 106.8672
528.3936, 105.7250
528.8757, 104.7271
529.3578, 104.1295
529.8400, 103.6279
530.3221, 102.8463
530.8042, 101.8411
531.2863, 100.9355
531.7684, 100.3922
532.2505, 99.97230
532.7327, 99.47901
533.2148, 98.81718
533.6969, 98.30813
534.1790, 98.27415
534.6611, 98.34502
535.1432, 98.10519
535.6254, 97.24311
536.1075, 96.40712
536.5896, 95.60238
537.0717, 94.87383
537.5538, 94.45728
538.0359, 94.49635
538.5181, 94.50816
539.0002, 94.27791
539.4823, 93.81165
539.9644, 93.34293
540.4465, 92.86034
540.9286, 92.43289
541.4108, 92.10222
541.8929, 91.87392
542.3750, 91.82730
542.8571, 92.03330
543.3392, 92.24982
543.8214, 92.21165
544.3035, 91.95744
544.7856, 91.58411
545.2677, 90.95203
545.7498, 90.36281
546.2319, 90.07552
546.7141, 90.05253
547.1962, 90.05804
547.6783, 90.12886
548.1604, 90.09878
548.6425, 89.82201
549.1246, 89.13389
549.6068, 88.66161
550.0889, 88.62663
550.5710, 88.72646
551.0531, 88.68192
551.5352, 88.40237
552.0173, 88.17614
552.4995, 88.06226
552.9816, 88.00626
553.4637, 87.83878
553.9458, 87.52872
554.4279, 87.33118
554.9100, 87.42601
555.3922, 87.71622
555.8743, 87.79382
556.3564, 87.65849
556.8385, 87.49276
557.3206, 87.49195
557.8027, 87.54649
558.2849, 87.39706
558.7670, 86.93054
559.2491, 86.62238
559.7312, 87.10616
560.2133, 87.89693
560.6954, 88.33238
561.1776, 87.87630
561.6597, 87.34807
562.1418, 86.96349
562.6239, 86.71360
563.1060, 86.56548
563.5881, 86.59055
564.0703, 86.63885
564.5524, 86.66387
565.0345, 86.66161
565.5166, 86.67699
565.9987, 86.68044
566.4808, 86.75302
566.9630, 87.01624
567.4451, 87.49623
567.9272, 87.79594
568.4093, 87.87984
568.8914, 87.79555
569.3735, 87.43537
569.8557, 86.90852
570.3378, 86.74642
570.8199, 87.30820
571.3020, 88.14174
571.7841, 88.78139
572.2662, 89.21464
572.7484, 89.39474
573.2305, 88.91647
573.7126, 88.46218
574.1947, 88.57203
574.6768, 89.31448
575.1589, 90.06576
575.6411, 90.70407
576.1232, 91.22089
576.6053, 91.58862
577.0874, 91.61804
577.5695, 91.81018
578.0516, 92.24355
578.5338, 92.78452
579.0159, 93.22603
579.4980, 93.49967
579.9801, 93.89091
580.4622, 94.45171
580.9443, 95.18111
581.4265, 96.11943
581.9086, 97.26643
582.3907, 98.38166
582.8728, 99.30098
583.3549, 100.1047
583.8370, 101.0142
584.3192, 102.0309
584.8013, 103.0090
585.2834, 103.6485
585.7655, 104.2905
586.2476, 105.3741
586.7297, 107.1512
587.2118, 108.9107
587.6939, 110.2595
588.1760, 111.4635
588.6581, 112.8614
589.1403, 114.7122
589.6224, 116.5222
590.1045, 118.1989
590.5866, 119.7813
591.0687, 121.4027
591.5508, 123.0487
592.0330, 124.7313
592.5151, 126.4851
592.9972, 128.2937
593.4793, 129.9272
593.9614, 131.3609
594.4435, 132.8089
594.9257, 134.5569
595.4078, 136.4539
595.8899, 138.1032
596.3720, 139.4454
596.8541, 140.5571
597.3362, 141.4023
597.8184, 142.0873
598.3005, 142.7816
598.7826, 143.5982
599.2647, 144.3350
599.7468, 145.0232
600.2289, 145.5564
600.7111, 145.6988
601.1932, 145.1693
601.6753, 144.4699
602.1574, 143.7617
602.6395, 143.0298
603.1216, 142.0041
603.6038, 140.5616
604.0859, 139.0266
604.5680, 137.5281
605.0501, 136.0556
605.5322, 134.6670
606.0143, 133.3394
606.4965, 132.1392
606.9786, 131.2728
607.4607, 130.6057
607.9428, 129.6667
608.4249, 128.3310
608.9070, 126.8011
609.3892, 125.1247
609.8713, 123.4157
610.3534, 121.8409
610.8355, 120.6565
611.3176, 119.4867
611.7997, 118.0747
612.2819, 116.5180
612.7640, 115.1328
613.2461, 113.9916
613.7282, 113.0484
614.2103, 112.3029
614.6924, 111.7747
615.1746, 111.2792
615.6567, 110.8509
616.1388, 110.3959
616.6209, 109.8184
617.1030, 109.1152
617.5851, 108.4847
618.0673, 107.9407
618.5494, 107.4579
619.0315, 107.0265
619.5136, 106.6439
619.9957, 106.3249
620.4778, 106.1181
620.9600, 105.8757
621.4421, 105.3676
621.9242, 104.7244
622.4063, 104.2203
622.8884, 104.0252
623.3705, 103.9211
623.8527, 103.7992
624.3348, 103.6759
624.8169, 103.6886
625.2990, 104.1189
625.7811, 104.3914
626.2632, 104.2533
626.7454, 103.6694
627.2275, 103.1953
627.7096, 102.8387
628.1917, 102.5737
628.6738, 102.4632
629.1559, 102.4781
629.6381, 102.2095
630.1202, 101.5691
630.6023, 100.9163
631.0844, 100.7138
631.5665, 100.7895
632.0486, 100.7750
632.5308, 100.5102
633.0129, 100.2199
633.4950, 99.97360
633.9771, 99.82370
634.4592, 99.86466
634.9413, 100.5526
635.4235, 100.9884
635.9056, 100.7066
636.3877, 99.84245
636.8698, 99.33836
637.3519, 99.34931
637.8340, 99.48056
638.3162, 99.64133
638.7983, 99.82622
639.2804, 99.68279
639.7625, 99.16350
640.2446, 98.58070
640.7267, 98.14318
641.2089, 97.84843
641.6910, 97.71885
642.1731, 97.76468
642.6552, 97.90592
643.1373, 98.21219
643.6194, 98.52120
644.1016, 98.59915
644.5837, 98.27724
645.0658, 97.89921
645.5479, 97.55499
646.0300, 97.26331
646.5121, 97.06423
646.9943, 97.10574
647.4764, 97.06522
647.9585, 96.86658
648.4406, 96.55626
648.9227, 96.28532
649.4048, 96.04858
649.8870, 95.87146
650.3691, 95.77397
650.8512, 95.73918
651.3333, 95.71510
651.8154, 95.69962
652.2975, 95.63282
652.7797, 95.37063
653.2618, 95.07178
653.7439, 95.01286
654.2260, 95.22499
654.7081, 95.38964
655.1902, 95.27892
655.6724, 95.05844
656.1545, 94.85240
656.6366, 94.61337
657.1187, 94.53832
657.6008, 94.81482
658.0829, 95.17571
658.5651, 95.32285
659.0472, 95.12395
659.5293, 95.08031
660.0114, 95.31599
660.4935, 95.66623
660.9756, 95.76938
661.4578, 95.63771
661.9399, 95.53799
662.4220, 95.59257
662.9041, 95.70705
663.3862, 95.74223
663.8683, 95.70922
664.3505, 95.65356
664.8326, 95.60198
665.3147, 95.53615
665.7968, 95.45369
666.2789, 95.35219
666.7610, 95.20102
667.2432, 94.80327
667.7253, 94.52322
668.2074, 94.57285
668.6895, 95.05183
669.1716, 95.37922
669.6537, 95.55822
670.1359, 95.58463
670.6180, 95.38136
671.1001, 94.96181
671.5822, 94.70073
672.0643, 94.65160
672.5464, 94.67013
673.0286, 94.56432
673.5107, 94.40144
673.9928, 94.34621
674.4749, 94.55017
674.9570, 94.65919
675.4391, 94.30839
675.9213, 93.72581
676.4034, 93.28596
676.8855, 93.31721
677.3676, 93.26000
677.8497, 92.92611
678.3318, 92.41806
678.8140, 92.00038
679.2961, 91.65621
679.7782, 91.45186
680.2603, 91.46703
680.7424, 91.62994
681.2245, 91.61214
681.7067, 91.41249
682.1888, 91.13550
682.6709, 90.77071
683.1530, 90.40112
683.6351, 90.14652
684.1172, 90.01614
684.5994, 89.99829
685.0815, 90.27699
685.5636, 90.53780
686.0457, 90.49458
686.5278, 90.00375
687.0099, 89.64465
687.4921, 89.65505
687.9742, 89.73559
688.4563, 89.66411
688.9384, 89.35210
689.4205, 89.16673
689.9026, 89.14834
690.3848, 89.20158
690.8669, 89.21831
691.3490, 89.19707
691.8311, 89.12838
692.3132, 89.00527
692.7953, 88.84659
693.2775, 88.57008
693.7596, 88.28320
694.2417, 88.20102
694.7238, 88.60252
695.2059, 89.02846
695.6880, 89.28661
696.1702, 89.41325
696.6523, 89.52205
697.1344, 89.64876
697.6165, 89.73956
698.0986, 89.81474
698.5807, 89.85000
699.0629, 89.63696
699.5450, 89.08484
700.0271, 88.70205
700.5092, 88.83023
700.9913, 89.30708
701.4734, 89.57484
701.9556, 89.64590
702.4377, 89.69084
702.9198, 89.86067
703.4019, 90.04841
703.8840, 90.13134
704.3661, 90.09628
704.8483, 90.06110
705.3304, 90.05216
705.8125, 90.07220
706.2946, 90.14340
706.7767, 90.33577
707.2589, 90.35474
707.7410, 90.08430
708.2231, 89.80716
708.7052, 89.83024
709.1873, 90.16315
709.6694, 90.33234
710.1516, 90.24854
710.6337, 90.16167
711.1158, 90.45005
711.5979, 90.96114
712.0800, 91.35208
712.5621, 91.51109
713.0443, 91.58231
713.5264, 91.63761
714.0085, 91.67227
714.4906, 91.68023
714.9727, 91.57574
715.4548, 91.54795
715.9370, 91.61219
716.4191, 91.77133
716.9012, 92.08934
717.3833, 92.66647
717.8654, 93.00449
718.3475, 92.87579
718.8297, 92.49438
719.3118, 92.46074
719.7939, 92.72385
720.2760, 92.93922
720.7581, 92.82713
721.2402, 92.64104
721.7224, 92.71449
722.2045, 92.97818
722.6866, 93.11284
723.1687, 92.69202
723.6508, 92.37805
724.1329, 92.63188
724.6151, 93.46708
725.0972, 93.80650
725.5793, 93.33356
726.0614, 92.89900
726.5435, 93.04191
727.0256, 93.72202
727.5078, 93.86452
727.9899, 93.43774
728.4720, 92.90268
728.9541, 92.42400
729.4362, 92.15212
729.9183, 92.59333
730.4005, 93.82822
730.8826, 94.71166
731.3647, 94.14326
731.8468, 93.17774
732.3289, 92.69981
732.8110, 93.08522
733.2932, 93.31026
733.7753, 93.23355
734.2574, 93.04006
734.7395, 92.85781
735.2216, 92.66656
735.7037, 92.62675
736.1859, 92.78481
736.6680, 92.98561
737.1501, 93.04580
737.6322, 92.98896
738.1143, 92.86410
738.5964, 92.63972
739.0786, 92.48173
739.5607, 92.67334
740.0428, 92.97037
740.5249, 93.03355
741.0070, 92.43424
741.4891, 92.00314
741.9713, 92.00114
742.4534, 92.20234
742.9355, 92.29751
743.4176, 92.27402
743.8997, 92.16309
744.3818, 91.92728
744.8640, 91.66527
745.3461, 91.60538
745.8282, 91.71993
746.3103, 91.83587
746.7924, 91.89316
747.2745, 91.91371
747.7567, 91.87761
748.2388, 91.82172
748.7209, 91.83791
749.2030, 92.32259
749.6851, 92.50472
750.1672, 91.82704
750.6494, 90.58472
751.1315, 89.92254
751.6136, 90.08225
752.0957, 90.28623
752.5778, 90.26334
753.0599, 90.10589
753.5421, 90.22474
754.0242, 90.60023
754.5063, 90.91938
754.9884, 90.96050
755.4705, 90.86982
755.9526, 90.84179
756.4348, 90.85463
756.9169, 90.78653
757.3990, 90.46546
757.8811, 90.15363
758.3632, 90.02687
758.8453, 90.09146
759.3275, 89.96304
759.8096, 89.50281
760.2917, 89.09542
760.7738, 88.89589
761.2559, 88.90433
761.7380, 89.18990
762.2202, 89.76186
762.7023, 90.23538
763.1844, 90.32067
763.6665, 90.14317
764.1486, 89.82359
764.6307, 89.37828
765.1129, 88.98729
765.5950, 88.65208
766.0771, 88.47224
766.5592, 88.57682
767.0413, 89.07490
767.5234, 89.33178
768.0056, 89.23017
768.4877, 89.07032
768.9698, 89.09354
769.4519, 89.29457
769.9340, 89.25002
770.4161, 88.93249
770.8983, 88.60130
771.3804, 88.51241
771.8625, 88.55100
772.3446, 88.53981
772.8267, 88.45210
773.3088, 88.36956
773.7910, 88.36287
774.2731, 88.35742
774.7552, 88.29401
775.2373, 88.15223
775.7194, 87.96494
776.2015, 87.60006
776.6837, 87.38547
777.1658, 87.76423
777.6479, 88.70895
778.1300, 89.08572
778.6121, 88.75025
779.0942, 88.30691
779.5764, 88.42078
780.0585, 88.80112
780.5406, 89.01555
781.0227, 88.96848
781.5048, 88.81557
781.9869, 88.54087
782.4691, 88.24493
782.9512, 88.00933
783.4332, 87.73534
783.9153, 87.75640
784.3975, 88.18767
784.8796, 88.72507
785.3617, 89.08934
785.8438, 89.27453
786.3259, 89.18184
786.8080, 88.74515
787.2902, 88.31831
787.7723, 88.37124
788.2544, 88.63420
788.7365, 88.69031
789.2186, 88.31783
789.7007, 88.07098
790.1829, 88.24571
790.6650, 88.59133
791.1471, 88.87284
791.6292, 89.23389
792.1113, 89.11115
792.5934, 88.25790
793.0756, 87.34570
793.5577, 87.31824
794.0398, 88.03083
794.5219, 88.58999
795.0040, 88.84743
795.4861, 88.91908
795.9683, 88.78210
796.4504, 88.58811
796.9325, 88.55141
797.4146, 88.86452
797.8967, 89.06907
798.3788, 88.85641
798.8610, 88.60001
799.3431, 88.72633
799.8252, 89.42680
800.3073, 89.81726
800.7894, 89.76876
801.2715, 89.54021
801.7537, 89.41163
802.2358, 89.38290
802.7179, 89.48277
803.2000, 89.76059
803.6821, 89.99737
804.1642, 89.95054
804.6464, 89.79755
805.1285, 89.75875
805.6106, 90.04855
806.0927, 90.16985
806.5748, 89.95495
807.0569, 89.67211
807.5391, 89.62530
808.0212, 89.85715
808.5033, 89.98827
808.9854, 89.95794
809.4675, 89.89985
809.9496, 90.05187
810.4318, 90.29086
810.9139, 90.28487
811.3960, 89.83659
811.8781, 89.57030
812.3602, 90.17603
812.8423, 90.98477
813.3245, 91.25729
813.8066, 90.27825
814.2887, 89.88584
814.7708, 90.36702
815.2529, 91.03844
815.7350, 91.03340
816.2172, 90.40163
816.6993, 90.20663
817.1814, 90.64080
817.6635, 91.15745
818.1456, 91.11361
818.6277, 90.82223
819.1099, 90.72764
819.5920, 90.99025
820.0741, 91.25150
820.5562, 91.47202
821.0383, 91.58367
821.5204, 91.53271
822.0026, 91.27090
822.4847, 90.93948
822.9668, 90.47193
823.4489, 90.12174
823.9310, 90.34914
824.4131, 90.93069
824.8953, 90.95429
825.3774, 90.23646
825.8595, 89.69999
826.3416, 90.29312
826.8237, 91.26899
827.3058, 91.96613
827.7880, 92.28355
828.2701, 92.23141
828.7522, 91.41016
829.2343, 90.68827
829.7164, 90.86486
830.1985, 92.05357
830.6807, 92.43568
831.1628, 91.89214
831.6449, 91.24158
832.1270, 91.33401
832.6091, 91.77996
833.0912, 91.92315
833.5734, 91.67961
834.0555, 91.45016
834.5376, 91.35598
835.0197, 91.39851
835.5018, 91.63316
835.9839, 92.10219
836.4661, 92.42133
836.9482, 92.58952
837.4303, 92.60592
837.9124, 92.38539
838.3945, 91.99612
838.8766, 91.76189
839.3588, 91.68509
839.8409, 91.74259
840.3230, 91.96647
840.8051, 92.28398
841.2872, 92.73309
841.7693, 93.30885
842.2515, 93.55730
842.7336, 93.08450
843.2157, 92.60997
843.6978, 92.34978
844.1799, 92.30775
844.6620, 92.66340
845.1442, 93.45047
845.6263, 94.05991
846.1084, 94.01005
846.5905, 93.61451
847.0726, 93.28803
847.5547, 93.04542
848.0369, 92.93748
848.5190, 93.19105
849.0011, 93.38464
849.4832, 93.19413
849.9653, 92.73751
850.4474, 92.69719
850.9296, 93.23351
851.4117, 93.69748
851.8938, 93.82133
852.3759, 93.76932
852.8580, 94.07234
853.3401, 94.62281
853.8223, 94.92087
854.3044, 94.39326
854.7865, 93.85059
855.2686, 93.96227
855.7507, 94.47962
856.2328, 94.79158
856.7150, 94.58952
857.1971, 94.45305
857.6792, 94.49374
858.1613, 94.62192
858.6434, 94.60583
859.1255, 94.45501
859.6077, 94.48530
860.0898, 94.86101
860.5719, 95.26185
861.0540, 95.28033
861.5361, 95.07101
862.0182, 94.89112
862.5004, 94.82776
862.9825, 94.79065
863.4646, 94.75335
863.9467, 94.73521
864.4288, 94.78164
864.9109, 94.93015
865.3931, 94.91766
865.8752, 94.67335
866.3573, 94.43070
866.8394, 94.49268
867.3215, 94.76281
867.8036, 95.11401
868.2858, 95.59818
868.7679, 95.76149
869.2500, 94.95618
869.7321, 93.98905
870.2142, 93.61206
870.6964, 94.04377
871.1785, 94.37644
871.6606, 94.62082
872.1427, 94.73344
872.6248, 94.55279
873.1069, 94.19105
873.5891, 94.20271
874.0712, 94.60055
874.5533, 94.95967
875.0354, 94.79448
875.5175, 94.59612
875.9996, 94.90588
876.4818, 95.79007
876.9639, 96.09177
877.4460, 95.34095
877.9281, 94.60229
878.4102, 94.31395
878.8923, 94.42004
879.3745, 94.62087
879.8566, 94.90948
880.3387, 95.14829
880.8208, 95.23976
881.3029, 95.25739
881.7850, 95.27869
882.2672, 95.29205
882.7493, 95.25445
883.2314, 95.01537
883.7135, 94.90507
884.1956, 95.09847
884.6777, 95.43104
885.1599, 95.41012
885.6420, 95.00935
886.1241, 94.70409
886.6062, 94.66572
887.0883, 94.71601
887.5704, 94.60885
888.0526, 94.40621
888.5347, 94.21603
889.0168, 93.94164
889.4989, 93.87777
889.9810, 94.41960
890.4631, 95.04391
890.9453, 95.11473
891.4274, 94.45490
891.9095, 94.00391
892.3916, 93.83387
892.8737, 93.88543
893.3558, 94.25597
893.8380, 94.76046
894.3201, 94.99632
894.8022, 94.87967
895.2843, 94.70911
895.7664, 94.60010
896.2485, 94.52607
896.7307, 94.43778
897.2128, 94.29627
897.6949, 94.45351
898.1770, 95.05844
898.6591, 95.48064
899.1412, 95.09048
899.6234, 94.21566
900.1055, 93.83549
900.5876, 93.91634
901.0697, 94.06603
901.5518, 93.97841
902.0339, 93.95090
902.5161, 94.26586
902.9982, 94.85703
903.4803, 95.13159
903.9624, 94.94617
904.4445, 94.76003
904.9266, 94.68636
905.4088, 94.72974
905.8909, 95.01956
906.3730, 95.46586
906.8551, 95.68230
907.3372, 95.37209
907.8193, 94.98324
908.3015, 94.65108
908.7836, 94.48455
909.2657, 94.70797
909.7478, 95.79915
910.2299, 96.41167
910.7120, 96.37668
911.1942, 95.96988
911.6763, 95.34096
912.1584, 94.60330
912.6405, 94.41277
913.1226, 94.92506
913.6047, 95.54116
914.0869, 95.82301
914.5690, 95.96156
915.0511, 96.15158
915.5332, 96.47462
916.0153, 96.58495
916.4974, 96.33611
916.9796, 96.11105
917.4617, 96.17604
917.9438, 96.48164
918.4259, 96.67528
918.9080, 96.76215
919.3901, 96.81487
919.8723, 96.93227
920.3544, 96.99050
920.8365, 96.78054
921.3186, 96.38334
921.8007, 96.26733
922.2828, 96.65546
922.7650, 97.07051
923.2471, 97.44908
923.7292, 97.74098
924.2113, 97.72529
924.6934, 97.45837
925.1755, 97.34853
925.6577, 97.60305
926.1398, 97.90977
926.6219, 98.04870
927.1040, 98.05187
927.5861, 97.96179
928.0682, 97.54445
928.5504, 97.42016
929.0325, 97.69652
929.5146, 98.11539
929.9967, 98.46832
930.4788, 98.74057
930.9609, 98.75208
931.4431, 98.47165
931.9252, 98.33064
932.4073, 98.94279
932.8894, 99.64899
933.3715, 99.79742
933.8536, 99.27755
934.3358, 99.01066
934.8179, 99.21404
935.3000, 99.40736
935.7821, 99.32201
936.2642, 99.08456
936.7463, 99.33986
937.2285, 100.0054
937.7106, 100.4809
938.1927, 100.1591
938.6748, 99.81714
939.1569, 100.2120
939.6390, 100.9961
940.1212, 101.3706
940.6033, 100.9644
941.0854, 100.6054
941.5675, 100.3115
942.0496, 100.2035
942.5317, 100.6710
943.0139, 101.5400
943.4960, 101.8713
943.9781, 101.4121
944.4602, 101.0070
944.9423, 101.4464
945.4244, 102.1434
945.9066, 102.5779
946.3887, 102.6115
946.8708, 102.6444
947.3529, 102.6961
947.8350, 102.7035
948.3171, 102.5392
948.7993, 102.3024
949.2814, 102.4666
949.7635, 102.9707
950.2456, 103.3935
950.7277, 103.2234
951.2098, 103.1503
951.6920, 103.8307
952.1741, 104.9588
952.6562, 105.3636
953.1383, 104.7173
953.6204, 104.2112
954.1025, 104.1142
954.5847, 104.2086
955.0668, 104.0568
955.5489, 103.8014
956.0310, 103.8716
956.5131, 104.5100
956.9952, 105.0636
957.4774, 105.0354
957.9595, 104.8751
958.4416, 105.0314
958.9237, 105.6483
959.4058, 105.9128
959.8879, 105.7526
960.3701, 105.5578
960.8522, 105.6189
961.3343, 105.8593
961.8164, 106.1470
962.2985, 106.4732
962.7806, 106.8061
963.2628, 107.2183
963.7449, 107.5319
964.2270, 107.5276
964.7091, 107.3987
965.1912, 107.8285
965.6733, 108.8995
966.1555, 109.6726
966.6376, 109.8496
967.1197, 109.7669
967.6018, 109.6672
968.0839, 109.6808
968.5660, 110.0792
969.0482, 111.2701
969.5303, 112.0788
970.0124, 112.0247
970.4945, 111.7838
970.9766, 111.8378
971.4587, 112.1938
971.9409, 112.6037
972.4230, 113.0663
972.9051, 113.4093
973.3872, 113.3439
973.8693, 113.2119
974.3514, 113.3623
974.8336, 113.7708
975.3157, 114.1838
975.7978, 114.4730
976.2799, 114.8885
976.7620, 115.5210
977.2441, 116.2839
977.7263, 117.0169
978.2084, 117.7123
978.6905, 118.2840
979.1726, 118.6851
979.6547, 119.0232
980.1368, 119.2495
980.6190, 119.5274
981.1010, 120.0589
981.5831, 120.9470
982.0652, 121.8756
982.5474, 122.9141
983.0295, 123.7989
983.5116, 124.1550
983.9937, 124.2138
984.4758, 124.6942
984.9579, 125.5510
985.4401, 126.3161
985.9222, 126.5481
986.4043, 126.8189
986.8864, 127.4039
987.3685, 128.2415
987.8506, 129.1999
988.3328, 130.2913
988.8149, 131.3858
989.2970, 132.4807
989.7791, 133.4876
990.2612, 134.2119
990.7433, 134.7905
991.2255, 135.4531
991.7076, 136.2786
992.1897, 137.0971
992.6718, 137.8062
993.1539, 138.5518
993.6360, 139.4248
994.1182, 140.4235
994.6003, 141.4206
995.0824, 142.4276
995.5645, 143.6183
996.0466, 145.2330
996.5287, 146.9997
997.0109, 148.7267
997.4930, 150.4015
997.9751, 152.0399
998.4572, 153.4417
998.9393, 155.2049
999.4214, 157.4500
999.9036, 160.0515
1000.386, 162.8414
1000.868, 165.7840
1001.350, 168.6685
1001.832, 171.3664
1002.314, 174.4152
1002.796, 178.0846
1003.278, 182.2167
1003.760, 186.5635
1004.243, 191.0943
1004.725, 196.5548
1005.207, 203.0977
1005.689, 209.9229
1006.171, 216.4274
1006.653, 223.1274
1007.135, 231.1785
1007.617, 240.2852
1008.100, 249.8925
1008.582, 259.3929
1009.064, 269.7816
1009.546, 280.9328
1010.028, 293.1684
1010.510, 306.9991
1010.992, 322.3950
1011.474, 338.7007
1011.956, 355.9740
1012.439, 374.3180
1012.921, 393.7682
1013.403, 414.4401
1013.885, 436.6214
1014.367, 460.3897
1014.849, 484.6643
1015.331, 509.3258
1015.813, 534.5159
1016.296, 560.2220
1016.778, 586.2589
1017.260, 612.5311
1017.742, 638.6640
1018.224, 664.0988
1018.706, 687.0580
1019.188, 711.8482
1019.670, 739.8740
1020.152, 770.7183
1020.635, 804.0268
1021.117, 840.2369
1021.599, 877.4001
1022.081, 915.8466
1022.563, 952.7630
1023.045, 987.9780
1023.527, 1018.988
1024.009, 1044.436
1024.492, 1063.531
1024.974, 1072.278
1025.456, 1069.885
1025.938, 1056.544
1026.420, 1032.582
1026.902, 997.4502
1027.384, 947.5732
1027.866, 885.2189
1028.349, 817.9251
1028.831, 745.9311
1029.313, 678.0387
1029.795, 617.2090
1030.277, 564.1993
1030.759, 520.2537
1031.241, 485.1404
1031.723, 455.2424
1032.205, 430.4989
1032.688, 409.8237
1033.170, 393.2247
1033.652, 379.7567
1034.134, 369.2014
1034.616, 360.7262
1035.098, 352.0076
1035.580, 341.4764
1036.062, 331.7976
1036.544, 323.8295
1037.027, 316.1647
1037.509, 307.3652
1037.991, 297.4143
1038.473, 286.4628
1038.955, 274.4253
1039.437, 262.6870
1039.919, 252.1686
1040.401, 242.3672
1040.884, 232.7841
1041.366, 223.5505
1041.848, 215.1640
1042.330, 207.7217
1042.812, 200.9370
1043.294, 194.6469
1043.776, 188.9893
1044.258, 184.1153
1044.740, 179.8207
1045.223, 175.6721
1045.705, 171.2845
1046.187, 167.7607
1046.669, 165.6580
1047.151, 163.9631
1047.633, 162.1834
1048.115, 160.3018
1048.597, 158.1056
1049.079, 155.6409
1049.562, 153.4633
1050.044, 152.1625
1050.526, 150.9586
1051.008, 149.2377
1051.490, 147.3212
1051.972, 145.9614
1052.454, 145.3426
1052.936, 144.5700
1053.419, 143.5298
1053.901, 142.4247
1054.383, 141.4044
1054.865, 140.5003
1055.347, 139.8395
1055.829, 139.4266
1056.311, 138.7039
1056.793, 136.9406
1057.276, 135.6602
1057.758, 135.4538
1058.240, 135.9283
1058.722, 136.1345
1059.204, 136.0766
1059.686, 135.7108
1060.168, 134.8664
1060.650, 134.1470
1061.132, 134.0203
1061.615, 134.1198
1062.097, 134.1335
1062.579, 134.0643
1063.061, 133.7707
1063.543, 133.2271
1064.025, 132.7355
1064.507, 132.5464
1064.989, 132.4710
1065.471, 132.3407
1065.954, 132.1358
1066.436, 131.8031
1066.918, 131.0596
1067.400, 130.6226
1067.882, 130.6189
1068.364, 130.7895
1068.846, 130.7993
1069.328, 130.7345
1069.811, 130.9317
1070.293, 131.3984
1070.775, 131.7151
1071.257, 131.6914
1071.739, 131.4077
1072.221, 130.6873
1072.703, 129.7999
1073.185, 129.6945
1073.667, 130.3607
1074.150, 130.9425
1074.632, 131.2180
1075.114, 131.3224
1075.596, 131.1241
1076.078, 130.9764
1076.560, 131.3352
1077.042, 132.3999
1077.524, 133.1443
1078.006, 133.5035
1078.489, 133.7647
1078.971, 134.0196
1079.453, 134.3186
1079.935, 134.7891
1080.417, 135.3764
1080.899, 135.9483
1081.381, 136.1681
1081.863, 136.8183
1082.345, 138.2372
1082.828, 139.7648
1083.310, 140.6321
1083.792, 140.9787
1084.274, 141.7771
1084.756, 143.0483
1085.238, 144.5212
1085.720, 146.2217
1086.202, 147.8778
1086.685, 149.3805
1087.167, 150.7127
1087.649, 151.7431
1088.131, 152.4058
1088.613, 153.4346
1089.095, 154.9996
1089.577, 156.6844
1090.059, 158.0355
1090.542, 159.2902
1091.024, 160.7455
1091.506, 162.4533
1091.988, 163.9541
1092.470, 165.1808
1092.952, 166.3622
1093.434, 167.6263
1093.916, 168.8241
1094.398, 169.6800
1094.880, 170.2462
1095.363, 170.5904
1095.845, 170.6323
1096.327, 170.7502
1096.809, 171.3210
1097.291, 171.6408
1097.773, 171.1095
1098.255, 169.8926
1098.737, 169.3680
1099.220, 169.4174
1099.702, 169.2802
1100.184, 168.4273
1100.666, 167.4221
1101.148, 166.5862
1101.630, 165.7337
1102.112, 164.5417
1102.594, 162.9017
1103.077, 161.7453
1103.559, 161.1305
1104.041, 160.7383
1104.523, 160.4287
1105.005, 160.1134
1105.487, 159.6502
1105.969, 159.0849
1106.451, 158.6675
1106.933, 158.3712
1107.416, 158.3672
1107.898, 158.7867
1108.380, 159.2012
1108.862, 158.8524
1109.344, 158.1988
1109.826, 158.0545
1110.308, 158.5688
1110.790, 158.9453
1111.272, 158.9579
1111.755, 158.8733
1112.237, 158.8578
1112.719, 158.7299
1113.201, 157.7692
1113.683, 156.2766
1114.165, 155.2768
1114.647, 155.2952
1115.129, 155.1241
1115.612, 154.0445
1116.094, 152.7288
1116.576, 151.6481
1117.058, 150.7768
1117.540, 149.6355
1118.022, 148.2476
1118.504, 146.9204
1118.986, 145.7863
1119.469, 144.7931
1119.951, 144.0724
1120.433, 143.3890
1120.915, 142.3829
1121.397, 140.9419
1121.879, 139.6925
1122.361, 138.6505
1122.843, 137.7678
1123.325, 137.1244
1123.807, 136.5321
1124.290, 135.8391
1124.772, 135.0274
1125.254, 134.0216
1125.736, 132.5327
1126.218, 131.5675
1126.700, 131.2959
1127.182, 131.3943
1127.664, 131.6502
1128.147, 131.9497
1128.629, 132.1368
1129.111, 132.1906
1129.593, 132.0260
1130.075, 131.2797
1130.557, 130.8378
1131.039, 131.0904
1131.521, 131.5078
1132.004, 130.8392
1132.486, 129.5252
1132.968, 128.8378
1133.450, 129.0825
1133.932, 129.5039
1134.414, 130.1615
1134.896, 130.4597
1135.378, 129.9285
1135.860, 128.8785
1136.343, 128.7063
1136.825, 129.2822
1137.307, 129.8391
1137.789, 130.1540
1138.271, 130.3174
1138.753, 130.2283
1139.235, 130.1268
1139.717, 130.2174
1140.199, 130.5002
1140.682, 130.8373
1141.164, 131.2246
1141.646, 131.6473
1142.128, 132.2470
1142.610, 132.6902
1143.092, 132.4398
1143.574, 131.9692
1144.056, 132.0407
1144.539, 132.9436
1145.021, 133.3667
1145.503, 133.2497
1145.985, 133.0729
1146.467, 133.2122
1146.949, 133.4722
1147.431, 133.5087
1147.913, 133.4917
1148.396, 133.9701
1148.878, 135.3069
1149.360, 136.2971
1149.842, 136.7669
1150.324, 137.1557
1150.806, 138.0502
1151.288, 139.0776
1151.770, 139.5897
1152.252, 139.6403
1152.734, 139.9267
1153.217, 140.7156
1153.699, 141.5819
1154.181, 142.5244
1154.663, 143.3632
1155.145, 143.6944
1155.627, 143.7841
1156.109, 144.2248
1156.591, 145.0955
1157.074, 145.9514
1157.556, 146.7702
1158.038, 147.3589
1158.520, 147.5226
1159.002, 147.5869
1159.484, 148.3411
1159.966, 149.6030
1160.448, 150.8741
1160.931, 152.0947
1161.413, 153.0395
1161.895, 153.3760
1162.377, 153.6209
1162.859, 153.9785
1163.341, 154.4374
1163.823, 155.0255
1164.305, 155.6917
1164.787, 156.1829
1165.270, 156.3665
1165.752, 156.4804
1166.234, 156.7186
1166.716, 156.8525
1167.198, 156.6195
1167.680, 156.8830
1168.162, 156.2267
1168.644, 156.9704
1169.126, 157.4923
1169.609, 157.2892
1170.091, 156.9604
1170.573, 156.9892
1171.055, 156.9746
1171.537, 156.4218
1172.019, 155.2456
1172.501, 154.5757
1172.983, 154.4118
1173.466, 154.3343
1173.948, 154.1557
1174.430, 153.8997
1174.912, 153.6235
1175.394, 153.2541
1175.876, 152.6657
1176.358, 151.8329
1176.840, 150.9606
1177.323, 150.0537
1177.805, 149.3314
1178.287, 148.9700
1178.769, 148.8680
1179.251, 149.1137
1179.733, 149.5330
1180.215, 149.6706
1180.697, 149.4462
1181.179, 149.2837
1181.661, 149.2114
1182.144, 149.2952
1182.626, 149.7339
1183.108, 150.2489
1183.590, 150.4770
1184.072, 150.5171
1184.554, 150.8736
1185.036, 151.6159
1185.518, 152.4183
1186.001, 153.2324
1186.483, 154.1334
1186.965, 155.2798
1187.447, 156.4915
1187.929, 157.4095
1188.411, 158.9418
1188.893, 160.5567
1189.375, 161.9505
1189.858, 164.1628
1190.340, 165.8069
1190.822, 167.4680
1191.304, 169.8564
1191.786, 172.7182
1192.268, 175.8063
1192.750, 179.0979
1193.232, 182.3767
1193.714, 185.4788
1194.197, 189.1021
1194.679, 193.5183
1195.161, 198.2699
1195.643, 202.6489
1196.125, 206.9695
1196.607, 211.7016
1197.089, 216.9724
1197.571, 222.2205
1198.053, 227.5117
1198.536, 232.5544
1199.018, 237.3145
1199.500, 241.8223
1199.982, 246.1571
1200.464, 250.2615
1200.946, 254.2154
1201.428, 258.2729
1201.910, 260.7669
1202.393, 261.6239
1202.875, 261.1658
1203.357, 259.5045
1203.839, 256.6826
1204.321, 252.4523
1204.803, 247.2027
1205.285, 241.6159
1205.767, 235.8845
1206.250, 229.2661
1206.732, 221.3044
1207.214, 213.7068
1207.696, 207.7280
1208.178, 202.4685
1208.660, 196.3973
1209.142, 189.9714
1209.624, 184.0641
1210.106, 178.8117
1210.589, 174.2968
1211.071, 170.6170
1211.553, 167.2622
1212.035, 163.8028
1212.517, 160.4960
1212.999, 157.6861
1213.481, 155.2701
1213.963, 153.0108
1214.445, 150.8960
1214.928, 148.8039
1215.410, 146.6582
1215.892, 144.7253
1216.374, 143.2172
1216.856, 142.0323
1217.338, 141.0906
1217.820, 140.3291
1218.302, 139.6099
1218.785, 139.0290
1219.267, 138.1657
1219.749, 136.9038
1220.231, 135.7182
1220.713, 135.0521
1221.195, 134.6308
1221.677, 134.0890
1222.159, 133.4468
1222.641, 132.7819
1223.124, 132.0513
1223.606, 131.4067
1224.088, 130.8228
1224.570, 130.4336
1225.052, 130.6697
1225.534, 130.9467
1226.016, 130.3406
1226.498, 129.1041
1226.980, 128.1775
1227.463, 127.7650
1227.945, 127.3746
1228.427, 126.9658
1228.909, 126.5805
1229.391, 126.3130
1229.873, 126.0470
1230.355, 125.5901
1230.837, 125.0165
1231.320, 124.6025
1231.802, 124.3752
1232.284, 124.2552
1232.766, 124.2408
1233.248, 124.2984
1233.730, 124.4992
1234.212, 124.6756
1234.694, 124.7127
1235.177, 124.5692
1235.659, 124.0964
1236.141, 123.1733
1236.623, 122.5939
1237.105, 122.4799
1237.587, 122.5255
1238.069, 122.6305
1238.551, 122.6110
1239.033, 122.0941
1239.516, 122.1635
1239.998, 122.1175
1240.480, 121.8275
1240.962, 122.1308
1241.444, 121.9017
1241.926, 121.6342
1242.408, 121.8718
1242.890, 122.1220
1243.372, 121.9843
1243.855, 121.5453
1244.337, 121.0053
1244.819, 120.3536
1245.301, 120.2106
1245.783, 120.7148
1246.265, 121.0707
1246.747, 120.4352
1247.229, 119.6627
1247.712, 119.3158
1248.194, 119.2575
1248.676, 119.1790
1249.158, 119.0852
1249.640, 118.9899
1250.122, 118.8922
1250.604, 118.9021
1251.086, 119.4370
1251.568, 119.6972
1252.051, 119.0486
1252.533, 118.0087
1253.015, 117.8264
1253.497, 118.3284
1253.979, 118.5796
1254.461, 118.4224
1254.943, 118.2570
1255.425, 118.2583
1255.907, 118.3679
1256.390, 118.6506
1256.872, 118.9158
1257.354, 118.6396
1257.836, 118.0256
1258.318, 117.8224
1258.800, 118.1511
1259.282, 118.3624
1259.764, 117.9584
1260.247, 117.7195
1260.729, 117.9335
1261.211, 118.2984
1261.693, 118.2873
1262.175, 118.0224
1262.657, 117.6903
1263.139, 117.3151
1263.621, 117.2280
1264.104, 117.7231
1264.586, 118.0570
1265.068, 117.9888
1265.550, 117.8316
1266.032, 118.0362
1266.514, 118.4696
1266.996, 118.9483
1267.478, 119.4464
1267.960, 119.9874
1268.443, 120.7667
1268.925, 120.9215
1269.407, 120.1000
1269.889, 119.1042
1270.371, 118.9286
1270.853, 119.1041
1271.335, 119.1476
1271.817, 119.0029
1272.299, 118.7007
1272.782, 118.2078
1273.264, 117.7780
1273.746, 117.4603
1274.228, 117.2424
1274.710, 117.0273
1275.192, 116.9661
1275.674, 117.3646
1276.156, 118.0449
1276.639, 118.2367
1277.121, 117.9364
1277.603, 117.5448
1278.085, 117.1231
1278.567, 116.8401
1279.049, 116.9926
1279.531, 117.1626
1280.013, 117.1375
1280.495, 116.9222
1280.978, 116.3269
1281.460, 115.4859
1281.942, 115.3963
1282.424, 116.2573
1282.906, 116.9574
1283.388, 116.7568
1283.870, 116.4342
1284.352, 116.2259
1284.834, 116.1492
1285.317, 116.3488
1285.799, 116.6917
1286.281, 116.7469
1286.763, 116.4637
1287.245, 116.3598
1287.727, 116.8214
1288.209, 117.1365
1288.691, 117.1138
1289.173, 116.9631
1289.656, 117.0632
1290.138, 117.1995
1290.620, 116.8564
1291.102, 116.9491
1291.584, 117.0831
1292.066, 116.7595
1292.548, 117.2831
1293.030, 117.1678
1293.513, 116.8308
1293.995, 116.6304
1294.477, 116.5299
1294.959, 116.5231
1295.441, 116.5888
1295.923, 116.5977
1296.405, 116.5355
1296.887, 116.5601
1297.370, 116.7026
1297.852, 116.8491
1298.334, 116.9121
1298.816, 116.9526
1299.298, 117.0377
1299.780, 117.0740
1300.262, 116.8521
1300.744, 116.4255
1301.226, 116.5419
1301.708, 117.2575
1302.191, 117.7880
1302.673, 117.5426
1303.155, 117.1102
1303.637, 116.6024
1304.119, 115.9690
##END=



