##NAMES=Cordierite
##RRUFFID=R100141
##IDEAL CHEMISTRY=Mg_2_Al_3_(AlSi_5_)O_18_
##LOCALITY=Madagascar
##OWNER=RRUFF
##SOURCE=William W. Pinch
##DESCRIPTION=Blue cut gemstone
##STATUS=The identification of this mineral has been confirmed by single-crystal X-ray diffraction.
##URL=rruff.info/R100141
132.4972, 10.61466
132.9794, 11.58288
133.4615, 12.54936
133.9436, 12.81019
134.4257, 12.42686
134.9078, 12.17334
135.3899, 12.08455
135.8721, 12.23974
136.3542, 12.98440
136.8363, 14.43028
137.3184, 15.97508
137.8005, 17.08501
138.2826, 17.70298
138.7648, 18.37350
139.2469, 19.15031
139.7290, 20.05434
140.2111, 21.18871
140.6932, 22.58365
141.1753, 24.17119
141.6575, 25.92317
142.1396, 27.97714
142.6217, 29.85387
143.1038, 31.34785
143.5859, 32.43567
144.0681, 33.91079
144.5502, 35.89146
145.0323, 38.16416
145.5144, 40.60860
145.9965, 43.71288
146.4786, 46.19493
146.9608, 47.51356
147.4429, 47.29708
147.9250, 47.58299
148.4071, 48.26075
148.8892, 49.48323
149.3713, 51.46325
149.8535, 54.79121
150.3356, 58.32340
150.8177, 61.78612
151.2998, 65.17419
151.7819, 68.49344
152.2640, 71.46720
152.7462, 74.41127
153.2283, 77.83369
153.7104, 81.48267
154.1925, 85.84459
154.6746, 91.21135
155.1567, 98.39182
155.6389, 105.0626
156.1210, 111.1594
156.6031, 116.5911
157.0852, 121.2132
157.5673, 125.3075
158.0495, 128.3554
158.5316, 130.1324
159.0137, 130.4812
159.4958, 129.6728
159.9779, 127.3322
160.4600, 123.7880
160.9422, 120.1133
161.4243, 116.0607
161.9064, 112.3469
162.3885, 109.5071
162.8706, 108.3928
163.3527, 107.2800
163.8349, 105.1718
164.3170, 102.3193
164.7991, 99.92422
165.2812, 98.66026
165.7633, 98.06107
166.2454, 97.70005
166.7276, 97.18586
167.2097, 97.11403
167.6918, 98.15516
168.1739, 100.1609
168.6560, 101.9749
169.1381, 102.6601
169.6203, 102.8053
170.1024, 102.4749
170.5845, 102.3381
171.0666, 102.5530
171.5487, 103.0785
172.0309, 103.8885
172.5130, 104.6624
172.9951, 105.3588
173.4772, 105.8543
173.9593, 105.9494
174.4414, 105.2189
174.9236, 104.2426
175.4057, 103.7307
175.8878, 103.6836
176.3699, 103.6090
176.8520, 103.1116
177.3341, 102.2795
177.8163, 101.2972
178.2984, 99.99515
178.7805, 98.67855
179.2626, 97.85401
179.7447, 97.56152
180.2268, 97.48507
180.7090, 97.39036
181.1911, 97.27444
181.6732, 97.12791
182.1553, 96.85294
182.6374, 96.55665
183.1195, 96.45383
183.6017, 96.54327
184.0838, 96.84423
184.5659, 97.52038
185.0480, 98.48854
185.5301, 99.36160
186.0123, 100.0716
186.4944, 100.5531
186.9765, 100.4243
187.4586, 99.54209
187.9407, 98.53574
188.4228, 98.37735
188.9050, 98.99065
189.3871, 99.60012
189.8692, 99.79521
190.3513, 99.64286
190.8334, 99.43542
191.3155, 99.14880
191.7977, 98.91097
192.2798, 99.09290
192.7619, 99.69500
193.2440, 100.0031
193.7261, 99.42374
194.2082, 98.06262
194.6904, 97.17139
195.1725, 96.91269
195.6546, 96.94931
196.1367, 96.57108
196.6188, 95.72743
197.1009, 95.10343
197.5831, 95.22059
198.0652, 96.07470
198.5473, 96.60641
199.0294, 96.69557
199.5115, 96.52389
199.9937, 96.42487
200.4758, 96.39443
200.9579, 96.45403
201.4400, 96.67030
201.9221, 97.06336
202.4042, 97.30569
202.8864, 97.34213
203.3685, 97.25412
203.8506, 97.20669
204.3327, 97.18454
204.8148, 97.26088
205.2969, 97.50583
205.7791, 97.94643
206.2612, 98.33944
206.7433, 98.62591
207.2254, 98.89011
207.7075, 99.45896
208.1896, 100.5345
208.6718, 101.3331
209.1539, 101.3662
209.6360, 100.4942
210.1181, 99.55882
210.6002, 98.54411
211.0823, 97.52792
211.5645, 96.73450
212.0466, 96.19524
212.5287, 95.80251
213.0108, 95.53748
213.4929, 95.45876
213.9750, 95.26575
214.4572, 94.88675
214.9393, 94.40707
215.4214, 94.06166
215.9035, 93.85770
216.3856, 93.76988
216.8678, 93.79823
217.3499, 93.96854
217.8320, 94.16389
218.3141, 94.37797
218.7962, 94.60881
219.2783, 94.83978
219.7605, 95.02613
220.2426, 95.28405
220.7247, 95.66497
221.2068, 96.15782
221.6889, 96.82185
222.1710, 97.78162
222.6532, 98.88472
223.1353, 99.56496
223.6174, 99.54433
224.0995, 99.58102
224.5816, 100.1098
225.0637, 101.4363
225.5459, 102.4690
226.0280, 103.0060
226.5101, 103.2689
226.9922, 103.9267
227.4743, 105.1418
227.9564, 106.5023
228.4386, 107.8518
228.9207, 109.2045
229.4028, 110.4272
229.8849, 111.3820
230.3670, 112.2388
230.8492, 113.5428
231.3313, 115.5049
231.8134, 117.5727
232.2955, 119.4291
232.7776, 120.5521
233.2597, 122.6353
233.7419, 125.9210
234.2240, 130.1170
234.7061, 134.3491
235.1882, 138.3868
235.6703, 142.7941
236.1524, 147.8895
236.6346, 153.8948
237.1167, 160.1266
237.5988, 167.0271
238.0809, 174.0154
238.5630, 179.9417
239.0451, 185.1096
239.5273, 188.6861
240.0094, 190.3077
240.4915, 189.7691
240.9736, 187.7116
241.4557, 183.6897
241.9378, 178.3360
242.4200, 172.9095
242.9021, 167.1520
243.3842, 161.6169
243.8663, 156.3686
244.3484, 151.0581
244.8306, 147.1432
245.3127, 145.2088
245.7948, 144.3898
246.2769, 143.0193
246.7590, 140.4111
247.2411, 138.4486
247.7233, 137.9472
248.2054, 139.4158
248.6875, 140.3857
249.1696, 140.3828
249.6517, 140.1901
250.1338, 141.1242
250.6160, 143.6229
251.0981, 146.4760
251.5802, 149.3179
252.0623, 152.1508
252.5444, 154.9673
253.0265, 157.3445
253.5087, 160.0343
253.9908, 164.1431
254.4729, 170.2605
254.9550, 176.6209
255.4371, 182.5085
255.9192, 187.6037
256.4014, 194.5148
256.8835, 204.0878
257.3656, 214.6426
257.8477, 224.5681
258.3298, 234.1114
258.8120, 242.5749
259.2941, 250.2489
259.7762, 257.2946
260.2583, 261.2285
260.7404, 262.5625
261.2225, 260.1938
261.7047, 252.4389
262.1868, 237.6797
262.6689, 221.5123
263.1510, 204.1405
263.6331, 185.8088
264.1152, 170.1772
264.5974, 157.6455
265.0795, 147.3684
265.5616, 139.0844
266.0437, 133.0636
266.5258, 127.7000
267.0079, 122.6372
267.4901, 117.9200
267.9722, 114.3805
268.4543, 112.1213
268.9364, 110.7648
269.4185, 110.2620
269.9006, 110.9488
270.3828, 110.9757
270.8649, 109.8041
271.3470, 107.7809
271.8291, 106.5878
272.3112, 106.4209
272.7933, 106.5307
273.2755, 106.2654
273.7576, 105.4833
274.2397, 105.3211
274.7218, 106.0880
275.2039, 107.4566
275.6860, 108.4167
276.1682, 108.8974
276.6503, 109.2709
277.1324, 109.7308
277.6145, 110.2692
278.0966, 110.9843
278.5787, 111.9327
279.0609, 113.0065
279.5430, 113.9598
280.0251, 114.7637
280.5072, 115.6211
280.9893, 116.6884
281.4715, 117.9566
281.9536, 119.0711
282.4357, 119.8980
282.9178, 120.7974
283.3999, 122.5593
283.8820, 125.2361
284.3642, 127.7997
284.8463, 129.5815
285.3284, 130.6873
285.8105, 132.2346
286.2926, 134.2231
286.7747, 136.6841
287.2569, 139.7015
287.7390, 143.2666
288.2211, 147.2085
288.7032, 151.5285
289.1853, 156.1774
289.6674, 161.0366
290.1496, 166.1437
290.6317, 171.3641
291.1138, 176.6048
291.5959, 181.8750
292.0780, 187.0642
292.5602, 192.3959
293.0423, 197.5782
293.5244, 202.1874
294.0065, 206.2357
294.4886, 208.8593
294.9707, 208.9922
295.4529, 206.9942
295.9350, 204.1749
296.4171, 200.8494
296.8992, 196.8838
297.3813, 191.8693
297.8634, 185.8951
298.3456, 179.6555
298.8277, 173.6043
299.3098, 167.7347
299.7919, 161.9997
300.2740, 156.2827
300.7561, 150.9672
301.2383, 146.8991
301.7204, 143.8570
302.2025, 141.1153
302.6846, 138.0594
303.1667, 135.0322
303.6488, 132.5306
304.1310, 130.7307
304.6131, 129.2255
305.0952, 127.7655
305.5773, 126.3176
306.0594, 124.7993
306.5415, 122.9342
307.0237, 121.0809
307.5058, 119.7542
307.9879, 119.1157
308.4700, 118.2625
308.9521, 116.0804
309.4343, 113.2482
309.9164, 110.9134
310.3985, 109.6053
310.8806, 108.9386
311.3627, 108.9419
311.8448, 109.6238
312.3270, 109.8587
312.8091, 108.2034
313.2912, 105.9666
313.7733, 104.6945
314.2554, 105.9941
314.7375, 107.4815
315.2197, 107.8789
315.7018, 107.2870
316.1839, 106.6061
316.6660, 106.1764
317.1481, 105.8627
317.6302, 105.5432
318.1124, 104.8832
318.5945, 104.5866
319.0766, 105.1341
319.5587, 106.2926
320.0408, 107.2589
320.5229, 107.4738
321.0051, 107.6426
321.4872, 108.1809
321.9693, 109.3520
322.4514, 110.5061
322.9335, 111.2804
323.4156, 111.9671
323.8978, 113.1296
324.3799, 115.6892
324.8620, 118.0241
325.3441, 119.5809
325.8262, 120.2166
326.3083, 120.3526
326.7905, 120.1076
327.2726, 119.3489
327.7547, 117.9218
328.2368, 114.8677
328.7189, 112.1309
329.2010, 110.1198
329.6832, 108.9079
330.1653, 107.7922
330.6474, 106.8679
331.1295, 105.9725
331.6116, 104.9325
332.0938, 103.3957
332.5759, 102.2822
333.0580, 101.8473
333.5401, 101.9894
334.0222, 101.9527
334.5043, 101.5301
334.9865, 101.2126
335.4686, 101.4293
335.9507, 102.6935
336.4328, 102.9789
336.9149, 101.6534
337.3970, 99.53445
337.8792, 99.07726
338.3613, 100.9734
338.8434, 102.5574
339.3255, 102.3556
339.8076, 100.0088
340.2898, 98.73492
340.7719, 98.80296
341.2540, 99.46218
341.7361, 99.57754
342.2182, 99.08427
342.7003, 98.64973
343.1825, 98.48442
343.6646, 98.57201
344.1467, 98.82700
344.6288, 99.25985
345.1109, 99.81591
345.5930, 100.5235
346.0752, 101.3499
346.5573, 102.0314
347.0394, 102.3985
347.5215, 102.6766
348.0036, 103.3446
348.4857, 104.3995
348.9679, 105.7757
349.4500, 107.8656
349.9321, 110.2822
350.4142, 111.7859
350.8963, 111.9873
351.3784, 111.7663
351.8606, 112.3049
352.3427, 113.4121
352.8248, 114.3956
353.3069, 114.6600
353.7890, 114.6383
354.2711, 115.0329
354.7533, 115.9569
355.2354, 116.7428
355.7175, 116.5906
356.1996, 115.9260
356.6817, 115.4914
357.1638, 115.7500
357.6460, 116.2460
358.1281, 116.5809
358.6102, 116.7761
359.0923, 117.1885
359.5744, 118.0721
360.0565, 119.2449
360.5387, 120.5427
361.0208, 122.0579
361.5029, 123.5230
361.9850, 124.7101
362.4671, 125.7270
362.9492, 126.8911
363.4314, 128.0741
363.9135, 129.6069
364.3956, 131.7807
364.8777, 135.0376
365.3598, 137.9889
365.8419, 140.6576
366.3241, 142.7831
366.8062, 143.9478
367.2883, 143.9836
367.7704, 143.1607
368.2526, 141.4436
368.7347, 138.7293
369.2168, 135.6714
369.6989, 132.1249
370.1810, 128.3311
370.6631, 124.4046
371.1453, 119.7838
371.6274, 115.8700
372.1095, 112.9689
372.5916, 110.9367
373.0737, 108.8846
373.5558, 106.6079
374.0380, 104.5875
374.5201, 103.1018
375.0022, 102.3036
375.4843, 101.5826
375.9664, 100.9219
376.4485, 100.3280
376.9307, 99.83201
377.4128, 99.47844
377.8949, 99.04842
378.3770, 98.42005
378.8591, 97.60962
379.3412, 96.83501
379.8234, 96.05542
380.3055, 95.47771
380.7876, 95.48984
381.2697, 96.05186
381.7518, 96.45788
382.2339, 96.54855
382.7161, 96.34869
383.1982, 95.74142
383.6803, 94.75072
384.1624, 93.91863
384.6445, 93.76176
385.1266, 94.07528
385.6088, 94.39851
386.0909, 94.70809
386.5730, 94.87031
387.0551, 94.72514
387.5372, 94.30372
388.0193, 93.68642
388.5015, 92.46230
388.9836, 91.30943
389.4657, 91.13156
389.9478, 92.00368
390.4299, 92.90322
390.9120, 93.17756
391.3942, 93.06127
391.8763, 92.83676
392.3584, 92.53847
392.8405, 92.21692
393.3226, 91.72935
393.8047, 91.17769
394.2869, 91.02796
394.7690, 92.08223
395.2511, 93.17228
395.7332, 93.50237
396.2154, 92.47071
396.6975, 91.68177
397.1796, 91.62082
397.6617, 91.98593
398.1438, 92.25557
398.6259, 92.16039
399.1081, 92.15810
399.5902, 92.44338
400.0723, 93.08866
400.5544, 93.51098
401.0365, 93.50998
401.5186, 93.43323
402.0008, 93.58645
402.4829, 94.20005
402.9650, 94.59577
403.4471, 94.61584
403.9292, 94.36181
404.4113, 94.26656
404.8935, 94.37521
405.3756, 94.53605
405.8577, 94.64704
406.3398, 94.67966
406.8219, 94.91370
407.3040, 95.43668
407.7862, 96.00408
408.2683, 96.25623
408.7504, 96.18774
409.2325, 96.00655
409.7146, 95.57417
410.1967, 95.13255
410.6789, 95.69003
411.1610, 97.28576
411.6431, 98.89133
412.1252, 99.34908
412.6073, 99.08435
413.0894, 99.38539
413.5716, 100.6813
414.0537, 102.2068
414.5358, 102.9466
415.0179, 103.0990
415.5000, 103.3390
415.9821, 103.8781
416.4643, 104.7671
416.9464, 106.2601
417.4285, 108.4161
417.9106, 110.3671
418.3927, 111.0856
418.8748, 111.4373
419.3570, 112.4358
419.8391, 115.0097
420.3212, 117.7362
420.8033, 120.0430
421.2854, 122.0044
421.7675, 124.0251
422.2497, 125.8710
422.7318, 128.0789
423.2139, 130.9278
423.6960, 134.5418
424.1781, 138.5806
424.6602, 143.5772
425.1424, 148.8200
425.6245, 153.2043
426.1066, 156.0888
426.5887, 158.8677
427.0709, 161.9507
427.5530, 165.3368
428.0351, 168.0208
428.5172, 170.5129
428.9993, 171.6333
429.4814, 170.3556
429.9636, 166.1949
430.4457, 161.4081
430.9278, 155.9665
431.4099, 150.2052
431.8920, 144.8523
432.3741, 139.8825
432.8563, 135.1518
433.3384, 130.5858
433.8205, 126.1755
434.3026, 121.8610
434.7847, 117.5528
435.2668, 113.8636
435.7490, 111.7370
436.2311, 110.8062
436.7132, 109.8306
437.1953, 108.4065
437.6774, 106.8943
438.1595, 105.6924
438.6417, 104.7907
439.1238, 104.1470
439.6059, 103.9513
440.0880, 103.8911
440.5701, 103.6109
441.0522, 103.0427
441.5344, 102.4566
442.0165, 101.9499
442.4986, 101.5458
442.9807, 101.2759
443.4628, 101.2871
443.9449, 101.3007
444.4271, 101.2346
444.9092, 101.0864
445.3913, 100.8536
445.8734, 100.3667
446.3555, 99.92797
446.8376, 99.68262
447.3198, 99.64992
447.8019, 99.80457
448.2840, 100.3652
448.7661, 101.0159
449.2482, 101.2779
449.7303, 100.7715
450.2125, 100.5323
450.6946, 100.9004
451.1767, 101.8153
451.6588, 102.3128
452.1409, 102.2614
452.6230, 102.1090
453.1052, 102.1753
453.5873, 102.4781
454.0694, 102.7747
454.5515, 103.0421
455.0337, 103.3030
455.5158, 103.6627
455.9979, 104.1044
456.4800, 104.3368
456.9621, 104.1423
457.4442, 103.6816
457.9264, 103.3733
458.4085, 103.2101
458.8906, 102.9342
459.3727, 102.0270
459.8548, 100.9475
460.3369, 100.5725
460.8191, 101.4239
461.3012, 102.2105
461.7833, 101.5972
462.2654, 100.1614
462.7475, 99.10585
463.2296, 99.20435
463.7118, 99.60803
464.1939, 99.88876
464.6760, 100.0197
465.1581, 100.1136
465.6402, 100.0298
466.1223, 100.0241
466.6045, 100.2786
467.0866, 101.0376
467.5687, 101.7810
468.0508, 102.5849
468.5329, 103.3463
469.0150, 103.8294
469.4972, 103.8622
469.9793, 103.8702
470.4614, 103.9981
470.9435, 104.2575
471.4256, 104.4054
471.9077, 104.4145
472.3899, 104.3699
472.8720, 104.2935
473.3541, 104.1658
473.8362, 104.3012
474.3183, 104.8455
474.8004, 105.5131
475.2826, 105.5976
475.7647, 105.1524
476.2468, 104.9402
476.7289, 105.5842
477.2110, 106.6916
477.6931, 107.4014
478.1753, 107.7094
478.6574, 107.8004
479.1395, 107.7200
479.6216, 107.5493
480.1037, 107.3874
480.5858, 107.1902
481.0680, 107.1399
481.5501, 107.4830
482.0322, 108.0609
482.5143, 108.5394
482.9964, 108.9424
483.4786, 109.0855
483.9607, 108.7199
484.4428, 107.7852
484.9249, 107.1649
485.4070, 107.0993
485.8892, 107.3679
486.3713, 107.8360
486.8534, 108.7535
487.3355, 109.4826
487.8176, 110.0109
488.2997, 110.3395
488.7819, 110.4817
489.2640, 110.4409
489.7461, 110.1918
490.2282, 109.6735
490.7103, 108.9001
491.1924, 108.1867
491.6746, 107.5116
492.1567, 106.9615
492.6388, 106.7444
493.1209, 106.7938
493.6030, 106.5214
494.0851, 105.7798
494.5673, 104.8736
495.0494, 104.2409
495.5315, 103.8216
496.0136, 103.4229
496.4957, 102.9918
496.9778, 102.5092
497.4600, 101.8910
497.9421, 101.1581
498.4242, 100.4858
498.9063, 99.88048
499.3884, 99.43300
499.8705, 99.25520
500.3527, 99.50076
500.8348, 99.69250
501.3169, 99.60855
501.7990, 99.38320
502.2811, 99.20415
502.7632, 99.12605
503.2454, 99.07674
503.7275, 98.95475
504.2096, 98.79299
504.6917, 99.01204
505.1738, 100.0007
505.6559, 100.8422
506.1381, 101.0161
506.6202, 100.3685
507.1023, 99.62962
507.5844, 98.70504
508.0665, 97.86196
508.5486, 97.50913
509.0308, 97.65481
509.5129, 97.92797
509.9950, 98.24970
510.4771, 98.61834
510.9592, 99.09898
511.4413, 99.66700
511.9235, 100.1240
512.4056, 100.3447
512.8877, 100.3718
513.3698, 100.2223
513.8519, 99.88471
514.3340, 99.55872
514.8162, 99.35437
515.2983, 99.25861
515.7804, 99.25915
516.2625, 99.40132
516.7446, 99.57959
517.2267, 99.78325
517.7089, 99.99438
518.1910, 100.1646
518.6731, 99.93890
519.1552, 99.99879
519.6373, 100.8275
520.1194, 102.5753
520.6016, 103.4904
521.0837, 103.0031
521.5658, 102.3073
522.0479, 102.3141
522.5300, 103.2807
523.0121, 103.9667
523.4943, 104.1664
523.9764, 104.2140
524.4585, 104.8132
524.9406, 105.9699
525.4227, 106.9529
525.9048, 107.4793
526.3870, 107.6587
526.8691, 107.6672
527.3513, 107.5240
527.8334, 107.5062
528.3155, 107.8831
528.7976, 108.4858
529.2797, 109.0384
529.7618, 109.4804
530.2440, 110.0575
530.7261, 110.9883
531.2082, 112.1402
531.6903, 113.3253
532.1724, 114.6738
532.6545, 115.8567
533.1367, 116.4621
533.6188, 116.7626
534.1009, 117.7539
534.5830, 120.4326
535.0651, 122.9940
535.5472, 124.6506
536.0294, 125.1772
536.5115, 126.5919
536.9936, 129.2678
537.4757, 132.3107
537.9578, 134.8936
538.4399, 136.8958
538.9221, 139.3949
539.4042, 142.6465
539.8863, 146.2367
540.3684, 149.3032
540.8505, 151.9197
541.3326, 154.9870
541.8148, 159.0754
542.2969, 163.6997
542.7790, 168.0447
543.2611, 172.1402
543.7432, 176.3653
544.2253, 181.0167
544.7075, 185.9071
545.1896, 190.6690
545.6717, 195.0907
546.1538, 200.3190
546.6359, 207.0863
547.1180, 214.8946
547.6002, 223.1318
548.0823, 231.4884
548.5644, 240.4712
549.0465, 250.2849
549.5286, 260.8481
550.0107, 271.9015
550.4929, 283.5717
550.9750, 295.5673
551.4571, 308.0539
551.9392, 321.0854
552.4213, 333.1219
552.9034, 344.4291
553.3856, 354.1403
553.8677, 361.7933
554.3498, 367.3436
554.8319, 370.1319
555.3140, 369.9720
555.7961, 367.4857
556.2783, 363.1827
556.7604, 357.2072
557.2425, 349.9381
557.7246, 341.0004
558.2067, 331.3403
558.6888, 321.7086
559.1710, 312.1374
559.6531, 302.8334
560.1352, 293.0899
560.6173, 284.3681
561.0994, 277.9896
561.5815, 274.2766
562.0637, 270.5341
562.5458, 265.9214
563.0279, 261.3116
563.5100, 257.2828
563.9921, 254.0328
564.4742, 251.0299
564.9564, 248.4404
565.4385, 245.9553
565.9206, 242.8355
566.4027, 238.8071
566.8848, 235.6641
567.3669, 234.1089
567.8491, 233.7248
568.3312, 233.2459
568.8133, 232.6866
569.2954, 232.4180
569.7775, 232.3513
570.2596, 232.8366
570.7418, 234.7686
571.2239, 238.2515
571.7060, 241.9807
572.1881, 244.8937
572.6702, 247.5396
573.1523, 250.5712
573.6345, 254.2293
574.1166, 258.0939
574.5987, 262.1040
575.0808, 266.1590
575.5629, 270.1674
576.0450, 274.9737
576.5272, 278.6461
577.0093, 280.9142
577.4914, 281.7715
577.9735, 281.1456
578.4556, 278.9883
578.9377, 275.4597
579.4199, 270.3600
579.9020, 263.7309
580.3841, 256.8130
580.8662, 249.6626
581.3483, 242.0741
581.8304, 233.7112
582.3126, 224.7864
582.7947, 215.9404
583.2768, 207.1618
583.7589, 198.8838
584.2410, 191.6249
584.7231, 185.1981
585.2053, 179.2362
585.6874, 173.6950
586.1696, 168.4675
586.6517, 163.4707
587.1338, 158.7265
587.6159, 154.3428
588.0980, 150.1372
588.5801, 146.4848
589.0623, 143.7240
589.5444, 142.0229
590.0265, 139.9705
590.5086, 137.2546
590.9907, 134.5897
591.4728, 132.5750
591.9550, 131.3347
592.4371, 130.0597
592.9192, 128.6844
593.4013, 127.3187
593.8834, 126.1687
594.3655, 125.2019
594.8477, 124.1914
595.3298, 123.0344
595.8119, 121.8564
596.2940, 120.7688
596.7761, 119.8006
597.2582, 119.0147
597.7404, 118.6732
598.2225, 118.3488
598.7046, 117.7650
599.1867, 116.9040
599.6688, 115.8541
600.1509, 114.0702
600.6331, 112.5039
601.1152, 111.8608
601.5973, 112.7611
602.0794, 113.0874
602.5615, 112.4645
603.0436, 111.6241
603.5258, 111.5548
604.0079, 112.5231
604.4900, 112.7485
604.9721, 111.7185
605.4542, 110.1444
605.9363, 109.4884
606.4185, 109.6704
606.9006, 109.9261
607.3827, 109.9510
607.8648, 109.8237
608.3469, 109.6393
608.8290, 109.3970
609.3112, 109.1030
609.7933, 108.5384
610.2754, 108.0749
610.7575, 108.0283
611.2396, 108.4760
611.7217, 108.9979
612.2039, 109.5829
612.6860, 110.1251
613.1681, 110.5452
613.6502, 110.7675
614.1323, 110.9949
614.6144, 111.2696
615.0966, 111.5099
615.5787, 111.5589
616.0608, 111.3683
616.5429, 111.3081
617.0250, 111.5024
617.5071, 111.8360
617.9893, 111.9975
618.4714, 112.0224
618.9535, 112.1682
619.4356, 112.8655
619.9177, 113.6040
620.3998, 113.6195
620.8820, 112.9791
621.3641, 112.3506
621.8462, 111.7973
622.3283, 111.6049
622.8104, 112.1352
623.2925, 113.7034
623.7747, 114.8785
624.2568, 115.2268
624.7389, 115.1803
625.2210, 115.0795
625.7031, 114.9476
626.1852, 114.7064
626.6674, 114.3544
627.1495, 113.8914
627.6316, 113.1955
628.1137, 112.2424
628.5958, 111.7250
629.0779, 112.1007
629.5601, 112.7323
630.0422, 112.1157
630.5243, 110.5251
631.0064, 109.2278
631.4885, 109.3737
631.9706, 109.8397
632.4528, 109.4849
632.9349, 108.3504
633.4170, 107.2848
633.8991, 106.5764
634.3812, 106.1167
634.8633, 105.8729
635.3455, 105.9392
635.8276, 105.9231
636.3097, 105.8101
636.7918, 105.6154
637.2739, 105.2804
637.7560, 104.6737
638.2382, 104.5171
638.7203, 104.9911
639.2024, 105.6937
639.6845, 106.0597
640.1666, 106.1073
640.6487, 105.9526
641.1309, 105.4680
641.6130, 105.0255
642.0951, 105.3319
642.5772, 106.1322
643.0594, 106.6970
643.5415, 106.2902
644.0236, 105.8767
644.5057, 106.1642
644.9879, 107.0794
645.4700, 107.7485
645.9521, 107.8683
646.4342, 107.7908
646.9163, 107.6072
647.3984, 107.2539
647.8806, 107.2329
648.3627, 107.5714
648.8448, 108.1951
649.3269, 109.2770
649.8090, 110.8146
650.2911, 111.5293
650.7733, 111.2099
651.2554, 110.6366
651.7375, 110.6352
652.2196, 111.1087
652.7017, 111.8255
653.1838, 112.7483
653.6660, 113.8392
654.1481, 115.3167
654.6302, 116.8954
655.1123, 118.0914
655.5944, 118.0828
656.0765, 118.3480
656.5587, 119.5386
657.0408, 121.4357
657.5229, 122.9871
658.0050, 123.8721
658.4871, 124.9052
658.9692, 126.3742
659.4514, 128.2502
659.9335, 130.2274
660.4156, 132.2944
660.8977, 134.4877
661.3798, 136.8947
661.8619, 139.4150
662.3441, 141.7427
662.8262, 143.8490
663.3083, 146.1991
663.7904, 149.1714
664.2725, 152.5847
664.7546, 156.2582
665.2368, 160.2039
665.7189, 164.3083
666.2010, 168.6918
666.6831, 173.1812
667.1652, 177.5966
667.6473, 182.2998
668.1295, 186.3329
668.6116, 189.4718
669.0937, 192.0731
669.5758, 195.0242
670.0579, 198.5011
670.5400, 200.7945
671.0222, 201.3612
671.5043, 200.4755
671.9864, 198.6165
672.4685, 195.7970
672.9506, 192.0770
673.4327, 187.0390
673.9149, 181.4859
674.3970, 175.8587
674.8791, 170.2167
675.3612, 165.0388
675.8433, 161.0956
676.3254, 157.0994
676.8076, 152.0944
677.2897, 145.6761
677.7718, 140.8245
678.2539, 138.3327
678.7360, 136.3768
679.2181, 133.6566
679.7003, 130.0621
680.1824, 127.1259
680.6645, 124.9435
681.1466, 123.2707
681.6287, 121.9847
682.1108, 120.9881
682.5930, 120.0470
683.0751, 119.0936
683.5572, 118.2216
684.0393, 117.3384
684.5214, 116.6242
685.0035, 116.3303
685.4857, 117.0671
685.9678, 117.6173
686.4499, 117.8218
686.9320, 117.6000
687.4141, 116.7247
687.8962, 114.4775
688.3784, 112.9954
688.8605, 113.0113
689.3426, 114.0160
689.8247, 114.1418
690.3068, 113.3504
690.7889, 112.7694
691.2711, 113.1814
691.7532, 114.0658
692.2353, 114.4210
692.7174, 114.2835
693.1995, 113.9006
693.6816, 113.2132
694.1638, 112.4927
694.6459, 111.9471
695.1280, 111.5975
695.6101, 111.3193
696.0922, 111.0035
696.5743, 110.8255
697.0565, 110.8901
697.5386, 111.2567
698.0207, 111.6403
698.5028, 112.0633
698.9849, 112.4593
699.4670, 112.6882
699.9492, 112.7861
700.4313, 113.1711
700.9135, 113.9206
701.3956, 114.7654
701.8777, 115.5281
702.3598, 116.1543
702.8419, 116.4862
703.3240, 116.1965
703.8062, 116.1836
704.2883, 117.1006
704.7704, 118.5271
705.2525, 119.8330
705.7346, 121.0145
706.2167, 121.9286
706.6989, 122.3866
707.1810, 122.6482
707.6631, 123.3683
708.1452, 124.6368
708.6273, 125.7663
709.1094, 126.5455
709.5916, 127.0630
710.0737, 127.3784
710.5558, 127.5586
711.0379, 127.9596
711.5200, 129.1538
712.0021, 130.3633
712.4843, 130.9490
712.9664, 130.9500
713.4485, 130.6360
713.9306, 129.7591
714.4127, 128.9039
714.8948, 128.4191
715.3770, 128.3089
715.8591, 127.9436
716.3412, 127.1747
716.8233, 126.4448
717.3054, 126.0232
717.7875, 125.8969
718.2697, 125.8220
718.7518, 125.8024
719.2339, 125.7875
719.7160, 125.7154
720.1981, 125.6276
720.6802, 125.5505
721.1624, 125.4751
721.6445, 125.5734
722.1266, 126.0488
722.6087, 126.6830
723.0908, 127.3037
723.5729, 127.9525
724.0551, 128.4316
724.5372, 128.8150
725.0193, 128.9561
725.5014, 128.6893
725.9835, 127.9859
726.4656, 127.0242
726.9478, 125.7675
727.4299, 124.3719
727.9120, 123.0194
728.3941, 121.7076
728.8762, 120.4861
729.3583, 119.3595
729.8405, 118.3427
730.3226, 117.4043
730.8047, 116.5871
731.2868, 115.9907
731.7689, 115.7597
732.2510, 115.6075
732.7332, 115.5736
733.2153, 115.5560
733.6974, 115.3121
734.1795, 114.7180
734.6616, 114.2428
735.1437, 114.0227
735.6259, 113.9813
736.1080, 113.9051
736.5901, 113.8103
737.0722, 113.8449
737.5543, 114.2542
738.0364, 114.6950
738.5186, 114.7321
739.0007, 114.4462
739.4828, 114.1286
739.9649, 113.8647
740.4470, 113.6353
740.9291, 113.4879
741.4113, 113.4043
741.8934, 113.1405
742.3755, 112.6284
742.8576, 112.0531
743.3397, 111.4362
743.8218, 110.8048
744.3040, 110.4660
744.7861, 110.4336
745.2682, 110.2821
745.7503, 109.4380
746.2324, 108.4043
746.7145, 108.0806
747.1967, 108.4543
747.6788, 108.9109
748.1609, 109.2449
748.6430, 109.4427
749.1251, 109.4655
749.6072, 109.2665
750.0894, 109.1093
750.5715, 108.9303
751.0536, 108.8911
751.5357, 109.2064
752.0178, 109.9465
752.4999, 110.1633
752.9821, 109.8125
753.4642, 109.2385
753.9463, 108.5767
754.4284, 107.9733
754.9105, 107.8172
755.3926, 108.2035
755.8748, 108.5321
756.3569, 108.2333
756.8390, 107.8084
757.3211, 107.7607
757.8032, 108.5635
758.2853, 108.8216
758.7675, 108.0983
759.2496, 107.1812
759.7318, 106.8159
760.2139, 107.0949
760.6960, 107.2290
761.1781, 107.1288
761.6602, 106.9768
762.1423, 107.1025
762.6245, 107.3426
763.1066, 107.2256
763.5887, 106.5131
764.0708, 105.9059
764.5529, 106.0143
765.0350, 106.4603
765.5172, 106.7957
765.9993, 106.9075
766.4814, 106.9159
766.9635, 106.8241
767.4456, 106.6398
767.9277, 106.3214
768.4099, 105.8144
768.8920, 105.5073
769.3741, 105.4624
769.8562, 105.6321
770.3383, 106.1515
770.8204, 106.8314
771.3026, 107.1174
771.7847, 106.6191
772.2668, 106.0985
772.7489, 106.1713
773.2310, 106.5372
773.7131, 106.7234
774.1953, 106.6196
774.6774, 106.3186
775.1595, 105.6333
775.6416, 104.8823
776.1237, 104.7126
776.6058, 105.2042
777.0880, 105.6665
777.5701, 105.9295
778.0522, 106.0870
778.5343, 106.3151
779.0164, 106.5667
779.4985, 106.6991
779.9807, 106.4806
780.4628, 106.3335
780.9449, 106.5994
781.4270, 107.1125
781.9091, 107.5348
782.3912, 107.8793
782.8734, 108.0137
783.3555, 107.9085
783.8376, 107.5848
784.3197, 106.9924
784.8018, 106.0813
785.2839, 105.4658
785.7661, 105.3781
786.2482, 105.6254
786.7303, 106.0769
787.2124, 106.6118
787.6945, 106.8988
788.1766, 106.4949
788.6588, 106.0931
789.1409, 106.1026
789.6230, 106.3885
790.1051, 106.5665
790.5872, 106.6624
791.0693, 106.5167
791.5515, 105.9087
792.0336, 105.1381
792.5157, 105.2585
792.9978, 106.2757
793.4799, 107.0227
793.9620, 106.9894
794.4442, 106.5534
794.9263, 106.1452
795.4084, 105.7866
795.8905, 105.5318
796.3726, 105.3753
796.8547, 105.3571
797.3369, 105.5629
797.8190, 105.9279
798.3011, 106.2467
798.7832, 106.6244
799.2653, 106.7142
799.7474, 106.3208
800.2296, 105.6648
800.7117, 105.3441
801.1938, 105.3445
801.6759, 105.5305
802.1580, 106.0260
802.6401, 106.4851
803.1223, 106.3695
803.6044, 105.8902
804.0865, 105.5990
804.5686, 106.0828
805.0507, 106.3673
805.5328, 105.8640
806.0150, 104.9535
806.4971, 104.6875
806.9792, 105.3173
807.4613, 105.7756
807.9434, 105.7093
808.4255, 105.3587
808.9077, 105.2768
809.3898, 105.4077
809.8719, 105.4978
810.3540, 105.2744
810.8361, 105.1351
811.3182, 105.5473
811.8004, 106.2754
812.2825, 106.7714
812.7646, 106.8121
813.2467, 106.6836
813.7288, 106.2916
814.2109, 105.8284
814.6931, 105.9451
815.1752, 106.7617
815.6573, 107.0026
816.1394, 106.0683
816.6215, 104.7566
817.1037, 104.4164
817.5858, 104.7893
818.0679, 105.1853
818.5500, 105.2535
819.0322, 105.3388
819.5143, 105.8540
819.9964, 106.4666
820.4785, 106.4101
820.9606, 105.0894
821.4427, 104.1615
821.9249, 103.8816
822.4070, 104.1120
822.8891, 104.7696
823.3712, 105.7919
823.8533, 106.4708
824.3354, 106.5482
824.8176, 106.3400
825.2997, 106.1463
825.7818, 105.9311
826.2639, 105.6363
826.7460, 104.8130
827.2281, 104.4288
827.7103, 105.1058
828.1924, 106.1530
828.6745, 106.6696
829.1566, 106.5483
829.6387, 106.2696
830.1208, 105.8405
830.6030, 105.4215
831.0851, 105.2980
831.5672, 105.3915
832.0493, 105.4915
832.5314, 105.5397
833.0135, 105.5863
833.4957, 105.6699
833.9778, 105.7687
834.4599, 105.8593
834.9420, 105.8834
835.4241, 105.9943
835.9063, 106.2839
836.3884, 106.5534
836.8705, 106.5397
837.3526, 106.2512
837.8347, 105.8728
838.3168, 105.3578
838.7990, 105.1256
839.2811, 106.1440
839.7632, 107.4964
840.2453, 107.7358
840.7274, 106.1194
841.2095, 104.9936
841.6917, 105.7674
842.1738, 106.9058
842.6559, 107.1672
843.1380, 106.1963
843.6201, 105.6395
844.1022, 105.5815
844.5844, 105.6455
845.0665, 105.4253
845.5486, 105.0536
846.0307, 104.9055
846.5128, 105.0172
846.9949, 105.2307
847.4771, 105.6692
847.9592, 106.0043
848.4413, 105.8850
848.9234, 105.1256
849.4055, 104.7610
849.8876, 104.9739
850.3698, 105.3348
850.8519, 105.6154
851.3340, 105.8220
851.8161, 106.0347
852.2982, 106.2523
852.7803, 106.4357
853.2625, 106.6712
853.7446, 106.7795
854.2267, 106.3980
854.7088, 105.5865
855.1909, 105.1262
855.6730, 105.7218
856.1552, 106.2477
856.6373, 106.1845
857.1194, 105.6409
857.6015, 105.5212
858.0836, 105.8675
858.5657, 106.3389
859.0479, 106.9418
859.5300, 107.4555
860.0121, 107.2305
860.4942, 106.4951
860.9763, 106.0503
861.4584, 106.6788
861.9406, 107.3072
862.4227, 107.3456
862.9048, 106.9719
863.3869, 106.8919
863.8690, 107.3368
864.3511, 107.4392
864.8333, 106.7961
865.3154, 105.9519
865.7975, 106.2468
866.2796, 107.4090
866.7617, 108.2650
867.2438, 108.3940
867.7260, 108.1140
868.2081, 107.1694
868.6902, 106.1207
869.1723, 105.8200
869.6544, 107.4718
870.1365, 108.4127
870.6187, 108.2879
871.1008, 107.6507
871.5829, 107.0707
872.0650, 106.5723
872.5471, 106.7924
873.0292, 107.9691
873.5114, 109.1340
873.9935, 109.2446
874.4756, 108.7715
874.9577, 108.2390
875.4399, 107.6220
875.9220, 107.3596
876.4041, 107.7707
876.8862, 108.4065
877.3683, 109.0863
877.8505, 109.8922
878.3326, 110.1041
878.8147, 109.6673
879.2968, 109.0331
879.7789, 108.3448
880.2610, 107.8258
880.7432, 108.0549
881.2253, 109.0214
881.7074, 109.6342
882.1895, 108.7235
882.6716, 107.9200
883.1537, 108.3975
883.6359, 110.0506
884.1180, 110.6677
884.6001, 110.0297
885.0822, 109.2922
885.5643, 108.9588
886.0464, 108.9392
886.5286, 109.1103
887.0107, 109.4248
887.4928, 109.6874
887.9749, 109.6188
888.4570, 109.6433
888.9391, 110.0743
889.4213, 110.7757
889.9034, 111.2992
890.3855, 111.5863
890.8676, 111.7755
891.3497, 111.8240
891.8318, 111.8889
892.3140, 112.3698
892.7961, 113.1511
893.2782, 113.7575
893.7603, 113.9528
894.2424, 114.1464
894.7245, 114.7079
895.2067, 115.4086
895.6888, 115.9768
896.1709, 116.3752
896.6530, 116.5551
897.1351, 116.2751
897.6172, 116.1537
898.0994, 117.1868
898.5815, 119.1160
899.0636, 119.8396
899.5457, 119.0964
900.0278, 118.2062
900.5099, 118.3256
900.9921, 118.7470
901.4742, 118.8794
901.9563, 118.6550
902.4384, 118.0338
902.9205, 116.6097
903.4026, 115.4190
903.8848, 115.0375
904.3669, 115.3557
904.8490, 115.4202
905.3311, 115.2393
905.8132, 115.0598
906.2953, 115.0874
906.7775, 115.1437
907.2596, 115.0436
907.7417, 114.8181
908.2238, 114.5822
908.7059, 114.1178
909.1880, 113.9770
909.6702, 114.3220
910.1523, 115.0222
910.6344, 115.9900
911.1165, 117.2062
911.5986, 117.5921
912.0807, 116.5385
912.5629, 115.3365
913.0450, 115.4319
913.5271, 116.3552
914.0092, 117.4571
914.4913, 118.8638
914.9734, 119.8439
915.4556, 120.1644
915.9377, 120.1510
916.4198, 119.9400
916.9019, 119.4877
917.3840, 119.6426
917.8661, 120.4750
918.3483, 121.6848
918.8304, 123.8084
919.3125, 125.7125
919.7946, 125.6364
920.2767, 123.3883
920.7589, 121.5255
921.2410, 121.0973
921.7231, 120.9374
922.2052, 120.6040
922.6873, 120.1270
923.1694, 119.8814
923.6516, 119.8851
924.1337, 119.5173
924.6158, 118.0365
925.0979, 116.3854
925.5800, 115.9550
926.0621, 116.3619
926.5443, 116.6458
927.0264, 116.5626
927.5085, 116.1854
927.9906, 115.2915
928.4727, 114.2937
928.9548, 113.9810
929.4370, 114.3865
929.9191, 114.5067
930.4012, 114.0903
930.8833, 113.6939
931.3654, 113.9935
931.8475, 114.6800
932.3297, 115.4249
932.8118, 116.2980
933.2939, 116.6781
933.7761, 115.8969
934.2582, 115.1011
934.7403, 115.0251
935.2224, 115.6898
935.7045, 116.1086
936.1866, 116.2843
936.6688, 116.2054
937.1509, 115.3958
937.6330, 114.6518
938.1151, 115.1527
938.5972, 116.6538
939.0793, 117.7729
939.5615, 117.5548
940.0436, 117.6106
940.5257, 118.5437
941.0078, 119.9009
941.4899, 120.3126
941.9720, 119.8203
942.4542, 119.4810
942.9363, 119.5319
943.4184, 119.9990
943.9005, 121.1987
944.3826, 122.7110
944.8647, 123.9495
945.3469, 124.3404
945.8290, 125.3014
946.3111, 127.2152
946.7932, 129.3445
947.2753, 131.0911
947.7574, 132.4836
948.2396, 133.6828
948.7217, 134.7009
949.2038, 135.6232
949.6859, 136.6386
950.1680, 137.4996
950.6501, 137.9161
951.1323, 137.9003
951.6144, 137.9074
952.0965, 138.0404
952.5786, 138.1493
953.0607, 138.2843
953.5428, 138.2990
954.0250, 137.7507
954.5071, 136.6707
954.9892, 135.1588
955.4713, 132.7596
955.9534, 130.8081
956.4355, 130.5537
956.9177, 131.2931
957.3998, 132.0151
957.8819, 132.4764
958.3640, 133.0932
958.8461, 133.7947
959.3282, 134.8252
959.8104, 136.6319
960.2925, 138.9671
960.7746, 140.7497
961.2567, 141.9080
961.7388, 143.5351
962.2209, 146.7914
962.7031, 150.4070
963.1852, 153.3771
963.6673, 155.7188
964.1494, 158.7575
964.6315, 162.5854
965.1136, 166.6609
965.5958, 170.6618
966.0779, 174.9289
966.5600, 180.3619
967.0421, 186.6950
967.5242, 193.0401
968.0063, 198.8642
968.4885, 204.9883
968.9706, 211.7387
969.4527, 219.0161
969.9348, 227.0131
970.4169, 236.0943
970.8990, 244.1203
971.3812, 251.0835
971.8633, 256.2437
972.3454, 259.0480
972.8275, 259.3911
973.3096, 256.9950
973.7917, 251.8406
974.2739, 244.5791
974.7560, 234.2052
975.2381, 223.0198
975.7202, 211.4554
976.2023, 199.7922
976.6844, 188.9813
977.1666, 178.9502
977.6487, 170.6640
978.1308, 165.1386
978.6129, 160.6780
979.0950, 155.5043
979.5771, 150.1428
980.0593, 145.4200
980.5414, 141.4463
981.0235, 138.4063
981.5056, 136.6264
981.9877, 135.2349
982.4698, 133.2485
982.9520, 130.8007
983.4341, 128.7676
983.9162, 127.2014
984.3983, 125.7567
984.8804, 124.0092
985.3625, 122.4306
985.8447, 121.5077
986.3268, 121.2160
986.8089, 120.6287
987.2910, 119.5933
987.7731, 118.6508
988.2552, 117.8609
988.7374, 117.4218
989.2195, 118.2095
989.7016, 119.6650
990.1837, 120.2623
990.6658, 118.9853
991.1479, 117.7827
991.6301, 117.5594
992.1122, 117.7400
992.5944, 117.7615
993.0765, 117.5832
993.5586, 117.4479
994.0407, 117.3522
994.5228, 117.3371
995.0049, 117.5582
995.4871, 117.8051
995.9692, 117.6780
996.4513, 117.2499
996.9334, 117.1064
997.4155, 117.9799
997.8976, 118.4307
998.3798, 117.8356
998.8619, 116.8067
999.3440, 117.0091
999.8261, 118.2899
1000.308, 119.1123
1000.790, 118.9277
1001.272, 118.6900
1001.755, 119.2585
1002.237, 120.1678
1002.719, 120.8927
1003.201, 121.2371
1003.683, 121.8979
1004.165, 123.0520
1004.647, 124.0969
1005.129, 124.4855
1005.612, 124.5086
1006.094, 125.1582
1006.576, 126.2790
1007.058, 127.1631
1007.540, 127.2384
1008.022, 127.2263
1008.504, 127.0284
1008.986, 127.0916
1009.468, 128.5423
1009.951, 131.6882
1010.433, 133.5645
1010.915, 133.6088
1011.397, 132.8842
1011.879, 132.3420
1012.361, 131.8781
1012.843, 131.3318
1013.325, 130.6567
1013.807, 130.1387
1014.290, 129.9981
1014.772, 129.7675
1015.254, 129.2737
1015.736, 128.5259
1016.218, 127.3456
1016.700, 125.8509
1017.182, 124.7382
1017.664, 124.5820
1018.147, 124.5475
1018.629, 124.0788
1019.111, 123.4053
1019.593, 122.8984
1020.075, 122.7262
1020.557, 122.1803
1021.039, 121.1202
1021.521, 120.1292
1022.003, 120.0203
1022.486, 120.2541
1022.968, 119.6779
1023.450, 118.3330
1023.932, 117.4324
1024.414, 117.8685
1024.896, 118.3679
1025.378, 118.6151
1025.860, 118.5841
1026.343, 118.0628
1026.825, 117.1042
1027.307, 116.3283
1027.789, 115.9107
1028.271, 115.7029
1028.753, 115.6264
1029.235, 115.6571
1029.717, 115.8247
1030.199, 116.2811
1030.682, 116.2658
1031.164, 115.6246
1031.646, 114.9392
1032.128, 114.5159
1032.610, 114.3274
1033.092, 114.3085
1033.574, 114.4652
1034.056, 114.8206
1034.539, 116.0698
1035.021, 116.6666
1035.503, 115.4991
1035.985, 113.8302
1036.467, 113.4639
1036.949, 114.4461
1037.431, 114.9165
1037.913, 114.6282
1038.396, 114.2458
1038.878, 114.5597
1039.360, 114.9201
1039.842, 114.5158
1040.324, 113.3003
1040.806, 112.7938
1041.288, 113.3137
1041.770, 113.9715
1042.252, 114.5737
1042.734, 115.0365
1043.217, 115.1063
1043.699, 114.9085
1044.181, 114.7752
1044.663, 114.8249
1045.145, 114.9049
1045.627, 115.0743
1046.109, 115.1447
1046.591, 114.8603
1047.074, 114.1838
1047.556, 114.3279
1048.038, 115.2972
1048.520, 116.0104
1049.002, 115.3897
1049.484, 114.5159
1049.966, 114.3962
1050.448, 114.7813
1050.931, 114.9290
1051.413, 114.7450
1051.895, 114.2890
1052.377, 113.3787
1052.859, 112.6621
1053.341, 113.2345
1053.823, 114.5145
1054.305, 115.1334
1054.787, 114.9308
1055.270, 114.8240
1055.752, 115.3810
1056.234, 115.9542
1056.716, 116.2945
1057.198, 116.4253
1057.680, 116.3440
1058.162, 116.0731
1058.644, 116.0049
1059.126, 116.3620
1059.609, 116.7114
1060.091, 116.5588
1060.573, 116.2421
1061.055, 116.1936
1061.537, 116.6183
1062.019, 116.6003
1062.501, 116.0371
1062.983, 115.4096
1063.466, 114.8381
1063.948, 114.5252
1064.430, 115.1847
1064.912, 116.4470
1065.394, 117.2031
1065.876, 116.4919
1066.358, 115.9581
1066.840, 115.9846
1067.323, 116.1802
1067.805, 115.9200
1068.287, 115.3298
1068.769, 115.4548
1069.251, 116.3717
1069.733, 117.2439
1070.215, 117.5792
1070.697, 117.5797
1071.179, 117.1568
1071.661, 116.4790
1072.144, 116.2677
1072.626, 116.6007
1073.108, 116.8776
1073.590, 116.9327
1074.072, 116.9109
1074.554, 117.0067
1075.036, 117.1309
1075.518, 117.1491
1076.001, 117.0021
1076.483, 116.9321
1076.965, 116.9774
1077.447, 117.0689
1077.929, 117.2213
1078.411, 117.3653
1078.893, 117.2258
1079.375, 116.8938
1079.858, 116.6652
1080.340, 116.6464
1080.822, 116.7632
1081.304, 117.1579
1081.786, 117.5482
1082.268, 117.6199
1082.750, 117.3617
1083.232, 117.3824
1083.714, 117.6920
1084.197, 117.9201
1084.679, 117.6654
1085.161, 117.3555
1085.643, 117.3421
1086.125, 117.5462
1086.607, 117.6527
1087.089, 117.6091
1087.571, 117.6425
1088.054, 117.7981
1088.536, 117.9963
1089.018, 118.1738
1089.500, 118.3184
1089.982, 118.3168
1090.464, 118.1528
1090.946, 118.3773
1091.428, 119.5556
1091.911, 120.3496
1092.393, 120.1889
1092.875, 119.5473
1093.357, 119.5594
1093.839, 120.0565
1094.321, 120.5502
1094.803, 120.9788
1095.285, 121.1509
1095.767, 120.4449
1096.250, 119.9471
1096.732, 120.5311
1097.214, 122.1110
1097.696, 122.8833
1098.178, 122.8971
1098.660, 123.1095
1099.142, 124.3429
1099.624, 125.5776
1100.106, 125.8352
1100.589, 125.6659
1101.071, 125.9690
1101.553, 126.9624
1102.035, 127.8290
1102.517, 128.5491
1102.999, 129.1809
1103.481, 129.6225
1103.963, 130.0961
1104.446, 130.9466
1104.928, 132.0968
1105.410, 133.2182
1105.892, 134.2413
1106.374, 135.2182
1106.856, 136.2041
1107.338, 137.0465
1107.820, 137.4800
1108.302, 137.6304
1108.785, 137.9042
1109.267, 138.3425
1109.749, 138.4290
1110.231, 137.5815
1110.713, 136.7615
1111.195, 136.3768
1111.677, 136.2292
1112.159, 135.7839
1112.641, 135.0653
1113.124, 134.1833
1113.606, 133.1077
1114.088, 132.0963
1114.570, 131.5203
1115.052, 130.9109
1115.534, 129.7793
1116.016, 128.1769
1116.498, 127.1710
1116.981, 126.7700
1117.463, 126.4726
1117.945, 126.1274
1118.427, 125.6775
1118.909, 124.8925
1119.391, 124.0395
1119.873, 123.5467
1120.355, 123.6758
1120.838, 123.3684
1121.320, 122.4512
1121.802, 121.8394
1122.284, 122.6596
1122.766, 123.8658
1123.248, 123.6623
1123.730, 122.5309
1124.212, 121.7921
1124.694, 122.1792
1125.177, 122.4904
1125.659, 122.6364
1126.141, 122.7037
1126.623, 122.7730
1127.105, 122.8375
1127.587, 122.8433
1128.069, 122.8073
1128.551, 122.8674
1129.033, 123.5970
1129.516, 123.6983
1129.998, 122.4022
1130.480, 120.7602
1130.962, 120.7934
1131.444, 122.1333
1131.926, 122.7610
1132.408, 122.3609
1132.890, 122.0655
1133.373, 123.1035
1133.855, 123.9101
1134.337, 123.2960
1134.819, 121.8194
1135.301, 121.5724
1135.783, 122.5060
1136.265, 123.0957
1136.747, 122.8830
1137.229, 122.5065
1137.712, 122.4435
1138.194, 122.5147
1138.676, 122.5842
1139.158, 122.6435
1139.640, 122.6451
1140.122, 122.5878
1140.604, 122.4602
1141.086, 122.1679
1141.569, 121.9659
1142.051, 122.1839
1142.533, 122.6449
1143.015, 123.1437
1143.497, 123.7144
1143.979, 124.0754
1144.461, 124.2167
1144.943, 124.1673
1145.426, 123.8114
1145.908, 123.3851
1146.390, 123.2571
1146.872, 123.3584
1147.354, 123.5460
1147.836, 123.6839
1148.318, 124.1116
1148.800, 124.9598
1149.282, 125.8043
1149.765, 126.3105
1150.247, 126.5418
1150.729, 126.6047
1151.211, 126.5198
1151.693, 126.3559
1152.175, 125.8698
1152.657, 125.7305
1153.139, 126.1951
1153.621, 126.7891
1154.104, 126.8506
1154.586, 126.5806
1155.068, 126.6765
1155.550, 127.1600
1156.032, 127.7047
1156.514, 128.1947
1156.996, 128.6706
1157.478, 129.1644
1157.961, 129.6362
1158.443, 130.0077
1158.925, 130.2906
1159.407, 130.5962
1159.889, 130.9429
1160.371, 131.0981
1160.853, 130.4059
1161.335, 130.0527
1161.818, 130.8942
1162.300, 132.4131
1162.782, 133.1033
1163.264, 133.0179
1163.746, 132.8243
1164.228, 132.6401
1164.710, 132.5388
1165.192, 132.4805
1165.674, 132.6156
1166.156, 133.1272
1166.639, 133.9407
1167.121, 134.5262
1167.603, 134.8878
1168.085, 135.7821
1168.567, 137.7119
1169.049, 139.4814
1169.531, 139.6726
1170.013, 139.4586
1170.496, 140.0151
1170.978, 141.3627
1171.460, 143.0501
1171.942, 145.0954
1172.424, 147.2573
1172.906, 149.4593
1173.388, 151.6415
1173.870, 153.4395
1174.353, 155.3027
1174.835, 157.9600
1175.317, 161.6798
1175.799, 164.8543
1176.281, 167.4809
1176.763, 169.7760
1177.245, 171.6595
1177.727, 173.5458
1178.209, 175.7271
1178.692, 178.3000
1179.174, 181.5648
1179.656, 185.9983
1180.138, 189.7983
1180.620, 192.9679
1181.102, 195.6413
1181.584, 197.8560
1182.066, 199.6868
1182.548, 201.2928
1183.031, 202.5763
1183.513, 203.3184
1183.995, 203.6478
1184.477, 203.0983
1184.959, 201.6206
1185.441, 199.3474
1185.923, 196.3434
1186.405, 192.6821
1186.888, 188.0360
1187.370, 182.7775
1187.852, 178.3639
1188.334, 175.7314
1188.816, 172.3927
1189.298, 167.9663
1189.780, 163.4540
1190.262, 159.7560
1190.745, 156.7315
1191.227, 154.4484
1191.709, 152.7322
1192.191, 150.6103
1192.673, 147.2588
1193.155, 144.8254
1193.637, 143.7668
1194.119, 143.1894
1194.601, 142.1372
1195.084, 140.7750
1195.566, 139.2343
1196.048, 137.5714
1196.530, 136.2648
1197.012, 135.5956
1197.494, 134.8380
1197.976, 133.7822
1198.458, 132.7630
1198.941, 132.3204
1199.423, 132.2173
1199.905, 132.1878
1200.387, 132.1852
1200.869, 131.6967
1201.351, 130.1506
1201.833, 129.1683
1202.315, 129.3607
1202.797, 129.8502
1203.280, 129.0130
1203.762, 127.5654
1204.244, 126.8041
1204.726, 126.9615
1205.208, 127.0075
1205.690, 126.6697
1206.172, 126.3994
1206.654, 126.3373
1207.136, 126.3966
1207.619, 126.4350
1208.101, 126.4786
1208.583, 126.6159
1209.065, 126.8978
1209.547, 126.9309
1210.029, 126.4161
1210.511, 126.2199
1210.993, 126.8085
1211.476, 127.6294
1211.958, 127.5398
1212.440, 127.0000
1212.922, 126.9675
1213.404, 127.8608
1213.886, 127.8774
1214.368, 126.3450
1214.850, 125.1637
1215.333, 125.2222
1215.815, 125.9324
1216.297, 126.5783
1216.779, 126.9727
1217.261, 126.6070
1217.743, 124.9450
1218.225, 124.3933
1218.707, 125.5594
1219.189, 126.6489
1219.672, 126.7739
1220.154, 126.4017
1220.636, 126.3655
1221.118, 126.4735
1221.600, 126.3455
1222.082, 125.7254
1222.564, 125.4718
1223.046, 125.7735
1223.528, 125.9711
1224.011, 125.5991
1224.493, 125.0693
1224.975, 124.9440
1225.457, 125.2174
1225.939, 126.0011
1226.421, 127.9590
1226.903, 128.3688
1227.385, 126.7075
1227.868, 125.3227
1228.350, 125.8448
1228.832, 127.0325
1229.314, 126.9229
1229.796, 126.1430
1230.278, 125.7708
1230.760, 126.1990
1231.242, 126.4949
1231.724, 126.6352
1232.207, 126.7617
1232.689, 126.9784
1233.171, 127.2057
1233.653, 127.3129
1234.135, 127.3708
1234.617, 127.5065
1235.099, 127.7614
1235.581, 128.0562
1236.063, 128.4269
1236.546, 128.5854
1237.028, 128.2952
1237.510, 127.7643
1237.992, 126.8756
1238.474, 126.0239
1238.956, 126.0056
1239.438, 127.2104
1239.920, 127.4713
1240.403, 126.7022
1240.885, 126.1176
1241.367, 126.8294
1241.849, 127.7068
1242.331, 127.5321
1242.813, 128.1818
1243.295, 128.5324
1243.777, 128.5237
1244.260, 129.0103
1244.742, 128.7017
1245.224, 128.3158
1245.706, 128.2717
1246.188, 128.3340
1246.670, 128.4265
1247.152, 128.4800
1247.634, 128.3853
1248.116, 128.1226
1248.599, 127.9764
1249.081, 127.9532
1249.563, 128.1038
1250.045, 128.6325
1250.527, 129.1413
1251.009, 129.3880
1251.491, 129.5271
1251.973, 129.6944
1252.455, 129.8894
1252.938, 130.2513
1253.420, 130.7280
1253.902, 130.9296
1254.384, 130.2899
1254.866, 129.7918
1255.348, 129.9402
1255.830, 130.2304
1256.313, 130.2325
1256.795, 129.9859
1257.277, 129.5486
1257.759, 129.0387
1258.241, 129.0260
1258.723, 130.3661
1259.205, 131.3719
1259.687, 131.5533
1260.169, 131.5791
1260.651, 132.0922
1261.134, 132.9062
1261.616, 133.4675
1262.098, 133.7943
1262.580, 133.9956
1263.062, 133.9576
1263.544, 134.0397
1264.026, 134.3252
1264.508, 134.6065
1264.991, 134.6416
1265.473, 134.5892
1265.955, 134.6948
1266.437, 134.9769
1266.919, 135.4870
1267.401, 136.7444
1267.883, 137.1486
1268.365, 136.4190
1268.848, 135.8557
1269.330, 136.7572
1269.812, 138.1648
1270.294, 139.1711
1270.776, 139.6669
1271.258, 139.3016
1271.740, 137.7061
1272.222, 136.5007
1272.704, 135.7115
1273.187, 135.3077
1273.669, 135.5205
1274.151, 135.8567
1274.633, 136.0735
1275.115, 136.0234
1275.597, 135.4310
1276.079, 134.1640
1276.561, 133.3107
1277.043, 132.8784
1277.526, 132.8134
1278.008, 133.3980
1278.490, 133.9877
1278.972, 134.0270
1279.454, 134.0143
1279.936, 134.6528
1280.418, 135.8817
1280.900, 135.9167
1281.383, 134.9245
1281.865, 133.9907
1282.347, 133.5675
1282.829, 133.3999
1283.311, 133.4509
1283.793, 133.6656
1284.275, 134.0740
1284.757, 134.6095
1285.240, 135.0202
1285.722, 135.3186
1286.204, 135.5429
1286.686, 135.9416
1287.168, 135.7685
1287.650, 134.7442
1288.132, 133.6926
1288.614, 133.1149
1289.096, 132.9547
1289.578, 133.2169
1290.061, 133.7771
1290.543, 134.4032
1291.025, 135.1856
1291.507, 135.6271
1291.989, 135.6881
1292.471, 135.5584
1292.953, 135.0860
1293.435, 134.8123
1293.918, 135.8274
1294.400, 137.2482
1294.882, 137.6716
1295.364, 136.9257
1295.846, 136.4847
1296.328, 136.3539
1296.810, 136.3932
1297.292, 136.5303
1297.775, 136.8034
1298.257, 137.5722
1298.739, 138.2308
1299.221, 138.1637
1299.703, 137.4601
1300.185, 136.9859
1300.667, 136.7318
1301.149, 136.6490
1301.631, 136.7834
1302.114, 136.8682
1302.596, 136.9733
##END=



