##NAMES=Cordierite
##RRUFFID=R040082
##IDEAL CHEMISTRY=Mg_2_Al_3_(AlSi_5_)O_18_
##LOCALITY=Madagascar
##OWNER=RRUFF
##SOURCE=University of Arizona Mineral Museum
##DESCRIPTION=Dark gray coarsely crystalline massive
##STATUS=The identification of this mineral has been confirmed by X-ray diffraction and chemical analysis
##URL=rruff.info/R040082
##MEASURED CHEMISTRY=(Mg_1.60_Fe^2+^_0.39_Mn_0.01_)_Σ=2_Al_4.00_(Si_4.95_Al_0.05_)_Σ=5_O_18_·1.05H_2_O·Na_0.05_ ; H_2_O estimated by difference and verified by Raman spectroscopy
91.72394, 0.0000000E+00
92.20605, 248.7117
92.68817, 253.5885
93.17029, 257.4635
93.65240, 255.2173
94.13452, 251.2166
94.61664, 247.5848
95.09875, 245.4717
95.58087, 244.2643
96.06299, 241.6534
96.54510, 236.4984
97.02721, 231.6095
97.50933, 227.6000
97.99145, 224.2879
98.47356, 221.4397
98.95568, 218.8063
99.43780, 216.0625
99.91991, 213.0176
100.4020, 208.6956
100.8841, 205.0620
101.3663, 203.0895
101.8484, 202.6022
102.3305, 202.6467
102.8126, 202.2844
103.2947, 201.3464
103.7768, 200.7752
104.2590, 200.8281
104.7411, 201.0978
105.2232, 201.0082
105.7053, 200.3100
106.1874, 199.7482
106.6695, 200.4445
107.1517, 202.2748
107.6338, 204.1201
108.1159, 205.1715
108.5980, 205.6770
109.0801, 207.0285
109.5622, 210.2778
110.0444, 213.8674
110.5265, 216.3462
111.0086, 217.5793
111.4907, 218.6919
111.9728, 220.7840
112.4549, 223.7772
112.9371, 228.0877
113.4192, 233.4681
113.9013, 240.1812
114.3834, 248.5148
114.8655, 258.5383
115.3476, 270.2242
115.8298, 283.3824
116.3119, 299.5520
116.7940, 315.6376
117.2761, 333.3094
117.7582, 350.3506
118.2403, 364.5186
118.7225, 374.7219
119.2046, 380.7539
119.6867, 379.1775
120.1688, 367.5476
120.6509, 352.6541
121.1330, 334.8586
121.6152, 315.2415
122.0973, 296.5854
122.5794, 280.9461
123.0615, 268.7714
123.5436, 258.5664
124.0257, 250.9552
124.5079, 244.9246
124.9900, 240.1748
125.4721, 236.9083
125.9542, 233.3784
126.4363, 227.8329
126.9184, 220.8243
127.4006, 213.2045
127.8827, 204.8587
128.3648, 196.1108
128.8469, 188.0506
129.3290, 180.6852
129.8111, 174.2082
130.2932, 168.6157
130.7754, 163.8237
131.2575, 159.5910
131.7396, 155.6373
132.2217, 151.9030
132.7038, 149.0130
133.1859, 147.5167
133.6681, 146.4908
134.1502, 145.7213
134.6323, 145.1126
135.1144, 144.5710
135.5965, 143.9486
136.0786, 143.0957
136.5608, 142.4802
137.0429, 142.2654
137.5250, 142.1427
138.0071, 141.8368
138.4892, 141.2762
138.9713, 140.6405
139.4535, 140.3150
139.9356, 140.5362
140.4177, 140.7585
140.8998, 141.0612
141.3819, 141.3251
141.8640, 141.3237
142.3462, 140.9082
142.8283, 140.2938
143.3104, 140.1074
143.7925, 140.4478
144.2746, 140.9151
144.7567, 141.4274
145.2388, 141.9599
145.7210, 142.3911
146.2031, 142.5655
146.6852, 142.6664
147.1673, 143.0181
147.6494, 143.6541
148.1315, 144.5103
148.6137, 145.5778
149.0958, 146.8832
149.5779, 148.2222
150.0600, 149.2173
150.5421, 150.3063
151.0242, 152.0151
151.5064, 154.6422
151.9885, 157.8004
152.4706, 160.6029
152.9527, 162.6682
153.4348, 165.1758
153.9169, 168.7915
154.3991, 172.8989
154.8812, 176.9042
155.3633, 180.5731
155.8454, 183.7806
156.3275, 185.7110
156.8096, 186.2227
157.2918, 185.3259
157.7739, 182.3515
158.2560, 178.0028
158.7381, 173.4021
159.2202, 169.3600
159.7023, 165.8917
160.1845, 162.4260
160.6666, 159.0224
161.1487, 155.5622
161.6308, 151.9093
162.1129, 148.1391
162.5950, 144.4623
163.0772, 141.0613
163.5593, 137.9385
164.0414, 135.2550
164.5235, 132.9741
165.0056, 131.1113
165.4877, 129.8011
165.9698, 129.0270
166.4520, 128.4904
166.9341, 127.9809
167.4162, 127.4934
167.8983, 126.8025
168.3804, 125.6274
168.8625, 124.3344
169.3447, 123.4224
169.8268, 123.0184
170.3089, 122.7564
170.7910, 122.1581
171.2731, 121.3411
171.7552, 120.8185
172.2374, 121.0940
172.7195, 121.8381
173.2016, 122.0226
173.6837, 121.1128
174.1658, 120.2823
174.6479, 120.4652
175.1301, 121.4591
175.6122, 122.4975
176.0943, 123.1691
176.5764, 123.4739
177.0585, 123.3163
177.5406, 122.0406
178.0228, 120.8894
178.5049, 120.5206
178.9870, 120.8610
179.4691, 121.4338
179.9512, 121.8247
180.4333, 122.0213
180.9155, 122.0862
181.3976, 122.0931
181.8797, 121.9162
182.3618, 121.3070
182.8439, 120.3489
183.3260, 119.4644
183.8082, 119.2571
184.2903, 120.2440
184.7724, 120.5322
185.2545, 119.3312
185.7366, 118.1479
186.2187, 118.1775
186.7009, 119.5319
187.1830, 121.2243
187.6651, 121.8014
188.1472, 120.4239
188.6293, 119.6252
189.1114, 119.9723
189.5936, 120.5643
190.0757, 120.4653
190.5578, 119.4449
191.0399, 118.2302
191.5220, 118.0692
192.0041, 119.5176
192.4863, 120.4740
192.9684, 120.4626
193.4505, 119.9223
193.9326, 119.3664
194.4147, 118.9272
194.8968, 118.5674
195.3790, 118.1899
195.8611, 117.7439
196.3432, 117.5235
196.8253, 117.7406
197.3074, 118.2419
197.7895, 118.6627
198.2717, 118.8293
198.7538, 119.0316
199.2359, 119.7277
199.7180, 120.9347
200.2001, 122.0128
200.6822, 122.6216
201.1644, 122.8140
201.6465, 122.7807
202.1286, 122.2517
202.6107, 121.8817
203.0928, 122.4453
203.5749, 123.9231
204.0571, 125.2122
204.5392, 125.3150
205.0213, 124.2508
205.5034, 123.3312
205.9855, 123.1257
206.4676, 122.8171
206.9497, 121.7908
207.4319, 120.0668
207.9140, 118.2396
208.3961, 116.8722
208.8782, 115.9982
209.3603, 115.3778
209.8424, 115.2522
210.3246, 115.1892
210.8067, 114.9982
211.2888, 114.6543
211.7709, 114.2373
212.2530, 113.8138
212.7351, 113.3428
213.2173, 113.0097
213.6994, 112.8425
214.1815, 112.7780
214.6636, 112.8125
215.1457, 112.9304
215.6278, 113.0878
216.1100, 113.2322
216.5921, 113.3697
217.0742, 113.4751
217.5563, 113.4597
218.0384, 113.4828
218.5205, 113.6960
219.0027, 114.0972
219.4848, 114.5228
219.9669, 114.7395
220.4490, 114.6038
220.9311, 114.6160
221.4132, 114.6550
221.8954, 114.8998
222.3775, 115.5815
222.8596, 116.7030
223.3417, 117.9654
223.8238, 119.0071
224.3059, 119.7906
224.7881, 120.3603
225.2702, 120.3684
225.7523, 120.3721
226.2344, 120.9779
226.7165, 122.2747
227.1986, 123.6640
227.6807, 124.3328
228.1629, 124.0369
228.6450, 124.2902
229.1271, 125.4637
229.6092, 127.0874
230.0913, 128.6996
230.5734, 130.2150
231.0556, 131.7561
231.5377, 133.3781
232.0198, 135.0763
232.5019, 137.1751
232.9840, 140.1279
233.4661, 143.3354
233.9483, 145.9268
234.4304, 147.6885
234.9125, 149.4587
235.3946, 152.3284
235.8767, 156.0172
236.3588, 159.3416
236.8410, 162.0942
237.3231, 164.2756
237.8052, 165.8932
238.2873, 166.9405
238.7694, 167.4630
239.2515, 167.4151
239.7337, 166.8883
240.2158, 165.9370
240.6979, 164.2662
241.1800, 162.2518
241.6621, 160.6037
242.1442, 159.3877
242.6264, 158.3735
243.1085, 157.3937
243.5906, 156.5015
244.0727, 155.8062
244.5548, 155.2858
245.0369, 155.0217
245.5191, 155.2541
246.0012, 156.1560
246.4833, 157.1557
246.9654, 157.7187
247.4475, 158.2522
247.9296, 159.2881
248.4117, 160.9809
248.8939, 163.3758
249.3760, 166.7596
249.8581, 171.5961
250.3402, 176.4529
250.8223, 180.5036
251.3044, 184.3878
251.7866, 188.7464
252.2687, 193.8136
252.7508, 199.6030
253.2329, 206.2611
253.7150, 213.9523
254.1971, 222.1886
254.6793, 230.5321
255.1614, 239.3790
255.6435, 249.5881
256.1256, 261.5704
256.6077, 274.0237
257.0898, 284.6596
257.5720, 294.5978
258.0541, 299.9044
258.5362, 300.8475
259.0183, 297.5254
259.5004, 289.3907
259.9825, 276.3517
260.4647, 259.8992
260.9468, 242.3504
261.4289, 221.8232
261.9110, 204.0987
262.3931, 189.5868
262.8752, 177.2948
263.3574, 166.6743
263.8395, 157.4604
264.3216, 149.6015
264.8037, 143.0493
265.2858, 138.3985
265.7679, 133.9663
266.2501, 129.3130
266.7322, 125.1144
267.2143, 121.8292
267.6964, 119.5495
268.1785, 118.1101
268.6606, 117.4113
269.1428, 117.9548
269.6249, 117.9266
270.1070, 117.0365
270.5891, 115.9226
271.0712, 114.8963
271.5533, 114.0256
272.0355, 113.2571
272.5176, 112.5090
272.9997, 111.7084
273.4818, 111.2996
273.9639, 111.4009
274.4460, 111.7017
274.9282, 112.0936
275.4103, 112.5437
275.8924, 113.0200
276.3745, 113.4782
276.8566, 113.8950
277.3387, 114.5505
277.8208, 115.7449
278.3029, 116.8371
278.7851, 117.4918
279.2672, 117.7950
279.7493, 118.0145
280.2314, 118.3116
280.7135, 118.6944
281.1956, 119.4973
281.6778, 120.9994
282.1599, 122.5383
282.6420, 123.9916
283.1241, 125.3112
283.6062, 126.3850
284.0883, 127.1056
284.5705, 127.5770
285.0526, 128.3879
285.5347, 129.1445
286.0168, 130.6185
286.4989, 133.6236
286.9810, 137.3833
287.4632, 140.4983
287.9453, 142.2580
288.4274, 143.2160
288.9095, 144.9996
289.3916, 148.3295
289.8737, 151.3404
290.3559, 153.5861
290.8380, 155.3847
291.3201, 157.2555
291.8022, 159.4045
292.2843, 161.3792
292.7664, 162.3172
293.2486, 161.8567
293.7307, 161.2070
294.2128, 160.7175
294.6949, 159.9846
295.1770, 158.4984
295.6591, 156.1370
296.1413, 153.3003
296.6234, 150.4093
297.1055, 147.3900
297.5876, 144.6853
298.0697, 142.5230
298.5518, 140.5489
299.0340, 138.4383
299.5161, 136.1688
299.9982, 133.9163
300.4803, 131.7872
300.9624, 129.8012
301.4445, 128.2894
301.9267, 127.6711
302.4088, 127.1855
302.8909, 126.2720
303.3730, 124.9733
303.8551, 123.7510
304.3372, 122.9797
304.8194, 122.5798
305.3015, 121.8111
305.7836, 120.5549
306.2657, 119.0901
306.7478, 117.5832
307.2299, 115.9814
307.7121, 114.0278
308.1942, 111.4586
308.6763, 108.5911
309.1584, 106.5923
309.6405, 105.9007
310.1227, 105.2150
310.6048, 104.1956
311.0869, 102.8920
311.5690, 101.2421
312.0511, 99.11118
312.5332, 97.02905
313.0154, 96.23511
313.4975, 97.16014
313.9796, 97.79037
314.4617, 97.61060
314.9438, 96.96715
315.4259, 96.17670
315.9081, 95.29863
316.3902, 94.59650
316.8723, 94.41586
317.3544, 94.81701
317.8365, 95.44827
318.3186, 96.56569
318.8007, 97.72892
319.2828, 98.52145
319.7650, 98.91138
320.2471, 99.11465
320.7292, 99.18990
321.2113, 99.17458
321.6934, 99.82116
322.1755, 101.6470
322.6577, 103.6650
323.1398, 105.4040
323.6219, 106.8269
324.1040, 107.9727
324.5861, 108.8796
325.0682, 109.5005
325.5504, 109.6271
326.0325, 109.0751
326.5146, 108.3255
326.9967, 107.5537
327.4788, 106.7057
327.9609, 105.6232
328.4431, 104.2040
328.9252, 102.6047
329.4073, 101.1917
329.8894, 100.0464
330.3715, 98.87792
330.8536, 97.62792
331.3358, 96.33200
331.8179, 94.96917
332.3000, 93.53087
332.7821, 92.20918
333.2642, 91.26259
333.7463, 90.78474
334.2285, 90.43159
334.7106, 90.43667
335.1927, 90.40164
335.6748, 89.81963
336.1569, 88.73158
336.6390, 87.84587
337.1212, 87.88121
337.6033, 88.88889
338.0854, 89.28680
338.5675, 88.50464
339.0496, 87.74026
339.5317, 87.64507
340.0139, 88.07104
340.4960, 88.49773
340.9781, 88.59543
341.4602, 88.47343
341.9423, 88.69558
342.4244, 89.51134
342.9066, 90.31288
343.3887, 91.00962
343.8708, 91.60999
344.3529, 92.11639
344.8350, 92.52724
345.3171, 92.86539
345.7993, 93.17714
346.2814, 93.54729
346.7635, 93.71866
347.2456, 93.36829
347.7277, 93.01286
348.2098, 93.17759
348.6920, 93.90575
349.1741, 94.77080
349.6562, 95.27016
350.1383, 95.28349
350.6204, 95.55157
351.1025, 96.62437
351.5847, 97.40853
352.0668, 97.02450
352.5489, 95.81743
353.0310, 94.86716
353.5131, 94.99718
353.9952, 96.07099
354.4774, 96.67374
354.9595, 96.13893
355.4416, 95.90659
355.9237, 96.41012
356.4058, 97.33220
356.8879, 98.24364
357.3701, 98.95101
357.8522, 99.54700
358.3343, 100.2438
358.8164, 100.9729
359.2985, 101.9392
359.7806, 103.0464
360.2627, 104.4333
360.7448, 106.3070
361.2270, 108.6531
361.7091, 111.1514
362.1912, 113.4285
362.6733, 115.4085
363.1554, 117.5085
363.6375, 120.2484
364.1197, 122.6044
364.6018, 124.2325
365.0839, 125.1295
365.5660, 125.3996
366.0481, 125.1527
366.5302, 124.3391
367.0124, 122.5347
367.4945, 119.0149
367.9766, 115.3644
368.4587, 111.7737
368.9408, 108.2925
369.4229, 104.9062
369.9051, 101.6217
370.3872, 98.55724
370.8693, 95.91299
371.3514, 93.68826
371.8335, 91.93728
372.3156, 90.95043
372.7978, 90.18562
373.2799, 89.29274
373.7620, 88.24641
374.2441, 87.24138
374.7262, 86.56218
375.2083, 86.23596
375.6905, 85.61967
376.1726, 84.44170
376.6547, 83.26400
377.1368, 82.32686
377.6189, 81.57050
378.1010, 80.85928
378.5832, 80.09523
379.0653, 79.33750
379.5474, 78.74175
380.0295, 78.32961
380.5116, 78.02728
380.9937, 77.96450
381.4759, 77.92017
381.9580, 77.63089
382.4401, 76.99913
382.9222, 76.33081
383.4043, 76.02142
383.8864, 76.06589
384.3686, 75.94273
384.8507, 75.39196
385.3328, 74.79610
385.8149, 74.58777
386.2970, 74.70823
386.7791, 74.61033
387.2613, 73.57934
387.7434, 72.16222
388.2255, 71.84826
388.7076, 73.05405
389.1897, 74.26191
389.6718, 74.17990
390.1540, 73.34032
390.6361, 72.79996
391.1182, 73.09942
391.6003, 73.42219
392.0824, 72.77673
392.5645, 71.30601
393.0467, 70.35093
393.5288, 70.66225
394.0109, 71.60865
394.4930, 72.00761
394.9751, 71.76206
395.4572, 71.43518
395.9394, 71.16655
396.4215, 70.97891
396.9036, 70.95432
397.3857, 71.12456
397.8678, 71.31451
398.3499, 71.36081
398.8321, 71.25173
399.3142, 71.00904
399.7963, 70.43188
400.2784, 69.88222
400.7605, 69.59957
401.2426, 69.57159
401.7247, 69.70039
402.2068, 69.94810
402.6890, 70.28765
403.1711, 70.59569
403.6532, 70.90998
404.1353, 71.15184
404.6174, 71.31284
405.0995, 71.39196
405.5817, 71.30787
406.0638, 71.05380
406.5459, 70.85879
407.0280, 71.06293
407.5101, 71.81405
407.9922, 72.51919
408.4744, 73.06722
408.9565, 73.67098
409.4386, 74.67736
409.9207, 75.87862
410.4028, 76.64487
410.8849, 76.46789
411.3671, 75.51077
411.8492, 75.03117
412.3313, 75.36008
412.8134, 75.79727
413.2955, 76.26711
413.7776, 76.78654
414.2598, 77.38799
414.7419, 78.08010
415.2240, 78.83231
415.7061, 79.59309
416.1882, 80.34982
416.6703, 81.17269
417.1525, 82.05972
417.6346, 83.01724
418.1167, 84.05069
418.5988, 85.16422
419.0809, 86.34511
419.5630, 87.59517
420.0452, 88.90858
420.5273, 90.28313
421.0094, 91.70351
421.4915, 93.20876
421.9736, 94.86111
422.4557, 96.57096
422.9379, 98.21068
423.4200, 99.72582
423.9021, 101.2717
424.3842, 103.2641
424.8663, 105.6518
425.3484, 107.2389
425.8306, 107.6174
426.3127, 107.2747
426.7948, 106.7149
427.2769, 105.9208
427.7590, 104.7231
428.2411, 102.9889
428.7233, 100.8292
429.2054, 98.29528
429.6875, 95.34505
430.1696, 92.49912
430.6517, 90.06260
431.1339, 87.99592
431.6160, 86.07444
432.0981, 84.25810
432.5802, 82.64723
433.0623, 81.33080
433.5444, 80.25910
434.0266, 79.37354
434.5087, 78.68650
434.9908, 78.01916
435.4729, 77.09366
435.9550, 75.80666
436.4371, 74.75298
436.9193, 74.00607
437.4014, 73.45432
437.8835, 73.10638
438.3656, 72.90573
438.8477, 72.68351
439.3298, 72.31949
439.8120, 71.85510
440.2941, 71.52320
440.7762, 71.23278
441.2583, 71.19545
441.7404, 71.69920
442.2225, 72.33022
442.7046, 72.66730
443.1867, 72.60742
443.6689, 72.33524
444.1510, 72.05993
444.6331, 71.75965
445.1152, 71.56330
445.5973, 71.48077
446.0794, 71.49567
446.5616, 71.50785
447.0437, 71.62663
447.5258, 72.12861
448.0079, 73.24777
448.4900, 74.61858
448.9721, 75.21098
449.4543, 74.60517
449.9364, 74.43202
450.4185, 75.53806
450.9006, 76.90334
451.3827, 77.89956
451.8648, 78.44052
452.3470, 78.68143
452.8291, 78.59605
453.3112, 78.27882
453.7933, 78.17336
454.2754, 78.38071
454.7575, 78.61417
455.2397, 78.81884
455.7218, 78.90138
456.2039, 78.60574
456.6860, 77.53793
457.1681, 76.56329
457.6502, 76.68511
458.1324, 77.62022
458.6145, 78.00279
459.0966, 77.24150
459.5787, 76.03977
460.0608, 75.44945
460.5429, 75.49461
461.0251, 75.55946
461.5072, 75.50997
461.9893, 75.45466
462.4714, 75.44064
462.9535, 75.49580
463.4356, 75.71059
463.9178, 76.14864
464.3999, 76.79568
464.8820, 77.59779
465.3641, 78.85696
465.8462, 79.87553
466.3283, 80.51572
466.8105, 80.89690
467.2926, 81.01474
467.7747, 80.93013
468.2568, 80.97153
468.7389, 81.59976
469.2210, 82.98241
469.7032, 83.86571
470.1853, 83.96519
470.6674, 83.84715
471.1495, 83.53605
471.6316, 83.14503
472.1137, 82.85045
472.5959, 82.74780
473.0780, 82.69300
473.5601, 82.30391
474.0422, 81.38956
474.5243, 80.96452
475.0064, 81.55793
475.4886, 82.43383
475.9707, 83.26225
476.4528, 83.99156
476.9349, 84.56889
477.4170, 84.99791
477.8991, 85.23994
478.3813, 85.10825
478.8634, 84.51963
479.3455, 84.04920
479.8276, 83.89613
480.3097, 84.11404
480.7918, 84.82456
481.2740, 86.24907
481.7561, 87.54548
482.2382, 88.09859
482.7203, 88.27840
483.2024, 88.78593
483.6845, 89.76607
484.1666, 90.95354
484.6487, 92.22960
485.1309, 93.58168
485.6130, 94.25823
486.0951, 93.80851
486.5772, 93.20886
487.0593, 92.86346
487.5414, 92.65783
488.0236, 92.46954
488.5057, 92.24735
488.9878, 91.70761
489.4699, 90.27273
489.9520, 87.28503
490.4341, 84.99398
490.9163, 83.75658
491.3984, 82.76302
491.8805, 81.68046
492.3626, 80.50217
492.8447, 79.34537
493.3268, 78.30222
493.8090, 77.30103
494.2911, 76.08402
494.7732, 74.50146
495.2553, 73.12075
495.7374, 72.17260
496.2195, 71.41735
496.7017, 70.69900
497.1838, 70.00819
497.6659, 69.42835
498.1480, 69.10144
498.6301, 68.92879
499.1122, 68.60838
499.5944, 68.08578
500.0765, 67.62683
500.5586, 67.46203
501.0407, 67.43290
501.5228, 67.18362
502.0049, 66.53957
502.4871, 66.01490
502.9692, 65.96925
503.4513, 66.18747
503.9334, 66.31631
504.4155, 66.28078
504.8976, 66.06102
505.3798, 65.54488
505.8619, 64.69405
506.3440, 64.43864
506.8261, 65.47676
507.3082, 66.26931
507.7903, 66.10396
508.2725, 65.37057
508.7546, 64.60633
509.2367, 64.02824
509.7188, 63.70548
510.2009, 63.81474
510.6830, 64.57055
511.1652, 65.03242
511.6473, 64.75694
512.1294, 64.62561
512.6115, 65.22196
513.0936, 66.19469
513.5757, 66.78461
514.0579, 66.53899
514.5400, 65.91791
515.0221, 65.79955
515.5042, 66.25975
515.9863, 66.63573
516.4684, 66.69232
516.9506, 66.70213
517.4327, 66.93422
517.9148, 67.35464
518.3969, 67.69694
518.8790, 67.88641
519.3611, 67.91673
519.8433, 67.54745
520.3254, 66.84524
520.8075, 66.75298
521.2896, 67.92641
521.7717, 69.74753
522.2538, 70.71956
522.7360, 70.59689
523.2181, 70.53208
523.7002, 70.75219
524.1823, 71.08176
524.6644, 71.38663
525.1465, 71.64909
525.6287, 71.89123
526.1108, 72.12105
526.5929, 72.35075
527.0750, 72.65169
527.5571, 73.01510
528.0392, 73.47008
528.5214, 74.09298
529.0035, 74.75380
529.4856, 75.25736
529.9677, 75.63846
530.4498, 76.20420
530.9319, 77.30800
531.4141, 78.84306
531.8962, 80.12430
532.3783, 80.95908
532.8604, 81.97922
533.3425, 83.41883
533.8246, 85.20271
534.3068, 87.43057
534.7889, 90.19640
535.2710, 92.80952
535.7531, 94.64379
536.2352, 96.04509
536.7173, 97.80167
537.1995, 100.0311
537.6816, 102.3441
538.1637, 104.3369
538.6458, 106.1650
539.1279, 108.6480
539.6100, 112.5923
540.0922, 116.1530
540.5743, 118.6226
541.0564, 120.5288
541.5385, 122.2509
542.0206, 123.9904
542.5027, 126.3243
542.9849, 129.9213
543.4670, 134.8123
543.9491, 139.5870
544.4312, 143.3918
544.9133, 148.1161
545.3954, 154.5232
545.8775, 161.8257
546.3596, 169.0231
546.8417, 175.8839
547.3239, 183.1292
547.8060, 191.5606
548.2881, 201.1245
548.7702, 210.8758
549.2523, 220.8979
549.7344, 230.7929
550.2166, 240.3088
550.6987, 249.5237
551.1808, 258.8162
551.6629, 268.8388
552.1450, 277.4874
552.6271, 283.5987
553.1093, 287.3942
553.5914, 289.2923
554.0735, 289.3721
554.5556, 287.7115
555.0377, 284.2371
555.5198, 278.9420
556.0020, 272.9951
556.4841, 265.8935
556.9662, 258.8527
557.4483, 251.7279
557.9304, 245.0090
558.4125, 239.5470
558.8947, 235.4153
559.3768, 231.7320
559.8589, 227.3227
560.3410, 222.1660
560.8231, 218.3232
561.3052, 216.6857
561.7874, 215.1558
562.2695, 213.1074
562.7516, 210.7650
563.2337, 208.3359
563.7158, 205.8703
564.1979, 203.4305
564.6801, 200.7691
565.1622, 198.1618
565.6443, 196.6499
566.1264, 196.4720
566.6085, 196.6447
567.0906, 196.2710
567.5728, 195.7783
568.0549, 196.6067
568.5370, 199.1479
569.0191, 202.3690
569.5012, 206.0448
569.9833, 210.1446
570.4655, 214.6965
570.9476, 219.6580
571.4297, 224.9900
571.9118, 230.6223
572.3939, 236.5562
572.8760, 242.5419
573.3582, 249.0191
573.8403, 254.9444
574.3224, 260.6281
574.8045, 265.4616
575.2866, 269.1678
575.7687, 271.5927
576.2509, 272.2708
576.7330, 270.6964
577.2151, 267.0638
577.6972, 262.0594
578.1793, 255.6563
578.6614, 247.9950
579.1436, 238.7049
579.6257, 228.4766
580.1078, 218.3788
580.5899, 208.4446
581.0720, 198.5484
581.5541, 188.3474
582.0363, 178.3501
582.5184, 168.9106
583.0005, 160.1481
583.4826, 152.2378
583.9647, 145.3128
584.4468, 139.2473
584.9290, 133.6432
585.4111, 128.4728
585.8932, 123.8333
586.3753, 119.7232
586.8574, 116.0857
587.3395, 113.0839
587.8217, 110.5248
588.3038, 107.9329
588.7859, 104.9971
589.2680, 101.9480
589.7501, 99.37456
590.2322, 97.35558
590.7144, 95.19091
591.1965, 92.48023
591.6786, 89.87329
592.1607, 87.99634
592.6428, 86.71943
593.1249, 85.46905
593.6071, 84.06187
594.0892, 82.62991
594.5713, 81.24814
595.0534, 79.94253
595.5355, 78.74956
596.0176, 77.67871
596.4998, 76.82231
596.9819, 76.35584
597.4640, 76.40499
597.9461, 76.05250
598.4282, 74.88684
598.9103, 73.85246
599.3925, 73.37932
599.8746, 73.16183
600.3567, 72.76144
600.8388, 72.05139
601.3209, 71.27268
601.8030, 70.70078
602.2852, 70.32561
602.7673, 69.97601
603.2494, 69.69798
603.7315, 69.33986
604.2136, 68.58408
604.6957, 67.79754
605.1779, 67.56688
605.6600, 68.09378
606.1421, 68.57941
606.6242, 68.59753
607.1063, 68.34779
607.5884, 68.04814
608.0706, 67.74356
608.5527, 67.55051
609.0348, 67.57760
609.5169, 67.72669
609.9990, 67.64613
610.4811, 66.89039
610.9633, 66.57350
611.4454, 67.01295
611.9275, 67.61201
612.4096, 68.03434
612.8917, 68.27124
613.3738, 68.46008
613.8560, 68.71126
614.3381, 68.87737
614.8202, 68.48194
615.3023, 67.43156
615.7844, 67.11275
616.2665, 68.35448
616.7487, 69.61844
617.2308, 69.31380
617.7129, 67.83028
618.1950, 66.64563
618.6771, 66.10226
619.1592, 65.89553
619.6414, 65.93800
620.1235, 66.16791
620.6056, 66.61689
621.0877, 67.25927
621.5698, 67.58945
622.0519, 66.98418
622.5341, 65.43207
623.0162, 64.44572
623.4983, 64.57928
623.9804, 64.59372
624.4625, 64.13603
624.9446, 63.56954
625.4268, 63.29968
625.9089, 63.34652
626.3910, 63.33347
626.8730, 62.99711
627.3552, 62.37976
627.8373, 61.40993
628.3194, 60.02353
628.8015, 59.18507
629.2836, 59.50565
629.7657, 60.29808
630.2479, 60.47158
630.7300, 60.00180
631.2121, 59.47549
631.6942, 58.76733
632.1763, 58.22386
632.6584, 58.29551
633.1406, 58.67021
633.6227, 58.60606
634.1048, 57.82092
634.5869, 56.83139
635.0690, 56.44243
635.5511, 56.76588
636.0333, 56.87178
636.5154, 56.45980
636.9975, 56.25042
637.4796, 56.83945
637.9617, 57.61258
638.4438, 57.69724
638.9260, 56.85395
639.4081, 55.96498
639.8902, 55.57294
640.3723, 55.57232
640.8544, 55.87709
641.3365, 56.45914
641.8187, 56.98009
642.3008, 57.25115
642.7829, 57.33442
643.2650, 57.37595
643.7471, 57.29826
644.2292, 57.33390
644.7114, 57.52147
645.1935, 57.78493
645.6756, 58.17235
646.1577, 58.58875
646.6398, 58.81708
647.1219, 58.74289
647.6041, 58.62624
648.0862, 58.86768
648.5683, 59.46150
649.0504, 60.09505
649.5325, 60.76045
650.0146, 61.39948
650.4968, 61.71098
650.9789, 62.02961
651.4610, 63.19972
651.9431, 65.89709
652.4252, 68.05518
652.9073, 68.48811
653.3895, 68.19152
653.8716, 68.17247
654.3537, 68.54021
654.8358, 69.01354
655.3179, 69.38783
655.8000, 69.84486
656.2822, 70.99464
656.7643, 73.28385
657.2464, 75.11986
657.7285, 75.76529
658.2106, 76.52233
658.6927, 78.14812
659.1749, 80.31893
659.6570, 82.23321
660.1391, 83.50510
660.6212, 84.77268
661.1033, 86.58316
661.5854, 88.84071
662.0676, 91.28523
662.5497, 93.86614
663.0318, 96.82697
663.5139, 100.4302
663.9960, 104.5454
664.4781, 108.4894
664.9603, 112.1565
665.4424, 115.7913
665.9245, 119.5441
666.4066, 123.1662
666.8887, 126.5351
667.3708, 129.6242
667.8530, 132.5218
668.3351, 135.4053
668.8172, 137.7169
669.2993, 138.5788
669.7814, 138.0114
670.2635, 136.4778
670.7457, 133.9895
671.2278, 130.7159
671.7099, 126.6733
672.1920, 121.9214
672.6741, 116.9094
673.1563, 111.3032
673.6384, 105.9805
674.1205, 101.3747
674.6026, 97.10818
675.0847, 92.63843
675.5668, 88.07756
676.0490, 84.05964
676.5311, 81.00779
677.0132, 78.64204
677.4953, 76.20772
677.9774, 73.60485
678.4595, 71.43730
678.9417, 70.02818
679.4238, 68.74792
679.9059, 67.01084
680.3880, 65.11846
680.8701, 63.80591
681.3522, 63.47072
681.8344, 63.22261
682.3165, 62.49720
682.7986, 61.56523
683.2807, 60.75817
683.7628, 60.14309
684.2449, 59.76642
684.7271, 59.68957
685.2092, 59.79749
685.6913, 59.72424
686.1734, 59.41455
686.6555, 59.05154
687.1376, 58.74082
687.6198, 58.28395
688.1019, 57.38499
688.5840, 56.30592
689.0661, 55.59790
689.5482, 55.53050
690.0303, 55.57009
690.5125, 55.21717
690.9946, 54.64921
691.4767, 54.25198
691.9588, 54.06889
692.4409, 53.97029
692.9230, 53.87749
693.4052, 53.80127
693.8873, 53.77922
694.3694, 53.92628
694.8515, 53.91305
695.3336, 53.46148
695.8157, 53.14163
696.2979, 53.46765
696.7800, 54.07896
697.2621, 54.19444
697.7442, 53.47347
698.2263, 52.76418
698.7084, 53.17549
699.1906, 54.30651
699.6727, 54.72784
700.1548, 54.26833
700.6369, 53.88541
701.1190, 54.09786
701.6011, 54.75044
702.0833, 55.53381
702.5654, 56.73402
703.0475, 57.35193
703.5296, 56.66146
704.0117, 56.10944
704.4938, 56.55322
704.9760, 57.62371
705.4581, 58.65284
705.9402, 59.40587
706.4223, 60.11467
706.9044, 61.14726
707.3865, 62.36312
707.8687, 63.03825
708.3508, 63.06761
708.8329, 63.21434
709.3149, 63.95555
709.7971, 64.85533
710.2792, 65.08538
710.7613, 64.47485
711.2434, 64.17086
711.7255, 64.56554
712.2076, 64.94591
712.6898, 65.06586
713.1719, 64.90192
713.6540, 64.34478
714.1361, 63.41460
714.6182, 62.49875
715.1003, 62.09152
715.5825, 62.00604
716.0646, 61.27071
716.5467, 59.73699
717.0288, 58.65777
717.5109, 58.59399
717.9930, 58.99239
718.4752, 59.27279
718.9573, 59.43779
719.4394, 59.45053
719.9215, 59.13414
720.4036, 58.86498
720.8857, 58.74757
721.3679, 58.79127
721.8500, 59.16717
722.3321, 59.78407
722.8142, 60.10242
723.2963, 59.59363
723.7784, 58.60206
724.2606, 58.21047
724.7427, 58.50477
725.2248, 58.50176
725.7069, 57.86945
726.1890, 57.10051
726.6711, 56.64069
727.1533, 56.42048
727.6354, 56.11480
728.1175, 55.42278
728.5996, 55.02776
729.0817, 55.40728
729.5638, 55.98209
730.0460, 56.15429
730.5281, 55.96059
731.0102, 55.81254
731.4923, 55.96183
731.9744, 56.22390
732.4565, 56.20259
732.9387, 55.88894
733.4208, 55.84426
733.9029, 56.25682
734.3850, 56.59490
734.8671, 56.43447
735.3492, 55.99857
735.8314, 55.86415
736.3135, 56.15423
736.7956, 56.39173
737.2777, 56.57953
737.7598, 56.59295
738.2419, 56.27202
738.7241, 55.72108
739.2062, 55.13795
739.6883, 54.59665
740.1704, 54.09461
740.6525, 53.68988
741.1346, 53.34835
741.6168, 52.63663
742.0989, 51.38039
742.5810, 50.68070
743.0631, 51.29782
743.5452, 52.35816
744.0273, 52.55771
744.5095, 51.85009
744.9916, 51.22114
745.4737, 50.72950
745.9558, 50.35442
746.4379, 50.08059
746.9200, 49.92170
747.4022, 49.98991
747.8843, 50.23751
748.3664, 50.34190
748.8485, 49.96915
749.3306, 49.37489
749.8127, 49.23558
750.2949, 49.55323
750.7770, 49.71987
751.2591, 49.61491
751.7412, 49.28017
752.2233, 48.62094
752.7054, 47.72744
753.1876, 47.24331
753.6697, 47.67640
754.1518, 47.76917
754.6339, 47.08077
755.1160, 46.23461
755.5981, 45.53813
756.0803, 45.09713
756.5624, 45.07809
757.0445, 45.59830
757.5266, 46.22199
758.0087, 46.47377
758.4908, 46.38237
758.9730, 45.93152
759.4551, 45.09172
759.9372, 44.47210
760.4193, 44.40147
760.9014, 44.71880
761.3835, 45.15686
761.8657, 45.83725
762.3478, 46.22326
762.8299, 46.26721
763.3120, 46.09556
763.7941, 45.55904
764.2762, 44.93774
764.7584, 44.54813
765.2405, 44.43832
765.7226, 44.42818
766.2047, 44.48342
766.6868, 44.50642
767.1689, 44.28038
767.6511, 43.87868
768.1332, 43.65411
768.6153, 43.70542
769.0974, 43.79547
769.5795, 43.69673
770.0616, 43.43333
770.5438, 43.19184
771.0259, 42.78251
771.5080, 42.74036
771.9901, 43.59431
772.4722, 44.36031
772.9543, 44.36071
773.4365, 43.84253
773.9186, 43.43684
774.4007, 43.34441
774.8828, 43.33082
775.3649, 43.20606
775.8470, 43.08743
776.3292, 43.15288
776.8113, 43.39031
777.2934, 43.70732
777.7755, 44.06636
778.2576, 44.38069
778.7397, 44.48703
779.2219, 44.36406
779.7040, 44.31691
780.1861, 44.41235
780.6682, 44.44413
781.1503, 44.25460
781.6324, 44.02584
782.1146, 44.04634
782.5967, 44.29848
783.0788, 44.23354
783.5609, 43.32375
784.0430, 42.50930
784.5251, 42.29021
785.0073, 42.46296
785.4894, 42.91918
785.9715, 43.51487
786.4536, 43.80734
786.9357, 43.41637
787.4178, 42.72345
787.9000, 42.68910
788.3821, 43.30567
788.8642, 43.35105
789.3463, 42.46612
789.8284, 41.68188
790.3105, 41.70418
790.7927, 42.29539
791.2747, 42.86120
791.7568, 43.65953
792.2390, 43.79815
792.7211, 42.61553
793.2032, 41.41418
793.6853, 40.73513
794.1674, 40.49492
794.6495, 40.61787
795.1317, 41.04103
795.6138, 41.40226
796.0959, 41.29463
796.5780, 41.56210
797.0601, 41.13451
797.5422, 41.56626
798.0244, 41.74186
798.5065, 41.49913
798.9886, 41.14648
799.4707, 40.97314
799.9528, 40.95289
800.4349, 40.89509
800.9171, 40.71915
801.3992, 40.66597
801.8813, 40.88905
802.3634, 41.11733
802.8455, 41.15066
803.3276, 41.10064
803.8098, 41.24871
804.2919, 41.74935
804.7740, 42.07518
805.2561, 41.83612
805.7382, 41.38593
806.2203, 40.99176
806.7025, 40.71103
807.1846, 40.69166
807.6667, 40.56103
808.1488, 41.13813
808.6309, 40.60392
809.1130, 40.77013
809.5952, 40.79734
810.0773, 40.27300
810.5594, 40.71573
811.0415, 40.00694
811.5236, 39.19987
812.0057, 39.48525
812.4879, 40.71090
812.9700, 41.21311
813.4521, 40.36651
813.9342, 39.68843
814.4163, 39.49059
814.8984, 39.47116
815.3806, 39.45655
815.8627, 39.43583
816.3448, 39.44625
816.8269, 39.50385
817.3090, 39.56630
817.7911, 39.62631
818.2733, 39.65047
818.7554, 39.54605
819.2375, 39.32881
819.7196, 39.10901
820.2017, 38.92476
820.6838, 38.80503
821.1660, 38.79549
821.6481, 38.89268
822.1302, 38.97260
822.6123, 39.04325
823.0944, 39.08024
823.5765, 39.07673
824.0587, 39.03804
824.5408, 38.92462
825.0229, 38.77819
825.5050, 38.75237
825.9871, 39.03291
826.4692, 39.11465
826.9514, 38.51478
827.4335, 37.86580
827.9156, 37.82812
828.3977, 38.22484
828.8798, 38.52763
829.3619, 38.53395
829.8441, 38.43230
830.3262, 38.45105
830.8083, 38.36288
831.2904, 38.46675
831.7725, 38.23868
832.2546, 38.08868
832.7368, 38.08814
833.2189, 38.20776
833.7010, 38.45482
834.1831, 38.80450
834.6652, 38.98592
835.1473, 38.93581
835.6295, 38.81105
836.1116, 38.68314
836.5937, 38.43103
837.0758, 37.69106
837.5579, 36.84759
838.0400, 36.78072
838.5222, 37.87721
839.0043, 38.73073
839.4864, 38.24418
839.9685, 37.46909
840.4506, 37.50932
840.9327, 38.10695
841.4149, 38.59709
841.8970, 38.76239
842.3791, 38.66360
842.8612, 38.24285
843.3433, 37.71009
843.8254, 37.92751
844.3076, 38.93222
844.7897, 39.48307
845.2718, 39.24550
845.7539, 38.80424
846.2360, 38.53804
846.7181, 38.43387
847.2003, 38.46679
847.6824, 38.86288
848.1645, 38.94288
848.6466, 38.36320
849.1287, 37.86591
849.6108, 37.76170
850.0930, 37.91537
850.5751, 38.20889
851.0572, 38.60051
851.5393, 38.86390
852.0214, 38.75731
852.5035, 38.59652
852.9857, 38.75911
853.4678, 39.02547
853.9499, 38.90206
854.4320, 38.39622
854.9141, 38.06337
855.3962, 38.32014
855.8784, 38.77734
856.3605, 38.51725
856.8426, 37.57158
857.3247, 37.18025
857.8068, 37.52367
858.2889, 37.95561
858.7711, 38.23510
859.2532, 38.33326
859.7353, 38.10705
860.2174, 37.43094
860.6995, 37.36839
861.1816, 38.82810
861.6638, 39.66942
862.1459, 39.10801
862.6280, 38.10453
863.1101, 37.19185
863.5922, 36.52158
864.0743, 36.37177
864.5565, 37.02834
865.0386, 37.68420
865.5207, 37.78780
866.0028, 37.64502
866.4849, 37.56877
866.9670, 37.56811
867.4492, 37.58571
867.9313, 37.59623
868.4134, 37.57056
868.8955, 37.46702
869.3776, 37.30461
869.8597, 37.05541
870.3419, 36.71761
870.8240, 36.92389
871.3061, 37.97808
871.7882, 38.88897
872.2703, 38.76731
872.7524, 37.89000
873.2346, 37.33393
873.7166, 37.16906
874.1987, 37.18665
874.6808, 37.62212
875.1630, 37.97584
875.6451, 38.07002
876.1272, 37.98169
876.6093, 37.72195
877.0914, 37.30423
877.5735, 37.11852
878.0557, 37.54219
878.5378, 37.95825
879.0199, 37.78998
879.5020, 37.54248
879.9841, 38.07885
880.4662, 39.21255
880.9484, 39.89684
881.4305, 39.53151
881.9126, 38.76305
882.3947, 38.32690
882.8768, 38.18220
883.3589, 38.28434
883.8411, 38.60061
884.3232, 38.82301
884.8053, 38.82668
885.2874, 38.73468
885.7695, 38.68453
886.2516, 38.67548
886.7338, 38.69783
887.2159, 38.74122
887.6980, 38.83615
888.1801, 38.89473
888.6622, 39.13485
889.1443, 39.89871
889.6265, 40.91478
890.1086, 41.51749
890.5907, 41.53041
891.0728, 41.65840
891.5549, 42.03868
892.0370, 42.51401
892.5192, 43.10769
893.0013, 43.69421
893.4834, 44.01362
893.9655, 44.12898
894.4476, 44.54594
894.9297, 45.77024
895.4119, 46.98063
895.8940, 47.28561
896.3761, 47.11221
896.8582, 46.97851
897.3403, 47.05034
897.8224, 47.75044
898.3046, 49.27104
898.7867, 50.88443
899.2688, 51.54844
899.7509, 51.42041
900.2330, 51.52417
900.7151, 51.88066
901.1973, 52.14710
901.6794, 52.30419
902.1615, 52.03577
902.6436, 50.89499
903.1257, 49.19173
903.6078, 48.32093
904.0900, 48.98303
904.5721, 48.98457
905.0542, 47.75476
905.5363, 46.52196
906.0184, 45.78772
906.5005, 45.29164
906.9827, 44.68412
907.4648, 43.95260
907.9469, 43.48346
908.4290, 43.60266
908.9111, 43.71346
909.3932, 43.50986
909.8754, 43.22206
910.3575, 42.94955
910.8396, 42.81057
911.3217, 43.09097
911.8038, 43.93926
912.2859, 44.79273
912.7681, 45.02368
913.2502, 45.02513
913.7323, 45.50121
914.2144, 46.29741
914.6965, 46.83020
915.1786, 46.96033
915.6608, 46.98845
916.1429, 47.14646
916.6250, 47.43960
917.1071, 47.91834
917.5892, 48.58422
918.0714, 49.24541
918.5535, 49.91847
919.0356, 50.44070
919.5177, 50.77630
919.9998, 50.83040
920.4819, 50.40437
920.9641, 49.44789
921.4462, 48.69343
921.9283, 48.25438
922.4104, 47.82552
922.8925, 47.52765
923.3746, 47.05841
923.8568, 45.98749
924.3389, 44.64302
924.8210, 43.87723
925.3031, 44.02386
925.7852, 43.88719
926.2673, 42.85319
926.7495, 41.81346
927.2316, 41.37646
927.7137, 41.16130
928.1958, 40.56420
928.6779, 39.62169
929.1600, 38.95008
929.6422, 38.86863
930.1243, 39.16458
930.6064, 39.91625
931.0885, 40.77481
931.5706, 41.19740
932.0527, 41.22660
932.5349, 41.11771
933.0170, 40.98187
933.4991, 40.92509
933.9812, 41.13491
934.4633, 40.96049
934.9454, 41.33924
935.4276, 40.84747
935.9097, 40.52847
936.3918, 40.48375
936.8739, 40.59515
937.3560, 40.78279
937.8381, 41.10049
938.3203, 41.72322
938.8024, 42.73720
939.2845, 43.29107
939.7666, 43.15794
940.2487, 43.16144
940.7308, 43.57561
941.2130, 44.15684
941.6951, 44.71465
942.1772, 45.25054
942.6593, 45.77227
943.1414, 46.12844
943.6235, 46.74064
944.1057, 47.81995
944.5878, 48.93554
945.0699, 49.97442
945.5520, 50.89962
946.0341, 51.51273
946.5162, 51.87469
946.9984, 52.68051
947.4805, 54.57727
947.9626, 56.43219
948.4447, 57.62903
948.9268, 58.57145
949.4089, 59.71897
949.8911, 60.92270
950.3732, 61.78341
950.8553, 62.17214
951.3374, 62.26617
951.8195, 62.01202
952.3016, 61.69985
952.7838, 61.79323
953.2659, 62.10555
953.7480, 62.15191
954.2301, 61.91500
954.7122, 61.72227
955.1943, 61.74274
955.6764, 62.15515
956.1585, 63.40510
956.6406, 65.31171
957.1227, 66.97143
957.6049, 68.38084
958.0870, 69.59627
958.5691, 70.60328
959.0512, 71.77952
959.5333, 73.43267
960.0154, 75.53267
960.4976, 78.00716
960.9797, 80.99255
961.4618, 83.61752
961.9439, 85.58116
962.4260, 87.90076
962.9081, 90.98097
963.3903, 94.58745
963.8724, 98.50002
964.3545, 102.7025
964.8366, 107.0034
965.3187, 111.1387
965.8008, 115.7788
966.2830, 120.9087
966.7651, 126.5744
967.2472, 133.0997
967.7293, 140.0639
968.2114, 146.8499
968.6935, 153.4170
969.1757, 159.9976
969.6578, 168.2706
970.1399, 174.4538
970.6220, 177.1165
971.1041, 177.1689
971.5862, 175.3270
972.0684, 171.5323
972.5505, 165.1615
973.0326, 155.9606
973.5147, 145.8451
973.9968, 135.3673
974.4789, 124.9744
974.9611, 114.7169
975.4432, 105.0305
975.9253, 96.53262
976.4074, 89.25532
976.8895, 82.91672
977.3716, 77.44228
977.8538, 72.49465
978.3359, 67.53555
978.8180, 63.72524
979.3001, 59.60289
979.7822, 57.21446
980.2643, 55.05738
980.7465, 52.94107
981.2286, 51.11711
981.7107, 49.80965
982.1928, 48.70933
982.6749, 47.13612
983.1570, 45.23818
983.6392, 43.93291
984.1213, 43.25209
984.6034, 42.62591
985.0855, 41.86798
985.5676, 41.01020
986.0497, 40.04472
986.5319, 39.06369
987.0140, 38.42895
987.4961, 38.17734
987.9782, 38.01104
988.4603, 37.94317
988.9424, 37.82475
989.4246, 37.58117
989.9067, 37.28539
990.3888, 37.05915
990.8709, 36.88347
991.3530, 36.40140
991.8351, 35.29641
992.3173, 34.60013
992.7994, 34.36809
993.2815, 34.61797
993.7636, 35.75464
994.2457, 37.13245
994.7278, 37.74781
995.2100, 37.56032
995.6921, 37.25154
996.1742, 36.52567
996.6563, 36.11525
997.1384, 36.23164
997.6205, 36.59141
998.1027, 37.25332
998.5848, 37.95113
999.0669, 38.15123
999.5490, 37.74366
1000.031, 37.62002
1000.513, 38.27132
1000.995, 38.89571
1001.477, 39.01204
1001.960, 39.11228
1002.442, 39.64781
1002.924, 40.51078
1003.406, 41.40896
1003.888, 42.26957
1004.370, 43.07180
1004.852, 43.64823
1005.334, 44.33339
1005.817, 45.41097
1006.299, 46.70575
1006.781, 48.06641
1007.263, 49.43602
1007.745, 50.77613
1008.227, 52.08372
1008.709, 53.25055
1009.191, 54.30426
1009.673, 55.06889
1010.156, 55.33058
1010.638, 55.15743
1011.120, 54.63088
1011.602, 53.80460
1012.084, 52.74114
1012.566, 51.46494
1013.048, 50.14624
1013.530, 49.01811
1014.013, 47.70881
1014.495, 46.67821
1014.977, 45.26610
1015.459, 43.97723
1015.941, 42.88284
1016.423, 42.14282
1016.905, 41.90173
1017.387, 41.64960
1017.869, 40.36965
1018.352, 38.44758
1018.834, 37.32530
1019.316, 36.96282
1019.798, 36.95329
1020.280, 37.17095
1020.762, 37.07092
1021.244, 36.21340
1021.726, 34.99175
1022.208, 34.20406
1022.691, 33.81166
1023.173, 33.24402
1023.655, 32.48258
1024.137, 31.94737
1024.619, 31.76122
1025.101, 31.79219
1025.583, 31.97814
1026.065, 32.19744
1026.547, 32.06808
1027.030, 32.06063
1027.512, 32.04744
1027.994, 31.66722
1028.476, 31.75364
1028.958, 31.39458
1029.440, 30.89208
1029.922, 30.50552
1030.404, 30.18244
1030.887, 29.71805
1031.369, 28.98265
1031.851, 28.73693
1032.333, 29.21806
1032.815, 29.48922
1033.297, 29.15251
1033.779, 28.72900
1034.261, 28.71378
1034.744, 28.97252
1035.226, 29.00606
1035.708, 28.73690
1036.190, 28.46007
1036.672, 28.07497
1037.154, 27.88016
1037.636, 28.08541
1038.118, 28.36538
1038.600, 28.35262
1039.083, 28.17771
1039.565, 28.42413
1040.047, 29.56317
1040.529, 29.95823
1041.011, 29.00455
1041.493, 28.15409
1041.975, 27.67019
1042.457, 27.57586
1042.939, 28.27108
1043.422, 29.39795
1043.904, 29.52413
1044.386, 27.92714
1044.868, 27.05524
1045.350, 27.61610
1045.832, 28.12757
1046.314, 27.96147
1046.796, 27.71405
1047.279, 28.01856
1047.761, 28.68689
1048.243, 29.03549
1048.725, 28.96204
1049.207, 28.69480
1049.689, 27.94342
1050.171, 27.40763
1050.653, 27.51245
1051.135, 27.78751
1051.618, 27.83774
1052.100, 27.69903
1052.582, 27.54534
1053.064, 27.37009
1053.546, 27.29992
1054.028, 27.50643
1054.510, 27.64124
1054.992, 27.51377
1055.474, 27.29318
1055.957, 27.10443
1056.439, 26.95916
1056.921, 26.84929
1057.403, 26.76917
1057.885, 26.74522
1058.367, 26.68199
1058.849, 26.80473
1059.331, 27.46287
1059.814, 28.14100
1060.296, 28.40671
1060.778, 28.29559
1061.260, 27.90656
1061.742, 27.18871
1062.224, 26.78073
1062.706, 27.21700
1063.188, 27.61470
1063.671, 27.51130
1064.153, 27.22483
1064.635, 26.97872
1065.117, 26.81678
1065.599, 26.81256
1066.081, 26.99655
1066.563, 27.01896
1067.045, 26.52873
1067.527, 26.11683
1068.010, 26.18980
1068.492, 26.36193
1068.974, 26.18158
1069.456, 25.85975
1069.938, 25.90415
1070.420, 26.41549
1070.902, 26.94298
1071.384, 27.54206
1071.866, 27.79960
1072.349, 27.11835
1072.831, 26.37848
1073.313, 26.46654
1073.795, 27.00644
1074.277, 27.22580
1074.759, 26.99020
1075.241, 26.68580
1075.723, 26.27875
1076.206, 26.11532
1076.688, 26.64896
1077.170, 27.21685
1077.652, 27.26380
1078.134, 26.97223
1078.616, 26.62097
1079.098, 26.29391
1079.580, 26.14319
1080.062, 26.40114
1080.545, 26.52300
1081.027, 26.06733
1081.509, 25.56217
1081.991, 25.32678
1082.473, 25.34416
1082.955, 25.62878
1083.437, 26.11805
1083.919, 26.57358
1084.401, 26.97945
1084.884, 27.16766
1085.366, 26.74539
1085.848, 26.42080
1086.330, 27.03911
1086.812, 27.78772
1087.294, 27.40988
1087.776, 26.16656
1088.258, 25.50980
1088.740, 25.99782
1089.223, 26.59155
1089.705, 26.92848
1090.187, 27.16598
1090.669, 27.13272
1091.151, 27.25265
1091.633, 28.34984
1092.115, 29.93001
1092.597, 30.49931
1093.080, 29.59054
1093.562, 28.57031
1094.044, 27.52077
1094.526, 27.01527
1095.008, 27.79838
1095.490, 28.83939
1095.972, 29.22053
1096.454, 29.14594
1096.937, 29.13306
1097.419, 29.27450
1097.901, 29.60905
1098.383, 30.23296
1098.865, 30.93666
1099.347, 31.81805
1099.829, 32.58649
1100.311, 33.01204
1100.793, 33.19606
1101.276, 33.17904
1101.758, 33.01581
1102.240, 33.28678
1102.722, 34.49168
1103.204, 35.60513
1103.686, 36.49652
1104.168, 37.11525
1104.650, 37.25037
1105.132, 37.21486
1105.615, 37.31822
1106.097, 37.59622
1106.579, 38.08296
1107.061, 38.87024
1107.543, 39.67920
1108.025, 40.99553
1108.507, 41.66496
1108.989, 40.74786
1109.472, 39.38994
1109.954, 38.67565
1110.436, 38.42804
1110.918, 37.95518
1111.400, 37.21078
1111.882, 36.23976
1112.364, 34.60935
1112.846, 33.35941
1113.328, 32.96350
1113.811, 32.79241
1114.293, 32.53847
1114.775, 32.16482
1115.257, 31.53097
1115.739, 30.56096
1116.221, 29.93292
1116.703, 30.00620
1117.185, 29.80964
1117.667, 29.02199
1118.150, 28.23369
1118.632, 27.70332
1119.114, 27.36800
1119.596, 27.16123
1120.078, 27.07905
1120.560, 27.05122
1121.042, 27.12315
1121.524, 27.13692
1122.007, 27.06836
1122.489, 26.97434
1122.971, 26.86121
1123.453, 26.76097
1123.935, 26.73869
1124.417, 26.73579
1124.899, 26.48118
1125.381, 26.43602
1125.864, 26.46507
1126.346, 26.16735
1126.828, 26.50283
1127.310, 26.42056
1127.792, 26.25761
1128.274, 26.27277
1128.756, 26.32143
1129.238, 26.08080
1129.720, 25.56442
1130.203, 25.27449
1130.685, 25.22675
1131.167, 25.23331
1131.649, 25.25477
1132.131, 25.43894
1132.613, 25.87171
1133.095, 26.45766
1133.577, 27.16522
1134.059, 27.81672
1134.542, 27.55444
1135.024, 26.47955
1135.506, 25.83890
1135.988, 25.72974
1136.470, 25.98012
1136.952, 26.52532
1137.434, 27.07364
1137.916, 27.39405
1138.399, 27.50952
1138.881, 27.36287
1139.363, 27.06620
1139.845, 27.05367
1140.327, 27.25534
1140.809, 27.26511
1141.291, 27.04382
1141.773, 26.95613
1142.255, 27.20674
1142.738, 27.51033
1143.220, 27.48782
1143.702, 27.63405
1144.184, 27.41162
1144.666, 27.59428
1145.148, 27.55128
1145.630, 27.34077
1146.112, 27.27761
1146.594, 27.45832
1147.077, 27.69474
1147.559, 27.77608
1148.041, 27.99911
1148.523, 28.99471
1149.005, 30.01175
1149.487, 29.95976
1149.969, 29.33078
1150.451, 29.06748
1150.934, 29.30140
1151.416, 29.70835
1151.898, 30.21415
1152.380, 30.61175
1152.862, 30.67278
1153.344, 30.71222
1153.826, 30.96908
1154.308, 31.29434
1154.791, 31.51594
1155.273, 31.66517
1155.755, 31.86213
1156.237, 32.13421
1156.719, 32.38469
1157.201, 32.41755
1157.683, 32.66453
1158.165, 33.44963
1158.647, 34.27570
1159.130, 34.89394
1159.612, 35.33881
1160.094, 35.58326
1160.576, 35.67347
1161.058, 35.99163
1161.540, 36.84171
1162.022, 37.38227
1162.504, 37.42773
1162.986, 37.41314
1163.469, 37.09986
1163.951, 37.24756
1164.433, 38.70117
1164.915, 40.85865
1165.397, 42.32251
1165.879, 43.03608
1166.361, 43.56105
1166.843, 43.73219
1167.325, 44.30399
1167.808, 45.38371
1168.290, 46.93463
1168.772, 49.02797
1169.254, 51.30394
1169.736, 53.34970
1170.218, 55.22437
1170.700, 57.04992
1171.182, 58.83538
1171.665, 61.36036
1172.147, 64.63471
1172.629, 67.90324
1173.111, 70.95584
1173.593, 73.52670
1174.075, 75.37366
1174.557, 77.16840
1175.039, 79.99826
1175.521, 83.58045
1176.004, 87.14839
1176.486, 90.78458
1176.968, 94.85450
1177.450, 99.29053
1177.932, 103.4856
1178.414, 107.2516
1178.896, 111.0499
1179.378, 115.5118
1179.860, 119.6171
1180.343, 122.3846
1180.825, 124.0136
1181.307, 124.5554
1181.789, 124.2681
1182.271, 123.6493
1182.753, 122.6337
1183.235, 120.6049
1183.717, 117.2914
1184.200, 113.2670
1184.682, 108.5944
1185.164, 103.6132
1185.646, 98.24825
1186.128, 92.91714
1186.610, 87.93520
1187.092, 83.23738
1187.574, 78.60353
1188.057, 74.01643
1188.539, 69.92285
1189.021, 66.64162
1189.503, 63.45676
1189.985, 60.15684
1190.467, 57.14251
1190.949, 54.78741
1191.431, 52.53168
1191.913, 49.81607
1192.396, 46.90408
1192.878, 44.49182
1193.360, 42.63300
1193.842, 40.87580
1194.324, 39.11731
1194.806, 37.93673
1195.288, 37.57578
1195.770, 37.17396
1196.252, 36.32032
1196.735, 35.19689
1197.217, 33.97674
1197.699, 32.73716
1198.181, 31.65687
1198.663, 30.76920
1199.145, 30.46590
1199.627, 30.67190
1200.109, 30.63469
1200.592, 30.18247
1201.074, 29.51810
1201.556, 28.75484
1202.038, 27.97890
1202.520, 27.21626
1203.002, 26.56053
1203.484, 26.12998
1203.966, 25.93182
1204.448, 26.23180
1204.931, 26.71571
1205.413, 26.46408
1205.895, 25.39722
1206.377, 24.58266
1206.859, 24.68808
1207.341, 24.79977
1207.823, 24.26217
1208.305, 23.63460
1208.787, 23.14824
1209.270, 22.90839
1209.752, 23.26005
1210.234, 23.86010
1210.716, 23.78998
1211.198, 22.85214
1211.680, 22.43688
1212.162, 23.41299
1212.644, 23.89080
1213.127, 23.34040
1213.609, 22.58478
1214.091, 21.54941
1214.573, 20.91672
1215.055, 21.62418
1215.537, 23.08860
1216.019, 23.42481
1216.501, 22.45508
1216.984, 22.02885
1217.466, 22.26742
1217.948, 22.20462
1218.430, 21.64408
1218.912, 21.07402
1219.394, 20.71335
1219.876, 20.61515
1220.358, 20.88898
1220.840, 21.34881
1221.323, 21.57027
1221.805, 21.60756
1222.287, 21.70468
1222.769, 21.78174
1223.251, 21.32587
1223.733, 20.43599
1224.215, 20.10977
1224.697, 20.81983
1225.179, 21.71975
1225.662, 22.38281
1226.144, 22.58604
1226.626, 21.68911
1227.108, 20.60901
1227.590, 20.37518
1228.072, 20.64709
1228.554, 20.77909
1229.036, 20.70146
1229.519, 20.64856
1230.001, 20.67862
1230.483, 20.73834
1230.965, 20.93388
1231.447, 20.99356
1231.929, 20.58053
1232.411, 20.29381
1232.893, 20.71206
1233.375, 21.29085
1233.858, 21.18861
1234.340, 20.50719
1234.822, 20.16870
1235.304, 20.24047
1235.786, 20.35513
1236.268, 20.52173
1236.750, 20.60886
1237.232, 20.58436
1237.714, 20.43446
1238.197, 20.13031
1238.679, 19.85512
1239.161, 19.91012
1239.643, 20.14195
1240.125, 20.12159
1240.607, 19.93314
1241.089, 19.78016
1241.571, 19.70257
1242.054, 19.78823
1242.536, 20.01941
1243.018, 20.18438
1243.500, 20.15770
1243.982, 20.15490
1244.464, 20.52716
1244.946, 20.76457
1245.428, 20.17361
1245.910, 19.53666
1246.393, 19.85360
1246.875, 20.57918
1247.357, 20.64721
1247.839, 20.01336
1248.321, 19.50997
1248.803, 19.13984
1249.285, 19.16767
1249.767, 20.09752
1250.250, 20.59490
1250.732, 20.08532
1251.214, 19.56553
1251.696, 19.66858
1252.178, 20.07462
1252.660, 20.33074
1253.142, 20.45325
1253.624, 20.53255
1254.106, 20.56818
1254.589, 20.50152
1255.071, 20.33936
1255.553, 20.25862
1256.035, 20.28484
1256.517, 20.15334
1256.999, 19.70810
1257.481, 19.29892
1257.963, 19.36828
1258.445, 19.24679
1258.928, 19.62249
1259.410, 19.58534
1259.892, 19.89737
1260.374, 20.36363
1260.856, 20.58002
1261.338, 20.52817
1261.820, 20.42331
1262.302, 20.27450
1262.785, 20.37003
1263.267, 21.11682
1263.749, 21.67089
1264.231, 21.77112
1264.713, 21.58984
1265.195, 20.94666
1265.677, 20.35550
1266.159, 20.52433
1266.641, 20.21767
1267.124, 20.20890
1267.606, 20.50464
1268.088, 20.41453
1268.570, 21.04290
1269.052, 21.43762
1269.534, 21.43627
1270.016, 21.08153
1270.498, 20.38473
1270.980, 20.00161
1271.463, 20.68531
1271.945, 21.62382
1272.427, 21.49088
1272.909, 20.74481
1273.391, 20.00541
1273.873, 19.36903
1274.355, 19.01185
1274.837, 18.84257
1275.320, 18.47350
1275.802, 17.83152
1276.284, 17.57218
1276.766, 18.25156
1277.248, 18.85684
1277.730, 19.00544
1278.212, 19.07180
1278.694, 19.32245
1279.177, 19.47023
1279.659, 19.16984
1280.141, 18.68217
1280.623, 18.53086
1281.105, 18.68988
1281.587, 18.46491
1282.069, 18.68987
1282.551, 17.79400
1283.033, 18.81644
1283.516, 19.28974
1283.998, 18.81389
1284.480, 18.44296
1284.962, 18.84546
1285.444, 19.45781
1285.926, 19.71844
##END=



