##NAMES=Cordierite
##RRUFFID=R040084
##IDEAL CHEMISTRY=Mg_2_Al_3_(AlSi_5_)O_18_
##LOCALITY=Norway
##OWNER=RRUFF
##SOURCE=University of Arizona Mineral Museum
##DESCRIPTION=Purple coarsely crystalline massive
##STATUS=The identification of this mineral has been confirmed by X-ray diffraction and chemical analysis
##URL=rruff.info/R040084
##MEASURED CHEMISTRY=(Mg_1.88_Fe^2+^_0.11_Ca_0.01_)_Σ=2_(Al_3.95_Fe^3+^_0.05_)_Σ=4_(Si_4.96_Al_0.04_)_Σ=5_O_18_·0.90H_2_O·Na_0.04_ ; H_2_O estimated by difference and verified by Raman spectroscopy
128.3141, 1596.631
128.7962, 1571.792
129.2784, 1534.699
129.7605, 1491.644
130.2426, 1442.115
130.7247, 1388.399
131.2068, 1342.231
131.6889, 1306.125
132.1711, 1278.365
132.6532, 1255.426
133.1353, 1236.685
133.6174, 1222.602
134.0995, 1216.388
134.5816, 1218.202
135.0638, 1215.462
135.5459, 1198.885
136.0280, 1168.618
136.5101, 1156.537
136.9922, 1167.381
137.4743, 1187.980
137.9565, 1195.090
138.4386, 1186.546
138.9207, 1174.419
139.4028, 1163.582
139.8849, 1153.356
140.3670, 1147.345
140.8492, 1146.623
141.3313, 1150.076
141.8134, 1153.525
142.2955, 1157.656
142.7776, 1161.106
143.2597, 1162.003
143.7419, 1155.772
144.2240, 1157.052
144.7061, 1171.126
145.1882, 1198.627
145.6703, 1215.888
146.1524, 1217.693
146.6346, 1213.676
147.1167, 1213.591
147.5988, 1220.593
148.0809, 1227.474
148.5630, 1232.600
149.0451, 1235.393
149.5273, 1237.964
150.0094, 1238.024
150.4915, 1238.091
150.9736, 1242.415
151.4557, 1254.757
151.9378, 1267.998
152.4200, 1279.796
152.9021, 1287.647
153.3842, 1297.538
153.8663, 1310.447
154.3484, 1325.792
154.8305, 1341.814
155.3127, 1368.135
155.7948, 1388.777
156.2769, 1394.841
156.7590, 1369.743
157.2411, 1345.621
157.7232, 1331.789
158.2053, 1326.948
158.6875, 1318.147
159.1696, 1296.987
159.6517, 1272.505
160.1338, 1252.673
160.6159, 1242.237
161.0980, 1234.696
161.5802, 1227.745
162.0623, 1221.319
162.5444, 1215.689
163.0265, 1212.325
163.5086, 1209.576
163.9907, 1205.163
164.4729, 1193.211
164.9550, 1182.612
165.4371, 1179.686
165.9192, 1186.837
166.4013, 1195.865
166.8834, 1203.195
167.3656, 1208.954
167.8477, 1213.458
168.3298, 1216.068
168.8119, 1217.822
169.2940, 1220.123
169.7761, 1224.698
170.2583, 1227.261
170.7404, 1223.779
171.2225, 1215.077
171.7046, 1204.560
172.1867, 1190.585
172.6688, 1176.922
173.1510, 1169.248
173.6331, 1171.993
174.1152, 1178.777
174.5973, 1184.629
175.0794, 1189.377
175.5615, 1190.805
176.0437, 1184.039
176.5258, 1172.583
177.0079, 1163.958
177.4900, 1160.874
177.9721, 1162.314
178.4542, 1168.303
178.9364, 1179.277
179.4185, 1189.992
179.9006, 1193.984
180.3827, 1192.920
180.8648, 1192.318
181.3469, 1195.798
181.8291, 1201.565
182.3112, 1205.540
182.7933, 1207.486
183.2754, 1207.692
183.7575, 1205.884
184.2396, 1202.270
184.7218, 1198.432
185.2039, 1193.099
185.6860, 1187.744
186.1681, 1188.986
186.6502, 1199.147
187.1323, 1213.288
187.6144, 1223.626
188.0966, 1230.218
188.5787, 1233.518
189.0608, 1232.441
189.5429, 1227.624
190.0250, 1223.782
190.5071, 1221.732
190.9893, 1221.202
191.4714, 1221.734
191.9535, 1223.445
192.4356, 1225.633
192.9177, 1227.887
193.3998, 1230.260
193.8820, 1232.494
194.3641, 1234.895
194.8462, 1237.130
195.3283, 1236.314
195.8104, 1231.133
196.2925, 1228.007
196.7747, 1236.659
197.2568, 1257.994
197.7389, 1274.999
198.2210, 1280.536
198.7031, 1275.583
199.1852, 1274.071
199.6674, 1276.698
200.1495, 1281.082
200.6316, 1283.295
201.1137, 1282.589
201.5958, 1284.217
202.0779, 1290.555
202.5601, 1301.913
203.0422, 1314.888
203.5243, 1331.160
204.0064, 1346.950
204.4885, 1354.105
204.9706, 1350.229
205.4528, 1346.595
205.9349, 1349.727
206.4170, 1361.794
206.8991, 1368.237
207.3812, 1368.024
207.8633, 1362.585
208.3455, 1355.019
208.8276, 1345.151
209.3097, 1333.680
209.7918, 1320.373
210.2739, 1304.245
210.7560, 1290.095
211.2382, 1278.568
211.7203, 1269.141
212.2024, 1259.867
212.6845, 1249.887
213.1666, 1241.719
213.6487, 1237.947
214.1309, 1240.676
214.6130, 1240.665
215.0951, 1235.429
215.5772, 1226.286
216.0593, 1221.880
216.5414, 1224.237
217.0236, 1228.184
217.5057, 1229.561
217.9878, 1227.224
218.4699, 1225.262
218.9520, 1224.280
219.4341, 1224.268
219.9162, 1224.847
220.3984, 1226.328
220.8805, 1228.072
221.3626, 1229.340
221.8447, 1229.462
222.3268, 1230.710
222.8089, 1234.448
223.2911, 1240.871
223.7732, 1243.260
224.2553, 1238.882
224.7374, 1233.070
225.2195, 1232.083
225.7016, 1237.741
226.1838, 1244.543
226.6659, 1250.743
227.1480, 1255.640
227.6301, 1264.596
228.1122, 1279.214
228.5943, 1296.615
229.0765, 1314.074
229.5586, 1334.742
230.0407, 1349.530
230.5228, 1354.101
231.0049, 1344.642
231.4870, 1341.839
231.9692, 1347.670
232.4513, 1358.909
232.9334, 1370.292
233.4155, 1380.731
233.8976, 1393.102
234.3797, 1407.566
234.8619, 1422.543
235.3440, 1445.933
235.8261, 1485.352
236.3082, 1530.104
236.7903, 1558.289
237.2724, 1561.299
237.7546, 1560.972
238.2367, 1567.158
238.7188, 1589.135
239.2009, 1593.776
239.6830, 1572.407
240.1651, 1536.313
240.6473, 1513.993
241.1294, 1514.041
241.6115, 1515.293
242.0936, 1508.269
242.5757, 1487.672
243.0578, 1469.993
243.5400, 1454.234
244.0221, 1441.764
244.5042, 1436.955
244.9863, 1441.427
245.4684, 1451.268
245.9505, 1464.629
246.4327, 1481.094
246.9148, 1502.536
247.3969, 1531.241
247.8790, 1564.772
248.3611, 1593.378
248.8432, 1612.656
249.3253, 1633.300
249.8075, 1660.951
250.2896, 1697.922
250.7717, 1737.135
251.2538, 1779.252
251.7359, 1823.150
252.2180, 1864.994
252.7002, 1899.846
253.1823, 1939.041
253.6644, 1989.649
254.1465, 2055.469
254.6286, 2124.506
255.1107, 2198.148
255.5929, 2274.784
256.0750, 2348.130
256.5571, 2419.867
257.0392, 2486.725
257.5213, 2549.427
258.0034, 2618.863
258.4856, 2657.638
258.9677, 2663.228
259.4498, 2635.431
259.9319, 2566.550
260.4140, 2442.414
260.8961, 2301.635
261.3783, 2170.971
261.8604, 2049.685
262.3425, 1937.065
262.8246, 1829.733
263.3067, 1730.035
263.7888, 1649.920
264.2710, 1592.140
264.7531, 1548.881
265.2352, 1516.920
265.7173, 1498.802
266.1994, 1482.561
266.6815, 1467.018
267.1637, 1451.965
267.6458, 1435.847
268.1279, 1417.182
268.6100, 1399.971
269.0921, 1387.303
269.5742, 1379.956
270.0564, 1374.040
270.5385, 1368.494
271.0206, 1363.821
271.5027, 1363.888
271.9848, 1370.734
272.4669, 1377.249
272.9491, 1376.850
273.4312, 1368.256
273.9133, 1360.521
274.3954, 1355.058
274.8775, 1351.697
275.3596, 1349.311
275.8418, 1347.641
276.3239, 1347.952
276.8060, 1353.786
277.2881, 1366.473
277.7702, 1370.887
278.2523, 1360.723
278.7345, 1341.160
279.2166, 1335.110
279.6987, 1345.141
280.1808, 1357.776
280.6629, 1360.844
281.1451, 1353.949
281.6272, 1349.256
282.1093, 1349.203
282.5914, 1352.758
283.0735, 1356.314
283.5556, 1359.647
284.0378, 1364.258
284.5199, 1373.506
285.0020, 1386.953
285.4841, 1394.906
285.9662, 1393.896
286.4483, 1387.353
286.9305, 1383.593
287.4126, 1382.581
287.8947, 1385.521
288.3768, 1395.647
288.8589, 1411.805
289.3410, 1425.748
289.8232, 1436.017
290.3053, 1443.124
290.7874, 1446.526
291.2695, 1446.247
291.7516, 1447.146
292.2337, 1455.298
292.7159, 1468.531
293.1980, 1477.318
293.6801, 1478.844
294.1622, 1476.285
294.6443, 1473.808
295.1264, 1471.554
295.6085, 1472.086
296.0906, 1481.442
296.5728, 1495.205
297.0549, 1501.043
297.5370, 1493.647
298.0191, 1481.785
298.5012, 1478.021
298.9833, 1481.529
299.4655, 1486.452
299.9476, 1486.592
300.4297, 1485.622
300.9118, 1491.552
301.3939, 1509.024
301.8760, 1527.684
302.3582, 1534.011
302.8403, 1530.289
303.3224, 1526.088
303.8045, 1528.542
304.2866, 1533.854
304.7687, 1537.175
305.2509, 1537.797
305.7330, 1535.837
306.2151, 1531.150
306.6972, 1523.916
307.1793, 1514.488
307.6614, 1503.493
308.1436, 1490.411
308.6257, 1473.670
309.1078, 1451.354
309.5899, 1430.236
310.0720, 1414.210
310.5541, 1402.852
311.0363, 1394.959
311.5184, 1393.180
312.0005, 1392.606
312.4826, 1388.830
312.9647, 1380.099
313.4468, 1372.202
313.9290, 1367.403
314.4111, 1365.712
314.8932, 1367.138
315.3753, 1376.784
315.8574, 1385.836
316.3395, 1388.123
316.8217, 1381.018
317.3038, 1375.309
317.7859, 1376.129
318.2680, 1380.621
318.7501, 1384.590
319.2322, 1384.635
319.7144, 1385.722
320.1965, 1391.086
320.6786, 1402.338
321.1607, 1410.602
321.6428, 1411.060
322.1249, 1408.230
322.6071, 1407.535
323.0892, 1406.745
323.5713, 1411.280
324.0534, 1426.652
324.5355, 1455.985
325.0176, 1474.511
325.4998, 1472.841
325.9819, 1462.162
326.4640, 1453.341
326.9461, 1452.044
327.4282, 1447.221
327.9103, 1434.883
328.3925, 1414.262
328.8746, 1399.383
329.3567, 1393.114
329.8388, 1390.774
330.3209, 1388.855
330.8030, 1388.035
331.2852, 1386.761
331.7673, 1385.095
332.2494, 1383.019
332.7315, 1379.190
333.2136, 1370.440
333.6957, 1363.682
334.1779, 1365.092
334.6600, 1381.297
335.1421, 1389.645
335.6242, 1384.664
336.1063, 1369.914
336.5884, 1362.506
337.0706, 1363.947
337.5527, 1369.295
338.0348, 1376.516
338.5169, 1386.692
338.9990, 1393.131
339.4811, 1394.293
339.9633, 1392.143
340.4454, 1391.033
340.9275, 1390.494
341.4096, 1393.157
341.8917, 1403.939
342.3738, 1422.745
342.8560, 1430.442
343.3381, 1422.994
343.8202, 1409.347
344.3023, 1404.646
344.7844, 1408.828
345.2665, 1416.079
345.7487, 1424.630
346.2308, 1434.117
346.7129, 1443.352
347.1950, 1452.901
347.6771, 1459.582
348.1592, 1456.657
348.6414, 1446.176
349.1235, 1437.292
349.6056, 1434.350
350.0877, 1435.839
350.5698, 1439.908
351.0519, 1446.771
351.5341, 1453.178
352.0162, 1453.341
352.4983, 1450.699
352.9804, 1452.656
353.4625, 1465.087
353.9446, 1481.558
354.4268, 1496.886
354.9089, 1510.785
355.3910, 1520.454
355.8731, 1518.597
356.3552, 1512.635
356.8373, 1512.014
357.3195, 1523.328
357.8015, 1536.766
358.2837, 1545.766
358.7658, 1551.196
359.2479, 1557.153
359.7300, 1564.836
360.2121, 1574.326
360.6942, 1586.341
361.1764, 1604.103
361.6585, 1619.587
362.1406, 1627.072
362.6227, 1629.765
363.1048, 1635.696
363.5869, 1652.829
364.0691, 1669.615
364.5512, 1680.267
365.0333, 1681.820
365.5154, 1682.367
365.9975, 1684.650
366.4796, 1686.418
366.9618, 1683.847
367.4439, 1671.744
367.9260, 1659.548
368.4081, 1650.958
368.8902, 1648.205
369.3723, 1639.618
369.8545, 1619.621
370.3366, 1596.904
370.8187, 1581.823
371.3008, 1582.475
371.7829, 1577.873
372.2650, 1561.253
372.7472, 1532.594
373.2293, 1513.616
373.7114, 1508.593
374.1935, 1507.600
374.6756, 1501.556
375.1577, 1488.074
375.6399, 1478.725
376.1220, 1476.157
376.6041, 1478.950
377.0862, 1481.827
377.5683, 1485.029
378.0504, 1487.383
378.5326, 1488.009
379.0147, 1486.909
379.4968, 1484.461
379.9789, 1480.038
380.4610, 1475.299
380.9431, 1474.287
381.4253, 1476.847
381.9074, 1478.397
382.3895, 1474.645
382.8716, 1467.615
383.3537, 1464.929
383.8358, 1467.735
384.3180, 1471.306
384.8001, 1470.842
385.2822, 1466.730
385.7643, 1460.341
386.2464, 1448.608
386.7285, 1436.547
387.2107, 1431.644
387.6928, 1434.024
388.1749, 1438.144
388.6570, 1439.298
389.1391, 1439.643
389.6212, 1442.320
390.1034, 1452.091
390.5855, 1461.068
391.0676, 1463.391
391.5497, 1459.920
392.0318, 1455.959
392.5139, 1451.516
392.9961, 1449.065
393.4782, 1451.199
393.9603, 1464.357
394.4424, 1472.797
394.9245, 1467.463
395.4066, 1453.478
395.8888, 1443.682
396.3709, 1445.016
396.8530, 1447.609
397.3351, 1446.722
397.8172, 1438.755
398.2993, 1435.923
398.7815, 1446.503
399.2636, 1460.318
399.7457, 1463.375
400.2278, 1442.455
400.7099, 1427.709
401.1920, 1427.512
401.6742, 1442.872
402.1563, 1455.092
402.6384, 1465.213
403.1205, 1470.967
403.6026, 1469.140
404.0847, 1456.841
404.5669, 1446.205
405.0490, 1438.450
405.5311, 1433.851
406.0132, 1434.295
406.4953, 1440.607
406.9774, 1448.517
407.4596, 1454.987
407.9417, 1460.107
408.4238, 1468.415
408.9059, 1482.339
409.3880, 1495.083
409.8701, 1492.080
410.3523, 1474.661
410.8344, 1459.041
411.3165, 1454.639
411.7986, 1457.713
412.2807, 1458.709
412.7628, 1457.085
413.2450, 1456.604
413.7271, 1463.530
414.2092, 1474.248
414.6913, 1481.195
415.1734, 1479.286
415.6555, 1474.012
416.1377, 1468.571
416.6198, 1463.392
417.1019, 1461.972
417.5840, 1470.427
418.0661, 1481.623
418.5482, 1488.550
419.0303, 1487.410
419.5125, 1485.590
419.9946, 1486.566
420.4767, 1489.275
420.9588, 1491.100
421.4409, 1492.075
421.9230, 1491.359
422.4052, 1487.119
422.8873, 1475.959
423.3694, 1471.651
423.8515, 1482.743
424.3336, 1499.055
424.8157, 1508.464
425.2979, 1506.175
425.7800, 1502.780
426.2621, 1499.100
426.7442, 1495.208
427.2263, 1495.204
427.7084, 1502.576
428.1906, 1509.319
428.6727, 1508.448
429.1548, 1496.762
429.6369, 1489.910
430.1190, 1491.044
430.6011, 1496.992
431.0833, 1498.532
431.5654, 1494.703
432.0475, 1492.358
432.5296, 1496.119
433.0117, 1505.220
433.4938, 1514.061
433.9760, 1523.423
434.4581, 1528.344
434.9402, 1517.464
435.4223, 1494.856
435.9044, 1478.752
436.3865, 1479.105
436.8687, 1488.653
437.3508, 1499.080
437.8329, 1510.046
438.3150, 1517.127
438.7971, 1514.292
439.2792, 1506.561
439.7614, 1499.981
440.2435, 1494.207
440.7256, 1493.031
441.2077, 1503.152
441.6898, 1520.114
442.1719, 1532.685
442.6541, 1534.843
443.1362, 1532.359
443.6183, 1527.259
444.1004, 1518.546
444.5825, 1512.390
445.0646, 1510.646
445.5468, 1511.954
446.0289, 1514.793
446.5110, 1518.906
446.9931, 1524.755
447.4752, 1534.995
447.9573, 1548.807
448.4395, 1554.510
448.9216, 1546.952
449.4037, 1537.300
449.8858, 1532.103
450.3679, 1532.175
450.8500, 1534.504
451.3322, 1539.624
451.8143, 1546.301
452.2964, 1553.175
452.7785, 1560.925
453.2606, 1564.967
453.7427, 1560.945
454.2249, 1550.459
454.7070, 1547.466
455.1891, 1553.219
455.6712, 1559.435
456.1533, 1553.448
456.6354, 1539.606
457.1176, 1534.286
457.5997, 1544.656
458.0818, 1563.095
458.5639, 1582.737
459.0460, 1602.619
459.5281, 1616.158
460.0103, 1612.249
460.4924, 1603.489
460.9745, 1603.966
461.4566, 1617.814
461.9387, 1632.918
462.4208, 1642.031
462.9030, 1647.925
463.3851, 1654.553
463.8672, 1660.858
464.3493, 1670.467
464.8314, 1688.688
465.3135, 1715.501
465.7957, 1732.772
466.2778, 1729.246
466.7599, 1720.474
467.2420, 1716.629
467.7241, 1720.032
468.2062, 1725.546
468.6884, 1735.721
469.1705, 1747.373
469.6526, 1751.744
470.1347, 1744.752
470.6168, 1739.058
471.0989, 1741.255
471.5811, 1751.969
472.0632, 1753.572
472.5453, 1743.787
473.0274, 1731.136
473.5095, 1724.764
473.9916, 1724.413
474.4738, 1725.820
474.9559, 1728.142
475.4380, 1731.411
475.9201, 1735.522
476.4022, 1740.520
476.8843, 1746.774
477.3665, 1754.404
477.8486, 1763.477
478.3307, 1775.694
478.8128, 1792.659
479.2949, 1805.722
479.7770, 1802.000
480.2592, 1791.329
480.7413, 1789.131
481.2234, 1810.403
481.7055, 1833.658
482.1876, 1847.880
482.6697, 1853.649
483.1518, 1859.067
483.6339, 1862.823
484.1161, 1869.624
484.5982, 1882.691
485.0803, 1908.875
485.5624, 1931.006
486.0445, 1948.666
486.5266, 1962.066
487.0088, 1971.305
487.4909, 1974.273
487.9730, 1976.788
488.4551, 1982.741
488.9372, 1991.927
489.4193, 1987.251
489.9015, 1966.010
490.3836, 1937.631
490.8657, 1907.429
491.3478, 1875.936
491.8299, 1848.607
492.3120, 1826.707
492.7942, 1808.452
493.2763, 1792.509
493.7584, 1778.196
494.2405, 1759.787
494.7226, 1726.914
495.2047, 1690.860
495.6869, 1671.722
496.1690, 1670.197
496.6511, 1671.746
497.1332, 1667.277
497.6153, 1658.825
498.0974, 1648.538
498.5796, 1633.808
499.0617, 1621.757
499.5438, 1618.088
500.0259, 1620.013
500.5080, 1619.781
500.9901, 1613.061
501.4723, 1605.517
501.9544, 1598.983
502.4365, 1593.170
502.9186, 1590.120
503.4007, 1591.699
503.8828, 1594.668
504.3650, 1596.412
504.8471, 1598.149
505.3292, 1595.381
505.8113, 1585.162
506.2934, 1570.562
506.7755, 1562.994
507.2577, 1563.521
507.7398, 1566.315
508.2219, 1568.356
508.7040, 1569.869
509.1861, 1574.132
509.6682, 1582.171
510.1504, 1587.996
510.6325, 1580.394
511.1146, 1564.592
511.5967, 1556.969
512.0788, 1568.719
512.5609, 1584.054
513.0430, 1583.512
513.5251, 1570.603
514.0073, 1559.346
514.4894, 1556.209
514.9715, 1558.643
515.4536, 1566.702
515.9357, 1582.483
516.4178, 1593.441
516.9000, 1590.908
517.3821, 1582.994
517.8642, 1578.580
518.3463, 1580.080
518.8284, 1584.009
519.3105, 1592.752
519.7927, 1604.261
520.2748, 1607.627
520.7569, 1596.881
521.2390, 1587.309
521.7211, 1586.852
522.2032, 1597.479
522.6854, 1604.873
523.1675, 1608.865
523.6496, 1609.948
524.1317, 1608.637
524.6138, 1604.926
525.0959, 1598.123
525.5781, 1585.103
526.0602, 1572.022
526.5423, 1572.613
527.0244, 1585.094
527.5065, 1598.329
527.9886, 1605.585
528.4708, 1609.572
528.9529, 1614.661
529.4350, 1621.804
529.9171, 1624.726
530.3992, 1612.399
530.8813, 1596.420
531.3635, 1589.789
531.8456, 1608.994
532.3277, 1624.559
532.8098, 1623.787
533.2919, 1611.570
533.7740, 1607.796
534.2562, 1621.351
534.7383, 1636.497
535.2204, 1648.465
535.7025, 1656.704
536.1846, 1663.816
536.6667, 1668.854
537.1489, 1674.173
537.6310, 1683.526
538.1131, 1697.897
538.5952, 1706.921
539.0773, 1706.317
539.5594, 1702.881
540.0416, 1713.203
540.5237, 1736.249
541.0058, 1759.111
541.4879, 1772.428
541.9700, 1781.776
542.4521, 1797.507
542.9343, 1819.997
543.4164, 1842.924
543.8985, 1860.621
544.3806, 1876.611
544.8627, 1894.547
545.3448, 1914.785
545.8270, 1938.268
546.3091, 1965.841
546.7912, 1996.665
547.2733, 2029.311
547.7554, 2066.196
548.2375, 2101.866
548.7197, 2133.163
549.2018, 2159.619
549.6839, 2192.091
550.1660, 2233.389
550.6481, 2276.419
551.1302, 2315.957
551.6124, 2350.967
552.0945, 2389.339
552.5766, 2435.506
553.0587, 2478.129
553.5408, 2495.618
554.0229, 2489.078
554.5051, 2478.947
554.9872, 2474.790
555.4693, 2470.527
555.9514, 2454.816
556.4335, 2428.039
556.9156, 2394.499
557.3978, 2349.655
557.8799, 2303.278
558.3620, 2265.748
558.8441, 2240.030
559.3262, 2216.881
559.8083, 2191.229
560.2905, 2166.135
560.7726, 2145.298
561.2547, 2129.239
561.7368, 2117.873
562.2189, 2114.848
562.7010, 2117.275
563.1832, 2112.684
563.6653, 2090.407
564.1474, 2077.622
564.6295, 2089.962
565.1116, 2130.845
565.5938, 2152.708
566.0759, 2150.777
566.5580, 2142.801
567.0401, 2144.749
567.5222, 2156.228
568.0043, 2175.271
568.4865, 2203.466
568.9686, 2234.477
569.4507, 2258.684
569.9328, 2277.582
570.4149, 2297.542
570.8970, 2320.405
571.3792, 2346.373
571.8613, 2376.755
572.3434, 2411.389
572.8255, 2444.619
573.3076, 2472.407
573.7897, 2498.826
574.2719, 2526.823
574.7540, 2559.648
575.2361, 2588.944
575.7182, 2616.912
576.2003, 2639.713
576.6824, 2652.238
577.1646, 2654.306
577.6467, 2646.615
578.1288, 2629.601
578.6109, 2603.068
579.0930, 2562.405
579.5751, 2505.935
580.0573, 2448.933
580.5394, 2401.942
581.0215, 2361.629
581.5036, 2315.210
581.9857, 2262.280
582.4678, 2209.766
582.9500, 2163.290
583.4321, 2121.573
583.9142, 2083.384
584.3963, 2048.148
584.8784, 2016.561
585.3605, 1991.679
585.8427, 1970.732
586.3248, 1948.578
586.8069, 1920.792
587.2890, 1894.465
587.7711, 1872.553
588.2532, 1855.176
588.7354, 1837.070
589.2175, 1814.790
589.6996, 1796.064
590.1817, 1785.062
590.6638, 1782.860
591.1459, 1784.741
591.6281, 1792.666
592.1102, 1800.149
592.5923, 1797.444
593.0744, 1785.479
593.5565, 1774.986
594.0386, 1768.516
594.5208, 1764.698
595.0029, 1763.889
595.4850, 1764.563
595.9671, 1761.266
596.4492, 1746.416
596.9313, 1729.730
597.4135, 1717.700
597.8956, 1710.860
598.3777, 1709.294
598.8598, 1720.025
599.3419, 1731.551
599.8240, 1735.791
600.3062, 1727.088
600.7883, 1719.105
601.2704, 1708.820
601.7525, 1701.629
602.2346, 1707.581
602.7167, 1733.687
603.1989, 1748.720
603.6810, 1742.087
604.1631, 1722.489
604.6452, 1718.029
605.1273, 1728.621
605.6094, 1736.724
606.0916, 1728.161
606.5737, 1711.336
607.0558, 1703.865
607.5379, 1706.184
608.0200, 1709.957
608.5021, 1707.391
608.9843, 1703.808
609.4664, 1705.726
609.9485, 1718.439
610.4306, 1727.952
610.9127, 1727.091
611.3948, 1720.833
611.8770, 1716.291
612.3591, 1717.480
612.8412, 1716.320
613.3233, 1708.416
613.8054, 1697.107
614.2875, 1699.489
614.7697, 1720.880
615.2518, 1739.354
615.7339, 1741.933
616.2160, 1730.706
616.6981, 1726.182
617.1802, 1728.568
617.6624, 1733.438
618.1445, 1737.285
618.6266, 1740.590
619.1087, 1744.513
619.5908, 1749.433
620.0729, 1754.319
620.5551, 1760.810
621.0372, 1766.137
621.5193, 1766.222
622.0014, 1751.741
622.4835, 1740.492
622.9656, 1740.911
623.4478, 1750.021
623.9299, 1753.472
624.4120, 1744.789
624.8941, 1738.921
625.3762, 1743.196
625.8583, 1757.874
626.3405, 1760.466
626.8226, 1747.222
627.3047, 1734.681
627.7868, 1741.570
628.2689, 1763.243
628.7510, 1769.709
629.2332, 1755.922
629.7153, 1736.692
630.1974, 1727.661
630.6795, 1725.016
631.1616, 1721.315
631.6437, 1709.732
632.1259, 1701.696
632.6080, 1709.444
633.0901, 1725.995
633.5722, 1733.388
634.0543, 1715.462
634.5364, 1698.812
635.0186, 1694.261
635.5006, 1701.668
635.9827, 1700.634
636.4648, 1686.268
636.9470, 1671.910
637.4291, 1666.993
637.9112, 1672.240
638.3933, 1671.140
638.8754, 1661.559
639.3575, 1652.731
639.8397, 1657.502
640.3218, 1671.578
640.8039, 1681.972
641.2860, 1684.880
641.7681, 1684.838
642.2502, 1687.041
642.7324, 1689.243
643.2145, 1687.036
643.6966, 1670.113
644.1787, 1657.041
644.6608, 1655.968
645.1429, 1665.916
645.6251, 1677.680
646.1072, 1696.960
646.5893, 1710.079
647.0714, 1709.392
647.5535, 1693.219
648.0356, 1684.972
648.5178, 1685.753
648.9999, 1690.693
649.4820, 1696.222
649.9641, 1702.427
650.4462, 1710.141
650.9283, 1720.069
651.4105, 1728.687
651.8926, 1730.438
652.3747, 1728.482
652.8568, 1728.309
653.3389, 1731.517
653.8210, 1737.351
654.3032, 1749.637
654.7853, 1764.297
655.2674, 1771.398
655.7495, 1755.980
656.2316, 1746.503
656.7137, 1752.016
657.1959, 1771.208
657.6780, 1787.101
658.1601, 1798.134
658.6422, 1809.635
659.1243, 1826.956
659.6064, 1849.087
660.0886, 1860.510
660.5707, 1860.085
661.0528, 1859.425
661.5349, 1872.604
662.0170, 1892.795
662.4991, 1905.707
662.9813, 1905.571
663.4634, 1907.156
663.9455, 1921.731
664.4276, 1943.674
664.9097, 1965.385
665.3918, 1985.871
665.8740, 2004.734
666.3561, 2020.345
666.8382, 2034.297
667.3203, 2050.135
667.8024, 2069.212
668.2845, 2087.631
668.7667, 2105.659
669.2488, 2122.108
669.7309, 2129.051
670.2130, 2126.132
670.6951, 2120.614
671.1772, 2120.644
671.6594, 2120.667
672.1415, 2108.179
672.6236, 2082.482
673.1057, 2053.411
673.5878, 2025.223
674.0699, 1998.504
674.5521, 1972.857
675.0342, 1946.520
675.5163, 1925.768
675.9984, 1918.399
676.4805, 1914.530
676.9626, 1902.384
677.4448, 1876.203
677.9269, 1854.143
678.4090, 1838.919
678.8911, 1828.694
679.3732, 1821.111
679.8553, 1816.275
680.3375, 1807.697
680.8196, 1789.768
681.3017, 1769.167
681.7838, 1758.554
682.2659, 1756.744
682.7480, 1757.972
683.2302, 1762.414
683.7123, 1766.044
684.1944, 1765.795
684.6765, 1761.422
685.1586, 1755.733
685.6407, 1744.964
686.1229, 1736.744
686.6050, 1735.994
687.0871, 1746.186
687.5692, 1751.609
688.0513, 1749.973
688.5334, 1747.601
689.0156, 1754.410
689.4977, 1769.395
689.9798, 1770.858
690.4619, 1751.840
690.9440, 1730.346
691.4261, 1730.598
691.9083, 1745.425
692.3904, 1758.828
692.8725, 1763.837
693.3546, 1767.110
693.8367, 1774.344
694.3188, 1782.787
694.8010, 1785.842
695.2831, 1775.127
695.7652, 1766.370
696.2473, 1763.367
696.7294, 1765.651
697.2115, 1770.440
697.6937, 1778.943
698.1758, 1786.629
698.6579, 1791.345
699.1400, 1793.314
699.6221, 1793.274
700.1042, 1791.171
700.5864, 1789.512
701.0685, 1789.927
701.5506, 1792.169
702.0327, 1797.241
702.5148, 1806.196
702.9969, 1811.240
703.4791, 1804.190
703.9612, 1793.913
704.4433, 1788.271
704.9254, 1790.547
705.4075, 1794.797
705.8896, 1802.770
706.3718, 1811.214
706.8539, 1814.470
707.3360, 1811.237
707.8181, 1813.278
708.3002, 1826.006
708.7823, 1839.941
709.2645, 1832.313
709.7466, 1809.054
710.2287, 1793.183
710.7108, 1801.503
711.1929, 1815.849
711.6750, 1820.279
712.1572, 1817.474
712.6393, 1816.795
713.1214, 1825.334
713.6035, 1833.114
714.0856, 1835.533
714.5677, 1832.825
715.0499, 1830.469
715.5320, 1829.960
716.0141, 1826.922
716.4962, 1817.454
716.9783, 1801.854
717.4604, 1790.431
717.9426, 1782.906
718.4247, 1781.283
718.9068, 1792.968
719.3889, 1809.879
719.8710, 1818.069
720.3531, 1814.670
720.8353, 1808.090
721.3174, 1798.705
721.7995, 1791.120
722.2816, 1789.731
722.7637, 1798.413
723.2458, 1809.166
723.7280, 1825.723
724.2101, 1840.900
724.6922, 1843.053
725.1743, 1828.263
725.6564, 1821.106
726.1385, 1827.437
726.6207, 1840.672
727.1028, 1850.612
727.5849, 1857.348
728.0670, 1861.329
728.5491, 1862.596
729.0313, 1861.277
729.5134, 1852.135
729.9955, 1840.083
730.4776, 1838.766
730.9597, 1870.087
731.4418, 1895.954
731.9240, 1897.883
732.4061, 1879.847
732.8882, 1869.311
733.3703, 1865.818
733.8524, 1870.875
734.3345, 1890.539
734.8167, 1921.047
735.2988, 1930.528
735.7809, 1918.726
736.2630, 1907.893
736.7451, 1921.056
737.2272, 1942.524
737.7094, 1949.139
738.1915, 1938.311
738.6736, 1927.906
739.1557, 1931.014
739.6378, 1935.456
740.1199, 1932.050
740.6021, 1916.782
741.0842, 1900.347
741.5663, 1880.591
742.0484, 1862.323
742.5305, 1850.950
743.0126, 1846.951
743.4948, 1841.347
743.9769, 1832.017
744.4590, 1825.014
744.9411, 1831.347
745.4232, 1845.459
745.9053, 1854.351
746.3875, 1853.056
746.8696, 1848.342
747.3517, 1843.150
747.8338, 1837.618
748.3159, 1831.941
748.7980, 1826.479
749.2802, 1820.137
749.7623, 1810.529
750.2444, 1800.814
750.7265, 1799.394
751.2086, 1808.176
751.6907, 1814.519
752.1729, 1813.224
752.6550, 1808.653
753.1371, 1812.561
753.6192, 1822.477
754.1013, 1826.979
754.5834, 1812.253
755.0656, 1796.400
755.5477, 1795.679
756.0298, 1807.348
756.5119, 1815.485
756.9940, 1815.733
757.4761, 1811.624
757.9583, 1801.302
758.4403, 1785.537
758.9224, 1782.693
759.4045, 1795.930
759.8867, 1811.302
760.3688, 1823.485
760.8509, 1831.489
761.3330, 1829.599
761.8151, 1818.053
762.2972, 1805.528
762.7794, 1796.234
763.2615, 1790.480
763.7436, 1788.710
764.2257, 1791.065
764.7078, 1796.515
765.1899, 1811.770
765.6721, 1824.471
766.1542, 1825.510
766.6363, 1809.353
767.1184, 1803.367
767.6005, 1810.289
768.0826, 1820.417
768.5648, 1824.003
769.0469, 1822.339
769.5290, 1821.699
770.0111, 1822.958
770.4932, 1824.630
770.9753, 1826.594
771.4575, 1827.648
771.9396, 1826.197
772.4217, 1821.131
772.9038, 1815.094
773.3859, 1805.846
773.8680, 1797.538
774.3502, 1795.079
774.8323, 1800.841
775.3144, 1805.527
775.7965, 1808.064
776.2786, 1809.513
776.7607, 1811.725
777.2429, 1814.387
777.7250, 1816.041
778.2071, 1816.436
778.6892, 1815.242
779.1713, 1808.890
779.6534, 1801.395
780.1356, 1799.592
780.6177, 1819.495
781.0998, 1829.380
781.5819, 1811.617
782.0640, 1781.327
782.5461, 1767.493
783.0283, 1775.114
783.5104, 1782.888
783.9925, 1785.544
784.4746, 1786.123
784.9567, 1793.222
785.4388, 1805.319
785.9210, 1813.720
786.4031, 1813.598
786.8852, 1809.144
787.3673, 1799.647
787.8494, 1788.432
788.3315, 1785.116
788.8137, 1802.493
789.2958, 1817.207
789.7779, 1820.083
790.2600, 1814.487
790.7421, 1815.429
791.2242, 1824.814
791.7064, 1832.978
792.1885, 1836.542
792.6706, 1835.985
793.1527, 1830.577
793.6348, 1821.443
794.1169, 1814.978
794.5991, 1818.871
795.0812, 1823.585
795.5633, 1819.488
796.0454, 1808.126
796.5275, 1802.414
797.0096, 1811.820
797.4918, 1820.740
797.9739, 1824.031
798.4560, 1822.158
798.9381, 1818.410
799.4202, 1811.784
799.9023, 1809.418
800.3845, 1820.437
800.8666, 1837.628
801.3487, 1841.040
801.8308, 1832.261
802.3129, 1823.728
802.7950, 1825.668
803.2772, 1828.469
803.7593, 1823.485
804.2414, 1809.668
804.7235, 1803.777
805.2056, 1813.385
805.6877, 1822.382
806.1699, 1822.391
806.6520, 1813.724
807.1341, 1810.534
807.6162, 1813.172
808.0983, 1816.773
808.5804, 1817.372
809.0626, 1816.780
809.5447, 1817.388
810.0268, 1819.370
810.5089, 1823.599
810.9910, 1835.995
811.4731, 1846.336
811.9553, 1845.598
812.4374, 1830.137
812.9195, 1826.347
813.4016, 1840.701
813.8837, 1853.739
814.3658, 1850.745
814.8480, 1833.754
815.3301, 1824.099
815.8122, 1822.039
816.2943, 1824.406
816.7764, 1832.025
817.2585, 1840.856
817.7407, 1845.633
818.2228, 1845.565
818.7049, 1847.370
819.1870, 1856.844
819.6691, 1865.875
820.1512, 1868.305
820.6334, 1862.006
821.1155, 1866.270
821.5976, 1883.957
822.0797, 1901.705
822.5618, 1908.188
823.0439, 1906.228
823.5261, 1903.734
824.0082, 1901.110
824.4903, 1901.076
824.9724, 1908.542
825.4545, 1917.258
825.9366, 1921.500
826.4188, 1919.278
826.9009, 1919.799
827.3830, 1928.598
827.8651, 1934.702
828.3472, 1929.373
828.8293, 1911.474
829.3115, 1902.788
829.7936, 1903.845
830.2757, 1909.040
830.7578, 1914.654
831.2399, 1920.896
831.7220, 1929.851
832.2042, 1941.722
832.6863, 1948.017
833.1684, 1938.514
833.6505, 1926.651
834.1326, 1922.306
834.6147, 1927.629
835.0969, 1927.127
835.5790, 1917.091
836.0611, 1909.825
836.5432, 1917.847
837.0253, 1936.995
837.5074, 1944.469
837.9896, 1939.861
838.4717, 1933.477
838.9538, 1932.304
839.4359, 1933.655
839.9180, 1935.634
840.4001, 1938.139
840.8823, 1939.331
841.3644, 1935.273
841.8465, 1933.333
842.3286, 1937.558
842.8107, 1948.128
843.2928, 1958.769
843.7750, 1969.828
844.2571, 1976.696
844.7392, 1973.491
845.2213, 1964.763
845.7034, 1958.483
846.1855, 1954.865
846.6677, 1950.254
847.1498, 1937.357
847.6319, 1927.664
848.1140, 1932.195
848.5961, 1952.358
849.0782, 1956.255
849.5604, 1936.116
850.0425, 1918.848
850.5246, 1922.879
851.0067, 1942.425
851.4888, 1946.592
851.9709, 1936.856
852.4531, 1930.758
852.9352, 1944.464
853.4173, 1962.997
853.8994, 1976.662
854.3815, 1984.359
854.8636, 1982.866
855.3458, 1958.643
855.8279, 1940.503
856.3100, 1939.005
856.7921, 1952.133
857.2742, 1967.683
857.7563, 1985.852
858.2385, 1999.150
858.7206, 2000.427
859.2027, 1995.845
859.6848, 1995.303
860.1669, 1997.110
860.6490, 1994.257
861.1312, 1973.458
861.6133, 1957.750
862.0954, 1961.496
862.5775, 1978.860
863.0596, 1987.737
863.5417, 1985.562
864.0239, 1984.156
864.5060, 1988.556
864.9881, 1995.363
865.4702, 1996.251
865.9523, 1992.528
866.4344, 1989.170
866.9166, 1989.683
867.3987, 1990.288
867.8808, 1988.881
868.3629, 1985.918
868.8450, 1982.410
869.3271, 1975.053
869.8093, 1973.698
870.2914, 1982.748
870.7735, 1996.079
871.2556, 1998.587
871.7377, 1991.681
872.2198, 1987.299
872.7020, 1990.934
873.1841, 1995.237
873.6662, 1988.636
874.1483, 1978.707
874.6304, 1977.813
875.1125, 2003.612
875.5947, 2019.592
876.0768, 2016.547
876.5589, 2005.941
877.0410, 2004.171
877.5231, 2011.824
878.0052, 2018.694
878.4874, 2023.006
878.9695, 2026.750
879.4516, 2033.913
879.9337, 2041.676
880.4158, 2044.802
880.8979, 2039.486
881.3801, 2035.750
881.8622, 2037.853
882.3442, 2042.532
882.8264, 2047.202
883.3085, 2052.616
883.7906, 2053.869
884.2727, 2049.078
884.7548, 2046.352
885.2369, 2057.693
885.7191, 2076.749
886.2012, 2088.815
886.6833, 2091.683
887.1654, 2092.731
887.6475, 2094.842
888.1296, 2097.830
888.6118, 2101.559
889.0939, 2105.868
889.5760, 2111.017
890.0581, 2115.624
890.5402, 2124.576
891.0223, 2145.328
891.5045, 2173.556
891.9866, 2187.511
892.4687, 2187.947
892.9508, 2190.890
893.4329, 2209.951
893.9150, 2232.863
894.3972, 2251.134
894.8793, 2264.328
895.3614, 2278.347
895.8435, 2292.681
896.3256, 2309.622
896.8077, 2331.527
897.2899, 2356.083
897.7720, 2376.633
898.2541, 2392.528
898.7362, 2399.639
899.2183, 2388.622
899.7004, 2373.638
900.1826, 2366.669
900.6647, 2365.832
901.1468, 2366.476
901.6289, 2373.904
902.1110, 2374.457
902.5931, 2366.820
903.0753, 2350.575
903.5574, 2320.515
904.0395, 2277.938
904.5216, 2243.533
905.0037, 2225.157
905.4858, 2212.366
905.9680, 2192.385
906.4501, 2170.535
906.9322, 2155.163
907.4143, 2155.029
907.8964, 2151.296
908.3785, 2137.466
908.8607, 2122.295
909.3428, 2114.865
909.8249, 2115.474
910.3070, 2118.818
910.7891, 2124.680
911.2712, 2131.650
911.7534, 2142.209
912.2355, 2151.193
912.7176, 2148.563
913.1997, 2129.989
913.6818, 2119.857
914.1639, 2134.771
914.6461, 2152.443
915.1282, 2160.149
915.6103, 2157.223
916.0924, 2157.912
916.5745, 2162.809
917.0566, 2166.211
917.5388, 2162.767
918.0209, 2156.165
918.5030, 2150.258
918.9851, 2145.772
919.4672, 2145.561
919.9493, 2160.778
920.4315, 2169.588
920.9136, 2158.576
921.3957, 2134.334
921.8778, 2126.717
922.3599, 2138.030
922.8420, 2148.328
923.3242, 2151.354
923.8063, 2148.319
924.2884, 2138.019
924.7705, 2123.349
925.2526, 2110.847
925.7347, 2106.793
926.2169, 2100.751
926.6990, 2081.357
927.1811, 2062.535
927.6632, 2066.321
928.1453, 2098.795
928.6274, 2118.814
929.1096, 2120.218
929.5917, 2112.658
930.0738, 2108.025
930.5559, 2102.774
931.0380, 2087.265
931.5201, 2055.375
932.0023, 2035.581
932.4844, 2052.172
932.9665, 2074.429
933.4486, 2078.987
933.9307, 2061.572
934.4128, 2061.401
934.8950, 2081.190
935.3771, 2099.503
935.8592, 2094.301
936.3413, 2079.848
936.8234, 2081.718
937.3055, 2098.503
937.7877, 2112.227
938.2698, 2107.188
938.7519, 2106.035
939.2340, 2122.901
939.7161, 2151.088
940.1982, 2161.896
940.6804, 2153.691
941.1625, 2140.865
941.6446, 2124.936
942.1267, 2112.642
942.6088, 2117.234
943.0909, 2133.284
943.5731, 2149.255
944.0552, 2166.729
944.5373, 2176.183
945.0194, 2169.322
945.5015, 2156.638
945.9836, 2148.680
946.4658, 2145.418
946.9479, 2149.066
947.4300, 2161.465
947.9121, 2172.160
948.3942, 2163.895
948.8763, 2149.754
949.3585, 2151.066
949.8406, 2173.824
950.3227, 2188.167
950.8048, 2170.002
951.2869, 2156.060
951.7690, 2168.161
952.2512, 2205.107
952.7333, 2223.261
953.2154, 2222.039
953.6975, 2217.807
954.1796, 2217.895
954.6617, 2222.281
955.1439, 2232.708
955.6260, 2247.666
956.1081, 2262.140
956.5902, 2271.344
957.0723, 2284.050
957.5544, 2303.383
958.0366, 2326.273
958.5187, 2345.163
959.0008, 2360.486
959.4829, 2377.616
959.9650, 2397.703
960.4471, 2421.143
960.9293, 2448.476
961.4114, 2479.910
961.8935, 2516.519
962.3756, 2563.174
962.8577, 2604.247
963.3398, 2639.529
963.8220, 2668.435
964.3041, 2686.569
964.7862, 2696.221
965.2683, 2717.533
965.7504, 2751.009
966.2325, 2787.000
966.7147, 2822.825
967.1968, 2855.388
967.6789, 2878.614
968.1610, 2893.937
968.6431, 2920.398
969.1252, 2966.116
969.6074, 3007.875
970.0895, 3038.079
970.5716, 3060.417
971.0537, 3089.258
971.5358, 3118.676
972.0179, 3126.194
972.5001, 3099.942
972.9822, 3055.404
973.4643, 2994.855
973.9464, 2923.615
974.4285, 2849.408
974.9106, 2770.407
975.3928, 2693.649
975.8749, 2617.596
976.3570, 2549.951
976.8391, 2499.082
977.3212, 2461.830
977.8033, 2434.309
978.2855, 2416.094
978.7676, 2394.089
979.2497, 2351.143
979.7318, 2313.645
980.2139, 2296.976
980.6960, 2298.959
981.1782, 2302.299
981.6603, 2308.159
982.1424, 2303.875
982.6245, 2276.611
983.1066, 2244.400
983.5887, 2235.968
984.0709, 2242.063
984.5530, 2242.346
985.0351, 2218.476
985.5172, 2204.030
985.9993, 2209.018
986.4814, 2220.783
986.9636, 2222.515
987.4457, 2214.717
987.9278, 2214.677
988.4099, 2225.248
988.8920, 2233.812
989.3741, 2222.514
989.8563, 2207.698
990.3384, 2208.160
990.8205, 2227.975
991.3026, 2238.563
991.7847, 2232.265
992.2668, 2227.169
992.7490, 2231.662
993.2311, 2243.317
993.7132, 2256.292
994.1953, 2269.233
994.6774, 2276.762
995.1595, 2271.654
995.6417, 2265.284
996.1238, 2262.951
996.6059, 2263.897
997.0880, 2266.489
997.5701, 2270.518
998.0522, 2277.146
998.5344, 2287.262
999.0165, 2297.663
999.4986, 2302.642
999.9807, 2306.003
1000.463, 2315.952
1000.945, 2334.212
1001.427, 2351.220
1001.909, 2359.455
1002.391, 2369.742
1002.873, 2389.102
1003.356, 2416.130
1003.838, 2431.618
1004.320, 2435.399
1004.802, 2448.417
1005.284, 2488.266
1005.766, 2534.008
1006.248, 2561.856
1006.730, 2578.747
1007.212, 2597.928
1007.695, 2625.677
1008.177, 2652.247
1008.659, 2677.986
1009.141, 2700.546
1009.623, 2718.438
1010.105, 2730.780
1010.587, 2733.744
1011.069, 2726.717
1011.551, 2712.140
1012.034, 2690.219
1012.516, 2662.359
1012.998, 2627.934
1013.480, 2587.380
1013.962, 2544.900
1014.444, 2497.391
1014.926, 2460.596
1015.408, 2445.225
1015.891, 2439.038
1016.373, 2420.363
1016.855, 2393.806
1017.337, 2369.259
1017.819, 2352.151
1018.301, 2335.280
1018.783, 2314.832
1019.265, 2295.784
1019.747, 2282.288
1020.230, 2274.403
1020.712, 2276.557
1021.194, 2289.460
1021.676, 2299.730
1022.158, 2293.625
1022.640, 2281.883
1023.122, 2273.857
1023.604, 2269.933
1024.087, 2264.645
1024.569, 2255.530
1025.051, 2250.017
1025.533, 2252.391
1026.015, 2256.949
1026.497, 2247.573
1026.979, 2229.998
1027.461, 2222.152
1027.943, 2234.462
1028.426, 2246.347
1028.908, 2248.177
1029.390, 2245.864
1029.872, 2244.365
1030.354, 2243.503
1030.836, 2247.311
1031.318, 2256.767
1031.800, 2259.112
1032.282, 2235.455
1032.765, 2205.925
1033.247, 2192.014
1033.729, 2193.079
1034.211, 2201.576
1034.693, 2225.367
1035.175, 2241.556
1035.657, 2244.709
1036.139, 2240.175
1036.622, 2234.603
1037.104, 2229.504
1037.586, 2232.835
1038.068, 2249.143
1038.550, 2259.646
1039.032, 2244.584
1039.514, 2225.427
1039.996, 2220.616
1040.479, 2231.408
1040.961, 2235.717
1041.443, 2232.900
1041.925, 2228.723
1042.407, 2222.186
1042.889, 2219.629
1043.371, 2238.304
1043.853, 2267.533
1044.335, 2281.878
1044.818, 2257.526
1045.300, 2239.312
1045.782, 2232.072
1046.264, 2232.240
1046.746, 2237.615
1047.228, 2246.832
1047.710, 2253.596
1048.192, 2257.249
1048.674, 2256.842
1049.157, 2243.978
1049.639, 2233.553
1050.121, 2240.843
1050.603, 2261.719
1051.085, 2264.762
1051.567, 2246.487
1052.049, 2235.046
1052.531, 2242.112
1053.014, 2256.181
1053.496, 2263.606
1053.978, 2266.629
1054.460, 2268.960
1054.942, 2273.063
1055.424, 2272.308
1055.906, 2260.095
1056.388, 2252.649
1056.870, 2266.073
1057.353, 2295.641
1057.835, 2319.490
1058.317, 2336.594
1058.799, 2342.765
1059.281, 2327.872
1059.763, 2309.273
1060.245, 2290.796
1060.727, 2276.353
1061.209, 2277.471
1061.692, 2297.990
1062.174, 2302.993
1062.656, 2284.408
1063.138, 2263.027
1063.620, 2259.872
1064.102, 2267.842
1064.584, 2281.837
1065.066, 2302.841
1065.549, 2310.246
1066.031, 2295.833
1066.513, 2281.625
1066.995, 2275.310
1067.477, 2276.316
1067.959, 2287.217
1068.441, 2304.378
1068.923, 2315.952
1069.405, 2315.290
1069.888, 2312.049
1070.370, 2307.219
1070.852, 2303.533
1071.334, 2305.304
1071.816, 2313.762
1072.298, 2309.502
1072.780, 2291.907
1073.262, 2278.094
1073.745, 2286.983
1074.227, 2299.604
1074.709, 2297.966
1075.191, 2285.329
1075.673, 2277.639
1076.155, 2275.702
1076.637, 2280.012
1077.119, 2292.704
1077.601, 2306.399
1078.083, 2312.133
1078.566, 2311.202
1079.048, 2304.036
1079.530, 2289.530
1080.012, 2280.089
1080.494, 2281.876
1080.976, 2287.858
1081.458, 2297.373
1081.940, 2308.482
1082.423, 2312.984
1082.905, 2311.367
1083.387, 2306.120
1083.869, 2294.354
1084.351, 2286.283
1084.833, 2291.166
1085.315, 2301.767
1085.797, 2309.667
1086.280, 2314.340
1086.762, 2317.960
1087.244, 2320.359
1087.726, 2323.105
1088.208, 2331.639
1088.690, 2338.007
1089.172, 2326.581
1089.654, 2303.902
1090.136, 2296.267
1090.619, 2323.850
1091.101, 2336.735
1091.583, 2324.714
1092.065, 2303.318
1092.547, 2291.501
1093.029, 2287.354
1093.511, 2286.227
1093.993, 2287.500
1094.475, 2293.377
1094.958, 2311.600
1095.440, 2327.127
1095.922, 2332.632
1096.404, 2331.123
1096.886, 2334.295
1097.368, 2341.518
1097.850, 2347.304
1098.332, 2349.400
1098.815, 2350.818
1099.297, 2355.641
1099.779, 2359.486
1100.261, 2356.672
1100.743, 2345.283
1101.225, 2340.070
1101.707, 2341.491
1102.189, 2344.875
1102.672, 2346.724
1103.154, 2349.382
1103.636, 2357.665
1104.118, 2368.824
1104.600, 2376.240
1105.082, 2377.637
1105.564, 2375.973
1106.046, 2369.579
1106.528, 2364.808
1107.010, 2372.419
1107.493, 2385.676
1107.975, 2386.984
1108.457, 2376.517
1108.939, 2369.688
1109.421, 2376.594
1109.903, 2383.463
1110.385, 2386.750
1110.867, 2386.943
1111.350, 2383.930
1111.832, 2378.408
1112.314, 2374.062
1112.796, 2370.960
1113.278, 2373.090
1113.760, 2390.352
1114.242, 2407.440
1114.724, 2412.666
1115.207, 2406.964
1115.689, 2402.787
1116.171, 2400.161
1116.653, 2397.362
1117.135, 2393.101
1117.617, 2389.443
1118.099, 2388.323
1118.581, 2389.125
1119.063, 2391.588
1119.546, 2397.956
1120.028, 2398.899
1120.510, 2394.042
1120.992, 2385.844
1121.474, 2371.895
1121.956, 2358.306
1122.438, 2354.677
1122.920, 2359.569
1123.402, 2368.540
1123.885, 2386.459
1124.367, 2399.048
1124.849, 2404.096
1125.331, 2405.551
1125.813, 2410.623
1126.295, 2415.161
1126.777, 2403.341
1127.259, 2375.984
1127.742, 2355.850
1128.224, 2352.265
1128.706, 2360.342
1129.188, 2382.651
1129.670, 2410.997
1130.152, 2427.613
1130.634, 2433.695
1131.116, 2435.559
1131.599, 2434.395
1132.081, 2429.597
1132.563, 2414.117
1133.045, 2400.970
1133.527, 2399.549
1134.009, 2408.446
1134.491, 2420.707
1134.973, 2436.175
1135.455, 2441.576
1135.938, 2428.254
1136.420, 2411.785
1136.902, 2400.915
1137.384, 2397.669
1137.866, 2407.374
1138.348, 2433.699
1138.830, 2449.320
1139.312, 2453.518
1139.794, 2452.710
1140.277, 2449.453
1140.759, 2444.506
1141.241, 2435.261
1141.723, 2425.735
1142.205, 2424.614
1142.687, 2442.033
1143.169, 2451.010
1143.651, 2449.105
1144.134, 2443.963
1144.616, 2439.388
1145.098, 2437.713
1145.580, 2445.843
1146.062, 2461.581
1146.544, 2474.245
1147.026, 2479.619
1147.508, 2482.557
1147.990, 2483.521
1148.473, 2482.728
1148.955, 2480.502
1149.437, 2476.724
1149.919, 2467.852
1150.401, 2453.978
1150.883, 2449.795
1151.365, 2473.321
1151.847, 2493.963
1152.329, 2501.011
1152.812, 2499.075
1153.294, 2498.603
1153.776, 2499.074
1154.258, 2497.791
1154.740, 2493.748
1155.222, 2490.898
1155.704, 2493.170
1156.186, 2495.690
1156.669, 2494.234
1157.151, 2490.523
1157.633, 2495.841
1158.115, 2509.166
1158.597, 2518.801
1159.079, 2519.043
1159.561, 2518.520
1160.043, 2524.974
1160.526, 2532.246
1161.008, 2533.398
1161.490, 2527.863
1161.972, 2529.376
1162.454, 2537.942
1162.936, 2546.723
1163.418, 2552.777
1163.900, 2556.582
1164.382, 2557.807
1164.865, 2557.399
1165.347, 2555.771
1165.829, 2549.515
1166.311, 2557.933
1166.793, 2583.218
1167.275, 2606.786
1167.757, 2613.464
1168.239, 2613.107
1168.721, 2610.817
1169.204, 2609.992
1169.686, 2620.713
1170.168, 2650.012
1170.650, 2668.381
1171.132, 2671.297
1171.614, 2673.294
1172.096, 2688.410
1172.578, 2710.644
1173.061, 2732.492
1173.543, 2754.102
1174.025, 2778.735
1174.507, 2809.897
1174.989, 2836.533
1175.471, 2856.703
1175.953, 2873.618
1176.435, 2891.179
1176.917, 2908.520
1177.400, 2923.199
1177.882, 2935.214
1178.364, 2953.178
1178.846, 2980.512
1179.328, 3009.756
1179.810, 3040.306
1180.292, 3070.255
1180.774, 3101.834
1181.256, 3129.029
1181.739, 3137.688
1182.221, 3123.451
1182.703, 3108.094
1183.185, 3094.025
1183.667, 3083.470
1184.149, 3079.876
1184.631, 3076.968
1185.113, 3060.468
1185.596, 3033.568
1186.078, 3004.119
1186.560, 2974.099
1187.042, 2940.573
1187.524, 2899.094
1188.006, 2859.982
1188.488, 2827.571
1188.970, 2801.695
1189.453, 2786.873
1189.935, 2778.430
1190.417, 2762.747
1190.899, 2730.469
1191.381, 2700.304
1191.863, 2672.945
1192.345, 2653.857
1192.827, 2650.003
1193.309, 2657.127
1193.792, 2659.130
1194.274, 2656.216
1194.756, 2649.060
1195.238, 2633.122
1195.720, 2619.809
1196.202, 2612.788
1196.684, 2607.930
1197.166, 2601.321
1197.648, 2593.838
1198.130, 2589.910
1198.613, 2589.376
1199.095, 2591.060
1199.577, 2602.307
1200.059, 2604.556
1200.541, 2585.345
1201.023, 2563.656
1201.505, 2564.207
1201.987, 2581.578
1202.470, 2585.235
1202.952, 2575.285
1203.434, 2566.349
1203.916, 2564.739
1204.398, 2567.899
1204.880, 2579.724
1205.362, 2590.478
1205.844, 2582.120
1206.327, 2559.542
1206.809, 2548.910
1207.291, 2552.107
1207.773, 2558.281
1208.255, 2565.766
1208.737, 2569.495
1209.219, 2565.350
1209.701, 2558.944
1210.183, 2563.546
1210.666, 2575.560
1211.148, 2574.111
1211.630, 2556.385
1212.112, 2542.760
1212.594, 2550.414
1213.076, 2556.878
1213.558, 2550.547
1214.040, 2539.500
1214.522, 2545.805
1215.005, 2564.188
1215.487, 2568.803
1215.969, 2553.940
1216.451, 2541.735
1216.933, 2544.349
1217.415, 2552.086
1217.897, 2562.193
1218.379, 2572.961
1218.862, 2580.627
1219.344, 2584.863
1219.826, 2581.148
1220.308, 2565.755
1220.790, 2559.890
1221.272, 2584.752
1221.754, 2609.399
1222.236, 2621.469
1222.719, 2622.353
1223.201, 2612.217
1223.683, 2594.875
1224.165, 2584.539
1224.647, 2586.429
1225.129, 2589.188
1225.611, 2584.740
1226.093, 2584.493
1226.575, 2596.290
1227.057, 2614.507
1227.540, 2619.634
1228.022, 2615.394
1228.504, 2614.280
1228.986, 2622.776
1229.468, 2625.956
1229.950, 2611.690
1230.432, 2601.362
1230.914, 2609.237
1231.397, 2627.037
1231.879, 2624.747
1232.361, 2609.639
1232.843, 2604.211
1233.325, 2623.088
1233.807, 2632.362
1234.289, 2618.229
1234.771, 2604.862
1235.254, 2608.589
1235.736, 2621.797
1236.218, 2622.777
1236.700, 2614.794
1237.182, 2605.932
1237.664, 2594.943
1238.146, 2591.608
1238.628, 2597.591
1239.110, 2608.904
1239.593, 2627.562
1240.075, 2647.114
1240.557, 2649.293
1241.039, 2639.246
1241.521, 2628.970
1242.003, 2619.908
1242.485, 2615.353
1242.967, 2616.774
1243.449, 2618.879
1243.932, 2615.252
1244.414, 2611.568
1244.896, 2622.630
1245.378, 2641.682
1245.860, 2653.033
1246.342, 2644.298
1246.824, 2643.355
1247.306, 2653.450
1247.789, 2660.629
1248.271, 2646.467
1248.753, 2628.663
1249.235, 2641.026
1249.717, 2668.692
1250.199, 2675.935
1250.681, 2641.340
1251.163, 2629.514
1251.646, 2645.557
1252.128, 2662.448
1252.610, 2653.973
1253.092, 2641.014
1253.574, 2650.919
1254.056, 2673.167
1254.538, 2683.949
1255.020, 2678.923
1255.502, 2673.914
1255.984, 2669.120
1256.467, 2668.038
1256.949, 2677.501
1257.431, 2687.728
1257.913, 2693.094
1258.395, 2691.859
1258.877, 2679.837
1259.359, 2653.983
1259.841, 2642.110
1260.324, 2645.308
1260.806, 2656.331
1261.288, 2678.610
1261.770, 2698.101
1262.252, 2703.245
1262.734, 2700.731
1263.216, 2700.681
1263.698, 2703.076
1264.181, 2697.067
1264.663, 2683.377
1265.145, 2679.572
1265.627, 2710.111
1266.109, 2737.090
1266.591, 2739.642
1267.073, 2732.585
1267.555, 2732.308
1268.037, 2737.444
1268.520, 2737.247
1269.002, 2732.009
1269.484, 2727.782
1269.966, 2728.047
1270.448, 2729.620
1270.930, 2733.768
1271.412, 2735.763
1271.894, 2727.538
1272.376, 2713.207
1272.859, 2709.023
1273.341, 2712.638
1273.823, 2708.675
1274.305, 2670.918
1274.787, 2658.844
1275.269, 2688.731
1275.751, 2724.535
1276.233, 2722.935
1276.716, 2703.718
1277.198, 2704.763
1277.680, 2722.165
1278.162, 2734.260
1278.644, 2736.031
1279.126, 2732.239
1279.608, 2721.688
1280.090, 2712.172
1280.573, 2712.669
1281.055, 2716.838
1281.537, 2719.309
1282.019, 2718.872
1282.501, 2711.476
1282.983, 2692.769
1283.465, 2686.591
1283.947, 2695.354
1284.429, 2708.872
1284.911, 2722.940
1285.394, 2734.622
1285.876, 2740.392
1286.358, 2742.037
1286.840, 2744.136
1287.322, 2746.930
1287.804, 2743.421
1288.286, 2733.547
1288.768, 2726.615
1289.251, 2731.765
1289.733, 2738.041
##END=



