##NAMES=Cordierite
##RRUFFID=R040081
##IDEAL CHEMISTRY=Mg_2_Al_3_(AlSi_5_)O_18_
##LOCALITY=Laramie Range, Wyoming, USA
##OWNER=RRUFF
##SOURCE=University of Arizona Mineral Museum
##DESCRIPTION=Blue to purple coarsely crystalline
##STATUS=The identification of this mineral has been confirmed by X-ray diffraction and chemical analysis
##URL=rruff.info/R040081
##MEASURED CHEMISTRY=(Mg_1.80_Fe^2+^_0.20_)_Σ=2_Al_4.00_(Si_4.96_Al_0.04_)_Σ=5_O_18_·0.86H_2_O·Na_0.04_ ; H_2_O estimated by difference and verified by Raman spectroscopy
91.72394, 0.0000000E+00
92.20605, 143.8595
92.68817, 143.8097
93.17029, 144.7657
93.65240, 145.5509
94.13452, 146.2715
94.61664, 146.2621
95.09875, 145.4151
95.58087, 144.0396
96.06299, 142.5391
96.54510, 140.5916
97.02721, 138.9888
97.50933, 138.1207
97.99145, 137.6830
98.47356, 137.2365
98.95568, 136.3709
99.43780, 134.8612
99.91991, 133.8526
100.4020, 133.8553
100.8841, 133.7801
101.3663, 133.0770
101.8484, 131.8076
102.3305, 130.4495
102.8126, 129.4219
103.2947, 128.7530
103.7768, 128.5632
104.2590, 129.2768
104.7411, 130.2536
105.2232, 130.7890
105.7053, 130.6874
106.1874, 130.3290
106.6695, 130.1212
107.1517, 130.0364
107.6338, 130.0500
108.1159, 130.1762
108.5980, 130.3969
109.0801, 130.6237
109.5622, 130.7586
110.0444, 130.9657
110.5265, 131.3961
111.0086, 132.0665
111.4907, 132.8109
111.9728, 133.4494
112.4549, 133.9528
112.9371, 134.4337
113.4192, 134.8269
113.9013, 135.2541
114.3834, 135.7706
114.8655, 136.3957
115.3476, 137.1808
115.8298, 138.2417
116.3119, 139.5061
116.7940, 141.2335
117.2761, 143.7448
117.7582, 146.6531
118.2403, 149.5368
118.7225, 152.1810
119.2046, 154.5665
119.6867, 156.3436
120.1688, 158.2147
120.6509, 158.9745
121.1330, 158.0316
121.6152, 155.5349
122.0973, 151.9863
122.5794, 147.4961
123.0615, 142.1083
123.5436, 137.4302
124.0257, 133.6669
124.5079, 130.4816
124.9900, 127.6273
125.4721, 125.0725
125.9542, 122.8633
126.4363, 121.1862
126.9184, 119.9061
127.4006, 118.8166
127.8827, 118.1149
128.3648, 117.5823
128.8469, 116.5035
129.3290, 114.4785
129.8111, 112.3458
130.2932, 110.6151
130.7754, 109.2187
131.2575, 107.9106
131.7396, 106.3580
132.2217, 104.4707
132.7038, 103.1709
133.1859, 102.9292
133.6681, 102.9657
134.1502, 102.9796
134.6323, 102.9360
135.1144, 102.9802
135.5965, 103.3749
136.0786, 104.5715
136.5608, 105.1706
137.0429, 104.7459
137.5250, 104.0956
138.0071, 103.8170
138.4892, 104.0889
138.9713, 104.6866
139.4535, 105.1490
139.9356, 105.4898
140.4177, 105.6601
140.8998, 105.5610
141.3819, 105.3115
141.8640, 105.0421
142.3462, 104.7906
142.8283, 104.6029
143.3104, 104.6304
143.7925, 104.9486
144.2746, 105.2915
144.7567, 105.4906
145.2388, 105.6001
145.7210, 105.8691
146.2031, 106.5105
146.6852, 107.3350
147.1673, 107.9444
147.6494, 108.1961
148.1315, 108.4181
148.6137, 109.0377
149.0958, 110.1483
149.5779, 110.9967
150.0600, 110.6015
150.5421, 109.9664
151.0242, 110.1706
151.5064, 111.8149
151.9885, 114.1525
152.4706, 115.5748
152.9527, 115.5177
153.4348, 115.5991
153.9169, 116.5519
154.3991, 117.8576
154.8812, 118.8820
155.3633, 119.2362
155.8454, 119.0321
156.3275, 118.9546
156.8096, 119.5683
157.2918, 119.6838
157.7739, 119.0159
158.2560, 117.6817
158.7381, 115.8674
159.2202, 113.6603
159.7023, 111.0432
160.1845, 108.6878
160.6666, 106.6268
161.1487, 104.7451
161.6308, 103.0311
162.1129, 101.4738
162.5950, 100.0689
163.0772, 98.84822
163.5593, 97.83867
164.0414, 96.69996
164.5235, 95.25500
165.0056, 93.82768
165.4877, 92.58681
165.9698, 91.55811
166.4520, 90.78737
166.9341, 90.36593
167.4162, 90.30508
167.8983, 90.38135
168.3804, 90.85874
168.8625, 91.34937
169.3447, 91.28416
169.8268, 90.48833
170.3089, 89.53558
170.7910, 89.03301
171.2731, 88.87011
171.7552, 88.68482
172.2374, 88.19212
172.7195, 87.56066
173.2016, 87.30717
173.6837, 87.66526
174.1658, 88.15588
174.6479, 88.46689
175.1301, 88.61452
175.6122, 88.66003
176.0943, 88.69021
176.5764, 88.69644
177.0585, 88.43873
177.5406, 87.56833
178.0228, 86.72939
178.5049, 86.13598
178.9870, 85.82646
179.4691, 85.83150
179.9512, 86.34946
180.4333, 87.61110
180.9155, 88.30935
181.3976, 87.97573
181.8797, 87.47182
182.3618, 87.04961
182.8439, 86.80206
183.3260, 86.80912
183.8082, 87.27221
184.2903, 88.67516
184.7724, 89.20914
185.2545, 88.20189
185.7366, 87.00452
186.2187, 86.52433
186.7009, 86.90421
187.1830, 87.62185
187.6651, 87.92355
188.1472, 87.50797
188.6293, 87.27926
189.1114, 87.40891
189.5936, 87.62345
190.0757, 87.60197
190.5578, 87.26887
191.0399, 86.94478
191.5220, 87.21752
192.0041, 88.45447
192.4863, 89.25570
192.9684, 89.38548
193.4505, 89.02673
193.9326, 88.28064
194.4147, 87.09962
194.8968, 85.85151
195.3790, 85.24913
195.8611, 85.33337
196.3432, 85.34102
196.8253, 84.84156
197.3074, 84.10723
197.7895, 83.79757
198.2717, 84.24737
198.7538, 84.89491
199.2359, 85.00750
199.7180, 84.59100
200.2001, 84.07948
200.6822, 83.58536
201.1644, 83.14812
201.6465, 82.99490
202.1286, 83.35107
202.6107, 83.82410
203.0928, 84.06673
203.5749, 84.07708
204.0571, 83.97790
204.5392, 83.76938
205.0213, 83.45548
205.5034, 83.38087
205.9855, 83.91163
206.4676, 84.44670
206.9497, 84.66103
207.4319, 84.52761
207.9140, 84.14035
208.3961, 83.42940
208.8782, 82.26762
209.3603, 81.59219
209.8424, 82.06567
210.3246, 82.63714
210.8067, 82.80441
211.2888, 82.51933
211.7709, 82.05027
212.2530, 81.68359
212.7351, 81.41280
213.2173, 81.28194
213.6994, 81.35436
214.1815, 81.50229
214.6636, 81.67936
215.1457, 81.86797
215.6278, 82.05676
216.1100, 82.21221
216.5921, 82.24477
217.0742, 82.48766
217.5563, 83.19841
218.0384, 83.88803
218.5205, 84.22523
219.0027, 84.17064
219.4848, 83.93275
219.9669, 83.77751
220.4490, 83.70995
220.9311, 83.73923
221.4132, 83.88510
221.8954, 84.10168
222.3775, 84.33432
222.8596, 84.58131
223.3417, 84.91672
223.8238, 85.45613
224.3059, 86.33590
224.7881, 87.03873
225.2702, 87.37020
225.7523, 87.64411
226.2344, 88.24584
226.7165, 89.22628
227.1986, 90.11001
227.6807, 90.18577
228.1629, 89.17055
228.6450, 88.85330
229.1271, 89.82541
229.6092, 91.30305
230.0913, 92.50716
230.5734, 93.29507
231.0556, 93.92964
231.5377, 94.63575
232.0198, 95.41075
232.5019, 96.36407
232.9840, 97.58216
233.4661, 98.95738
233.9483, 100.2871
234.4304, 101.5020
234.9125, 102.9347
235.3946, 105.0557
235.8767, 107.7254
236.3588, 110.4644
236.8410, 113.5230
237.3231, 116.4541
237.8052, 118.5553
238.2873, 119.6791
238.7694, 120.3384
239.2515, 121.0038
239.7337, 121.5477
240.2158, 121.5679
240.6979, 120.6005
241.1800, 119.0969
241.6621, 117.8731
242.1442, 116.9601
242.6264, 116.2671
243.1085, 115.9245
243.5906, 115.7321
244.0727, 115.3390
244.5548, 114.4345
245.0369, 113.3148
245.5191, 112.5793
246.0012, 112.2241
246.4833, 112.2974
246.9654, 113.0278
247.4475, 114.1053
247.9296, 115.1097
248.4117, 115.7853
248.8939, 116.3556
249.3760, 117.3982
249.8581, 119.1694
250.3402, 120.8719
250.8223, 121.9548
251.3044, 122.9110
251.7866, 124.2973
252.2687, 126.3767
252.7508, 128.9486
253.2329, 131.6152
253.7150, 134.3996
254.1971, 137.2098
254.6793, 140.1730
255.1614, 143.0799
255.6435, 145.8050
256.1256, 148.3006
256.6077, 150.4649
257.0898, 152.1254
257.5720, 153.3640
258.0541, 153.8253
258.5362, 153.8258
259.0183, 153.0175
259.5004, 151.1091
259.9825, 148.0005
260.4647, 143.7736
260.9468, 138.3949
261.4289, 130.8976
261.9110, 124.1489
262.3931, 118.3292
262.8752, 113.1489
263.3574, 108.3687
263.8395, 103.9133
264.3216, 99.97499
264.8037, 96.86182
265.2858, 94.87789
265.7679, 93.19262
266.2501, 91.94138
266.7322, 90.82610
267.2143, 89.53893
267.6964, 88.08443
268.1785, 86.81644
268.6606, 86.26981
269.1428, 86.86044
269.6249, 87.10577
270.1070, 86.66467
270.5891, 86.21272
271.0712, 86.22787
271.5533, 86.70731
272.0355, 87.24861
272.5176, 87.34470
272.9997, 86.72188
273.4818, 86.88063
273.9639, 88.29651
274.4460, 89.90919
274.9282, 91.17130
275.4103, 92.08973
275.8924, 92.97362
276.3745, 94.12142
276.8566, 95.58810
277.3387, 96.79684
277.8208, 97.52125
278.3029, 98.27255
278.7851, 99.45525
279.2672, 100.8975
279.7493, 102.0232
280.2314, 102.3426
280.7135, 101.8980
281.1956, 102.0282
281.6778, 103.0595
282.1599, 104.1939
282.6420, 105.2536
283.1241, 106.2096
283.6062, 107.0107
284.0883, 107.5962
284.5705, 108.0390
285.0526, 108.7511
285.5347, 109.5820
286.0168, 110.8003
286.4989, 112.7548
286.9810, 115.1015
287.4632, 117.2105
287.9453, 118.7581
288.4274, 120.0151
288.9095, 121.7970
289.3916, 124.3960
289.8737, 127.0259
290.3559, 129.7861
290.8380, 132.4350
291.3201, 134.6744
291.8022, 136.4104
292.2843, 137.6054
292.7664, 138.1370
293.2486, 137.8089
293.7307, 137.2740
294.2128, 136.7799
294.6949, 136.0220
295.1770, 134.6539
295.6591, 132.5897
296.1413, 130.0119
296.6234, 127.0530
297.1055, 123.5476
297.5876, 120.3434
298.0697, 117.7051
298.5518, 115.2317
299.0340, 112.5222
299.5161, 109.5580
299.9982, 106.6403
300.4803, 104.0192
300.9624, 101.7359
301.4445, 99.77149
301.9267, 98.40307
302.4088, 97.13518
302.8909, 95.54379
303.3730, 93.68529
303.8551, 91.98397
304.3372, 90.74117
304.8194, 89.93564
305.3015, 89.17598
305.7836, 88.80193
306.2657, 88.13602
306.7478, 86.54934
307.2299, 84.35255
307.7121, 82.48563
308.1942, 81.46270
308.6763, 81.08364
309.1584, 80.68044
309.6405, 80.26145
310.1227, 79.81259
310.6048, 79.41087
311.0869, 78.96850
311.5690, 78.24480
312.0511, 77.09387
312.5332, 75.82671
313.0154, 75.09793
313.4975, 75.00241
313.9796, 75.01276
314.4617, 75.13190
314.9438, 75.26295
315.4259, 75.26167
315.9081, 75.08904
316.3902, 74.85566
316.8723, 74.67667
317.3544, 74.54680
317.8365, 74.53327
318.3186, 74.64512
318.8007, 74.87426
319.2828, 75.32961
319.7650, 75.99342
320.2471, 76.49490
320.7292, 76.43346
321.2113, 75.80273
321.6934, 75.52455
322.1755, 75.83601
322.6577, 76.27975
323.1398, 76.61430
323.6219, 76.83799
324.1040, 77.00307
324.5861, 77.11386
325.0682, 77.20365
325.5504, 77.42953
326.0325, 77.86723
326.5146, 78.33256
326.9967, 78.88452
327.4788, 79.41302
327.9609, 79.69911
328.4431, 79.64896
328.9252, 79.30470
329.4073, 78.72562
329.8894, 77.86122
330.3715, 76.91994
330.8536, 75.90025
331.3358, 74.84090
331.8179, 73.72165
332.3000, 72.53395
332.7821, 71.48643
333.2642, 70.90669
333.7463, 70.99583
334.2285, 70.82886
334.7106, 70.19394
335.1927, 69.41939
335.6748, 68.68590
336.1569, 68.04498
336.6390, 67.58807
337.1212, 67.43708
337.6033, 67.60895
338.0854, 67.63654
338.5675, 67.41091
339.0496, 67.16467
339.5317, 66.96787
340.0139, 66.83983
340.4960, 66.83122
340.9781, 66.99091
341.4602, 67.27143
341.9423, 67.43008
342.4244, 67.27477
342.9066, 67.24558
343.3887, 67.52511
343.8708, 67.96044
344.3529, 68.36122
344.8350, 68.65578
345.3171, 68.82411
345.7993, 68.81548
346.2814, 68.43476
346.7635, 68.21123
347.2456, 68.21282
347.7277, 68.33477
348.2098, 68.49432
348.6920, 68.67477
349.1741, 68.91030
349.6562, 69.24844
350.1383, 69.72787
350.6204, 70.11792
351.1025, 70.41557
351.5847, 70.64387
352.0668, 70.76216
352.5489, 70.81113
353.0310, 70.91621
353.5131, 71.19112
353.9952, 71.59483
354.4774, 71.69228
354.9595, 71.16889
355.4416, 70.70600
355.9237, 70.35500
356.4058, 70.16350
356.8879, 70.19438
357.3701, 70.47766
357.8522, 70.95972
358.3343, 71.54540
358.8164, 72.55767
359.2985, 73.14438
359.7806, 72.97921
360.2627, 72.62611
360.7448, 72.63535
361.2270, 73.03933
361.7091, 73.33376
362.1912, 72.82790
362.6733, 71.20316
363.1554, 70.20287
363.6375, 69.95443
364.1197, 70.15754
364.6018, 71.05002
365.0839, 72.32368
365.5660, 73.31804
366.0481, 73.53305
366.5302, 73.06365
367.0124, 72.65054
367.4945, 72.48915
367.9766, 72.11694
368.4587, 71.32813
368.9408, 70.33774
369.4229, 69.40797
369.9051, 68.65156
370.3872, 67.94572
370.8693, 67.01054
371.3514, 65.66309
371.8335, 64.56996
372.3156, 63.75326
372.7978, 63.23200
373.2799, 63.21714
373.7620, 63.63044
374.2441, 63.95814
374.7262, 63.47149
375.2083, 62.10482
375.6905, 61.50166
376.1726, 62.44698
376.6547, 63.29490
377.1368, 63.32906
377.6189, 62.73855
378.1010, 61.93185
378.5832, 61.02149
379.0653, 60.13039
379.5474, 59.59571
380.0295, 59.48747
380.5116, 59.55973
380.9937, 59.92073
381.4759, 60.31733
381.9580, 60.48989
382.4401, 60.36040
382.9222, 60.09573
383.4043, 59.86924
383.8864, 59.67973
384.3686, 59.43208
384.8507, 59.05080
385.3328, 58.66328
385.8149, 58.39172
386.2970, 58.22489
386.7791, 58.04119
387.2613, 57.64734
387.7434, 57.20472
388.2255, 57.17235
388.7076, 57.69953
389.1897, 58.22587
389.6718, 58.28407
390.1540, 58.06066
390.6361, 57.92482
391.1182, 58.08954
391.6003, 58.22060
392.0824, 57.89777
392.5645, 57.18506
393.0467, 56.67063
393.5288, 56.64394
394.0109, 56.91111
394.4930, 57.12928
394.9751, 57.32067
395.4572, 57.40016
395.9394, 57.23500
396.4215, 56.96216
396.9036, 56.80958
397.3857, 56.82529
397.8678, 56.94312
398.3499, 57.15025
398.8321, 57.45304
399.3142, 57.53953
399.7963, 57.16920
400.2784, 56.76366
400.7605, 56.64964
401.2426, 56.78068
401.7247, 56.87542
402.2068, 56.73171
402.6890, 56.45491
403.1711, 56.53492
403.6532, 57.29199
404.1353, 57.94722
404.6174, 58.35384
405.0995, 58.59011
405.5817, 58.69433
406.0638, 58.68900
406.5459, 58.69703
407.0280, 58.89425
407.5101, 59.33118
407.9922, 59.81441
408.4744, 60.39811
408.9565, 60.97237
409.4386, 61.48468
409.9207, 61.93614
410.4028, 62.35722
410.8849, 62.77918
411.3671, 63.18866
411.8492, 63.49681
412.3313, 63.68945
412.8134, 63.78312
413.2955, 63.56823
413.7776, 63.35527
414.2598, 63.50997
414.7419, 64.14084
415.2240, 65.00159
415.7061, 65.73270
416.1882, 66.30943
416.6703, 66.85283
417.1525, 67.29115
417.6346, 67.76194
418.1167, 68.29762
418.5988, 68.91981
419.0809, 69.66723
419.5630, 70.63393
420.0452, 71.73656
420.5273, 72.59837
421.0094, 73.04826
421.4915, 73.61292
421.9736, 74.56054
422.4557, 75.68789
422.9379, 76.76256
423.4200, 77.70552
423.9021, 78.67794
424.3842, 79.94369
424.8663, 81.48026
425.3484, 82.78146
425.8306, 83.70391
426.3127, 84.39178
426.7948, 85.19321
427.2769, 86.01355
427.7590, 86.17421
428.2411, 85.07901
428.7233, 83.27855
429.2054, 81.67229
429.6875, 80.31725
430.1696, 78.63818
430.6517, 76.02327
431.1339, 72.90459
431.6160, 70.58484
432.0981, 69.38876
432.5802, 68.48060
433.0623, 67.52257
433.5444, 66.55106
434.0266, 65.62063
434.5087, 64.74583
434.9908, 63.95912
435.4729, 63.32246
435.9550, 62.87674
436.4371, 62.41975
436.9193, 61.82737
437.4014, 61.31666
437.8835, 61.16412
438.3656, 61.26750
438.8477, 61.18758
439.3298, 60.59259
439.8120, 59.63256
440.2941, 59.13332
440.7762, 59.60716
441.2583, 59.91127
441.7404, 59.81800
442.2225, 59.55978
442.7046, 59.33537
443.1867, 59.21168
443.6689, 59.19732
444.1510, 59.34103
444.6331, 59.71788
445.1152, 59.87604
445.5973, 59.48561
446.0794, 59.20280
446.5616, 59.31514
447.0437, 59.69786
447.5258, 60.12430
448.0079, 60.49273
448.4900, 60.75389
448.9721, 60.70791
449.4543, 60.15023
449.9364, 59.87779
450.4185, 60.41230
450.9006, 61.07354
451.3827, 61.38737
451.8648, 61.30796
452.3470, 61.10903
452.8291, 60.85329
453.3112, 60.62334
453.7933, 60.91537
454.2754, 62.03859
454.7575, 62.99486
455.2397, 62.92988
455.7218, 62.27199
456.2039, 61.69697
456.6860, 61.38197
457.1681, 61.14848
457.6502, 60.83057
458.1324, 60.45857
458.6145, 60.19952
459.0966, 60.16875
459.5787, 60.15039
460.0608, 59.71854
460.5429, 58.81628
461.0251, 58.21079
461.5072, 58.19776
461.9893, 58.43092
462.4714, 58.76232
462.9535, 59.10222
463.4356, 59.05506
463.9178, 58.20977
464.3999, 56.85433
464.8820, 56.58430
465.3641, 58.53589
465.8462, 60.04216
466.3283, 60.60107
466.8105, 60.61347
467.2926, 60.37449
467.7747, 60.01591
468.2568, 59.75401
468.7389, 59.89049
469.2210, 60.53037
469.7032, 60.87503
470.1853, 60.73349
470.6674, 60.48738
471.1495, 60.16874
471.6316, 59.83634
472.1137, 59.57166
472.5959, 59.41601
473.0780, 59.32383
473.5601, 59.18262
474.0422, 58.94434
474.5243, 58.86590
475.0064, 59.14779
475.4886, 59.48230
475.9707, 59.71951
476.4528, 59.84499
476.9349, 59.86798
477.4170, 59.69875
477.8991, 59.44904
478.3813, 59.39041
478.8634, 59.54928
479.3455, 59.74571
479.8276, 59.90155
480.3097, 60.03328
480.7918, 60.16916
481.2740, 60.30919
481.7561, 60.45649
482.2382, 60.65465
482.7203, 60.85168
483.2024, 60.91840
483.6845, 60.82293
484.1666, 60.73456
484.6487, 60.83428
485.1309, 61.12963
485.6130, 61.30846
486.0951, 61.25213
486.5772, 61.21241
487.0593, 61.41515
487.5414, 61.68695
488.0236, 61.69317
488.5057, 61.30124
488.9878, 60.67551
489.4699, 60.09370
489.9520, 59.51311
490.4341, 59.08062
490.9163, 58.94314
491.3984, 58.79213
491.8805, 58.49421
492.3626, 58.05239
492.8447, 57.50236
493.3268, 56.85176
493.8090, 56.14491
494.2911, 55.49769
494.7732, 54.89025
495.2553, 54.40236
495.7374, 53.99060
496.2195, 53.75590
496.7017, 53.94626
497.1838, 54.51070
497.6659, 54.86625
498.1480, 54.41074
498.6301, 53.44683
499.1122, 52.80265
499.5944, 52.53097
500.0765, 52.46999
500.5586, 52.68645
501.0407, 53.00032
501.5228, 53.01493
502.0049, 52.53947
502.4871, 52.13749
502.9692, 52.13789
503.4513, 52.38772
503.9334, 52.68909
504.4155, 53.00308
504.8976, 53.10836
505.3798, 52.68602
505.8619, 51.68211
506.3440, 51.28551
506.8261, 51.97802
507.3082, 52.67093
507.7903, 53.07392
508.2725, 53.18868
508.7546, 52.93630
509.2367, 52.30883
509.7188, 51.63837
510.2009, 51.49643
510.6830, 52.09302
511.1652, 52.50695
511.6473, 52.57490
512.1294, 52.62041
512.6115, 52.74314
513.0936, 52.94104
513.5757, 53.21860
514.0579, 53.61516
514.5400, 53.98472
515.0221, 53.97707
515.5042, 53.51503
515.9863, 53.27755
516.4684, 53.60629
516.9506, 54.02626
517.4327, 54.04663
517.9148, 53.73518
518.3969, 53.61861
518.8790, 54.26295
519.3611, 55.02660
519.8433, 54.84047
520.3254, 53.78436
520.8075, 53.17368
521.2896, 53.74070
521.7717, 55.01543
522.2538, 55.94014
522.7360, 56.50779
523.2181, 56.85791
523.7002, 56.84315
524.1823, 56.73600
524.6644, 56.73576
525.1465, 56.87368
525.6287, 57.15508
526.1108, 57.60830
526.5929, 58.17347
527.0750, 58.52737
527.5571, 58.27822
528.0392, 58.38678
528.5214, 59.17603
529.0035, 60.17192
529.4856, 60.96409
529.9677, 61.52460
530.4498, 62.12922
530.9319, 63.07655
531.4141, 64.28671
531.8962, 65.19568
532.3783, 65.50544
532.8604, 66.20274
533.3425, 68.05170
533.8246, 70.34516
534.3068, 72.39595
534.7889, 74.07468
535.2710, 75.70492
535.7531, 77.49838
536.2352, 79.39894
536.7173, 81.27113
537.1995, 83.08614
537.6816, 85.03585
538.1637, 87.28768
538.6458, 89.80179
539.1279, 92.25075
539.6100, 94.60959
540.0922, 96.95042
540.5743, 99.34051
541.0564, 101.7139
541.5385, 103.9565
542.0206, 106.0595
542.5027, 108.1661
542.9849, 110.3931
543.4670, 112.7380
543.9491, 115.3249
544.4312, 118.1000
544.9133, 121.1941
545.3954, 124.7318
545.8775, 128.5428
546.3596, 132.4916
546.8417, 136.5265
547.3239, 140.5119
547.8060, 143.9954
548.2881, 147.0988
548.7702, 151.2529
549.2523, 157.0232
549.7344, 162.7520
550.2166, 167.3011
550.6987, 171.1729
551.1808, 175.2134
551.6629, 179.8264
552.1450, 183.9638
552.6271, 187.1781
553.1093, 189.4229
553.5914, 190.6233
554.0735, 190.7648
554.5556, 189.8243
555.0377, 187.6524
555.5198, 184.2525
556.0020, 180.7498
556.4841, 177.7021
556.9662, 173.9054
557.4483, 168.2164
557.9304, 161.9634
558.4125, 156.8444
558.8947, 153.2151
559.3768, 150.2386
559.8589, 146.9482
560.3410, 143.3463
560.8231, 140.1116
561.3052, 137.3698
561.7874, 134.8760
562.2695, 132.5572
562.7516, 130.4010
563.2337, 128.2940
563.7158, 126.1958
564.1979, 124.4916
564.6801, 123.8116
565.1622, 123.8080
565.6443, 123.2730
566.1264, 121.9999
566.6085, 120.5916
567.0906, 119.2605
567.5728, 118.1626
568.0549, 117.7546
568.5370, 118.4580
569.0191, 119.1809
569.5012, 119.4489
569.9833, 119.5840
570.4655, 119.9491
570.9476, 120.6128
571.4297, 121.5518
571.9118, 122.8024
572.3939, 124.3113
572.8760, 125.3152
573.3582, 125.1882
573.8403, 125.4098
574.3224, 126.5408
574.8045, 127.8553
575.2866, 128.8954
575.7687, 129.5069
576.2509, 129.4789
576.7330, 128.5876
577.2151, 126.9149
577.6972, 124.6826
578.1793, 121.7926
578.6614, 118.7953
579.1436, 116.1155
579.6257, 113.3546
580.1078, 109.8715
580.5899, 105.5116
581.0720, 101.3000
581.5541, 97.62786
582.0363, 94.30008
582.5184, 91.09291
583.0005, 88.00185
583.4826, 85.05671
583.9647, 82.26859
584.4468, 79.65350
584.9290, 77.24526
585.4111, 75.03439
585.8932, 73.05715
586.3753, 71.28088
586.8574, 69.74030
587.3395, 68.52127
587.8217, 67.55711
588.3038, 66.69864
588.7859, 65.88033
589.2680, 65.05766
589.7501, 64.14183
590.2322, 63.12431
590.7144, 62.03606
591.1965, 60.69136
591.6786, 59.50234
592.1607, 58.95478
592.6428, 58.89889
593.1249, 58.64656
593.6071, 57.74311
594.0892, 56.78072
594.5713, 56.33266
595.0534, 56.23172
595.5355, 55.93856
596.0176, 55.25816
596.4998, 54.59583
596.9819, 54.53394
597.4640, 55.25880
597.9461, 55.41951
598.4282, 54.50915
598.9103, 53.70224
599.3925, 53.44535
599.8746, 53.48512
600.3567, 53.51723
600.8388, 53.43238
601.3209, 53.19651
601.8030, 52.67352
602.2852, 51.88226
602.7673, 51.35110
603.2494, 51.13738
603.7315, 51.07576
604.2136, 51.15508
604.6957, 51.31190
605.1779, 51.50035
605.6600, 51.75891
606.1421, 51.86593
606.6242, 51.56621
607.1063, 51.11731
607.5884, 50.91803
608.0706, 50.98232
608.5527, 51.01859
609.0348, 50.80790
609.5169, 50.47261
609.9990, 50.43956
610.4811, 50.96140
610.9633, 51.43061
611.4454, 51.94287
611.9275, 52.31867
612.4096, 52.31524
612.8917, 52.06609
613.3738, 51.97185
613.8560, 52.31029
614.3381, 52.81581
614.8202, 52.85359
615.3023, 52.35379
615.7844, 52.37542
616.2665, 53.54209
616.7487, 54.70314
617.2308, 54.68468
617.7129, 53.76891
618.1950, 53.01236
618.6771, 52.62847
619.1592, 52.46310
619.6414, 52.48155
620.1235, 52.64118
620.6056, 52.91656
621.0877, 53.28869
621.5698, 53.59355
622.0519, 53.64868
622.5341, 53.45279
623.0162, 53.26143
623.4983, 53.03081
623.9804, 52.86470
624.4625, 52.88239
624.9446, 52.90731
625.4268, 52.78379
625.9089, 52.48825
626.3910, 52.08141
626.8730, 51.56337
627.3552, 50.98186
627.8373, 50.44540
628.3194, 49.95004
628.8015, 49.54529
629.2836, 49.26411
629.7657, 49.06522
630.2479, 48.91504
630.7300, 48.82965
631.2121, 48.64564
631.6942, 48.19467
632.1763, 47.77271
632.6584, 47.56931
633.1406, 47.54232
633.6227, 47.63262
634.1048, 47.80884
634.5869, 47.92043
635.0690, 47.68799
635.5511, 47.02438
636.0333, 46.62519
636.5154, 46.55508
636.9975, 46.67907
637.4796, 47.12013
637.9617, 47.62713
638.4438, 47.85335
638.9260, 47.70579
639.4081, 47.49894
639.8902, 47.41704
640.3723, 47.43398
640.8544, 47.52984
641.3365, 47.69750
641.8187, 47.84784
642.3008, 47.92921
642.7829, 47.96251
643.2650, 47.99213
643.7471, 47.93489
644.2292, 48.04710
644.7114, 48.50534
645.1935, 48.96470
645.6756, 49.21678
646.1577, 49.31859
646.6398, 49.41742
647.1219, 49.57931
647.6041, 49.77614
648.0862, 49.94930
648.5683, 50.10043
649.0504, 50.33379
649.5325, 50.63621
650.0146, 51.07091
650.4968, 51.71179
650.9789, 52.51200
651.4610, 53.36791
651.9431, 54.31188
652.4252, 55.22036
652.9073, 56.07581
653.3895, 56.84901
653.8716, 57.41195
654.3537, 57.82431
654.8358, 58.38500
655.3179, 59.30043
655.8000, 60.43188
656.2822, 61.39468
656.7643, 62.12058
657.2464, 62.84647
657.7285, 63.46987
658.2106, 64.21380
658.6927, 65.29449
659.1749, 66.56420
659.6570, 67.66129
660.1391, 68.37999
660.6212, 69.12985
661.1033, 70.33617
661.5854, 71.85696
662.0676, 73.36835
662.5497, 74.81615
663.0318, 76.14376
663.5139, 77.25018
663.9960, 78.23489
664.4781, 79.57609
664.9603, 81.67796
665.4424, 83.58052
665.9245, 85.19471
666.4066, 86.65643
666.8887, 88.13084
667.3708, 89.54110
667.8530, 90.66857
668.3351, 91.40494
668.8172, 91.78906
669.2993, 91.89009
669.7814, 91.70728
670.2635, 91.24012
670.7457, 90.54073
671.2278, 89.42485
671.7099, 87.67525
672.1920, 85.36650
672.6741, 82.94092
673.1563, 80.33660
673.6384, 77.72770
674.1205, 75.19840
674.6026, 72.69207
675.0847, 70.02361
675.5668, 67.28536
676.0490, 64.85339
676.5311, 62.98346
677.0132, 61.48402
677.4953, 59.82255
677.9774, 57.90407
678.4595, 56.28291
678.9417, 55.08114
679.4238, 54.12036
679.9059, 53.30445
680.3880, 52.62453
680.8701, 52.06219
681.3522, 51.58576
681.8344, 51.28428
682.3165, 51.39282
682.7986, 51.62426
683.2807, 51.51664
683.7628, 51.05069
684.2449, 50.55739
684.7271, 50.27345
685.2092, 50.09089
685.6913, 49.62084
686.1734, 48.57263
686.6555, 47.91197
687.1376, 47.89775
687.6198, 48.09055
688.1019, 48.52660
688.5840, 48.98076
689.0661, 48.98615
689.5482, 48.27382
690.0303, 47.48298
690.5125, 47.17176
690.9946, 47.17982
691.4767, 47.08390
691.9588, 46.84857
692.4409, 46.99210
692.9230, 47.97587
693.4052, 49.37239
693.8873, 49.91774
694.3694, 49.10030
694.8515, 48.33527
695.3336, 47.29908
695.8157, 46.63757
696.2979, 46.92546
696.7800, 47.76196
697.2621, 48.41024
697.7442, 48.59502
698.2263, 48.58751
698.7084, 48.64068
699.1906, 48.72897
699.6727, 48.73917
700.1548, 48.65250
700.6369, 48.63625
701.1190, 48.77239
701.6011, 49.05298
702.0833, 49.48292
702.5654, 50.21300
703.0475, 50.72589
703.5296, 50.78335
704.0117, 50.85706
704.4938, 51.28436
704.9760, 51.86858
705.4581, 52.23418
705.9402, 52.25777
706.4223, 52.22286
706.9044, 52.51888
707.3865, 53.03420
707.8687, 53.17947
708.3508, 52.86529
708.8329, 52.75973
709.3149, 53.28981
709.7971, 54.05309
710.2792, 54.29360
710.7613, 53.86101
711.2434, 53.75740
711.7255, 54.43459
712.2076, 55.04573
712.6898, 55.15749
713.1719, 54.93969
713.6540, 54.61049
714.1361, 54.25277
714.6182, 53.95329
715.1003, 53.86565
715.5825, 53.89982
716.0646, 53.60987
716.5467, 52.94033
717.0288, 52.35622
717.5109, 52.04441
717.9930, 51.84866
718.4752, 51.50718
718.9573, 51.02662
719.4394, 50.90239
719.9215, 51.50034
720.4036, 52.08860
720.8857, 52.31751
721.3679, 52.39317
721.8500, 52.62719
722.3321, 53.02861
722.8142, 53.31855
723.2963, 53.26876
723.7784, 52.95276
724.2606, 52.56926
724.7427, 52.11448
725.2248, 51.57829
725.7069, 50.85146
726.1890, 50.23537
726.6711, 50.16669
727.1533, 50.47914
727.6354, 50.36238
728.1175, 49.29536
728.5996, 48.44519
729.0817, 48.26806
729.5638, 48.38579
730.0460, 48.53716
730.5281, 48.63813
731.0102, 48.61464
731.4923, 48.42158
731.9744, 48.09130
732.4565, 47.59827
732.9387, 46.93586
733.4208, 46.56941
733.9029, 46.61880
734.3850, 46.78499
734.8671, 46.95957
735.3492, 47.09587
735.8314, 47.03438
736.3135, 46.57180
736.7956, 46.48918
737.2777, 47.41835
737.7598, 48.35128
738.2419, 48.52790
738.7241, 48.14972
739.2062, 47.71136
739.6883, 47.40375
740.1704, 47.16424
740.6525, 46.93635
741.1346, 46.71391
741.6168, 46.37710
742.0989, 45.84978
742.5810, 45.61410
743.0631, 45.99945
743.5452, 46.63081
744.0273, 46.97042
744.5095, 47.00571
744.9916, 47.03227
745.4737, 47.10628
745.9558, 47.13887
746.4379, 47.08805
746.9200, 46.97642
747.4022, 46.83635
747.8843, 46.67122
748.3664, 46.43342
748.8485, 46.00391
749.3306, 45.57545
749.8127, 45.69246
750.2949, 46.35779
750.7770, 46.97945
751.2591, 47.50648
751.7412, 47.72405
752.2233, 47.31451
752.7054, 46.39216
753.1876, 45.80627
753.6697, 45.94389
754.1518, 45.84470
754.6339, 45.16790
755.1160, 44.39643
755.5981, 43.82413
756.0803, 43.47204
756.5624, 43.29335
757.0445, 43.27630
757.5266, 43.34849
758.0087, 43.58184
758.4908, 43.84232
758.9730, 43.37638
759.4551, 42.06624
759.9372, 41.29951
760.4193, 41.98089
760.9014, 43.31260
761.3835, 43.74601
761.8657, 42.95164
762.3478, 42.34826
762.8299, 42.13974
763.3120, 41.87128
763.7941, 41.23565
764.2762, 40.54174
764.7584, 40.14838
765.2405, 40.11265
765.7226, 40.24647
766.2047, 40.56591
766.6868, 40.88126
767.1689, 40.79863
767.6511, 40.44037
768.1332, 40.40594
768.6153, 40.86764
769.0974, 41.34533
769.5795, 41.38466
770.0616, 41.02680
770.5438, 40.57792
771.0259, 39.69684
771.5080, 39.34057
771.9901, 40.21067
772.4722, 41.02825
772.9543, 40.85769
773.4365, 40.08465
773.9186, 39.72584
774.4007, 40.21564
774.8828, 40.70082
775.3649, 40.48701
775.8470, 39.99942
776.3292, 39.78760
776.8113, 39.88015
777.2934, 40.19946
777.7755, 40.72294
778.2576, 41.20026
778.7397, 41.16886
779.2219, 40.57170
779.7040, 40.19811
780.1861, 40.14258
780.6682, 40.11669
781.1503, 40.00349
781.6324, 39.88283
782.1146, 39.83402
782.5967, 39.85740
783.0788, 39.92903
783.5609, 40.10901
784.0430, 40.26208
784.5251, 40.27801
785.0073, 40.24458
785.4894, 40.34788
785.9715, 40.55743
786.4536, 40.55936
786.9357, 40.06508
787.4178, 39.41881
787.9000, 39.52100
788.3821, 40.36307
788.8642, 40.71606
789.3463, 40.31961
789.8284, 39.72964
790.3105, 39.14342
790.7927, 38.70501
791.2747, 38.89815
791.7568, 40.14788
792.2390, 40.93707
792.7211, 40.99769
793.2032, 40.77916
793.6853, 40.14305
794.1674, 39.53095
794.6495, 39.74040
795.1317, 40.87096
795.6138, 41.80134
796.0959, 41.37841
796.5780, 40.34139
797.0601, 39.96633
797.5422, 40.14060
798.0244, 40.32190
798.5065, 40.36738
798.9886, 40.27172
799.4707, 39.99224
799.9528, 39.57788
800.4349, 39.41019
800.9171, 39.66201
801.3992, 39.81238
801.8813, 39.70674
802.3634, 39.58318
802.8455, 39.61157
803.3276, 39.69987
803.8098, 39.61328
804.2919, 39.22063
804.7740, 38.97349
805.2561, 39.26239
805.7382, 39.68490
806.2203, 39.90768
806.7025, 39.89958
807.1846, 39.57228
807.6667, 38.92058
808.1488, 38.32728
808.6309, 38.26497
809.1130, 38.66302
809.5952, 39.16560
810.0773, 39.85401
810.5594, 40.11965
811.0415, 39.59282
811.5236, 38.95037
812.0057, 38.94570
812.4879, 39.48583
812.9700, 39.56274
813.4521, 38.59302
813.9342, 37.98811
814.4163, 38.23719
814.8984, 38.68426
815.3806, 38.95754
815.8627, 39.02138
816.3448, 38.82824
816.8269, 38.32748
817.3090, 37.99866
817.7911, 38.65043
818.2733, 39.65025
818.7554, 39.52447
819.2375, 38.40973
819.7196, 37.66622
820.2017, 37.82969
820.6838, 38.32856
821.1660, 38.43724
821.6481, 38.17318
822.1302, 38.22084
822.6123, 38.86015
823.0944, 39.20861
823.5765, 38.80074
824.0587, 38.31792
824.5408, 38.31792
825.0229, 38.64407
825.5050, 38.78349
825.9871, 38.57913
826.4692, 38.31691
826.9514, 38.02189
827.4335, 37.78504
827.9156, 37.70419
828.3977, 37.75162
828.8798, 37.85827
829.3619, 37.99572
829.8441, 38.14377
830.3262, 38.33201
830.8083, 38.51040
831.2904, 38.41434
831.7725, 38.04881
832.2546, 37.89644
832.7368, 38.15192
833.2189, 38.49854
833.7010, 38.61261
834.1831, 38.51319
834.6652, 38.42049
835.1473, 38.29137
835.6295, 38.24113
836.1116, 38.45670
836.5937, 38.57135
837.0758, 38.21548
837.5579, 37.64843
838.0400, 37.44105
838.5222, 37.79958
839.0043, 38.10428
839.4864, 37.96019
839.9685, 37.66964
840.4506, 37.45322
840.9327, 37.35201
841.4149, 37.45263
841.8970, 37.75895
842.3791, 38.08177
842.8612, 38.19824
843.3433, 38.21733
843.8254, 38.65376
844.3076, 39.53899
844.7897, 39.73757
845.2718, 38.82899
845.7539, 37.87208
846.2360, 37.68621
846.7181, 38.05341
847.2003, 38.22862
847.6824, 38.08880
848.1645, 37.99312
848.6466, 37.99168
849.1287, 37.97539
849.6108, 37.81585
850.0930, 37.65793
850.5751, 37.68699
851.0572, 37.93021
851.5393, 38.28730
852.0214, 38.96095
852.5035, 39.48634
852.9857, 39.33842
853.4678, 38.80348
853.9499, 38.33500
854.4320, 38.03440
854.9141, 37.89100
855.3962, 37.92332
855.8784, 37.99358
856.3605, 37.79406
856.8426, 37.33356
857.3247, 36.88941
857.8068, 36.43194
858.2889, 36.27858
858.7711, 36.70113
859.2532, 37.32225
859.7353, 37.50487
860.2174, 37.13017
860.6995, 37.19288
861.1816, 38.43264
861.6638, 39.10925
862.1459, 38.47890
862.6280, 37.51589
863.1101, 36.92076
863.5922, 36.69091
864.0743, 36.57831
864.5565, 36.49118
865.0386, 36.53266
865.5207, 36.87451
866.0028, 37.30473
866.4849, 37.60768
866.9670, 37.77435
867.4492, 37.86261
867.9313, 37.88827
868.4134, 37.74876
868.8955, 37.26682
869.3776, 36.55110
869.8597, 35.87152
870.3419, 35.22713
870.8240, 35.32890
871.3061, 36.51577
871.7882, 37.70779
872.2703, 38.00278
872.7524, 37.59330
873.2346, 37.21225
873.7166, 36.76715
874.1987, 36.53478
874.6808, 36.72747
875.1630, 36.89846
875.6451, 36.84272
876.1272, 36.70148
876.6093, 36.64093
877.0914, 36.67996
877.5735, 36.78523
878.0557, 37.09612
878.5378, 37.29978
879.0199, 37.00100
879.5020, 36.62040
879.9841, 36.78553
880.4662, 37.41770
880.9484, 37.94482
881.4305, 38.05959
881.9126, 37.95228
882.3947, 37.81605
882.8768, 37.66555
883.3589, 37.53394
883.8411, 37.42713
884.3232, 37.39727
884.8053, 37.47027
885.2874, 37.58216
885.7695, 37.66428
886.2516, 37.71447
886.7338, 37.68284
887.2159, 37.48660
887.6980, 37.45221
888.1801, 37.70756
888.6622, 38.02924
889.1443, 38.24855
889.6265, 38.43161
890.1086, 38.77213
890.5907, 39.40055
891.0728, 39.77354
891.5549, 39.50658
892.0370, 39.31752
892.5192, 39.67685
893.0013, 40.23610
893.4834, 40.47771
893.9655, 40.41686
894.4476, 40.59985
894.9297, 41.55967
895.4119, 42.44483
895.8940, 42.23427
896.3761, 41.51451
896.8582, 41.23308
897.3403, 41.43660
897.8224, 41.85424
898.3046, 42.35679
898.7867, 42.69744
899.2688, 42.43567
899.7509, 41.70011
900.2330, 41.31028
900.7151, 41.28483
901.1973, 41.35303
901.6794, 41.52378
902.1615, 41.43394
902.6436, 40.64349
903.1257, 39.39738
903.6078, 38.79369
904.0900, 39.34351
904.5721, 39.44854
905.0542, 38.77735
905.5363, 38.03679
906.0184, 37.47240
906.5005, 37.00484
906.9827, 36.46421
907.4648, 35.85290
907.9469, 35.60989
908.4290, 36.23571
908.9111, 36.75887
909.3932, 36.78078
909.8754, 36.49522
910.3575, 35.80604
910.8396, 35.01336
911.3217, 34.85231
911.8038, 35.65700
912.2859, 36.66593
912.7681, 37.42030
913.2502, 37.82610
913.7323, 37.54858
914.2144, 36.79047
914.6965, 36.13313
915.1786, 35.75169
915.6608, 35.68576
916.1429, 36.02973
916.6250, 36.55817
917.1071, 36.62209
917.5892, 36.22072
918.0714, 35.99188
918.5535, 36.00116
919.0356, 36.18696
919.5177, 36.65241
919.9998, 36.99726
920.4819, 36.50422
920.9641, 35.06561
921.4462, 34.31836
921.9283, 34.65001
922.4104, 35.01843
922.8925, 35.40169
923.3746, 35.62460
923.8568, 35.39814
924.3389, 34.95523
924.8210, 34.92662
925.3031, 35.61650
925.7852, 35.87709
926.2673, 34.94060
926.7495, 34.03487
927.2316, 33.98730
927.7137, 34.28721
928.1958, 34.26142
928.6779, 33.86095
929.1600, 33.43371
929.6422, 33.06218
930.1243, 32.94251
930.6064, 33.45287
931.0885, 34.21048
931.5706, 34.59213
932.0527, 34.66849
932.5349, 34.90318
933.0170, 35.45329
933.4991, 35.95075
933.9812, 35.93970
934.4633, 36.18893
934.9454, 36.23143
935.4276, 36.02720
935.9097, 36.03363
936.3918, 35.55414
936.8739, 35.09559
937.3560, 34.98230
937.8381, 35.08528
938.3203, 35.13586
938.8024, 35.11418
939.2845, 35.22675
939.7666, 35.56208
940.2487, 35.78253
940.7308, 35.63747
941.2130, 35.55816
941.6951, 36.07203
942.1772, 37.02287
942.6593, 37.52517
943.1414, 37.22395
943.6235, 37.12629
944.1057, 37.34870
944.5878, 37.69276
945.0699, 38.16650
945.5520, 38.65683
946.0341, 39.01462
946.5162, 39.23830
946.9984, 39.47526
947.4805, 39.68724
947.9626, 40.04029
948.4447, 40.90986
948.9268, 41.71553
949.4089, 41.73145
949.8911, 41.24293
950.3732, 41.01284
950.8553, 41.28300
951.3374, 41.61029
951.8195, 41.56840
952.3016, 41.43830
952.7838, 41.64391
953.2659, 42.03766
953.7480, 42.32632
954.2301, 42.44294
954.7122, 42.26431
955.1943, 41.67857
955.6764, 41.24742
956.1585, 42.05140
956.6406, 43.80001
957.1227, 44.99685
957.6049, 45.63611
958.0870, 46.09560
958.5691, 46.44939
959.0512, 47.05235
959.5333, 48.26285
960.0154, 49.87379
960.4976, 51.15141
960.9797, 52.05293
961.4618, 52.82786
961.9439, 53.35461
962.4260, 54.11052
962.9081, 55.31325
963.3903, 56.79719
963.8724, 58.43411
964.3545, 60.20719
964.8366, 61.80103
965.3187, 63.26534
965.8008, 64.45774
966.2830, 64.74348
966.7651, 65.45103
967.2472, 67.66649
967.7293, 70.47319
968.2114, 72.40022
968.6935, 73.30567
969.1757, 74.57168
969.6578, 76.94116
970.1399, 79.13010
970.6220, 80.93569
971.1041, 82.14190
971.5862, 82.58852
972.0684, 82.28259
972.5505, 81.25192
973.0326, 79.49890
973.5147, 77.12536
973.9968, 73.88067
974.4789, 70.34972
974.9611, 66.85806
975.4432, 63.50947
975.9253, 60.46589
976.4074, 57.70592
976.8895, 55.01429
977.3716, 52.27710
977.8538, 49.75024
978.3359, 47.76540
978.8180, 46.14484
979.3001, 44.53684
979.7822, 42.99057
980.2643, 41.74688
980.7465, 40.84808
981.2286, 40.18940
981.7107, 39.71478
982.1928, 39.33390
982.6749, 38.90321
983.1570, 38.42474
983.6392, 37.90664
984.1213, 37.35047
984.6034, 36.67480
985.0855, 35.82799
985.5676, 35.16988
986.0497, 35.10188
986.5319, 35.43626
987.0140, 35.44063
987.4961, 35.05848
987.9782, 34.79663
988.4603, 34.71218
988.9424, 34.67739
989.4246, 34.69079
989.9067, 34.61244
990.3888, 34.20525
990.8709, 33.50990
991.3530, 33.16290
991.8351, 33.31165
992.3173, 33.46226
992.7994, 33.40810
993.2815, 33.60817
993.7636, 34.66907
994.2457, 35.88361
994.7278, 36.04359
995.2100, 35.06176
995.6921, 34.41490
996.1742, 34.08130
996.6563, 34.14063
997.1384, 34.89211
997.6205, 35.74654
998.1027, 36.50837
998.5848, 37.06997
999.0669, 37.18359
999.5490, 36.78325
1000.031, 36.55336
1000.513, 36.81487
1000.995, 37.08104
1001.477, 37.10190
1001.960, 37.09908
1002.442, 37.27546
1002.924, 37.58453
1003.406, 37.84466
1003.888, 37.99445
1004.370, 38.35331
1004.852, 39.38996
1005.334, 40.34776
1005.817, 40.49298
1006.299, 40.40243
1006.781, 40.84248
1007.263, 41.74235
1007.745, 42.60981
1008.227, 43.26007
1008.709, 43.78371
1009.191, 44.36936
1009.673, 44.76393
1010.156, 44.52358
1010.638, 43.94224
1011.120, 43.59128
1011.602, 43.49654
1012.084, 43.33060
1012.566, 42.93229
1013.048, 42.30780
1013.530, 41.31547
1014.013, 40.18062
1014.495, 39.29127
1014.977, 38.63739
1015.459, 38.18215
1015.941, 37.89879
1016.423, 37.77222
1016.905, 37.82742
1017.387, 37.71276
1017.869, 36.66533
1018.352, 35.01855
1018.834, 33.94354
1019.316, 33.45088
1019.798, 33.59763
1020.280, 34.35826
1020.762, 34.68314
1021.244, 33.72614
1021.726, 33.87539
1022.208, 33.40105
1022.691, 32.60816
1023.173, 32.37530
1023.655, 31.15952
1024.137, 30.23043
1024.619, 29.92661
1025.101, 30.19168
1025.583, 31.11060
1026.065, 32.24817
1026.547, 32.34120
1027.030, 31.27389
1027.512, 30.69680
1027.994, 30.70676
1028.476, 30.74447
1028.958, 30.65563
1029.440, 30.51067
1029.922, 30.37967
1030.404, 30.22984
1030.887, 29.90870
1031.369, 29.28025
1031.851, 29.12923
1032.333, 29.65073
1032.815, 30.09937
1033.297, 30.27144
1033.779, 30.25034
1034.261, 30.06704
1034.744, 29.77004
1035.226, 29.53048
1035.708, 29.33474
1036.190, 29.24499
1036.672, 29.33619
1037.154, 29.39313
1037.636, 29.34889
1038.118, 29.24203
1038.600, 28.97924
1039.083, 28.68981
1039.565, 28.96422
1040.047, 30.37375
1040.529, 30.93320
1041.011, 29.81969
1041.493, 29.01088
1041.975, 29.28705
1042.457, 29.89426
1042.939, 30.37995
1043.422, 30.66627
1043.904, 30.38988
1044.386, 29.11128
1044.868, 28.33745
1045.350, 28.35103
1045.832, 28.58959
1046.314, 29.02224
1046.796, 29.49527
1047.279, 29.94797
1047.761, 30.32927
1048.243, 30.51414
1048.725, 30.55258
1049.207, 30.21732
1049.689, 28.86766
1050.171, 27.91514
1050.653, 28.16170
1051.135, 28.76132
1051.618, 29.09780
1052.100, 29.13331
1052.582, 28.84239
1053.064, 28.02192
1053.546, 27.61704
1054.028, 28.18969
1054.510, 28.75925
1054.992, 28.95619
1055.474, 28.94943
1055.957, 28.84891
1056.439, 28.69332
1056.921, 28.54528
1057.403, 28.42367
1057.885, 28.27144
1058.367, 27.81604
1058.849, 27.64704
1059.331, 28.37413
1059.814, 29.21231
1060.296, 29.39932
1060.778, 29.10791
1061.260, 28.88682
1061.742, 28.85358
1062.224, 28.87438
1062.706, 29.01694
1063.188, 29.06043
1063.671, 28.76388
1064.153, 28.43989
1064.635, 28.34614
1065.117, 28.46769
1065.599, 28.80606
1066.081, 29.38810
1066.563, 29.63011
1067.045, 29.02788
1067.527, 28.38321
1068.010, 28.03961
1068.492, 27.86513
1068.974, 27.74857
1069.456, 27.69990
1069.938, 27.75985
1070.420, 27.93733
1070.902, 28.22594
1071.384, 28.88008
1071.866, 29.31362
1072.349, 29.06556
1072.831, 28.64126
1073.313, 28.49594
1073.795, 28.49186
1074.277, 28.26308
1074.759, 27.76829
1075.241, 27.41509
1075.723, 27.38464
1076.206, 27.52003
1076.688, 27.95050
1077.170, 28.31803
1077.652, 28.19565
1078.134, 27.87132
1078.616, 27.88504
1079.098, 28.26674
1079.580, 28.53188
1080.062, 28.53423
1080.545, 28.30553
1081.027, 27.62856
1081.509, 26.96446
1081.991, 26.58739
1082.473, 26.48802
1082.955, 26.68765
1083.437, 27.13146
1083.919, 27.62015
1084.401, 28.21691
1084.884, 28.50320
1085.366, 27.91295
1085.848, 27.35087
1086.330, 27.65723
1086.812, 28.19629
1087.294, 27.99356
1087.776, 27.22753
1088.258, 26.99120
1088.740, 27.77764
1089.223, 28.43265
1089.705, 28.44909
1090.187, 28.22976
1090.669, 27.57993
1091.151, 27.15305
1091.633, 28.01016
1092.115, 29.62440
1092.597, 30.38886
1093.080, 29.83544
1093.562, 29.11889
1094.044, 28.48236
1094.526, 28.01768
1095.008, 27.84393
1095.490, 27.80200
1095.972, 27.81856
1096.454, 27.83419
1096.937, 27.65645
1097.419, 27.23721
1097.901, 27.26753
1098.383, 28.50318
1098.865, 29.48465
1099.347, 29.37241
1099.829, 29.15477
1100.311, 29.72234
1100.793, 30.58141
1101.276, 30.80414
1101.758, 30.33923
1102.240, 30.13305
1102.722, 30.76446
1103.204, 31.15367
1103.686, 30.83764
1104.168, 30.45071
1104.650, 30.24173
1105.132, 30.23101
1105.615, 30.48191
1106.097, 30.94948
1106.579, 31.39161
1107.061, 31.82265
1107.543, 32.11426
1108.025, 32.22519
1108.507, 32.22232
1108.989, 32.14995
1109.472, 31.96058
1109.954, 31.43252
1110.436, 30.75735
1110.918, 30.63540
1111.400, 31.45062
1111.882, 31.67561
1112.364, 30.60362
1112.846, 29.75839
1113.328, 29.59326
1113.811, 29.67087
1114.293, 29.89144
1114.775, 30.07344
1115.257, 29.75427
1115.739, 29.74722
1116.221, 29.66727
1116.703, 29.02368
1117.185, 29.18458
1117.667, 28.28823
1118.150, 27.37967
1118.632, 26.96798
1119.114, 26.84431
1119.596, 26.74258
1120.078, 26.66624
1120.560, 26.67872
1121.042, 26.87506
1121.524, 26.91235
1122.007, 26.66410
1122.489, 26.49685
1122.971, 26.58078
1123.453, 26.73822
1123.935, 26.80338
1124.417, 26.79315
1124.899, 26.77505
1125.381, 26.76439
1125.864, 26.64143
1126.346, 26.32114
1126.828, 26.25024
1127.310, 26.63564
1127.792, 26.97787
1128.274, 26.91105
1128.756, 26.57906
1129.238, 26.22003
1129.720, 25.84247
1130.203, 25.81456
1130.685, 26.19204
1131.167, 26.17790
1131.649, 25.57340
1132.131, 25.33847
1132.613, 25.99698
1133.095, 27.01630
1133.577, 27.81123
1134.059, 28.29419
1134.542, 27.96620
1135.024, 26.91055
1135.506, 26.13188
1135.988, 25.71816
1136.470, 25.68528
1136.952, 26.03355
1137.434, 26.52088
1137.916, 26.98865
1138.399, 27.28550
1138.881, 26.94697
1139.363, 26.23237
1139.845, 26.06465
1140.327, 26.35672
1140.809, 26.61782
1141.291, 26.74761
1141.773, 26.88294
1142.255, 27.10497
1142.738, 27.22839
1143.220, 26.89051
1143.702, 26.41811
1144.184, 26.44565
1144.666, 26.73791
1145.148, 26.81998
1145.630, 26.68337
1146.112, 26.49009
1146.594, 26.30830
1147.077, 26.20085
1147.559, 26.15564
1148.041, 26.31155
1148.523, 27.17235
1149.005, 28.00615
1149.487, 27.69465
1149.969, 26.79811
1150.451, 26.38359
1150.934, 26.58626
1151.416, 26.98453
1151.898, 27.45396
1152.380, 27.87405
1152.862, 28.28245
1153.344, 28.49549
1153.826, 28.19148
1154.308, 27.78450
1154.791, 27.75512
1155.273, 27.98885
1155.755, 28.11680
1156.237, 28.06358
1156.719, 27.98482
1157.201, 27.72773
1157.683, 27.73350
1158.165, 28.44766
1158.647, 29.12136
1159.130, 29.17800
1159.612, 28.99335
1160.094, 29.18229
1160.576, 29.11267
1161.058, 28.95058
1161.540, 29.09988
1162.022, 28.64527
1162.504, 28.56100
1162.986, 28.52331
1163.469, 28.19099
1163.951, 28.22729
1164.433, 29.44018
1164.915, 31.18541
1165.397, 31.94528
1165.879, 31.63857
1166.361, 31.11788
1166.843, 30.21395
1167.325, 29.72285
1167.808, 29.76789
1168.290, 30.24491
1168.772, 31.18767
1169.254, 32.26186
1169.736, 33.06514
1170.218, 33.95086
1170.700, 34.78554
1171.182, 35.46022
1171.665, 36.22456
1172.147, 36.75835
1172.629, 37.20294
1173.111, 37.59729
1173.593, 37.85363
1174.075, 37.89194
1174.557, 37.92816
1175.039, 38.32214
1175.521, 38.72436
1176.004, 39.53074
1176.486, 40.08617
1176.968, 40.98989
1177.450, 42.12922
1177.932, 42.72682
1178.414, 42.56149
1178.896, 42.53376
1179.378, 43.46814
1179.860, 44.62583
1180.343, 45.34285
1180.825, 45.67976
1181.307, 45.53318
1181.789, 45.15796
1182.271, 44.96778
1182.753, 44.99986
1183.235, 45.14310
1183.717, 45.43932
1184.200, 45.28970
1184.682, 44.10192
1185.164, 42.72880
1185.646, 41.46798
1186.128, 40.40562
1186.610, 39.80571
1187.092, 39.35434
1187.574, 38.42139
1188.057, 36.96002
1188.539, 35.69493
1189.021, 34.77928
1189.503, 34.00333
1189.985, 33.42679
1190.467, 32.88719
1190.949, 32.37775
1191.431, 31.82564
1191.913, 31.09227
1192.396, 30.72513
1192.878, 29.88099
1193.360, 29.86403
1193.842, 29.65582
1194.324, 29.21982
1194.806, 28.69018
1195.288, 28.01663
1195.770, 27.57766
1196.252, 27.60424
1196.735, 27.77468
1197.217, 27.74035
1197.699, 27.50905
1198.181, 26.96017
1198.663, 26.18074
1199.145, 26.03935
1199.627, 26.49041
1200.109, 26.90219
1200.592, 27.09050
1201.074, 26.80366
1201.556, 25.87180
1202.038, 24.96525
1202.520, 24.99217
1203.002, 25.43563
1203.484, 25.47779
1203.966, 25.29556
1204.448, 25.20387
1204.931, 25.17558
1205.413, 25.00521
1205.895, 24.68183
1206.377, 24.49711
1206.859, 24.68502
1207.341, 24.78616
1207.823, 24.34392
1208.305, 23.91041
1208.787, 23.89641
1209.270, 24.07279
1209.752, 24.20877
1210.234, 24.31168
1210.716, 24.45932
1211.198, 24.66333
1211.680, 24.89818
1212.162, 25.40202
1212.644, 25.56380
1213.127, 25.10990
1213.609, 24.53308
1214.091, 23.76678
1214.573, 23.26144
1215.055, 23.57292
1215.537, 24.42038
1216.019, 24.95589
1216.501, 25.17170
1216.984, 25.10379
1217.466, 24.69973
1217.948, 24.34974
1218.430, 24.11708
1218.912, 23.97634
1219.394, 23.91628
1219.876, 23.95089
1220.358, 24.12869
1220.840, 24.33424
1221.323, 24.19055
1221.805, 23.86832
1222.287, 24.08609
1222.769, 24.64966
1223.251, 24.67819
1223.733, 24.13301
1224.215, 23.76614
1224.697, 23.93194
1225.179, 24.25150
1225.662, 24.60028
1226.144, 24.73622
1226.626, 24.16781
1227.108, 23.50973
1227.590, 23.48981
1228.072, 23.82146
1228.554, 23.94433
1229.036, 23.83568
1229.519, 23.87320
1230.001, 24.23367
1230.483, 24.47430
1230.965, 24.51083
1231.447, 24.38926
1231.929, 23.79830
1232.411, 23.42727
1232.893, 24.03211
1233.375, 24.80991
1233.858, 24.45710
1234.340, 23.17161
1234.822, 22.80573
1235.304, 23.64161
1235.786, 24.01676
1236.268, 23.78718
1236.750, 23.72354
1237.232, 24.06126
1237.714, 24.19188
1238.197, 23.69898
1238.679, 23.02867
1239.161, 22.81342
1239.643, 22.89015
1240.125, 22.76306
1240.607, 22.56807
1241.089, 22.80468
1241.571, 23.34567
1242.054, 23.62625
1242.536, 23.56334
1243.018, 23.55151
1243.500, 23.80196
1243.982, 24.10992
1244.464, 24.46469
1244.946, 24.65093
1245.428, 24.35867
1245.910, 23.95154
1246.393, 23.78970
1246.875, 23.77711
1247.357, 23.59146
1247.839, 23.27111
1248.321, 23.50813
1248.803, 25.11157
1249.285, 25.73378
1249.767, 24.50637
1250.250, 23.48744
1250.732, 23.08694
1251.214, 23.11440
1251.696, 23.61068
1252.178, 24.19227
1252.660, 24.25579
1253.142, 23.91924
1253.624, 23.87309
1254.106, 24.10784
1254.589, 24.10322
1255.071, 23.85275
1255.553, 23.71537
1256.035, 23.76341
1256.517, 23.71159
1256.999, 23.39217
1257.481, 23.15443
1257.963, 23.52823
1258.445, 24.02644
1258.928, 23.82161
1259.410, 24.19289
1259.892, 23.75232
1260.374, 24.41842
1260.856, 24.81462
1261.338, 24.84747
1261.820, 24.61074
1262.302, 23.99487
1262.785, 23.84067
1263.267, 24.94897
1263.749, 25.79200
1264.231, 25.82911
1264.713, 25.52648
1265.195, 24.91313
1265.677, 24.33747
1266.159, 24.23171
1266.641, 24.48298
1267.124, 24.66378
1267.606, 24.78342
1268.088, 24.69801
1268.570, 24.36695
1269.052, 24.38361
1269.534, 24.85923
1270.016, 24.93282
1270.498, 24.21129
1270.980, 23.59594
1271.463, 24.02997
1271.945, 24.79410
1272.427, 24.78621
1272.909, 24.28843
1273.391, 23.59093
1273.873, 22.89475
1274.355, 22.58549
1274.837, 22.57253
1275.320, 22.39609
1275.802, 21.95622
1276.284, 21.81232
1276.766, 22.49058
1277.248, 22.98684
1277.730, 22.74495
1278.212, 22.53650
1278.694, 22.82670
1279.177, 23.20494
1279.659, 23.33974
1280.141, 23.31174
1280.623, 23.29220
1281.105, 23.26977
1281.587, 22.85287
1282.069, 23.10212
1282.551, 21.92217
1283.033, 23.11907
1283.516, 23.70312
1283.998, 23.20013
1284.480, 22.79885
1284.962, 23.25736
1285.444, 23.85922
1285.926, 23.89024
##END=



