##NAMES=Cordierite
##RRUFFID=R040081
##IDEAL CHEMISTRY=Mg_2_Al_3_(AlSi_5_)O_18_
##LOCALITY=Laramie Range, Wyoming, USA
##OWNER=RRUFF
##SOURCE=University of Arizona Mineral Museum
##DESCRIPTION=Blue to purple coarsely crystalline
##STATUS=The identification of this mineral has been confirmed by X-ray diffraction and chemical analysis
##URL=rruff.info/R040081
##MEASURED CHEMISTRY=(Mg_1.80_Fe^2+^_0.20_)_Σ=2_Al_4.00_(Si_4.96_Al_0.04_)_Σ=5_O_18_·0.86H_2_O·Na_0.04_ ; H_2_O estimated by difference and verified by Raman spectroscopy
91.62726, 0.0000000E+00
92.10938, 19.71732
92.59149, 19.38190
93.07361, 19.47572
93.55573, 19.96963
94.03784, 20.50599
94.51996, 20.83414
95.00208, 20.96663
95.48419, 20.94001
95.96631, 20.62011
96.44843, 20.17666
96.93054, 20.09629
97.41266, 20.39703
97.89478, 20.96670
98.37689, 21.80044
98.85901, 22.88880
99.34113, 23.85156
99.82324, 24.52853
100.3054, 24.91419
100.7875, 25.11097
101.2696, 24.94248
101.7517, 24.81487
102.2338, 25.55414
102.7159, 27.35506
103.1981, 29.46157
103.6802, 31.55383
104.1623, 33.66586
104.6444, 35.66265
105.1265, 37.31814
105.6086, 38.86845
106.0908, 41.32416
106.5729, 45.02078
107.0550, 49.21210
107.5371, 53.45637
108.0192, 57.64528
108.5013, 62.08681
108.9835, 66.49621
109.4656, 70.90160
109.9477, 76.77771
110.4298, 85.20747
110.9119, 94.52699
111.3940, 103.8011
111.8762, 111.8306
112.3583, 120.8889
112.8404, 131.3843
113.3225, 143.3067
113.8046, 156.4599
114.2867, 172.3356
114.7689, 189.0923
115.2510, 204.5879
115.7331, 216.8983
116.2152, 229.2403
116.6973, 242.9834
117.1794, 258.6950
117.6616, 273.8922
118.1437, 287.5645
118.6258, 300.2580
119.1079, 312.4113
119.5900, 323.8044
120.0721, 335.1215
120.5543, 346.7946
121.0364, 358.8997
121.5185, 371.2979
122.0006, 384.1421
122.4827, 397.3123
122.9648, 410.6763
123.4470, 423.4735
123.9291, 436.5402
124.4112, 450.7619
124.8933, 466.4166
125.3754, 483.1677
125.8575, 500.9613
126.3397, 519.7011
126.8218, 538.8767
127.3039, 558.9205
127.7860, 578.9777
128.2681, 597.1105
128.7502, 612.5748
129.2324, 626.0245
129.7145, 638.3248
130.1966, 649.5374
130.6787, 659.4071
131.1608, 667.0465
131.6429, 672.8115
132.1251, 678.8006
132.6072, 685.7216
133.0893, 693.3605
133.5714, 701.3316
134.0535, 709.6934
134.5356, 718.1190
135.0178, 726.0211
135.4999, 733.3434
135.9820, 741.1454
136.4641, 749.9616
136.9462, 759.8124
137.4283, 769.7145
137.9105, 779.5155
138.3926, 789.7964
138.8747, 801.7206
139.3568, 815.8871
139.8389, 829.7017
140.3210, 841.6010
140.8032, 850.9838
141.2853, 862.0417
141.7674, 874.9617
142.2495, 889.4255
142.7316, 903.8175
143.2137, 915.2737
143.6959, 921.6820
144.1780, 927.4740
144.6601, 932.8686
145.1422, 937.5143
145.6243, 941.3518
146.1064, 944.5095
146.5886, 947.4718
147.0707, 949.7946
147.5528, 952.4276
148.0349, 955.9641
148.5170, 962.2830
148.9991, 966.5573
149.4813, 967.0411
149.9634, 964.3864
150.4455, 964.7077
150.9276, 970.7996
151.4097, 977.8729
151.8918, 982.8505
152.3740, 983.6862
152.8561, 984.9020
153.3382, 986.5915
153.8203, 988.7440
154.3024, 992.1981
154.7845, 998.6880
155.2667, 1005.552
155.7488, 1010.891
156.2309, 1013.433
156.7130, 1015.355
157.1951, 1017.226
157.6772, 1019.096
158.1594, 1020.158
158.6415, 1019.810
159.1236, 1018.747
159.6057, 1017.641
160.0878, 1017.352
160.5699, 1016.458
161.0521, 1014.172
161.5342, 1010.286
162.0163, 1006.582
162.4984, 1003.682
162.9805, 1001.317
163.4626, 999.1444
163.9448, 997.5941
164.4269, 995.8027
164.9090, 993.0678
165.3911, 989.1096
165.8732, 985.4858
166.3553, 982.5670
166.8375, 980.5292
167.3196, 979.6667
167.8017, 981.2766
168.2838, 983.3750
168.7659, 984.3202
169.2480, 983.5803
169.7302, 983.0042
170.2123, 984.3047
170.6944, 986.7248
171.1765, 988.5530
171.6586, 988.5867
172.1407, 987.7538
172.6229, 986.7086
173.1050, 985.2048
173.5871, 984.4587
174.0692, 986.4570
174.5513, 990.2966
175.0334, 993.2859
175.5156, 992.8932
175.9977, 990.9568
176.4798, 990.0721
176.9619, 990.7428
177.4440, 992.3423
177.9261, 994.9875
178.4083, 998.2988
178.8904, 1000.536
179.3725, 999.3775
179.8546, 996.4701
180.3367, 995.1426
180.8188, 996.5292
181.3010, 998.8029
181.7831, 999.1609
182.2652, 997.8525
182.7473, 996.8769
183.2294, 998.3283
183.7115, 1001.311
184.1937, 1003.183
184.6758, 1003.041
185.1579, 1002.028
185.6400, 1002.111
186.1221, 1003.255
186.6042, 1004.735
187.0864, 1006.542
187.5685, 1008.389
188.0506, 1008.665
188.5327, 1006.171
189.0148, 1002.687
189.4969, 1002.648
189.9791, 1006.209
190.4612, 1010.024
190.9433, 1011.222
191.4254, 1010.060
191.9075, 1008.611
192.3896, 1006.983
192.8718, 1005.593
193.3539, 1005.932
193.8360, 1008.191
194.3181, 1010.704
194.8002, 1011.682
195.2823, 1011.176
195.7645, 1011.374
196.2466, 1013.015
196.7287, 1015.667
197.2108, 1017.510
197.6929, 1018.376
198.1750, 1019.102
198.6572, 1020.739
199.1393, 1023.346
199.6214, 1025.087
200.1035, 1025.153
200.5856, 1023.925
201.0677, 1023.815
201.5499, 1025.036
202.0320, 1026.655
202.5141, 1027.809
202.9962, 1028.476
203.4783, 1028.977
203.9604, 1029.420
204.4426, 1029.799
204.9247, 1029.856
205.4068, 1029.464
205.8889, 1029.136
206.3710, 1029.460
206.8531, 1030.584
207.3353, 1031.724
207.8174, 1032.842
208.2995, 1033.901
208.7816, 1034.167
209.2637, 1033.331
209.7458, 1032.301
210.2280, 1032.092
210.7101, 1032.941
211.1922, 1033.690
211.6743, 1034.101
212.1564, 1034.166
212.6385, 1033.862
213.1207, 1032.860
213.6028, 1032.003
214.0849, 1032.300
214.5670, 1034.144
215.0491, 1035.914
215.5313, 1037.247
216.0134, 1038.149
216.4955, 1038.990
216.9776, 1039.595
217.4597, 1040.388
217.9418, 1041.925
218.4240, 1044.534
218.9061, 1046.973
219.3882, 1048.898
219.8703, 1050.287
220.3524, 1051.954
220.8345, 1053.937
221.3167, 1056.122
221.7988, 1058.520
222.2809, 1061.386
222.7630, 1063.800
223.2451, 1065.395
223.7272, 1066.174
224.2094, 1067.315
224.6915, 1068.814
225.1736, 1070.710
225.6557, 1073.161
226.1378, 1076.877
226.6199, 1079.656
227.1021, 1080.554
227.5842, 1079.563
228.0663, 1080.473
228.5484, 1084.132
229.0305, 1088.781
229.5126, 1092.878
229.9948, 1096.425
230.4769, 1099.325
230.9590, 1101.159
231.4411, 1101.920
231.9232, 1104.149
232.4053, 1108.433
232.8875, 1113.585
233.3696, 1118.444
233.8517, 1122.146
234.3338, 1127.326
234.8159, 1134.891
235.2980, 1144.849
235.7802, 1153.734
236.2623, 1161.162
236.7444, 1167.963
237.2265, 1174.874
237.7086, 1182.335
238.1907, 1189.125
238.6729, 1195.377
239.1550, 1201.014
239.6371, 1204.553
240.1192, 1205.354
240.6013, 1204.776
241.0834, 1203.907
241.5656, 1203.242
242.0477, 1201.169
242.5298, 1196.511
243.0119, 1189.731
243.4940, 1185.944
243.9761, 1186.777
244.4583, 1188.657
244.9404, 1188.921
245.4225, 1186.266
245.9046, 1184.617
246.3867, 1184.541
246.8688, 1185.863
247.3510, 1187.394
247.8331, 1189.199
248.3152, 1191.138
248.7973, 1193.025
249.2794, 1194.394
249.7615, 1196.781
250.2437, 1200.545
250.7258, 1205.454
251.2079, 1210.196
251.6900, 1213.934
252.1721, 1218.706
252.6542, 1225.949
253.1364, 1236.795
253.6185, 1247.255
254.1006, 1256.615
254.5827, 1265.419
255.0648, 1275.475
255.5469, 1286.703
256.0291, 1299.139
256.5112, 1313.005
256.9933, 1329.150
257.4754, 1344.962
257.9575, 1361.166
258.4396, 1376.797
258.9218, 1389.038
259.4039, 1399.070
259.8860, 1403.789
260.3681, 1401.948
260.8502, 1393.492
261.3323, 1377.724
261.8145, 1351.898
262.2966, 1320.474
262.7787, 1292.579
263.2608, 1268.661
263.7429, 1247.139
264.2250, 1226.758
264.7072, 1206.938
265.1893, 1191.341
265.6714, 1180.697
266.1535, 1173.762
266.6356, 1168.721
267.1177, 1166.089
267.5999, 1163.809
268.0820, 1161.060
268.5641, 1157.677
269.0462, 1155.010
269.5283, 1153.336
270.0104, 1152.036
270.4926, 1150.013
270.9747, 1146.938
271.4568, 1144.369
271.9389, 1142.961
272.4210, 1142.760
272.9031, 1142.387
273.3853, 1141.781
273.8674, 1141.151
274.3495, 1140.696
274.8316, 1140.363
275.3137, 1140.457
275.7958, 1141.265
276.2780, 1142.679
276.7601, 1143.170
277.2422, 1142.321
277.7243, 1141.555
278.2064, 1142.786
278.6885, 1146.334
279.1707, 1148.914
279.6528, 1149.498
280.1349, 1148.497
280.6170, 1147.861
281.0991, 1147.525
281.5812, 1147.888
282.0634, 1149.870
282.5455, 1153.580
283.0276, 1155.950
283.5097, 1156.009
283.9918, 1154.601
284.4739, 1154.298
284.9561, 1155.165
285.4382, 1156.658
285.9203, 1158.453
286.4024, 1160.524
286.8845, 1162.838
287.3666, 1165.385
287.8488, 1168.105
288.3309, 1170.929
288.8130, 1173.851
289.2951, 1176.660
289.7772, 1179.341
290.2593, 1181.814
290.7415, 1183.639
291.2236, 1184.561
291.7057, 1185.283
292.1878, 1187.016
292.6699, 1189.700
293.1520, 1192.519
293.6342, 1195.511
294.1163, 1198.352
294.5984, 1199.657
295.0805, 1199.209
295.5626, 1197.985
296.0447, 1197.044
296.5269, 1196.347
297.0090, 1195.675
297.4911, 1194.789
297.9732, 1193.866
298.4553, 1193.243
298.9374, 1192.901
299.4196, 1193.006
299.9017, 1194.634
300.3838, 1196.961
300.8659, 1197.680
301.3480, 1194.246
301.8301, 1189.476
302.3123, 1187.679
302.7944, 1188.763
303.2765, 1190.773
303.7586, 1192.679
304.2407, 1194.333
304.7228, 1195.517
305.2050, 1196.202
305.6871, 1196.353
306.1692, 1195.734
306.6513, 1194.446
307.1334, 1193.059
307.6155, 1191.692
308.0977, 1190.531
308.5798, 1189.916
309.0619, 1190.322
309.5440, 1190.568
310.0261, 1189.661
310.5082, 1187.796
310.9904, 1185.575
311.4725, 1182.440
311.9546, 1179.542
312.4367, 1177.983
312.9188, 1178.166
313.4009, 1178.951
313.8831, 1179.653
314.3652, 1180.465
314.8473, 1181.766
315.3294, 1185.199
315.8115, 1188.118
316.2936, 1188.385
316.7758, 1185.359
317.2579, 1182.808
317.7400, 1182.484
318.2221, 1183.548
318.7042, 1184.909
319.1863, 1186.676
319.6685, 1188.279
320.1506, 1189.276
320.6327, 1189.642
321.1148, 1190.447
321.5969, 1191.971
322.0790, 1194.069
322.5612, 1196.656
323.0433, 1200.873
323.5254, 1204.323
324.0075, 1206.109
324.4896, 1206.438
324.9717, 1206.909
325.4539, 1207.737
325.9360, 1208.815
326.4181, 1210.087
326.9002, 1212.310
327.3823, 1213.777
327.8644, 1214.142
328.3466, 1213.646
328.8287, 1213.017
329.3108, 1211.257
329.7929, 1210.273
330.2750, 1211.109
330.7571, 1215.834
331.2393, 1217.631
331.7214, 1214.605
332.2035, 1209.331
332.6856, 1205.964
333.1677, 1204.989
333.6498, 1205.183
334.1320, 1206.662
334.6141, 1209.724
335.0962, 1211.368
335.5783, 1210.869
336.0604, 1209.706
336.5425, 1209.576
337.0247, 1211.209
337.5068, 1211.977
337.9889, 1210.945
338.4710, 1208.461
338.9531, 1207.506
339.4352, 1208.338
339.9174, 1210.112
340.3995, 1212.589
340.8816, 1216.123
341.3637, 1218.091
341.8458, 1217.584
342.3279, 1215.835
342.8101, 1216.292
343.2922, 1219.234
343.7743, 1222.510
344.2564, 1224.934
344.7385, 1226.549
345.2206, 1227.838
345.7028, 1228.827
346.1849, 1229.513
346.6670, 1229.411
347.1491, 1228.626
347.6312, 1228.894
348.1133, 1231.208
348.5955, 1235.176
349.0776, 1239.864
349.5597, 1245.398
350.0418, 1250.648
350.5239, 1254.269
351.0060, 1256.626
351.4882, 1258.680
351.9703, 1260.686
352.4524, 1262.608
352.9345, 1264.366
353.4166, 1265.967
353.8987, 1267.434
354.3809, 1268.868
354.8630, 1270.158
355.3451, 1270.908
355.8272, 1270.566
356.3093, 1270.681
356.7914, 1273.245
357.2736, 1277.491
357.7557, 1281.275
358.2378, 1282.886
358.7199, 1283.824
359.2020, 1285.238
359.6841, 1287.244
360.1663, 1289.779
360.6484, 1292.917
361.1305, 1296.529
361.6126, 1300.440
362.0947, 1305.361
362.5768, 1309.894
363.0590, 1312.854
363.5411, 1314.266
364.0232, 1316.906
364.5053, 1323.289
364.9874, 1330.420
365.4695, 1335.979
365.9517, 1339.150
366.4338, 1341.097
366.9159, 1342.183
367.3980, 1342.282
367.8801, 1340.874
368.3622, 1337.781
368.8444, 1333.250
369.3265, 1327.156
369.8086, 1317.704
370.2907, 1309.862
370.7728, 1304.523
371.2549, 1300.500
371.7371, 1295.908
372.2192, 1290.236
372.7013, 1284.646
373.1834, 1279.387
373.6655, 1274.396
374.1476, 1270.084
374.6298, 1266.504
375.1119, 1263.673
375.5940, 1261.748
376.0761, 1260.996
376.5582, 1260.426
377.0403, 1259.984
377.5225, 1259.610
378.0046, 1258.871
378.4867, 1257.640
378.9688, 1256.596
379.4509, 1256.468
379.9330, 1257.287
380.4152, 1257.092
380.8973, 1255.443
381.3794, 1253.301
381.8615, 1252.350
382.3436, 1252.549
382.8257, 1253.025
383.3079, 1253.556
383.7900, 1254.042
384.2721, 1254.049
384.7542, 1253.525
385.2363, 1253.029
385.7184, 1253.253
386.2006, 1253.958
386.6827, 1254.529
387.1648, 1254.913
387.6469, 1254.940
388.1290, 1254.002
388.6111, 1252.327
389.0933, 1251.137
389.5754, 1251.570
390.0575, 1252.804
390.5396, 1254.009
391.0217, 1255.245
391.5038, 1255.868
391.9860, 1254.480
392.4681, 1252.244
392.9502, 1251.267
393.4323, 1254.504
393.9144, 1257.671
394.3965, 1257.537
394.8787, 1253.722
395.3608, 1251.098
395.8429, 1252.494
396.3250, 1255.319
396.8071, 1257.262
397.2892, 1256.613
397.7714, 1256.334
398.2535, 1257.656
398.7356, 1260.112
399.2177, 1261.353
399.6998, 1259.339
400.1819, 1257.556
400.6641, 1257.648
401.1462, 1261.096
401.6283, 1263.367
402.1104, 1263.822
402.5925, 1263.388
403.0746, 1263.467
403.5568, 1264.209
404.0389, 1265.191
404.5210, 1266.458
405.0031, 1268.005
405.4852, 1268.811
405.9673, 1268.509
406.4495, 1268.154
406.9316, 1268.875
407.4137, 1270.911
407.8958, 1272.174
408.3779, 1272.178
408.8600, 1271.452
409.3422, 1271.496
409.8243, 1272.392
410.3064, 1272.861
410.7885, 1271.117
411.2706, 1268.042
411.7527, 1268.549
412.2349, 1273.291
412.7170, 1278.836
413.1991, 1280.689
413.6812, 1279.883
414.1633, 1279.806
414.6454, 1282.091
415.1276, 1285.427
415.6097, 1288.677
416.0918, 1291.663
416.5739, 1293.359
417.0560, 1291.730
417.5381, 1288.945
418.0203, 1287.696
418.5024, 1289.018
418.9845, 1290.645
419.4666, 1291.130
419.9487, 1290.922
420.4308, 1290.847
420.9130, 1290.934
421.3951, 1291.494
421.8772, 1292.648
422.3593, 1294.385
422.8414, 1296.827
423.3235, 1301.069
423.8057, 1305.458
424.2878, 1308.625
424.7699, 1309.656
425.2520, 1310.314
425.7341, 1310.072
426.2162, 1309.457
426.6984, 1310.516
427.1805, 1315.434
427.6626, 1319.473
428.1447, 1320.273
428.6268, 1316.070
429.1089, 1315.546
429.5911, 1321.353
430.0732, 1328.028
430.5553, 1328.010
431.0374, 1319.276
431.5195, 1311.828
432.0016, 1308.003
432.4838, 1307.201
432.9659, 1306.744
433.4480, 1306.676
433.9301, 1306.633
434.4122, 1306.686
434.8943, 1306.689
435.3765, 1305.306
435.8586, 1302.099
436.3407, 1298.482
436.8228, 1296.127
437.3049, 1294.992
437.7870, 1294.901
438.2692, 1296.648
438.7513, 1299.009
439.2334, 1300.232
439.7155, 1300.364
440.1976, 1300.109
440.6797, 1299.126
441.1619, 1298.378
441.6440, 1299.248
442.1261, 1303.051
442.6082, 1306.679
443.0903, 1308.443
443.5724, 1308.701
444.0546, 1308.230
444.5367, 1305.475
445.0188, 1303.580
445.5009, 1304.612
445.9830, 1309.177
446.4651, 1312.630
446.9473, 1312.969
447.4294, 1312.401
447.9115, 1312.772
448.3936, 1315.683
448.8757, 1317.660
449.3578, 1318.011
449.8400, 1317.238
450.3221, 1317.133
450.8042, 1318.285
451.2863, 1319.184
451.7684, 1318.849
452.2505, 1316.766
452.7327, 1317.324
453.2148, 1321.687
453.6969, 1326.629
454.1790, 1327.692
454.6611, 1324.647
455.1432, 1322.250
455.6254, 1321.369
456.1075, 1322.036
456.5896, 1324.972
457.0717, 1330.136
457.5538, 1335.250
458.0359, 1339.691
458.5181, 1342.851
459.0002, 1342.763
459.4823, 1338.891
459.9644, 1334.261
460.4465, 1331.722
460.9286, 1330.602
461.4108, 1329.676
461.8929, 1328.112
462.3750, 1326.888
462.8571, 1326.846
463.3392, 1327.845
463.8214, 1329.186
464.3035, 1331.088
464.7856, 1332.891
465.2677, 1334.034
465.7498, 1334.049
466.2319, 1334.522
466.7141, 1336.566
467.1962, 1339.043
467.6783, 1340.512
468.1604, 1339.268
468.6425, 1338.660
469.1246, 1339.436
469.6068, 1341.466
470.0889, 1343.358
470.5710, 1345.273
471.0531, 1346.801
471.5352, 1347.587
472.0173, 1347.296
472.4995, 1347.504
472.9816, 1348.324
473.4637, 1349.536
473.9458, 1350.878
474.4279, 1352.382
474.9100, 1353.762
475.3922, 1354.943
475.8743, 1355.948
476.3564, 1356.888
476.8385, 1357.766
477.3206, 1358.339
477.8027, 1358.170
478.2849, 1357.587
478.7670, 1357.160
479.2491, 1356.870
479.7312, 1357.103
480.2133, 1357.532
480.6954, 1358.790
481.1776, 1362.089
481.6597, 1371.588
482.1418, 1380.168
482.6239, 1383.043
483.1060, 1380.691
483.5881, 1376.848
484.0703, 1370.346
484.5524, 1364.669
485.0345, 1362.025
485.5166, 1363.547
485.9987, 1366.354
486.4808, 1371.841
486.9630, 1377.832
487.4451, 1381.437
487.9272, 1382.792
488.4093, 1381.491
488.8914, 1376.295
489.3735, 1367.842
489.8557, 1362.247
490.3378, 1360.115
490.8199, 1359.307
491.3020, 1358.931
491.7841, 1359.086
492.2662, 1358.393
492.7484, 1356.645
493.2305, 1354.491
493.7126, 1352.650
494.1947, 1351.134
494.6768, 1350.294
495.1589, 1350.674
495.6411, 1351.387
496.1232, 1350.444
496.6053, 1348.116
497.0874, 1346.353
497.5695, 1346.827
498.0516, 1348.289
498.5338, 1349.339
499.0159, 1349.757
499.4980, 1349.979
499.9801, 1350.151
500.4622, 1350.318
500.9443, 1350.537
501.4265, 1351.279
501.9086, 1351.612
502.3907, 1350.666
502.8728, 1348.941
503.3549, 1348.448
503.8370, 1350.920
504.3192, 1353.355
504.8013, 1354.712
505.2834, 1354.854
505.7655, 1354.533
506.2476, 1353.463
506.7297, 1352.260
507.2119, 1351.490
507.6940, 1351.188
508.1761, 1351.216
508.6582, 1351.696
509.1403, 1352.328
509.6224, 1352.079
510.1046, 1350.900
510.5867, 1350.428
511.0688, 1352.141
511.5509, 1355.174
512.0330, 1356.732
512.5151, 1356.782
512.9973, 1356.769
513.4794, 1358.473
513.9615, 1360.800
514.4436, 1361.831
514.9257, 1360.547
515.4078, 1359.273
515.8900, 1360.283
516.3721, 1362.474
516.8542, 1363.731
517.3363, 1362.057
517.8184, 1360.423
518.3005, 1360.236
518.7827, 1361.510
519.2648, 1362.679
519.7469, 1363.129
520.2290, 1363.677
520.7111, 1364.767
521.1932, 1366.523
521.6754, 1368.610
522.1575, 1371.481
522.6396, 1374.308
523.1217, 1375.751
523.6038, 1375.393
524.0859, 1375.087
524.5681, 1375.057
525.0502, 1375.474
525.5323, 1377.411
526.0144, 1380.981
526.4965, 1384.113
526.9786, 1384.958
527.4608, 1384.369
527.9429, 1385.137
528.4250, 1387.563
528.9071, 1389.830
529.3892, 1390.184
529.8713, 1389.274
530.3535, 1388.040
530.8356, 1386.131
531.3177, 1384.913
531.7998, 1385.390
532.2819, 1387.260
532.7640, 1389.752
533.2462, 1393.501
533.7283, 1397.014
534.2104, 1399.193
534.6925, 1399.706
535.1746, 1401.955
535.6567, 1408.158
536.1389, 1414.643
536.6210, 1419.047
537.1031, 1420.390
537.5852, 1421.934
538.0673, 1423.539
538.5494, 1425.615
539.0316, 1429.078
539.5137, 1434.205
539.9958, 1439.024
540.4779, 1442.540
540.9600, 1445.582
541.4421, 1451.411
541.9243, 1459.851
542.4064, 1467.397
542.8885, 1469.833
543.3706, 1470.146
543.8527, 1474.279
544.3348, 1482.966
544.8170, 1492.359
545.2991, 1499.239
545.7812, 1505.073
546.2633, 1511.724
546.7454, 1519.293
547.2275, 1528.311
547.7097, 1540.516
548.1918, 1554.369
548.6739, 1566.090
549.1560, 1572.243
549.6381, 1578.942
550.1202, 1588.604
550.6024, 1601.376
551.0845, 1612.233
551.5666, 1619.965
552.0487, 1627.452
552.5308, 1637.063
553.0129, 1649.841
553.4951, 1659.056
553.9772, 1663.921
554.4593, 1666.285
554.9414, 1668.829
555.4235, 1671.409
555.9056, 1672.343
556.3878, 1671.132
556.8699, 1667.996
557.3520, 1662.524
557.8341, 1655.188
558.3162, 1648.110
558.7983, 1642.344
559.2805, 1637.552
559.7626, 1633.272
560.2447, 1629.497
560.7268, 1626.949
561.2089, 1626.838
561.6910, 1627.568
562.1732, 1627.852
562.6553, 1626.986
563.1374, 1626.410
563.6195, 1626.365
564.1016, 1626.690
564.5837, 1627.152
565.0659, 1627.758
565.5480, 1628.501
566.0301, 1629.378
566.5122, 1630.391
566.9943, 1631.179
567.4764, 1631.385
567.9586, 1633.043
568.4407, 1637.705
568.9228, 1644.934
569.4049, 1652.825
569.8870, 1661.358
570.3691, 1669.577
570.8513, 1675.424
571.3334, 1680.415
571.8155, 1687.515
572.2976, 1698.300
572.7797, 1709.397
573.2618, 1718.776
573.7440, 1726.676
574.2261, 1733.747
574.7082, 1740.740
575.1903, 1746.371
575.6724, 1749.834
576.1545, 1751.278
576.6367, 1751.923
577.1188, 1753.596
577.6009, 1752.780
578.0830, 1747.750
578.5651, 1737.830
579.0472, 1727.564
579.5294, 1717.305
580.0115, 1705.859
580.4936, 1691.479
580.9757, 1673.986
581.4578, 1656.603
581.9399, 1639.564
582.4221, 1623.374
582.9042, 1608.711
583.3863, 1595.544
583.8684, 1582.956
584.3505, 1570.798
584.8326, 1558.852
585.3148, 1546.071
585.7969, 1532.902
586.2790, 1521.992
586.7611, 1516.170
587.2432, 1511.903
587.7253, 1506.787
588.2075, 1500.209
588.6896, 1494.894
589.1717, 1492.129
589.6538, 1490.329
590.1359, 1488.331
590.6180, 1486.331
591.1002, 1483.710
591.5823, 1480.386
592.0644, 1476.525
592.5465, 1472.184
593.0286, 1467.223
593.5107, 1462.907
593.9929, 1459.454
594.4750, 1457.025
594.9571, 1456.812
595.4392, 1458.558
595.9213, 1459.423
596.4034, 1456.892
596.8856, 1452.891
597.3677, 1449.795
597.8498, 1447.734
598.3319, 1446.498
598.8140, 1446.449
599.2961, 1446.893
599.7783, 1447.235
600.2604, 1447.286
600.7425, 1447.339
601.2246, 1447.471
601.7067, 1447.581
602.1888, 1447.546
602.6710, 1447.252
603.1531, 1446.872
603.6352, 1446.179
604.1173, 1445.468
604.5994, 1446.064
605.0815, 1448.383
605.5637, 1449.577
606.0458, 1447.629
606.5279, 1443.670
607.0100, 1442.231
607.4921, 1443.315
607.9742, 1445.093
608.4564, 1446.841
608.9385, 1448.212
609.4206, 1448.495
609.9027, 1447.527
610.3848, 1446.356
610.8669, 1445.544
611.3491, 1444.947
611.8312, 1444.373
612.3133, 1443.002
612.7954, 1442.679
613.2775, 1444.505
613.7596, 1447.436
614.2418, 1449.576
614.7239, 1450.840
615.2060, 1451.236
615.6881, 1450.161
616.1702, 1448.215
616.6523, 1448.822
617.1345, 1452.456
617.6166, 1455.731
618.0987, 1456.105
618.5808, 1454.525
619.0629, 1454.871
619.5450, 1457.188
620.0272, 1459.652
620.5093, 1460.738
620.9914, 1461.072
621.4735, 1461.482
621.9556, 1462.169
622.4377, 1462.734
622.9199, 1463.139
623.4020, 1463.222
623.8841, 1462.796
624.3662, 1460.343
624.8483, 1459.125
625.3304, 1460.573
625.8126, 1463.361
626.2947, 1464.568
626.7768, 1463.747
627.2589, 1462.328
627.7410, 1460.578
628.2231, 1458.582
628.7053, 1456.513
629.1874, 1454.329
629.6695, 1452.932
630.1516, 1453.431
630.6337, 1455.075
631.1158, 1456.188
631.5980, 1456.705
632.0801, 1456.704
632.5622, 1456.184
633.0443, 1455.212
633.5264, 1453.626
634.0085, 1450.802
634.4907, 1449.004
634.9728, 1449.619
635.4549, 1451.448
635.9370, 1453.107
636.4191, 1454.793
636.9012, 1455.778
637.3834, 1455.693
637.8655, 1454.969
638.3476, 1454.655
638.8297, 1454.840
639.3118, 1454.968
639.7939, 1454.792
640.2761, 1454.447
640.7582, 1454.428
641.2403, 1454.719
641.7224, 1455.024
642.2045, 1455.121
642.6866, 1455.155
643.1688, 1455.318
643.6509, 1455.630
644.1330, 1456.040
644.6151, 1456.194
645.0972, 1456.658
645.5793, 1458.135
646.0615, 1461.688
646.5436, 1463.822
647.0257, 1462.347
647.5078, 1460.242
647.9899, 1460.457
648.4720, 1464.500
648.9542, 1466.841
649.4363, 1466.163
649.9184, 1464.485
650.4005, 1466.095
650.8826, 1470.911
651.3647, 1474.773
651.8469, 1475.791
652.3290, 1475.596
652.8111, 1477.018
653.2932, 1479.738
653.7753, 1482.391
654.2574, 1483.737
654.7396, 1485.091
655.2217, 1487.613
655.7038, 1491.253
656.1859, 1494.578
656.6680, 1497.068
657.1501, 1499.227
657.6323, 1501.280
658.1144, 1503.231
658.5965, 1505.129
659.0786, 1506.679
659.5607, 1508.703
660.0428, 1512.449
660.5250, 1518.127
661.0071, 1521.799
661.4892, 1522.695
661.9713, 1522.969
662.4534, 1525.447
662.9355, 1529.553
663.4177, 1533.608
663.8998, 1536.873
664.3819, 1540.358
664.8640, 1544.950
665.3461, 1550.349
665.8282, 1556.065
666.3104, 1563.158
666.7925, 1569.227
667.2746, 1573.105
667.7567, 1575.079
668.2388, 1577.144
668.7209, 1579.422
669.2031, 1581.631
669.6852, 1583.994
670.1673, 1586.396
670.6494, 1586.999
671.1315, 1585.738
671.6136, 1583.264
672.0958, 1579.692
672.5779, 1575.263
673.0600, 1570.746
673.5421, 1566.200
674.0242, 1561.311
674.5063, 1555.556
674.9885, 1549.426
675.4706, 1543.493
675.9527, 1537.783
676.4348, 1532.316
676.9169, 1527.306
677.3990, 1522.548
677.8812, 1517.829
678.3633, 1512.975
678.8454, 1508.490
679.3275, 1504.206
679.8096, 1500.572
680.2917, 1498.943
680.7739, 1499.555
681.2560, 1499.148
681.7381, 1496.307
682.2202, 1492.598
682.7023, 1491.176
683.1844, 1491.597
683.6666, 1492.123
684.1487, 1491.874
684.6308, 1491.332
685.1129, 1490.599
685.5950, 1489.797
686.0771, 1489.574
686.5593, 1490.721
687.0414, 1491.965
687.5235, 1492.923
688.0056, 1493.656
688.4877, 1492.884
688.9698, 1489.249
689.4520, 1486.498
689.9341, 1487.939
690.4162, 1493.650
690.8983, 1496.107
691.3804, 1494.888
691.8625, 1492.453
692.3447, 1490.551
692.8268, 1489.396
693.3089, 1489.815
693.7910, 1492.438
694.2731, 1494.574
694.7552, 1493.392
695.2374, 1491.064
695.7195, 1490.107
696.2016, 1491.854
696.6837, 1494.120
697.1658, 1497.906
697.6479, 1501.508
698.1301, 1501.967
698.6122, 1497.756
699.0943, 1494.747
699.5764, 1494.204
700.0585, 1495.388
700.5406, 1497.098
701.0228, 1499.211
701.5049, 1500.413
701.9870, 1499.422
702.4691, 1497.775
702.9512, 1497.506
703.4333, 1498.394
703.9155, 1499.555
704.3976, 1500.456
704.8797, 1501.640
705.3618, 1503.897
705.8439, 1507.225
706.3260, 1508.983
706.8082, 1507.189
707.2903, 1505.991
707.7724, 1507.533
708.2545, 1511.996
708.7366, 1514.996
709.2188, 1516.341
709.7009, 1516.992
710.1830, 1517.584
710.6651, 1518.087
711.1472, 1518.480
711.6293, 1518.757
712.1115, 1518.716
712.5936, 1517.665
713.0757, 1516.463
713.5578, 1516.234
714.0399, 1517.740
714.5220, 1518.820
715.0042, 1518.703
715.4863, 1517.955
715.9684, 1517.136
716.4505, 1515.944
716.9326, 1515.562
717.4147, 1516.504
717.8969, 1517.744
718.3790, 1517.098
718.8611, 1514.706
719.3432, 1514.042
719.8253, 1516.608
720.3074, 1519.890
720.7896, 1520.233
721.2717, 1518.641
721.7538, 1517.478
722.2359, 1518.857
722.7180, 1519.802
723.2001, 1518.026
723.6823, 1514.550
724.1644, 1512.519
724.6465, 1513.393
725.1286, 1514.536
725.6107, 1515.518
726.0928, 1516.341
726.5750, 1517.005
727.0571, 1517.566
727.5392, 1517.709
728.0213, 1516.767
728.5034, 1515.477
728.9855, 1516.383
729.4677, 1519.142
729.9498, 1521.202
730.4319, 1519.704
730.9140, 1517.586
731.3961, 1517.463
731.8782, 1519.473
732.3604, 1521.411
732.8425, 1523.013
733.3246, 1523.980
733.8067, 1523.993
734.2888, 1522.777
734.7709, 1522.385
735.2531, 1523.011
735.7352, 1523.954
736.2173, 1524.672
736.6994, 1525.219
737.1815, 1526.071
737.6636, 1527.302
738.1458, 1528.263
738.6279, 1528.193
739.1100, 1527.559
739.5921, 1526.606
740.0742, 1524.874
740.5563, 1524.805
741.0385, 1530.471
741.5206, 1536.566
742.0027, 1537.524
742.4848, 1528.843
742.9669, 1523.735
743.4490, 1523.779
743.9312, 1525.670
744.4133, 1524.713
744.8954, 1521.019
745.3775, 1518.984
745.8596, 1519.615
746.3417, 1521.555
746.8239, 1523.885
747.3060, 1526.126
747.7881, 1527.273
748.2702, 1526.439
748.7523, 1525.267
749.2344, 1524.276
749.7166, 1523.535
750.1987, 1523.232
750.6808, 1524.419
751.1629, 1524.352
751.6450, 1521.636
752.1271, 1518.069
752.6093, 1518.640
753.0914, 1523.657
753.5735, 1527.726
754.0556, 1528.847
754.5377, 1528.205
755.0198, 1527.129
755.5020, 1525.855
755.9841, 1525.189
756.4662, 1525.488
756.9483, 1526.484
757.4304, 1529.021
757.9125, 1532.300
758.3947, 1533.435
758.8768, 1529.156
759.3589, 1526.099
759.8410, 1526.415
760.3231, 1529.362
760.8052, 1530.943
761.2874, 1531.065
761.7695, 1530.578
762.2516, 1529.378
762.7337, 1528.111
763.2158, 1528.388
763.6979, 1530.028
764.1801, 1531.947
764.6622, 1534.110
765.1443, 1535.810
765.6264, 1536.341
766.1085, 1535.720
766.5906, 1535.158
767.0728, 1534.913
767.5549, 1534.650
768.0370, 1534.148
768.5191, 1533.414
769.0012, 1533.367
769.4833, 1534.188
769.9655, 1534.637
770.4476, 1533.253
770.9297, 1531.021
771.4118, 1530.643
771.8939, 1532.106
772.3760, 1533.877
772.8582, 1535.260
773.3403, 1536.311
773.8224, 1536.956
774.3045, 1537.131
774.7866, 1537.525
775.2687, 1538.841
775.7509, 1539.723
776.2330, 1539.128
776.7151, 1536.725
777.1972, 1536.168
777.6793, 1537.689
778.1614, 1539.643
778.6436, 1540.867
779.1257, 1541.428
779.6078, 1540.888
780.0899, 1539.169
780.5720, 1538.848
781.0541, 1544.335
781.5363, 1550.224
782.0184, 1551.385
782.5005, 1545.414
782.9826, 1541.652
783.4647, 1542.021
783.9468, 1543.534
784.4290, 1544.122
784.9111, 1543.593
785.3932, 1543.794
785.8753, 1544.744
786.3574, 1546.417
786.8395, 1550.006
787.3217, 1554.009
787.8038, 1554.940
788.2859, 1551.993
788.7680, 1548.845
789.2501, 1547.310
789.7322, 1546.833
790.2144, 1547.081
790.6965, 1548.772
791.1786, 1549.286
791.6607, 1547.875
792.1428, 1546.166
792.6249, 1545.564
793.1071, 1546.112
793.5892, 1546.825
794.0713, 1547.666
794.5534, 1548.627
795.0355, 1550.017
795.5176, 1551.437
795.9998, 1551.973
796.4819, 1551.165
796.9640, 1550.943
797.4461, 1553.469
797.9282, 1556.300
798.4103, 1557.080
798.8925, 1554.566
799.3746, 1552.345
799.8567, 1550.220
800.3388, 1548.745
800.8209, 1548.729
801.3030, 1550.072
801.7852, 1551.609
802.2673, 1553.321
802.7494, 1554.667
803.2315, 1554.668
803.7136, 1554.148
804.1957, 1554.332
804.6779, 1555.839
805.1600, 1556.765
805.6421, 1555.251
806.1242, 1553.624
806.6063, 1554.002
807.0884, 1557.448
807.5706, 1559.957
808.0527, 1561.334
808.5348, 1562.160
809.0169, 1563.121
809.4990, 1564.085
809.9811, 1564.534
810.4633, 1564.408
810.9454, 1563.758
811.4275, 1561.619
811.9096, 1559.520
812.3917, 1559.414
812.8738, 1562.872
813.3560, 1565.082
813.8381, 1564.954
814.3202, 1563.636
814.8023, 1561.270
815.2844, 1557.080
815.7665, 1557.222
816.2487, 1562.615
816.7308, 1569.328
817.2129, 1574.957
817.6950, 1578.598
818.1771, 1577.320
818.6592, 1570.060
819.1414, 1563.066
819.6235, 1559.032
820.1056, 1557.547
820.5877, 1558.657
821.0698, 1564.157
821.5519, 1567.808
822.0341, 1569.258
822.5162, 1569.402
822.9983, 1568.533
823.4804, 1566.723
823.9625, 1566.016
824.4446, 1566.560
824.9268, 1567.459
825.4089, 1567.613
825.8910, 1567.726
826.3731, 1568.786
826.8552, 1571.015
827.3373, 1573.332
827.8195, 1576.639
828.3016, 1578.787
828.7837, 1578.003
829.2658, 1573.326
829.7479, 1571.228
830.2300, 1572.333
830.7122, 1574.099
831.1943, 1574.523
831.6764, 1573.995
832.1585, 1573.662
832.6406, 1573.607
833.1227, 1573.644
833.6049, 1573.851
834.0870, 1573.974
834.5691, 1573.431
835.0512, 1571.913
835.5333, 1572.271
836.0154, 1576.402
836.4976, 1580.037
836.9797, 1580.617
837.4618, 1578.232
837.9439, 1577.568
838.4260, 1578.669
838.9081, 1579.706
839.3903, 1579.107
839.8724, 1577.792
840.3545, 1576.836
840.8366, 1576.322
841.3187, 1576.446
841.8008, 1577.888
842.2830, 1579.475
842.7651, 1580.854
843.2472, 1582.020
843.7293, 1582.268
844.2114, 1581.335
844.6935, 1580.395
845.1757, 1579.737
845.6578, 1579.599
846.1399, 1581.209
846.6220, 1584.213
847.1041, 1586.617
847.5862, 1587.492
848.0684, 1587.133
848.5505, 1584.332
849.0326, 1580.006
849.5147, 1578.918
849.9968, 1584.437
850.4789, 1588.901
850.9611, 1590.102
851.4432, 1588.960
851.9253, 1588.586
852.4074, 1588.958
852.8895, 1589.184
853.3716, 1588.686
853.8538, 1588.101
854.3359, 1587.880
854.8180, 1588.187
855.3001, 1589.398
855.7822, 1592.502
856.2643, 1595.562
856.7465, 1598.780
857.2286, 1601.326
857.7107, 1601.242
858.1928, 1597.873
858.6749, 1594.962
859.1570, 1593.221
859.6392, 1592.385
860.1213, 1592.438
860.6034, 1593.057
861.0855, 1593.374
861.5676, 1592.786
862.0497, 1592.508
862.5319, 1593.320
863.0140, 1594.806
863.4961, 1596.463
863.9782, 1599.037
864.4603, 1600.141
864.9424, 1599.234
865.4246, 1597.602
865.9067, 1596.396
866.3888, 1595.772
866.8709, 1597.069
867.3530, 1600.872
867.8351, 1604.111
868.3173, 1603.093
868.7994, 1600.778
869.2815, 1600.447
869.7636, 1603.542
870.2457, 1605.965
870.7278, 1607.244
871.2100, 1607.850
871.6921, 1608.002
872.1742, 1607.689
872.6563, 1607.181
873.1384, 1606.430
873.6205, 1606.345
874.1027, 1608.746
874.5848, 1611.719
875.0669, 1612.602
875.5490, 1611.201
876.0311, 1609.472
876.5132, 1606.783
876.9954, 1605.335
877.4775, 1606.739
877.9596, 1610.838
878.4417, 1612.334
878.9238, 1610.826
879.4059, 1609.096
879.8881, 1608.673
880.3702, 1609.096
880.8523, 1609.366
881.3344, 1609.630
881.8165, 1610.513
882.2986, 1613.554
882.7808, 1616.053
883.2629, 1616.271
883.7450, 1614.797
884.2271, 1613.866
884.7092, 1613.389
885.1913, 1613.802
885.6735, 1615.555
886.1556, 1617.814
886.6377, 1618.668
887.1198, 1618.453
887.6019, 1618.418
888.0840, 1619.156
888.5662, 1620.011
889.0483, 1620.539
889.5304, 1620.949
890.0125, 1621.590
890.4946, 1623.043
890.9767, 1623.654
891.4589, 1622.766
891.9410, 1621.939
892.4231, 1623.714
892.9052, 1627.582
893.3873, 1630.287
893.8694, 1631.233
894.3516, 1631.727
894.8337, 1632.350
895.3158, 1633.374
895.7979, 1635.101
896.2800, 1637.647
896.7621, 1640.670
897.2443, 1645.017
897.7264, 1648.519
898.2085, 1649.170
898.6906, 1647.095
899.1727, 1646.544
899.6548, 1647.535
900.1370, 1649.115
900.6191, 1651.598
901.1012, 1653.630
901.5833, 1653.296
902.0654, 1650.782
902.5475, 1648.782
903.0297, 1648.614
903.5118, 1648.413
903.9939, 1647.549
904.4760, 1646.215
904.9581, 1645.264
905.4402, 1644.690
905.9224, 1644.338
906.4045, 1644.045
906.8866, 1644.010
907.3687, 1644.922
907.8508, 1646.248
908.3329, 1646.794
908.8151, 1644.570
909.2972, 1643.553
909.7793, 1644.924
910.2614, 1647.676
910.7435, 1650.770
911.2256, 1654.389
911.7078, 1655.906
912.1899, 1654.419
912.6720, 1652.720
913.1541, 1654.884
913.6362, 1658.813
914.1183, 1661.256
914.6005, 1661.175
915.0826, 1660.852
915.5647, 1660.134
916.0468, 1660.131
916.5289, 1661.851
917.0110, 1665.652
917.4932, 1668.098
917.9753, 1669.037
918.4574, 1669.849
918.9395, 1672.446
919.4216, 1675.181
919.9037, 1675.078
920.3859, 1672.329
920.8680, 1669.750
921.3501, 1668.689
921.8322, 1667.877
922.3143, 1666.795
922.7964, 1665.538
923.2786, 1664.619
923.7607, 1664.157
924.2428, 1663.129
924.7249, 1660.742
925.2070, 1658.176
925.6891, 1657.697
926.1713, 1658.512
926.6534, 1658.858
927.1355, 1657.105
927.6176, 1655.901
928.0997, 1656.420
928.5818, 1657.642
929.0640, 1658.391
929.5461, 1658.633
930.0282, 1658.488
930.5103, 1657.877
930.9924, 1657.268
931.4745, 1657.189
931.9567, 1657.478
932.4388, 1657.961
932.9209, 1658.657
933.4030, 1659.171
933.8851, 1658.882
934.3672, 1658.838
934.8494, 1659.965
935.3315, 1662.364
935.8136, 1662.511
936.2957, 1660.059
936.7778, 1658.459
937.2599, 1660.907
937.7421, 1664.902
938.2242, 1666.249
938.7063, 1665.594
939.1884, 1665.616
939.6705, 1667.961
940.1526, 1670.482
940.6348, 1672.361
941.1169, 1674.025
941.5990, 1676.775
942.0811, 1680.808
942.5632, 1683.265
943.0453, 1683.075
943.5275, 1682.145
944.0096, 1682.772
944.4917, 1684.342
944.9738, 1685.863
945.4559, 1687.018
945.9380, 1688.300
946.4202, 1690.192
946.9023, 1691.948
947.3844, 1692.630
947.8665, 1691.983
948.3486, 1693.842
948.8307, 1698.390
949.3129, 1702.785
949.7950, 1704.261
950.2771, 1704.655
950.7592, 1706.336
951.2413, 1709.192
951.7234, 1711.173
952.2056, 1711.222
952.6877, 1710.852
953.1698, 1710.453
953.6519, 1710.006
954.1340, 1709.113
954.6161, 1707.854
955.0983, 1707.586
955.5804, 1708.865
956.0625, 1711.200
956.5446, 1714.653
957.0267, 1718.648
957.5089, 1722.288
957.9910, 1724.199
958.4731, 1727.580
958.9552, 1733.266
959.4373, 1739.382
959.9194, 1743.588
960.4016, 1746.264
960.8837, 1751.579
961.3658, 1759.802
961.8479, 1767.348
962.3300, 1768.910
962.8121, 1770.414
963.2943, 1777.727
963.7764, 1791.288
964.2585, 1801.679
964.7406, 1806.644
965.2227, 1812.117
965.7048, 1820.348
966.1870, 1830.567
966.6691, 1841.557
967.1512, 1853.155
967.6333, 1864.247
968.1154, 1873.357
968.5975, 1883.420
969.0797, 1897.475
969.5618, 1913.103
970.0439, 1927.191
970.5260, 1939.952
971.0081, 1950.219
971.4902, 1958.114
971.9724, 1962.578
972.4545, 1961.931
972.9366, 1956.932
973.4187, 1949.454
973.9008, 1939.698
974.3829, 1926.898
974.8651, 1909.870
975.3472, 1890.484
975.8293, 1868.126
976.3114, 1843.605
976.7935, 1824.193
977.2756, 1810.293
977.7578, 1798.568
978.2399, 1788.119
978.7220, 1778.454
979.2041, 1768.557
979.6862, 1759.058
980.1683, 1751.323
980.6505, 1747.002
981.1326, 1742.880
981.6147, 1738.337
982.0968, 1733.663
982.5789, 1728.813
983.0610, 1723.761
983.5432, 1720.764
984.0253, 1720.084
984.5074, 1720.018
984.9895, 1719.241
985.4716, 1718.145
985.9537, 1717.342
986.4359, 1716.908
986.9180, 1715.264
987.4001, 1711.081
987.8822, 1707.777
988.3643, 1706.801
988.8464, 1707.561
989.3286, 1708.893
989.8107, 1710.482
990.2928, 1710.564
990.7749, 1706.994
991.2570, 1703.818
991.7391, 1704.776
992.2213, 1707.282
992.7034, 1707.279
993.1855, 1702.905
993.6676, 1700.620
994.1497, 1700.794
994.6318, 1702.559
995.1140, 1706.165
995.5961, 1710.318
996.0782, 1711.986
996.5603, 1711.042
997.0424, 1710.305
997.5245, 1711.827
998.0067, 1713.063
998.4888, 1712.507
998.9709, 1710.713
999.4530, 1710.284
999.9351, 1711.308
1000.417, 1712.458
1000.899, 1713.484
1001.381, 1714.122
1001.864, 1713.243
1002.346, 1712.048
1002.828, 1712.536
1003.310, 1716.875
1003.792, 1719.923
1004.274, 1721.280
1004.756, 1721.434
1005.238, 1719.879
1005.721, 1717.159
1006.203, 1717.871
1006.685, 1721.972
1007.167, 1726.428
1007.649, 1729.629
1008.131, 1732.026
1008.613, 1733.401
1009.095, 1734.045
1009.577, 1735.703
1010.060, 1738.961
1010.542, 1741.250
1011.024, 1741.716
1011.506, 1741.406
1011.988, 1742.233
1012.470, 1743.506
1012.952, 1743.596
1013.434, 1741.617
1013.917, 1740.063
1014.399, 1741.649
1014.881, 1742.390
1015.363, 1738.901
1015.845, 1731.091
1016.327, 1727.733
1016.809, 1728.940
1017.291, 1730.577
1017.773, 1729.996
1018.256, 1728.625
1018.738, 1727.775
1019.220, 1727.311
1019.702, 1726.750
1020.184, 1726.058
1020.666, 1725.174
1021.148, 1724.042
1021.630, 1722.778
1022.112, 1721.063
1022.595, 1719.346
1023.077, 1719.778
1023.559, 1722.931
1024.041, 1725.032
1024.523, 1722.259
1025.005, 1718.902
1025.487, 1717.927
1025.969, 1719.197
1026.452, 1721.207
1026.934, 1724.169
1027.416, 1726.057
1027.898, 1725.579
1028.380, 1724.071
1028.862, 1722.605
1029.344, 1721.715
1029.826, 1722.395
1030.308, 1727.974
1030.791, 1730.620
1031.273, 1728.563
1031.755, 1725.147
1032.237, 1723.563
1032.719, 1723.567
1033.201, 1723.335
1033.683, 1722.808
1034.165, 1722.826
1034.647, 1724.068
1035.130, 1725.941
1035.612, 1728.629
1036.094, 1731.713
1036.576, 1733.303
1037.058, 1733.053
1037.540, 1732.621
1038.022, 1732.269
1038.504, 1732.227
1038.987, 1733.630
1039.469, 1735.297
1039.951, 1734.894
1040.433, 1730.966
1040.915, 1728.455
1041.397, 1729.334
1041.879, 1730.816
1042.361, 1731.467
1042.844, 1731.389
1043.326, 1731.412
1043.808, 1731.516
1044.290, 1731.463
1044.772, 1730.823
1045.254, 1730.333
1045.736, 1730.450
1046.218, 1731.089
1046.700, 1732.133
1047.183, 1733.959
1047.665, 1734.742
1048.147, 1734.064
1048.629, 1733.352
1049.111, 1734.403
1049.593, 1736.262
1050.075, 1737.396
1050.557, 1737.673
1051.040, 1737.878
1051.522, 1738.628
1052.004, 1738.685
1052.486, 1736.902
1052.968, 1734.646
1053.450, 1737.004
1053.932, 1742.985
1054.414, 1746.478
1054.896, 1744.967
1055.379, 1742.517
1055.861, 1741.256
1056.343, 1740.916
1056.825, 1741.341
1057.307, 1742.611
1057.789, 1744.101
1058.271, 1745.936
1058.753, 1747.340
1059.235, 1747.803
1059.718, 1747.508
1060.200, 1746.125
1060.682, 1744.172
1061.164, 1743.107
1061.646, 1744.031
1062.128, 1744.981
1062.610, 1745.725
1063.092, 1746.313
1063.574, 1746.654
1064.057, 1746.876
1064.539, 1747.808
1065.021, 1749.546
1065.503, 1750.784
1065.985, 1750.509
1066.467, 1749.725
1066.949, 1748.739
1067.431, 1747.768
1067.914, 1747.819
1068.396, 1749.057
1068.878, 1749.462
1069.360, 1747.889
1069.842, 1746.758
1070.324, 1750.306
1070.806, 1755.352
1071.288, 1757.481
1071.771, 1754.496
1072.253, 1752.902
1072.735, 1753.363
1073.217, 1754.229
1073.699, 1754.492
1074.181, 1754.384
1074.663, 1754.378
1075.145, 1754.580
1075.627, 1755.394
1076.110, 1757.919
1076.592, 1759.958
1077.074, 1760.709
1077.556, 1760.754
1078.038, 1760.620
1078.520, 1760.315
1079.002, 1760.051
1079.484, 1759.850
1079.967, 1759.575
1080.449, 1758.653
1080.931, 1758.025
1081.413, 1758.644
1081.895, 1760.355
1082.377, 1761.695
1082.859, 1762.558
1083.341, 1763.440
1083.823, 1764.504
1084.306, 1765.461
1084.788, 1766.263
1085.270, 1766.533
1085.752, 1765.066
1086.234, 1760.890
1086.716, 1759.671
1087.198, 1764.596
1087.680, 1768.827
1088.162, 1768.574
1088.645, 1765.622
1089.127, 1766.232
1089.609, 1769.550
1090.091, 1772.265
1090.573, 1773.266
1091.055, 1773.035
1091.537, 1770.113
1092.019, 1767.237
1092.501, 1767.366
1092.984, 1770.839
1093.466, 1773.165
1093.948, 1774.289
1094.430, 1775.254
1094.912, 1777.440
1095.394, 1779.237
1095.876, 1778.881
1096.358, 1777.031
1096.841, 1775.755
1097.323, 1775.121
1097.805, 1775.207
1098.287, 1776.075
1098.769, 1777.489
1099.251, 1779.124
1099.733, 1781.152
1100.215, 1784.203
1100.698, 1788.296
1101.180, 1791.399
1101.662, 1792.831
1102.144, 1793.273
1102.626, 1792.330
1103.108, 1791.076
1103.590, 1792.492
1104.072, 1795.764
1104.554, 1798.437
1105.037, 1799.835
1105.519, 1800.597
1106.001, 1800.176
1106.483, 1800.029
1106.965, 1801.417
1107.447, 1804.148
1107.929, 1805.040
1108.411, 1804.231
1108.894, 1803.816
1109.376, 1805.389
1109.858, 1807.042
1110.340, 1807.263
1110.822, 1806.677
1111.304, 1806.109
1111.786, 1805.413
1112.268, 1805.578
1112.750, 1806.784
1113.233, 1807.676
1113.715, 1807.003
1114.197, 1805.555
1114.679, 1804.247
1115.161, 1803.004
1115.643, 1801.391
1116.125, 1798.727
1116.607, 1796.831
1117.089, 1795.899
1117.572, 1795.914
1118.054, 1797.653
1118.536, 1800.093
1119.018, 1800.661
1119.500, 1799.189
1119.982, 1798.494
1120.464, 1800.352
1120.946, 1802.417
1121.428, 1804.448
1121.911, 1805.768
1122.393, 1803.637
1122.875, 1799.155
1123.357, 1797.698
1123.839, 1801.188
1124.321, 1804.342
1124.803, 1803.171
1125.285, 1801.416
1125.768, 1801.673
1126.250, 1803.698
1126.732, 1804.772
1127.214, 1804.969
1127.696, 1806.126
1128.178, 1809.627
1128.660, 1813.294
1129.142, 1816.318
1129.625, 1817.908
1130.107, 1816.502
1130.589, 1810.975
1131.071, 1808.209
1131.553, 1808.381
1132.035, 1809.768
1132.517, 1812.086
1132.999, 1814.299
1133.481, 1814.717
1133.964, 1814.091
1134.446, 1814.205
1134.928, 1816.272
1135.410, 1817.093
1135.892, 1816.239
1136.374, 1814.927
1136.856, 1814.113
1137.338, 1813.810
1137.821, 1814.248
1138.303, 1815.322
1138.785, 1816.359
1139.267, 1816.643
1139.749, 1817.745
1140.231, 1820.345
1140.713, 1823.247
1141.195, 1824.759
1141.677, 1825.138
1142.160, 1824.810
1142.642, 1823.803
1143.124, 1823.502
1143.606, 1824.926
1144.088, 1826.822
1144.570, 1829.212
1145.052, 1831.338
1145.534, 1830.096
1146.016, 1826.347
1146.499, 1825.106
1146.981, 1827.965
1147.463, 1831.633
1147.945, 1835.412
1148.427, 1838.059
1148.909, 1838.433
1149.391, 1836.910
1149.873, 1836.750
1150.355, 1837.886
1150.838, 1838.542
1151.320, 1837.865
1151.802, 1836.909
1152.284, 1835.121
1152.766, 1834.403
1153.248, 1837.409
1153.730, 1844.795
1154.212, 1849.619
1154.695, 1851.775
1155.177, 1852.346
1155.659, 1850.906
1156.141, 1849.249
1156.623, 1848.791
1157.105, 1849.416
1157.587, 1851.184
1158.069, 1855.027
1158.552, 1856.755
1159.034, 1855.979
1159.516, 1854.901
1159.998, 1855.187
1160.480, 1856.224
1160.962, 1857.236
1161.444, 1858.345
1161.926, 1860.098
1162.408, 1863.425
1162.891, 1865.325
1163.373, 1865.184
1163.855, 1864.692
1164.337, 1865.789
1164.819, 1867.690
1165.301, 1869.131
1165.783, 1870.101
1166.265, 1871.263
1166.748, 1872.394
1167.230, 1874.530
1167.712, 1878.154
1168.194, 1882.334
1168.676, 1885.498
1169.158, 1888.339
1169.640, 1892.666
1170.122, 1898.718
1170.604, 1903.814
1171.087, 1905.101
1171.569, 1908.170
1172.051, 1915.286
1172.533, 1924.094
1173.015, 1929.343
1173.497, 1932.417
1173.979, 1937.313
1174.461, 1945.092
1174.943, 1953.175
1175.426, 1960.774
1175.908, 1968.264
1176.390, 1975.742
1176.872, 1983.317
1177.354, 1991.838
1177.836, 2000.864
1178.318, 2008.962
1178.800, 2015.421
1179.282, 2021.519
1179.765, 2027.558
1180.247, 2033.570
1180.729, 2039.522
1181.211, 2045.449
1181.693, 2052.465
1182.175, 2060.011
1182.657, 2065.293
1183.139, 2067.563
1183.622, 2066.774
1184.104, 2061.417
1184.586, 2054.159
1185.068, 2047.036
1185.550, 2040.024
1186.032, 2032.754
1186.514, 2025.032
1186.996, 2015.635
1187.479, 2002.005
1187.961, 1988.898
1188.443, 1978.854
1188.925, 1970.441
1189.407, 1962.337
1189.889, 1954.590
1190.371, 1945.145
1190.853, 1934.112
1191.335, 1925.349
1191.818, 1923.078
1192.300, 1921.632
1192.782, 1917.022
1193.264, 1911.631
1193.746, 1909.675
1194.228, 1911.415
1194.710, 1909.076
1195.192, 1902.254
1195.675, 1895.627
1196.157, 1892.408
1196.639, 1890.636
1197.121, 1889.811
1197.603, 1889.311
1198.085, 1887.848
1198.567, 1885.353
1199.049, 1883.515
1199.531, 1882.535
1200.014, 1881.557
1200.496, 1879.784
1200.978, 1877.903
1201.460, 1876.298
1201.942, 1874.989
1202.424, 1874.141
1202.906, 1873.799
1203.388, 1872.468
1203.870, 1869.684
1204.353, 1868.195
1204.835, 1871.764
1205.317, 1876.326
1205.799, 1879.042
1206.281, 1879.933
1206.763, 1878.881
1207.245, 1875.805
1207.727, 1872.844
1208.209, 1870.384
1208.692, 1868.682
1209.174, 1868.062
1209.656, 1868.241
1210.138, 1869.618
1210.620, 1871.715
1211.102, 1871.549
1211.584, 1869.028
1212.066, 1867.486
1212.549, 1867.882
1213.031, 1869.342
1213.513, 1871.831
1213.995, 1874.490
1214.477, 1876.898
1214.959, 1878.921
1215.441, 1879.141
1215.923, 1877.546
1216.406, 1875.582
1216.888, 1873.389
1217.370, 1872.116
1217.852, 1874.078
1218.334, 1876.455
1218.816, 1876.189
1219.298, 1873.469
1219.780, 1873.040
1220.262, 1874.877
1220.745, 1876.688
1221.227, 1877.503
1221.709, 1878.297
1222.191, 1880.596
1222.673, 1882.609
1223.155, 1881.986
1223.637, 1883.768
1224.119, 1885.394
1224.602, 1884.548
1225.084, 1888.155
1225.566, 1887.533
1226.048, 1886.379
1226.530, 1887.608
1227.012, 1889.354
1227.494, 1889.547
1227.976, 1888.187
1228.458, 1888.808
1228.941, 1891.166
1229.423, 1891.598
1229.905, 1886.043
1230.387, 1881.587
1230.869, 1883.867
1231.351, 1888.292
1231.833, 1890.293
1232.315, 1889.889
1232.797, 1890.805
1233.280, 1892.831
1233.762, 1894.187
1234.244, 1893.558
1234.726, 1892.515
1235.208, 1891.863
1235.690, 1891.159
1236.172, 1889.709
1236.654, 1887.614
1237.136, 1887.389
1237.619, 1888.828
1238.101, 1890.285
1238.583, 1891.785
1239.065, 1891.982
1239.547, 1888.634
1240.029, 1885.283
1240.511, 1885.385
1240.993, 1888.524
1241.476, 1891.786
1241.958, 1894.910
1242.440, 1896.772
1242.922, 1894.823
1243.404, 1894.214
1243.886, 1897.440
1244.368, 1901.172
1244.850, 1901.337
1245.333, 1899.147
1245.815, 1900.823
1246.297, 1905.652
1246.779, 1909.409
1247.261, 1909.580
1247.743, 1909.084
1248.225, 1908.177
1248.707, 1907.457
1249.189, 1907.721
1249.672, 1908.644
1250.154, 1909.584
1250.636, 1910.380
1251.118, 1910.340
1251.600, 1908.192
1252.082, 1906.808
1252.564, 1906.753
1253.046, 1907.081
1253.529, 1906.814
1254.011, 1906.227
1254.493, 1905.568
1254.975, 1905.017
1255.457, 1905.274
1255.939, 1907.174
1256.421, 1908.865
1256.903, 1910.390
1257.385, 1910.910
1257.868, 1908.399
1258.350, 1905.074
1258.832, 1904.226
1259.314, 1905.563
1259.796, 1907.350
1260.278, 1909.094
1260.760, 1912.249
1261.242, 1917.458
1261.724, 1921.572
1262.207, 1919.616
1262.689, 1916.557
1263.171, 1918.760
1263.653, 1924.674
1264.135, 1927.786
1264.617, 1927.047
1265.099, 1927.502
1265.581, 1929.681
1266.063, 1932.367
1266.546, 1935.060
1267.028, 1937.300
1267.510, 1938.586
1267.992, 1939.100
1268.474, 1939.052
1268.956, 1938.247
1269.438, 1939.864
1269.920, 1944.219
1270.403, 1948.464
1270.885, 1951.182
1271.367, 1952.326
1271.849, 1951.412
1272.331, 1949.092
1272.813, 1945.533
1273.295, 1940.954
1273.777, 1939.182
1274.260, 1940.376
1274.742, 1941.495
1275.224, 1940.711
1275.706, 1939.417
1276.188, 1938.061
1276.670, 1936.633
1277.152, 1935.083
1277.634, 1933.455
1278.116, 1931.975
1278.599, 1930.661
1279.081, 1929.519
1279.563, 1928.544
1280.045, 1927.867
1280.527, 1927.649
1281.009, 1927.532
1281.491, 1926.670
1281.973, 1925.730
1282.456, 1926.628
1282.938, 1929.040
1283.420, 1930.409
1283.902, 1929.041
1284.384, 1928.463
1284.866, 1929.209
1285.348, 1930.306
1285.830, 1929.978
1286.313, 1929.790
1286.795, 1933.026
1287.277, 1932.868
1287.759, 1933.410
1288.241, 1936.005
1288.723, 1934.822
1289.205, 1937.939
1289.687, 1941.555
1290.169, 1942.469
1290.651, 1942.289
1291.134, 1942.254
1291.616, 1942.321
1292.098, 1942.150
1292.580, 1941.697
1293.062, 1941.647
1293.544, 1942.060
1294.026, 1942.668
1294.508, 1943.791
1294.990, 1944.542
1295.473, 1943.563
1295.955, 1942.449
1296.437, 1943.816
1296.919, 1947.266
1297.401, 1949.245
1297.883, 1949.657
1298.365, 1949.747
1298.847, 1949.656
1299.330, 1950.172
1299.812, 1951.696
1300.294, 1953.313
1300.776, 1953.948
1301.258, 1954.070
1301.740, 1955.152
1302.222, 1957.004
1302.704, 1958.565
1303.187, 1958.818
1303.669, 1959.224
1304.151, 1959.715
##END=



