##NAMES=Corkite
##RRUFFID=R050522
##IDEAL CHEMISTRY=Pb^2+^Fe^3+^_3_(S^6+^O_4_)(PO_4_)(OH)_6_
##LOCALITY=near Dernbach, Nassau, Germany
##OWNER=RRUFF
##SOURCE=University of Arizona Mineral Museum
##DESCRIPTION=Black pseudo-cubo-octahedral single crystals, associated with reniform goethite balls
##STATUS=The identification of this mineral is confirmed by single-crystal X-ray diffraction and chemical analysis.
##URL=rruff.info/R050522
##MEASURED CHEMISTRY=Pb_1.00_(Fe^3+^_2.80_Fe^2+^_0.15_Al_0.05_)_Σ=3_[(S_0.58_P_0.42_)_Σ=1_O_4_]_2_(OH)_6_
153.0743, 3085.284
153.5564, 3092.841
154.0385, 3103.948
154.5206, 3111.362
155.0028, 3112.022
155.4849, 3108.587
155.9670, 3105.544
156.4491, 3099.161
156.9312, 3096.811
157.4133, 3102.364
157.8955, 3120.847
158.3776, 3139.708
158.8597, 3160.917
159.3418, 3181.312
159.8239, 3190.455
160.3060, 3179.336
160.7882, 3158.852
161.2703, 3136.458
161.7524, 3110.372
162.2345, 3086.299
162.7166, 3070.001
163.1987, 3060.137
163.6808, 3044.566
164.1630, 3010.303
164.6451, 2969.590
165.1272, 2935.588
165.6093, 2920.009
166.0914, 2907.627
166.5735, 2888.392
167.0557, 2861.533
167.5378, 2834.245
168.0199, 2807.005
168.5020, 2782.914
168.9841, 2767.420
169.4662, 2768.308
169.9484, 2776.260
170.4305, 2783.110
170.9126, 2787.894
171.3947, 2792.054
171.8768, 2796.029
172.3589, 2800.192
172.8411, 2805.452
173.3232, 2809.689
173.8053, 2816.138
174.2874, 2830.063
174.7695, 2854.543
175.2516, 2882.430
175.7338, 2904.528
176.2159, 2922.036
176.6980, 2942.495
177.1801, 2972.662
177.6622, 3009.755
178.1443, 3046.958
178.6264, 3079.627
179.1086, 3114.659
179.5907, 3166.037
180.0728, 3233.382
180.5549, 3300.733
181.0370, 3350.787
181.5191, 3388.800
182.0013, 3433.199
182.4834, 3491.552
182.9655, 3560.077
183.4476, 3632.387
183.9297, 3708.221
184.4118, 3787.347
184.8940, 3868.833
185.3761, 3953.547
185.8582, 4041.817
186.3403, 4133.733
186.8224, 4229.728
187.3046, 4335.168
187.7867, 4453.758
188.2688, 4573.986
188.7509, 4675.003
189.2330, 4757.603
189.7151, 4845.410
190.1973, 4957.292
190.6794, 5089.215
191.1615, 5210.436
191.6436, 5317.199
192.1257, 5417.340
192.6078, 5525.163
193.0900, 5642.482
193.5721, 5762.607
194.0542, 5881.576
194.5363, 5998.944
195.0184, 6119.430
195.5005, 6246.179
195.9826, 6373.684
196.4648, 6484.421
196.9469, 6575.362
197.4290, 6659.233
197.9111, 6750.184
198.3932, 6849.428
198.8753, 6932.611
199.3575, 6992.878
199.8396, 7033.388
200.3217, 7071.243
200.8038, 7107.249
201.2859, 7137.181
201.7680, 7157.552
202.2502, 7168.788
202.7323, 7168.619
203.2144, 7155.167
203.6965, 7128.855
204.1786, 7097.929
204.6607, 7063.218
205.1429, 7023.013
205.6250, 6973.863
206.1071, 6914.333
206.5892, 6853.463
207.0713, 6793.169
207.5534, 6733.249
208.0356, 6678.647
208.5177, 6633.942
208.9998, 6589.019
209.4819, 6526.381
209.9640, 6442.011
210.4461, 6350.750
210.9282, 6257.381
211.4104, 6160.093
211.8925, 6067.788
212.3746, 5982.574
212.8567, 5900.603
213.3388, 5811.210
213.8209, 5707.457
214.3031, 5610.545
214.7852, 5531.481
215.2673, 5477.246
215.7494, 5421.210
216.2315, 5363.587
216.7136, 5303.473
217.1958, 5235.792
217.6779, 5152.992
218.1600, 5075.096
218.6421, 5014.753
219.1242, 4982.631
219.6063, 4938.856
220.0885, 4875.480
220.5706, 4798.196
221.0527, 4732.520
221.5348, 4685.121
222.0169, 4638.634
222.4990, 4579.059
222.9812, 4496.308
223.4633, 4425.914
223.9454, 4377.580
224.4275, 4347.000
224.9096, 4302.752
225.3917, 4234.628
225.8739, 4164.594
226.3560, 4110.073
226.8381, 4077.965
227.3202, 4046.301
227.8023, 4012.874
228.2844, 3977.880
228.7665, 3937.723
229.2487, 3891.923
229.7308, 3842.576
230.2129, 3790.380
230.6950, 3732.722
231.1771, 3677.788
231.6592, 3624.688
232.1414, 3573.281
232.6235, 3534.478
233.1056, 3516.280
233.5877, 3503.666
234.0698, 3480.095
234.5519, 3436.523
235.0341, 3398.325
235.5162, 3370.916
235.9983, 3355.354
236.4804, 3343.672
236.9625, 3339.776
237.4446, 3336.692
237.9268, 3325.347
238.4089, 3299.897
238.8910, 3275.697
239.3731, 3256.217
239.8552, 3241.636
240.3373, 3231.278
240.8195, 3227.933
241.3016, 3226.952
241.7837, 3221.422
242.2658, 3208.706
242.7479, 3195.825
243.2300, 3184.883
243.7121, 3176.474
244.1943, 3167.641
244.6764, 3158.633
245.1585, 3149.070
245.6406, 3137.964
246.1227, 3124.209
246.6048, 3110.675
247.0870, 3097.516
247.5691, 3082.981
248.0512, 3075.136
248.5333, 3077.432
249.0154, 3084.709
249.4975, 3087.122
249.9797, 3082.370
250.4618, 3076.672
250.9439, 3072.427
251.4260, 3070.540
251.9081, 3067.152
252.3902, 3060.612
252.8724, 3053.260
253.3545, 3051.453
253.8366, 3060.375
254.3187, 3065.745
254.8008, 3060.380
255.2829, 3038.146
255.7651, 3021.637
256.2472, 3010.930
256.7293, 3005.777
257.2114, 3006.303
257.6935, 3014.718
258.1756, 3024.725
258.6577, 3033.954
259.1399, 3043.420
259.6220, 3049.004
260.1041, 3048.928
260.5862, 3045.661
261.0683, 3045.661
261.5504, 3049.245
262.0326, 3055.431
262.5147, 3066.081
262.9968, 3085.983
263.4789, 3092.878
263.9610, 3081.290
264.4431, 3058.168
264.9253, 3042.284
265.4074, 3033.437
265.8895, 3032.274
266.3716, 3042.539
266.8537, 3069.916
267.3358, 3084.618
267.8180, 3080.781
268.3001, 3065.743
268.7822, 3060.765
269.2643, 3069.739
269.7464, 3078.970
270.2285, 3080.847
270.7107, 3074.080
271.1928, 3065.681
271.6749, 3054.162
272.1570, 3042.453
272.6391, 3040.747
273.1212, 3051.970
273.6034, 3063.661
274.0855, 3067.844
274.5676, 3063.394
275.0497, 3060.507
275.5318, 3060.275
276.0139, 3061.812
276.4961, 3061.974
276.9782, 3059.811
277.4603, 3060.368
277.9424, 3068.636
278.4245, 3085.234
278.9066, 3097.093
279.3888, 3101.490
279.8709, 3102.158
280.3530, 3109.008
280.8351, 3123.015
281.3172, 3136.990
281.7993, 3145.929
282.2815, 3149.979
282.7636, 3154.608
283.2457, 3161.283
283.7278, 3167.587
284.2099, 3165.838
284.6920, 3155.194
285.1741, 3147.362
285.6563, 3151.096
286.1384, 3165.406
286.6205, 3180.608
287.1026, 3196.727
287.5847, 3211.817
288.0668, 3218.974
288.5490, 3218.222
289.0311, 3222.589
289.5132, 3244.969
289.9953, 3280.843
290.4774, 3309.805
290.9595, 3328.623
291.4417, 3342.053
291.9238, 3357.919
292.4059, 3375.808
292.8880, 3392.383
293.3701, 3401.613
293.8522, 3407.438
294.3344, 3423.382
294.8165, 3452.702
295.2986, 3487.958
295.7807, 3519.321
296.2628, 3547.273
296.7449, 3573.881
297.2271, 3601.281
297.7092, 3627.827
298.1913, 3649.142
298.6734, 3662.976
299.1555, 3676.724
299.6376, 3700.185
300.1198, 3731.325
300.6019, 3762.438
301.0840, 3784.167
301.5661, 3804.309
302.0482, 3838.094
302.5303, 3891.005
303.0125, 3942.415
303.4946, 3967.396
303.9767, 3974.177
304.4588, 3985.859
304.9409, 4021.691
305.4230, 4065.376
305.9052, 4098.979
306.3873, 4119.086
306.8694, 4136.430
307.3515, 4157.885
307.8336, 4182.575
308.3157, 4209.161
308.7979, 4233.006
309.2800, 4260.592
309.7621, 4301.299
310.2442, 4358.449
310.7263, 4410.320
311.2084, 4434.958
311.6906, 4446.833
312.1727, 4469.377
312.6548, 4525.074
313.1369, 4585.663
313.6190, 4629.279
314.1011, 4652.600
314.5833, 4680.217
315.0654, 4726.515
315.5475, 4783.227
316.0296, 4839.306
316.5117, 4895.467
316.9938, 4946.370
317.4759, 4986.537
317.9580, 5014.473
318.4402, 5046.938
318.9223, 5089.360
319.4044, 5139.053
319.8865, 5192.817
320.3686, 5251.073
320.8507, 5312.166
321.3329, 5375.721
321.8150, 5441.173
322.2971, 5509.809
322.7792, 5593.479
323.2613, 5674.578
323.7434, 5738.704
324.2256, 5751.003
324.7077, 5780.894
325.1898, 5852.347
325.6719, 5963.849
326.1540, 6055.983
326.6361, 6112.491
327.1183, 6156.682
327.6004, 6203.566
328.0825, 6250.672
328.5646, 6303.767
329.0467, 6362.588
329.5288, 6427.695
330.0110, 6499.792
330.4931, 6591.906
330.9752, 6679.400
331.4573, 6745.596
331.9394, 6772.345
332.4215, 6812.061
332.9037, 6872.221
333.3858, 6947.704
333.8679, 7020.708
334.3500, 7095.633
334.8321, 7162.046
335.3142, 7211.679
335.7964, 7234.697
336.2785, 7273.485
336.7606, 7337.363
337.2427, 7413.912
337.7248, 7468.772
338.2069, 7495.833
338.6891, 7519.775
339.1712, 7553.704
339.6533, 7598.903
340.1354, 7640.449
340.6175, 7679.354
341.0996, 7711.931
341.5818, 7728.580
342.0639, 7727.991
342.5460, 7725.059
343.0281, 7723.773
343.5102, 7724.629
343.9923, 7735.632
344.4745, 7759.057
344.9566, 7784.560
345.4387, 7802.668
345.9208, 7812.472
346.4029, 7806.245
346.8850, 7770.279
347.3672, 7716.585
347.8493, 7681.860
348.3314, 7667.061
348.8135, 7660.495
349.2956, 7656.675
349.7777, 7652.647
350.2598, 7639.201
350.7419, 7610.581
351.2241, 7572.250
351.7062, 7531.629
352.1883, 7488.834
352.6704, 7442.357
353.1525, 7386.815
353.6346, 7328.228
354.1168, 7276.052
354.5989, 7239.212
355.0810, 7202.523
355.5631, 7149.391
356.0452, 7083.230
356.5273, 7020.573
357.0095, 6980.099
357.4916, 6943.617
357.9737, 6893.336
358.4558, 6820.782
358.9379, 6741.433
359.4200, 6661.023
359.9022, 6579.941
360.3843, 6499.213
360.8664, 6417.768
361.3485, 6337.505
361.8306, 6260.394
362.3127, 6186.391
362.7949, 6114.914
363.2770, 6049.128
363.7591, 5985.300
364.2412, 5917.155
364.7233, 5841.430
365.2054, 5762.476
365.6876, 5680.945
366.1697, 5594.147
366.6518, 5513.437
367.1339, 5446.427
367.6160, 5384.275
368.0981, 5317.230
368.5803, 5242.084
369.0624, 5165.111
369.5445, 5089.687
370.0266, 5016.873
370.5087, 4932.582
370.9908, 4820.697
371.4730, 4711.773
371.9551, 4631.311
372.4372, 4591.151
372.9193, 4555.589
373.4014, 4523.714
373.8835, 4493.554
374.3657, 4451.241
374.8478, 4395.427
375.3299, 4331.034
375.8120, 4255.998
376.2941, 4164.483
376.7762, 4100.031
377.2584, 4077.703
377.7405, 4075.225
378.2226, 4034.172
378.7047, 3949.683
379.1868, 3865.128
379.6689, 3803.179
380.1511, 3762.699
380.6332, 3730.209
381.1153, 3706.885
381.5974, 3686.524
382.0795, 3662.223
382.5616, 3633.779
383.0438, 3601.962
383.5258, 3562.338
384.0080, 3520.112
384.4901, 3486.850
384.9722, 3462.628
385.4543, 3443.348
385.9364, 3425.504
386.4185, 3409.230
386.9007, 3394.596
387.3828, 3378.911
387.8649, 3366.710
388.3470, 3365.174
388.8291, 3373.094
389.3112, 3380.120
389.7934, 3377.613
390.2755, 3371.430
390.7576, 3367.757
391.2397, 3369.798
391.7218, 3372.395
392.2039, 3370.080
392.6861, 3365.603
393.1682, 3367.492
393.6503, 3386.611
394.1324, 3407.687
394.6145, 3420.991
395.0966, 3419.784
395.5788, 3423.027
396.0609, 3436.652
396.5430, 3457.041
397.0251, 3478.101
397.5072, 3497.120
397.9893, 3518.488
398.4715, 3544.897
398.9536, 3578.293
399.4357, 3606.923
399.9178, 3618.429
400.3999, 3633.033
400.8820, 3672.581
401.3642, 3757.345
401.8463, 3832.317
402.3284, 3887.170
402.8105, 3923.428
403.2926, 3956.693
403.7747, 3981.137
404.2569, 4013.304
404.7390, 4070.059
405.2211, 4158.720
405.7032, 4232.598
406.1853, 4281.849
406.6674, 4320.182
407.1496, 4382.318
407.6317, 4470.432
408.1138, 4564.198
408.5959, 4654.274
409.0780, 4741.188
409.5602, 4829.090
410.0423, 4916.740
410.5244, 5004.455
411.0065, 5090.171
411.4886, 5175.283
411.9707, 5263.686
412.4529, 5358.067
412.9350, 5458.063
413.4171, 5564.553
413.8992, 5678.622
414.3813, 5784.329
414.8634, 5857.754
415.3456, 5919.001
415.8277, 5997.755
416.3098, 6117.473
416.7919, 6241.519
417.2740, 6346.672
417.7561, 6434.165
418.2382, 6517.538
418.7203, 6604.496
419.2025, 6687.777
419.6846, 6761.115
420.1667, 6823.136
420.6488, 6877.653
421.1309, 6915.713
421.6130, 6948.438
422.0952, 6997.232
422.5773, 7079.007
423.0594, 7164.779
423.5415, 7250.726
424.0236, 7339.701
424.5057, 7408.847
424.9879, 7434.310
425.4700, 7453.906
425.9521, 7504.826
426.4342, 7612.508
426.9163, 7706.971
427.3984, 7776.138
427.8806, 7823.375
428.3627, 7865.035
428.8448, 7895.087
429.3269, 7932.284
429.8090, 7996.858
430.2911, 8095.740
430.7733, 8162.670
431.2554, 8185.816
431.7375, 8185.956
432.2196, 8204.456
432.7017, 8241.854
433.1838, 8270.702
433.6660, 8281.656
434.1481, 8273.889
434.6302, 8238.893
435.1123, 8174.650
435.5944, 8101.287
436.0765, 8038.633
436.5587, 7982.884
437.0408, 7925.006
437.5229, 7870.225
438.0050, 7804.815
438.4871, 7706.658
438.9692, 7580.923
439.4514, 7456.195
439.9335, 7350.633
440.4156, 7254.073
440.8977, 7157.138
441.3798, 7059.629
441.8619, 6960.180
442.3441, 6861.699
442.8262, 6760.672
443.3083, 6650.096
443.7904, 6510.749
444.2725, 6377.968
444.7546, 6268.522
445.2368, 6188.925
445.7189, 6105.365
446.2010, 6014.797
446.6831, 5919.147
447.1652, 5820.253
447.6473, 5711.983
448.1295, 5609.018
448.6116, 5516.346
449.0937, 5430.988
449.5758, 5340.619
450.0579, 5242.467
450.5400, 5145.215
451.0221, 5055.357
451.5042, 4976.243
451.9864, 4888.042
452.4685, 4786.508
452.9506, 4680.882
453.4327, 4584.192
453.9148, 4496.792
454.3969, 4417.761
454.8791, 4355.569
455.3612, 4301.326
455.8433, 4222.052
456.3254, 4117.445
456.8075, 4010.191
457.2896, 3923.562
457.7718, 3850.976
458.2539, 3781.687
458.7360, 3713.135
459.2181, 3645.156
459.7002, 3577.225
460.1823, 3509.122
460.6645, 3442.243
461.1466, 3374.170
461.6287, 3309.523
462.1108, 3252.962
462.5929, 3205.747
463.0750, 3160.249
463.5572, 3112.590
464.0393, 3064.986
464.5214, 3020.532
465.0035, 2982.579
465.4856, 2945.683
465.9677, 2908.853
466.4499, 2872.128
466.9320, 2836.726
467.4141, 2803.895
467.8962, 2770.911
468.3783, 2735.549
468.8604, 2692.816
469.3426, 2658.885
469.8247, 2637.068
470.3068, 2621.500
470.7889, 2599.236
471.2710, 2567.573
471.7531, 2539.678
472.2353, 2523.436
472.7174, 2516.814
473.1995, 2497.016
473.6816, 2461.943
474.1637, 2426.327
474.6458, 2405.930
475.1280, 2398.411
475.6101, 2393.100
476.0922, 2388.703
476.5743, 2383.669
477.0564, 2375.230
477.5385, 2363.949
478.0207, 2352.600
478.5028, 2343.642
478.9849, 2334.883
479.4670, 2323.377
479.9491, 2308.382
480.4312, 2294.226
480.9134, 2282.928
481.3955, 2274.238
481.8776, 2267.911
482.3597, 2271.193
482.8418, 2269.528
483.3239, 2254.246
483.8060, 2227.643
484.2881, 2206.888
484.7703, 2194.295
485.2524, 2189.077
485.7345, 2192.097
486.2166, 2212.472
486.6987, 2221.474
487.1808, 2211.819
487.6630, 2195.552
488.1451, 2193.447
488.6272, 2212.771
489.1093, 2225.295
489.5914, 2219.600
490.0735, 2199.448
490.5557, 2195.010
491.0378, 2208.733
491.5199, 2225.052
492.0020, 2232.707
492.4841, 2232.180
492.9662, 2225.083
493.4484, 2209.319
493.9305, 2193.331
494.4126, 2189.452
494.8947, 2195.464
495.3768, 2203.919
495.8589, 2214.072
496.3411, 2223.124
496.8232, 2226.301
497.3053, 2223.675
497.7874, 2223.691
498.2695, 2235.577
498.7516, 2250.404
499.2338, 2259.720
499.7159, 2256.360
500.1980, 2253.903
500.6801, 2257.398
501.1622, 2264.704
501.6443, 2270.507
502.1265, 2274.149
502.6086, 2275.980
503.0907, 2275.181
503.5728, 2270.660
504.0549, 2269.634
504.5370, 2270.724
505.0192, 2276.856
505.5013, 2294.289
505.9834, 2329.189
506.4655, 2348.427
506.9476, 2341.977
507.4297, 2321.301
507.9119, 2316.898
508.3940, 2329.383
508.8761, 2347.424
509.3582, 2366.699
509.8403, 2386.739
510.3224, 2407.389
510.8046, 2429.046
511.2867, 2446.648
511.7688, 2450.604
512.2509, 2447.796
512.7330, 2451.592
513.2151, 2470.271
513.6973, 2491.879
514.1794, 2508.164
514.6615, 2520.147
515.1436, 2531.131
515.6257, 2540.933
516.1078, 2551.470
516.5900, 2563.383
517.0721, 2576.646
517.5542, 2592.156
518.0363, 2610.908
518.5184, 2631.587
519.0005, 2653.016
519.4827, 2677.350
519.9648, 2698.906
520.4469, 2713.953
520.9290, 2725.691
521.4111, 2747.583
521.8932, 2783.871
522.3754, 2818.757
522.8575, 2844.701
523.3396, 2861.842
523.8217, 2869.476
524.3038, 2864.576
524.7859, 2862.358
525.2681, 2884.833
525.7502, 2926.339
526.2323, 2961.646
526.7144, 2980.680
527.1965, 2994.722
527.6786, 3018.397
528.1608, 3049.679
528.6429, 3081.508
529.1250, 3114.338
529.6071, 3142.812
530.0892, 3158.952
530.5714, 3159.771
531.0535, 3165.817
531.5355, 3190.912
532.0176, 3222.870
532.4998, 3249.570
532.9819, 3267.634
533.4640, 3282.001
533.9461, 3291.947
534.4282, 3298.625
534.9103, 3305.203
535.3925, 3307.240
535.8746, 3316.434
536.3567, 3340.452
536.8388, 3381.253
537.3209, 3411.877
537.8030, 3431.710
538.2852, 3442.307
538.7673, 3442.644
539.2494, 3433.369
539.7315, 3424.465
540.2136, 3417.398
540.6957, 3412.548
541.1779, 3411.061
541.6600, 3412.518
542.1421, 3415.177
542.6242, 3422.956
543.1063, 3428.650
543.5884, 3420.661
544.0706, 3398.357
544.5527, 3381.293
545.0348, 3389.118
545.5169, 3402.767
545.9990, 3404.720
546.4811, 3380.052
546.9633, 3358.542
547.4454, 3349.240
547.9275, 3347.377
548.4096, 3341.565
548.8917, 3331.837
549.3738, 3317.555
549.8560, 3296.167
550.3381, 3267.619
550.8202, 3248.052
551.3023, 3240.555
551.7844, 3234.985
552.2665, 3221.429
552.7487, 3199.943
553.2308, 3186.469
553.7129, 3183.855
554.1950, 3186.342
554.6771, 3187.041
555.1592, 3185.863
555.6414, 3182.518
556.1235, 3178.955
556.6056, 3171.816
557.0877, 3151.497
557.5698, 3121.053
558.0519, 3099.856
558.5341, 3106.697
559.0162, 3122.520
559.4983, 3131.185
559.9804, 3126.124
560.4625, 3127.282
560.9446, 3151.240
561.4268, 3179.877
561.9089, 3190.739
562.3910, 3161.321
562.8731, 3143.259
563.3552, 3147.989
563.8373, 3169.450
564.3195, 3182.645
564.8016, 3188.188
565.2837, 3183.418
565.7658, 3161.790
566.2479, 3124.029
566.7300, 3101.385
567.2122, 3096.335
567.6943, 3093.803
568.1764, 3076.386
568.6585, 3048.550
569.1406, 3024.609
569.6227, 3009.454
570.1049, 2996.011
570.5870, 2977.674
571.0691, 2955.520
571.5512, 2931.365
572.0333, 2905.314
572.5154, 2878.396
572.9976, 2851.631
573.4797, 2824.830
573.9618, 2797.274
574.4439, 2770.242
574.9260, 2740.902
575.4081, 2707.034
575.8903, 2659.287
576.3724, 2624.207
576.8545, 2606.773
577.3366, 2597.989
577.8187, 2584.155
578.3008, 2563.740
578.7830, 2545.760
579.2651, 2533.811
579.7472, 2525.177
580.2293, 2511.523
580.7114, 2493.008
581.1935, 2472.066
581.6757, 2447.137
582.1578, 2421.906
582.6399, 2404.302
583.1220, 2395.499
583.6041, 2387.619
584.0862, 2375.973
584.5684, 2361.594
585.0505, 2345.628
585.5326, 2327.440
586.0147, 2309.016
586.4968, 2289.849
586.9789, 2271.024
587.4611, 2254.597
587.9432, 2237.668
588.4253, 2226.920
588.9074, 2227.123
589.3895, 2238.027
589.8716, 2239.375
590.3538, 2229.140
590.8359, 2213.602
591.3180, 2193.606
591.8001, 2169.136
592.2822, 2156.789
592.7643, 2160.010
593.2465, 2166.616
593.7286, 2160.334
594.2107, 2144.128
594.6928, 2128.333
595.1749, 2114.076
595.6570, 2103.998
596.1392, 2102.962
596.6213, 2108.792
597.1034, 2114.254
597.5854, 2117.129
598.0676, 2117.746
598.5497, 2116.599
599.0318, 2113.892
599.5139, 2107.654
599.9960, 2095.265
600.4781, 2080.762
600.9603, 2066.232
601.4424, 2048.224
601.9245, 2037.422
602.4066, 2034.154
602.8887, 2038.336
603.3708, 2054.964
603.8530, 2085.660
604.3351, 2103.378
604.8172, 2094.882
605.2993, 2071.906
605.7814, 2059.208
606.2635, 2056.515
606.7457, 2061.697
607.2278, 2080.556
607.7099, 2102.895
608.1920, 2114.607
608.6741, 2113.978
609.1563, 2115.925
609.6384, 2132.522
610.1205, 2153.280
610.6026, 2168.895
611.0847, 2174.982
611.5668, 2179.667
612.0490, 2179.693
612.5311, 2180.178
613.0132, 2190.678
613.4953, 2218.894
613.9774, 2241.083
614.4595, 2249.253
614.9417, 2247.108
615.4238, 2253.783
615.9059, 2270.462
616.3880, 2284.399
616.8701, 2283.101
617.3522, 2272.991
617.8344, 2276.525
618.3165, 2295.248
618.7986, 2311.559
619.2807, 2308.307
619.7628, 2294.187
620.2449, 2280.900
620.7271, 2274.196
621.2092, 2263.140
621.6913, 2240.016
622.1734, 2209.944
622.6555, 2181.519
623.1376, 2163.079
623.6198, 2138.422
624.1019, 2101.381
624.5840, 2054.646
625.0661, 2015.098
625.5482, 1984.659
626.0303, 1956.674
626.5125, 1927.531
626.9946, 1897.367
627.4767, 1870.084
627.9588, 1846.146
628.4409, 1821.552
628.9230, 1788.734
629.4052, 1752.814
629.8873, 1726.306
630.3694, 1714.824
630.8515, 1703.492
631.3336, 1675.127
631.8157, 1639.812
632.2979, 1613.716
632.7800, 1614.513
633.2621, 1612.810
633.7442, 1594.681
634.2263, 1564.240
634.7084, 1543.267
635.1906, 1538.938
635.6727, 1535.419
636.1548, 1527.321
636.6369, 1514.530
637.1190, 1499.703
637.6011, 1481.689
638.0833, 1466.758
638.5654, 1463.812
639.0475, 1469.769
639.5296, 1467.062
640.0117, 1452.162
640.4938, 1435.968
640.9760, 1430.725
641.4581, 1432.185
641.9402, 1432.583
642.4223, 1429.573
642.9044, 1424.480
643.3865, 1415.427
643.8687, 1404.750
644.3508, 1398.120
644.8329, 1399.262
645.3150, 1402.467
645.7971, 1409.318
646.2792, 1419.326
646.7614, 1414.611
647.2435, 1388.111
647.7256, 1361.516
648.2077, 1347.188
648.6898, 1344.955
649.1719, 1351.385
649.6541, 1368.116
650.1362, 1383.351
650.6183, 1382.055
651.1004, 1370.138
651.5825, 1361.071
652.0646, 1358.681
652.5468, 1358.125
653.0289, 1358.229
653.5110, 1357.167
653.9931, 1351.920
654.4752, 1333.952
654.9573, 1319.615
655.4395, 1315.728
655.9216, 1320.434
656.4037, 1323.282
656.8858, 1325.251
657.3679, 1323.542
657.8500, 1314.760
658.3322, 1299.440
658.8143, 1295.089
659.2964, 1303.365
659.7785, 1312.698
660.2606, 1312.925
660.7427, 1306.724
661.2249, 1302.281
661.7070, 1300.614
662.1891, 1298.940
662.6712, 1292.997
663.1533, 1286.126
663.6354, 1283.175
664.1175, 1290.942
664.5996, 1295.157
665.0817, 1284.452
665.5638, 1267.791
666.0460, 1264.056
666.5281, 1288.954
667.0102, 1304.295
667.4923, 1298.687
667.9744, 1277.357
668.4565, 1267.353
668.9387, 1270.555
669.4208, 1274.239
669.9029, 1270.729
670.3850, 1262.274
670.8671, 1256.821
671.3492, 1254.371
671.8314, 1254.143
672.3135, 1257.862
672.7956, 1262.295
673.2777, 1263.405
673.7598, 1259.897
674.2419, 1255.885
674.7241, 1253.357
675.2062, 1251.073
675.6883, 1247.702
676.1704, 1240.758
676.6525, 1236.081
677.1346, 1234.343
677.6168, 1234.675
678.0989, 1235.996
678.5810, 1238.751
679.0631, 1240.044
679.5452, 1239.185
680.0273, 1236.236
680.5095, 1229.358
680.9916, 1219.491
681.4737, 1213.414
681.9558, 1220.219
682.4379, 1229.351
682.9200, 1227.641
683.4022, 1215.608
683.8843, 1207.471
684.3664, 1213.783
684.8485, 1222.440
685.3306, 1226.025
685.8127, 1221.828
686.2949, 1218.515
686.7770, 1217.263
687.2591, 1215.542
687.7412, 1210.672
688.2233, 1201.985
688.7054, 1194.451
689.1876, 1187.969
689.6697, 1184.257
690.1518, 1187.486
690.6339, 1195.937
691.1160, 1204.147
691.5981, 1212.987
692.0803, 1217.025
692.5624, 1206.496
693.0445, 1187.480
693.5266, 1173.855
694.0087, 1174.545
694.4908, 1177.510
694.9730, 1178.911
695.4551, 1178.715
695.9372, 1178.336
696.4193, 1178.633
696.9014, 1177.183
697.3835, 1171.728
697.8657, 1162.553
698.3478, 1159.164
698.8299, 1162.059
699.3120, 1166.647
699.7941, 1171.649
700.2762, 1175.141
700.7584, 1170.481
701.2405, 1155.805
701.7226, 1144.307
702.2047, 1150.012
702.6868, 1162.128
703.1689, 1169.130
703.6511, 1165.899
704.1332, 1162.017
704.6153, 1157.977
705.0974, 1154.731
705.5795, 1153.768
706.0616, 1156.377
706.5438, 1157.970
707.0259, 1157.724
707.5080, 1156.203
707.9901, 1155.245
708.4722, 1154.647
708.9543, 1151.506
709.4365, 1142.826
709.9186, 1132.313
710.4007, 1123.811
710.8828, 1117.785
711.3649, 1115.934
711.8470, 1126.397
712.3292, 1135.081
712.8113, 1131.788
713.2934, 1115.436
713.7755, 1104.642
714.2576, 1101.928
714.7397, 1103.826
715.2219, 1110.549
715.7040, 1123.449
716.1861, 1127.932
716.6682, 1122.594
717.1503, 1114.224
717.6324, 1106.788
718.1146, 1101.345
718.5967, 1103.086
719.0788, 1114.157
719.5609, 1123.656
720.0430, 1120.104
720.5251, 1110.091
721.0073, 1101.507
721.4894, 1094.515
721.9715, 1092.268
722.4536, 1101.336
722.9357, 1113.832
723.4178, 1117.007
723.9000, 1105.096
724.3821, 1097.219
724.8642, 1099.039
725.3463, 1104.878
725.8284, 1098.016
726.3105, 1079.232
726.7927, 1065.392
727.2748, 1066.545
727.7569, 1074.321
728.2390, 1076.925
728.7211, 1075.451
729.2032, 1074.310
729.6853, 1076.187
730.1674, 1078.674
730.6495, 1081.108
731.1317, 1083.437
731.6138, 1083.340
732.0959, 1080.334
732.5780, 1075.457
733.0601, 1068.483
733.5422, 1059.118
734.0244, 1052.412
734.5065, 1048.546
734.9886, 1045.849
735.4707, 1042.117
735.9528, 1038.472
736.4349, 1038.714
736.9171, 1043.697
737.3992, 1048.212
737.8813, 1047.771
738.3634, 1044.938
738.8455, 1042.032
739.3276, 1037.390
739.8098, 1036.849
740.2919, 1046.849
740.7740, 1058.421
741.2561, 1061.543
741.7382, 1053.369
742.2203, 1045.779
742.7025, 1039.801
743.1846, 1035.832
743.6667, 1036.288
744.1488, 1040.086
744.6309, 1041.151
745.1130, 1036.516
745.5952, 1029.605
746.0773, 1022.364
746.5594, 1015.524
747.0415, 1010.890
747.5236, 1005.607
748.0057, 1006.241
748.4879, 1020.950
748.9700, 1045.132
749.4521, 1056.542
749.9342, 1051.100
750.4163, 1041.531
750.8984, 1030.147
751.3806, 1018.449
751.8627, 1014.584
752.3448, 1018.445
752.8269, 1023.384
753.3090, 1025.368
753.7911, 1025.719
754.2733, 1026.055
754.7554, 1026.412
755.2375, 1026.263
755.7196, 1024.305
756.2017, 1022.583
756.6838, 1023.015
757.1660, 1026.864
757.6481, 1026.994
758.1302, 1022.155
758.6123, 1015.461
759.0944, 1006.865
759.5765, 996.2813
760.0587, 997.6030
760.5408, 1013.462
761.0229, 1027.506
761.5050, 1019.682
761.9871, 1000.209
762.4692, 986.7606
762.9514, 983.2737
763.4335, 983.0450
763.9156, 982.6807
764.3977, 983.6388
764.8798, 987.4732
765.3619, 1002.554
765.8441, 1007.758
766.3262, 996.8326
766.8083, 982.0069
767.2904, 981.3569
767.7725, 995.5948
768.2546, 1008.128
768.7368, 1016.753
769.2189, 1019.748
769.7010, 1010.353
770.1831, 993.5219
770.6652, 980.6525
771.1473, 975.8663
771.6295, 976.2532
772.1116, 983.9474
772.5937, 995.3265
773.0758, 1002.769
773.5579, 1005.317
774.0400, 1003.333
774.5222, 993.7050
775.0043, 980.8511
775.4864, 980.5471
775.9685, 994.0616
776.4506, 1001.177
776.9327, 989.3474
777.4149, 970.9813
777.8970, 968.9727
778.3791, 979.6271
778.8612, 989.4450
779.3433, 991.6965
779.8254, 990.8727
780.3076, 987.9824
780.7897, 983.6208
781.2718, 981.9474
781.7539, 985.8612
782.2360, 988.6580
782.7181, 987.6174
783.2003, 983.2808
783.6824, 980.1087
784.1645, 978.0770
784.6466, 977.6630
785.1287, 982.1321
785.6108, 987.2366
786.0930, 983.0737
786.5751, 970.5339
787.0572, 961.8284
787.5393, 966.3114
788.0214, 974.8519
788.5035, 982.7132
788.9857, 989.6444
789.4678, 994.2108
789.9499, 996.6921
790.4320, 996.4760
790.9141, 991.4670
791.3962, 981.6990
791.8784, 979.3358
792.3605, 985.0411
792.8426, 990.6028
793.3247, 988.7987
793.8068, 982.6163
794.2889, 975.3787
794.7710, 967.2298
795.2531, 962.0938
795.7352, 963.5373
796.2173, 967.6154
796.6995, 971.6896
797.1816, 975.8705
797.6637, 979.0588
798.1458, 981.4254
798.6279, 982.5601
799.1100, 980.7925
799.5922, 976.6794
800.0743, 977.1358
800.5564, 983.1719
801.0385, 990.3123
801.5206, 993.5112
802.0027, 995.4559
802.4849, 1000.635
802.9670, 1012.125
803.4491, 1019.548
803.9312, 1017.382
804.4133, 1010.580
804.8954, 1003.698
805.3776, 996.0833
805.8597, 989.6754
806.3418, 983.4133
806.8239, 980.8107
807.3060, 990.2809
807.7881, 1008.161
808.2703, 1015.533
808.7524, 1006.556
809.2345, 997.1077
809.7166, 1006.862
810.1987, 1022.561
810.6808, 1026.628
811.1630, 1001.483
811.6451, 986.9250
812.1272, 997.8083
812.6093, 1016.168
813.0914, 1021.321
813.5735, 1009.269
814.0557, 1005.173
814.5378, 1014.260
815.0199, 1026.057
815.5020, 1023.185
815.9841, 1011.289
816.4662, 1005.969
816.9484, 1015.369
817.4305, 1022.820
817.9126, 1010.149
818.3947, 991.4355
818.8768, 985.2570
819.3589, 1009.711
819.8411, 1026.407
820.3232, 1031.640
820.8053, 1030.383
821.2874, 1029.883
821.7695, 1030.146
822.2516, 1028.678
822.7338, 1024.319
823.2159, 1019.904
823.6980, 1018.901
824.1801, 1020.528
824.6622, 1023.557
825.1443, 1029.809
825.6265, 1034.097
826.1086, 1030.557
826.5907, 1025.345
827.0728, 1028.772
827.5549, 1047.123
828.0370, 1057.586
828.5192, 1053.526
829.0013, 1046.835
829.4834, 1064.661
829.9655, 1100.008
830.4476, 1116.746
830.9297, 1099.037
831.4119, 1073.540
831.8940, 1062.022
832.3761, 1059.016
832.8582, 1056.451
833.3403, 1048.062
833.8224, 1045.685
834.3046, 1054.833
834.7867, 1067.642
835.2688, 1070.653
835.7509, 1061.907
836.2330, 1061.330
836.7151, 1076.026
837.1973, 1091.512
837.6794, 1083.148
838.1615, 1060.389
838.6436, 1044.505
839.1257, 1044.925
839.6078, 1049.145
840.0900, 1053.871
840.5721, 1057.799
841.0542, 1058.801
841.5363, 1054.084
842.0184, 1052.114
842.5005, 1053.993
842.9827, 1058.384
843.4648, 1065.434
843.9469, 1074.035
844.4290, 1075.044
844.9111, 1063.012
845.3932, 1052.550
845.8754, 1064.568
846.3575, 1084.773
846.8396, 1092.932
847.3217, 1071.073
847.8038, 1054.450
848.2859, 1052.495
848.7681, 1054.931
849.2502, 1047.435
849.7323, 1027.107
850.2144, 1020.638
850.6965, 1034.300
851.1786, 1053.452
851.6608, 1060.296
852.1429, 1058.207
852.6250, 1053.415
853.1071, 1045.520
853.5892, 1040.354
854.0714, 1043.158
854.5535, 1049.072
855.0356, 1052.768
855.5177, 1054.159
855.9998, 1052.867
856.4819, 1048.277
856.9641, 1042.182
857.4462, 1034.764
857.9283, 1027.236
858.4104, 1027.299
858.8925, 1037.377
859.3746, 1047.301
859.8568, 1048.132
860.3389, 1044.384
860.8209, 1040.644
861.3030, 1037.453
861.7852, 1035.038
862.2673, 1033.731
862.7494, 1032.752
863.2315, 1031.132
863.7136, 1028.790
864.1957, 1028.173
864.6779, 1029.487
865.1600, 1031.921
865.6421, 1036.513
866.1242, 1040.954
866.6063, 1041.569
867.0884, 1037.522
867.5706, 1032.135
868.0527, 1023.019
868.5348, 1016.110
869.0169, 1016.118
869.4990, 1025.196
869.9811, 1028.428
870.4633, 1024.570
870.9454, 1019.531
871.4275, 1018.141
871.9096, 1019.211
872.3917, 1019.905
872.8738, 1020.081
873.3560, 1020.486
873.8381, 1021.059
874.3202, 1022.454
874.8023, 1025.913
875.2844, 1031.988
875.7665, 1034.339
876.2487, 1030.518
876.7308, 1027.973
877.2129, 1033.309
877.6950, 1043.584
878.1771, 1038.695
878.6592, 1020.189
879.1414, 1006.336
879.6235, 1015.352
880.1056, 1029.048
880.5877, 1031.874
881.0698, 1024.433
881.5519, 1017.380
882.0341, 1010.018
882.5162, 1007.027
882.9983, 1010.918
883.4804, 1020.134
883.9625, 1028.237
884.4446, 1035.217
884.9268, 1039.381
885.4089, 1040.274
885.8910, 1037.573
886.3731, 1025.006
886.8552, 1008.189
887.3373, 1002.807
887.8195, 1027.743
888.3016, 1049.709
888.7837, 1059.948
889.2658, 1061.221
889.7479, 1058.691
890.2300, 1051.753
890.7122, 1045.694
891.1943, 1040.856
891.6764, 1039.552
892.1585, 1049.026
892.6406, 1064.454
893.1227, 1075.379
893.6049, 1076.923
894.0870, 1074.547
894.5691, 1066.275
895.0512, 1056.867
895.5333, 1053.395
896.0154, 1058.306
896.4976, 1060.775
896.9797, 1058.713
897.4618, 1056.484
897.9439, 1063.212
898.4260, 1074.136
898.9081, 1075.786
899.3903, 1063.418
899.8724, 1050.665
900.3545, 1044.050
900.8366, 1041.696
901.3187, 1040.979
901.8008, 1037.067
902.2830, 1050.641
902.7651, 1090.622
903.2472, 1127.890
903.7293, 1128.700
904.2114, 1104.779
904.6935, 1110.353
905.1757, 1148.065
905.6578, 1173.300
906.1399, 1136.872
906.6220, 1088.405
907.1041, 1067.308
907.5862, 1080.140
908.0684, 1085.741
908.5505, 1077.717
909.0326, 1071.862
909.5147, 1078.379
909.9968, 1093.354
910.4789, 1094.364
910.9611, 1083.019
911.4432, 1074.433
911.9253, 1079.258
912.4074, 1089.216
912.8895, 1100.376
913.3716, 1111.680
913.8538, 1119.076
914.3359, 1120.715
914.8180, 1120.478
915.3001, 1118.557
915.7822, 1115.791
916.2643, 1113.317
916.7465, 1111.553
917.2286, 1114.358
917.7107, 1125.970
918.1928, 1137.841
918.6749, 1141.210
919.1570, 1139.664
919.6392, 1139.140
920.1213, 1139.932
920.6034, 1143.970
921.0855, 1153.780
921.5676, 1164.130
922.0497, 1167.150
922.5319, 1163.447
923.0140, 1162.255
923.4961, 1165.039
923.9782, 1169.663
924.4603, 1173.963
924.9424, 1179.117
925.4246, 1186.978
925.9067, 1199.131
926.3887, 1209.514
926.8708, 1221.192
927.3530, 1226.443
927.8351, 1214.710
928.3172, 1186.474
928.7993, 1185.210
929.2814, 1211.051
929.7635, 1236.093
930.2457, 1234.621
930.7278, 1224.921
931.2099, 1225.817
931.6920, 1237.220
932.1741, 1247.022
932.6563, 1247.275
933.1384, 1252.729
933.6205, 1270.705
934.1026, 1296.545
934.5847, 1309.260
935.0668, 1309.468
935.5490, 1308.196
936.0311, 1307.017
936.5132, 1310.374
936.9953, 1328.090
937.4774, 1353.044
937.9595, 1370.472
938.4417, 1370.867
938.9238, 1370.219
939.4059, 1368.547
939.8880, 1368.531
940.3701, 1375.545
940.8522, 1389.059
941.3344, 1401.099
941.8165, 1410.547
942.2986, 1417.052
942.7807, 1416.714
943.2628, 1415.121
943.7449, 1418.229
944.2271, 1427.052
944.7092, 1441.784
945.1913, 1467.716
945.6734, 1491.588
946.1555, 1502.262
946.6376, 1500.867
947.1198, 1506.696
947.6019, 1519.669
948.0840, 1531.519
948.5661, 1532.359
949.0482, 1532.536
949.5303, 1542.821
950.0125, 1562.321
950.4946, 1577.670
950.9767, 1586.438
951.4588, 1592.472
951.9409, 1596.479
952.4230, 1598.737
952.9052, 1597.484
953.3873, 1594.132
953.8694, 1598.273
954.3515, 1618.609
954.8336, 1640.217
955.3157, 1652.484
955.7979, 1658.535
956.2800, 1663.410
956.7621, 1670.426
957.2442, 1670.899
957.7263, 1661.644
958.2084, 1650.604
958.6906, 1646.658
959.1727, 1649.020
959.6548, 1656.865
960.1369, 1670.839
960.6190, 1680.104
961.1011, 1670.571
961.5833, 1657.774
962.0654, 1655.522
962.5475, 1666.758
963.0296, 1670.357
963.5117, 1662.064
963.9938, 1658.110
964.4760, 1672.617
964.9581, 1696.802
965.4402, 1702.558
965.9223, 1693.466
966.4044, 1686.058
966.8865, 1689.515
967.3687, 1696.291
967.8508, 1702.307
968.3329, 1709.187
968.8150, 1721.788
969.2971, 1742.754
969.7792, 1759.591
970.2614, 1770.543
970.7435, 1775.050
971.2256, 1763.249
971.7077, 1746.484
972.1898, 1750.127
972.6719, 1790.341
973.1541, 1822.989
973.6362, 1821.112
974.1183, 1813.817
974.6004, 1823.909
975.0825, 1854.678
975.5646, 1882.333
976.0468, 1907.017
976.5289, 1927.219
977.0110, 1934.453
977.4931, 1940.885
977.9752, 1966.630
978.4573, 2009.130
978.9395, 2044.837
979.4216, 2049.430
979.9037, 2066.537
980.3858, 2114.182
980.8679, 2179.837
981.3500, 2221.821
981.8322, 2241.862
982.3143, 2276.111
982.7964, 2340.841
983.2785, 2415.830
983.7606, 2479.208
984.2427, 2540.040
984.7249, 2610.742
985.2070, 2699.688
985.6891, 2790.630
986.1712, 2884.396
986.6533, 2978.317
987.1354, 3068.989
987.6176, 3156.996
988.0997, 3246.826
988.5818, 3338.901
989.0639, 3440.337
989.5460, 3563.731
990.0281, 3691.661
990.5103, 3814.982
990.9924, 3932.176
991.4745, 4040.666
991.9566, 4140.429
992.4387, 4233.235
992.9208, 4318.450
993.4029, 4398.898
993.8850, 4483.779
994.3671, 4568.091
994.8492, 4636.239
995.3314, 4680.808
995.8135, 4711.530
996.2956, 4734.806
996.7777, 4743.703
997.2598, 4732.533
997.7419, 4702.839
998.2241, 4635.167
998.7062, 4525.441
999.1883, 4407.895
999.6704, 4320.985
1000.153, 4242.358
1000.635, 4142.118
1001.117, 4018.140
1001.599, 3889.061
1002.081, 3755.609
1002.563, 3623.492
1003.045, 3494.479
1003.527, 3367.969
1004.009, 3247.072
1004.492, 3130.520
1004.974, 3016.361
1005.456, 2898.238
1005.938, 2787.919
1006.420, 2696.654
1006.902, 2615.913
1007.384, 2528.833
1007.866, 2421.394
1008.349, 2337.441
1008.831, 2281.492
1009.313, 2240.607
1009.795, 2205.030
1010.277, 2172.560
1010.759, 2136.285
1011.241, 2095.664
1011.723, 2059.730
1012.205, 2037.389
1012.688, 2016.340
1013.170, 1988.238
1013.652, 1955.345
1014.134, 1929.315
1014.616, 1910.259
1015.098, 1899.304
1015.580, 1900.856
1016.062, 1904.651
1016.544, 1897.603
1017.027, 1883.581
1017.509, 1869.045
1017.991, 1855.439
1018.473, 1842.257
1018.955, 1830.183
1019.437, 1817.526
1019.919, 1799.658
1020.401, 1778.652
1020.884, 1770.193
1021.366, 1775.176
1021.848, 1781.904
1022.330, 1780.658
1022.812, 1779.644
1023.294, 1787.336
1023.776, 1802.294
1024.258, 1805.960
1024.740, 1794.446
1025.223, 1787.031
1025.705, 1791.930
1026.187, 1800.474
1026.669, 1797.329
1027.151, 1786.658
1027.633, 1777.244
1028.115, 1772.308
1028.597, 1767.551
1029.079, 1757.830
1029.562, 1751.546
1030.044, 1758.371
1030.526, 1778.530
1031.008, 1786.729
1031.490, 1782.418
1031.972, 1776.922
1032.454, 1777.298
1032.936, 1780.906
1033.419, 1788.859
1033.901, 1799.148
1034.383, 1799.352
1034.865, 1781.372
1035.347, 1771.883
1035.829, 1778.632
1036.311, 1793.867
1036.793, 1806.318
1037.276, 1816.279
1037.758, 1824.513
1038.240, 1832.069
1038.722, 1835.208
1039.204, 1826.725
1039.686, 1818.094
1040.168, 1817.389
1040.650, 1824.842
1041.132, 1833.461
1041.615, 1843.417
1042.097, 1849.121
1042.579, 1837.789
1043.061, 1828.234
1043.543, 1843.548
1044.025, 1875.712
1044.507, 1900.352
1044.989, 1911.032
1045.471, 1918.635
1045.954, 1922.718
1046.436, 1927.265
1046.918, 1940.750
1047.400, 1958.906
1047.882, 1968.546
1048.364, 1966.926
1048.846, 1966.720
1049.328, 1973.653
1049.811, 1984.907
1050.293, 1999.493
1050.775, 2016.845
1051.257, 2032.550
1051.739, 2046.521
1052.221, 2063.393
1052.703, 2089.940
1053.185, 2113.776
1053.667, 2114.862
1054.150, 2106.209
1054.632, 2110.171
1055.114, 2135.445
1055.596, 2169.337
1056.078, 2217.269
1056.560, 2261.913
1057.042, 2282.102
1057.524, 2286.281
1058.006, 2299.052
1058.489, 2320.977
1058.971, 2341.677
1059.453, 2347.598
1059.935, 2360.559
1060.417, 2393.976
1060.899, 2439.744
1061.381, 2474.987
1061.863, 2499.194
1062.346, 2523.442
1062.828, 2551.161
1063.310, 2577.445
1063.792, 2593.102
1064.274, 2606.709
1064.756, 2627.902
1065.238, 2660.585
1065.720, 2694.971
1066.203, 2733.287
1066.685, 2768.086
1067.167, 2791.773
1067.649, 2809.899
1068.131, 2839.555
1068.613, 2875.406
1069.095, 2899.642
1069.577, 2886.703
1070.059, 2885.135
1070.542, 2913.473
1071.024, 2952.730
1071.506, 2979.792
1071.988, 2995.106
1072.470, 3010.398
1072.952, 3026.603
1073.434, 3041.892
1073.916, 3055.690
1074.398, 3067.022
1074.881, 3072.779
1075.363, 3073.810
1075.845, 3081.963
1076.327, 3099.208
1076.809, 3115.370
1077.291, 3127.494
1077.773, 3136.539
1078.255, 3143.058
1078.738, 3147.567
1079.220, 3150.330
1079.702, 3148.330
1080.184, 3153.406
1080.666, 3173.016
1081.148, 3189.997
1081.630, 3191.965
1082.112, 3181.166
1082.594, 3167.073
1083.077, 3150.475
1083.559, 3136.918
1084.041, 3129.892
1084.523, 3126.321
1085.005, 3127.968
1085.487, 3130.854
1085.969, 3128.297
1086.451, 3119.658
1086.933, 3112.334
1087.416, 3107.469
1087.898, 3101.209
1088.380, 3088.602
1088.862, 3073.677
1089.344, 3058.907
1089.826, 3044.846
1090.308, 3037.929
1090.790, 3043.886
1091.272, 3041.441
1091.755, 3021.230
1092.237, 2993.808
1092.719, 2978.831
1093.201, 2971.113
1093.683, 2959.912
1094.165, 2941.571
1094.647, 2921.524
1095.129, 2898.495
1095.612, 2877.550
1096.094, 2862.750
1096.576, 2853.166
1097.058, 2841.787
1097.540, 2828.720
1098.022, 2814.929
1098.504, 2801.128
1098.986, 2786.754
1099.469, 2773.518
1099.951, 2758.318
1100.433, 2734.173
1100.915, 2697.746
1101.397, 2679.698
1101.879, 2685.270
1102.361, 2686.192
1102.843, 2647.528
1103.325, 2598.388
1103.807, 2568.823
1104.290, 2558.864
1104.772, 2542.866
1105.254, 2515.621
1105.736, 2490.562
1106.218, 2470.754
1106.700, 2455.323
1107.182, 2448.724
1107.664, 2443.632
1108.147, 2422.399
1108.629, 2375.037
1109.111, 2341.479
1109.593, 2343.995
1110.075, 2347.318
1110.557, 2333.247
1111.039, 2306.778
1111.521, 2289.207
1112.004, 2278.994
1112.486, 2268.211
1112.968, 2249.629
1113.450, 2234.613
1113.932, 2233.377
1114.414, 2234.937
1114.896, 2227.096
1115.378, 2208.889
1115.860, 2194.072
1116.343, 2182.997
1116.825, 2168.027
1117.307, 2133.688
1117.789, 2101.690
1118.271, 2096.071
1118.753, 2107.986
1119.235, 2103.126
1119.717, 2073.484
1120.199, 2052.492
1120.682, 2045.646
1121.164, 2046.816
1121.646, 2056.259
1122.128, 2065.161
1122.610, 2058.391
1123.092, 2033.529
1123.574, 2017.993
1124.056, 2020.748
1124.539, 2020.984
1125.021, 2009.084
1125.503, 1994.533
1125.985, 2002.095
1126.467, 2022.428
1126.949, 2032.163
1127.431, 2021.020
1127.913, 2010.650
1128.396, 2008.635
1128.878, 2008.155
1129.360, 2004.458
1129.842, 1998.835
1130.324, 2000.040
1130.806, 2007.358
1131.288, 2016.613
1131.770, 2027.262
1132.252, 2037.317
1132.734, 2047.122
1133.217, 2055.039
1133.699, 2059.520
1134.181, 2060.596
1134.663, 2055.248
1135.145, 2043.073
1135.627, 2034.584
1136.109, 2041.956
1136.591, 2051.734
1137.074, 2052.576
1137.556, 2046.950
1138.038, 2044.410
1138.520, 2044.556
1139.002, 2052.144
1139.484, 2070.121
1139.966, 2084.277
1140.448, 2073.195
1140.931, 2053.030
1141.413, 2041.893
1141.895, 2041.725
1142.377, 2046.353
1142.859, 2060.898
1143.341, 2063.356
1143.823, 2042.990
1144.305, 2015.222
1144.787, 2008.997
1145.270, 2013.399
1145.752, 2007.942
1146.234, 1984.959
1146.716, 1964.834
1147.198, 1950.750
1147.680, 1939.839
1148.162, 1930.892
1148.644, 1923.810
1149.126, 1918.971
1149.609, 1915.667
1150.091, 1911.741
1150.573, 1906.988
1151.055, 1900.594
1151.537, 1895.766
1152.019, 1885.560
1152.501, 1860.887
1152.983, 1824.140
1153.466, 1794.874
1153.948, 1773.836
1154.430, 1763.038
1154.912, 1778.610
1155.394, 1787.669
1155.876, 1769.968
1156.358, 1740.282
1156.840, 1716.326
1157.322, 1698.002
1157.805, 1680.925
1158.287, 1664.653
1158.769, 1650.450
1159.251, 1639.670
1159.733, 1630.856
1160.215, 1623.966
1160.697, 1618.215
1161.179, 1612.625
1161.661, 1607.559
1162.144, 1595.724
1162.626, 1574.379
1163.108, 1554.364
1163.590, 1548.595
1164.072, 1547.104
1164.554, 1540.989
1165.036, 1529.660
1165.518, 1517.218
1166.000, 1503.382
1166.483, 1489.854
1166.965, 1477.144
1167.447, 1464.767
1167.929, 1449.438
1168.411, 1435.552
1168.893, 1429.751
1169.375, 1436.604
1169.857, 1434.519
1170.340, 1421.334
1170.822, 1407.401
1171.304, 1397.657
1171.786, 1390.492
1172.268, 1384.946
1172.750, 1379.733
1173.232, 1372.512
1173.714, 1361.062
1174.197, 1350.465
1174.679, 1340.139
1175.161, 1332.617
1175.643, 1333.712
1176.125, 1337.081
1176.607, 1326.551
1177.089, 1307.257
1177.571, 1294.553
1178.053, 1301.544
1178.536, 1303.677
1179.018, 1299.140
1179.500, 1289.094
1179.982, 1269.760
1180.464, 1247.417
1180.946, 1238.035
1181.428, 1240.579
1181.910, 1243.652
1182.392, 1244.831
1182.875, 1243.090
1183.357, 1237.439
1183.839, 1230.268
1184.321, 1224.814
1184.803, 1220.502
1185.285, 1215.590
1185.767, 1209.918
1186.249, 1204.225
1186.732, 1200.491
1187.214, 1194.423
1187.696, 1183.377
1188.178, 1170.946
1188.660, 1165.145
1189.142, 1164.243
1189.624, 1161.802
1190.106, 1156.311
1190.589, 1153.449
1191.071, 1162.905
1191.553, 1166.940
1192.035, 1155.457
1192.517, 1135.094
1192.999, 1128.342
1193.481, 1131.462
1193.963, 1127.299
1194.445, 1107.739
1194.927, 1094.123
1195.410, 1102.344
1195.892, 1114.432
1196.374, 1122.430
1196.856, 1125.454
1197.338, 1114.425
1197.820, 1093.085
1198.302, 1080.674
1198.784, 1090.030
1199.267, 1097.644
1199.749, 1089.026
1200.231, 1076.899
1200.713, 1070.362
1201.195, 1068.867
1201.677, 1066.105
1202.159, 1062.210
1202.641, 1058.147
1203.124, 1056.067
1203.606, 1051.735
1204.088, 1037.545
1204.570, 1024.667
1205.052, 1025.719
1205.534, 1040.176
1206.016, 1044.740
1206.498, 1040.106
1206.980, 1034.252
1207.463, 1030.607
1207.945, 1028.144
1208.427, 1028.253
1208.909, 1027.994
1209.391, 1022.151
1209.873, 1011.304
1210.355, 1010.593
1210.837, 1019.972
1211.319, 1027.020
1211.802, 1019.702
1212.284, 1012.482
1212.766, 1014.222
1213.248, 1019.481
1213.730, 1021.697
1214.212, 1020.702
1214.694, 1011.526
1215.176, 993.7861
1215.659, 980.5186
1216.141, 985.4800
1216.623, 991.3616
1217.105, 989.6211
1217.587, 982.6118
1218.069, 971.0276
1218.551, 956.4289
1219.033, 958.3986
1219.516, 980.4619
1219.998, 1000.547
1220.480, 1001.111
1220.962, 998.8957
1221.444, 1004.512
1221.926, 1013.217
1222.408, 1011.375
1222.890, 1000.298
1223.372, 992.3112
1223.854, 990.3082
1224.337, 985.5399
1224.819, 965.1516
1225.301, 948.6087
1225.783, 948.6058
1226.265, 959.0381
1226.747, 957.9415
1227.229, 947.9735
1227.711, 945.6791
1228.193, 956.8408
1228.676, 966.9767
1229.158, 967.8724
1229.640, 965.3163
1230.122, 962.2795
1230.604, 958.7286
1231.086, 952.3030
1231.568, 944.6509
1232.050, 945.3661
1232.533, 961.0261
1233.015, 971.4177
1233.497, 963.4552
1233.979, 950.0809
1234.461, 935.3801
1234.943, 922.0328
1235.425, 925.9415
1235.907, 942.0244
1236.390, 949.7720
1236.872, 937.1462
1237.354, 928.8173
1237.836, 938.3472
1238.318, 950.3285
1238.800, 958.7005
1239.282, 962.1005
1239.764, 948.2411
1240.246, 924.0420
1240.729, 913.0670
1241.211, 932.3869
1241.693, 948.9826
1242.175, 955.9195
1242.657, 956.7834
1243.139, 951.4285
1243.621, 942.3827
1244.103, 939.4324
1244.585, 940.3748
1245.068, 938.6285
1245.550, 929.6772
1246.032, 921.3209
1246.514, 913.4225
1246.996, 908.4188
1247.478, 910.2637
1247.960, 915.4628
1248.442, 913.1918
1248.925, 906.4025
1249.407, 903.0814
1249.889, 911.8878
1250.371, 914.1253
1250.853, 906.1846
1251.335, 898.3873
1251.817, 901.8669
1252.299, 909.5681
1252.781, 907.8726
1253.264, 899.1743
1253.746, 890.1360
1254.228, 878.4496
1254.710, 875.0772
1255.192, 882.3124
1255.674, 890.7432
1256.156, 893.0851
1256.638, 891.2997
1257.120, 885.4410
1257.603, 877.8314
1258.085, 875.1422
1258.567, 880.2053
1259.049, 884.7182
1259.531, 888.8518
1260.013, 888.6804
1260.495, 873.4620
1260.977, 858.5225
1261.460, 865.2795
1261.942, 884.4838
1262.424, 889.2894
1262.906, 874.5527
1263.388, 867.0814
1263.870, 869.0271
1264.352, 871.7634
1264.834, 867.9821
1265.317, 862.5958
1265.799, 857.9517
1266.281, 855.3095
1266.763, 857.7633
1267.245, 865.9694
1267.727, 869.3296
1268.209, 867.0278
1268.691, 863.1198
1269.173, 857.9830
1269.656, 854.7731
1270.138, 856.7430
1270.620, 861.2280
1271.102, 866.3103
1271.584, 871.3942
1272.066, 864.6633
1272.548, 846.0709
1273.030, 832.4891
1273.512, 840.0761
1273.995, 847.8649
1274.477, 847.4877
1274.959, 843.3167
1275.441, 840.6608
1275.923, 839.6816
1276.405, 841.8777
1276.887, 847.0789
1277.369, 851.8227
1277.852, 856.3298
1278.334, 857.3975
1278.816, 853.3302
1279.298, 847.5925
1279.780, 845.6123
1280.262, 845.1915
1280.744, 839.0410
1281.226, 828.2462
1281.708, 824.9633
1282.191, 837.7258
1282.673, 849.3794
1283.155, 858.4864
1283.637, 863.2440
1284.119, 858.6948
1284.601, 850.3055
1285.083, 845.7408
1285.565, 844.8366
1286.047, 842.5880
1286.530, 838.2070
1287.012, 833.1561
1287.494, 827.0189
1287.976, 823.7798
1288.458, 831.4703
1288.940, 840.6206
1289.422, 841.5045
1289.904, 835.4434
1290.386, 830.4813
1290.869, 826.4827
1291.351, 825.8565
1291.833, 829.2125
1292.315, 831.1746
1292.797, 824.6677
1293.279, 818.0797
1293.761, 817.6319
1294.243, 820.8560
1294.726, 823.6513
1295.208, 826.0765
1295.690, 829.0467
1296.172, 832.6286
1296.654, 834.9116
1297.136, 834.4512
1297.618, 832.6609
1298.100, 829.8296
1298.583, 826.4824
1299.065, 822.2261
1299.547, 818.3575
1300.029, 821.2484
1300.511, 830.3015
1300.993, 833.3366
1301.475, 818.3718
1301.957, 807.4427
1302.439, 804.7477
1302.922, 805.4802
1303.404, 803.8206
1303.886, 801.3156
1304.368, 800.0021
1304.850, 800.1459
1305.332, 802.4721
1305.814, 807.3516
1306.296, 813.6140
1306.778, 821.9171
1307.261, 827.3293
1307.743, 824.5746
1308.225, 817.0615
1308.707, 802.7982
1309.189, 787.1889
1309.671, 788.2208
1310.153, 808.0106
1310.635, 819.1758
1311.118, 818.5925
1311.600, 814.7902
1312.082, 812.6983
1312.564, 810.7506
1313.046, 805.3098
1313.528, 801.1971
1314.010, 808.9529
1314.492, 825.8190
1314.974, 829.9025
##END=



