##NAMES=Cornwallite
##RRUFFID=R050469
##IDEAL CHEMISTRY=Cu^2+^_5_(As^5+^O_4_)_2_(OH)_4_
##LOCALITY=Carissa mine, Tintic District, Utah, USA
##OWNER=RRUFF
##SOURCE=University of Arizona Mineral Museum
##DESCRIPTION=Dark green botryoidal crust
##STATUS=The identification of this mineral has been confirmed by X-ray diffraction and chemical analysis
##URL=rruff.info/R050469
##MEASURED CHEMISTRY=(Cu_4.98_Ca_0.02_)_Î£=5_(As_1.00_O_4_)_2_(OH)_4_ ; OH estimated by difference and charge balance
91.00781, 8.303473
91.48993, 8.346170
91.97205, 8.363499
92.45416, 8.318182
92.93628, 8.248999
93.41840, 8.245978
93.90051, 8.335229
94.38263, 8.474585
94.86475, 8.569651
95.34686, 8.621614
95.82898, 8.744543
96.31110, 9.046621
96.79321, 9.516400
97.27533, 10.03036
97.75745, 10.55978
98.23956, 11.10672
98.72168, 11.66019
99.20380, 12.21125
99.68591, 12.77935
100.1680, 13.34580
100.6501, 13.86866
101.1323, 14.57463
101.6144, 15.56079
102.0965, 16.85053
102.5786, 18.11358
103.0607, 19.29355
103.5428, 20.50547
104.0250, 21.92551
104.5071, 23.39722
104.9892, 25.32479
105.4713, 27.95974
105.9534, 31.90957
106.4355, 35.21020
106.9177, 37.56702
107.3998, 39.26256
107.8819, 41.26904
108.3640, 43.76534
108.8461, 46.40546
109.3282, 49.06734
109.8104, 51.72205
110.2925, 54.37100
110.7746, 56.98323
111.2567, 59.55522
111.7388, 62.17052
112.2209, 64.12550
112.7031, 66.47834
113.1852, 69.98930
113.6673, 76.91246
114.1494, 82.97233
114.6315, 86.66881
115.1136, 87.91911
115.5958, 89.26187
116.0779, 91.06959
116.5600, 93.52077
117.0421, 96.80062
117.5242, 102.0629
118.0063, 107.4002
118.4885, 111.7141
118.9706, 114.7238
119.4527, 117.7207
119.9348, 121.2908
120.4169, 125.3258
120.8990, 129.6930
121.3812, 134.7035
121.8633, 139.8191
122.3454, 144.5999
122.8275, 149.1939
123.3096, 152.9934
123.7917, 155.0758
124.2739, 155.7730
124.7560, 156.3029
125.2381, 157.6758
125.7202, 159.3688
126.2023, 160.3553
126.6844, 159.9891
127.1666, 159.3833
127.6487, 160.3798
128.1308, 162.8885
128.6129, 165.3524
129.0950, 166.3190
129.5771, 166.1515
130.0593, 166.1813
130.5414, 166.9887
131.0235, 168.1672
131.5056, 168.4014
131.9877, 167.0193
132.4698, 164.7229
132.9520, 162.8861
133.4341, 161.5088
133.9162, 160.9182
134.3983, 161.5791
134.8804, 163.2650
135.3625, 164.1793
135.8447, 164.1601
136.3268, 163.8327
136.8089, 163.9846
137.2910, 164.6191
137.7731, 165.6717
138.2552, 167.5402
138.7374, 170.5128
139.2195, 171.7237
139.7016, 170.6930
140.1837, 168.4100
140.6658, 166.8562
141.1479, 166.0555
141.6301, 165.8361
142.1122, 166.1417
142.5943, 167.0600
143.0764, 168.2646
143.5585, 169.8725
144.0406, 171.7437
144.5228, 173.4584
145.0049, 174.9683
145.4870, 176.3669
145.9691, 177.6776
146.4512, 178.8441
146.9333, 180.0368
147.4155, 181.1162
147.8976, 182.1566
148.3797, 183.7647
148.8618, 186.2249
149.3439, 189.0617
149.8260, 191.9632
150.3082, 195.3698
150.7903, 198.3822
151.2724, 200.7514
151.7545, 202.4406
152.2366, 204.5221
152.7188, 207.0842
153.2009, 210.0199
153.6830, 213.2159
154.1651, 218.0302
154.6472, 221.7799
155.1293, 223.2781
155.6115, 222.1644
156.0936, 221.8179
156.5757, 223.5553
157.0578, 226.0890
157.5399, 227.9893
158.0220, 228.7034
158.5042, 228.9509
158.9863, 228.9084
159.4684, 228.5417
159.9505, 228.1879
160.4326, 227.9613
160.9147, 227.8166
161.3969, 227.6850
161.8790, 227.9907
162.3611, 227.9866
162.8432, 227.1079
163.3253, 224.9646
163.8074, 222.9663
164.2896, 221.5731
164.7717, 220.7710
165.2538, 220.5382
165.7359, 221.4619
166.2180, 222.5997
166.7001, 223.2363
167.1823, 223.1410
167.6644, 222.7378
168.1465, 222.4602
168.6286, 222.1203
169.1107, 221.1893
169.5928, 219.6031
170.0750, 217.1940
170.5571, 213.6300
171.0392, 208.4202
171.5213, 202.8173
172.0034, 197.7258
172.4855, 193.0872
172.9677, 188.7714
173.4498, 184.6366
173.9319, 180.7384
174.4140, 177.1731
174.8961, 174.0336
175.3782, 171.1534
175.8604, 168.2132
176.3425, 165.2297
176.8246, 162.4713
177.3067, 160.2500
177.7888, 158.3568
178.2709, 156.4015
178.7531, 154.2080
179.2352, 151.9128
179.7173, 149.5642
180.1994, 147.1649
180.6815, 145.0964
181.1636, 143.8118
181.6458, 143.1539
182.1279, 142.7102
182.6100, 142.4387
183.0921, 142.2510
183.5742, 141.9262
184.0563, 141.4624
184.5385, 141.0106
185.0206, 140.8581
185.5027, 140.9069
185.9848, 140.6834
186.4669, 139.7859
186.9490, 138.5175
187.4312, 137.8432
187.9133, 137.8392
188.3954, 137.9913
188.8775, 137.5963
189.3596, 136.7309
189.8417, 136.1227
190.3239, 136.2478
190.8060, 136.9164
191.2881, 137.1178
191.7702, 136.7855
192.2523, 136.2493
192.7344, 135.8477
193.2166, 135.5842
193.6987, 135.5200
194.1808, 135.8750
194.6629, 136.5755
195.1450, 136.7097
195.6271, 136.1923
196.1093, 135.3299
196.5914, 134.4785
197.0735, 133.6254
197.5556, 132.9304
198.0377, 132.5160
198.5198, 132.3798
199.0020, 132.1940
199.4841, 131.9509
199.9662, 131.6676
200.4483, 131.3549
200.9304, 131.0048
201.4125, 130.6689
201.8947, 130.3745
202.3768, 130.1250
202.8589, 129.8756
203.3410, 129.6316
203.8231, 129.3807
204.3052, 129.0563
204.7874, 128.6020
205.2695, 128.3032
205.7516, 128.4081
206.2337, 129.0361
206.7158, 129.1871
207.1979, 128.6456
207.6801, 127.8243
208.1622, 127.6492
208.6443, 128.3146
209.1264, 129.0188
209.6085, 129.3666
210.0906, 129.2567
210.5728, 129.2558
211.0549, 129.3877
211.5370, 129.6215
212.0191, 129.9057
212.5012, 130.2830
212.9833, 130.6144
213.4655, 130.8418
213.9476, 130.9732
214.4297, 130.9662
214.9118, 130.7533
215.3939, 130.4372
215.8760, 130.3084
216.3581, 130.5082
216.8403, 130.6051
217.3224, 130.3378
217.8045, 129.5171
218.2866, 128.9318
218.7687, 128.7381
219.2508, 128.7341
219.7330, 128.3114
220.2151, 127.1562
220.6972, 126.1549
221.1793, 125.8152
221.6614, 126.4835
222.1435, 126.8517
222.6257, 126.8114
223.1078, 126.4833
223.5899, 126.2117
224.0720, 126.0795
224.5541, 125.8711
225.0362, 125.4369
225.5184, 124.5808
226.0005, 124.0130
226.4826, 123.8425
226.9647, 123.9437
227.4468, 123.9675
227.9289, 123.9053
228.4111, 123.7839
228.8932, 123.5952
229.3753, 123.2567
229.8574, 123.0679
230.3395, 123.1403
230.8216, 123.3426
231.3038, 123.2579
231.7859, 122.5577
232.2680, 122.0536
232.7501, 122.1612
233.2322, 123.2402
233.7143, 124.1122
234.1965, 124.7149
234.6786, 125.1222
235.1607, 125.5564
235.6428, 126.0854
236.1249, 126.5386
236.6070, 126.8140
237.0892, 126.7552
237.5713, 126.8761
238.0534, 127.3082
238.5355, 127.8841
239.0176, 128.1448
239.4997, 127.8515
239.9819, 127.5894
240.4640, 127.6355
240.9461, 128.1881
241.4282, 128.5821
241.9103, 128.8035
242.3924, 128.8721
242.8746, 128.8198
243.3567, 128.5777
243.8388, 128.3231
244.3209, 128.1630
244.8030, 128.2513
245.2851, 128.0018
245.7673, 127.1832
246.2494, 126.1233
246.7315, 125.5393
247.2136, 125.5981
247.6957, 125.8703
248.1778, 126.2346
248.6600, 126.7689
249.1421, 127.1460
249.6242, 127.3142
250.1063, 127.3555
250.5884, 127.4191
251.0705, 127.4824
251.5527, 127.6053
252.0348, 127.8169
252.5169, 128.1444
252.9990, 128.4582
253.4811, 128.7215
253.9632, 128.9969
254.4454, 129.4216
254.9275, 130.1379
255.4096, 130.7312
255.8917, 130.9978
256.3738, 130.8027
256.8560, 130.9203
257.3381, 131.4892
257.8202, 132.2549
258.3023, 132.8762
258.7844, 133.4004
259.2665, 133.6637
259.7487, 133.5700
260.2308, 133.0679
260.7129, 132.5215
261.1950, 131.7970
261.6771, 131.1723
262.1592, 131.1089
262.6414, 131.8672
263.1235, 132.5284
263.6056, 132.8159
264.0877, 132.7092
264.5698, 132.5667
265.0519, 132.3867
265.5341, 132.1743
266.0162, 131.8598
266.4983, 131.3023
266.9804, 131.1077
267.4625, 131.5694
267.9446, 132.6683
268.4268, 133.3803
268.9089, 133.6797
269.3910, 133.6159
269.8731, 133.0793
270.3552, 131.8597
270.8373, 131.0537
271.3195, 131.0334
271.8016, 131.7013
272.2837, 132.0349
272.7658, 131.9985
273.2479, 131.7110
273.7300, 131.2086
274.2122, 130.4408
274.6943, 129.7871
275.1764, 129.3318
275.6585, 129.0548
276.1406, 128.8863
276.6227, 128.8665
277.1049, 128.8259
277.5870, 128.6233
278.0691, 128.2500
278.5512, 127.7856
279.0333, 127.1384
279.5154, 126.4621
279.9976, 126.4158
280.4797, 127.1348
280.9618, 127.7838
281.4439, 127.7050
281.9260, 126.8893
282.4081, 126.1047
282.8903, 125.4429
283.3724, 124.8701
283.8545, 124.2646
284.3366, 123.6084
284.8187, 123.1062
285.3008, 122.9275
285.7830, 123.0516
286.2651, 123.2965
286.7472, 123.7153
287.2293, 124.1190
287.7114, 124.1687
288.1935, 123.8652
288.6757, 123.3420
289.1578, 122.4604
289.6399, 121.3495
290.1220, 120.7382
290.6041, 120.7046
291.0862, 121.0306
291.5684, 121.5981
292.0505, 122.3598
292.5326, 122.8573
293.0147, 122.6362
293.4968, 121.9731
293.9789, 121.8043
294.4611, 122.2347
294.9432, 122.6810
295.4253, 122.2952
295.9074, 121.2733
296.3895, 120.4708
296.8716, 120.4575
297.3538, 120.8541
297.8359, 120.7756
298.3180, 120.1956
298.8001, 119.7208
299.2822, 120.0178
299.7643, 120.8764
300.2465, 121.7564
300.7286, 122.6202
301.2107, 123.2995
301.6928, 123.3745
302.1749, 122.8906
302.6570, 122.5499
303.1392, 123.1113
303.6213, 124.1673
304.1034, 124.9901
304.5855, 125.2423
305.0676, 125.3438
305.5497, 125.6957
306.0319, 126.2736
306.5140, 126.9704
306.9961, 127.7708
307.4782, 128.6201
307.9603, 129.4702
308.4424, 130.3173
308.9246, 131.1311
309.4067, 131.7633
309.8888, 132.3148
310.3709, 133.0919
310.8530, 134.4334
311.3351, 135.9682
311.8173, 137.3234
312.2994, 138.3389
312.7815, 139.5373
313.2636, 141.5950
313.7457, 144.0124
314.2278, 145.9030
314.7100, 146.1151
315.1921, 146.2283
315.6742, 147.2094
316.1563, 149.2306
316.6384, 151.6263
317.1205, 154.5836
317.6027, 157.5929
318.0848, 159.9894
318.5669, 160.8711
319.0490, 161.7208
319.5311, 163.1188
320.0132, 165.1081
320.4954, 167.2907
320.9775, 169.6587
321.4596, 172.1052
321.9417, 174.5044
322.4238, 176.8933
322.9059, 179.1681
323.3881, 181.3291
323.8702, 183.3543
324.3523, 185.2203
324.8344, 186.7039
325.3165, 188.1694
325.7986, 189.8463
326.2808, 192.3445
326.7629, 194.3603
327.2450, 195.6542
327.7271, 196.3631
328.2092, 197.0314
328.6913, 197.7937
329.1735, 198.3999
329.6556, 198.7344
330.1377, 198.5473
330.6198, 198.5888
331.1019, 199.3159
331.5840, 200.1314
332.0662, 199.8835
332.5483, 198.0847
333.0304, 195.8862
333.5125, 193.5698
333.9946, 191.0025
334.4767, 188.8696
334.9589, 187.2288
335.4410, 185.9885
335.9231, 185.2275
336.4052, 185.4290
336.8873, 184.8143
337.3694, 182.6645
337.8516, 179.1138
338.3336, 176.3763
338.8158, 174.6333
339.2979, 173.3165
339.7800, 171.9480
340.2621, 170.5461
340.7442, 169.0256
341.2263, 167.3039
341.7085, 165.5119
342.1906, 164.2008
342.6727, 163.3998
343.1548, 162.8264
343.6369, 162.1998
344.1190, 161.5519
344.6012, 161.4910
345.0833, 162.3267
345.5654, 163.2967
346.0475, 162.8932
346.5296, 161.1931
347.0117, 159.3606
347.4939, 157.8638
347.9760, 156.7282
348.4581, 156.0885
348.9402, 156.0007
349.4223, 156.1540
349.9044, 156.1916
350.3866, 156.1737
350.8687, 156.3043
351.3508, 156.7512
351.8329, 157.3618
352.3150, 157.9434
352.7971, 158.4966
353.2793, 158.9542
353.7614, 159.3091
354.2435, 159.5343
354.7256, 159.5580
355.2077, 159.1525
355.6898, 158.7986
356.1720, 158.9368
356.6541, 159.5040
357.1362, 160.2155
357.6183, 161.1622
358.1004, 162.0496
358.5826, 162.6219
359.0647, 162.8276
359.5468, 162.7249
360.0289, 162.0258
360.5110, 161.0585
360.9931, 160.4460
361.4753, 160.8151
361.9574, 161.3013
362.4395, 161.3863
362.9216, 160.9243
363.4037, 160.7079
363.8858, 161.3629
364.3680, 162.2318
364.8501, 162.6240
365.3322, 161.9570
365.8143, 161.2478
366.2964, 160.8675
366.7785, 160.8031
367.2607, 160.3096
367.7428, 158.6167
368.2249, 156.9392
368.7070, 156.0234
369.1891, 156.8216
369.6712, 157.1308
370.1534, 156.7792
370.6355, 155.8913
371.1176, 154.8249
371.5997, 153.3269
372.0818, 151.9674
372.5639, 150.9887
373.0461, 150.5122
373.5282, 150.0085
374.0103, 149.5081
374.4924, 148.9372
374.9745, 148.1498
375.4566, 147.0403
375.9388, 146.0205
376.4209, 145.1668
376.9030, 144.4840
377.3851, 144.2549
377.8672, 144.5883
378.3493, 145.0299
378.8315, 145.0948
379.3136, 144.7773
379.7957, 144.6152
380.2778, 144.7702
380.7599, 145.0807
381.2420, 145.0541
381.7242, 144.6909
382.2063, 144.5011
382.6884, 145.0620
383.1705, 146.1010
383.6526, 146.5932
384.1347, 146.3557
384.6169, 145.8989
385.0990, 145.6734
385.5811, 145.7195
386.0632, 146.1923
386.5453, 147.5587
387.0274, 149.2140
387.5096, 150.3136
387.9917, 150.8468
388.4738, 151.2095
388.9559, 151.5733
389.4380, 151.9799
389.9201, 152.5000
390.4023, 153.2891
390.8844, 154.0421
391.3665, 154.4761
391.8486, 154.6834
392.3307, 154.9863
392.8128, 155.4554
393.2950, 156.1270
393.7771, 157.1553
394.2592, 158.8833
394.7413, 160.0922
395.2234, 159.7811
395.7055, 158.8141
396.1877, 158.5285
396.6698, 159.7981
397.1519, 161.2374
397.6340, 162.4914
398.1161, 163.5409
398.5982, 164.4297
399.0804, 165.0462
399.5625, 165.5762
400.0446, 166.1514
400.5267, 166.7933
401.0088, 167.4439
401.4909, 167.9100
401.9731, 168.3638
402.4552, 169.5686
402.9373, 171.9540
403.4194, 174.3927
403.9015, 176.2973
404.3836, 177.4654
404.8658, 178.9588
405.3479, 180.9331
405.8300, 182.9968
406.3121, 184.4643
406.7942, 185.2122
407.2763, 186.2167
407.7585, 187.8703
408.2406, 190.0539
408.7227, 192.0802
409.2048, 193.9320
409.6869, 195.6855
410.1690, 197.2604
410.6512, 198.7323
411.1333, 200.5923
411.6154, 203.0495
412.0975, 205.7234
412.5796, 208.1263
413.0617, 210.2777
413.5439, 212.3177
414.0260, 214.2485
414.5081, 216.1739
414.9902, 218.2925
415.4723, 220.6620
415.9544, 222.8958
416.4366, 224.3613
416.9187, 225.5393
417.4008, 227.1417
417.8829, 229.6128
418.3650, 232.4460
418.8471, 235.4551
419.3293, 238.6020
419.8114, 241.8470
420.2935, 245.0776
420.7756, 248.4479
421.2577, 252.0423
421.7398, 256.2805
422.2220, 260.0728
422.7041, 262.4949
423.1862, 264.4459
423.6683, 267.5441
424.1504, 273.2118
424.6325, 278.8841
425.1147, 283.6275
425.5968, 287.3001
426.0789, 291.9078
426.5610, 298.0517
427.0431, 304.5871
427.5252, 310.4817
428.0074, 315.3182
428.4895, 320.4604
428.9716, 325.9379
429.4537, 331.7791
429.9358, 338.0564
430.4179, 344.8036
430.9001, 351.7836
431.3822, 358.8186
431.8643, 365.9058
432.3464, 373.2127
432.8285, 380.7802
433.3106, 388.4358
433.7928, 396.1635
434.2749, 403.8940
434.7570, 411.0043
435.2391, 417.0823
435.7212, 422.5993
436.2033, 428.8299
436.6855, 435.5876
437.1676, 441.5186
437.6497, 445.1964
438.1318, 447.5508
438.6139, 450.2974
439.0960, 454.1318
439.5782, 456.8182
440.0603, 455.9471
440.5424, 452.6560
441.0245, 449.1032
441.5066, 447.1508
441.9887, 444.4082
442.4709, 439.5862
442.9530, 432.6482
443.4351, 424.0390
443.9172, 412.8027
444.3993, 400.6623
444.8814, 389.0176
445.3636, 378.2341
445.8457, 367.6445
446.3278, 357.2870
446.8099, 347.1122
447.2920, 336.7072
447.7741, 325.6296
448.2563, 314.7318
448.7384, 304.3897
449.2205, 294.4843
449.7026, 285.2393
450.1847, 276.7262
450.6668, 268.9173
451.1490, 261.9355
451.6311, 255.9539
452.1132, 250.0372
452.5953, 243.8867
453.0774, 237.7957
453.5595, 232.2002
454.0417, 227.0805
454.5238, 222.4554
455.0059, 218.3262
455.4880, 214.6895
455.9701, 211.4142
456.4522, 208.5536
456.9344, 205.7801
457.4165, 202.7152
457.8986, 199.4367
458.3807, 196.2252
458.8628, 192.9299
459.3449, 189.9698
459.8271, 187.9592
460.3092, 186.7385
460.7913, 185.5779
461.2734, 184.1589
461.7555, 182.5562
462.2376, 180.6983
462.7198, 178.4729
463.2019, 176.5688
463.6840, 175.4102
464.1661, 174.7350
464.6482, 174.2260
465.1303, 174.2585
465.6125, 173.9669
466.0946, 172.9113
466.5767, 171.1866
467.0588, 169.7804
467.5409, 168.9759
468.0230, 168.3174
468.5052, 167.6183
468.9873, 166.8670
469.4694, 166.0669
469.9515, 164.9981
470.4336, 164.0741
470.9157, 164.0668
471.3979, 165.4079
471.8800, 166.1586
472.3621, 165.6431
472.8442, 164.1674
473.3263, 163.2518
473.8084, 162.9798
474.2906, 162.6173
474.7727, 161.2990
475.2548, 159.3311
475.7369, 158.3262
476.2190, 158.5905
476.7011, 159.2428
477.1833, 159.2334
477.6654, 158.7503
478.1475, 158.3114
478.6296, 158.2522
479.1117, 158.2579
479.5938, 157.9653
480.0760, 157.4157
480.5581, 156.8966
481.0402, 156.5097
481.5223, 156.2550
482.0044, 156.1600
482.4865, 156.3012
482.9687, 156.4122
483.4508, 156.5843
483.9329, 156.6252
484.4150, 156.2610
484.8971, 154.8810
485.3792, 153.6830
485.8614, 153.0507
486.3435, 152.9326
486.8256, 152.5840
487.3077, 151.8617
487.7898, 151.0829
488.2719, 150.4278
488.7541, 149.9856
489.2362, 149.4077
489.7183, 148.6419
490.2004, 147.8056
490.6825, 147.1151
491.1646, 146.5997
491.6468, 145.8672
492.1289, 144.6402
492.6110, 143.1953
493.0931, 142.3682
493.5752, 142.1485
494.0573, 141.9702
494.5395, 141.1514
495.0216, 140.1221
495.5037, 139.9992
495.9858, 141.1068
496.4679, 142.0202
496.9500, 141.0756
497.4322, 139.1095
497.9143, 137.5247
498.3964, 137.0105
498.8785, 136.9070
499.3606, 137.1180
499.8427, 137.5227
500.3249, 137.5566
500.8070, 136.6918
501.2891, 135.6703
501.7712, 134.9022
502.2533, 134.5625
502.7354, 134.0948
503.2176, 133.2391
503.6997, 132.3518
504.1818, 131.8278
504.6639, 132.0027
505.1460, 131.9042
505.6281, 131.3233
506.1103, 130.3725
506.5924, 129.4374
507.0745, 128.4325
507.5566, 127.7386
508.0387, 127.7828
508.5208, 128.5011
509.0030, 128.5269
509.4851, 127.7826
509.9672, 126.7821
510.4493, 126.0123
510.9314, 125.4333
511.4135, 124.8967
511.8957, 124.3432
512.3778, 123.8726
512.8599, 123.6826
513.3420, 123.6890
513.8242, 123.6426
514.3063, 123.2063
514.7884, 122.8148
515.2705, 122.9166
515.7526, 123.5436
516.2347, 124.0129
516.7169, 124.0866
517.1990, 123.8737
517.6811, 123.4418
518.1632, 122.3982
518.6453, 121.6828
519.1274, 121.6340
519.6096, 121.9243
520.0917, 121.9352
520.5738, 121.3442
521.0559, 121.0182
521.5380, 121.3035
522.0201, 122.1449
522.5023, 122.5090
522.9844, 122.2493
523.4665, 121.9332
523.9486, 122.0332
524.4307, 122.5225
524.9128, 122.7640
525.3950, 122.6357
525.8771, 122.5016
526.3592, 123.0004
526.8413, 123.9380
527.3234, 124.6143
527.8055, 124.5935
528.2877, 124.3485
528.7698, 124.5318
529.2519, 125.0107
529.7340, 125.2296
530.2161, 124.5587
530.6982, 123.7229
531.1804, 123.2790
531.6625, 123.3602
532.1446, 123.4847
532.6267, 123.5947
533.1088, 123.6304
533.5909, 123.5354
534.0731, 123.3701
534.5552, 122.9826
535.0373, 122.1896
535.5194, 121.1988
536.0015, 120.5261
536.4836, 120.3711
536.9658, 120.1391
537.4479, 119.6257
537.9300, 118.8421
538.4121, 117.9471
538.8942, 116.9153
539.3763, 115.8914
539.8585, 115.0575
540.3406, 114.3612
540.8227, 113.4501
541.3048, 112.2025
541.7869, 110.9796
542.2690, 110.2176
542.7512, 109.8292
543.2333, 109.5996
543.7154, 109.6420
544.1975, 109.6384
544.6796, 109.3390
545.1617, 108.7692
545.6439, 108.0489
546.1260, 107.0971
546.6081, 106.1160
547.0902, 105.1312
547.5723, 104.0392
548.0544, 103.4478
548.5366, 104.0869
549.0187, 104.8911
549.5008, 104.8866
549.9829, 103.3866
550.4650, 102.3513
550.9471, 102.1238
551.4293, 102.3579
551.9114, 102.2136
552.3935, 101.6148
552.8756, 101.0101
553.3577, 100.6034
553.8398, 100.3295
554.3220, 99.82191
554.8041, 99.06826
555.2862, 98.39913
555.7683, 98.12229
556.2504, 98.10040
556.7325, 98.05617
557.2147, 97.94978
557.6968, 97.83819
558.1789, 97.80395
558.6610, 97.78603
559.1431, 97.69510
559.6252, 97.50230
560.1074, 97.22739
560.5895, 96.75730
561.0716, 96.18723
561.5537, 95.84423
562.0358, 96.25613
562.5179, 96.44890
563.0001, 95.95591
563.4822, 94.67931
563.9643, 93.81139
564.4464, 93.44540
564.9285, 93.35772
565.4106, 93.47314
565.8928, 93.86814
566.3749, 93.90165
566.8570, 93.41484
567.3391, 92.79639
567.8212, 92.64577
568.3033, 92.91685
568.7855, 93.30516
569.2676, 93.86612
569.7497, 94.32917
570.2318, 94.11422
570.7139, 93.38284
571.1960, 92.82519
571.6782, 93.14038
572.1603, 93.60409
572.6424, 93.61921
573.1245, 93.11579
573.6066, 92.47863
574.0887, 91.43760
574.5709, 90.56809
575.0530, 90.32133
575.5351, 91.51147
576.0172, 92.22646
576.4993, 92.18491
576.9814, 91.75654
577.4636, 91.55466
577.9457, 91.71769
578.4278, 91.71693
578.9099, 91.31821
579.3920, 90.69810
579.8741, 90.65330
580.3563, 91.23550
580.8384, 91.69109
581.3205, 91.39106
581.8026, 90.62369
582.2847, 90.30225
582.7668, 90.46001
583.2490, 90.59759
583.7311, 90.07479
584.2132, 89.36574
584.6953, 89.12051
585.1774, 89.65857
585.6595, 90.28239
586.1416, 90.86024
586.6237, 91.23629
587.1058, 91.18591
587.5880, 89.99706
588.0701, 89.09915
588.5522, 88.94888
589.0343, 89.39135
589.5164, 89.76337
589.9985, 90.15718
590.4807, 90.31624
590.9628, 90.03120
591.4449, 89.28630
591.9270, 88.94505
592.4091, 89.07811
592.8912, 89.30803
593.3734, 89.34651
593.8555, 89.19930
594.3376, 88.80936
594.8197, 88.08193
595.3018, 87.48106
595.7839, 87.67536
596.2661, 88.35096
596.7482, 88.90794
597.2303, 89.16521
597.7124, 89.19035
598.1945, 88.81498
598.6766, 88.21726
599.1588, 87.91871
599.6409, 88.40503
600.1230, 88.90971
600.6051, 89.17761
601.0872, 89.19983
601.5693, 88.99207
602.0515, 88.36042
602.5336, 87.76368
603.0157, 87.49209
603.4978, 87.59192
603.9799, 87.74854
604.4620, 87.97849
604.9442, 88.19389
605.4263, 88.19286
605.9084, 88.03954
606.3905, 88.16799
606.8726, 88.85622
607.3547, 89.52468
607.8369, 89.31229
608.3190, 88.50175
608.8011, 87.80714
609.2832, 87.50992
609.7653, 87.49431
610.2474, 87.90437
610.7296, 88.64600
611.2117, 89.01302
611.6938, 88.46936
612.1759, 87.79471
612.6580, 87.34364
613.1401, 87.12692
613.6223, 87.11120
614.1044, 87.42848
614.5865, 87.76848
615.0686, 87.82814
615.5507, 87.56828
616.0328, 87.37176
616.5150, 87.26865
616.9971, 87.26291
617.4792, 87.40693
617.9613, 87.66985
618.4434, 87.91264
618.9255, 88.13521
619.4077, 88.26059
619.8898, 88.14077
620.3719, 87.84005
620.8540, 87.55835
621.3361, 87.40803
621.8182, 87.29755
622.3004, 87.19023
622.7825, 87.08347
623.2646, 86.95222
623.7467, 86.61449
624.2288, 86.40490
624.7109, 86.56343
625.1931, 87.34544
625.6752, 87.54439
626.1573, 86.89116
626.6394, 86.10195
627.1215, 86.01598
627.6036, 86.64604
628.0858, 87.01698
628.5679, 86.91694
629.0500, 86.66648
629.5321, 86.76509
630.0142, 87.12212
630.4963, 87.44044
630.9785, 87.47865
631.4606, 87.55547
631.9427, 88.11507
632.4248, 88.97349
632.9069, 89.54276
633.3890, 89.39600
633.8712, 89.06642
634.3533, 88.74485
634.8354, 88.44033
635.3175, 88.20928
635.7996, 88.05588
636.2817, 87.96940
636.7639, 87.93506
637.2460, 87.93985
637.7281, 88.08489
638.2102, 88.41140
638.6923, 88.75809
639.1744, 88.86166
639.6566, 88.79009
640.1387, 89.07663
640.6208, 89.98621
641.1029, 90.74182
641.5850, 90.08083
642.0671, 88.63013
642.5493, 87.63161
643.0314, 88.06164
643.5135, 88.63515
643.9956, 88.76850
644.4777, 88.52789
644.9598, 88.12601
645.4420, 87.15551
645.9241, 86.51995
646.4062, 86.63517
646.8883, 87.45486
647.3704, 87.89751
647.8525, 87.84660
648.3347, 87.66764
648.8168, 87.59457
649.2989, 87.61819
649.7810, 87.40565
650.2631, 86.92198
650.7452, 86.48656
651.2274, 86.38760
651.7095, 86.56931
652.1916, 87.01735
652.6737, 87.83907
653.1558, 88.45039
653.6379, 88.15084
654.1201, 87.47517
654.6022, 87.12712
655.0843, 87.84687
655.5664, 88.29826
656.0485, 87.83447
656.5306, 86.93236
657.0128, 86.71962
657.4949, 87.72731
657.9770, 88.40423
658.4591, 88.24721
658.9412, 87.48466
659.4233, 87.12879
659.9055, 87.20650
660.3876, 87.39365
660.8697, 87.55782
661.3518, 87.69273
661.8339, 87.75296
662.3160, 87.74599
662.7982, 87.78001
663.2803, 88.10027
663.7624, 88.40089
664.2445, 88.28345
664.7266, 87.59366
665.2087, 87.15028
665.6909, 87.44041
666.1730, 87.96492
666.6551, 88.30694
667.1372, 88.33237
667.6193, 88.39779
668.1014, 88.59514
668.5836, 88.73766
669.0657, 88.41072
669.5478, 87.53340
670.0299, 87.24956
670.5120, 87.98973
670.9941, 89.08549
671.4763, 89.29977
671.9584, 88.81957
672.4405, 88.37760
672.9226, 88.27650
673.4047, 88.37391
673.8868, 88.71565
674.3690, 89.18693
674.8511, 89.39124
675.3332, 88.87573
675.8153, 88.33860
676.2974, 88.06973
676.7795, 88.08926
677.2617, 88.19434
677.7438, 88.54716
678.2259, 88.73593
678.7080, 88.41879
679.1901, 87.53283
679.6722, 87.22903
680.1544, 87.56216
680.6365, 88.12257
681.1186, 88.60581
681.6007, 89.01599
682.0828, 89.41138
682.5649, 89.82264
683.0471, 90.06030
683.5292, 89.76125
684.0113, 89.27418
684.4934, 89.03255
684.9755, 89.35244
685.4576, 89.61009
685.9398, 89.71388
686.4219, 89.63834
686.9040, 89.32522
687.3861, 88.49138
687.8682, 88.01305
688.3503, 88.14294
688.8325, 88.62891
689.3146, 88.78572
689.7967, 88.60799
690.2788, 88.52638
690.7609, 88.79712
691.2430, 89.21107
691.7252, 89.34502
692.2073, 89.26529
692.6894, 89.26553
693.1715, 89.71563
693.6536, 90.14668
694.1357, 90.15833
694.6179, 89.75147
695.1000, 89.42564
695.5821, 89.35130
696.0642, 89.34097
696.5463, 89.28781
697.0284, 89.16109
697.5106, 89.21346
697.9927, 89.49877
698.4748, 89.84010
698.9569, 90.16204
699.4390, 90.44249
699.9211, 90.39130
700.4033, 89.94691
700.8854, 89.51305
701.3675, 89.52995
701.8496, 89.81782
702.3317, 90.12685
702.8138, 90.46461
703.2960, 90.63158
703.7781, 90.29613
704.2602, 89.82018
704.7423, 89.64670
705.2244, 90.33293
705.7065, 90.67631
706.1887, 90.41126
706.6708, 89.86181
707.1529, 89.60351
707.6350, 89.65916
708.1171, 89.89271
708.5992, 90.36048
709.0814, 90.87315
709.5635, 90.99863
710.0456, 90.80165
710.5277, 90.58986
711.0098, 90.57332
711.4919, 90.56528
711.9741, 90.26431
712.4562, 89.79613
712.9383, 89.65124
713.4204, 90.41850
713.9025, 91.15910
714.3846, 91.41875
714.8668, 91.22587
715.3489, 91.14873
715.8310, 91.26744
716.3131, 91.33786
716.7952, 91.15633
717.2773, 90.76080
717.7595, 90.72250
718.2416, 91.05723
718.7237, 91.49077
719.2058, 91.88478
719.6879, 92.20383
720.1700, 92.39365
720.6522, 92.45181
721.1343, 92.35764
721.6164, 91.87357
722.0985, 91.37548
722.5806, 91.15804
723.0627, 91.32323
723.5449, 91.67507
724.0270, 92.45885
724.5091, 93.18179
724.9912, 93.30919
725.4733, 92.69821
725.9554, 92.34193
726.4376, 92.35027
726.9197, 92.55244
727.4018, 92.77611
727.8839, 93.00726
728.3660, 93.21188
728.8481, 93.40917
729.3303, 93.51469
729.8124, 93.47825
730.2945, 93.29737
730.7766, 92.96867
731.2587, 91.90746
731.7408, 91.37569
732.2230, 92.05358
732.7051, 93.34813
733.1872, 94.18842
733.6693, 94.45161
734.1514, 94.58492
734.6335, 94.66834
735.1157, 94.70856
735.5978, 94.67612
736.0799, 94.59010
736.5620, 94.61446
737.0441, 95.02993
737.5262, 95.43077
738.0084, 95.19767
738.4905, 94.52563
738.9726, 94.07774
739.4547, 94.22667
739.9368, 94.57796
740.4189, 95.05570
740.9011, 95.63499
741.3832, 96.02852
741.8653, 96.17238
742.3474, 96.24753
742.8295, 96.31954
743.3116, 96.38466
743.7938, 96.43967
744.2759, 96.48679
744.7580, 96.43213
745.2401, 96.01176
745.7222, 95.53775
746.2043, 95.62643
746.6865, 96.26631
747.1686, 96.72771
747.6507, 96.29048
748.1328, 95.78387
748.6149, 95.77779
749.0970, 96.43129
749.5792, 97.15475
750.0613, 98.20364
750.5434, 98.97091
751.0255, 98.95222
751.5076, 98.05287
751.9897, 97.47897
752.4719, 97.25565
752.9540, 97.26556
753.4361, 97.45956
753.9182, 97.78442
754.4003, 98.13720
754.8824, 98.49702
755.3646, 98.91074
755.8467, 99.63309
756.3288, 100.2965
756.8109, 100.4993
757.2930, 99.81125
757.7751, 99.44450
758.2573, 99.62894
758.7394, 99.99810
759.2215, 100.2040
759.7036, 100.2214
760.1857, 100.2458
760.6678, 100.2707
761.1500, 100.3877
761.6321, 100.7810
762.1142, 101.3514
762.5963, 101.8766
763.0784, 102.3202
763.5605, 102.6453
764.0427, 102.6235
764.5248, 102.5454
765.0069, 102.7752
765.4890, 103.7693
765.9711, 104.5770
766.4532, 105.0816
766.9354, 105.4126
767.4175, 105.8005
767.8996, 106.3001
768.3817, 106.4475
768.8638, 106.0362
769.3459, 105.5412
769.8281, 105.8166
770.3102, 106.6447
770.7923, 107.3830
771.2744, 107.7705
771.7565, 108.0660
772.2386, 108.3846
772.7208, 108.7497
773.2029, 109.2022
773.6850, 110.0187
774.1671, 110.5651
774.6492, 110.5811
775.1313, 110.3622
775.6135, 110.5928
776.0956, 111.3475
776.5777, 111.9526
777.0598, 112.0992
777.5419, 112.1999
778.0240, 113.1846
778.5062, 114.7817
778.9883, 116.1477
779.4704, 116.7556
779.9525, 117.1485
780.4346, 117.5997
780.9167, 118.0854
781.3989, 118.5572
781.8810, 118.7471
782.3631, 119.2710
782.8452, 120.4179
783.3273, 121.9044
783.8094, 122.8095
784.2916, 123.0589
784.7737, 123.5520
785.2558, 124.7828
785.7379, 126.2625
786.2200, 126.8431
786.7021, 126.8427
787.1843, 127.2959
787.6664, 129.2972
788.1485, 131.3306
788.6306, 132.4126
789.1127, 132.8021
789.5948, 133.4689
790.0770, 134.5993
790.5591, 135.9288
791.0412, 137.5731
791.5233, 139.3120
792.0054, 140.1486
792.4875, 140.0473
792.9697, 140.3934
793.4518, 142.1785
793.9339, 144.4237
794.4160, 145.3833
794.8981, 145.4169
795.3802, 145.7243
795.8624, 147.1271
796.3445, 148.6852
796.8266, 150.0679
797.3087, 151.2370
797.7908, 152.1204
798.2729, 152.4911
798.7551, 153.0069
799.2372, 153.8904
799.7193, 155.0613
800.2014, 156.2333
800.6835, 157.4093
801.1656, 158.7013
801.6478, 160.3786
802.1299, 162.0226
802.6120, 163.0040
803.0941, 163.5258
803.5762, 164.2584
804.0583, 165.3617
804.5405, 166.8275
805.0226, 168.7547
805.5047, 171.0556
805.9868, 173.4578
806.4689, 175.9463
806.9510, 178.5212
807.4332, 181.2374
807.9153, 183.9986
808.3974, 186.4695
808.8795, 188.6687
809.3616, 190.7091
809.8438, 192.4217
810.3259, 194.1693
810.8080, 196.3265
811.2901, 198.7634
811.7722, 201.1098
812.2543, 203.1826
812.7365, 205.2453
813.2186, 207.3002
813.7007, 209.4088
814.1828, 211.8414
814.6649, 214.6831
815.1470, 217.2332
815.6292, 219.0414
816.1113, 220.5677
816.5934, 222.8517
817.0755, 225.6224
817.5576, 227.9487
818.0397, 229.0722
818.5219, 229.9437
819.0040, 231.0413
819.4861, 232.2762
819.9682, 233.3241
820.4503, 234.2530
820.9324, 234.8582
821.4146, 234.9753
821.8967, 234.8281
822.3788, 235.0200
822.8609, 235.5264
823.3430, 235.9880
823.8251, 236.3249
824.3073, 236.4785
824.7894, 236.2434
825.2715, 235.7862
825.7536, 235.4586
826.2357, 235.3157
826.7178, 235.4085
827.2000, 235.9062
827.6821, 236.6126
828.1642, 237.1239
828.6463, 237.3192
829.1284, 237.7972
829.6105, 238.7560
830.0927, 239.9434
830.5748, 240.9903
831.0569, 241.8972
831.5390, 242.6655
832.0211, 243.2393
832.5032, 243.7894
832.9854, 244.6705
833.4675, 245.5381
833.9496, 245.8461
834.4317, 244.6095
834.9138, 244.0413
835.3959, 244.5657
835.8781, 245.5475
836.3602, 245.9539
836.8423, 245.7822
837.3244, 245.8764
837.8065, 246.3677
838.2886, 247.2616
838.7708, 248.5180
839.2529, 250.2042
839.7350, 252.4114
840.2171, 255.0629
840.6992, 258.4585
841.1813, 263.3896
841.6635, 268.7314
842.1456, 273.2272
842.6277, 276.2398
843.1098, 280.3517
843.5919, 285.8433
844.0740, 292.0874
844.5562, 298.0812
845.0383, 304.1736
845.5204, 311.5135
846.0025, 320.4156
846.4846, 329.5689
846.9667, 337.8209
847.4489, 346.0352
847.9310, 354.9429
848.4131, 364.9547
848.8952, 375.1075
849.3773, 385.4581
849.8594, 395.8974
850.3416, 406.2081
850.8237, 416.4094
851.3058, 427.5706
851.7879, 439.8959
852.2700, 451.8644
852.7521, 461.9854
853.2343, 471.4738
853.7164, 481.9804
854.1985, 493.6301
854.6806, 504.8199
855.1627, 515.4063
855.6448, 525.0134
856.1270, 533.5853
856.6091, 541.1677
857.0912, 547.1663
857.5733, 551.4072
858.0554, 554.7309
858.5375, 557.8826
859.0197, 560.4066
859.5018, 561.1746
859.9839, 560.3241
860.4660, 558.7475
860.9481, 557.5352
861.4302, 555.1686
861.9124, 550.4453
862.3945, 543.5104
862.8766, 536.5289
863.3587, 529.8074
863.8408, 522.6646
864.3229, 515.0484
864.8051, 506.8112
865.2872, 497.5659
865.7693, 487.3654
866.2514, 476.9433
866.7335, 467.0291
867.2156, 456.7918
867.6978, 445.4248
868.1799, 433.4199
868.6620, 421.7094
869.1441, 410.7660
869.6262, 399.9999
870.1083, 389.3651
870.5905, 378.6929
871.0726, 367.7046
871.5547, 356.2828
872.0368, 345.0002
872.5189, 334.0073
873.0010, 323.1878
873.4832, 312.4865
873.9653, 301.6841
874.4474, 290.4622
874.9295, 278.1127
875.4116, 266.2548
875.8937, 254.9885
876.3759, 244.5491
876.8580, 235.4521
877.3401, 227.9034
877.8222, 220.5442
878.3043, 213.2500
878.7864, 206.1855
879.2686, 199.2698
879.7507, 192.6875
880.2328, 186.8480
880.7149, 181.8534
881.1970, 177.1513
881.6791, 172.3933
882.1613, 167.9065
882.6434, 163.9511
883.1255, 160.6133
883.6076, 157.0180
884.0897, 152.9895
884.5718, 149.2762
885.0540, 146.4474
885.5361, 144.3068
886.0182, 142.5238
886.5003, 141.0097
886.9824, 139.2553
887.4645, 136.5823
887.9467, 133.8988
888.4288, 131.7447
888.9109, 130.1410
889.3930, 128.7231
889.8751, 127.6809
890.3572, 126.3865
890.8394, 124.5540
891.3215, 122.4219
891.8036, 120.6098
892.2857, 119.1218
892.7678, 117.8982
893.2499, 117.0962
893.7321, 116.3527
894.2142, 115.3844
894.6963, 114.2752
895.1784, 113.2014
895.6605, 112.2502
896.1426, 111.2434
896.6248, 110.1621
897.1069, 109.0097
897.5890, 107.6730
898.0711, 106.1931
898.5532, 105.1338
899.0353, 104.6405
899.5175, 104.3142
899.9996, 103.7381
900.4817, 103.1203
900.9638, 102.7634
901.4459, 102.9186
901.9280, 102.7077
902.4102, 101.7062
902.8923, 100.7183
903.3744, 100.4095
903.8565, 100.7976
904.3386, 100.7440
904.8207, 100.2396
905.3029, 99.47488
905.7850, 98.27100
906.2671, 97.10951
906.7492, 96.69645
907.2313, 96.99007
907.7134, 96.94170
908.1956, 95.77405
908.6777, 94.72990
909.1598, 94.18921
909.6419, 94.10136
910.1240, 94.40057
910.6061, 95.10053
911.0883, 95.33925
911.5704, 94.41135
912.0525, 93.22980
912.5346, 93.13006
913.0167, 93.66270
913.4988, 93.85273
913.9810, 92.84644
914.4631, 92.12131
914.9452, 92.17007
915.4273, 92.51820
915.9094, 92.43024
916.3915, 91.85472
916.8737, 91.58510
917.3558, 91.78389
917.8379, 92.07101
918.3200, 92.12133
918.8021, 91.93774
919.2842, 91.42190
919.7664, 90.42332
920.2485, 89.74195
920.7306, 89.95165
921.2127, 90.27686
921.6948, 90.26370
922.1769, 89.89384
922.6591, 89.37289
923.1412, 88.65829
923.6233, 88.20705
924.1054, 88.68591
924.5875, 89.41854
925.0696, 89.32269
925.5518, 88.53286
926.0339, 87.92245
926.5160, 87.90231
926.9981, 88.07198
927.4802, 88.44524
927.9623, 88.86587
928.4445, 88.76018
928.9266, 88.07203
929.4087, 87.56189
929.8908, 87.50401
930.3729, 87.61757
930.8550, 87.42454
931.3372, 87.14849
931.8193, 87.22370
932.3014, 88.21806
932.7835, 88.84013
933.2656, 88.54707
933.7477, 87.94627
934.2299, 87.57922
934.7120, 87.48894
935.1941, 87.16638
935.6762, 86.54564
936.1583, 86.05939
936.6404, 86.23813
937.1226, 86.73142
937.6047, 87.11869
938.0868, 87.35754
938.5689, 87.48994
939.0510, 87.42752
939.5331, 87.36830
940.0153, 87.43145
940.4974, 87.57065
940.9795, 87.42714
941.4616, 86.99404
941.9437, 86.59961
942.4258, 86.49920
942.9080, 86.40124
943.3901, 85.77049
943.8722, 84.89809
944.3543, 84.40744
944.8364, 84.78635
945.3185, 85.19191
945.8007, 85.54138
946.2828, 85.81876
946.7649, 86.04354
947.2470, 86.21172
947.7291, 86.04591
948.2112, 85.44888
948.6934, 84.96339
949.1755, 85.36333
949.6576, 86.00279
950.1397, 86.11327
950.6218, 85.47708
951.1039, 85.02525
951.5861, 84.91905
952.0682, 84.95243
952.5503, 85.05901
953.0324, 85.22410
953.5145, 85.42822
953.9966, 85.64629
954.4788, 85.59396
954.9609, 84.75677
955.4430, 83.90328
955.9251, 83.68127
956.4072, 83.92699
956.8893, 84.20110
957.3715, 84.45372
957.8536, 84.71802
958.3357, 85.06834
958.8178, 85.32293
959.2999, 84.98077
959.7820, 84.23897
960.2642, 84.09577
960.7463, 84.84148
961.2284, 85.58195
961.7105, 85.70090
962.1926, 85.50450
962.6747, 85.22646
963.1569, 84.86088
963.6390, 84.57735
964.1211, 84.42083
964.6032, 84.21413
965.0853, 83.70635
965.5674, 83.10584
966.0496, 83.24040
966.5317, 83.92606
967.0138, 84.28389
967.4959, 83.22408
967.9780, 82.38094
968.4601, 82.96297
968.9423, 84.25261
969.4244, 84.49223
969.9065, 83.31473
970.3886, 82.70992
970.8707, 83.12146
971.3528, 83.88278
971.8350, 84.21474
972.3171, 84.21970
972.7992, 84.06118
973.2813, 83.73336
973.7634, 83.41867
974.2455, 83.07841
974.7277, 82.87679
975.2098, 82.97958
975.6919, 83.39377
976.1740, 83.47572
976.6561, 83.20931
977.1382, 82.95761
977.6204, 83.05054
978.1025, 83.20401
978.5846, 82.99331
979.0667, 82.55201
979.5488, 82.27654
980.0309, 82.54465
980.5131, 82.64703
980.9952, 82.41756
981.4773, 82.02903
981.9594, 81.67513
982.4415, 81.38589
982.9236, 81.49022
983.4058, 82.10618
983.8879, 82.72398
984.3700, 83.09077
984.8521, 83.13886
985.3342, 82.67414
985.8163, 81.48335
986.2985, 80.85967
986.7806, 81.02786
987.2627, 81.27321
987.7448, 81.23488
988.2269, 80.98853
988.7090, 80.71783
989.1912, 80.43782
989.6733, 80.20792
990.1554, 80.03786
990.6375, 79.94866
991.1196, 79.85878
991.6017, 79.90054
992.0839, 80.41782
992.5660, 81.69135
993.0481, 82.07140
993.5302, 81.20940
994.0123, 80.07935
994.4944, 79.81802
994.9766, 80.00339
995.4587, 79.97546
995.9408, 79.62986
996.4229, 79.39429
996.9050, 79.42616
997.3871, 79.60300
997.8693, 80.01186
998.3514, 80.53035
998.8335, 80.18945
999.3156, 79.05724
999.7977, 78.32298
1000.280, 78.79009
1000.762, 79.51460
1001.244, 79.59218
1001.726, 79.33442
1002.208, 79.27583
1002.690, 79.88885
1003.173, 79.98737
1003.655, 79.28071
1004.137, 78.57522
1004.619, 78.94588
1005.101, 80.00874
1005.583, 80.29475
1006.065, 79.75264
1006.547, 79.29239
1007.029, 79.62878
1007.512, 80.03645
1007.994, 80.05692
1008.476, 79.77558
1008.958, 79.56252
1009.440, 79.40536
1009.922, 79.42178
1010.404, 79.73560
1010.886, 80.04604
1011.369, 79.89050
1011.851, 79.45148
1012.333, 79.02368
1012.815, 78.63074
1013.297, 78.37485
1013.779, 78.27921
1014.261, 78.30891
1014.743, 78.48743
1015.225, 78.80454
1015.708, 79.04006
1016.190, 79.19075
1016.672, 79.19352
1017.154, 78.68720
1017.636, 78.31410
1018.118, 78.79279
1018.600, 79.79077
1019.082, 80.16438
1019.565, 79.53083
1020.047, 79.18270
1020.529, 79.40269
1021.011, 79.77468
1021.493, 79.65491
1021.975, 79.27273
1022.457, 79.13392
1022.939, 79.34844
1023.421, 79.57137
1023.904, 79.75779
1024.386, 79.79911
1024.868, 79.60711
1025.350, 79.21536
1025.832, 78.89125
1026.314, 78.63673
1026.796, 78.58491
1027.278, 78.93502
1027.760, 79.33728
1028.243, 79.43931
1028.725, 79.35470
1029.207, 79.26500
1029.689, 79.06531
1030.171, 79.15722
1030.653, 79.70996
1031.135, 80.20829
1031.617, 79.99451
1032.100, 79.34144
1032.582, 79.07322
1033.064, 79.20338
1033.546, 79.33985
1034.028, 79.10404
1034.510, 79.00504
1034.992, 79.43844
1035.474, 80.16520
1035.957, 80.49875
1036.439, 80.43126
1036.921, 80.12349
1037.403, 79.50909
1037.885, 79.03080
1038.367, 79.32791
1038.849, 79.98988
1039.331, 80.56290
1039.813, 81.04903
1040.296, 81.03752
1040.778, 80.18077
1041.260, 79.52442
1041.742, 79.79580
1042.224, 80.65825
1042.706, 80.97085
1043.188, 80.83533
1043.670, 80.66380
1044.152, 80.66990
1044.635, 80.65955
1045.117, 80.58690
1045.599, 80.43196
1046.081, 80.10036
1046.563, 79.51950
1047.045, 79.38530
1047.527, 79.76949
1048.009, 80.26922
1048.492, 80.58198
1048.974, 80.78407
1049.456, 80.97399
1049.938, 81.14774
1050.420, 81.16322
1050.902, 80.94592
1051.384, 80.69720
1051.866, 80.41878
1052.349, 80.20645
1052.831, 80.37082
1053.313, 80.74435
1053.795, 80.82659
1054.277, 80.41496
1054.759, 80.04241
1055.241, 79.93225
1055.723, 79.97158
1056.205, 80.09406
1056.688, 80.29750
1057.170, 80.55587
1057.652, 80.86974
1058.134, 81.05614
1058.616, 80.97168
1059.098, 80.77341
1059.580, 80.47305
1060.062, 80.19631
1060.544, 80.20467
1061.027, 80.81219
1061.509, 81.11185
1061.991, 81.01667
1062.473, 80.76320
1062.955, 80.51461
1063.437, 80.29715
1063.919, 80.14697
1064.401, 80.07473
1064.884, 80.13475
1065.366, 80.43682
1065.848, 80.79277
1066.330, 81.26530
1066.812, 81.66370
1067.294, 81.37581
1067.776, 80.50227
1068.258, 80.12978
1068.740, 80.54853
1069.223, 81.13470
1069.705, 81.64354
1070.187, 81.92249
1070.669, 81.72899
1071.151, 81.03169
1071.633, 80.59553
1072.115, 80.42549
1072.597, 80.50413
1073.079, 80.98629
1073.562, 81.49407
1074.044, 81.31240
1074.526, 80.76797
1075.008, 80.47557
1075.490, 80.87474
1075.972, 81.04581
1076.454, 80.74836
1076.936, 80.48547
1077.419, 80.81551
1077.901, 81.53657
1078.383, 81.60362
1078.865, 81.10079
1079.347, 80.68893
1079.829, 80.75279
1080.311, 80.96734
1080.793, 81.35800
1081.275, 81.72950
1081.758, 81.72537
1082.240, 81.32059
1082.722, 80.96683
1083.204, 80.71174
1083.686, 80.56203
1084.168, 80.60034
1084.650, 80.68382
1085.132, 80.69932
1085.615, 80.63338
1086.097, 80.45560
1086.579, 80.06246
1087.061, 79.91708
1087.543, 80.23753
1088.025, 80.69056
1088.507, 80.71352
1088.989, 80.48911
1089.471, 80.35892
1089.953, 80.45168
1090.436, 80.43457
1090.918, 80.15162
1091.400, 79.84804
1091.882, 79.56413
1092.364, 79.37253
1092.846, 79.82990
1093.328, 80.75282
1093.810, 81.28419
1094.293, 80.76575
1094.775, 80.12831
1095.257, 79.70298
1095.739, 79.44625
1096.221, 79.30136
1096.703, 79.26440
1097.185, 79.40336
1097.667, 79.72308
1098.150, 80.08842
1098.632, 80.36012
1099.114, 80.66292
1099.596, 81.32188
1100.078, 82.10056
1100.560, 82.18469
1101.042, 81.18533
1101.524, 80.61624
1102.006, 80.75350
1102.489, 81.06307
1102.971, 80.79813
1103.453, 80.37075
1103.935, 80.57014
1104.417, 81.43748
1104.899, 81.88708
1105.381, 81.37527
1105.863, 80.81849
1106.345, 80.38248
1106.828, 80.12670
1107.310, 80.25988
1107.792, 80.68655
1108.274, 81.15548
1108.756, 81.66504
1109.238, 81.96630
1109.720, 81.68324
1110.202, 81.41221
1110.685, 81.57070
1111.167, 82.05557
1111.649, 81.98905
1112.131, 81.43491
1112.613, 81.03390
1113.095, 81.14941
1113.577, 81.35591
1114.059, 81.47343
1114.542, 81.44013
1115.024, 81.14735
1115.506, 80.49792
1115.988, 80.09874
1116.470, 79.96249
1116.952, 79.94633
1117.434, 79.88934
1117.916, 79.95517
1118.398, 80.47371
1118.880, 81.24029
1119.363, 81.74950
1119.845, 81.88906
1120.327, 81.87179
1120.809, 81.69339
1121.291, 81.41591
1121.773, 80.94302
1122.255, 80.48782
1122.737, 80.47452
1123.220, 80.87222
1123.702, 81.32858
1124.184, 81.96150
1124.666, 82.28544
1125.148, 82.12170
1125.630, 81.74748
1126.112, 81.65904
1126.594, 81.72623
1127.077, 81.41653
1127.559, 80.63037
1128.041, 80.22591
1128.523, 81.08335
1129.005, 81.90930
1129.487, 82.15214
1129.969, 81.94251
1130.451, 81.53922
1130.933, 81.00378
1131.416, 80.90140
1131.898, 81.51936
1132.380, 82.00652
1132.862, 81.53048
1133.344, 80.89982
1133.826, 80.77088
1134.308, 81.12249
1134.790, 81.49853
1135.272, 81.90415
1135.755, 82.14066
1136.237, 82.08131
1136.719, 81.91390
1137.201, 81.76016
1137.683, 81.63163
1138.165, 81.54384
1138.647, 81.49149
1139.129, 81.51534
1139.612, 81.62763
1140.094, 81.73966
1140.576, 81.83406
1141.058, 81.86462
1141.540, 81.63977
1142.022, 81.32897
1142.504, 81.30222
1142.986, 81.85503
1143.469, 82.29228
1143.951, 82.64954
1144.433, 82.74296
1144.915, 82.06221
1145.397, 81.18426
1145.879, 81.34240
1146.361, 82.30534
1146.843, 83.00584
1147.325, 82.98296
1147.807, 82.81796
1148.290, 82.52485
1148.772, 82.22215
1149.254, 82.02663
1149.736, 81.94073
1150.218, 82.00974
1150.700, 82.21918
1151.182, 82.37341
1151.664, 82.30891
1152.147, 82.27934
1152.629, 82.37956
1153.111, 82.52548
1153.593, 82.51553
1154.075, 82.40879
1154.557, 82.45934
1155.039, 82.71160
1155.521, 83.00899
1156.004, 83.48695
1156.486, 83.71806
1156.968, 83.33533
1157.450, 82.66540
1157.932, 82.91407
1158.414, 83.91062
1158.896, 84.36607
1159.378, 83.86253
1159.860, 83.29178
1160.343, 83.20231
1160.825, 83.30985
1161.307, 83.45659
1161.789, 83.61767
1162.271, 83.55706
1162.753, 83.29097
1163.235, 83.24586
1163.717, 83.72885
1164.199, 84.08463
1164.682, 83.43649
1165.164, 82.63493
1165.646, 82.60885
1166.128, 83.41785
1166.610, 83.91695
1167.092, 84.09984
1167.574, 84.00027
1168.056, 83.37592
1168.539, 82.85722
1169.021, 83.23238
1169.503, 83.96452
1169.985, 84.26798
1170.467, 83.96935
1170.949, 83.94011
1171.431, 84.22807
1171.913, 84.36706
1172.396, 83.69730
1172.878, 83.05676
1173.360, 83.60391
1173.842, 84.74809
1174.324, 85.30928
1174.806, 84.89795
1175.288, 84.69825
1175.770, 84.73831
1176.252, 84.97219
1176.734, 85.66824
1177.217, 86.30908
1177.699, 86.05189
1178.181, 85.20165
1178.663, 84.69022
1179.145, 84.80488
1179.627, 84.86642
1180.109, 84.83125
1180.591, 84.72233
1181.074, 84.30822
1181.556, 83.99633
1182.038, 84.61491
1182.520, 85.93661
1183.002, 86.72553
1183.484, 86.70156
1183.966, 86.23616
1184.448, 85.12914
1184.931, 84.34185
1185.413, 85.53202
1185.895, 87.48337
1186.377, 88.13609
1186.859, 87.50838
1187.341, 86.99064
1187.823, 86.93784
1188.305, 86.83674
1188.787, 86.58975
1189.270, 86.26891
1189.752, 85.86181
1190.234, 85.49932
1190.716, 85.43656
1191.198, 85.69132
1191.680, 85.97864
1192.162, 86.26573
1192.644, 86.53719
1193.126, 86.81055
1193.609, 87.02755
1194.091, 87.18914
1194.573, 87.19060
1195.055, 86.61980
1195.537, 85.36240
1196.019, 84.88606
1196.501, 86.12350
1196.983, 87.02621
1197.466, 86.89016
1197.948, 86.26186
1198.430, 86.03118
1198.912, 86.09587
1199.394, 86.30249
1199.876, 86.65149
1200.358, 86.87172
1200.840, 86.84253
1201.323, 86.79556
1201.805, 86.79729
1202.287, 86.85352
1202.769, 86.97263
1203.251, 87.15855
1203.733, 87.44442
1204.215, 87.88987
1204.697, 88.19901
1205.179, 88.24306
1205.661, 88.32643
1206.144, 88.62624
1206.626, 89.00119
1207.108, 89.20437
1207.590, 89.21148
1208.072, 88.87293
1208.554, 87.89040
1209.036, 87.51160
1209.518, 88.21816
1210.001, 88.89585
1210.483, 88.93896
1210.965, 88.61429
1211.447, 88.47878
1211.929, 88.49720
1212.411, 88.58668
1212.893, 88.70348
1213.375, 88.97369
1213.858, 89.51266
1214.340, 89.97212
1214.822, 90.15823
1215.304, 90.13316
1215.786, 89.91011
1216.268, 89.61952
1216.750, 89.58829
1217.232, 90.19653
1217.714, 90.40752
1218.197, 89.98646
1218.679, 89.53041
1219.161, 89.39645
1219.643, 89.50420
1220.125, 89.87649
1220.607, 90.32107
1221.089, 90.37480
1221.571, 89.38622
1222.053, 89.01472
1222.536, 89.49320
1223.018, 90.17217
1223.500, 90.72049
1223.982, 91.11053
1224.464, 91.26009
1224.946, 91.20191
1225.428, 91.00785
1225.910, 90.55608
1226.393, 90.17184
1226.875, 89.80124
1227.357, 89.68053
1227.839, 90.19091
1228.321, 90.93143
1228.803, 91.16331
1229.285, 91.10925
1229.767, 91.30206
1230.250, 92.32915
1230.732, 92.57993
1231.214, 91.85318
1231.696, 91.06216
1232.178, 90.96169
1232.660, 91.18107
1233.142, 91.15173
1233.624, 91.05175
1234.106, 91.35970
1234.589, 92.53483
1235.071, 93.02123
1235.553, 92.69481
1236.035, 92.15823
1236.517, 91.63184
1236.999, 91.34900
1237.481, 91.84684
1237.963, 92.74710
1238.445, 93.17348
1238.928, 92.95829
1239.410, 92.63502
1239.892, 92.18890
1240.374, 91.89057
1240.856, 92.08894
1241.338, 92.39402
1241.820, 92.46361
1242.302, 92.37119
1242.785, 92.28442
1243.267, 92.21084
1243.749, 92.05710
1244.231, 91.80267
1244.713, 91.88948
1245.195, 93.24779
1245.677, 94.45454
1246.159, 94.12118
1246.641, 93.00800
1247.124, 92.53672
1247.606, 92.75943
1248.088, 93.03596
1248.570, 93.33595
1249.052, 93.66912
1249.534, 94.35185
1250.016, 94.73454
1250.498, 93.98396
1250.980, 92.96326
1251.463, 92.87023
1251.945, 93.69180
1252.427, 94.44040
1252.909, 95.05015
1253.391, 95.25166
1253.873, 94.40983
1254.355, 93.68005
1254.837, 93.58464
1255.320, 93.84032
1255.802, 94.28893
1256.284, 94.85425
1256.766, 94.92029
1257.248, 94.54852
1257.730, 94.35011
1258.212, 94.98288
1258.694, 95.33886
1259.177, 94.93669
1259.659, 94.44331
1260.141, 94.62918
1260.623, 95.28848
1261.105, 95.81017
1261.587, 96.15984
1262.069, 96.30484
1262.551, 96.04014
1263.033, 95.84936
1263.516, 95.83358
1263.998, 95.81886
1264.480, 95.40600
1264.962, 94.97449
1265.444, 95.64079
1265.926, 97.03564
1266.408, 97.74909
1266.890, 96.86330
1267.372, 96.26739
1267.855, 96.06880
1268.337, 96.15183
1268.819, 96.66604
1269.301, 97.22232
1269.783, 97.16856
1270.265, 96.71478
1270.747, 96.45861
1271.229, 96.46155
1271.712, 96.71475
1272.194, 97.27546
1272.676, 97.64715
1273.158, 97.14072
1273.640, 96.55176
1274.122, 96.71135
1274.604, 97.29916
1275.086, 97.64838
1275.568, 97.69117
1276.051, 97.86164
1276.533, 98.17486
1277.015, 98.49496
1277.497, 98.77888
1277.979, 98.99868
1278.461, 99.21554
1278.943, 99.30122
1279.425, 99.02274
1279.907, 98.39072
1280.390, 98.18011
1280.872, 98.34915
1281.354, 98.45448
1281.836, 98.04016
1282.318, 97.80602
1282.800, 98.13654
1283.282, 98.59298
1283.764, 98.78609
1284.247, 98.78410
1284.729, 98.94064
1285.211, 99.20544
1285.693, 99.38330
1286.175, 99.42693
1286.657, 99.28495
1287.139, 98.81948
1287.621, 98.46914
1288.104, 98.74123
1288.586, 99.26806
1289.068, 99.17824
1289.550, 98.72904
1290.032, 98.52075
1290.514, 98.91750
1290.996, 99.16721
1291.478, 99.24816
1291.960, 99.27258
1292.443, 99.19517
1292.925, 99.22521
1293.407, 99.81471
1293.889, 100.6101
1294.371, 101.0297
1294.853, 101.0502
1295.335, 100.6221
1295.817, 99.72425
1296.299, 99.09225
1296.782, 99.12557
1297.264, 99.52105
1297.746, 100.3696
1298.228, 101.2185
1298.710, 101.6273
1299.192, 101.6194
1299.674, 101.4719
1300.156, 101.2323
1300.639, 101.2114
1301.121, 101.6599
1301.603, 102.0665
1302.085, 102.2541
1302.567, 102.2908
1303.049, 102.2036
1303.531, 101.9754
##END=



