##NAMES=Cornwallite
##RRUFFID=R110146
##IDEAL CHEMISTRY=Cu^2+^_5_(As^5+^O_4_)_2_(OH)_4_
##LOCALITY=Arkaroola Station, flinders Ranges, South Australia, Australia
##OWNER=RRUFF
##SOURCE=The University of Arizona Mineral Museum
##DESCRIPTION=Dark green tabular crystals on quartz, associated with lighter green elongated olivenite
##STATUS=The identification of this mineral has been confirmed by single-crystal X-ray diffraction.
##URL=rruff.info/R110146
144.1542, 75.80676
144.6364, 76.39719
145.1185, 76.49842
145.6006, 75.99407
146.0827, 75.71078
146.5648, 76.48586
147.0469, 77.58609
147.5291, 78.22970
148.0112, 78.02454
148.4933, 77.32914
148.9754, 76.93619
149.4575, 76.93610
149.9396, 77.12054
150.4218, 77.18929
150.9039, 77.40404
151.3860, 78.14159
151.8681, 79.67765
152.3502, 81.93107
152.8323, 84.09813
153.3145, 86.37223
153.7966, 88.34298
154.2787, 89.57640
154.7608, 90.43582
155.2429, 91.62550
155.7250, 93.74386
156.2072, 96.86344
156.6893, 99.78471
157.1714, 102.6063
157.6535, 105.2017
158.1356, 107.3740
158.6177, 109.2137
159.0999, 111.1695
159.5820, 113.8322
160.0641, 117.4390
160.5462, 119.3271
161.0283, 118.4657
161.5104, 116.6905
161.9926, 115.4887
162.4747, 115.0526
162.9568, 114.3573
163.4389, 112.1014
163.9210, 108.3661
164.4031, 104.8259
164.8853, 101.7871
165.3674, 99.09475
165.8495, 96.61213
166.3316, 94.34535
166.8137, 92.18779
167.2958, 89.95422
167.7780, 87.69158
168.2601, 85.67408
168.7422, 84.25258
169.2243, 83.23946
169.7064, 81.88932
170.1885, 79.97630
170.6707, 77.87685
171.1528, 75.74037
171.6349, 73.61369
172.1170, 71.64303
172.5991, 69.91673
173.0812, 68.43325
173.5634, 67.22623
174.0455, 66.52807
174.5276, 65.94296
175.0097, 65.40782
175.4918, 64.86940
175.9739, 64.21880
176.4561, 63.22539
176.9382, 61.59120
177.4203, 60.63630
177.9024, 60.70074
178.3845, 61.08993
178.8666, 61.61695
179.3488, 62.16724
179.8309, 62.57870
180.3130, 62.60264
180.7951, 62.01719
181.2772, 61.51568
181.7593, 60.86683
182.2415, 60.43050
182.7236, 60.59401
183.2057, 61.40913
183.6878, 62.48385
184.1699, 63.23162
184.6520, 63.48893
185.1342, 63.68771
185.6163, 63.75052
186.0984, 63.79191
186.5805, 63.94010
187.0626, 64.23549
187.5447, 64.61568
188.0269, 64.99776
188.5090, 65.40247
188.9911, 65.73928
189.4732, 65.95126
189.9553, 66.08688
190.4374, 66.17487
190.9196, 66.15494
191.4017, 66.25249
191.8838, 66.96099
192.3659, 68.34822
192.8480, 69.40965
193.3301, 69.45975
193.8123, 68.75334
194.2944, 68.25163
194.7765, 68.30851
195.2586, 68.51150
195.7407, 68.50537
196.2228, 68.29167
196.7050, 67.78216
197.1871, 66.67724
197.6692, 65.02020
198.1513, 63.82146
198.6334, 63.79039
199.1155, 63.85252
199.5977, 63.24459
200.0798, 61.93634
200.5619, 60.44044
201.0440, 59.15046
201.5261, 58.03477
202.0082, 57.30301
202.4904, 57.46508
202.9725, 57.68141
203.4546, 57.56153
203.9367, 57.04924
204.4188, 56.29744
204.9009, 55.43847
205.3831, 54.37660
205.8652, 53.51484
206.3473, 52.97691
206.8294, 52.53924
207.3115, 52.09806
207.7936, 51.62854
208.2758, 51.14774
208.7579, 50.64076
209.2400, 49.89233
209.7221, 49.64383
210.2042, 50.45007
210.6863, 51.28308
211.1685, 51.30003
211.6506, 50.40290
212.1327, 49.25930
212.6148, 48.85420
213.0969, 49.71803
213.5790, 50.25701
214.0612, 50.23589
214.5433, 50.06109
215.0254, 50.01188
215.5075, 50.16438
215.9896, 50.49248
216.4717, 50.99282
216.9539, 51.85865
217.4360, 52.39960
217.9181, 52.52155
218.4002, 52.35706
218.8823, 51.86250
219.3644, 51.02328
219.8466, 50.31492
220.3287, 50.57373
220.8108, 52.08248
221.2929, 52.91863
221.7750, 52.20718
222.2571, 50.92344
222.7393, 50.34816
223.2214, 50.81038
223.7035, 51.60091
224.1856, 51.88968
224.6677, 51.72625
225.1498, 51.38482
225.6320, 50.59221
226.1141, 49.74602
226.5962, 49.69481
227.0783, 50.84909
227.5604, 51.98930
228.0425, 51.55318
228.5247, 49.92985
229.0068, 48.67822
229.4889, 48.71830
229.9710, 49.52548
230.4531, 49.87419
230.9352, 49.44525
231.4174, 48.97894
231.8995, 49.11099
232.3816, 49.66453
232.8637, 50.17521
233.3458, 50.41821
233.8279, 50.44590
234.3101, 50.42603
234.7922, 50.35553
235.2743, 50.24297
235.7564, 49.99840
236.2385, 49.71885
236.7206, 49.62244
237.2028, 50.00801
237.6849, 50.68744
238.1670, 50.79639
238.6491, 49.87347
239.1312, 49.05485
239.6133, 48.81128
240.0955, 48.96912
240.5776, 49.24971
241.0597, 49.54735
241.5418, 49.82323
242.0239, 49.87709
242.5060, 49.61033
242.9882, 49.22939
243.4703, 48.73952
243.9524, 48.19889
244.4345, 47.68185
244.9166, 47.23070
245.3987, 46.83624
245.8809, 46.44539
246.3630, 45.80543
246.8451, 45.53493
247.3272, 46.08769
247.8093, 46.96869
248.2914, 47.47904
248.7736, 47.20738
249.2557, 46.42389
249.7378, 46.25437
250.2199, 47.63168
250.7020, 48.46898
251.1841, 48.04972
251.6663, 47.10313
252.1484, 46.51709
252.6305, 46.72245
253.1126, 47.46917
253.5947, 47.98516
254.0768, 48.45597
254.5590, 48.39294
255.0411, 47.18679
255.5232, 45.66405
256.0053, 44.72351
256.4874, 44.74834
256.9695, 45.46619
257.4517, 46.21962
257.9338, 47.22121
258.4159, 47.99113
258.8980, 48.53355
259.3801, 48.84187
259.8622, 48.83059
260.3444, 48.47929
260.8265, 47.99708
261.3086, 47.77905
261.7907, 48.01579
262.2728, 48.24216
262.7549, 48.38078
263.2371, 48.54185
263.7192, 48.92058
264.2013, 49.55664
264.6834, 50.16921
265.1655, 50.31659
265.6476, 49.72914
266.1298, 49.29668
266.6119, 49.03621
267.0940, 48.93586
267.5761, 49.03578
268.0582, 49.33514
268.5403, 49.69963
269.0225, 49.99329
269.5046, 50.21602
269.9867, 50.30151
270.4688, 50.06797
270.9509, 49.80821
271.4330, 49.85164
271.9152, 50.21781
272.3973, 50.54917
272.8794, 50.48925
273.3615, 49.99641
273.8436, 49.53957
274.3257, 48.96714
274.8079, 48.54202
275.2900, 48.70695
275.7721, 49.41491
276.2542, 49.81058
276.7363, 49.06884
277.2184, 47.35468
277.7006, 46.31715
278.1827, 46.41539
278.6648, 46.83665
279.1469, 47.15548
279.6290, 47.34661
280.1111, 47.28941
280.5933, 46.77598
281.0754, 45.99736
281.5575, 45.61700
282.0396, 45.99216
282.5217, 46.32899
283.0038, 46.01408
283.4860, 45.17643
283.9681, 44.50861
284.4502, 44.39411
284.9323, 44.58403
285.4144, 44.50592
285.8965, 44.02028
286.3787, 43.61486
286.8608, 43.71316
287.3429, 44.14966
287.8250, 44.29049
288.3071, 43.82737
288.7892, 43.11362
289.2714, 42.68244
289.7535, 42.56377
290.2356, 42.43638
290.7177, 42.00770
291.1998, 41.45082
291.6819, 41.29145
292.1641, 41.80115
292.6462, 42.42655
293.1283, 42.48658
293.6104, 42.05468
294.0925, 41.69268
294.5746, 41.58662
295.0568, 41.70667
295.5389, 42.08187
296.0210, 42.83120
296.5031, 43.48877
296.9852, 43.59299
297.4673, 43.28426
297.9495, 42.87025
298.4316, 42.16665
298.9137, 41.52361
299.3958, 41.60260
299.8779, 42.56350
300.3600, 43.53535
300.8422, 43.95200
301.3243, 43.97945
301.8064, 43.83776
302.2885, 43.45580
302.7706, 43.03708
303.2527, 42.77622
303.7349, 42.66980
304.2170, 42.76915
304.6991, 43.26880
305.1812, 43.91338
305.6633, 44.35329
306.1454, 44.50819
306.6276, 44.54689
307.1097, 44.58690
307.5918, 44.62906
308.0739, 44.68282
308.5560, 44.70819
309.0381, 44.79274
309.5203, 45.07466
310.0024, 45.58449
310.4845, 46.01666
310.9666, 45.97004
311.4487, 45.59914
311.9308, 45.74353
312.4130, 46.85499
312.8951, 48.10244
313.3772, 48.75429
313.8593, 48.86927
314.3414, 48.74272
314.8235, 48.29572
315.3057, 47.72403
315.7878, 47.60350
316.2699, 48.15644
316.7520, 48.74055
317.2341, 48.65006
317.7162, 48.22018
318.1984, 48.22670
318.6805, 49.37321
319.1626, 50.91962
319.6447, 51.54391
320.1268, 51.03197
320.6089, 50.67762
321.0911, 51.50130
321.5732, 52.86477
322.0553, 53.89948
322.5374, 54.36876
323.0195, 54.57677
323.5016, 54.82844
323.9838, 55.12673
324.4659, 55.29975
324.9480, 55.18632
325.4301, 54.97734
325.9122, 54.88367
326.3943, 54.91121
326.8765, 55.07802
327.3586, 55.48969
327.8407, 56.09076
328.3228, 56.53899
328.8049, 56.65807
329.2870, 56.73914
329.7692, 57.09622
330.2513, 57.70480
330.7334, 58.32843
331.2155, 59.03356
331.6976, 59.65474
332.1797, 59.64875
332.6619, 58.70114
333.1440, 57.85362
333.6261, 58.40548
334.1082, 59.76070
334.5903, 60.46272
335.0724, 59.43848
335.5546, 57.84320
336.0367, 57.24595
336.5188, 57.73853
337.0009, 58.34214
337.4830, 58.57342
337.9651, 58.51933
338.4473, 58.34662
338.9294, 58.03264
339.4115, 57.66599
339.8936, 57.16589
340.3757, 56.59230
340.8578, 56.50527
341.3400, 57.47773
341.8221, 58.65241
342.3042, 58.67365
342.7863, 57.36660
343.2684, 55.99575
343.7505, 55.17915
344.2327, 54.75464
344.7148, 54.33450
345.1969, 53.82850
345.6790, 53.33600
346.1611, 53.11931
346.6432, 53.11838
347.1254, 52.74363
347.6075, 51.34291
348.0896, 49.72901
348.5717, 48.98885
349.0538, 49.23086
349.5359, 49.76043
350.0181, 50.19466
350.5002, 50.49985
350.9823, 50.59758
351.4644, 50.51315
351.9465, 50.19294
352.4286, 49.38129
352.9108, 48.21640
353.3929, 47.38792
353.8750, 47.34661
354.3571, 47.73839
354.8392, 47.62999
355.3214, 46.73717
355.8035, 46.05395
356.2856, 46.18917
356.7677, 46.72819
357.2498, 46.88706
357.7319, 46.40969
358.2141, 45.69785
358.6962, 45.32626
359.1783, 45.37905
359.6604, 45.23063
360.1425, 44.33559
360.6246, 43.50084
361.1068, 43.68555
361.5889, 44.90694
362.0710, 46.19700
362.5531, 46.81498
363.0352, 46.72750
363.5173, 46.21752
363.9995, 44.62569
364.4816, 43.29836
364.9637, 43.06959
365.4458, 43.63390
365.9279, 44.18964
366.4100, 44.32992
366.8922, 44.15889
367.3743, 44.00244
367.8564, 43.85841
368.3385, 43.72992
368.8206, 43.64032
369.3027, 43.55641
369.7849, 43.38482
370.2670, 43.11185
370.7491, 42.92260
371.2312, 43.12880
371.7133, 44.03468
372.1954, 44.35815
372.6776, 43.67899
373.1597, 42.81919
373.6418, 42.21888
374.1239, 41.90770
374.6060, 41.72367
375.0881, 41.52650
375.5703, 41.56533
376.0524, 41.76017
376.5345, 41.91417
377.0166, 42.43116
377.4987, 42.93956
377.9808, 43.32491
378.4630, 43.35476
378.9451, 42.91851
379.4272, 42.28845
379.9093, 42.16906
380.3914, 43.32027
380.8735, 43.67702
381.3557, 42.36310
381.8378, 40.88122
382.3199, 40.45598
382.8020, 41.17863
383.2841, 42.17720
383.7662, 42.39627
384.2484, 41.63744
384.7305, 41.50074
385.2126, 42.87694
385.6947, 44.03465
386.1768, 44.27700
386.6589, 43.88668
387.1411, 43.48971
387.6232, 43.45684
388.1053, 43.69784
388.5874, 43.90779
389.0695, 44.13440
389.5516, 44.22882
390.0338, 44.02552
390.5159, 43.76670
390.9980, 43.69413
391.4801, 43.87314
391.9622, 44.13839
392.4443, 44.27996
392.9265, 44.28077
393.4086, 44.32677
393.8907, 44.52289
394.3728, 44.68911
394.8549, 44.64722
395.3370, 44.46328
395.8192, 44.39534
396.3013, 44.71776
396.7834, 45.28020
397.2655, 45.54455
397.7476, 45.38738
398.2297, 45.25182
398.7119, 45.40825
399.1940, 45.71390
399.6761, 45.98975
400.1582, 46.16891
400.6403, 46.35607
401.1224, 46.73153
401.6046, 47.27683
402.0867, 47.62645
402.5688, 47.64621
403.0509, 47.43752
403.5330, 47.05580
404.0151, 46.49102
404.4973, 46.11081
404.9794, 46.23721
405.4615, 46.60708
405.9436, 46.70010
406.4257, 46.41526
406.9078, 46.17896
407.3900, 46.27282
407.8721, 46.71929
408.3542, 47.52003
408.8363, 49.35057
409.3184, 50.92954
409.8005, 51.21709
410.2827, 50.50554
410.7648, 49.78941
411.2469, 49.48951
411.7290, 49.46582
412.2111, 49.43395
412.6932, 49.43063
413.1754, 49.33532
413.6575, 49.11255
414.1396, 48.79606
414.6217, 48.28232
415.1038, 47.60303
415.5859, 47.15822
416.0681, 47.38475
416.5502, 48.35761
417.0323, 49.22712
417.5144, 50.18683
417.9965, 50.86594
418.4786, 51.02053
418.9608, 50.79395
419.4429, 50.41183
419.9250, 49.97673
420.4071, 49.57875
420.8892, 49.47672
421.3713, 49.89961
421.8535, 50.29157
422.3356, 50.79090
422.8177, 51.15212
423.2998, 50.92475
423.7819, 50.21262
424.2640, 49.80021
424.7462, 50.66042
425.2283, 52.93541
425.7104, 54.40108
426.1925, 54.11413
426.6746, 54.00444
427.1567, 54.52791
427.6389, 55.60822
428.1210, 57.18160
428.6031, 59.29655
429.0852, 61.57264
429.5673, 63.21053
430.0494, 64.08868
430.5316, 64.78459
431.0137, 65.12019
431.4958, 65.52046
431.9779, 66.37608
432.4600, 67.66660
432.9421, 68.87259
433.4243, 69.40246
433.9064, 69.47764
434.3885, 70.11890
434.8706, 71.55769
435.3527, 73.14103
435.8348, 74.58755
436.3170, 75.87781
436.7991, 76.92093
437.2812, 77.46207
437.7633, 78.06969
438.2454, 79.61363
438.7275, 81.88713
439.2097, 83.30390
439.6918, 83.02799
440.1739, 82.08329
440.6560, 82.09824
441.1381, 83.14769
441.6202, 83.90787
442.1024, 83.92369
442.5845, 83.50925
443.0666, 82.90395
443.5487, 82.16124
444.0308, 81.51057
444.5129, 81.15787
444.9951, 81.06139
445.4772, 80.79423
445.9593, 80.39521
446.4414, 79.81442
446.9235, 79.11246
447.4056, 78.19651
447.8878, 76.83786
448.3699, 74.96902
448.8520, 72.90819
449.3341, 71.11698
449.8162, 69.63872
450.2983, 68.35844
450.7805, 67.40900
451.2626, 66.50602
451.7447, 65.37973
452.2268, 64.16309
452.7089, 63.26673
453.1910, 63.02710
453.6732, 63.20547
454.1553, 62.75092
454.6374, 61.12086
455.1195, 59.77451
455.6016, 58.96877
456.0837, 58.48574
456.5659, 58.26986
457.0480, 58.25919
457.5301, 58.18449
458.0122, 57.74339
458.4943, 56.94036
458.9764, 56.09673
459.4586, 55.18646
459.9407, 54.29047
460.4228, 53.45300
460.9049, 52.65876
461.3870, 51.88317
461.8691, 51.12549
462.3513, 50.37097
462.8334, 49.57149
463.3155, 48.73294
463.7976, 48.00652
464.2797, 47.43341
464.7618, 47.00682
465.2440, 46.69290
465.7261, 46.48298
466.2082, 46.44032
466.6903, 46.91105
467.1724, 47.38689
467.6545, 47.08053
468.1367, 45.98569
468.6188, 44.97143
469.1009, 44.65521
469.5830, 44.88729
470.0651, 44.89220
470.5472, 44.51544
471.0294, 44.14210
471.5115, 43.82618
471.9936, 43.58520
472.4757, 43.50402
472.9578, 43.58517
473.4399, 43.61610
473.9221, 43.29943
474.4042, 42.51178
474.8863, 42.10348
475.3684, 42.59013
475.8505, 42.86199
476.3326, 42.26923
476.8148, 41.22894
477.2969, 40.49131
477.7790, 40.43013
478.2611, 40.74345
478.7432, 40.76216
479.2253, 40.29615
479.7075, 40.07833
480.1896, 40.58389
480.6717, 41.03155
481.1538, 40.91669
481.6359, 40.31481
482.1180, 39.67242
482.6002, 39.16404
483.0823, 38.87246
483.5644, 39.20460
484.0465, 40.42715
484.5286, 41.27930
485.0107, 40.97650
485.4929, 40.10373
485.9750, 39.25582
486.4571, 38.44686
486.9392, 37.91469
487.4213, 37.98841
487.9034, 38.41774
488.3856, 38.60412
488.8677, 38.42319
489.3498, 38.25769
489.8319, 38.49282
490.3140, 39.08547
490.7961, 39.40947
491.2783, 39.38944
491.7604, 39.18726
492.2425, 38.76050
492.7246, 38.22449
493.2067, 37.76502
493.6888, 37.44821
494.1710, 37.26396
494.6531, 37.18464
495.1352, 37.13593
495.6173, 37.46659
496.0994, 38.51632
496.5815, 39.55822
497.0637, 40.42499
497.5458, 40.99024
498.0279, 41.01350
498.5100, 40.31930
498.9921, 39.20878
499.4742, 38.42167
499.9564, 38.03212
500.4385, 37.79053
500.9206, 37.79028
501.4027, 37.82222
501.8848, 37.70257
502.3669, 37.46879
502.8491, 37.36134
503.3312, 37.63051
503.8133, 38.12568
504.2954, 38.39386
504.7775, 38.36403
505.2596, 38.45033
505.7418, 39.00454
506.2239, 39.69341
506.7060, 40.05613
507.1881, 40.04060
507.6702, 39.81524
508.1523, 39.29054
508.6345, 38.66647
509.1166, 38.33965
509.5987, 38.36840
510.0808, 38.36751
510.5629, 37.95714
511.0450, 37.20485
511.5272, 36.87392
512.0093, 37.39682
512.4914, 37.76641
512.9735, 37.45958
513.4556, 36.92482
513.9377, 36.85560
514.4199, 37.39870
514.9020, 37.99653
515.3841, 37.87315
515.8662, 36.84266
516.3483, 36.37384
516.8304, 37.21421
517.3126, 37.83336
517.7947, 37.59889
518.2768, 36.93603
518.7589, 36.44963
519.2410, 36.37453
519.7231, 36.61150
520.2053, 37.21295
520.6874, 38.24237
521.1695, 38.63389
521.6516, 37.88434
522.1337, 36.91563
522.6158, 36.26402
523.0980, 35.90124
523.5801, 35.76629
524.0622, 36.02720
524.5443, 36.32135
525.0264, 36.15607
525.5085, 35.62870
525.9907, 35.34985
526.4728, 35.58325
526.9549, 36.03959
527.4370, 36.30285
527.9191, 36.35277
528.4012, 36.37346
528.8834, 36.37758
529.3655, 36.36266
529.8476, 36.37043
530.3297, 36.36076
530.8118, 36.21872
531.2939, 35.87777
531.7761, 35.39740
532.2582, 34.90761
532.7403, 34.24186
533.2224, 33.89164
533.7045, 34.00507
534.1866, 34.26815
534.6688, 34.55168
535.1509, 34.82153
535.6330, 35.08583
536.1151, 35.40844
536.5972, 35.65171
537.0793, 35.34325
537.5615, 34.30027
538.0436, 33.46106
538.5257, 33.09032
539.0078, 33.06174
539.4899, 33.39061
539.9720, 34.04375
540.4542, 34.55785
540.9363, 34.71205
541.4184, 34.59174
541.9005, 34.19147
542.3826, 33.53970
542.8647, 33.09215
543.3469, 33.15722
543.8290, 33.50342
544.3111, 33.52369
544.7932, 33.11826
545.2753, 32.68159
545.7574, 32.15290
546.2396, 31.69409
546.7217, 31.49598
547.2038, 31.52062
547.6859, 31.54095
548.1680, 31.37860
548.6501, 31.11964
549.1323, 31.16577
549.6144, 31.75359
550.0965, 32.24105
550.5786, 32.71044
551.0607, 32.95712
551.5428, 32.62017
552.0250, 31.82713
552.5071, 31.26108
552.9892, 31.55961
553.4713, 32.40460
553.9534, 32.84626
554.4355, 32.80620
554.9177, 32.75105
555.3998, 32.85540
555.8819, 33.04839
556.3640, 33.27913
556.8461, 33.57420
557.3282, 33.67664
557.8104, 33.36657
558.2925, 32.88209
558.7746, 32.58390
559.2567, 32.44124
559.7388, 31.99868
560.2209, 30.87602
560.7031, 29.41926
561.1852, 28.73141
561.6673, 29.60247
562.1494, 30.14634
562.6315, 29.99374
563.1136, 29.77697
563.5958, 30.05747
564.0779, 30.73665
564.5600, 31.30240
565.0421, 31.40237
565.5242, 31.11008
566.0063, 30.52259
566.4885, 29.28786
566.9706, 28.79743
567.4527, 30.37412
567.9348, 32.07059
568.4169, 32.46303
568.8990, 31.61326
569.3812, 30.59982
569.8633, 29.72882
570.3454, 29.15925
570.8275, 29.38621
571.3096, 30.33241
571.7917, 30.80811
572.2739, 30.12553
572.7560, 29.01499
573.2381, 28.86690
573.7202, 29.99034
574.2023, 30.78382
574.6844, 30.80953
575.1666, 30.71574
575.6487, 31.02828
576.1308, 31.59827
576.6129, 31.95172
577.0950, 31.83753
577.5771, 31.42788
578.0593, 31.12332
578.5414, 31.05043
579.0235, 30.73448
579.5056, 29.80126
579.9877, 28.94667
580.4698, 28.50854
580.9520, 28.39643
581.4341, 28.33611
581.9162, 28.15753
582.3983, 28.08035
582.8804, 28.57423
583.3625, 29.55849
583.8447, 30.09592
584.3268, 29.84515
584.8089, 29.37823
585.2910, 29.31838
585.7731, 29.61278
586.2552, 29.70342
586.7374, 29.20168
587.2195, 28.84171
587.7016, 29.13193
588.1837, 29.79059
588.6658, 30.33659
589.1479, 30.62205
589.6301, 30.79896
590.1122, 31.11973
590.5943, 31.66861
591.0764, 31.51666
591.5585, 29.62489
592.0406, 28.24374
592.5228, 28.01406
593.0049, 28.52292
593.4870, 29.48294
593.9691, 30.78949
594.4512, 31.83527
594.9333, 31.92413
595.4155, 31.24686
595.8976, 30.54042
596.3797, 29.76044
596.8618, 29.35254
597.3439, 29.78982
597.8260, 30.71015
598.3082, 31.20529
598.7903, 31.15547
599.2724, 30.98687
599.7545, 30.75692
600.2366, 30.52494
600.7188, 30.37264
601.2009, 30.29201
601.6830, 30.18455
602.1651, 29.96758
602.6472, 29.71000
603.1293, 29.69010
603.6115, 30.15796
604.0936, 30.39903
604.5757, 30.28631
605.0578, 30.02957
605.5399, 29.66219
606.0220, 29.25598
606.5042, 28.97077
606.9863, 28.92851
607.4684, 29.00725
607.9505, 29.00765
608.4326, 28.93234
608.9147, 28.88147
609.3969, 28.86846
609.8790, 28.91073
610.3611, 29.01452
610.8432, 29.18194
611.3253, 29.47491
611.8074, 30.20224
612.2896, 30.74149
612.7717, 30.66668
613.2538, 30.20975
613.7359, 29.65255
614.2180, 29.11409
614.7001, 28.86468
615.1823, 29.33776
615.6644, 30.60252
616.1465, 31.11749
616.6286, 30.17922
617.1107, 29.44569
617.5928, 29.52220
618.0750, 29.89240
618.5571, 30.05611
619.0392, 29.91324
619.5213, 29.60505
620.0034, 29.13897
620.4855, 28.60855
620.9677, 28.19581
621.4498, 27.90799
621.9319, 27.80454
622.4140, 27.96375
622.8961, 28.27293
623.3782, 28.48603
623.8604, 28.54802
624.3425, 28.69925
624.8246, 29.12499
625.3067, 29.50683
625.7888, 29.57725
626.2709, 29.42798
626.7531, 29.34597
627.2352, 29.47625
627.7173, 29.62818
628.1994, 29.39701
628.6815, 28.67552
629.1636, 28.15181
629.6458, 27.81995
630.1279, 27.76381
630.6100, 28.17545
631.0921, 28.82115
631.5742, 29.30493
632.0563, 29.54623
632.5385, 29.55961
633.0206, 29.20665
633.5027, 28.67155
633.9848, 28.31113
634.4669, 28.17815
634.9490, 28.18306
635.4312, 28.29394
635.9133, 28.46826
636.3954, 28.50318
636.8775, 28.07712
637.3596, 27.95073
637.8417, 28.49744
638.3239, 29.06617
638.8060, 29.12790
639.2881, 28.77683
639.7702, 28.46096
640.2523, 28.45666
640.7344, 28.61499
641.2166, 28.64366
641.6987, 28.53525
642.1808, 28.48338
642.6629, 28.58825
643.1450, 28.65589
643.6271, 28.35574
644.1093, 27.83739
644.5914, 27.69538
645.0735, 28.50858
645.5556, 29.14374
646.0377, 28.76638
646.5198, 28.01524
647.0020, 27.96880
647.4841, 28.73503
647.9662, 29.36768
648.4483, 28.94709
648.9304, 27.68638
649.4125, 27.12271
649.8947, 27.67949
650.3768, 28.15226
650.8589, 28.17694
651.3410, 28.17414
651.8231, 28.51798
652.3052, 29.14137
652.7874, 29.61476
653.2695, 29.65470
653.7516, 29.50430
654.2337, 29.43828
654.7158, 29.44003
655.1979, 29.43531
655.6801, 29.40403
656.1622, 29.36242
656.6443, 29.35934
657.1264, 29.40980
657.6085, 29.19341
658.0906, 28.19346
658.5728, 27.60881
659.0549, 28.09919
659.5370, 28.91428
660.0191, 29.31878
660.5012, 29.18697
660.9833, 28.76004
661.4655, 28.06208
661.9476, 27.31547
662.4297, 27.37399
662.9118, 28.36511
663.3939, 29.15711
663.8760, 29.40179
664.3582, 29.30175
664.8403, 29.06582
665.3224, 28.70108
665.8045, 28.17398
666.2866, 26.97869
666.7687, 26.14203
667.2509, 26.56301
667.7330, 27.62110
668.2151, 28.31042
668.6972, 28.36648
669.1793, 28.13535
669.6614, 27.92294
670.1436, 27.74587
670.6257, 27.88799
671.1078, 28.65569
671.5899, 29.10904
672.0720, 28.79761
672.5541, 28.20104
673.0363, 27.57557
673.5184, 26.97068
674.0005, 26.57395
674.4826, 26.47855
674.9647, 26.61288
675.4468, 26.95417
675.9290, 27.46591
676.4111, 28.13081
676.8932, 28.95016
677.3753, 29.60310
677.8574, 29.67060
678.3395, 29.12512
678.8217, 28.70718
679.3038, 28.28519
679.7859, 28.17926
680.2680, 28.68022
680.7501, 29.35782
681.2322, 29.95907
681.7144, 30.38245
682.1965, 30.41687
682.6786, 29.66663
683.1607, 28.61936
683.6428, 28.08736
684.1249, 28.02452
684.6071, 28.10648
685.0892, 28.29244
685.5713, 28.36108
686.0534, 27.95708
686.5355, 27.02526
687.0176, 26.68965
687.4998, 27.60418
687.9819, 28.23670
688.4640, 27.83951
688.9461, 27.20444
689.4282, 27.26231
689.9103, 28.02385
690.3925, 28.66734
690.8746, 28.43430
691.3567, 27.78302
691.8388, 27.96884
692.3209, 29.03998
692.8030, 29.67011
693.2852, 29.38771
693.7673, 28.78313
694.2494, 28.35480
694.7315, 28.11420
695.2136, 28.14971
695.6957, 28.75197
696.1779, 29.28263
696.6600, 29.50248
697.1421, 29.54943
697.6242, 29.61625
698.1063, 29.69626
698.5884, 29.59193
699.0706, 29.12618
699.5527, 28.41596
700.0348, 27.73889
700.5169, 27.06286
700.9990, 26.62428
701.4811, 26.41656
701.9633, 26.52910
702.4454, 27.29957
702.9275, 28.48771
703.4096, 29.29624
703.8917, 29.67667
704.3738, 29.58444
704.8560, 28.61822
705.3381, 27.38881
705.8202, 26.53329
706.3023, 26.16254
706.7844, 26.20578
707.2665, 26.64358
707.7487, 27.35161
708.2308, 28.05676
708.7129, 28.84894
709.1950, 29.18235
709.6771, 28.66849
710.1592, 28.11112
710.6414, 28.04300
711.1235, 28.30050
711.6056, 28.59029
712.0877, 29.01565
712.5698, 29.11121
713.0519, 28.20029
713.5341, 27.11007
714.0162, 26.92180
714.4983, 27.56999
714.9804, 28.31704
715.4625, 28.76093
715.9446, 28.94485
716.4268, 28.90592
716.9089, 28.54393
717.3910, 28.42196
717.8731, 28.74157
718.3552, 29.04761
718.8373, 29.00298
719.3195, 28.86376
719.8016, 29.10353
720.2837, 29.90900
720.7658, 30.38412
721.2479, 29.77912
721.7300, 28.85815
722.2122, 28.34528
722.6943, 28.26601
723.1764, 28.60493
723.6585, 29.36541
724.1406, 30.08102
724.6227, 29.97204
725.1049, 28.92614
725.5870, 28.09421
726.0691, 27.36500
726.5512, 27.04659
727.0333, 27.55179
727.5154, 28.31537
727.9976, 28.73102
728.4797, 28.75574
728.9618, 28.90421
729.4439, 29.63844
729.9260, 30.37524
730.4081, 30.62887
730.8903, 30.45713
731.3724, 29.83696
731.8545, 28.81336
732.3366, 28.07441
732.8187, 28.44363
733.3008, 29.79459
733.7830, 30.59972
734.2651, 30.71250
734.7472, 30.59360
735.2293, 30.07085
735.7114, 29.57117
736.1935, 29.42725
736.6757, 29.58558
737.1578, 29.76426
737.6399, 30.00277
738.1220, 30.07385
738.6041, 29.57100
739.0862, 28.90417
739.5684, 28.81409
740.0505, 29.34240
740.5326, 29.93369
741.0147, 30.18775
741.4968, 30.20995
741.9789, 30.33950
742.4611, 30.64405
742.9432, 30.79725
743.4253, 30.64877
743.9074, 30.49368
744.3895, 30.37552
744.8716, 30.39520
745.3538, 30.87541
745.8359, 32.16882
746.3180, 32.92237
746.8001, 31.82994
747.2822, 30.40493
747.7643, 30.51082
748.2465, 31.73685
748.7286, 32.31001
749.2107, 31.42148
749.6928, 30.03946
750.1749, 29.62362
750.6570, 30.22008
751.1392, 30.89739
751.6213, 31.89283
752.1034, 32.41292
752.5855, 31.77295
753.0676, 30.74530
753.5497, 30.25942
754.0319, 30.33886
754.5140, 30.54416
754.9961, 30.97079
755.4782, 31.28513
755.9603, 31.32045
756.4424, 31.09564
756.9246, 30.41822
757.4067, 29.39003
757.8888, 28.80638
758.3709, 29.49674
758.8530, 30.98629
759.3351, 31.55132
759.8173, 31.04659
760.2994, 30.88163
760.7815, 31.50474
761.2636, 32.26566
761.7457, 32.73131
762.2278, 32.87614
762.7100, 32.63704
763.1921, 31.76264
763.6742, 30.89248
764.1563, 29.63442
764.6384, 28.88015
765.1205, 29.87070
765.6027, 31.98012
766.0848, 33.47486
766.5669, 33.54449
767.0490, 32.92528
767.5311, 32.45579
768.0132, 32.12542
768.4954, 31.84804
768.9775, 31.60118
769.4596, 31.59423
769.9417, 32.02954
770.4238, 32.61054
770.9059, 32.77487
771.3881, 32.33107
771.8702, 32.24765
772.3523, 32.70074
772.8344, 33.28942
773.3165, 34.11890
773.7986, 34.86686
774.2808, 35.12547
774.7629, 34.88560
775.2450, 34.56610
775.7271, 34.53983
776.2092, 34.49979
776.6913, 33.70125
777.1735, 32.43766
777.6556, 32.08435
778.1377, 32.98481
778.6198, 34.06496
779.1019, 34.43081
779.5840, 34.18679
780.0662, 33.81158
780.5483, 32.88057
781.0304, 32.63552
781.5125, 33.90148
781.9946, 35.09719
782.4767, 35.30654
782.9589, 34.93458
783.4410, 34.81775
783.9231, 35.21347
784.4052, 35.59539
784.8873, 35.69665
785.3694, 35.57877
785.8516, 35.16719
786.3337, 34.59322
786.8158, 34.16938
787.2979, 34.02627
787.7800, 34.38165
788.2621, 35.76588
788.7443, 38.10294
789.2264, 39.05112
789.7085, 38.04426
790.1906, 37.20308
790.6727, 36.96211
791.1548, 37.30989
791.6370, 38.60250
792.1191, 40.63135
792.6012, 41.84477
793.0833, 41.17562
793.5654, 40.70927
794.0475, 41.57289
794.5297, 42.78124
795.0118, 43.28017
795.4939, 43.12148
795.9760, 42.93211
796.4581, 43.03203
796.9402, 43.42916
797.4224, 44.32182
797.9045, 45.59180
798.3866, 46.31022
798.8687, 46.32020
799.3508, 46.58218
799.8329, 47.81348
800.3151, 49.20890
800.7972, 49.08348
801.2793, 46.65714
801.7614, 45.81209
802.2435, 47.94297
802.7256, 49.78544
803.2078, 50.13815
803.6899, 49.90460
804.1720, 50.00396
804.6541, 50.53526
805.1362, 51.14946
805.6183, 51.80100
806.1005, 52.28545
806.5826, 52.23307
807.0647, 51.88105
807.5468, 51.85394
808.0289, 52.21042
808.5110, 52.38955
808.9932, 51.97093
809.4753, 51.18046
809.9574, 50.63039
810.4395, 50.40004
810.9216, 50.00795
811.4037, 49.18392
811.8859, 48.61281
812.3680, 48.93351
812.8501, 49.57771
813.3322, 49.70466
813.8143, 49.21320
814.2964, 48.69814
814.7786, 48.14244
815.2607, 47.76063
815.7428, 47.80235
816.2249, 48.03844
816.7070, 48.20482
817.1891, 48.21763
817.6713, 48.02881
818.1534, 47.55189
818.6355, 46.92683
819.1176, 46.27653
819.5997, 45.66455
820.0818, 45.77385
820.5640, 46.82648
821.0461, 47.64307
821.5282, 47.28336
822.0103, 46.20169
822.4924, 45.81185
822.9745, 46.62039
823.4567, 46.98432
823.9388, 46.64624
824.4209, 46.16405
824.9030, 45.56701
825.3851, 45.02274
825.8672, 44.77171
826.3494, 44.84104
826.8315, 44.94125
827.3136, 44.88238
827.7957, 44.85186
828.2778, 44.94567
828.7599, 45.20362
829.2421, 45.84437
829.7242, 46.80900
830.2063, 47.50471
830.6884, 47.42119
831.1705, 46.93223
831.6526, 47.02861
832.1348, 47.73412
832.6169, 48.22565
833.0990, 48.34182
833.5811, 48.45308
834.0632, 48.78496
834.5453, 49.24908
835.0275, 49.64605
835.5096, 49.89911
835.9917, 50.31573
836.4738, 51.04279
836.9559, 51.76319
837.4380, 52.30201
837.9202, 52.81080
838.4023, 53.41045
838.8844, 54.14690
839.3665, 55.12241
839.8486, 56.45631
840.3307, 57.98397
840.8129, 59.79809
841.2950, 61.59991
841.7771, 62.59884
842.2592, 62.81335
842.7413, 63.12899
843.2234, 64.09565
843.7056, 65.50155
844.1877, 66.92947
844.6698, 68.36080
845.1519, 69.92693
845.6340, 71.56693
846.1161, 73.51222
846.5983, 75.96558
847.0804, 78.68444
847.5625, 81.41018
848.0446, 84.16191
848.5267, 86.70654
849.0089, 88.93635
849.4910, 91.08005
849.9731, 92.86005
850.4552, 94.85591
850.9373, 97.90385
851.4194, 101.6553
851.9016, 104.8082
852.3837, 106.6235
852.8658, 108.4005
853.3479, 111.7847
853.8300, 115.7527
854.3121, 118.2797
854.7943, 119.5261
855.2764, 121.0674
855.7585, 123.5753
856.2406, 126.2264
856.7227, 127.9457
857.2048, 128.7857
857.6870, 129.5780
858.1691, 130.4022
858.6512, 130.8990
859.1333, 131.2669
859.6154, 130.8039
860.0975, 128.4243
860.5797, 124.5656
861.0618, 121.7272
861.5439, 120.6723
862.0260, 119.3411
862.5081, 117.4871
862.9902, 115.3222
863.4724, 113.0969
863.9545, 110.5996
864.4366, 107.2764
864.9187, 103.0076
865.4008, 98.91505
865.8829, 95.77596
866.3651, 93.14957
866.8472, 90.63255
867.3293, 88.17149
867.8114, 85.53380
868.2935, 82.72669
868.7756, 80.17773
869.2578, 78.26058
869.7399, 76.67809
870.2220, 74.56098
870.7041, 71.85798
871.1862, 69.90633
871.6683, 69.01929
872.1505, 68.16332
872.6326, 66.85388
873.1147, 65.22662
873.5968, 63.42150
874.0789, 61.32694
874.5610, 59.68068
875.0432, 58.66874
875.5253, 57.85182
876.0074, 57.26873
876.4895, 56.73496
876.9716, 56.35472
877.4537, 55.90178
877.9359, 54.51612
878.4180, 51.24368
878.9001, 48.63072
879.3822, 48.99176
879.8643, 50.28545
880.3464, 50.26934
880.8286, 49.10483
881.3107, 47.71173
881.7928, 46.45910
882.2749, 45.38293
882.7570, 44.52327
883.2391, 43.87816
883.7213, 43.55408
884.2034, 43.52108
884.6855, 43.21994
885.1676, 42.48920
885.6497, 41.69867
886.1318, 41.11066
886.6140, 40.71013
887.0961, 40.48008
887.5782, 40.60423
888.0603, 40.41022
888.5424, 39.61242
889.0245, 38.88649
889.5067, 38.45926
889.9888, 38.26991
890.4709, 38.35500
890.9530, 38.70664
891.4351, 38.83379
891.9172, 38.53511
892.3994, 38.11895
892.8815, 37.52667
893.3636, 37.01425
893.8457, 36.91676
894.3278, 37.12217
894.8099, 37.24882
895.2921, 37.13166
895.7742, 36.92718
896.2563, 36.81369
896.7384, 36.69585
897.2205, 36.31462
897.7026, 35.76503
898.1848, 35.54047
898.6669, 35.77049
899.1490, 35.87699
899.6311, 35.22181
900.1132, 34.09040
900.5953, 33.64925
901.0775, 33.97658
901.5596, 34.01906
902.0417, 33.44703
902.5238, 33.25930
903.0059, 34.34672
903.4880, 35.89089
903.9702, 36.14252
904.4523, 34.69184
904.9344, 33.59058
905.4165, 33.07933
905.8986, 32.60534
906.3807, 31.93270
906.8629, 31.33191
907.3450, 31.00141
907.8271, 30.95202
908.3092, 31.17960
908.7913, 31.81457
909.2734, 32.45496
909.7556, 33.09340
910.2377, 33.51467
910.7198, 33.35104
911.2019, 32.87211
911.6840, 32.61067
912.1661, 32.72011
912.6483, 32.96826
913.1304, 33.24810
913.6125, 33.47302
914.0946, 33.40891
914.5767, 33.17084
915.0588, 33.18305
915.5410, 33.48837
916.0231, 33.74327
916.5052, 33.73697
916.9873, 33.51854
917.4694, 33.17484
917.9515, 32.70446
918.4337, 32.04023
918.9158, 31.05952
919.3979, 30.43252
919.8800, 30.37138
920.3621, 30.81548
920.8442, 31.92707
921.3264, 33.57288
921.8085, 34.29094
922.2906, 33.39001
922.7727, 32.69003
923.2548, 32.34615
923.7369, 32.12716
924.2191, 31.91902
924.7012, 31.77249
925.1833, 31.83758
925.6654, 32.14601
926.1475, 32.25474
926.6296, 31.71088
927.1118, 31.31421
927.5939, 31.64237
928.0760, 32.20612
928.5581, 32.49105
929.0402, 32.48861
929.5223, 32.42762
930.0045, 32.40871
930.4866, 32.35497
930.9687, 32.01162
931.4508, 31.69894
931.9329, 32.17674
932.4150, 33.12633
932.8972, 33.40660
933.3793, 32.75713
933.8614, 31.96511
934.3435, 31.67724
934.8256, 31.80791
935.3077, 32.33751
935.7899, 33.20520
936.2720, 33.44219
936.7541, 32.89801
937.2362, 32.24399
937.7183, 31.77228
938.2004, 31.47569
938.6826, 31.34231
939.1647, 31.37203
939.6468, 31.64574
940.1289, 32.47923
940.6110, 32.75389
941.0931, 31.80039
941.5753, 30.83253
942.0574, 30.67747
942.5395, 31.15784
943.0216, 31.82444
943.5037, 32.84064
943.9858, 33.53775
944.4680, 33.85704
944.9501, 33.85694
945.4322, 33.26628
945.9143, 32.57717
946.3964, 32.32931
946.8785, 32.47489
947.3607, 32.54213
947.8428, 32.26292
948.3249, 32.12138
948.8070, 32.61602
949.2891, 33.16314
949.7712, 33.16181
950.2534, 32.79275
950.7355, 32.37891
951.2176, 32.06144
951.6997, 32.09643
952.1818, 32.93634
952.6639, 33.89796
953.1461, 33.97224
953.6282, 33.45887
954.1103, 32.97147
954.5924, 32.61718
955.0745, 32.39296
955.5566, 32.29514
956.0388, 32.40745
956.5209, 33.05124
957.0030, 32.69153
957.4851, 33.81207
957.9672, 32.51887
958.4493, 31.74379
958.9315, 31.88923
959.4136, 32.31083
959.8957, 32.56041
960.3778, 32.70031
960.8599, 32.87104
961.3420, 33.04396
961.8242, 33.44535
962.3063, 34.31328
962.7884, 34.81023
963.2705, 34.56895
963.7526, 33.96245
964.2347, 33.20067
964.7169, 32.36005
965.1990, 31.99966
965.6811, 32.77030
966.1632, 33.02191
966.6453, 31.95962
967.1274, 31.28805
967.6096, 32.40284
968.0917, 33.91072
968.5738, 33.81294
969.0559, 32.07904
969.5380, 30.87026
970.0201, 31.04512
970.5023, 31.36536
970.9844, 31.43061
971.4665, 31.43328
971.9486, 31.55403
972.4307, 31.73055
972.9128, 31.80721
973.3950, 31.74472
973.8771, 31.65706
974.3592, 31.59077
974.8413, 31.54898
975.3234, 31.44161
975.8055, 31.41122
976.2877, 31.81675
976.7698, 32.52352
977.2519, 32.98739
977.7340, 32.95581
978.2161, 32.57777
978.6982, 31.69949
979.1804, 30.75078
979.6625, 30.76008
980.1446, 31.43576
980.6267, 31.69571
981.1088, 31.34812
981.5909, 31.00419
982.0731, 31.09400
982.5552, 31.35865
983.0373, 31.31454
983.5194, 31.00619
984.0015, 30.77525
984.4836, 30.63068
984.9658, 30.32870
985.4479, 29.75152
985.9300, 29.42610
986.4121, 29.94358
986.8942, 30.93556
987.3763, 30.96828
987.8585, 29.84201
988.3406, 29.03161
988.8227, 28.57857
989.3048, 28.58010
989.7869, 29.20572
990.2690, 30.08474
990.7512, 30.84144
991.2333, 31.46111
991.7154, 31.73956
992.1975, 31.65722
992.6796, 31.24057
993.1617, 29.96745
993.6439, 29.09051
994.1260, 29.48789
994.6081, 30.45384
995.0902, 31.11274
995.5723, 31.47539
996.0544, 31.26611
996.5366, 29.54739
997.0187, 28.58561
997.5008, 29.65594
997.9829, 30.65371
998.4650, 29.86423
998.9471, 28.29962
999.4293, 27.81034
999.9114, 28.68123
1000.393, 29.58534
1000.876, 30.14242
1001.358, 30.68039
1001.840, 31.72338
1002.322, 32.46837
1002.804, 31.89727
1003.286, 30.51009
1003.768, 29.53360
1004.250, 29.32001
1004.733, 29.25397
1005.215, 28.94559
1005.697, 28.73236
1006.179, 28.93339
1006.661, 29.33950
1007.143, 29.75387
1007.625, 30.10078
1008.107, 30.30415
1008.589, 30.33003
1009.072, 30.21562
1009.554, 29.97347
1010.036, 29.62445
1010.518, 28.94381
1011.000, 28.26604
1011.482, 28.44199
1011.964, 29.38651
1012.446, 30.06441
1012.929, 29.90355
1013.411, 29.37150
1013.893, 28.84649
1014.375, 28.44627
1014.857, 28.46701
1015.339, 28.82736
1015.821, 29.29933
1016.303, 29.79541
1016.785, 30.14903
1017.268, 30.24580
1017.750, 30.14623
1018.232, 29.81944
1018.714, 29.38287
1019.196, 29.38288
1019.678, 29.78730
1020.160, 30.20168
1020.642, 30.51643
1021.125, 30.67897
1021.607, 30.64814
1022.089, 30.44068
1022.571, 30.03485
1023.053, 29.44555
1023.535, 28.98911
1024.017, 28.67203
1024.499, 28.63922
1024.981, 28.96449
1025.464, 29.40433
1025.946, 29.78563
1026.428, 30.02384
1026.910, 29.75381
1027.392, 28.88409
1027.874, 28.38642
1028.356, 28.31826
1028.838, 28.55691
1029.321, 29.18616
1029.803, 29.73203
1030.285, 29.69062
1030.767, 29.20608
1031.249, 28.94200
1031.731, 28.98832
1032.213, 28.88947
1032.695, 28.54820
1033.177, 28.29506
1033.660, 28.34012
1034.142, 28.34116
1034.624, 27.71707
1035.106, 26.73091
1035.588, 27.14383
1036.070, 30.00249
1036.552, 31.72251
1037.034, 31.78571
1037.516, 31.48075
1037.999, 31.18518
1038.481, 30.83442
1038.963, 30.30578
1039.445, 29.64054
1039.927, 29.16006
1040.409, 28.95353
1040.891, 28.77231
1041.373, 28.47314
1041.855, 28.38188
1042.338, 28.82566
1042.820, 29.38438
1043.302, 29.57958
1043.784, 29.47008
1044.266, 29.53167
1044.748, 30.07790
1045.230, 30.28891
1045.712, 29.80191
1046.195, 29.35855
1046.677, 29.42439
1047.159, 29.55738
1047.641, 29.10904
1048.123, 28.20900
1048.605, 27.84521
1049.087, 28.52701
1049.569, 29.00895
1050.052, 28.95142
1050.534, 28.84971
1051.016, 28.90852
1051.498, 29.05481
1051.980, 29.28763
1052.462, 29.54549
1052.944, 29.52365
1053.426, 28.97436
1053.908, 28.53893
1054.391, 28.46707
1054.873, 28.42151
1055.355, 28.24770
1055.837, 27.99675
1056.319, 27.57814
1056.801, 27.11464
1057.283, 27.18930
1057.765, 28.30758
1058.248, 29.08808
1058.730, 28.76770
1059.212, 28.41759
1059.694, 28.77369
1060.176, 29.32795
1060.658, 29.43115
1061.140, 29.13433
1061.622, 28.93084
1062.104, 28.93991
1062.587, 29.08920
1063.069, 29.57541
1063.551, 29.94144
1064.033, 29.80639
1064.515, 29.48553
1064.997, 29.41070
1065.479, 29.50991
1065.961, 29.32484
1066.443, 28.60799
1066.926, 28.02411
1067.408, 27.84271
1067.890, 27.87380
1068.372, 27.94946
1068.854, 28.21497
1069.336, 29.12660
1069.818, 30.37555
1070.300, 30.91486
1070.782, 30.30634
1071.265, 29.67486
1071.747, 29.74700
1072.229, 29.67500
1072.711, 28.41428
1073.193, 27.14339
1073.675, 27.40603
1074.157, 28.79651
1074.639, 29.88378
1075.122, 30.28312
1075.604, 30.26059
1076.086, 29.53466
1076.568, 28.90182
1077.050, 28.89893
1077.532, 29.16797
1078.014, 29.50118
1078.496, 29.74113
1078.979, 29.51191
1079.461, 28.67726
1079.943, 28.19085
1080.425, 28.75340
1080.907, 29.45925
1081.389, 30.05149
1081.871, 30.34408
1082.353, 29.85229
1082.835, 29.02437
1083.318, 28.90483
1083.800, 29.71595
1084.282, 30.30362
1084.764, 29.95271
1085.246, 29.53767
1085.728, 29.43310
1086.210, 29.50809
1086.692, 29.75299
1087.175, 30.04513
1087.657, 30.18126
1088.139, 30.13363
1088.621, 30.07860
1089.103, 30.13638
1089.585, 30.12975
1090.067, 29.75933
1090.549, 29.51660
1091.031, 30.04853
1091.514, 30.81838
1091.996, 30.86744
1092.478, 30.18679
1092.960, 29.83612
1093.442, 30.58734
1093.924, 30.93466
1094.406, 29.61003
1094.888, 28.46644
1095.370, 29.10731
1095.853, 30.39155
1096.335, 30.76043
1096.817, 30.24679
1097.299, 29.97099
1097.781, 30.42724
1098.263, 30.62493
1098.745, 29.80631
1099.227, 29.17604
1099.709, 29.68731
1100.192, 30.46405
1100.674, 30.41462
1101.156, 29.78012
1101.638, 29.70170
1102.120, 30.65949
1102.602, 31.15544
1103.084, 30.53516
1103.566, 29.76075
1104.049, 28.95821
1104.531, 28.38322
1105.013, 28.39108
1105.495, 28.74783
1105.977, 28.79596
1106.459, 28.32931
1106.941, 28.44348
1107.423, 30.44707
1107.906, 31.48167
1108.388, 29.75698
1108.870, 27.88587
1109.352, 27.85765
1109.834, 28.73245
1110.316, 28.70621
1110.798, 27.61957
1111.280, 27.02868
1111.762, 27.21937
1112.245, 27.66193
1112.727, 28.68380
1113.209, 29.49601
1113.691, 29.47811
1114.173, 29.18706
1114.655, 29.43189
1115.137, 30.14756
1115.619, 30.41189
1116.102, 29.68711
1116.584, 29.47782
1117.066, 30.36547
1117.548, 30.92534
1118.030, 30.43844
1118.512, 29.66700
1118.994, 29.30176
1119.476, 29.26065
1119.958, 29.23022
1120.441, 29.27515
1120.923, 29.10190
1121.405, 28.54158
1121.887, 28.14963
1122.369, 28.16027
1122.851, 28.19289
1123.333, 27.89145
1123.815, 27.50204
1124.297, 27.63252
1124.780, 28.35822
1125.262, 28.58978
1125.744, 28.16420
1126.226, 27.84430
1126.708, 27.77418
1127.190, 27.75345
1127.672, 27.62907
1128.154, 27.61832
1128.636, 28.10993
1129.119, 29.00132
1129.601, 29.42668
1130.083, 29.36819
1130.565, 28.93788
1131.047, 28.06177
1131.529, 27.67785
1132.011, 28.22312
1132.493, 28.96665
1132.976, 29.17098
1133.458, 29.00482
1133.940, 28.90174
1134.422, 28.86945
1134.904, 29.12613
1135.386, 29.64877
1135.868, 29.72432
1136.350, 29.16947
1136.833, 28.60852
1137.315, 28.49195
1137.797, 28.12256
1138.279, 28.28840
1138.761, 27.83707
1139.243, 27.62045
1139.725, 27.64608
1140.207, 28.03805
1140.689, 28.73782
1141.172, 29.32413
1141.654, 29.59611
1142.136, 29.54256
1142.618, 28.93268
1143.100, 28.23468
1143.582, 28.43986
1144.064, 29.07469
1144.546, 29.09069
1145.029, 28.59528
1145.511, 28.21292
1145.993, 28.14645
1146.475, 28.34968
1146.957, 28.91190
1147.439, 29.41761
1147.921, 29.50344
1148.403, 29.26288
1148.885, 28.49414
1149.368, 27.63730
1149.850, 27.51126
1150.332, 28.08143
1150.814, 28.65948
1151.296, 28.97985
1151.778, 29.16946
1152.260, 29.31788
1152.742, 29.34342
1153.224, 29.21234
1153.707, 28.91179
1154.189, 28.17370
1154.671, 27.33160
1155.153, 27.14344
1155.635, 27.76590
1156.117, 28.50215
1156.599, 29.55366
1157.081, 30.08726
1157.563, 29.40704
1158.046, 28.60987
1158.528, 28.40407
1159.010, 28.46899
1159.492, 28.31457
1159.974, 27.96017
1160.456, 27.79804
1160.938, 27.93186
1161.420, 28.12048
1161.903, 28.58625
1162.385, 28.77086
1162.867, 28.34717
1163.349, 27.78455
1163.831, 27.35692
1164.313, 27.10423
1164.795, 27.11851
1165.277, 27.39387
1165.760, 28.08283
1166.242, 29.54133
1166.724, 30.18250
1167.206, 29.48168
1167.688, 28.88092
1168.170, 29.20150
1168.652, 29.74706
1169.134, 29.62668
1169.616, 28.95722
1170.099, 28.11710
1170.581, 27.09451
1171.063, 27.08595
1171.545, 28.17228
1172.027, 28.95521
1172.509, 29.00942
1172.991, 28.98017
1173.473, 29.37387
1173.956, 29.88993
1174.438, 30.01319
1174.920, 29.83349
1175.402, 29.52029
1175.884, 29.17256
1176.366, 29.20568
1176.848, 29.59583
1177.330, 29.88758
1177.813, 29.89037
1178.295, 29.85102
1178.777, 30.04587
1179.259, 30.23092
1179.741, 29.89377
1180.223, 29.50213
1180.705, 29.99984
1181.187, 30.89666
1181.669, 30.99804
1182.151, 30.21132
1182.634, 29.41077
1183.116, 28.93759
1183.598, 28.72269
1184.080, 28.91224
1184.562, 29.13403
1185.044, 29.10748
1185.526, 29.01203
1186.008, 29.00529
1186.490, 29.10210
1186.973, 29.34342
1187.455, 29.75363
1187.937, 29.95312
1188.419, 29.64451
1188.901, 29.45341
1189.383, 29.37622
1189.865, 29.58834
1190.347, 30.61204
1190.830, 31.62664
1191.312, 31.64919
1191.794, 30.88546
1192.276, 30.34815
1192.758, 30.06986
1193.240, 29.89338
1193.722, 29.77820
1194.204, 29.94723
1194.687, 30.60421
1195.169, 31.05057
1195.651, 30.81075
1196.133, 30.19724
1196.615, 29.66671
1197.097, 29.23103
1197.579, 28.95802
1198.061, 28.84390
1198.543, 28.85860
1199.026, 28.99087
1199.508, 29.18165
1199.990, 29.39861
1200.472, 29.37564
1200.954, 28.82519
1201.436, 28.29634
1201.918, 28.90896
1202.400, 29.97426
1202.883, 30.10697
1203.365, 29.54753
1203.847, 28.63234
1204.329, 27.69143
1204.811, 27.62692
1205.293, 28.72876
1205.775, 29.66757
1206.257, 29.36984
1206.740, 28.81546
1207.222, 28.49287
1207.704, 28.44903
1208.186, 28.97380
1208.668, 29.65737
1209.150, 29.81632
1209.632, 29.52635
1210.114, 29.54477
1210.596, 30.18434
1211.078, 30.64902
1211.561, 30.75544
1212.043, 30.70728
1212.525, 30.46672
1213.007, 30.19638
1213.489, 30.03548
1213.971, 29.87884
1214.453, 29.51697
1214.935, 28.97409
1215.417, 28.70870
1215.900, 28.77972
1216.382, 28.91256
1216.864, 29.10176
1217.346, 29.35681
1217.828, 29.73492
1218.310, 29.82838
1218.792, 29.24191
1219.274, 28.51860
1219.757, 28.75681
1220.239, 29.72056
1220.721, 30.40311
1221.203, 30.77452
1221.685, 30.54308
1222.167, 29.79774
1222.649, 29.14824
1223.131, 28.80944
1223.614, 28.59681
1224.096, 28.36599
1224.578, 28.21306
1225.060, 28.21392
1225.542, 28.37843
1226.024, 28.96920
1226.506, 29.57825
1226.988, 29.29135
1227.470, 28.47656
1227.953, 28.56066
1228.435, 29.97634
1228.917, 31.07675
1229.399, 31.05784
1229.881, 30.86623
1230.363, 30.92510
1230.845, 30.77056
1231.327, 29.95263
1231.810, 28.90277
1232.292, 27.96322
1232.774, 27.23447
1233.256, 27.13256
1233.738, 27.77676
1234.220, 28.57000
1234.702, 29.60617
1235.184, 30.51574
1235.667, 31.31046
1236.149, 31.62257
1236.631, 31.21539
1237.113, 30.40944
1237.595, 29.46622
1238.077, 28.63531
1238.559, 28.80540
1239.041, 29.76476
1239.523, 30.59887
1240.005, 31.18270
1240.488, 30.95144
1240.970, 29.98631
1241.452, 29.46648
1241.934, 29.97648
1242.416, 30.58329
1242.898, 30.40935
1243.380, 29.93875
1243.862, 29.53072
1244.344, 29.20021
1244.827, 28.68619
1245.309, 28.40616
1245.791, 29.43544
1246.273, 31.48153
1246.755, 32.52186
1247.237, 31.73492
1247.719, 31.00747
1248.201, 30.93372
1248.684, 30.73471
1249.166, 29.77713
1249.648, 29.11753
1250.130, 29.54063
1250.612, 30.41189
1251.094, 30.95403
1251.576, 31.17211
1252.058, 31.00161
1252.541, 31.24780
1253.023, 31.32455
1253.505, 31.04915
1253.987, 31.33191
1254.469, 30.84003
1254.951, 30.23831
1255.433, 29.89987
1255.915, 29.80243
1256.397, 30.06027
1256.880, 30.34316
1257.362, 29.82915
1257.844, 28.95418
1258.326, 28.52412
1258.808, 28.50640
1259.290, 28.64525
1259.772, 28.90530
1260.254, 29.50383
1260.737, 30.61752
1261.219, 31.33739
1261.701, 30.71275
1262.183, 30.20999
1262.665, 30.94678
1263.147, 31.63206
1263.629, 31.09788
1264.111, 30.06845
1264.594, 29.54335
1265.076, 29.50844
1265.558, 29.67702
1266.040, 30.11396
1266.522, 30.51071
1267.004, 30.82432
1267.486, 31.31228
1267.968, 32.12324
1268.450, 32.60503
1268.932, 32.40281
1269.415, 31.85540
1269.897, 31.26142
1270.379, 30.78222
1270.861, 30.92006
1271.343, 31.45398
1271.825, 31.86255
1272.307, 32.03253
1272.789, 31.45540
1273.271, 30.36195
1273.754, 29.99739
1274.236, 30.80245
1274.718, 31.59303
1275.200, 31.40006
1275.682, 31.26727
1276.164, 32.31501
1276.646, 33.08503
1277.128, 32.09630
1277.611, 30.58370
1278.093, 29.92061
1278.575, 30.00627
1279.057, 30.32731
1279.539, 30.93336
1280.021, 31.12477
1280.503, 30.60822
1280.985, 30.53891
1281.468, 31.18133
1281.950, 31.75019
1282.432, 31.96250
1282.914, 31.97055
1283.396, 31.88047
1283.878, 31.75770
1284.360, 31.77646
1284.842, 31.82434
1285.324, 31.59232
##END=



