##NAMES=Coronadite
##RRUFFID=R090056
##IDEAL CHEMISTRY=Pb^2+^(Mn^4+^_6_Mn^3+^_2_)O_16_
##LOCALITY=Taouz, Er Rachidia Province, Mekn√®s-Tafilalet Region, Morocco
##OWNER=RRUFF
##SOURCE=Bob Downs
##DESCRIPTION=Spherical aggregates of black fine-grained material associated with vanadinite
##STATUS=The identification of this mineral has been confirmed by X-ray diffraction.
##URL=rruff.info/R090056
90.26367, 20.93199
90.74579, 21.39100
91.22791, 21.19624
91.71002, 20.42004
92.19214, 19.69671
92.67426, 19.67648
93.15637, 20.13008
93.63850, 20.45319
94.12061, 20.41497
94.60273, 20.12429
95.08485, 19.72597
95.56696, 19.18362
96.04908, 18.80364
96.53120, 19.23623
97.01331, 20.41681
97.49543, 21.18744
97.97755, 20.73104
98.45966, 19.14545
98.94178, 18.25523
99.42390, 18.21689
99.90602, 18.66830
100.3881, 18.99300
100.8703, 19.21747
101.3524, 19.21811
101.8345, 18.85132
102.3166, 17.99513
102.7987, 17.31724
103.2808, 16.91726
103.7630, 16.72713
104.2451, 16.42485
104.7272, 15.79765
105.2093, 15.33613
105.6914, 15.44821
106.1735, 16.82361
106.6557, 17.56512
107.1378, 17.11676
107.6199, 15.41720
108.1020, 14.51206
108.5841, 14.97468
109.0662, 15.92713
109.5484, 16.58750
110.0305, 16.96092
110.5126, 17.04608
110.9947, 16.71198
111.4768, 15.80120
111.9590, 15.19324
112.4411, 15.25012
112.9232, 15.58163
113.4053, 15.68419
113.8874, 15.13941
114.3695, 14.61834
114.8517, 14.42668
115.3338, 14.77441
115.8159, 15.00553
116.2980, 14.87547
116.7801, 14.49109
117.2622, 14.09043
117.7444, 13.57854
118.2265, 13.18606
118.7086, 13.10555
119.1907, 13.60789
119.6728, 14.07576
120.1549, 13.95992
120.6371, 13.43907
121.1192, 13.23728
121.6013, 14.12271
122.0834, 15.43551
122.5655, 16.44486
123.0477, 16.91097
123.5298, 17.00238
124.0119, 16.61638
124.4940, 15.80175
124.9761, 15.24577
125.4582, 15.65922
125.9404, 16.72245
126.4225, 17.80929
126.9046, 18.76104
127.3867, 19.56196
127.8688, 20.17106
128.3509, 20.58261
128.8331, 20.85815
129.3152, 20.99278
129.7973, 21.01858
130.2794, 21.09252
130.7615, 21.29756
131.2436, 21.60944
131.7258, 21.94222
132.2079, 22.28875
132.6900, 22.66774
133.1721, 22.99888
133.6542, 23.27748
134.1364, 23.88541
134.6185, 25.18494
135.1006, 27.15215
135.5827, 28.96506
136.0648, 30.56896
136.5469, 32.00157
137.0291, 33.35287
137.5112, 34.61699
137.9933, 35.78689
138.4754, 37.04781
138.9575, 38.54144
139.4396, 39.09570
139.9218, 38.27724
140.4039, 36.42676
140.8860, 35.20257
141.3681, 34.72168
141.8502, 34.67995
142.3323, 34.93364
142.8145, 35.69022
143.2966, 36.20074
143.7787, 36.22951
144.2608, 35.79018
144.7429, 35.70394
145.2251, 36.05791
145.7072, 36.68760
146.1893, 37.46693
146.6714, 38.58953
147.1535, 39.56996
147.6356, 40.28092
148.1178, 40.67982
148.5999, 41.07860
149.0820, 41.32570
149.5641, 41.63578
150.0462, 42.26490
150.5283, 43.74809
151.0105, 45.00901
151.4926, 45.30888
151.9747, 44.73604
152.4568, 44.46699
152.9389, 44.77638
153.4210, 45.34004
153.9032, 45.70984
154.3853, 45.94814
154.8674, 45.90337
155.3495, 45.47645
155.8316, 44.45856
156.3138, 43.54155
156.7959, 42.71426
157.2780, 42.05776
157.7601, 41.73182
158.2422, 42.13312
158.7243, 42.59332
159.2065, 42.79175
159.6886, 42.60089
160.1707, 42.29087
160.6528, 41.77827
161.1349, 41.18272
161.6170, 40.82494
162.0992, 41.28681
162.5813, 41.33413
163.0634, 41.72915
163.5455, 41.89708
164.0276, 41.85015
164.5097, 40.94476
164.9919, 41.14786
165.4740, 40.90674
165.9561, 40.64740
166.4382, 41.00655
166.9203, 40.22602
167.4025, 40.57533
167.8846, 40.47364
168.3667, 40.57838
168.8488, 40.23613
169.3309, 40.03193
169.8130, 40.27487
170.2952, 40.27021
170.7773, 39.87650
171.2594, 39.61598
171.7415, 39.79115
172.2236, 39.70316
172.7057, 39.37055
173.1879, 39.07212
173.6700, 39.03705
174.1521, 39.17232
174.6342, 39.31954
175.1163, 39.56584
175.5984, 39.72326
176.0806, 39.45186
176.5627, 38.74664
177.0448, 38.08797
177.5269, 38.05074
178.0090, 38.39856
178.4911, 38.15119
178.9733, 38.56766
179.4554, 38.75707
179.9375, 38.73161
180.4196, 37.84769
180.9017, 38.07228
181.3839, 37.85262
181.8660, 37.61476
182.3481, 37.99537
182.8302, 37.23632
183.3123, 37.60712
183.7944, 37.52691
184.2766, 37.65310
184.7587, 37.33232
185.2408, 37.14960
185.7229, 37.41401
186.2050, 37.43084
186.6871, 37.05861
187.1693, 37.19792
187.6514, 36.42324
188.1335, 36.45062
188.6156, 36.82404
189.0977, 36.47429
189.5798, 36.62178
190.0620, 36.57988
190.5441, 35.67733
191.0262, 36.27157
191.5083, 36.38063
191.9904, 36.62221
192.4725, 36.64891
192.9547, 35.81714
193.4368, 36.09390
193.9189, 35.92641
194.4010, 35.74072
194.8831, 36.17350
195.3652, 35.46660
195.8474, 35.88956
196.3295, 35.86151
196.8116, 36.03988
197.2937, 35.77126
197.7758, 35.64071
198.2579, 35.07202
198.7401, 35.52195
199.2222, 35.74482
199.7043, 35.75281
200.1864, 34.90235
200.6685, 35.16040
201.1507, 34.97420
201.6328, 34.76979
202.1149, 35.18386
202.5970, 34.45826
203.0791, 34.86252
203.5612, 34.81577
204.0434, 34.97541
204.5255, 34.68809
205.0076, 34.53883
205.4897, 34.83669
205.9718, 34.88698
206.4539, 34.54820
206.9361, 34.72097
207.4182, 33.97976
207.9003, 34.04059
208.3824, 34.44747
208.8645, 34.13116
209.3466, 34.31212
209.8288, 34.30368
210.3109, 33.43458
210.7930, 34.06227
211.2751, 34.04266
211.7572, 33.35838
212.2393, 33.93479
212.7215, 33.53079
213.2036, 33.66185
213.6857, 33.78087
214.1678, 33.90878
214.6499, 33.93427
215.1321, 33.76895
215.6142, 33.49923
216.0963, 33.54092
216.5784, 33.60848
217.0605, 34.03801
217.5426, 34.24045
218.0248, 34.22800
218.5069, 33.35712
218.9890, 33.59475
219.4711, 33.38813
219.9532, 33.16330
220.4353, 33.55695
220.9175, 32.81090
221.3996, 33.19474
221.8817, 33.12755
222.3638, 33.26679
222.8459, 32.95904
223.3280, 32.78935
223.8102, 33.14738
224.2923, 32.96247
224.7744, 33.48920
225.2565, 33.78885
225.7386, 33.87362
226.2208, 33.09994
226.7029, 33.43477
227.1850, 33.32537
227.6671, 33.19774
228.1492, 33.68859
228.6313, 33.03977
229.1135, 33.52082
229.5956, 33.55084
230.0777, 33.78728
230.5598, 33.57674
231.0419, 33.50426
231.5240, 33.87891
232.0062, 34.00597
232.4883, 33.57228
232.9704, 33.43154
233.4525, 32.91574
233.9346, 32.60424
234.4167, 32.62792
234.8989, 32.90065
235.3810, 33.00329
235.8631, 32.80734
236.3452, 32.61120
236.8273, 32.59245
237.3095, 32.84113
237.7916, 33.07512
238.2737, 33.30783
238.7558, 33.51631
239.2379, 33.61283
239.7200, 33.59941
240.2022, 33.47066
240.6843, 33.19788
241.1664, 32.65937
241.6485, 32.24217
242.1306, 31.97210
242.6127, 31.83476
243.0949, 31.80149
243.5770, 31.96032
244.0591, 32.10270
244.5412, 32.09290
245.0233, 31.76336
245.5054, 31.67940
245.9876, 32.02690
246.4697, 32.60955
246.9518, 32.77311
247.4339, 32.23594
247.9160, 31.69960
248.3981, 31.53827
248.8803, 31.99521
249.3624, 32.22960
249.8445, 32.12562
250.3266, 31.81520
250.8087, 31.65594
251.2909, 31.68202
251.7730, 31.80502
252.2551, 32.03526
252.7372, 32.55263
253.2193, 32.68148
253.7014, 32.20626
254.1836, 31.43659
254.6657, 31.10151
255.1478, 31.37050
255.6299, 31.77869
256.1120, 32.20106
256.5941, 32.75594
257.0763, 32.89683
257.5584, 32.42288
258.0405, 31.66331
258.5226, 31.31408
259.0047, 31.57214
259.4868, 31.82793
259.9690, 31.83661
260.4511, 31.53539
260.9332, 31.24765
261.4153, 30.88160
261.8974, 30.60546
262.3795, 30.81363
262.8617, 31.83758
263.3438, 32.54263
263.8259, 32.40519
264.3080, 31.23851
264.7901, 30.60561
265.2722, 30.67852
265.7544, 31.07911
266.2365, 31.25455
266.7186, 31.11998
267.2007, 31.01977
267.6829, 31.06815
268.1650, 31.27504
268.6471, 31.49946
269.1292, 31.80177
269.6113, 32.03454
270.0934, 31.94325
270.5756, 31.39908
271.0577, 31.03528
271.5398, 31.10638
272.0219, 31.59404
272.5040, 31.35900
272.9861, 31.87559
273.4683, 32.16510
273.9504, 32.23973
274.4325, 31.45591
274.9146, 31.78060
275.3967, 31.66105
275.8788, 31.52329
276.3610, 32.00400
276.8431, 31.34504
277.3252, 31.57912
277.8073, 31.54121
278.2894, 31.67528
278.7715, 31.81672
279.2537, 31.94561
279.7358, 32.05531
280.2179, 32.10035
280.7000, 32.06336
281.1821, 32.04235
281.6642, 32.18786
282.1464, 32.50230
282.6285, 32.57526
283.1106, 32.25776
283.5927, 31.72561
284.0748, 31.48645
284.5569, 31.56826
285.0391, 31.68183
285.5212, 31.57612
286.0033, 31.27835
286.4854, 31.13687
286.9675, 31.23919
287.4496, 31.44923
287.9318, 31.46405
288.4139, 31.28014
288.8960, 31.12847
289.3781, 31.20575
289.8602, 31.45368
290.3424, 31.56263
290.8245, 31.48369
291.3066, 31.31818
291.7887, 31.25401
292.2708, 31.27397
292.7530, 31.21306
293.2351, 30.85148
293.7172, 30.32965
294.1993, 30.10954
294.6814, 30.23583
295.1635, 30.54579
295.6457, 30.97506
296.1278, 31.46133
296.6099, 31.72770
297.0920, 31.48207
297.5741, 30.96065
298.0562, 30.61683
298.5384, 30.46524
299.0205, 30.41734
299.5026, 30.50177
299.9847, 30.63503
300.4668, 30.59057
300.9489, 30.07734
301.4311, 29.44094
301.9132, 29.23878
302.3953, 29.45337
302.8774, 29.69217
303.3595, 29.56812
303.8416, 29.26119
304.3238, 29.08861
304.8059, 29.21589
305.2880, 29.46067
305.7701, 29.68150
306.2522, 29.87364
306.7343, 29.99507
307.2165, 29.92363
307.6986, 29.79856
308.1807, 29.82640
308.6628, 30.20601
309.1449, 30.50736
309.6270, 30.30912
310.1092, 29.73653
310.5913, 29.19842
311.0734, 28.84782
311.5555, 28.66645
312.0376, 28.69020
312.5197, 29.02122
313.0019, 29.29453
313.4840, 29.21152
313.9661, 28.92673
314.4482, 28.75569
314.9304, 29.04595
315.4125, 29.34015
315.8946, 29.28917
316.3767, 28.76248
316.8588, 28.35260
317.3409, 28.35095
317.8231, 28.59374
318.3052, 28.86396
318.7873, 29.21428
319.2694, 29.47793
319.7515, 29.57453
320.2336, 29.49312
320.7158, 29.34425
321.1979, 29.12451
321.6800, 28.86778
322.1621, 28.60523
322.6442, 28.18931
323.1263, 27.92591
323.6085, 28.01870
324.0906, 28.43146
324.5727, 28.60202
325.0548, 28.02009
325.5369, 27.44603
326.0190, 27.34095
326.5012, 28.40036
326.9833, 29.16140
327.4654, 29.38685
327.9475, 29.19463
328.4296, 29.05468
328.9117, 28.98210
329.3939, 28.94901
329.8760, 28.95663
330.3581, 29.10996
330.8402, 29.10359
331.3223, 28.84103
331.8044, 28.44473
332.2866, 28.16942
332.7687, 28.11413
333.2508, 28.03510
333.7329, 27.82231
334.2150, 27.40975
334.6971, 27.19349
335.1793, 27.26075
335.6614, 27.43769
336.1435, 27.46549
336.6256, 27.22387
337.1077, 27.16881
337.5899, 27.51018
338.0720, 28.21733
338.5541, 28.54642
339.0362, 28.41485
339.5183, 28.10031
340.0005, 27.83625
340.4826, 27.62416
340.9647, 27.41565
341.4468, 27.13396
341.9289, 26.88550
342.4110, 27.10401
342.8932, 27.85183
343.3753, 28.64364
343.8574, 29.24971
344.3395, 29.65926
344.8216, 29.54566
345.3037, 28.35238
345.7859, 28.78092
346.2680, 28.98240
346.7501, 28.96900
347.2322, 28.09715
347.7143, 28.33381
348.1964, 28.12623
348.6786, 27.90042
349.1607, 28.29310
349.6428, 27.54611
350.1249, 27.92898
350.6070, 27.86083
351.0891, 28.77685
351.5713, 28.92641
352.0534, 28.60697
352.5355, 28.40059
353.0176, 28.30549
353.4997, 28.20106
353.9818, 27.94324
354.4640, 27.62690
354.9461, 27.40692
355.4282, 27.41339
355.9103, 27.42382
356.3924, 27.10588
356.8745, 26.57572
357.3567, 26.29795
357.8388, 26.93357
358.3209, 27.71106
358.8030, 27.86661
359.2851, 26.99441
359.7672, 26.22884
360.2494, 26.37341
360.7315, 27.03321
361.2136, 27.47635
361.6957, 27.24938
362.1779, 26.88717
362.6600, 26.58636
363.1421, 26.34287
363.6242, 26.34609
364.1063, 26.87805
364.5884, 27.59504
365.0706, 28.14097
365.5527, 28.38467
366.0348, 28.51209
366.5169, 28.54595
366.9990, 28.48931
367.4811, 28.37681
367.9633, 28.19657
368.4454, 27.97054
368.9275, 27.70692
369.4096, 27.19525
369.8917, 26.94227
370.3738, 27.13088
370.8560, 27.57846
371.3381, 27.76269
371.8202, 27.50229
372.3023, 27.22711
372.7844, 27.11564
373.2665, 27.22899
373.7487, 27.24467
374.2308, 27.09151
374.7129, 26.91260
375.1950, 26.93910
375.6771, 27.27392
376.1592, 27.47434
376.6414, 27.34661
377.1235, 26.94755
377.6056, 26.90031
378.0877, 27.29713
378.5698, 27.74220
379.0519, 27.84371
379.5341, 27.59827
380.0162, 27.48483
380.4983, 27.64773
380.9804, 27.91071
381.4625, 27.80501
381.9446, 27.33799
382.4268, 26.90984
382.9089, 26.75025
383.3910, 26.82193
383.8731, 27.05893
384.3553, 27.49570
384.8374, 27.89959
385.3195, 27.96974
385.8016, 27.77890
386.2837, 27.54082
386.7658, 27.37632
387.2480, 27.20601
387.7301, 26.85860
388.2122, 26.34711
388.6943, 25.93527
389.1764, 25.80074
389.6585, 25.88751
390.1407, 26.17560
390.6228, 26.93641
391.1049, 27.49600
391.5870, 27.15092
392.0691, 26.19213
392.5512, 25.49619
393.0334, 25.70030
393.5155, 26.13220
393.9976, 26.36179
394.4797, 26.27618
394.9618, 26.17333
395.4439, 26.17564
395.9261, 26.20761
396.4082, 26.16906
396.8903, 25.93478
397.3724, 25.73051
397.8545, 25.59643
398.3366, 25.53312
398.8188, 25.58444
399.3009, 25.92920
399.7830, 26.27293
400.2651, 26.42901
400.7472, 26.30709
401.2293, 26.12530
401.7115, 25.83044
402.1936, 25.48745
402.6757, 25.30882
403.1578, 25.39059
403.6399, 25.47428
404.1220, 25.12042
404.6042, 25.63277
405.0863, 25.91804
405.5684, 25.98844
406.0505, 25.20038
406.5326, 25.52083
407.0147, 25.39705
407.4969, 25.25504
407.9790, 25.96074
408.4611, 25.53277
408.9432, 25.95670
409.4254, 26.15353
409.9075, 26.13551
410.3896, 25.25904
410.8717, 25.49108
411.3538, 25.27888
411.8359, 25.04846
412.3181, 25.43650
412.8002, 24.68489
413.2823, 25.16772
413.7644, 25.31727
414.2465, 25.52325
414.7286, 25.64846
415.2108, 24.99977
415.6929, 25.60581
416.1750, 25.98475
416.6571, 26.14883
417.1392, 25.45444
417.6213, 25.86858
418.1035, 25.83848
418.5856, 25.35411
419.0677, 25.13300
419.5498, 25.15599
420.0319, 25.20185
420.5140, 25.14971
420.9962, 25.11432
421.4783, 25.19822
421.9604, 25.51641
422.4425, 25.67935
422.9246, 25.36517
423.4067, 24.91306
423.8889, 24.78514
424.3710, 25.47192
424.8531, 26.03428
425.3352, 26.20345
425.8173, 25.97820
426.2994, 25.90285
426.7816, 26.14462
427.2637, 26.36736
427.7458, 26.31315
428.2279, 25.75738
428.7100, 25.49717
429.1921, 25.71714
429.6743, 26.17487
430.1564, 26.24294
430.6385, 25.80155
431.1206, 25.43460
431.6028, 25.41565
432.0849, 25.72826
432.5670, 25.99920
433.0491, 26.23319
433.5312, 26.40874
434.0133, 26.49689
434.4955, 26.50421
434.9776, 26.46311
435.4597, 26.34863
435.9418, 26.23199
436.4239, 26.27600
436.9060, 26.45538
437.3882, 26.61017
437.8703, 26.54925
438.3524, 26.43287
438.8345, 26.52872
439.3166, 26.89461
439.7987, 27.26750
440.2809, 27.40154
440.7630, 27.41280
441.2451, 27.48099
441.7272, 27.80632
442.2093, 28.09068
442.6914, 28.13796
443.1736, 27.97996
443.6557, 27.83843
444.1378, 27.76215
444.6199, 27.74992
445.1020, 27.82476
445.5841, 28.12314
446.0663, 28.24930
446.5484, 27.94353
447.0305, 27.47687
447.5126, 27.30717
447.9947, 27.78158
448.4768, 28.13784
448.9590, 28.13362
449.4411, 27.75662
449.9232, 27.67152
450.4053, 28.08968
450.8874, 28.49321
451.3695, 28.39221
451.8517, 27.56745
452.3338, 27.26871
452.8159, 27.79955
453.2980, 28.69011
453.7801, 28.90366
454.2622, 28.38825
454.7444, 27.93691
455.2265, 27.96285
455.7086, 28.35392
456.1907, 28.68097
456.6729, 28.95414
457.1550, 29.07554
457.6371, 28.86067
458.1192, 28.43103
458.6013, 28.06711
459.0834, 27.82680
459.5656, 27.70159
460.0477, 27.74950
460.5298, 27.91961
461.0119, 28.05858
461.4940, 28.03670
461.9761, 27.98880
462.4583, 28.03571
462.9404, 28.19534
463.4225, 28.33527
463.9046, 28.33697
464.3867, 28.31758
464.8688, 28.38767
465.3510, 28.75414
465.8331, 29.00923
466.3152, 28.90153
466.7973, 28.58197
467.2794, 28.01017
467.7615, 28.63451
468.2437, 29.03179
468.7258, 29.21416
469.2079, 28.53808
469.6900, 28.97052
470.1721, 28.95871
470.6542, 28.59250
471.1364, 28.46229
471.6185, 29.01176
472.1006, 29.40950
472.5827, 29.48786
473.0648, 29.33479
473.5469, 29.16839
474.0291, 28.97811
474.5112, 28.89875
474.9933, 29.09684
475.4754, 29.48968
475.9575, 29.69547
476.4396, 29.68384
476.9218, 29.61822
477.4039, 29.67451
477.8860, 29.81000
478.3681, 29.92875
478.8503, 30.01808
479.3324, 30.05587
479.8145, 29.99062
480.2966, 29.84582
480.7787, 29.71262
481.2608, 29.59793
481.7430, 29.53673
482.2251, 29.55824
482.7072, 29.67179
483.1893, 29.83123
483.6714, 30.23528
484.1535, 30.58264
484.6357, 29.72767
485.1178, 30.23527
485.5999, 30.51579
486.0820, 30.58142
486.5641, 29.78861
487.0462, 31.13104
487.5284, 30.52817
488.0105, 29.92165
488.4926, 29.80562
488.9747, 30.27820
489.4568, 30.62117
489.9389, 30.81759
490.4211, 30.90985
490.9032, 30.90189
491.3853, 30.78290
491.8674, 30.73915
492.3495, 30.80568
492.8316, 30.97190
493.3138, 31.32607
493.7959, 31.83748
494.2780, 32.13827
494.7601, 31.79557
495.2422, 31.14842
495.7243, 30.90264
496.2065, 31.10153
496.6886, 31.31569
497.1707, 31.10284
497.6528, 30.72235
498.1349, 30.54348
498.6170, 30.82154
499.0992, 31.09949
499.5813, 31.03608
500.0634, 30.77988
500.5455, 30.69509
501.0276, 31.09633
501.5097, 31.51677
501.9919, 31.75634
502.4740, 31.77132
502.9561, 31.81212
503.4382, 31.98823
503.9203, 32.13251
504.4025, 32.13178
504.8846, 31.96006
505.3667, 31.66829
505.8488, 31.10715
506.3309, 30.52415
506.8130, 30.56044
507.2952, 31.38193
507.7773, 32.07831
508.2594, 32.28630
508.7415, 32.07764
509.2236, 31.82318
509.7057, 31.51527
510.1879, 31.25906
510.6700, 31.17692
511.1521, 31.21656
511.6342, 31.20442
512.1163, 31.09112
512.5984, 31.00484
513.0806, 31.14237
513.5627, 31.40544
514.0448, 31.58862
514.5269, 31.68823
515.0090, 31.18914
515.4911, 31.72799
515.9733, 32.03976
516.4554, 32.13665
516.9375, 31.37509
517.4196, 31.72205
517.9017, 31.62476
518.3839, 31.50926
518.8660, 32.01223
519.3481, 31.37552
519.8302, 31.86869
520.3123, 31.86571
520.7944, 32.03127
521.2766, 32.06127
521.7587, 31.85276
522.2408, 31.49134
522.7229, 31.33299
523.2050, 31.43867
523.6871, 31.52369
524.1693, 31.34482
524.6514, 30.94808
525.1335, 30.97163
525.6156, 31.47292
526.0977, 32.02341
526.5798, 32.15736
527.0620, 31.98964
527.5441, 31.86987
528.0262, 31.91587
528.5083, 31.96428
528.9904, 31.74217
529.4725, 31.37856
529.9547, 31.19123
530.4368, 31.57316
530.9189, 31.99539
531.4010, 32.11427
531.8831, 31.23312
532.3652, 31.72082
532.8474, 31.98143
533.3295, 32.02717
533.8116, 31.21446
534.2937, 31.51027
534.7758, 32.38638
535.2579, 31.12461
535.7401, 31.70849
536.2222, 32.06528
536.7043, 32.20718
537.1865, 31.49065
537.6686, 31.88261
538.1507, 31.83034
538.6328, 32.34454
539.1149, 32.30604
539.5970, 32.24406
540.0792, 32.05914
540.5613, 31.81964
541.0434, 31.97256
541.5255, 32.58101
542.0076, 33.11134
542.4897, 32.77588
542.9719, 32.01138
543.4540, 31.73748
543.9361, 32.44802
544.4182, 33.29501
544.9003, 33.61135
545.3824, 33.55776
545.8646, 33.49185
546.3467, 33.46822
546.8288, 33.54457
547.3109, 33.82065
547.7930, 34.30038
548.2751, 34.63113
548.7573, 34.63579
549.2394, 34.57298
549.7215, 34.57818
550.2036, 34.67232
550.6857, 34.78906
551.1678, 34.93028
551.6500, 35.09364
552.1321, 35.31839
552.6142, 35.64511
553.0963, 35.74428
553.5784, 35.41299
554.0605, 34.91454
554.5427, 34.99234
555.0248, 35.62123
555.5069, 36.34951
555.9890, 37.01310
556.4711, 37.55885
556.9532, 37.82384
557.4354, 37.80365
557.9175, 37.76900
558.3996, 37.92454
558.8817, 38.17333
559.3638, 38.42165
559.8459, 38.68114
560.3281, 38.86319
560.8102, 38.92511
561.2923, 38.88725
561.7744, 38.78021
562.2565, 38.32558
562.7386, 38.12123
563.2208, 38.36526
563.7029, 38.99163
564.1850, 39.56709
564.6671, 40.08096
565.1492, 40.55573
565.6313, 41.07505
566.1135, 41.67041
566.5956, 41.76207
567.0777, 41.25554
567.5598, 40.57481
568.0419, 40.01145
568.5240, 39.61510
569.0062, 39.68734
569.4883, 40.41494
569.9704, 41.32054
570.4525, 41.87121
570.9346, 42.11938
571.4167, 42.17938
571.8989, 41.84614
572.3810, 41.56238
572.8631, 41.76197
573.3452, 42.35615
573.8273, 42.74318
574.3094, 42.54899
574.7916, 42.20010
575.2737, 41.91228
575.7558, 41.71509
576.2379, 41.54856
576.7200, 41.39757
577.2021, 41.28863
577.6843, 41.24413
578.1664, 41.26807
578.6485, 41.36609
579.1306, 41.60260
579.6127, 41.84201
580.0948, 41.80547
580.5770, 41.49374
581.0591, 41.06315
581.5412, 40.47273
582.0233, 39.86424
582.5054, 39.56986
582.9875, 39.56836
583.4697, 39.67417
583.9518, 39.82211
584.4340, 39.98163
584.9161, 40.18276
585.3982, 40.45687
585.8803, 40.49223
586.3624, 39.83875
586.8445, 39.02252
587.3267, 38.53028
587.8088, 38.82952
588.2909, 38.98556
588.7730, 38.79417
589.2551, 38.42361
589.7372, 38.14796
590.2194, 37.98763
590.7015, 37.88440
591.1836, 37.84237
591.6657, 37.84625
592.1478, 37.81483
592.6299, 37.74349
593.1121, 37.67062
593.5942, 37.70001
594.0763, 37.75373
594.5584, 37.45760
595.0405, 36.78786
595.5226, 36.15310
596.0048, 35.84327
596.4869, 35.82156
596.9690, 36.09520
597.4511, 36.82782
597.9332, 37.43328
598.4153, 37.51761
598.8975, 37.27523
599.3796, 37.00255
599.8617, 36.53202
600.3438, 36.30432
600.8259, 36.63033
601.3080, 37.32838
601.7902, 37.68004
602.2723, 37.58018
602.7544, 37.29469
603.2365, 36.83050
603.7186, 36.19874
604.2007, 35.91272
604.6829, 36.02907
605.1650, 36.22780
605.6471, 36.30587
606.1292, 36.25332
606.6113, 35.95972
607.0934, 35.36992
607.5756, 34.82628
608.0577, 34.66558
608.5398, 34.80127
609.0219, 35.11592
609.5040, 35.81600
609.9861, 36.34888
610.4683, 36.29911
610.9504, 35.86870
611.4325, 35.48970
611.9146, 35.12819
612.3967, 34.98941
612.8788, 35.34431
613.3610, 36.11154
613.8431, 36.28456
614.3252, 35.52098
614.8073, 34.73793
615.2894, 34.40624
615.7715, 34.55423
616.2537, 34.67187
616.7358, 34.75938
617.2179, 34.81221
617.7000, 34.82129
618.1821, 34.78959
618.6642, 34.71432
619.1464, 34.57461
619.6285, 34.46044
620.1106, 34.48986
620.5927, 34.60268
621.0748, 34.69531
621.5569, 34.84399
622.0391, 34.84747
622.5212, 34.50913
623.0033, 33.94374
623.4854, 33.50200
623.9675, 33.40134
624.4496, 33.26966
624.9318, 32.93658
625.4139, 32.41129
625.8960, 32.19017
626.3781, 32.35686
626.8602, 32.63853
627.3423, 32.88410
627.8245, 33.09483
628.3066, 33.35344
628.7887, 33.68737
629.2708, 33.90337
629.7529, 33.71738
630.2350, 33.26731
630.7172, 32.83110
631.1993, 32.41368
631.6815, 32.17685
632.1636, 32.41824
632.6457, 32.89151
633.1278, 33.20794
633.6099, 33.09164
634.0920, 32.95348
634.5742, 32.92235
635.0563, 32.97340
635.5384, 33.00520
636.0205, 33.06466
636.5026, 33.03267
636.9847, 32.84318
637.4669, 32.51052
637.9490, 32.25810
638.4311, 32.10223
638.9132, 31.94556
639.3953, 31.72658
639.8774, 31.44963
640.3596, 31.09269
640.8417, 30.64135
641.3238, 30.29102
641.8059, 30.28933
642.2880, 30.48586
642.7701, 30.68923
643.2523, 30.89107
643.7344, 31.00675
644.2165, 30.94639
644.6986, 30.79084
645.1807, 30.64838
645.6628, 30.56644
646.1450, 30.46696
646.6271, 30.32161
647.1092, 30.15540
647.5913, 30.03775
648.0734, 29.98035
648.5555, 29.93919
649.0377, 29.91553
649.5198, 29.89379
650.0019, 29.74644
650.4840, 29.47386
650.9661, 29.33275
651.4482, 29.72152
651.9304, 30.26802
652.4125, 30.18717
652.8946, 29.46311
653.3767, 28.87503
653.8588, 29.13260
654.3409, 29.63086
654.8231, 29.83898
655.3052, 29.54114
655.7873, 29.31453
656.2694, 29.46296
656.7515, 29.63679
657.2336, 29.48388
657.7158, 28.79148
658.1979, 28.21980
658.6800, 27.78445
659.1621, 27.52742
659.6442, 27.62672
660.1263, 28.08745
660.6085, 28.36977
661.0906, 28.25048
661.5727, 27.92809
662.0548, 27.72435
662.5369, 27.61807
663.0190, 27.52855
663.5012, 27.35266
663.9833, 27.22423
664.4654, 27.33416
664.9475, 27.63775
665.4296, 27.77420
665.9117, 27.44479
666.3939, 27.07564
666.8760, 26.90943
667.3581, 27.00009
667.8402, 26.91526
668.3223, 26.50342
668.8044, 26.15423
669.2866, 26.22876
669.7687, 26.75138
670.2508, 27.07972
670.7329, 27.16885
671.2150, 27.11147
671.6971, 26.94409
672.1793, 26.71420
672.6614, 26.53949
673.1435, 26.43108
673.6256, 26.42138
674.1077, 26.64994
674.5898, 26.96600
675.0720, 27.13389
675.5541, 27.01916
676.0362, 26.81809
676.5183, 26.51366
677.0004, 26.16289
677.4825, 25.88344
677.9647, 25.52667
678.4468, 25.57570
678.9290, 25.72451
679.4111, 26.18587
679.8932, 26.42013
680.3753, 26.43953
680.8574, 25.60047
681.3395, 25.86993
681.8217, 25.69512
682.3038, 25.50212
682.7859, 25.92760
683.2680, 25.21339
683.7501, 25.50161
684.2322, 25.21612
684.7144, 25.24246
685.1965, 25.69507
685.6786, 25.86902
686.1607, 25.22924
686.6428, 24.48975
687.1249, 24.16705
687.6071, 24.47433
688.0892, 24.73218
688.5713, 24.95812
689.0534, 25.10631
689.5355, 25.01559
690.0176, 24.70757
690.4998, 24.77514
690.9819, 25.44161
691.4640, 26.18498
691.9461, 26.25349
692.4282, 25.85018
692.9103, 25.41699
693.3925, 25.13224
693.8746, 24.85102
694.3567, 24.39169
694.8388, 23.87743
695.3209, 23.59807
695.8030, 23.73566
696.2852, 23.99988
696.7673, 24.43899
697.2494, 24.96929
697.7315, 25.08478
698.2136, 24.64688
698.6957, 24.25141
699.1779, 24.18846
699.6600, 24.37734
700.1421, 24.49292
700.6242, 24.53502
701.1063, 24.47873
701.5884, 24.18325
702.0706, 23.84504
702.5527, 23.77052
703.0348, 23.97868
703.5169, 24.07819
703.9990, 23.56935
704.4811, 23.09864
704.9633, 23.20519
705.4454, 24.34052
705.9275, 24.87952
706.4096, 24.46039
706.8917, 23.84332
707.3738, 23.72930
707.8560, 24.19744
708.3381, 24.42147
708.8202, 24.30457
709.3023, 24.06211
709.7844, 23.91867
710.2665, 23.86892
710.7487, 23.92874
711.2308, 24.18273
711.7129, 24.33857
712.1950, 24.05251
712.6771, 23.54886
713.1592, 23.16519
713.6414, 23.03120
714.1235, 23.00112
714.6056, 23.07687
715.0877, 23.23133
715.5698, 23.43683
716.0519, 23.76117
716.5341, 23.94818
717.0162, 23.89751
717.4983, 23.69471
717.9804, 23.57436
718.4625, 23.53197
718.9446, 23.51803
719.4268, 23.46437
719.9089, 23.45452
720.3910, 23.70560
720.8731, 24.13088
721.3552, 24.37219
721.8373, 24.07150
722.3195, 23.69394
722.8016, 23.49555
723.2837, 23.49444
723.7658, 23.44520
724.2479, 23.31160
724.7300, 23.16607
725.2122, 23.05616
725.6943, 22.98358
726.1765, 22.79734
726.6586, 22.47361
727.1407, 22.17355
727.6228, 21.96747
728.1049, 21.88501
728.5870, 22.08234
729.0692, 22.58041
729.5513, 23.00065
730.0334, 23.01347
730.5155, 22.85496
730.9976, 22.71552
731.4797, 22.58253
731.9619, 22.60619
732.4440, 23.12807
732.9261, 23.58956
733.4082, 23.51952
733.8903, 22.71305
734.3724, 22.01859
734.8546, 21.42525
735.3367, 21.08428
735.8188, 21.34295
736.3009, 22.06750
736.7830, 22.65376
737.2651, 22.98158
737.7473, 23.12568
738.2294, 23.09579
738.7115, 22.94705
739.1936, 22.75726
739.6757, 22.42975
740.1578, 22.22001
740.6400, 22.34212
741.1221, 22.58533
741.6042, 22.57087
742.0863, 22.13086
742.5684, 21.80169
743.0505, 21.66912
743.5327, 21.69142
744.0148, 21.86314
744.4969, 22.15951
744.9790, 22.25257
745.4611, 21.87331
745.9432, 21.41280
746.4254, 21.44100
746.9075, 21.80259
747.3896, 22.09665
747.8717, 22.19229
748.3538, 22.13661
748.8359, 21.87638
749.3181, 21.45951
749.8002, 21.11887
750.2823, 20.82065
750.7644, 20.67837
751.2465, 20.78638
751.7286, 21.07321
752.2108, 21.15134
752.6929, 21.01623
753.1750, 20.93713
753.6571, 21.13507
754.1392, 21.45321
754.6213, 21.64032
755.1035, 21.70973
755.5856, 21.73379
756.0677, 21.82756
756.5498, 21.82337
757.0319, 21.47613
757.5140, 20.76522
757.9962, 20.57326
758.4783, 21.44999
758.9604, 22.11370
759.4425, 21.81345
759.9246, 20.59198
760.4067, 20.24035
760.8889, 20.84358
761.3710, 21.56328
761.8531, 21.80298
762.3352, 21.71998
762.8173, 21.53951
763.2994, 21.28317
763.7816, 21.12797
764.2637, 21.26408
764.7458, 21.48822
765.2279, 21.69862
765.7100, 21.93363
766.1921, 21.87983
766.6743, 21.26446
767.1564, 20.68162
767.6385, 20.55537
768.1206, 20.95154
768.6027, 21.16343
769.0848, 21.16989
769.5670, 21.10320
770.0491, 21.09025
770.5312, 21.09090
771.0133, 21.01276
771.4954, 20.83851
771.9775, 20.66090
772.4597, 20.49845
772.9418, 20.38355
773.4240, 20.34404
773.9061, 20.40033
774.3882, 20.49983
774.8703, 20.68152
775.3524, 20.85739
775.8345, 20.96360
776.3167, 21.00155
776.7988, 20.91548
777.2809, 20.67044
777.7630, 20.46762
778.2451, 20.62784
778.7272, 20.96788
779.2094, 21.11956
779.6915, 20.99100
780.1736, 20.76417
780.6557, 20.33313
781.1378, 19.97258
781.6199, 19.96994
782.1021, 20.79209
782.5842, 21.24765
783.0663, 21.17261
783.5484, 20.91294
784.0305, 20.85761
784.5126, 21.01517
784.9948, 21.09530
785.4769, 21.06159
785.9590, 20.95774
786.4411, 20.82523
786.9232, 20.66092
787.4053, 20.43911
787.8875, 20.10691
788.3696, 19.84529
788.8517, 19.70217
789.3338, 19.69040
789.8159, 19.84089
790.2980, 20.38458
790.7802, 20.64684
791.2623, 20.47309
791.7444, 20.19147
792.2265, 20.27818
792.7086, 20.70806
793.1907, 21.03868
793.6729, 21.20124
794.1550, 21.24526
794.6371, 21.21222
795.1192, 21.10452
795.6013, 20.91095
796.0834, 20.54732
796.5656, 20.26378
797.0477, 20.22296
797.5298, 20.27473
798.0119, 20.22672
798.4940, 20.00056
798.9761, 19.84795
799.4583, 19.78603
799.9404, 19.80216
800.4225, 19.90518
800.9046, 20.07991
801.3867, 20.22874
801.8688, 20.31814
802.3510, 20.42756
802.8331, 20.74384
803.3152, 21.08971
803.7973, 21.21250
804.2794, 20.96620
804.7615, 20.22154
805.2437, 20.66211
805.7258, 20.90806
806.2079, 20.96984
806.6900, 20.29587
807.1721, 20.57198
807.6542, 20.46733
808.1364, 20.34707
808.6185, 20.79289
809.1006, 20.75222
809.5827, 20.69988
810.0648, 20.68530
810.5469, 20.66450
811.0291, 20.53044
811.5112, 20.40522
811.9933, 20.43976
812.4754, 20.98932
812.9575, 21.16529
813.4396, 20.70115
813.9218, 20.07796
814.4039, 19.87766
814.8860, 20.13077
815.3681, 20.28231
815.8502, 20.26175
816.3323, 20.17481
816.8145, 20.12835
817.2966, 20.10793
817.7787, 20.07484
818.2608, 19.99612
818.7429, 19.98850
819.2251, 20.21882
819.7072, 20.48521
820.1893, 20.57850
820.6714, 20.40730
821.1536, 20.24146
821.6357, 20.05976
822.1178, 19.92091
822.5999, 19.89402
823.0820, 19.97052
823.5641, 20.14244
824.0463, 20.43383
824.5284, 20.61166
825.0105, 20.27358
825.4926, 19.79256
825.9747, 19.63119
826.4568, 19.98146
826.9390, 20.28444
827.4211, 20.45551
827.9032, 20.50113
828.3853, 20.33669
828.8674, 19.81138
829.3495, 19.94860
829.8317, 20.03597
830.3138, 20.38875
830.7959, 20.54690
831.2780, 20.52088
831.7601, 19.75912
832.2422, 19.94741
832.7244, 19.75494
833.2065, 20.00889
833.6886, 19.73556
834.1707, 19.94543
834.6528, 20.15978
835.1349, 20.51207
835.6171, 20.66971
836.0992, 20.64323
836.5813, 19.88099
837.0634, 20.06883
837.5455, 20.28461
838.0276, 19.76742
838.5098, 19.37540
838.9919, 19.63125
839.4740, 20.10483
839.9561, 20.33413
840.4382, 20.28955
840.9203, 20.20157
841.4025, 19.99432
841.8846, 19.91654
842.3667, 19.87325
842.8488, 20.28326
843.3309, 20.49866
843.8130, 20.52989
844.2952, 19.82535
844.7773, 20.07091
845.2594, 19.93571
845.7415, 19.78490
846.2236, 20.16417
846.7057, 19.56666
847.1879, 19.93752
847.6700, 19.58685
848.1521, 20.01831
848.6342, 20.25514
849.1163, 20.30782
849.5984, 19.62474
850.0806, 19.89174
850.5627, 19.77799
851.0448, 19.64862
851.5269, 20.04934
852.0090, 19.47328
852.4911, 19.86558
852.9733, 19.87133
853.4554, 20.05400
853.9375, 20.08829
854.4196, 20.36950
854.9017, 20.52142
855.3839, 20.37832
855.8660, 20.27663
856.3481, 20.34886
856.8302, 20.46905
857.3123, 20.30826
857.7944, 19.83500
858.2766, 19.48844
858.7587, 19.39357
859.2408, 19.43711
859.7229, 19.55770
860.2050, 19.67924
860.6871, 19.61466
861.1693, 18.97417
861.6514, 18.66179
862.1335, 19.09641
862.6156, 19.54881
863.0977, 19.80659
863.5798, 19.88021
864.0620, 19.21808
864.5441, 19.50602
865.0262, 19.41322
865.5083, 19.30480
865.9904, 19.72645
866.4726, 19.17134
866.9547, 19.58459
867.4368, 19.61129
867.9189, 19.53922
868.4011, 19.34785
868.8832, 19.23718
869.3653, 19.28228
869.8474, 19.30121
870.3295, 19.30790
870.8116, 19.26483
871.2938, 19.14547
871.7759, 18.94979
872.2580, 18.65101
872.7401, 18.24403
873.2222, 17.88804
873.7043, 17.67879
874.1865, 17.60211
874.6686, 17.68232
875.1507, 17.92132
875.6328, 18.14051
876.1149, 18.37659
876.5970, 18.48913
877.0792, 18.39022
877.5613, 18.10399
878.0434, 17.85845
878.5255, 17.65288
879.0076, 17.52050
879.4897, 17.55579
879.9719, 17.63212
880.4540, 17.51128
880.9361, 17.26612
881.4182, 17.14823
881.9003, 17.49534
882.3824, 17.72672
882.8646, 17.46568
883.3467, 16.97192
883.8288, 16.95705
884.3109, 17.52077
884.7930, 18.03372
885.2751, 18.39652
885.7573, 18.50550
886.2394, 17.90218
886.7215, 16.91774
887.2036, 16.39946
887.6857, 16.95259
888.1678, 17.49869
888.6500, 17.54990
889.1321, 17.32807
889.6142, 17.11672
890.0963, 16.88078
890.5784, 16.78853
891.0605, 16.88165
891.5427, 17.04382
892.0248, 17.21516
892.5069, 17.34465
892.9890, 17.19376
893.4711, 16.68820
893.9532, 16.33706
894.4354, 16.66149
894.9175, 17.16783
895.3996, 17.47360
895.8817, 17.51128
896.3638, 17.43872
896.8459, 17.23613
897.3281, 16.96445
897.8102, 16.59228
898.2923, 16.16921
898.7744, 16.06790
899.2565, 16.25354
899.7386, 16.35316
900.2208, 15.88489
900.7029, 15.44541
901.1850, 15.23120
901.6671, 15.75523
902.1492, 16.05218
902.6313, 16.13426
903.1135, 15.35789
903.5956, 15.69002
904.0777, 15.57792
904.5598, 15.44760
905.0419, 15.93575
905.5240, 15.28424
906.0062, 15.76259
906.4883, 15.78992
906.9704, 16.02366
907.4525, 15.81043
907.9346, 15.73525
908.4167, 16.10720
908.8989, 16.23158
909.3810, 15.96688
909.8631, 16.21375
910.3452, 15.74183
910.8273, 15.54125
911.3094, 15.42667
911.7916, 15.45457
912.2737, 15.46652
912.7558, 15.17332
913.2380, 14.86665
913.7201, 14.95035
914.2022, 15.60962
914.6843, 15.92311
915.1664, 15.42405
915.6486, 14.96972
916.1307, 15.08870
916.6128, 15.73083
917.0949, 16.00280
917.5770, 15.90624
918.0591, 15.74092
918.5413, 15.66509
919.0234, 15.64407
919.5055, 15.74828
919.9876, 15.90031
920.4697, 15.79083
920.9518, 14.86790
921.4340, 14.26118
921.9161, 14.31316
922.3982, 14.77391
922.8803, 15.06190
923.3624, 15.17604
923.8445, 15.13075
924.3267, 14.73168
924.8088, 15.21026
925.2909, 15.49423
925.7730, 15.59404
926.2551, 14.95809
926.7372, 15.27221
927.2194, 15.20560
927.7015, 15.12336
928.1836, 15.57120
928.6657, 15.62267
929.1478, 15.65703
929.6299, 15.51083
930.1121, 15.18346
930.5942, 14.91154
931.0763, 14.98435
931.5584, 15.16651
932.0405, 15.17149
932.5226, 14.97725
933.0048, 14.89569
933.4869, 15.27093
933.9690, 15.41027
934.4511, 14.90507
934.9332, 13.97580
935.4153, 13.87054
935.8975, 14.55137
936.3796, 15.22121
936.8617, 15.56399
937.3438, 15.66691
937.8259, 15.44535
938.3080, 15.07545
938.7902, 14.91400
939.2723, 15.31920
939.7544, 15.57820
940.2365, 15.60166
940.7186, 15.46908
941.2007, 15.26672
941.6829, 14.99834
942.1650, 14.67628
942.6471, 14.28209
943.1292, 13.97622
943.6113, 13.95923
944.0934, 14.06810
944.5756, 14.11335
945.0577, 14.02824
945.5398, 14.17477
946.0219, 14.83480
946.5040, 15.29649
946.9861, 15.10798
947.4683, 14.39700
947.9504, 13.89530
948.4325, 13.59598
948.9146, 13.46636
949.3967, 13.60057
949.8788, 13.79318
950.3610, 13.94033
950.8431, 14.02567
951.3252, 13.99119
951.8073, 13.71538
952.2894, 13.54144
952.7715, 13.48578
953.2537, 13.60352
953.7358, 14.16359
954.2179, 15.00448
954.7000, 15.43806
955.1821, 15.25824
955.6642, 14.95616
956.1464, 14.89813
956.6285, 14.85965
957.1106, 14.59083
957.5927, 13.97588
958.0748, 13.61511
958.5569, 13.57140
959.0391, 13.61151
959.5212, 13.55033
960.0033, 13.45836
960.4855, 13.61572
960.9676, 13.96946
961.4497, 14.21549
961.9318, 14.01342
962.4139, 13.84883
962.8961, 14.08004
963.3782, 14.52302
963.8603, 14.65375
964.3424, 14.39024
964.8245, 14.15972
965.3066, 14.05186
965.7888, 13.99345
966.2709, 13.78965
966.7530, 13.57878
967.2351, 13.70814
967.7172, 14.42743
968.1993, 14.86620
968.6815, 14.39853
969.1636, 13.77991
969.6457, 13.53319
970.1278, 13.69127
970.6099, 13.89194
971.0920, 14.15696
971.5742, 14.40744
972.0563, 14.80354
972.5384, 15.00501
973.0205, 15.02231
973.5026, 14.30387
973.9847, 14.53550
974.4669, 14.38637
974.9490, 13.46342
975.4311, 13.45385
975.9132, 13.66879
976.3953, 13.99791
976.8774, 14.50367
977.3596, 14.81484
977.8417, 14.94182
978.3238, 14.33305
978.8059, 14.67436
979.2880, 14.63492
979.7701, 14.57986
980.2523, 14.77864
980.7344, 15.12992
981.2165, 15.28657
981.6986, 15.25906
982.1807, 14.49580
982.6628, 14.68262
983.1450, 14.48866
983.6271, 14.27912
984.1092, 14.59964
984.5913, 13.94340
985.0734, 14.56431
985.5555, 14.27571
986.0377, 13.53167
986.5198, 13.47188
987.0019, 14.42183
987.4840, 14.94176
987.9661, 14.72931
988.4482, 14.25788
988.9304, 14.20246
989.4125, 14.34807
989.8946, 14.24297
990.3767, 13.75743
990.8588, 13.36853
991.3409, 13.37057
991.8231, 13.43740
992.3052, 13.33914
992.7873, 13.09175
993.2694, 13.11798
993.7515, 13.42418
994.2336, 13.82608
994.7158, 14.41589
995.1979, 14.87455
995.6800, 14.61273
996.1621, 13.95208
996.6442, 13.64525
997.1263, 14.38391
997.6085, 14.80250
998.0906, 14.68820
998.5727, 14.31847
999.0548, 13.95274
999.5369, 13.62213
1000.019, 13.56862
1000.501, 13.83139
1000.983, 14.14992
1001.465, 14.41300
1001.948, 14.59776
1002.430, 14.66678
1002.912, 14.61759
1003.394, 14.56662
1003.876, 14.53368
1004.358, 14.42272
1004.840, 14.14657
1005.322, 13.82846
1005.804, 13.69262
1006.287, 13.70861
1006.769, 13.80504
1007.251, 14.05208
1007.733, 14.22672
1008.215, 14.25729
1008.697, 14.18622
1009.179, 14.00591
1009.661, 13.69402
1010.144, 13.55691
1010.626, 13.61021
1011.108, 13.73996
1011.590, 13.89670
1012.072, 14.05140
1012.554, 14.23027
1013.036, 14.40548
1013.518, 14.36500
1014.000, 13.83540
1014.483, 13.52377
1014.965, 13.65850
1015.447, 14.02602
1015.929, 14.26069
1016.411, 14.35817
1016.893, 14.26839
1017.375, 13.91557
1017.857, 13.60064
1018.340, 12.85112
1018.822, 13.37110
1019.304, 13.69645
1019.786, 13.83764
1020.268, 13.24308
1020.750, 13.59859
1021.232, 13.57336
1021.714, 14.28697
1022.196, 14.10551
1022.679, 13.61387
1023.161, 12.99145
1023.643, 12.76114
1024.125, 13.59183
1024.607, 14.17506
1025.089, 14.25418
1025.571, 14.05495
1026.053, 13.76285
1026.536, 13.43275
1027.018, 13.62210
1027.500, 14.43926
1027.982, 15.00117
1028.464, 14.16503
1028.946, 13.16782
1029.428, 13.11388
1029.910, 14.04681
1030.392, 14.48889
1030.875, 14.30793
1031.357, 14.12538
1031.839, 14.16535
1032.321, 14.31998
1032.803, 14.48724
1033.285, 14.60662
1033.767, 14.52633
1034.249, 14.03784
1034.732, 13.67550
1035.214, 13.60730
1035.696, 13.67289
1036.178, 13.81232
1036.660, 14.02225
1037.142, 13.97402
1037.624, 13.68134
1038.106, 13.50490
1038.589, 13.78614
1039.071, 14.18687
1039.553, 14.50798
1040.035, 14.73777
1040.517, 14.88202
1040.999, 14.96423
1041.481, 14.87984
1041.963, 14.54790
1042.445, 14.22495
1042.927, 14.44884
1043.410, 14.86541
1043.892, 14.67475
1044.374, 13.69039
1044.856, 12.92051
1045.338, 12.82491
1045.820, 12.95790
1046.302, 13.18973
1046.784, 13.48346
1047.267, 13.60255
1047.749, 13.56905
1048.231, 13.65463
1048.713, 14.10760
1049.195, 14.46527
1049.677, 14.27251
1050.159, 13.80277
1050.641, 13.41716
1051.124, 13.13009
1051.606, 12.98156
1052.088, 12.99321
1052.570, 13.06469
1053.052, 13.06699
1053.534, 13.09875
1054.016, 13.51330
1054.498, 14.17805
1054.980, 14.46466
1055.463, 13.65181
1055.945, 13.04469
1056.427, 13.02794
1056.909, 13.28869
1057.391, 13.29929
1057.873, 13.09947
1058.355, 13.03312
1058.837, 13.16352
1059.319, 13.30186
1059.802, 13.32851
1060.284, 13.28296
1060.766, 13.12806
1061.248, 12.88517
1061.730, 12.89454
1062.212, 13.20699
1062.694, 13.51436
1063.176, 13.71311
1063.659, 13.83010
1064.141, 13.87116
1064.623, 13.86960
1065.105, 13.89464
1065.587, 14.05494
1066.069, 14.02505
1066.551, 13.73728
1067.033, 13.32755
1067.516, 12.75509
1067.998, 12.12227
1068.480, 12.15907
1068.962, 12.73642
1069.444, 13.13363
1069.926, 12.62840
1070.408, 12.20955
1070.890, 12.52890
1071.372, 13.14150
1071.854, 13.36932
1072.337, 13.17208
1072.819, 12.93854
1073.301, 12.69361
1073.783, 12.55153
1074.265, 12.78947
1074.747, 13.06398
1075.229, 12.97028
1075.711, 12.51616
1076.194, 12.22009
1076.676, 12.16569
1077.158, 12.14296
1077.640, 12.08663
1078.122, 12.05470
1078.604, 12.11268
1079.086, 12.27959
1079.568, 12.65392
1080.051, 13.35959
1080.533, 13.84382
1081.015, 13.82504
1081.497, 13.61389
1081.979, 13.31116
1082.461, 12.93917
1082.943, 12.56884
1083.425, 12.22156
1083.907, 12.08846
1084.390, 12.39447
1084.872, 12.75013
1085.354, 12.99313
1085.836, 13.09334
1086.318, 12.98872
1086.800, 12.56512
1087.282, 12.46710
1087.764, 12.74234
1088.247, 13.04120
1088.729, 13.02844
1089.211, 12.93052
1089.693, 13.10328
1090.175, 13.44009
1090.657, 13.48379
1091.139, 12.90711
1091.621, 12.49696
1092.104, 12.35625
1092.586, 12.41476
1093.068, 12.75831
1093.550, 13.18567
1094.032, 13.16449
1094.514, 12.63202
1094.996, 12.13547
1095.478, 11.78645
1095.960, 11.69421
1096.443, 11.97426
1096.925, 12.48355
1097.407, 12.85271
1097.889, 13.07994
1098.371, 13.13847
1098.853, 13.00878
1099.335, 12.76118
1099.817, 12.16643
1100.299, 11.68804
1100.782, 11.88182
1101.264, 12.77844
1101.746, 12.95831
1102.228, 12.36599
1102.710, 11.81960
1103.192, 11.76884
1103.674, 11.90983
1104.156, 11.89990
1104.639, 11.84337
1105.121, 11.92218
1105.603, 12.33363
1106.085, 12.53593
1106.567, 12.49221
1107.049, 12.34472
1107.531, 12.10373
1108.013, 11.88524
1108.495, 12.04150
1108.978, 12.45024
1109.460, 12.61794
1109.942, 12.11325
1110.424, 11.68158
1110.906, 11.42826
1111.388, 11.32768
1111.870, 11.33311
1112.352, 11.45887
1112.834, 11.92453
1113.317, 12.72613
1113.799, 13.13286
1114.281, 12.30548
1114.763, 11.41229
1115.245, 10.96658
1115.727, 10.89794
1116.209, 11.14840
1116.691, 11.70541
1117.174, 12.09909
1117.656, 12.23763
1118.138, 12.15394
1118.620, 11.69106
1119.102, 11.15809
1119.584, 10.78511
1120.066, 10.58644
1120.548, 10.66333
1121.031, 11.05523
1121.513, 11.45211
1121.995, 11.75015
1122.477, 11.98106
1122.959, 12.28451
1123.441, 12.50965
1123.923, 12.39933
1124.405, 11.69302
1124.887, 11.33021
1125.370, 11.45447
1125.852, 11.54720
1126.334, 11.15894
1126.816, 10.63823
1127.298, 10.80073
1127.780, 11.41524
1128.262, 11.92987
1128.744, 12.20868
1129.227, 12.26393
1129.709, 12.01586
1130.191, 11.70450
1130.673, 11.50715
1131.155, 11.42012
1131.637, 11.51824
1132.119, 11.74414
1132.601, 11.77345
1133.083, 11.17239
1133.566, 10.67720
1134.048, 10.53819
1134.530, 10.62265
1135.012, 10.84018
1135.494, 11.16289
1135.976, 11.31507
1136.458, 11.27291
1136.940, 11.06123
1137.422, 10.42622
1137.905, 9.897056
1138.387, 9.831309
1138.869, 10.10611
1139.351, 10.48546
1139.833, 10.98073
1140.315, 11.38886
1140.797, 11.68041
1141.279, 11.83557
1141.762, 11.79498
1142.244, 11.64480
1142.726, 11.37701
1143.208, 11.02695
1143.690, 10.99663
1144.172, 11.35888
1144.654, 11.61891
1145.136, 11.63052
1145.619, 11.46959
1146.101, 11.06415
1146.583, 10.62917
1147.065, 10.43956
1147.547, 10.59202
1148.029, 10.74575
1148.511, 10.88822
1148.993, 11.05700
1149.475, 11.29771
1149.958, 11.53179
1150.440, 11.66486
1150.922, 11.68817
1151.404, 11.56260
1151.886, 11.12971
1152.368, 10.94145
1152.850, 11.11305
1153.332, 11.34439
1153.814, 11.46985
1154.297, 11.51028
1154.779, 11.48861
1155.261, 11.42629
1155.743, 11.38437
1156.225, 11.44350
1156.707, 11.44221
1157.189, 11.40662
1157.671, 11.24756
1158.154, 10.67564
1158.636, 9.916837
1159.118, 10.15769
1159.600, 11.17752
1160.082, 11.81352
1160.564, 10.98971
1161.046, 10.38526
1161.528, 10.60390
1162.010, 11.08996
1162.493, 11.16797
1162.975, 10.92143
1163.457, 10.96035
1163.939, 11.29313
1164.421, 11.59487
1164.903, 11.78308
1165.385, 11.76640
1165.867, 11.39192
1166.349, 10.86415
1166.832, 10.44523
1167.314, 10.14608
1167.796, 10.24660
1168.278, 10.78232
1168.760, 11.24059
1169.242, 11.07658
1169.724, 10.90822
1170.206, 11.27163
1170.689, 11.87998
1171.171, 11.95970
1171.653, 11.52024
1172.135, 11.14898
1172.617, 10.95035
1173.099, 10.88072
1173.581, 11.04056
1174.063, 11.20254
1174.546, 11.16350
1175.028, 10.96607
1175.510, 10.76714
1175.992, 10.55651
1176.474, 10.61652
1176.956, 11.10930
1177.438, 11.51228
1177.920, 11.20203
1178.402, 10.67337
1178.885, 10.34153
1179.367, 10.22952
1179.849, 10.35580
1180.331, 10.75447
1180.813, 11.02813
1181.295, 11.01545
1181.777, 10.89074
1182.259, 10.76686
1182.742, 10.67407
1183.224, 10.67415
1183.706, 10.78772
1184.188, 10.74730
1184.670, 10.51853
1185.152, 10.38664
1185.634, 10.51554
1186.116, 10.73530
1186.599, 10.92978
1187.081, 11.05719
1187.563, 11.02140
1188.045, 10.73460
1188.527, 10.67802
1189.009, 10.89727
1189.491, 11.07187
1189.973, 10.96897
1190.455, 10.79953
1190.938, 10.80859
1191.420, 10.93706
1191.902, 11.12223
1192.384, 11.50871
1192.866, 11.40603
1193.348, 10.68978
1193.830, 10.08453
1194.312, 10.13617
1194.794, 10.50006
1195.277, 10.79435
1195.759, 11.04894
1196.241, 11.33459
1196.723, 11.83914
1197.205, 11.91691
1197.687, 11.47363
1198.169, 10.98654
1198.651, 10.90701
1199.134, 10.94468
1199.616, 10.60713
1200.098, 10.08626
1200.580, 9.888840
1201.062, 10.19289
1201.544, 10.63548
1202.026, 11.28573
1202.508, 11.71578
1202.990, 11.28038
1203.473, 10.59386
1203.955, 10.54674
1204.437, 10.95233
1204.919, 11.10688
1205.401, 10.75957
1205.883, 10.53352
1206.365, 10.47906
1206.847, 10.53061
1207.329, 10.68536
1207.812, 10.86583
1208.294, 11.00081
1208.776, 11.07693
1209.258, 11.04177
1209.740, 10.83511
1210.222, 10.67101
1210.704, 10.56381
1211.186, 10.53417
1211.669, 10.75938
1212.151, 10.96591
1212.633, 10.67457
1213.115, 9.993035
1213.597, 9.654048
1214.079, 9.781710
1214.561, 10.06995
1215.043, 10.53069
1215.526, 10.90495
1216.008, 10.88494
1216.490, 10.64373
1216.972, 10.33534
1217.454, 9.987435
1217.936, 9.683728
1218.418, 9.339861
1218.900, 9.382856
1219.382, 9.962075
1219.865, 10.59736
1220.347, 10.75202
1220.829, 10.67339
1221.311, 10.60497
1221.793, 10.56774
1222.275, 10.53387
1222.757, 10.49370
1223.239, 10.47959
1223.722, 10.48526
1224.204, 10.57787
1224.686, 10.98428
1225.168, 11.40377
1225.650, 11.49443
1226.132, 11.25389
1226.614, 11.09037
1227.096, 11.05730
1227.578, 10.76532
1228.061, 10.05678
1228.543, 9.433943
1229.025, 9.636024
1229.507, 10.03013
1229.989, 9.913943
1230.471, 9.334520
1230.953, 9.177433
1231.435, 9.494718
1231.917, 9.762705
1232.400, 9.854237
1232.882, 9.907806
1233.364, 10.11029
1233.846, 10.29487
1234.328, 10.24899
1234.810, 10.02779
1235.292, 10.04110
1235.774, 10.30555
1236.257, 10.38774
1236.739, 10.13786
1237.221, 9.925513
1237.703, 10.15066
1238.185, 10.47073
1238.667, 10.60085
1239.149, 10.57932
1239.631, 10.55976
1240.114, 10.54514
1240.596, 10.66771
1241.078, 11.01561
1241.560, 11.17478
1242.042, 10.45772
1242.524, 9.815607
1243.006, 10.03984
1243.488, 10.82826
1243.970, 10.98697
1244.453, 10.59369
1244.935, 10.27466
1245.417, 10.19195
1245.899, 10.10868
1246.381, 9.780827
1246.863, 9.516894
1247.345, 9.480086
1247.827, 9.627580
1248.309, 9.931686
1248.792, 10.31290
1249.274, 10.37397
1249.756, 9.961592
1250.238, 9.613528
1250.720, 9.490746
1251.202, 9.654353
1251.684, 10.31109
1252.166, 11.09295
1252.649, 10.84597
1253.131, 9.940015
1253.613, 9.515891
1254.095, 9.892533
1254.577, 10.21020
1255.059, 10.15557
1255.541, 10.05262
1256.023, 9.996980
1256.505, 9.978793
1256.988, 10.01392
1257.470, 10.06079
1257.952, 9.965268
1258.434, 9.643458
1258.916, 9.721894
1259.398, 10.61944
1259.880, 11.12639
1260.362, 10.74037
1260.844, 9.959945
1261.327, 9.439714
1261.809, 9.156719
1262.291, 9.134993
1262.773, 9.411458
1263.255, 9.478545
1263.737, 9.199932
1264.219, 9.144657
1264.701, 9.586251
1265.184, 10.06219
1265.666, 9.813399
1266.148, 9.376107
1266.630, 9.419391
1267.112, 10.02854
1267.594, 10.58645
1268.076, 11.13637
1268.558, 11.26258
1269.041, 10.74299
1269.523, 10.15571
1270.005, 10.03929
1270.487, 10.13468
1270.969, 10.29571
1271.451, 10.46591
1271.933, 10.28652
1272.415, 9.766929
1272.897, 9.503113
1273.380, 9.664684
1273.862, 9.955978
1274.344, 10.35310
1274.826, 10.60649
1275.308, 10.50435
1275.790, 10.17415
1276.272, 10.03198
1276.754, 10.04284
1277.237, 10.03485
1277.719, 9.981488
1278.201, 9.823491
1278.683, 9.298223
1279.165, 8.952586
1279.647, 9.020552
1280.129, 9.366135
1280.611, 9.875711
1281.094, 10.39713
1281.576, 10.42354
1282.058, 9.849676
1282.540, 9.472975
1283.022, 9.626560
1283.504, 9.858144
1283.986, 10.09017
1284.468, 10.27623
1284.950, 10.37213
1285.432, 10.35947
1285.915, 10.14735
1286.397, 9.737429
1286.879, 9.454309
1287.361, 9.280218
1287.843, 9.425924
1288.325, 10.03236
1288.807, 10.59626
1289.289, 10.42486
1289.772, 9.988039
1290.254, 9.753428
1290.736, 9.738858
1291.218, 9.725019
1291.700, 9.700044
1292.182, 9.850744
1292.664, 10.24015
1293.146, 10.47892
1293.629, 10.05145
1294.111, 9.535295
1294.593, 9.324605
1295.075, 9.328931
1295.557, 9.412213
1296.039, 9.561087
1296.521, 9.608386
1297.003, 9.536425
1297.485, 9.491593
1297.968, 9.697349
1298.450, 9.747248
1298.932, 9.368106
1299.414, 8.945494
1299.896, 9.049611
1300.378, 9.599365
1300.860, 10.17353
1301.342, 10.83332
1301.824, 12.40701
1302.307, 15.18064
##END=



