##NAMES=Correianevesite
##RRUFFID=R060701
##IDEAL CHEMISTRY=Fe^2+^Mn^2+^_2_(PO_4_)_2_&#183;3H_2_O
##LOCALITY=Linopolis, Minas Gerais, Brazil
##OWNER=RRUFF
##SOURCE=Bob Jenkins
##DESCRIPTION=Colorless pseudo-octahedral crystals
##STATUS=The identification of this mineral is confirmed by single-crystal X-ray diffraction and chemical analysis.
##URL=rruff.info/R060701
##MEASURED CHEMISTRY=(Mn^2+^_1.98_Fe^2+^_0.98_Ca_0.04_)_Σ=3_(P_1.00_O_4_)_2_·3H_2_O ; H_2_O estimated by difference.
124.903, 355.955
125.385, 382.740
125.867, 414.783
126.349, 448.762
126.831, 485.952
127.313, 524.078
127.796, 559.605
128.278, 596.323
128.760, 641.153
129.242, 698.527
129.724, 766.759
130.206, 829.799
130.688, 883.658
131.170, 937.734
131.652, 999.703
132.135, 1064.465
132.617, 1120.623
133.099, 1160.926
133.581, 1185.340
134.063, 1196.772
134.545, 1200.004
135.027, 1189.161
135.509, 1156.673
135.992, 1106.166
136.474, 1049.207
136.956, 992.282
137.438, 936.413
137.920, 891.636
138.402, 859.808
138.884, 836.398
139.366, 819.456
139.848, 808.719
140.331, 803.359
140.813, 803.235
141.295, 808.937
141.777, 817.621
142.259, 826.665
142.741, 840.250
143.223, 862.172
143.705, 892.776
144.188, 929.525
144.670, 971.859
145.152, 1019.426
145.634, 1068.888
146.116, 1120.423
146.598, 1173.356
147.080, 1227.576
147.562, 1283.682
148.044, 1338.817
148.527, 1389.248
149.009, 1436.246
149.491, 1483.913
149.973, 1536.717
150.455, 1590.389
150.937, 1637.520
151.419, 1676.785
151.901, 1711.922
152.383, 1746.228
152.866, 1779.591
153.348, 1810.675
153.830, 1837.651
154.312, 1861.976
154.794, 1887.055
155.276, 1913.217
155.758, 1939.994
156.240, 1962.966
156.723, 1984.353
157.205, 2015.124
157.687, 2063.861
158.169, 2126.551
158.651, 2189.799
159.133, 2249.656
159.615, 2314.433
160.097, 2390.124
160.579, 2475.543
161.062, 2565.193
161.544, 2659.355
162.026, 2756.077
162.508, 2847.257
162.990, 2933.594
163.472, 3011.139
163.954, 3082.817
164.436, 3146.437
164.919, 3194.345
165.401, 3221.240
165.883, 3227.479
166.365, 3215.696
166.847, 3182.803
167.329, 3132.653
167.811, 3066.718
168.293, 2986.747
168.775, 2898.155
169.258, 2800.367
169.740, 2693.813
170.222, 2598.052
170.704, 2520.667
171.186, 2448.987
171.668, 2375.763
172.150, 2301.779
172.632, 2231.303
173.115, 2167.365
173.597, 2109.882
174.079, 2059.006
174.561, 2018.901
175.043, 1981.749
175.525, 1942.536
176.007, 1902.325
176.489, 1866.915
176.971, 1842.036
177.454, 1828.366
177.936, 1816.927
178.418, 1810.609
178.900, 1804.129
179.382, 1795.625
179.864, 1784.962
180.346, 1772.740
180.828, 1760.393
181.311, 1748.513
181.793, 1730.961
182.275, 1702.223
182.757, 1671.860
183.239, 1644.502
183.721, 1619.210
184.203, 1591.707
184.685, 1557.402
185.167, 1515.656
185.650, 1473.633
186.132, 1430.995
186.614, 1388.462
187.096, 1344.721
187.578, 1300.708
188.060, 1259.642
188.542, 1225.005
189.024, 1198.007
189.507, 1167.594
189.989, 1125.937
190.471, 1087.807
190.953, 1061.449
191.435, 1044.159
191.917, 1026.300
192.399, 997.688
192.881, 956.847
193.363, 925.180
193.846, 910.199
194.328, 898.152
194.810, 884.946
195.292, 870.896
195.774, 858.374
196.256, 850.038
196.738, 846.193
197.220, 839.234
197.702, 825.195
198.185, 811.500
198.667, 799.736
199.149, 790.012
199.631, 782.327
200.113, 777.094
200.595, 774.320
201.077, 769.697
201.559, 758.480
202.042, 749.824
202.524, 748.277
203.006, 751.313
203.488, 753.149
203.970, 748.718
204.452, 738.607
204.934, 734.985
205.416, 746.068
205.898, 755.822
206.381, 759.934
206.863, 759.944
207.345, 758.702
207.827, 757.631
208.309, 757.071
208.791, 760.170
209.273, 771.057
209.755, 781.256
210.238, 786.826
210.720, 790.723
211.202, 797.581
211.684, 810.270
212.166, 827.942
212.648, 846.507
213.130, 866.703
213.612, 886.741
214.094, 906.462
214.577, 925.620
215.059, 943.095
215.541, 957.482
216.023, 971.507
216.505, 995.634
216.987, 1038.207
217.469, 1079.241
217.951, 1113.552
218.434, 1145.272
218.916, 1178.951
219.398, 1216.627
219.880, 1257.626
220.362, 1300.344
220.844, 1346.035
221.326, 1391.827
221.808, 1437.626
222.290, 1483.234
222.773, 1528.917
223.255, 1575.172
223.737, 1619.915
224.219, 1657.619
224.701, 1682.304
225.183, 1713.180
225.665, 1760.758
226.147, 1810.007
226.629, 1849.136
227.112, 1874.642
227.594, 1891.880
228.076, 1909.065
228.558, 1927.574
229.040, 1941.577
229.522, 1949.764
230.004, 1954.025
230.486, 1954.606
230.969, 1951.814
231.451, 1947.046
231.933, 1943.051
232.415, 1941.577
232.897, 1933.079
233.379, 1909.722
233.861, 1884.456
234.343, 1863.927
234.825, 1848.348
235.307, 1833.112
235.790, 1815.305
236.272, 1795.394
236.754, 1767.138
237.236, 1717.487
237.718, 1670.568
238.200, 1640.004
238.682, 1622.966
239.165, 1606.072
239.647, 1576.868
240.129, 1536.112
240.611, 1502.559
241.093, 1481.243
241.575, 1461.337
242.057, 1439.631
242.539, 1415.447
243.021, 1387.599
243.503, 1352.733
243.986, 1313.510
244.468, 1281.551
244.950, 1259.482
245.432, 1240.693
245.914, 1225.883
246.396, 1211.465
246.878, 1190.415
247.361, 1155.340
247.843, 1114.837
248.325, 1088.973
248.807, 1082.689
249.289, 1077.623
249.771, 1063.306
250.253, 1046.267
250.735, 1034.037
251.217, 1029.739
251.699, 1030.049
252.182, 1030.597
252.664, 1031.135
253.146, 1033.439
253.628, 1038.066
254.110, 1045.029
254.592, 1055.306
255.074, 1070.127
255.556, 1084.598
256.039, 1091.263
256.521, 1090.666
257.003, 1097.465
257.485, 1119.980
257.967, 1148.821
258.449, 1173.766
258.931, 1194.677
259.413, 1210.999
259.896, 1217.882
260.378, 1218.883
260.860, 1229.001
261.342, 1255.590
261.824, 1286.031
262.306, 1306.187
262.788, 1316.514
263.270, 1325.091
263.752, 1337.808
264.235, 1350.359
264.717, 1353.805
265.199, 1345.602
265.681, 1333.300
266.163, 1324.052
266.645, 1317.331
267.127, 1309.323
267.609, 1302.768
268.091, 1292.634
268.574, 1272.148
269.056, 1240.959
269.538, 1205.936
270.020, 1170.603
270.502, 1135.808
270.984, 1107.000
271.466, 1086.725
271.948, 1070.301
272.431, 1056.759
272.913, 1045.116
273.395, 1031.703
273.877, 1014.031
274.359, 992.999
274.841, 972.594
275.323, 951.477
275.805, 932.274
276.288, 915.811
276.770, 901.801
277.252, 889.896
277.734, 879.883
278.216, 871.847
278.698, 866.144
279.180, 865.154
279.662, 862.801
280.144, 858.359
280.626, 852.383
281.109, 844.734
281.591, 835.532
282.073, 826.581
282.555, 820.964
283.037, 822.071
283.519, 817.875
284.001, 803.568
284.483, 788.152
284.966, 776.752
285.448, 770.138
285.930, 767.183
286.412, 767.880
286.894, 773.637
287.376, 771.477
287.858, 750.579
288.340, 733.075
288.823, 729.134
289.305, 735.068
289.787, 741.868
290.269, 743.628
290.751, 740.956
291.233, 737.678
291.715, 732.792
292.197, 728.648
292.679, 724.479
293.162, 721.687
293.644, 722.440
294.126, 727.901
294.608, 735.767
295.090, 740.894
295.572, 741.663
296.054, 743.791
296.536, 748.723
297.018, 755.038
297.501, 761.872
297.983, 769.028
298.465, 776.510
298.947, 783.694
299.429, 790.409
299.911, 800.141
300.393, 818.188
300.875, 834.440
301.358, 841.499
301.840, 840.369
302.322, 838.294
302.804, 839.630
303.286, 843.713
303.768, 848.667
304.250, 855.501
304.732, 860.841
305.215, 862.971
305.697, 862.080
306.179, 857.822
306.661, 846.036
307.143, 833.385
307.625, 829.294
308.107, 834.081
308.589, 839.719
309.071, 844.682
309.553, 846.276
310.036, 839.300
310.518, 818.831
311.000, 797.376
311.482, 784.335
311.964, 776.328
312.446, 761.954
312.928, 735.104
313.410, 704.621
313.893, 688.492
314.375, 691.072
314.857, 689.377
315.339, 676.115
315.821, 657.441
316.303, 640.313
316.785, 626.107
317.267, 612.014
317.750, 594.435
318.232, 572.049
318.714, 554.460
319.196, 544.649
319.678, 536.656
320.160, 527.924
320.642, 518.222
321.124, 507.673
321.606, 496.307
322.089, 484.234
322.571, 472.927
323.053, 459.901
323.535, 450.506
324.017, 447.957
324.499, 448.785
324.981, 448.940
325.463, 446.763
325.945, 442.877
326.428, 438.505
326.910, 433.500
327.392, 428.285
327.874, 422.121
328.356, 416.319
328.838, 412.163
329.320, 409.588
329.802, 407.189
330.284, 403.388
330.767, 398.111
331.249, 393.528
331.731, 391.189
332.213, 387.650
332.695, 379.050
333.177, 368.108
333.659, 361.103
334.142, 363.914
334.624, 371.330
335.106, 371.174
335.588, 361.458
336.070, 352.435
336.552, 350.395
337.034, 351.344
337.516, 350.001
337.998, 344.449
338.480, 339.143
338.963, 338.804
339.445, 342.191
339.927, 342.731
340.409, 337.309
340.891, 330.198
341.373, 328.276
341.855, 331.995
342.337, 334.302
342.819, 332.623
343.302, 328.831
343.784, 324.750
344.266, 320.649
344.748, 316.934
345.230, 313.526
345.712, 310.480
346.194, 310.945
346.677, 318.662
347.159, 325.841
347.641, 329.230
348.123, 329.291
348.605, 327.083
349.087, 322.951
349.569, 317.858
350.051, 314.969
350.533, 316.329
351.016, 317.362
351.498, 317.614
351.980, 317.624
352.462, 318.094
352.944, 319.076
353.426, 319.750
353.908, 318.553
354.390, 314.518
354.872, 313.377
355.355, 317.806
355.837, 322.920
356.319, 327.237
356.801, 330.813
357.283, 334.245
357.765, 338.257
358.247, 342.170
358.729, 343.495
359.211, 340.944
359.694, 339.222
360.176, 341.361
360.658, 344.826
361.140, 346.978
361.622, 347.013
362.104, 346.589
362.586, 346.309
363.069, 346.497
363.551, 350.066
364.033, 359.983
364.515, 369.712
364.997, 368.380
365.479, 356.410
365.961, 351.560
366.443, 365.370
366.925, 385.091
367.408, 396.600
367.890, 399.054
368.372, 398.580
368.854, 399.291
369.336, 400.979
369.818, 401.560
370.300, 398.385
370.782, 397.219
371.264, 401.291
371.747, 408.259
372.229, 413.932
372.711, 416.667
373.193, 418.892
373.675, 425.601
374.157, 441.786
374.639, 452.504
375.121, 455.817
375.603, 456.079
376.086, 454.287
376.568, 451.601
377.050, 450.611
377.532, 454.396
378.014, 462.222
378.496, 465.091
378.978, 457.549
379.460, 453.301
379.943, 459.239
380.425, 469.789
380.907, 478.121
381.389, 482.144
381.871, 482.619
382.353, 478.550
382.835, 469.816
383.317, 465.645
383.799, 470.747
384.282, 478.692
384.764, 482.867
385.246, 483.345
385.728, 482.774
386.210, 480.825
386.692, 479.050
387.174, 479.979
387.656, 483.845
388.138, 488.831
388.621, 494.254
389.103, 499.736
389.585, 502.930
390.067, 502.521
390.549, 501.475
391.031, 501.177
391.513, 500.912
391.996, 498.812
392.478, 494.173
392.960, 489.299
393.442, 488.270
393.924, 492.660
394.406, 497.558
394.888, 502.570
395.370, 508.308
395.852, 516.585
396.335, 526.156
396.817, 533.339
397.299, 534.881
397.781, 531.818
398.263, 530.023
398.745, 528.355
399.227, 530.218
399.709, 539.277
400.191, 550.649
400.674, 559.401
401.156, 564.138
401.638, 566.806
402.120, 568.232
402.602, 568.749
403.084, 571.445
403.566, 577.219
404.048, 584.690
404.530, 593.899
405.013, 604.256
405.495, 611.871
405.977, 612.741
406.459, 612.532
406.941, 616.449
407.423, 624.298
407.905, 633.937
408.387, 644.554
408.870, 655.739
409.352, 666.156
409.834, 675.828
410.316, 684.839
410.798, 692.728
411.280, 700.156
411.762, 709.544
412.244, 720.386
412.727, 727.137
413.209, 722.503
413.691, 704.841
414.173, 694.679
414.655, 699.008
415.137, 703.955
415.619, 706.916
416.101, 708.013
416.583, 707.683
417.065, 705.982
417.548, 703.518
418.030, 701.474
418.512, 700.023
418.994, 697.352
419.476, 692.527
419.958, 686.814
420.440, 681.214
420.922, 675.727
421.405, 670.365
421.887, 665.993
422.369, 661.371
422.851, 653.878
423.333, 643.488
423.815, 634.099
424.297, 628.676
424.779, 625.968
425.262, 620.733
425.744, 609.828
426.226, 601.007
426.708, 598.397
427.190, 598.069
427.672, 594.290
428.154, 586.010
428.636, 577.645
429.118, 574.331
429.601, 576.694
430.083, 580.307
430.565, 587.904
431.047, 593.837
431.529, 594.377
432.011, 592.461
432.493, 593.298
432.975, 599.575
433.457, 608.278
433.940, 613.818
434.422, 615.466
434.904, 618.191
435.386, 621.342
435.868, 627.647
436.350, 641.691
436.832, 662.318
437.314, 678.871
437.797, 682.045
438.279, 680.220
438.761, 685.013
439.243, 696.904
439.725, 712.672
440.207, 731.643
440.689, 752.598
441.171, 770.909
441.654, 784.128
442.136, 799.093
442.618, 817.734
443.100, 838.636
443.582, 860.405
444.064, 882.683
444.546, 905.723
445.028, 929.394
445.510, 953.555
445.992, 981.099
446.475, 1018.499
446.957, 1052.041
447.439, 1075.794
447.921, 1094.874
448.403, 1115.689
448.885, 1140.651
449.367, 1167.957
449.849, 1198.039
450.332, 1230.800
450.814, 1255.065
451.296, 1264.971
451.778, 1271.685
452.260, 1284.978
452.742, 1303.117
453.224, 1319.136
453.706, 1331.981
454.189, 1341.139
454.671, 1345.628
455.153, 1345.875
455.635, 1343.486
456.117, 1338.851
456.599, 1332.781
457.081, 1327.044
457.563, 1323.341
458.045, 1316.225
458.528, 1303.829
459.010, 1289.399
459.492, 1274.453
459.974, 1259.470
460.456, 1245.658
460.938, 1235.006
461.420, 1224.804
461.902, 1202.090
462.384, 1158.258
462.867, 1119.389
463.349, 1092.771
463.831, 1072.236
464.313, 1054.293
464.795, 1038.253
465.277, 1022.544
465.759, 1006.777
466.241, 990.504
466.724, 972.160
467.206, 951.368
467.688, 930.381
468.170, 909.989
468.652, 890.618
469.134, 873.170
469.616, 858.805
470.098, 844.821
470.581, 830.002
471.063, 815.122
471.545, 800.834
472.027, 787.418
472.509, 775.254
472.991, 765.272
473.473, 757.752
473.955, 747.471
474.437, 726.650
474.919, 711.603
475.402, 710.591
475.884, 715.769
476.366, 717.175
476.848, 711.378
477.330, 701.967
477.812, 692.221
478.294, 682.214
478.776, 674.259
479.259, 668.922
479.741, 665.254
480.223, 665.029
480.705, 666.249
481.187, 662.434
481.669, 649.378
482.151, 633.706
482.633, 617.163
483.116, 601.526
483.598, 591.978
484.080, 590.710
484.562, 591.890
485.044, 586.982
485.526, 573.975
486.008, 562.116
486.490, 550.623
486.972, 540.965
487.455, 534.785
487.937, 530.717
488.419, 526.367
488.901, 520.575
489.383, 514.070
489.865, 508.405
490.347, 503.836
490.829, 497.659
491.311, 487.239
491.794, 477.688
492.276, 474.411
492.758, 475.828
493.240, 474.513
493.722, 462.832
494.204, 451.401
494.686, 453.531
495.168, 465.444
495.651, 471.405
496.133, 464.576
496.615, 451.665
497.097, 444.346
497.579, 445.868
498.061, 444.790
498.543, 437.297
499.025, 430.946
499.508, 431.648
499.990, 436.668
500.472, 439.216
500.954, 435.369
501.436, 428.238
501.918, 424.171
502.400, 423.664
502.882, 423.669
503.364, 423.988
503.846, 424.330
504.329, 424.648
504.811, 424.865
505.293, 424.562
505.775, 423.073
506.257, 421.385
506.739, 419.650
507.221, 418.366
507.703, 420.050
508.186, 426.160
508.668, 434.046
509.150, 439.138
509.632, 440.734
510.114, 441.043
510.596, 440.638
511.078, 438.504
511.560, 431.571
512.042, 422.694
512.525, 417.856
513.007, 420.392
513.489, 427.611
513.971, 436.031
514.453, 446.547
514.935, 450.794
515.417, 442.368
515.899, 432.957
516.382, 432.857
516.864, 440.159
517.346, 446.095
517.828, 446.314
518.310, 445.548
518.792, 448.534
519.274, 453.864
519.756, 456.805
520.239, 455.475
520.721, 452.656
521.203, 452.704
521.685, 456.858
522.167, 459.458
522.649, 458.150
523.131, 457.952
523.613, 461.743
524.096, 467.838
524.578, 473.317
525.060, 476.909
525.542, 479.669
526.024, 483.508
526.506, 488.364
526.988, 490.765
527.470, 488.766
527.952, 486.933
528.435, 489.271
528.917, 494.806
529.399, 500.735
529.881, 505.450
530.363, 511.780
530.845, 523.481
531.327, 537.178
531.809, 547.211
532.291, 552.111
532.774, 553.256
533.256, 550.955
533.738, 544.357
534.220, 546.956
534.702, 568.919
535.184, 587.915
535.666, 596.483
536.148, 600.292
536.630, 604.548
537.113, 610.568
537.595, 621.531
538.077, 643.240
538.559, 672.242
539.041, 696.972
539.523, 716.188
540.005, 734.036
540.487, 753.103
540.969, 772.923
541.452, 792.177
541.934, 809.452
542.416, 828.234
542.898, 850.867
543.380, 874.389
543.862, 894.704
544.344, 912.591
544.826, 933.551
545.309, 962.450
545.791, 996.965
546.273, 1027.228
546.755, 1053.029
547.237, 1075.145
547.719, 1091.155
548.201, 1105.398
548.683, 1120.012
549.166, 1135.335
549.648, 1153.680
550.130, 1177.263
550.612, 1203.506
551.094, 1231.233
551.576, 1259.435
552.058, 1284.565
552.540, 1304.863
553.023, 1321.694
553.505, 1336.210
553.987, 1342.597
554.469, 1363.600
554.951, 1413.989
555.433, 1461.652
555.915, 1489.401
556.397, 1505.441
556.879, 1525.682
557.362, 1556.823
557.844, 1592.647
558.326, 1624.342
558.808, 1653.006
559.290, 1688.300
559.772, 1734.230
560.254, 1779.355
560.736, 1816.474
561.218, 1845.116
561.701, 1866.243
562.183, 1873.463
562.665, 1880.758
563.147, 1896.956
563.629, 1913.187
564.111, 1917.994
564.593, 1910.327
565.075, 1897.902
565.557, 1887.810
566.040, 1878.817
566.522, 1862.946
567.004, 1838.206
567.486, 1810.914
567.968, 1773.777
568.450, 1740.984
568.932, 1735.121
569.414, 1755.184
569.896, 1750.750
570.379, 1677.423
570.861, 1584.177
571.343, 1521.938
571.825, 1488.661
572.307, 1469.457
572.789, 1459.812
573.271, 1449.670
573.753, 1418.523
574.236, 1351.348
574.718, 1311.487
575.200, 1324.329
575.682, 1336.150
576.164, 1322.576
576.646, 1295.972
577.128, 1278.000
577.610, 1276.618
578.093, 1282.214
578.575, 1285.094
579.057, 1286.678
579.539, 1293.074
580.021, 1305.461
580.503, 1318.872
580.985, 1328.805
581.467, 1337.023
581.950, 1352.480
582.432, 1378.655
582.914, 1406.102
583.396, 1433.021
583.878, 1461.276
584.360, 1494.425
584.842, 1530.779
585.324, 1563.680
585.806, 1589.035
586.289, 1607.617
586.771, 1621.598
587.253, 1631.083
587.735, 1635.754
588.217, 1638.803
588.699, 1632.677
589.181, 1604.048
589.663, 1556.706
590.145, 1515.718
590.628, 1497.128
591.110, 1473.171
591.592, 1424.569
592.074, 1362.119
592.556, 1303.655
593.038, 1253.670
593.520, 1204.479
594.002, 1145.812
594.484, 1078.181
594.967, 1024.502
595.449, 992.186
595.931, 958.909
596.413, 914.070
596.895, 866.763
597.377, 824.653
597.859, 788.567
598.341, 757.475
598.823, 734.533
599.306, 713.635
599.788, 686.879
600.270, 656.021
600.752, 628.882
601.234, 609.025
601.716, 593.274
602.198, 576.370
602.680, 558.394
603.162, 539.016
603.645, 512.125
604.127, 490.827
604.609, 483.806
605.091, 483.475
605.573, 478.827
606.055, 466.727
606.537, 452.237
607.019, 436.859
607.502, 422.404
607.984, 414.087
608.466, 411.833
608.948, 407.727
609.430, 396.437
609.912, 380.872
610.394, 369.603
610.876, 365.115
611.359, 360.799
611.841, 356.906
612.323, 352.904
612.805, 349.741
613.287, 346.089
613.769, 338.416
614.251, 323.829
614.733, 309.533
615.216, 305.891
615.698, 309.630
616.180, 307.639
616.662, 297.341
617.144, 287.725
617.626, 286.339
618.108, 291.384
618.590, 292.519
619.072, 285.715
619.555, 280.527
620.037, 278.150
620.519, 277.115
621.001, 277.492
621.483, 278.294
621.965, 276.814
622.447, 270.486
622.929, 263.153
623.411, 261.075
623.894, 263.747
624.376, 267.153
624.858, 270.852
625.340, 273.782
625.822, 275.514
626.304, 275.884
626.786, 272.337
627.268, 258.453
627.750, 249.502
628.233, 252.007
628.715, 258.137
629.197, 261.795
629.679, 261.987
630.161, 259.651
630.643, 254.546
631.125, 248.453
631.607, 245.461
632.089, 245.457
632.572, 243.462
633.054, 236.945
633.536, 231.598
634.018, 234.437
634.500, 245.456
634.982, 251.157
635.464, 247.879
635.946, 244.061
636.429, 241.092
636.911, 239.179
637.393, 238.939
637.875, 240.089
638.357, 241.015
638.839, 239.969
639.321, 238.340
639.803, 240.255
640.286, 245.757
640.768, 248.913
641.250, 247.947
641.732, 244.261
642.214, 238.232
642.696, 229.637
643.178, 225.340
643.660, 228.418
644.143, 231.894
644.625, 233.862
645.107, 235.150
645.589, 237.217
646.071, 239.928
646.553, 241.137
647.035, 238.230
647.517, 233.459
647.999, 232.801
648.482, 236.243
648.964, 237.395
649.446, 233.688
649.928, 228.972
650.410, 227.537
650.892, 229.598
651.374, 231.671
651.856, 234.271
652.338, 236.260
652.821, 237.647
653.303, 238.064
653.785, 236.413
654.267, 233.068
654.749, 230.483
655.231, 231.037
655.713, 233.057
656.195, 233.079
656.677, 231.238
657.160, 229.437
657.642, 228.086
658.124, 227.283
658.606, 227.013
659.088, 227.256
659.570, 228.923
660.052, 233.689
660.534, 237.617
661.016, 239.882
661.499, 240.986
661.981, 241.016
662.463, 240.251
662.945, 239.737
663.427, 241.376
663.909, 242.310
664.391, 235.747
664.873, 223.766
665.356, 217.943
665.838, 221.770
666.320, 228.704
666.802, 232.820
667.284, 234.188
667.766, 234.173
668.248, 231.378
668.730, 229.056
669.213, 226.818
669.695, 225.744
670.177, 227.812
670.659, 232.057
671.141, 234.423
671.623, 231.819
672.105, 228.025
672.587, 227.186
673.070, 228.359
673.552, 228.751
674.034, 227.826
674.516, 227.525
674.998, 229.913
675.480, 234.010
675.962, 233.874
676.444, 226.197
676.926, 220.809
677.409, 218.117
677.891, 218.693
678.373, 225.454
678.855, 235.904
679.337, 242.972
679.819, 243.665
680.301, 241.988
680.783, 238.370
681.265, 235.113
681.748, 237.862
682.230, 245.796
682.712, 249.950
683.194, 243.741
683.676, 231.840
684.158, 226.732
684.640, 229.723
685.122, 234.184
685.604, 242.858
686.087, 248.292
686.569, 242.718
687.051, 231.282
687.533, 223.956
688.015, 222.112
688.497, 223.572
688.979, 231.478
689.461, 239.339
689.943, 240.412
690.426, 236.127
690.908, 231.817
691.390, 230.036
691.872, 229.241
692.354, 225.866
692.836, 220.380
693.318, 221.661
693.800, 231.957
694.283, 241.768
694.765, 246.817
695.247, 247.898
695.729, 245.801
696.211, 238.664
696.693, 234.550
697.175, 234.614
697.657, 237.089
698.140, 244.573
698.622, 252.531
699.104, 253.255
699.586, 245.057
700.068, 236.206
700.550, 233.882
701.032, 236.156
701.514, 240.113
701.997, 245.325
702.479, 247.723
702.961, 245.465
703.443, 241.607
703.925, 240.121
704.407, 241.251
704.889, 241.622
705.371, 239.202
705.853, 238.853
706.336, 244.441
706.818, 250.293
707.300, 251.055
707.782, 246.877
708.264, 242.086
708.746, 236.972
709.228, 233.554
709.710, 234.135
710.192, 237.421
710.675, 241.926
711.157, 246.893
711.639, 249.818
712.121, 248.294
712.603, 243.732
713.085, 240.931
713.567, 239.891
714.049, 240.976
714.531, 246.353
715.014, 250.682
715.496, 247.818
715.978, 240.699
716.460, 238.839
716.942, 245.967
717.424, 252.792
717.906, 256.875
718.388, 260.006
718.870, 263.938
719.353, 268.169
719.835, 271.300
720.317, 272.779
720.799, 272.276
721.281, 267.960
721.763, 261.271
722.245, 258.031
722.727, 258.694
723.210, 259.235
723.692, 257.272
724.174, 255.118
724.656, 257.500
725.138, 266.655
725.620, 271.370
726.102, 267.379
726.584, 263.836
727.067, 263.327
727.549, 264.363
728.031, 266.187
728.513, 268.459
728.995, 268.040
729.477, 260.122
729.959, 251.905
730.441, 249.392
730.924, 251.428
731.406, 256.069
731.888, 262.504
732.370, 269.182
732.852, 274.876
733.334, 279.517
733.816, 282.684
734.298, 284.327
734.780, 284.811
735.263, 284.021
735.745, 282.350
736.227, 279.335
736.709, 275.562
737.191, 274.187
737.673, 278.011
738.155, 279.962
738.637, 275.790
739.119, 272.339
739.602, 274.745
740.084, 281.697
740.566, 290.406
741.048, 300.294
741.530, 307.392
742.012, 306.428
742.494, 300.581
742.976, 294.807
743.458, 289.948
743.941, 289.407
744.423, 295.112
744.905, 302.500
745.387, 304.328
745.869, 299.933
746.351, 297.909
746.833, 298.481
747.315, 301.043
747.797, 307.477
748.280, 314.303
748.762, 317.273
749.244, 316.624
749.726, 317.815
750.208, 325.435
750.690, 330.949
751.172, 328.172
751.654, 322.702
752.137, 320.948
752.619, 323.239
753.101, 326.298
753.583, 328.258
754.065, 329.518
754.547, 330.833
755.029, 332.003
755.511, 331.561
755.994, 329.235
756.476, 328.389
756.958, 331.531
757.440, 336.679
757.922, 338.527
758.404, 334.629
758.886, 334.769
759.368, 344.772
759.851, 351.302
760.333, 346.354
760.815, 336.939
761.297, 332.448
761.779, 334.194
762.261, 334.380
762.743, 329.065
763.225, 322.828
763.707, 316.391
764.190, 312.051
764.672, 314.987
765.154, 324.885
765.636, 333.554
766.118, 334.308
766.600, 330.061
767.082, 326.245
767.564, 322.832
768.046, 318.831
768.529, 313.749
769.011, 311.410
769.493, 315.629
769.975, 323.804
770.457, 326.379
770.939, 319.543
771.421, 315.542
771.903, 319.126
772.385, 320.478
772.868, 313.166
773.350, 301.937
773.832, 293.784
774.314, 289.651
774.796, 288.199
775.278, 292.300
775.760, 295.657
776.242, 292.341
776.724, 285.650
777.207, 281.393
777.689, 280.797
778.171, 280.867
778.653, 278.942
779.135, 276.170
779.617, 275.113
780.099, 275.518
780.581, 275.499
781.064, 274.610
781.546, 274.130
782.028, 275.423
782.510, 277.501
782.992, 276.098
783.474, 268.513
783.956, 264.675
784.438, 267.945
784.920, 271.375
785.403, 271.187
785.885, 269.071
786.367, 267.906
786.849, 268.375
787.331, 267.340
787.813, 261.706
788.295, 256.714
788.778, 256.130
789.260, 257.948
789.742, 258.876
790.224, 258.472
790.706, 259.368
791.188, 265.607
791.670, 271.842
792.152, 267.902
792.634, 257.036
793.117, 250.214
793.599, 249.442
794.081, 252.117
794.563, 256.961
795.045, 262.315
795.527, 262.952
796.009, 257.585
796.491, 254.831
796.973, 257.111
797.456, 257.694
797.938, 251.238
798.420, 242.274
798.902, 239.309
799.384, 243.356
799.866, 246.967
800.348, 251.721
800.830, 253.493
801.312, 248.550
801.795, 241.358
802.277, 235.520
802.759, 231.976
803.241, 231.886
803.723, 238.035
804.205, 244.473
804.687, 244.702
805.169, 242.370
805.652, 244.675
806.134, 251.079
806.616, 254.665
807.098, 251.510
807.580, 245.386
808.062, 241.751
808.544, 240.576
809.026, 242.072
809.508, 246.589
809.991, 250.614
810.473, 253.259
810.955, 253.330
811.437, 248.235
811.919, 237.573
812.401, 232.913
812.883, 238.557
813.365, 243.326
813.847, 245.814
814.330, 246.414
814.812, 243.560
815.294, 238.972
815.776, 238.343
816.258, 245.579
816.740, 250.669
817.222, 248.392
817.705, 244.240
818.187, 242.276
818.669, 241.961
819.151, 241.455
819.633, 240.191
820.115, 238.964
820.597, 238.434
821.079, 238.389
821.561, 238.643
822.044, 239.096
822.526, 239.352
823.008, 239.339
823.490, 239.643
823.972, 241.048
824.454, 242.506
824.936, 239.324
825.418, 230.584
825.901, 229.222
826.383, 239.099
826.865, 248.098
827.347, 249.219
827.829, 245.257
828.311, 241.536
828.793, 237.719
829.275, 235.412
829.757, 235.771
830.240, 236.196
830.722, 235.146
831.204, 234.519
831.686, 237.503
832.168, 243.255
832.650, 245.342
833.132, 237.204
833.614, 231.523
834.096, 237.898
834.579, 246.346
835.061, 244.837
835.543, 236.790
836.025, 234.470
836.507, 243.128
836.989, 252.330
837.471, 251.349
837.953, 244.400
838.435, 236.611
838.918, 229.573
839.400, 230.080
839.882, 239.710
840.364, 248.568
840.846, 246.429
841.328, 236.985
841.810, 233.629
842.292, 236.805
842.774, 239.665
843.257, 240.901
843.739, 243.417
844.221, 250.377
844.703, 258.308
845.185, 258.314
845.667, 246.305
846.149, 240.577
846.631, 247.762
847.114, 252.256
847.596, 245.930
848.078, 237.518
848.560, 236.179
849.042, 241.420
849.524, 245.158
850.006, 244.417
850.488, 243.822
850.971, 245.725
851.453, 247.594
851.935, 246.433
852.417, 243.595
852.899, 243.042
853.381, 246.355
853.863, 248.798
854.345, 244.820
854.828, 239.656
855.310, 239.715
855.792, 243.700
856.274, 249.073
856.756, 254.664
857.238, 258.177
857.720, 257.591
858.202, 254.088
858.684, 248.508
859.167, 241.739
859.649, 240.562
860.131, 245.831
860.613, 250.084
861.095, 249.074
861.577, 245.815
862.059, 245.782
862.541, 249.277
863.023, 250.227
863.506, 247.347
863.988, 245.939
864.470, 248.188
864.952, 251.318
865.434, 252.955
865.916, 253.195
866.398, 252.663
866.880, 249.122
867.362, 248.224
867.845, 253.558
868.327, 257.740
868.809, 254.867
869.291, 249.701
869.773, 250.185
870.255, 257.629
870.737, 263.507
871.219, 264.586
871.701, 264.223
872.184, 262.679
872.666, 261.597
873.148, 263.070
873.630, 266.732
874.112, 270.920
874.594, 275.603
875.076, 277.891
875.558, 271.978
876.041, 264.408
876.523, 265.518
877.005, 272.950
877.487, 278.387
877.969, 279.319
878.451, 279.490
878.933, 282.914
879.415, 287.472
879.898, 288.166
880.380, 285.553
880.862, 282.083
881.344, 278.223
881.826, 275.718
882.308, 275.671
882.790, 277.401
883.272, 280.140
883.755, 283.994
884.237, 285.486
884.719, 284.002
885.201, 282.987
885.683, 283.213
886.165, 285.115
886.647, 289.887
887.129, 296.765
887.611, 300.213
888.094, 298.936
888.576, 296.830
889.058, 291.315
889.540, 288.503
890.022, 294.160
890.504, 303.054
890.986, 307.443
891.468, 306.630
891.950, 306.060
892.433, 306.182
892.915, 306.741
893.397, 308.762
893.879, 310.267
894.361, 307.648
894.843, 303.228
895.325, 304.346
895.807, 315.056
896.289, 324.226
896.772, 327.422
897.254, 326.388
897.736, 319.456
898.218, 310.607
898.700, 304.689
899.182, 303.178
899.664, 307.446
900.146, 322.392
900.628, 336.629
901.111, 336.150
901.593, 328.420
902.075, 323.984
902.557, 324.093
903.039, 328.823
903.521, 338.002
904.003, 346.380
904.485, 346.177
904.968, 341.669
905.450, 344.204
905.932, 352.241
906.414, 358.958
906.896, 362.849
907.378, 363.872
907.860, 361.657
908.342, 357.961
908.825, 355.457
909.307, 354.283
909.789, 359.252
910.271, 371.243
910.753, 380.298
911.235, 382.435
911.717, 382.772
912.199, 386.879
912.682, 393.874
913.164, 398.327
913.646, 399.324
914.128, 401.195
914.610, 404.177
915.092, 408.651
915.574, 416.098
916.056, 423.848
916.538, 427.321
917.021, 425.920
917.503, 425.353
917.985, 421.797
918.467, 425.180
918.949, 444.279
919.431, 463.940
919.913, 474.415
920.395, 477.828
920.877, 478.907
921.360, 475.883
921.842, 476.668
922.324, 482.922
922.806, 492.234
923.288, 508.082
923.770, 523.351
924.252, 528.855
924.734, 526.434
925.216, 527.817
925.699, 536.491
926.181, 548.528
926.663, 567.395
927.145, 584.350
927.627, 590.549
928.109, 591.477
928.591, 595.275
929.073, 603.816
929.555, 616.348
930.038, 636.577
930.520, 655.629
931.002, 664.756
931.484, 670.987
931.966, 680.967
932.448, 695.710
932.930, 716.366
933.412, 743.234
933.895, 769.221
934.377, 786.864
934.859, 801.788
935.341, 821.001
935.823, 842.644
936.305, 861.758
936.787, 878.736
937.269, 899.638
937.752, 927.945
938.234, 959.148
938.716, 987.127
939.198, 1014.253
939.680, 1045.427
940.162, 1080.104
940.644, 1115.092
941.126, 1149.738
941.609, 1186.749
942.091, 1227.677
942.573, 1272.767
943.055, 1325.258
943.537, 1382.811
944.019, 1429.592
944.501, 1465.976
944.983, 1508.124
945.465, 1561.675
945.948, 1622.698
946.430, 1686.193
946.912, 1753.634
947.394, 1830.625
947.876, 1916.895
948.358, 2012.670
948.840, 2117.794
949.322, 2231.287
949.804, 2353.524
950.287, 2477.576
950.769, 2591.720
951.251, 2698.164
951.733, 2831.723
952.215, 2998.608
952.697, 3149.626
953.179, 3269.115
953.661, 3404.449
954.143, 3586.261
954.626, 3798.677
955.108, 4010.521
955.590, 4220.538
956.072, 4445.147
956.554, 4689.681
957.036, 4930.010
957.518, 5156.533
958.000, 5387.588
958.482, 5636.337
958.965, 5899.749
959.447, 6166.874
959.929, 6439.453
960.411, 6708.497
960.893, 6971.133
961.375, 7234.415
961.857, 7499.731
962.339, 7768.023
962.822, 8052.092
963.304, 8340.806
963.786, 8578.734
964.268, 8737.158
964.750, 8900.537
965.232, 9095.172
965.714, 9261.162
966.196, 9398.539
966.679, 9482.810
967.161, 9479.248
967.643, 9394.113
968.125, 9286.105
968.607, 9166.186
969.089, 9008.429
969.571, 8831.906
970.053, 8594.537
970.536, 8250.395
971.018, 7852.263
971.500, 7459.216
971.982, 7074.865
972.464, 6693.562
972.946, 6313.056
973.428, 5942.543
973.910, 5580.979
974.392, 5233.185
974.875, 4892.624
975.357, 4568.162
975.839, 4272.957
976.321, 4007.161
976.803, 3769.927
977.285, 3572.866
977.767, 3386.322
978.249, 3195.608
978.731, 3019.948
979.214, 2875.187
979.696, 2753.940
980.178, 2645.452
980.660, 2548.274
981.142, 2459.543
981.624, 2383.744
982.106, 2309.353
982.588, 2227.218
983.070, 2149.963
983.553, 2088.536
984.035, 2039.938
984.517, 1998.417
984.999, 1963.410
985.481, 1927.976
985.963, 1887.857
986.445, 1849.076
986.927, 1809.481
987.409, 1776.583
987.892, 1762.315
988.374, 1759.532
988.856, 1748.281
989.338, 1721.976
989.820, 1699.048
990.302, 1694.652
990.784, 1685.900
991.266, 1652.669
991.749, 1614.934
992.231, 1592.377
992.713, 1584.234
993.195, 1581.641
993.677, 1582.452
994.159, 1587.105
994.641, 1604.351
995.123, 1615.746
995.606, 1602.625
996.088, 1583.027
996.570, 1577.643
997.052, 1585.152
997.534, 1592.669
998.016, 1595.766
998.498, 1600.715
998.980, 1614.865
999.463, 1626.752
999.945, 1625.835
1000.427, 1620.635
1000.909, 1620.842
1001.391, 1626.697
1001.873, 1634.627
1002.355, 1645.081
1002.837, 1651.312
1003.319, 1648.863
1003.802, 1642.582
1004.284, 1633.539
1004.766, 1623.981
1005.248, 1617.722
1005.730, 1613.420
1006.212, 1605.993
1006.694, 1595.812
1007.176, 1575.366
1007.658, 1533.016
1008.141, 1488.326
1008.623, 1456.301
1009.105, 1428.643
1009.587, 1393.977
1010.069, 1352.886
1010.551, 1312.763
1011.033, 1274.953
1011.515, 1242.073
1011.997, 1222.910
1012.480, 1200.628
1012.962, 1159.358
1013.444, 1111.969
1013.926, 1074.921
1014.408, 1047.672
1014.890, 1019.699
1015.372, 987.314
1015.854, 955.418
1016.337, 925.254
1016.819, 897.134
1017.301, 871.991
1017.783, 848.671
1018.265, 826.549
1018.747, 805.091
1019.229, 782.607
1019.711, 757.905
1020.193, 734.435
1020.676, 713.252
1021.158, 693.930
1021.640, 677.685
1022.122, 662.148
1022.604, 642.565
1023.086, 621.042
1023.568, 606.872
1024.050, 604.335
1024.533, 602.526
1025.015, 601.484
1025.497, 596.743
1025.979, 583.105
1026.461, 567.106
1026.943, 552.763
1027.425, 541.955
1027.907, 540.115
1028.390, 552.494
1028.872, 560.703
1029.354, 558.153
1029.836, 554.329
1030.318, 551.365
1030.800, 550.269
1031.282, 551.720
1031.764, 555.709
1032.246, 562.781
1032.729, 575.497
1033.211, 583.281
1033.693, 578.724
1034.175, 577.021
1034.657, 583.023
1035.139, 593.712
1035.621, 608.157
1036.103, 625.039
1036.585, 640.902
1037.068, 655.454
1037.550, 669.565
1038.032, 680.126
1038.514, 694.539
1038.996, 716.537
1039.478, 740.942
1039.960, 764.807
1040.442, 788.294
1040.925, 811.426
1041.407, 833.596
1041.889, 858.756
1042.371, 890.384
1042.853, 918.861
1043.335, 941.497
1043.817, 961.846
1044.299, 984.016
1044.781, 1003.824
1045.264, 1012.137
1045.746, 1007.464
1046.228, 1006.884
1046.710, 1015.566
1047.192, 1014.745
1047.674, 999.235
1048.156, 978.617
1048.638, 958.047
1049.120, 935.675
1049.603, 907.502
1050.085, 873.734
1050.567, 847.409
1051.049, 830.411
1051.531, 811.093
1052.013, 786.264
1052.495, 766.445
1052.977, 757.784
1053.460, 753.903
1053.942, 745.868
1054.424, 735.057
1054.906, 730.688
1055.388, 733.013
1055.870, 735.997
1056.352, 738.328
1056.834, 753.101
1057.317, 787.798
1057.799, 819.707
1058.281, 822.223
1058.763, 806.270
1059.245, 807.419
1059.727, 823.838
1060.209, 838.537
1060.691, 850.424
1061.173, 863.496
1061.656, 878.981
1062.138, 890.544
1062.620, 892.696
1063.102, 887.445
1063.584, 876.227
1064.066, 861.278
1064.548, 851.733
1065.030, 845.544
1065.512, 832.088
1065.995, 808.968
1066.477, 780.966
1066.959, 750.809
1067.441, 719.086
1067.923, 684.173
1068.405, 649.880
1068.887, 623.406
1069.369, 602.941
1069.852, 585.738
1070.334, 569.869
1070.816, 549.864
1071.298, 522.489
1071.780, 497.114
1072.262, 483.204
1072.744, 474.428
1073.226, 464.174
1073.708, 454.633
1074.191, 451.034
1074.673, 451.066
1075.155, 446.494
1075.637, 434.587
1076.119, 422.340
1076.601, 411.698
1077.083, 404.398
1077.565, 402.492
1078.047, 403.615
1078.530, 407.347
1079.012, 411.679
1079.494, 412.876
1079.976, 410.410
1080.458, 408.790
1080.940, 410.627
1081.422, 411.734
1081.904, 406.755
1082.386, 405.218
1082.869, 417.871
1083.351, 434.274
1083.833, 438.535
1084.315, 431.390
1084.797, 431.057
1085.279, 443.534
1085.761, 455.225
1086.243, 468.892
1086.726, 477.160
1087.208, 471.939
1087.690, 466.607
1088.172, 475.582
1088.654, 493.815
1089.136, 502.905
1089.618, 500.955
1090.100, 496.906
1090.583, 489.385
1091.065, 484.600
1091.547, 486.293
1092.029, 483.948
1092.511, 468.651
1092.993, 448.278
1093.475, 438.820
1093.957, 439.556
1094.439, 434.303
1094.922, 422.928
1095.404, 408.687
1095.886, 391.858
1096.368, 379.714
1096.850, 376.096
1097.332, 374.533
1097.814, 366.997
1098.296, 355.900
1098.778, 347.716
1099.261, 341.938
1099.743, 336.705
1100.225, 331.896
1100.707, 328.085
1101.189, 325.362
1101.671, 322.531
1102.153, 318.466
1102.635, 314.557
1103.118, 313.010
1103.600, 312.438
1104.082, 311.600
1104.564, 309.699
1105.046, 304.402
1105.528, 296.437
1106.010, 290.534
1106.492, 289.210
1106.974, 287.685
1107.457, 282.119
1107.939, 275.968
1108.421, 271.495
1108.903, 268.024
1109.385, 264.549
1109.867, 261.389
1110.349, 259.475
1110.831, 259.005
1111.313, 259.507
1111.796, 262.207
1112.278, 263.926
1112.760, 265.950
1113.242, 264.375
1113.724, 252.601
1114.206, 238.281
1114.688, 233.110
1115.170, 236.419
1115.653, 238.882
1116.135, 241.323
1116.617, 240.670
1117.099, 233.781
1117.581, 230.855
1118.063, 236.902
1118.545, 244.408
1119.027, 247.229
1119.510, 246.366
1119.992, 243.790
1120.474, 239.335
1120.956, 238.714
1121.438, 242.208
1121.920, 243.093
1122.402, 240.022
1122.884, 236.578
1123.366, 234.711
1123.849, 233.748
1124.331, 232.689
1124.813, 232.047
1125.295, 234.095
1125.777, 237.464
1126.259, 237.578
1126.741, 234.926
1127.223, 233.568
1127.705, 234.499
1128.188, 234.574
1128.670, 231.079
1129.152, 227.357
1129.634, 227.913
1130.116, 228.870
1130.598, 224.067
1131.080, 217.778
1131.562, 216.906
1132.045, 221.472
1132.527, 228.823
1133.009, 239.737
1133.491, 244.007
1133.973, 230.841
1134.455, 219.269
1134.937, 219.602
1135.419, 222.304
1135.901, 217.930
1136.384, 211.645
1136.866, 214.913
1137.348, 228.622
1137.830, 236.315
1138.312, 235.078
1138.794, 233.845
1139.276, 233.760
1139.758, 232.050
1140.240, 226.633
1140.723, 221.494
1141.205, 220.483
1141.687, 222.485
1142.169, 224.624
1142.651, 226.917
1143.133, 228.190
1143.615, 228.444
1144.097, 228.019
1144.580, 227.050
1145.062, 227.372
1145.544, 230.017
1146.026, 233.498
1146.508, 237.663
1146.990, 239.663
1147.472, 230.659
1147.954, 216.815
1148.437, 210.708
1148.919, 211.782
1149.401, 215.522
1149.883, 220.305
1150.365, 225.345
1150.847, 231.172
1151.329, 234.314
1151.811, 230.203
1152.293, 225.024
1152.776, 222.631
1153.258, 222.328
1153.740, 223.422
1154.222, 225.639
1154.704, 229.152
1155.186, 234.599
1155.668, 237.026
1156.150, 234.091
1156.632, 230.637
1157.115, 225.695
1157.597, 223.012
1158.079, 226.612
1158.561, 230.149
1159.043, 224.850
1159.525, 213.481
1160.007, 209.705
1160.489, 214.401
1160.972, 218.484
1161.454, 221.727
1161.936, 223.445
1162.418, 223.439
1162.900, 223.113
1163.382, 223.324
1163.864, 223.838
1164.346, 224.715
1164.828, 225.354
1165.311, 224.028
1165.793, 221.557
1166.275, 219.710
1166.757, 218.532
1167.239, 217.272
1167.721, 215.858
1168.203, 215.421
1168.685, 216.759
1169.167, 218.807
1169.650, 221.983
1170.132, 224.381
1170.614, 223.650
1171.096, 222.155
1171.578, 222.755
1172.060, 224.834
1172.542, 226.294
1173.024, 227.049
1173.507, 226.176
1173.989, 223.060
1174.471, 219.249
1174.953, 213.752
1175.435, 209.644
1175.917, 207.879
1176.399, 209.184
1176.881, 215.182
1177.364, 223.816
1177.846, 227.950
1178.328, 227.699
1178.810, 225.922
1179.292, 223.106
1179.774, 226.435
1180.256, 236.292
1180.738, 240.872
1181.220, 234.079
1181.703, 223.385
1182.185, 213.624
1182.667, 208.070
1183.149, 214.400
1183.631, 225.200
1184.113, 231.857
1184.595, 233.805
1185.077, 230.195
1185.559, 222.433
1186.042, 217.003
1186.524, 216.456
1187.006, 217.140
1187.488, 218.890
1187.970, 220.311
1188.452, 221.277
1188.934, 221.295
1189.416, 219.196
1189.899, 216.538
1190.381, 215.756
1190.863, 216.747
1191.345, 217.848
1191.827, 218.827
1192.309, 221.625
1192.791, 226.726
1193.273, 230.171
1193.755, 230.779
1194.238, 229.296
1194.720, 226.033
1195.202, 222.615
1195.684, 222.493
1196.166, 223.398
1196.648, 218.802
1197.130, 211.994
1197.612, 210.156
1198.094, 212.490
1198.577, 214.304
1199.059, 214.593
1199.541, 216.363
1200.023, 222.647
1200.505, 226.698
1200.987, 222.759
1201.469, 218.690
1201.951, 221.193
1202.434, 223.381
1202.916, 216.414
1203.398, 205.061
1203.880, 200.641
1204.362, 203.329
1204.844, 207.192
1205.326, 213.073
1205.808, 217.277
1206.291, 219.866
1206.773, 218.263
1207.255, 211.115
1207.737, 203.238
1208.219, 197.903
1208.701, 196.957
1209.183, 207.057
1209.665, 222.289
1210.147, 227.172
1210.630, 225.050
1211.112, 223.484
1211.594, 222.762
1212.076, 219.633
1212.558, 213.705
1213.040, 210.048
1213.522, 213.645
1214.004, 214.240
1214.486, 201.239
1214.969, 190.736
1215.451, 192.891
1215.933, 200.332
1216.415, 208.733
1216.897, 216.145
1217.379, 219.202
1217.861, 217.904
1218.343, 213.700
1218.826, 204.719
1219.308, 202.236
1219.790, 207.877
1220.272, 214.005
1220.754, 218.407
1221.236, 219.070
1221.718, 214.203
1222.200, 207.171
1222.682, 202.130
1223.165, 198.927
1223.647, 197.462
1224.129, 197.622
1224.611, 200.558
1225.093, 204.520
1225.575, 204.924
1226.057, 201.455
1226.539, 199.167
1227.021, 200.436
1227.504, 201.738
1227.986, 202.075
1228.468, 202.021
1228.950, 201.495
1229.432, 200.964
1229.914, 200.522
1230.396, 200.462
1230.878, 201.345
1231.361, 202.982
1231.843, 204.729
1232.325, 206.756
1232.807, 202.865
1233.289, 193.218
1233.771, 187.451
1234.253, 187.485
1234.735, 188.732
1235.218, 188.770
1235.700, 186.681
1236.182, 178.472
1236.664, 171.663
1237.146, 176.878
1237.628, 185.785
1238.110, 190.622
1238.592, 191.875
1239.074, 189.888
1239.557, 186.115
1240.039, 186.039
1240.521, 192.730
1241.003, 193.647
1241.485, 182.130
1241.967, 177.493
1242.449, 184.752
1242.931, 192.637
1243.413, 196.777
1243.896, 197.904
1244.378, 196.208
1244.860, 193.479
1245.342, 193.898
1245.824, 196.528
1246.306, 198.925
1246.788, 200.479
1247.270, 199.519
1247.753, 196.187
1248.235, 190.390
1248.717, 182.823
1249.199, 179.102
1249.681, 183.296
1250.163, 188.771
1250.645, 195.845
1251.127, 199.226
1251.609, 192.006
1252.092, 184.505
1252.574, 187.143
1253.056, 192.876
1253.538, 189.372
1254.020, 178.401
1254.502, 175.532
1254.984, 181.287
1255.466, 183.859
1255.948, 182.876
1256.431, 183.637
1256.913, 187.082
1257.395, 189.717
1257.877, 189.749
1258.359, 188.880
1258.841, 189.351
1259.323, 188.694
1259.805, 182.202
1260.288, 175.705
1260.770, 175.515
1261.252, 178.434
1261.734, 180.036
1262.216, 180.459
1262.698, 182.154
1263.180, 185.818
1263.662, 186.596
1264.145, 181.966
1264.627, 182.904
1265.109, 192.309
1265.591, 196.985
##END=



