##NAMES=Correianevesite
##RRUFFID=R090069
##IDEAL CHEMISTRY=Fe^2+^Mn^2+^_2_(PO_4_)_2_&#183;3H_2_O
##LOCALITY=Cigana mine, Galiléia, Minas Gerais  Brazil
##OWNER=RRUFF
##SOURCE=Royal Ontario Museum
##DESCRIPTION=Druse of reddish-brown pseudo-octahedral crystals associated with pink hureaulite R090070 and colorless ludlamite R090071
##STATUS=The identification of this mineral is confirmed by single-crystal X-ray diffraction and chemical analysis.
##URL=rruff.info/R090069
##MEASURED CHEMISTRY=(Mn^+2^_1.85_Fe^+2^_1.13_Ca_0.01_)_Σ=2.99_(PO_4_)_2_·3H_2_O
91.82715, 324.0376
92.30927, 320.9089
92.79138, 321.6964
93.27350, 323.6346
93.75562, 324.5837
94.23773, 324.3629
94.71985, 323.6247
95.20197, 322.7907
95.68408, 322.5088
96.16620, 322.0666
96.64832, 320.7816
97.13043, 318.3773
97.61255, 316.1890
98.09467, 316.5709
98.57678, 321.2944
99.05890, 322.9024
99.54102, 319.0713
100.0231, 313.3528
100.5052, 308.8618
100.9874, 307.1158
101.4695, 307.5294
101.9516, 307.4343
102.4337, 306.3192
102.9158, 305.1141
103.3979, 303.4879
103.8801, 301.8333
104.3622, 300.8412
104.8443, 301.0772
105.3264, 302.6458
105.8085, 304.4322
106.2906, 306.7354
106.7728, 308.8858
107.2549, 310.4444
107.7370, 311.3892
108.2191, 312.0892
108.7012, 312.9434
109.1833, 313.9652
109.6655, 314.7574
110.1476, 314.6874
110.6297, 314.4878
111.1118, 315.3475
111.5939, 317.6958
112.0760, 320.7669
112.5582, 323.9365
113.0403, 327.1708
113.5224, 330.0588
114.0045, 332.3195
114.4866, 333.9706
114.9688, 335.1906
115.4509, 335.7796
115.9330, 336.0752
116.4151, 336.4734
116.8972, 336.9927
117.3793, 337.0632
117.8615, 335.7593
118.3436, 332.3954
118.8257, 329.2873
119.3078, 327.1594
119.7899, 325.0985
120.2720, 322.1269
120.7542, 317.8792
121.2363, 313.0797
121.7184, 309.7770
122.2005, 309.8475
122.6826, 309.5499
123.1647, 308.2309
123.6468, 306.4584
124.1290, 305.1786
124.6111, 305.0044
125.0932, 305.7109
125.5753, 305.3813
126.0574, 302.7507
126.5395, 300.5815
127.0217, 300.4224
127.5038, 301.9486
127.9859, 303.3746
128.4680, 303.2503
128.9501, 301.8813
129.4323, 301.3097
129.9144, 302.3437
130.3965, 303.8195
130.8786, 304.5278
131.3607, 304.3358
131.8428, 303.8195
132.3250, 303.4260
132.8071, 303.0322
133.2892, 302.3726
133.7713, 301.4594
134.2534, 300.2152
134.7355, 298.3037
135.2177, 295.3866
135.6998, 292.1937
136.1819, 288.9719
136.6640, 285.7842
137.1461, 282.7819
137.6282, 280.0998
138.1104, 277.7636
138.5925, 275.4641
139.0746, 272.8228
139.5567, 270.5388
140.0388, 268.8675
140.5209, 267.8309
141.0031, 267.3082
141.4852, 267.2145
141.9673, 267.7719
142.4494, 268.2054
142.9315, 268.3907
143.4136, 268.5612
143.8958, 268.7229
144.3779, 268.9265
144.8600, 269.4685
145.3421, 270.9499
145.8242, 274.7370
146.3063, 276.7906
146.7885, 275.2101
147.2706, 272.3731
147.7527, 271.4086
148.2348, 273.5918
148.7169, 277.3413
149.1990, 279.3141
149.6812, 279.0355
150.1633, 279.1678
150.6454, 281.0869
151.1275, 284.2806
151.6096, 287.1190
152.0917, 289.0204
152.5739, 290.2006
153.0560, 291.0448
153.5381, 291.3668
154.0202, 291.9205
154.5023, 293.4100
154.9844, 295.8614
155.4665, 298.4439
155.9487, 300.8015
156.4308, 303.1772
156.9129, 305.6683
157.3950, 308.2427
157.8771, 311.1793
158.3592, 315.1212
158.8414, 320.6629
159.3235, 325.6671
159.8056, 329.0300
160.2877, 331.9632
160.7698, 335.7025
161.2519, 340.8234
161.7341, 346.6713
162.2162, 351.3017
162.6983, 354.3083
163.1804, 356.4492
163.6625, 358.2685
164.1446, 359.2590
164.6268, 358.5781
165.1089, 355.6652
165.5910, 350.9429
166.0731, 347.0547
166.5552, 345.2007
167.0373, 342.8682
167.5195, 339.6304
168.0016, 335.5338
168.4837, 330.5868
168.9658, 324.6661
169.4479, 317.8678
169.9300, 312.2551
170.4122, 308.8205
170.8943, 305.3620
171.3764, 300.3279
171.8585, 294.1470
172.3406, 288.8655
172.8227, 286.2756
173.3049, 286.1398
173.7870, 285.0143
174.2691, 281.9383
174.7512, 278.5383
175.2333, 276.1744
175.7154, 274.9100
176.1976, 273.9199
176.6797, 272.6289
177.1618, 271.1609
177.6439, 269.8538
178.1260, 268.7741
178.6081, 267.8916
179.0903, 267.2973
179.5724, 267.2062
180.0545, 266.7558
180.5366, 265.0272
181.0187, 262.6384
181.5008, 260.6032
181.9830, 259.7937
182.4651, 259.6246
182.9472, 258.0981
183.4293, 254.1679
183.9114, 250.4775
184.3935, 248.5007
184.8757, 247.4963
185.3578, 246.1255
185.8399, 243.3155
186.3220, 239.2710
186.8041, 236.2581
187.2862, 235.0119
187.7684, 234.1333
188.2505, 233.8556
188.7326, 233.6451
189.2147, 232.4371
189.6968, 229.1076
190.1789, 223.4936
190.6611, 219.9752
191.1432, 220.6566
191.6253, 221.3612
192.1074, 220.7945
192.5895, 219.1006
193.0716, 217.0007
193.5538, 215.0687
194.0359, 213.2521
194.5180, 212.0481
195.0001, 211.5874
195.4822, 211.4511
195.9643, 211.6750
196.4465, 212.1217
196.9286, 212.3827
197.4107, 212.0248
197.8928, 210.9286
198.3749, 210.2080
198.8570, 210.4208
199.3392, 210.5523
199.8213, 209.7285
200.3034, 207.9564
200.7855, 206.1709
201.2676, 205.2232
201.7497, 205.1903
202.2319, 205.2287
202.7140, 205.3580
203.1961, 205.5212
203.6782, 205.6833
204.1603, 205.8441
204.6424, 205.9637
205.1246, 205.9866
205.6067, 205.9313
206.0888, 205.8777
206.5709, 205.6142
207.0530, 205.4485
207.5351, 205.8891
208.0173, 207.0923
208.4994, 208.4509
208.9815, 209.5884
209.4636, 210.5354
209.9457, 211.2949
210.4278, 211.4465
210.9100, 211.4624
211.3921, 212.5503
211.8742, 215.2053
212.3563, 217.9105
212.8384, 220.0232
213.3205, 221.5559
213.8027, 222.4363
214.2848, 222.3993
214.7669, 221.6859
215.2490, 221.0276
215.7311, 219.8276
216.2132, 219.7349
216.6954, 222.0920
217.1775, 225.7847
217.6596, 228.8742
218.1417, 230.0019
218.6238, 229.5604
219.1059, 229.8814
219.5881, 231.5782
220.0702, 233.3462
220.5523, 234.3777
221.0344, 235.2465
221.5165, 237.0000
221.9986, 240.5005
222.4808, 245.4823
222.9629, 249.4441
223.4450, 251.8201
223.9271, 253.6011
224.4092, 254.8794
224.8913, 255.7216
225.3735, 256.0810
225.8556, 255.8373
226.3377, 255.1134
226.8198, 255.3539
227.3019, 257.4131
227.7840, 259.5768
228.2662, 261.9539
228.7483, 264.1508
229.2304, 265.5052
229.7125, 265.5516
230.1946, 264.4070
230.6767, 263.3437
231.1589, 262.2175
231.6410, 261.3154
232.1231, 260.9088
232.6052, 260.7720
233.0873, 260.5646
233.5694, 260.1403
234.0516, 259.4188
234.5337, 257.7145
235.0158, 253.7908
235.4979, 250.4248
235.9800, 248.5927
236.4621, 247.9401
236.9443, 247.7533
237.4264, 247.7725
237.9085, 247.8262
238.3906, 247.0986
238.8727, 244.9830
239.3548, 242.9429
239.8370, 241.3857
240.3191, 240.2711
240.8012, 239.5741
241.2833, 239.3807
241.7654, 239.4939
242.2475, 239.3306
242.7297, 238.8534
243.2118, 238.2240
243.6939, 237.4798
244.1760, 236.6331
244.6581, 235.6617
245.1402, 234.4231
245.6224, 233.2309
246.1045, 232.7254
246.5866, 233.1185
247.0687, 233.5222
247.5508, 233.6511
248.0329, 233.4644
248.5151, 232.6623
248.9972, 230.6640
249.4793, 228.6023
249.9614, 228.1532
250.4435, 229.4864
250.9256, 231.0802
251.4078, 232.3427
251.8899, 233.2319
252.3720, 233.5430
252.8541, 232.9812
253.3362, 232.0914
253.8183, 231.2150
254.3005, 230.3409
254.7826, 230.2345
255.2647, 232.0837
255.7468, 235.3697
256.2289, 237.2807
256.7110, 236.4202
257.1931, 235.2652
257.6753, 236.1110
258.1574, 238.6581
258.6395, 240.9956
259.1216, 241.6130
259.6037, 240.8625
260.0858, 240.8162
260.5680, 242.3316
261.0501, 243.6354
261.5322, 243.3574
262.0143, 241.9421
262.4964, 240.7453
262.9785, 240.8070
263.4607, 241.8974
263.9428, 242.6931
264.4249, 243.2213
264.9070, 243.3537
265.3891, 242.8567
265.8712, 241.9841
266.3534, 241.2793
266.8355, 241.2698
267.3176, 241.6619
267.7997, 241.0880
268.2818, 238.7718
268.7639, 236.6436
269.2461, 235.5810
269.7282, 235.0917
270.2103, 234.4472
270.6924, 233.2421
271.1745, 231.6486
271.6566, 230.2144
272.1388, 228.8724
272.6209, 227.8562
273.1030, 227.5522
273.5851, 227.4299
274.0672, 226.9167
274.5493, 225.7589
275.0315, 224.0560
275.5136, 221.9259
275.9957, 218.6840
276.4778, 216.3533
276.9599, 215.6631
277.4420, 215.6750
277.9242, 215.6009
278.4063, 215.1563
278.8884, 214.4637
279.3705, 213.6923
279.8526, 212.6608
280.3347, 211.9718
280.8169, 212.0794
281.2990, 212.2425
281.7811, 211.8827
282.2632, 210.8750
282.7453, 209.5468
283.2274, 208.2822
283.7096, 206.8495
284.1917, 206.1137
284.6738, 206.5768
285.1559, 207.2634
285.6380, 207.8303
286.1201, 208.1110
286.6023, 207.8951
287.0844, 206.8600
287.5665, 204.7933
288.0486, 202.7471
288.5307, 200.4993
289.0128, 198.4673
289.4950, 196.6408
289.9771, 195.1601
290.4592, 194.4338
290.9413, 195.0399
291.4234, 197.1803
291.9055, 197.9399
292.3877, 196.1016
292.8698, 194.1239
293.3519, 192.2923
293.8340, 190.9373
294.3161, 190.7618
294.7982, 192.5111
295.2804, 195.8783
295.7625, 196.7723
296.2446, 191.6663
296.7267, 187.7825
297.2088, 187.3010
297.6909, 188.7419
298.1731, 189.9040
298.6552, 189.5846
299.1373, 188.0954
299.6194, 186.5916
300.1015, 184.4326
300.5836, 183.1127
301.0658, 183.5325
301.5479, 184.5303
302.0300, 184.7989
302.5121, 183.8344
302.9942, 182.1927
303.4763, 180.9854
303.9585, 180.2325
304.4406, 179.9921
304.9227, 180.8327
305.4048, 181.7910
305.8869, 182.1621
306.3690, 181.7581
306.8512, 180.7477
307.3333, 179.2447
307.8154, 176.6722
308.2975, 175.2188
308.7796, 175.8880
309.2617, 176.6656
309.7439, 176.1573
310.2260, 174.4271
310.7081, 172.5626
311.1902, 171.6779
311.6723, 171.9419
312.1544, 171.9116
312.6366, 172.0869
313.1187, 171.5452
313.6008, 169.2431
314.0829, 165.8608
314.5650, 163.0488
315.0471, 162.0979
315.5293, 162.8222
316.0114, 162.7714
316.4935, 160.4730
316.9756, 159.0412
317.4577, 160.2480
317.9398, 162.4961
318.4220, 163.1881
318.9041, 160.9442
319.3862, 156.8285
319.8683, 154.1963
320.3504, 154.4366
320.8326, 154.5760
321.3147, 154.5980
321.7968, 154.3905
322.2789, 153.7541
322.7610, 152.6556
323.2431, 151.3777
323.7253, 150.4404
324.2074, 150.2094
324.6895, 149.5838
325.1716, 148.0834
325.6537, 146.5928
326.1358, 145.7608
326.6180, 145.6254
327.1001, 145.7502
327.5822, 145.6938
328.0643, 145.4641
328.5464, 144.9852
329.0285, 144.0490
329.5107, 143.0985
329.9928, 142.1781
330.4749, 141.3863
330.9570, 140.9593
331.4391, 141.1408
331.9212, 141.8573
332.4034, 142.0079
332.8855, 140.5085
333.3676, 139.6117
333.8497, 140.6275
334.3318, 142.2901
334.8139, 142.5769
335.2961, 140.4369
335.7782, 136.9233
336.2603, 135.2214
336.7424, 136.9791
337.2245, 138.1694
337.7066, 138.3773
338.1888, 138.0152
338.6709, 137.1463
339.1530, 135.9003
339.6351, 134.8993
340.1172, 135.2728
340.5993, 138.0083
341.0815, 139.5766
341.5636, 139.4019
342.0457, 138.7061
342.5278, 138.2082
343.0099, 137.8702
343.4920, 137.0801
343.9742, 134.9506
344.4563, 131.2997
344.9384, 129.7078
345.4205, 132.7805
345.9026, 135.4812
346.3847, 136.4257
346.8669, 136.0562
347.3490, 135.2352
347.8311, 134.3951
348.3132, 133.6613
348.7953, 133.6409
349.2774, 135.2271
349.7596, 136.1119
350.2417, 135.2335
350.7238, 133.8465
351.2059, 133.2812
351.6880, 133.9815
352.1701, 135.2260
352.6523, 135.8194
353.1344, 135.5572
353.6165, 135.2596
354.0986, 134.5758
354.5807, 134.2125
355.0628, 134.9869
355.5450, 136.7294
356.0271, 138.2201
356.5092, 138.0556
356.9913, 136.1630
357.4734, 134.8206
357.9555, 134.3081
358.4377, 134.0971
358.9198, 134.1103
359.4019, 134.2406
359.8840, 134.2764
360.3661, 134.0081
360.8482, 133.6237
361.3304, 133.8444
361.8125, 135.2234
362.2946, 135.9573
362.7767, 134.8846
363.2588, 133.1481
363.7409, 131.8171
364.2231, 131.1801
364.7052, 131.1548
365.1873, 131.9524
365.6694, 133.7419
366.1515, 134.7776
366.6336, 133.8882
367.1158, 132.7232
367.5979, 132.5724
368.0800, 133.4368
368.5621, 134.3566
369.0442, 134.6537
369.5263, 134.4205
370.0085, 134.0229
370.4906, 133.2864
370.9727, 132.7660
371.4548, 133.1132
371.9369, 133.9453
372.4190, 134.3847
372.9012, 133.8509
373.3833, 132.9055
373.8654, 132.4656
374.3475, 132.6163
374.8296, 132.5442
375.3117, 131.6000
375.7939, 130.3141
376.2760, 129.4871
376.7581, 129.2995
377.2402, 129.2849
377.7223, 129.0594
378.2044, 128.7057
378.6866, 128.5948
379.1687, 128.8658
379.6508, 129.3575
380.1329, 130.1107
380.6150, 131.1383
381.0971, 131.4544
381.5793, 130.1927
382.0614, 128.2589
382.5435, 126.7843
383.0256, 125.8804
383.5077, 125.6401
383.9898, 126.4289
384.4720, 128.0642
384.9541, 129.1140
385.4362, 129.2693
385.9183, 129.0678
386.4004, 128.7437
386.8825, 128.3165
387.3647, 127.7138
387.8468, 126.7533
388.3289, 125.8467
388.8110, 126.2790
389.2931, 128.9953
389.7752, 130.7725
390.2574, 130.1350
390.7395, 128.5704
391.2216, 127.9063
391.7037, 128.5334
392.1858, 129.5967
392.6679, 130.1404
393.1501, 130.0638
393.6322, 129.8664
394.1143, 129.1247
394.5964, 128.6502
395.0785, 129.2276
395.5606, 130.5133
396.0428, 131.3991
396.5249, 131.1067
397.0070, 129.9388
397.4891, 129.5293
397.9712, 130.8315
398.4533, 131.7581
398.9355, 131.7584
399.4176, 131.4243
399.8997, 131.3775
400.3818, 131.8173
400.8639, 132.5661
401.3460, 133.3791
401.8282, 134.2983
402.3103, 135.1617
402.7924, 136.0230
403.2745, 136.7947
403.7566, 137.5928
404.2387, 138.2837
404.7209, 138.4995
405.2030, 137.8760
405.6851, 136.5517
406.1672, 135.5706
406.6493, 134.6757
407.1314, 134.5890
407.6136, 136.0574
408.0957, 138.0722
408.5778, 139.4831
409.0599, 139.8734
409.5420, 139.8535
410.0241, 140.4564
410.5063, 141.9182
410.9884, 142.7153
411.4705, 142.1092
411.9526, 141.1790
412.4347, 140.2720
412.9168, 139.5179
413.3990, 139.2295
413.8811, 140.0990
414.3632, 141.6537
414.8453, 142.0083
415.3274, 140.7622
415.8095, 139.2991
416.2917, 138.0359
416.7738, 137.1036
417.2559, 136.8581
417.7380, 137.7065
418.2201, 138.5753
418.7022, 138.2949
419.1844, 136.9819
419.6665, 135.7187
420.1486, 134.7338
420.6307, 134.0589
421.1128, 133.8773
421.5949, 134.1885
422.0771, 134.2296
422.5592, 133.3106
423.0413, 132.1478
423.5234, 131.8664
424.0055, 132.5897
424.4876, 133.3231
424.9698, 133.2264
425.4519, 132.4806
425.9340, 132.3198
426.4161, 133.6934
426.8982, 134.6337
427.3803, 133.6886
427.8625, 131.7155
428.3446, 130.5424
428.8267, 130.8740
429.3088, 132.0983
429.7909, 133.2571
430.2730, 134.6483
430.7552, 135.1625
431.2373, 133.9830
431.7194, 132.5315
432.2015, 131.7175
432.6836, 131.6286
433.1657, 131.9920
433.6479, 132.6070
434.1300, 133.4722
434.6121, 134.6062
435.0942, 136.9060
435.5763, 138.4230
436.0584, 137.9595
436.5406, 136.9254
437.0227, 137.0838
437.5048, 139.0005
437.9869, 141.6377
438.4690, 143.4116
438.9511, 144.1249
439.4333, 144.6005
439.9154, 144.5818
440.3975, 144.5757
440.8796, 144.4752
441.3617, 144.5520
441.8438, 145.4662
442.3260, 147.8486
442.8081, 151.2462
443.2902, 154.1942
443.7723, 156.8525
444.2544, 158.6682
444.7365, 159.1144
445.2187, 158.8251
445.7008, 157.9727
446.1829, 156.5169
446.6650, 155.6765
447.1471, 156.9694
447.6292, 159.9778
448.1114, 162.3681
448.5935, 163.6285
449.0756, 164.5438
449.5577, 165.7070
450.0398, 167.0524
450.5219, 168.4209
451.0041, 170.0571
451.4862, 171.4870
451.9683, 172.1929
452.4504, 172.2375
452.9325, 172.0061
453.4146, 171.6005
453.8968, 171.1049
454.3789, 170.7169
454.8610, 170.4908
455.3431, 170.1888
455.8252, 169.6470
456.3073, 169.0643
456.7895, 168.7391
457.2716, 168.6754
457.7537, 168.5227
458.2358, 167.9834
458.7179, 167.0560
459.2000, 165.9212
459.6822, 163.9934
460.1643, 162.5614
460.6464, 162.5388
461.1285, 163.0471
461.6106, 162.7888
462.0927, 161.2946
462.5748, 159.2109
463.0569, 157.6137
463.5391, 156.7229
464.0212, 155.7521
464.5033, 154.9145
464.9854, 153.8089
465.4675, 151.6438
465.9496, 149.0210
466.4318, 147.4825
466.9139, 148.2826
467.3960, 150.5356
467.8781, 151.4299
468.3602, 150.5783
468.8423, 149.3741
469.3245, 147.4564
469.8066, 145.8154
470.2887, 145.7850
470.7708, 147.4828
471.2529, 148.5510
471.7350, 146.3146
472.2172, 141.8248
472.6993, 139.3469
473.1814, 139.8176
473.6635, 140.6092
474.1456, 139.4714
474.6277, 137.3049
475.1099, 136.1786
475.5920, 137.1121
476.0741, 138.2645
476.5562, 138.2344
477.0383, 137.3832
477.5204, 136.7744
478.0026, 136.7641
478.4847, 137.1007
478.9668, 137.6487
479.4489, 138.6895
479.9310, 138.3711
480.4131, 134.7286
480.8953, 131.2643
481.3774, 130.9960
481.8595, 133.1195
482.3416, 134.5961
482.8237, 133.5595
483.3058, 130.8293
483.7880, 129.2304
484.2701, 130.0122
484.7522, 130.1684
485.2343, 129.1354
485.7164, 127.8000
486.1985, 126.6109
486.6807, 125.7580
487.1628, 125.5367
487.6449, 126.4565
488.1270, 128.3671
488.6091, 129.0683
489.0912, 127.7761
489.5734, 126.4876
490.0555, 125.7774
490.5376, 125.4096
491.0197, 125.2610
491.5018, 125.3283
491.9839, 125.1365
492.4661, 123.8890
492.9482, 121.7571
493.4303, 120.3191
493.9124, 119.8666
494.3945, 119.9945
494.8766, 120.9829
495.3588, 122.3523
495.8409, 122.6721
496.3230, 120.7011
496.8051, 118.3959
497.2872, 117.2623
497.7693, 117.1504
498.2515, 117.6914
498.7336, 118.9344
499.2157, 120.2330
499.6978, 120.4614
500.1799, 119.2327
500.6620, 118.4166
501.1442, 118.1207
501.6263, 118.2760
502.1084, 119.1766
502.5905, 120.5293
503.0726, 121.5441
503.5547, 121.7341
504.0369, 121.2484
504.5190, 120.5693
505.0011, 119.2378
505.4832, 118.4628
505.9653, 118.6002
506.4474, 119.0351
506.9296, 119.4483
507.4117, 119.7385
507.8938, 119.8048
508.3759, 119.4283
508.8580, 118.7589
509.3401, 118.7177
509.8223, 119.4866
510.3044, 120.4892
510.7865, 121.9772
511.2686, 123.3488
511.7507, 123.9356
512.2328, 123.5880
512.7150, 122.9146
513.1971, 122.0486
513.6792, 121.2147
514.1613, 121.1940
514.6434, 122.2226
515.1255, 123.3801
515.6077, 123.9798
516.0898, 124.1347
516.5719, 124.4014
517.0540, 125.0380
517.5361, 125.4967
518.0182, 125.1213
518.5004, 124.5114
518.9825, 124.9096
519.4646, 126.6350
519.9467, 128.4927
520.4288, 128.9156
520.9109, 127.4924
521.3931, 127.4416
521.8752, 130.0831
522.3573, 132.4256
522.8394, 133.3110
523.3215, 133.2558
523.8036, 132.9825
524.2858, 132.7959
524.7679, 132.8275
525.2500, 133.4698
525.7321, 134.9854
526.2142, 135.7572
526.6964, 134.9488
527.1785, 134.1601
527.6606, 134.0552
528.1427, 134.5403
528.6248, 135.3765
529.1069, 136.5660
529.5891, 137.8830
530.0712, 139.0300
530.5533, 140.0148
531.0354, 141.0514
531.5175, 142.4416
531.9996, 143.5220
532.4818, 142.9954
532.9639, 141.0195
533.4460, 140.0541
533.9281, 141.4267
534.4102, 143.2927
534.8923, 144.2180
535.3745, 144.3871
535.8566, 144.6316
536.3387, 145.3358
536.8208, 146.3339
537.3029, 147.3062
537.7850, 148.4615
538.2672, 149.1320
538.7493, 148.8272
539.2314, 148.5195
539.7135, 148.8778
540.1956, 149.7108
540.6777, 150.3386
541.1599, 150.2964
541.6420, 150.0154
542.1241, 150.7329
542.6062, 152.9030
543.0883, 154.6161
543.5704, 155.0045
544.0526, 155.2476
544.5347, 156.1248
545.0168, 157.5535
545.4989, 158.9185
545.9810, 159.9063
546.4631, 160.6423
546.9453, 161.2782
547.4274, 161.8172
547.9095, 162.2928
548.3916, 162.5881
548.8737, 162.9813
549.3558, 164.0860
549.8380, 165.9972
550.3201, 167.7437
550.8022, 169.2722
551.2843, 170.4567
551.7664, 171.0169
552.2485, 171.1059
552.7307, 171.2553
553.2128, 171.7819
553.6949, 172.5113
554.1770, 172.9234
554.6591, 172.5612
555.1412, 172.7141
555.6234, 173.5098
556.1055, 174.6678
556.5876, 176.0703
557.0697, 177.6921
557.5518, 179.6130
558.0339, 182.0879
558.5161, 184.5753
558.9982, 185.5551
559.4803, 184.6903
559.9624, 184.3693
560.4445, 185.6313
560.9266, 187.2906
561.4088, 188.3618
561.8909, 188.8400
562.3730, 188.7962
562.8551, 187.4792
563.3372, 186.1966
563.8193, 186.7804
564.3015, 188.8483
564.7836, 190.2846
565.2657, 190.1265
565.7478, 188.9545
566.2299, 187.7747
566.7120, 186.4904
567.1942, 185.4738
567.6763, 185.2176
568.1584, 184.7766
568.6405, 183.3541
569.1226, 181.3239
569.6047, 179.6338
570.0869, 178.8071
570.5690, 178.3407
571.0511, 177.0265
571.5332, 174.3788
572.0153, 172.7320
572.4974, 172.9652
572.9796, 173.6362
573.4617, 174.3056
573.9438, 174.8011
574.4259, 174.6922
574.9080, 173.3913
575.3901, 172.0318
575.8723, 172.2683
576.3544, 173.7527
576.8365, 174.3037
577.3186, 173.0070
577.8007, 171.5950
578.2828, 172.2975
578.7650, 175.2670
579.2471, 177.0567
579.7292, 176.8180
580.2113, 176.1756
580.6934, 175.7594
581.1755, 175.4988
581.6577, 175.1452
582.1398, 174.6364
582.6219, 174.2326
583.1040, 174.2121
583.5861, 174.5135
584.0682, 175.7288
584.5504, 179.3941
585.0325, 182.1205
585.5146, 182.3179
585.9967, 181.2718
586.4788, 180.6536
586.9609, 180.9452
587.4431, 181.3535
587.9252, 181.4063
588.4073, 180.9874
588.8894, 179.4333
589.3715, 176.4399
589.8536, 173.4004
590.3358, 171.2881
590.8179, 169.8206
591.3000, 167.9256
591.7821, 164.9505
592.2642, 162.6860
592.7463, 162.4649
593.2285, 162.8030
593.7106, 162.0054
594.1927, 159.9607
594.6748, 157.5978
595.1569, 155.6855
595.6390, 153.0906
596.1212, 151.6962
596.6033, 147.9162
597.0854, 144.6525
597.5675, 141.9047
598.0496, 139.8694
598.5317, 139.0397
599.0139, 139.1649
599.4960, 139.2019
599.9781, 138.6339
600.4602, 137.4610
600.9423, 135.5548
601.4244, 132.9088
601.9066, 129.9853
602.3887, 126.5491
602.8708, 123.4427
603.3529, 122.2605
603.8350, 123.0091
604.3171, 122.9796
604.7993, 121.0455
605.2814, 118.9353
605.7635, 117.7245
606.2456, 117.1750
606.7277, 116.7204
607.2098, 116.1396
607.6920, 115.4432
608.1741, 114.6420
608.6562, 113.7142
609.1383, 112.8028
609.6204, 111.9370
610.1025, 111.0542
610.5847, 110.2315
611.0668, 109.3453
611.5489, 108.1690
612.0310, 106.6223
612.5131, 105.1046
612.9952, 103.8108
613.4774, 102.8448
613.9595, 102.8831
614.4416, 104.2115
614.9237, 104.7432
615.4058, 102.6880
615.8879, 99.06032
616.3701, 97.14307
616.8522, 97.51104
617.3343, 98.16109
617.8164, 99.28204
618.2985, 100.0937
618.7806, 99.73302
619.2628, 98.34969
619.7449, 96.73162
620.2270, 95.37170
620.7091, 94.17583
621.1912, 92.79309
621.6733, 90.89949
622.1555, 89.79734
622.6376, 90.29260
623.1197, 91.03552
623.6018, 91.49026
624.0839, 91.60084
624.5660, 91.27540
625.0482, 90.26897
625.5303, 89.15356
626.0124, 88.62717
626.4945, 88.49003
626.9766, 88.07692
627.4587, 87.23069
627.9409, 86.04163
628.4230, 84.30061
628.9051, 82.05330
629.3872, 81.55782
629.8693, 84.40920
630.3514, 86.70407
630.8336, 87.80741
631.3157, 87.85793
631.7978, 86.55359
632.2799, 84.18707
632.7620, 82.06052
633.2441, 81.34835
633.7263, 81.71347
634.2084, 81.82075
634.6905, 81.53074
635.1726, 81.56811
635.6547, 82.54540
636.1368, 83.57027
636.6190, 83.70498
637.1011, 82.99833
637.5832, 82.22100
638.0653, 81.33926
638.5474, 80.71445
639.0295, 80.72710
639.5117, 81.23447
639.9938, 81.97721
640.4759, 82.86573
640.9580, 83.60460
641.4401, 83.77335
641.9222, 83.30324
642.4044, 82.90701
642.8865, 82.59808
643.3686, 82.35327
643.8507, 82.16089
644.3328, 82.03561
644.8149, 82.09678
645.2971, 82.32597
645.7792, 82.34977
646.2613, 81.72575
646.7434, 80.70164
647.2255, 79.75893
647.7076, 78.89359
648.1898, 78.67800
648.6719, 79.74728
649.1540, 81.06804
649.6361, 80.52449
650.1182, 77.44479
650.6003, 76.05997
651.0825, 78.33536
651.5646, 80.75935
652.0467, 81.11801
652.5288, 80.24211
653.0109, 79.89120
653.4930, 80.68070
653.9752, 81.73122
654.4573, 81.73083
654.9394, 80.63937
655.4215, 80.22787
655.9036, 80.76329
656.3857, 81.45163
656.8679, 82.27107
657.3500, 82.88471
657.8321, 82.80142
658.3142, 81.90781
658.7963, 80.95213
659.2784, 79.85701
659.7606, 79.14675
660.2427, 79.84997
660.7248, 81.59042
661.2069, 82.70973
661.6890, 82.39937
662.1711, 81.26506
662.6533, 80.36120
663.1354, 79.70962
663.6175, 79.20205
664.0996, 78.71101
664.5817, 78.50819
665.0638, 78.93767
665.5460, 79.60442
666.0281, 79.95937
666.5102, 79.85477
666.9923, 79.62967
667.4744, 79.40366
667.9565, 79.30583
668.4387, 79.93934
668.9208, 81.34749
669.4029, 82.01775
669.8850, 80.94781
670.3671, 78.99158
670.8492, 77.93429
671.3314, 78.21652
671.8135, 78.24398
672.2956, 77.83553
672.7777, 77.32259
673.2598, 76.77871
673.7419, 76.28411
674.2241, 75.90428
674.7062, 75.67119
675.1883, 75.65359
675.6704, 76.21308
676.1525, 77.21584
676.6346, 77.10706
677.1168, 75.41080
677.5989, 74.12762
678.0810, 74.56059
678.5631, 75.80222
679.0452, 76.13713
679.5273, 75.33204
680.0095, 74.88290
680.4916, 75.43452
680.9737, 76.22241
681.4558, 76.85777
681.9379, 77.23946
682.4200, 77.23862
682.9022, 76.80479
683.3843, 76.04269
683.8664, 74.90457
684.3485, 73.30334
684.8306, 72.73167
685.3127, 73.65234
685.7949, 74.78798
686.2770, 76.11482
686.7591, 77.11311
687.2412, 76.92168
687.7233, 75.37153
688.2054, 74.23705
688.6876, 75.13642
689.1697, 76.20472
689.6518, 75.04696
690.1339, 72.28880
690.6160, 70.11111
691.0981, 69.37531
691.5803, 69.79910
692.0624, 71.17738
692.5445, 73.72346
693.0266, 75.34464
693.5087, 75.36858
693.9908, 75.34451
694.4730, 75.88098
694.9551, 76.44839
695.4372, 76.29655
695.9193, 75.39730
696.4014, 74.87366
696.8835, 76.07774
697.3657, 77.58575
697.8478, 77.07253
698.3299, 74.99418
698.8120, 73.93198
699.2941, 74.90722
699.7762, 76.08125
700.2584, 74.88419
700.7405, 70.97709
701.2226, 68.99451
701.7047, 70.42920
702.1868, 72.01197
702.6689, 73.69479
703.1511, 74.93626
703.6332, 75.04133
704.1153, 74.10362
704.5974, 73.09767
705.0795, 72.58869
705.5616, 72.43281
706.0438, 72.60261
706.5259, 73.00184
707.0080, 72.85723
707.4901, 71.82044
707.9722, 70.91000
708.4543, 71.31403
708.9365, 72.99327
709.4186, 73.90541
709.9007, 73.83523
710.3828, 73.33393
710.8649, 71.75982
711.3470, 70.32466
711.8292, 70.37117
712.3113, 71.59951
712.7934, 72.47141
713.2755, 71.92947
713.7576, 70.87556
714.2397, 70.63501
714.7219, 71.13715
715.2040, 72.06885
715.6861, 73.53467
716.1682, 74.51733
716.6503, 73.89769
717.1324, 72.10196
717.6146, 71.55930
718.0967, 73.88518
718.5788, 75.07080
719.0609, 73.83694
719.5430, 72.18176
720.0251, 71.49014
720.5073, 71.57879
720.9894, 71.59486
721.4715, 71.11610
721.9536, 70.55169
722.4357, 70.43108
722.9178, 70.70577
723.4000, 71.28709
723.8821, 72.31429
724.3642, 72.59425
724.8463, 71.05213
725.3284, 68.56247
725.8105, 67.36858
726.2927, 67.72907
726.7748, 68.68059
727.2569, 71.19131
727.7390, 73.25992
728.2211, 73.59862
728.7032, 72.78425
729.1854, 71.72358
729.6675, 70.74815
730.1496, 70.00060
730.6317, 69.61816
731.1138, 69.59133
731.5959, 70.03550
732.0781, 71.00264
732.5602, 71.64771
733.0423, 71.51844
733.5244, 71.09605
734.0065, 71.03788
734.4886, 71.38007
734.9708, 71.95436
735.4529, 73.12223
735.9350, 74.08871
736.4171, 74.74632
736.8992, 74.96329
737.3813, 74.29365
737.8635, 72.89384
738.3456, 71.87162
738.8277, 72.24207
739.3098, 73.31896
739.7919, 73.71741
740.2740, 73.47542
740.7562, 73.07499
741.2383, 72.54418
741.7204, 72.23579
742.2025, 72.61865
742.6846, 73.58035
743.1667, 73.89629
743.6489, 72.98112
744.1310, 72.29333
744.6131, 72.22646
745.0952, 72.24205
745.5773, 71.78177
746.0594, 71.06361
746.5416, 70.74793
747.0237, 71.17057
747.5058, 71.97079
747.9879, 73.02799
748.4700, 74.11549
748.9521, 74.21398
749.4343, 73.17660
749.9164, 72.01279
750.3985, 71.17525
750.8806, 70.77115
751.3627, 71.10949
751.8448, 72.68906
752.3270, 73.71284
752.8091, 73.94934
753.2912, 73.94081
753.7733, 73.89220
754.2554, 73.73141
754.7375, 73.22853
755.2197, 72.36863
755.7018, 71.68104
756.1839, 71.55827
756.6660, 71.85754
757.1481, 72.62534
757.6302, 73.69349
758.1124, 73.98615
758.5945, 73.07967
759.0766, 72.00626
759.5587, 71.95102
760.0408, 72.88888
760.5229, 73.65221
761.0051, 74.57687
761.4872, 74.78933
761.9693, 73.26141
762.4514, 71.80740
762.9335, 72.09481
763.4156, 73.63028
763.8978, 74.48930
764.3799, 73.72961
764.8620, 72.49973
765.3441, 71.45150
765.8262, 70.68038
766.3083, 70.51761
766.7905, 70.90834
767.2726, 71.25159
767.7547, 71.20210
768.2368, 70.77971
768.7189, 69.90482
769.2010, 68.24732
769.6832, 67.37487
770.1653, 67.60981
770.6474, 68.20116
771.1295, 68.97163
771.6116, 69.82896
772.0938, 70.68589
772.5759, 71.53948
773.0580, 72.27566
773.5401, 72.91956
774.0222, 73.36204
774.5043, 73.49316
774.9865, 73.36304
775.4686, 73.03967
775.9507, 72.55718
776.4328, 71.97189
776.9149, 71.28503
777.3970, 70.57703
777.8792, 70.31668
778.3613, 70.64452
778.8434, 70.56909
779.3255, 69.46215
779.8076, 68.55553
780.2897, 69.41399
780.7719, 71.44225
781.2540, 72.02082
781.7361, 69.69479
782.2182, 68.08886
782.7003, 68.78198
783.1824, 69.93443
783.6646, 69.83413
784.1467, 68.94625
784.6288, 68.89065
785.1109, 70.38864
785.5930, 72.10008
786.0751, 72.24075
786.5573, 71.20615
787.0394, 70.61333
787.5215, 70.54587
788.0036, 70.54883
788.4857, 70.43603
788.9678, 70.30237
789.4500, 70.33836
789.9321, 70.62094
790.4142, 70.45518
790.8963, 69.10134
791.3784, 68.27383
791.8605, 68.63360
792.3427, 69.43013
792.8248, 70.18066
793.3069, 70.74979
793.7890, 70.94565
794.2711, 70.43233
794.7532, 69.94787
795.2354, 70.41318
795.7175, 71.38162
796.1996, 71.82623
796.6817, 71.66080
797.1638, 71.58479
797.6459, 72.07690
798.1281, 72.70609
798.6102, 72.35587
799.0923, 70.62147
799.5744, 69.63637
800.0565, 69.75918
800.5386, 70.06231
801.0208, 70.33449
801.5029, 70.47155
801.9850, 70.13743
802.4671, 69.27895
802.9492, 69.09322
803.4313, 70.79404
803.9135, 72.33248
804.3956, 71.86205
804.8777, 70.71622
805.3598, 71.31710
805.8419, 73.67472
806.3240, 75.22862
806.8062, 73.81951
807.2883, 70.89686
807.7704, 69.68980
808.2525, 70.10356
808.7346, 70.13813
809.2167, 69.37749
809.6989, 68.78246
810.1810, 69.02346
810.6631, 69.85412
811.1452, 70.64767
811.6273, 71.68373
812.1094, 71.99829
812.5916, 70.54562
813.0737, 69.56383
813.5558, 70.68996
814.0379, 72.45263
814.5200, 72.81265
815.0021, 71.49320
815.4843, 70.02334
815.9664, 69.60774
816.4485, 69.31293
816.9306, 67.36563
817.4127, 64.76567
817.8948, 64.59302
818.3770, 67.28600
818.8591, 69.74729
819.3412, 69.34337
819.8233, 67.15802
820.3054, 66.85945
820.7875, 69.07215
821.2697, 70.28703
821.7518, 69.63744
822.2339, 68.93034
822.7160, 69.21056
823.1981, 70.08912
823.6802, 71.04326
824.1624, 72.27000
824.6445, 72.54698
825.1266, 70.41772
825.6087, 68.58283
826.0908, 68.91067
826.5729, 70.27615
827.0551, 71.13516
827.5372, 71.17202
828.0193, 70.85966
828.5014, 70.42649
828.9835, 70.00559
829.4656, 69.86642
829.9478, 69.95071
830.4299, 70.03140
830.9120, 70.07317
831.3941, 69.80484
831.8762, 68.87199
832.3583, 67.81932
832.8404, 68.32088
833.3225, 71.56680
833.8046, 72.90708
834.2867, 70.64876
834.7689, 68.67397
835.2510, 68.65441
835.7331, 69.47987
836.2152, 69.95542
836.6973, 69.97367
837.1794, 69.81567
837.6616, 69.28415
838.1437, 68.91784
838.6258, 69.10024
839.1079, 69.61853
839.5900, 70.43552
840.0721, 71.34176
840.5543, 71.60620
841.0364, 70.67387
841.5185, 69.29195
842.0006, 68.57838
842.4827, 68.51633
842.9648, 69.35923
843.4470, 71.26233
843.9291, 72.22234
844.4112, 71.01884
844.8933, 68.79224
845.3754, 67.39304
845.8575, 66.88937
846.3397, 66.78701
846.8218, 67.31130
847.3039, 67.93943
847.7860, 68.60207
848.2681, 69.30602
848.7502, 70.19521
849.2324, 71.15709
849.7145, 71.73869
850.1966, 71.65726
850.6787, 71.44310
851.1608, 71.64152
851.6429, 71.69762
852.1251, 70.67487
852.6072, 68.93037
853.0893, 67.62125
853.5714, 67.25068
854.0535, 67.47076
854.5356, 67.98119
855.0178, 68.72355
855.4999, 69.55630
855.9820, 70.49477
856.4641, 70.81957
856.9462, 70.19546
857.4283, 69.36415
857.9105, 69.03868
858.3926, 69.16870
858.8747, 69.35329
859.3568, 69.77714
859.8389, 69.92971
860.3210, 69.83854
860.8032, 69.42346
861.2853, 68.13358
861.7674, 66.67668
862.2495, 66.41262
862.7316, 67.72609
863.2137, 68.69631
863.6959, 68.27295
864.1780, 67.44762
864.6601, 66.89413
865.1422, 66.50617
865.6243, 65.93678
866.1064, 65.21330
866.5886, 64.90113
867.0707, 65.50644
867.5528, 66.51760
868.0349, 66.96481
868.5170, 66.94797
868.9991, 67.13344
869.4813, 67.61189
869.9634, 67.98123
870.4455, 67.96372
870.9276, 67.89188
871.4097, 68.46888
871.8918, 69.90929
872.3740, 70.51016
872.8561, 69.83105
873.3382, 69.03069
873.8203, 68.13423
874.3024, 67.45727
874.7845, 67.29108
875.2667, 67.57945
875.7488, 68.05776
876.2309, 68.88497
876.7130, 69.53770
877.1951, 69.66808
877.6772, 69.68797
878.1594, 70.24156
878.6415, 70.88822
879.1236, 70.38938
879.6057, 68.43240
880.0878, 66.73885
880.5699, 67.27332
881.0521, 68.91223
881.5342, 69.57230
882.0163, 69.49260
882.4984, 69.80428
882.9805, 70.74471
883.4626, 71.41216
883.9448, 71.08268
884.4269, 69.99643
884.9090, 68.70890
885.3911, 67.06025
885.8732, 66.15339
886.3553, 66.20076
886.8375, 66.65462
887.3196, 67.61739
887.8017, 68.56129
888.2838, 68.39589
888.7659, 66.92831
889.2480, 66.81571
889.7302, 69.36583
890.2123, 71.63365
890.6944, 73.33526
891.1765, 74.11419
891.6586, 73.07920
892.1407, 70.93513
892.6229, 69.59228
893.1050, 69.83949
893.5871, 70.18143
894.0692, 69.34038
894.5513, 68.28255
895.0334, 68.25259
895.5156, 68.92312
895.9977, 69.44283
896.4798, 69.53911
896.9619, 69.24871
897.4440, 68.41198
897.9261, 67.51069
898.4083, 68.17618
898.8904, 70.17899
899.3725, 70.52682
899.8546, 68.58825
900.3367, 67.16695
900.8188, 68.02407
901.3010, 70.12053
901.7831, 71.51095
902.2652, 72.16132
902.7473, 72.29839
903.2294, 71.48830
903.7115, 70.92790
904.1937, 71.02436
904.6758, 71.41470
905.1579, 71.91323
905.6400, 72.46059
906.1221, 72.82666
906.6042, 73.02647
907.0864, 72.96385
907.5685, 71.99772
908.0506, 71.36964
908.5327, 72.57455
909.0148, 74.42294
909.4969, 74.65344
909.9791, 72.91550
910.4612, 71.63099
910.9433, 72.85316
911.4254, 74.84133
911.9075, 75.99327
912.3896, 76.45600
912.8718, 76.15424
913.3539, 75.36260
913.8360, 75.41106
914.3181, 77.09996
914.8002, 79.22011
915.2823, 79.63673
915.7645, 78.64505
916.2466, 78.68497
916.7287, 79.86198
917.2108, 80.28166
917.6929, 79.13521
918.1750, 77.99389
918.6572, 78.58675
919.1393, 77.90616
919.6214, 77.60879
920.1035, 78.64482
920.5856, 79.21567
921.0677, 79.71936
921.5499, 82.02227
922.0320, 84.04467
922.5141, 85.94299
922.9962, 88.07799
923.4783, 90.50952
923.9604, 92.18157
924.4426, 92.73044
924.9247, 92.79343
925.4068, 92.16635
925.8889, 91.48423
926.3710, 91.21270
926.8531, 91.36679
927.3353, 91.77074
927.8174, 92.32253
928.2995, 93.45231
928.7816, 96.07120
929.2637, 98.90479
929.7458, 100.5660
930.2280, 101.3626
930.7101, 101.9408
931.1922, 102.5172
931.6743, 103.1952
932.1564, 104.0409
932.6385, 105.0636
933.1207, 106.5040
933.6028, 108.1548
934.0849, 108.6845
934.5670, 108.0927
935.0491, 108.9369
935.5313, 112.4198
936.0134, 116.7284
936.4955, 119.5609
936.9776, 121.1226
937.4597, 123.6634
937.9418, 127.7189
938.4240, 130.3653
938.9061, 130.4120
939.3882, 130.5629
939.8703, 132.4286
940.3524, 135.6270
940.8345, 139.4453
941.3167, 144.1739
941.7988, 148.4567
942.2809, 151.7336
942.7630, 155.3006
943.2451, 160.0257
943.7272, 164.6833
944.2094, 167.7397
944.6915, 169.8231
945.1736, 173.2059
945.6557, 178.7944
946.1378, 184.5342
946.6199, 189.6043
947.1021, 194.6613
947.5842, 200.0421
948.0663, 205.7422
948.5484, 211.6570
949.0305, 217.8044
949.5126, 224.4976
949.9948, 232.0090
950.4769, 240.0070
950.9590, 248.0495
951.4411, 256.5287
951.9232, 266.6872
952.4053, 277.9744
952.8875, 287.9456
953.3696, 295.7660
953.8517, 303.9388
954.3338, 315.6342
954.8159, 324.5201
955.2980, 339.2097
955.7802, 346.5277
956.2623, 356.5086
956.7444, 370.0747
957.2265, 383.6712
957.7086, 395.2328
958.1907, 405.6249
958.6729, 416.4453
959.1550, 427.7377
959.6371, 438.1086
960.1192, 447.3295
960.6013, 456.7702
961.0834, 467.0288
961.5656, 477.1412
962.0477, 486.3872
962.5298, 494.7941
963.0119, 502.4601
963.4940, 509.5072
963.9761, 515.5901
964.4583, 521.1471
964.9404, 525.1359
965.4225, 526.8940
965.9046, 527.2723
966.3867, 527.3790
966.8688, 526.9382
967.3510, 524.2047
967.8331, 518.6748
968.3152, 511.3303
968.7973, 502.7737
969.2794, 492.0912
969.7615, 477.6798
970.2437, 461.4018
970.7258, 445.8501
971.2079, 431.4018
971.6900, 416.4723
972.1721, 399.9465
972.6542, 383.4069
973.1364, 367.4708
973.6185, 352.2391
974.1006, 337.7979
974.5827, 324.1279
975.0648, 311.0585
975.5469, 298.5245
976.0291, 287.1383
976.5112, 277.3794
976.9933, 269.0609
977.4754, 262.7094
977.9575, 257.3353
978.4396, 250.2365
978.9218, 241.4903
979.4039, 233.5158
979.8860, 227.5004
980.3681, 222.7490
980.8502, 218.5030
981.3323, 214.7552
981.8145, 211.7508
982.2966, 209.3865
982.7787, 206.6763
983.2608, 203.4198
983.7429, 199.8105
984.2250, 195.8284
984.7072, 192.2258
985.1893, 190.8740
985.6714, 191.8817
986.1535, 191.5633
986.6356, 189.7310
987.1177, 187.5968
987.5999, 185.3891
988.0820, 183.1987
988.5641, 180.9941
989.0462, 178.9677
989.5283, 177.9459
990.0104, 178.6582
990.4926, 177.9570
990.9747, 175.0259
991.4568, 172.2253
991.9389, 170.1731
992.4210, 168.7290
992.9031, 167.9091
993.3853, 167.6269
993.8674, 167.2732
994.3495, 166.4652
994.8316, 166.2396
995.3137, 167.7257
995.7958, 168.4839
996.2780, 166.9068
996.7601, 164.5390
997.2422, 162.9619
997.7243, 162.2311
998.2064, 161.8558
998.6885, 162.5076
999.1707, 162.2996
999.6528, 158.9696
1000.135, 156.4904
1000.617, 158.7629
1001.099, 162.8149
1001.581, 164.1022
1002.063, 162.1705
1002.545, 159.9468
1003.028, 158.5759
1003.510, 157.3090
1003.992, 155.5878
1004.474, 153.9150
1004.956, 152.8274
1005.438, 152.1524
1005.920, 151.7252
1006.402, 151.3802
1006.885, 150.1644
1007.367, 146.6738
1007.849, 143.0949
1008.331, 141.7961
1008.813, 141.5185
1009.295, 140.7076
1009.777, 139.2291
1010.259, 137.2349
1010.741, 134.8276
1011.224, 132.3767
1011.706, 130.1181
1012.188, 128.1067
1012.670, 126.5334
1013.152, 125.2213
1013.634, 123.8762
1014.116, 122.3846
1014.598, 120.2816
1015.081, 117.3997
1015.563, 114.8096
1016.045, 113.9580
1016.527, 114.0714
1017.009, 113.0534
1017.491, 111.2169
1017.973, 110.0359
1018.455, 109.7042
1018.937, 109.9061
1019.420, 110.5341
1019.902, 110.6560
1020.384, 108.6278
1020.866, 105.1396
1021.348, 103.7083
1021.830, 104.2459
1022.312, 104.0528
1022.794, 102.6147
1023.276, 101.8716
1023.759, 103.0630
1024.241, 104.8117
1024.723, 104.8459
1025.205, 103.3104
1025.687, 102.2629
1026.169, 101.7351
1026.651, 101.4998
1027.133, 101.6120
1027.616, 101.5448
1028.098, 100.9038
1028.580, 100.0586
1029.062, 99.67924
1029.544, 99.77425
1030.026, 100.0434
1030.508, 100.6747
1030.990, 100.7280
1031.473, 99.68970
1031.955, 98.82787
1032.437, 98.81335
1032.919, 99.64281
1033.401, 101.5466
1033.883, 104.7680
1034.365, 106.5252
1034.847, 106.2285
1035.329, 105.7238
1035.812, 104.7547
1036.294, 104.5669
1036.776, 106.6224
1037.258, 109.5304
1037.740, 110.4038
1038.222, 108.8260
1038.704, 107.9810
1039.186, 107.9760
1039.668, 108.5382
1040.151, 109.8242
1040.633, 111.4427
1041.115, 113.1868
1041.597, 115.0808
1042.079, 117.4072
1042.561, 120.4628
1043.043, 122.0077
1043.525, 120.6837
1044.008, 119.6993
1044.490, 119.3636
1044.972, 119.7369
1045.454, 121.9135
1045.936, 124.4173
1046.418, 124.3787
1046.900, 121.3493
1047.382, 118.6341
1047.865, 116.4566
1048.347, 114.7871
1048.829, 113.9446
1049.311, 113.2776
1049.793, 112.2851
1050.275, 111.2087
1050.757, 110.6320
1051.239, 110.6555
1051.721, 110.1424
1052.203, 108.2688
1052.686, 106.6800
1053.168, 105.8718
1053.650, 105.4707
1054.132, 105.2665
1054.614, 105.2675
1055.096, 105.7130
1055.578, 106.6101
1056.060, 106.8835
1056.543, 105.6407
1057.025, 104.5833
1057.507, 104.1781
1057.989, 104.2120
1058.471, 104.6348
1058.953, 105.3389
1059.435, 106.4299
1059.917, 107.8382
1060.400, 108.4600
1060.882, 106.9696
1061.364, 105.9876
1061.846, 106.8719
1062.328, 108.1581
1062.810, 109.5586
1063.292, 110.2555
1063.774, 108.3891
1064.256, 104.2248
1064.739, 101.8016
1065.221, 103.8855
1065.703, 105.6358
1066.185, 105.0685
1066.667, 103.4706
1067.149, 101.1131
1067.631, 98.68370
1068.113, 97.29057
1068.595, 96.81451
1069.078, 95.61904
1069.560, 92.49833
1070.042, 89.95703
1070.524, 89.58434
1071.006, 89.67202
1071.488, 88.82191
1071.970, 87.80276
1072.452, 88.15787
1072.935, 89.55592
1073.417, 89.66268
1073.899, 87.18449
1074.381, 84.88096
1074.863, 84.04501
1075.345, 83.82677
1075.827, 83.73743
1076.309, 83.87283
1076.792, 84.46658
1077.274, 85.44210
1077.756, 86.61110
1078.238, 88.14189
1078.720, 88.79032
1079.202, 87.03858
1079.684, 85.28821
1080.166, 85.04271
1080.648, 85.60230
1081.130, 86.49709
1081.613, 87.39408
1082.095, 87.66314
1082.577, 87.05667
1083.059, 86.48845
1083.541, 86.27866
1084.023, 86.31569
1084.505, 86.79588
1084.987, 87.27410
1085.469, 87.10173
1085.952, 86.63101
1086.434, 86.86819
1086.916, 88.06407
1087.398, 88.78671
1087.880, 87.95214
1088.362, 87.13944
1088.844, 87.57224
1089.326, 87.91629
1089.809, 86.72447
1090.291, 84.71961
1090.773, 83.16158
1091.255, 82.29930
1091.737, 82.08837
1092.219, 83.09712
1092.701, 83.92575
1093.183, 84.07687
1093.666, 83.81653
1094.148, 82.96408
1094.630, 82.03374
1095.112, 81.91546
1095.594, 82.53882
1096.076, 82.65260
1096.558, 81.43296
1097.040, 80.59290
1097.522, 81.31581
1098.005, 81.86443
1098.487, 80.88673
1098.969, 79.42503
1099.451, 78.78417
1099.933, 78.86512
1100.415, 78.75516
1100.897, 78.39118
1101.379, 77.44834
1101.861, 74.52488
1102.344, 72.66084
1102.826, 74.25017
1103.308, 76.54213
1103.790, 76.85897
1104.272, 75.77090
1104.754, 75.32225
1105.236, 75.99123
1105.718, 76.14905
1106.201, 75.14182
1106.683, 74.09016
1107.165, 73.51235
1107.647, 72.80024
1108.129, 71.07789
1108.611, 69.09968
1109.093, 68.46388
1109.575, 69.38997
1110.057, 69.70946
1110.540, 68.92256
1111.022, 67.97350
1111.504, 66.35876
1111.986, 65.33780
1112.468, 66.13161
1112.950, 67.49994
1113.432, 67.71713
1113.914, 66.85228
1114.396, 66.32278
1114.879, 66.67392
1115.361, 66.40405
1115.843, 64.77749
1116.325, 63.57641
1116.807, 63.74475
1117.289, 64.23028
1117.771, 63.97258
1118.253, 63.22346
1118.736, 63.05901
1119.218, 62.08913
1119.700, 63.60888
1120.182, 60.56243
1120.664, 58.43206
1121.146, 58.34768
1121.628, 58.88809
1122.110, 59.18919
1122.593, 59.28187
1123.075, 59.20238
1123.557, 58.93540
1124.039, 58.75415
1124.521, 58.68354
1125.003, 58.62211
1125.485, 58.58483
1125.967, 58.44057
1126.449, 58.07743
1126.932, 57.69502
1127.414, 57.62458
1127.896, 57.75652
1128.378, 57.22555
1128.860, 55.90215
1129.342, 55.25466
1129.824, 55.47270
1130.306, 55.67558
1130.788, 55.50103
1131.271, 55.56899
1131.753, 56.54607
1132.235, 57.93859
1132.717, 58.43989
1133.199, 58.10514
1133.681, 57.77890
1134.163, 57.45786
1134.645, 56.51618
1135.128, 54.81876
1135.610, 52.89882
1136.092, 51.01516
1136.574, 49.74995
1137.056, 50.47768
1137.538, 49.27598
1138.020, 51.65680
1138.502, 49.32769
1138.984, 48.62919
1139.467, 49.79866
1139.949, 51.33075
1140.431, 52.57943
1140.913, 53.49009
1141.395, 54.03887
1141.877, 54.16612
1142.359, 53.54252
1142.841, 52.54087
1143.323, 51.97978
1143.806, 51.74348
1144.288, 51.29491
1144.770, 50.54452
1145.252, 49.84157
1145.734, 49.42223
1146.216, 48.98234
1146.698, 47.65645
1147.180, 46.66371
1147.663, 48.20917
1148.145, 50.61992
1148.627, 50.92414
1149.109, 49.46716
1149.591, 48.55762
1150.073, 48.97684
1150.555, 49.87780
1151.037, 51.58910
1151.520, 52.58923
1152.002, 51.24362
1152.484, 49.33681
1152.966, 48.02893
1153.448, 47.65392
1153.930, 49.21129
1154.412, 52.38668
1154.894, 53.67885
1155.376, 50.56553
1155.859, 48.30099
1156.341, 49.23566
1156.823, 50.47861
1157.305, 50.48991
1157.787, 50.14517
1158.269, 50.76331
1158.751, 51.83437
1159.233, 51.26556
1159.715, 47.97193
1160.198, 46.61092
1160.680, 49.39135
1161.162, 51.29000
1161.644, 50.89079
1162.126, 50.11982
1162.608, 50.01624
1163.090, 50.20366
1163.572, 50.11724
1164.055, 49.77426
1164.537, 49.56886
1165.019, 49.51281
1165.501, 49.60709
1165.983, 50.00922
1166.465, 50.02507
1166.947, 49.29626
1167.429, 48.37981
1167.911, 47.60760
1168.394, 47.30897
1168.876, 48.80235
1169.358, 48.58553
1169.840, 48.58487
1170.322, 49.84097
1170.804, 48.39257
1171.286, 48.90252
1171.768, 49.42136
1172.250, 48.92798
1172.733, 47.94191
1173.215, 46.89043
1173.697, 46.09854
1174.179, 46.73684
1174.661, 48.30622
1175.143, 49.12438
1175.625, 49.19571
1176.107, 49.22900
1176.590, 49.39520
1177.072, 49.23935
1177.554, 48.36944
1178.036, 47.63721
1178.518, 48.26563
1179.000, 49.37020
1179.482, 50.10442
1179.964, 50.30272
1180.447, 49.05556
1180.929, 47.17226
1181.411, 47.41576
1181.893, 50.53335
1182.375, 52.97372
1182.857, 52.50130
1183.339, 51.08240
1183.821, 48.87423
1184.303, 47.13786
1184.786, 47.41607
1185.268, 48.46926
1185.750, 48.44709
1186.232, 47.41415
1186.714, 46.79111
1187.196, 47.04238
1187.678, 47.11354
1188.160, 46.02370
1188.642, 45.82906
1189.125, 48.47469
1189.607, 50.81488
1190.089, 50.17062
1190.571, 48.22446
1191.053, 48.03783
1191.535, 49.58335
1192.017, 49.58930
1192.499, 47.26401
1192.982, 45.74343
1193.464, 45.21491
1193.946, 45.70560
1194.428, 47.51947
1194.910, 49.35961
1195.392, 50.08848
1195.874, 50.02942
1196.356, 49.90168
1196.839, 49.69810
1197.321, 49.12474
1197.803, 48.25444
1198.285, 48.31988
1198.767, 49.42272
1199.249, 50.16386
1199.731, 49.92043
1200.213, 49.50026
1200.695, 49.79514
1201.177, 50.20547
1201.660, 49.53288
1202.142, 48.35765
1202.624, 48.04815
1203.106, 48.15159
1203.588, 47.05590
1204.070, 44.90484
1204.552, 43.70629
1205.034, 44.40738
1205.517, 45.53303
1205.999, 46.58428
1206.481, 47.05047
1206.963, 45.90213
1207.445, 44.58857
1207.927, 44.34090
1208.409, 45.03782
1208.891, 46.71788
1209.374, 49.11705
1209.856, 50.30896
1210.338, 49.04212
1210.820, 48.27448
1211.302, 49.11444
1211.784, 49.65896
1212.266, 49.24525
1212.748, 48.31177
1213.230, 46.85293
1213.713, 45.28798
1214.195, 44.54829
1214.677, 44.64731
1215.159, 43.68954
1215.641, 40.80794
1216.123, 41.23398
1216.605, 46.36066
1217.087, 49.50762
1217.569, 48.01312
1218.052, 45.39696
1218.534, 44.65154
1219.016, 44.95025
1219.498, 44.65961
1219.980, 43.95616
1220.462, 43.47955
1220.944, 43.29733
1221.426, 44.02555
1221.909, 45.40488
1222.391, 45.54808
1222.873, 43.91105
1223.355, 43.02932
1223.837, 45.46572
1224.319, 48.00547
1224.801, 46.69978
1225.283, 44.31197
1225.766, 43.96727
1226.248, 44.67458
1226.730, 44.68462
1227.212, 44.08861
1227.694, 43.93254
1228.176, 44.49358
1228.658, 45.38834
1229.140, 47.33678
1229.622, 48.36547
1230.104, 47.08717
1230.587, 45.64313
1231.069, 45.26490
1231.551, 45.31253
1232.033, 45.01191
1232.515, 44.50281
1232.997, 44.31927
1233.479, 44.50906
1233.961, 44.81483
1234.444, 45.33199
1234.926, 45.55294
1235.408, 45.32579
1235.890, 45.10920
1236.372, 45.11625
1236.854, 45.30394
1237.336, 45.63183
1237.818, 46.08766
1238.301, 46.82978
1238.783, 47.64989
1239.265, 47.78095
1239.747, 47.24474
1240.229, 45.78836
1240.711, 43.81003
1241.193, 43.40648
1241.675, 45.46693
1242.157, 47.49834
1242.640, 47.46686
1243.122, 46.58992
1243.604, 45.64208
1244.086, 44.63024
1244.568, 43.15034
1245.050, 41.86720
1245.532, 41.71129
1246.014, 42.66613
1246.496, 44.54206
1246.979, 47.90542
1247.461, 49.25652
1247.943, 46.10846
1248.425, 43.78950
1248.907, 43.60193
1249.389, 44.04050
1249.871, 44.87879
1250.353, 45.34053
1250.836, 44.26249
1251.318, 42.34486
1251.800, 42.33321
1252.282, 44.41349
1252.764, 45.48992
1253.246, 45.54766
1253.728, 45.23866
1254.210, 44.68783
1254.693, 43.95516
1255.175, 43.07463
1255.657, 42.44580
1256.139, 42.44357
1256.621, 42.93253
1257.103, 44.14243
1257.585, 45.39556
1258.067, 45.47738
1258.549, 44.81859
1259.031, 44.10839
1259.514, 43.55077
1259.996, 43.38578
1260.478, 43.67802
1260.960, 43.73626
1261.442, 42.84777
1261.924, 42.28535
1262.406, 42.90743
1262.888, 43.45569
1263.371, 42.65638
1263.853, 41.99630
1264.335, 43.43684
1264.817, 45.95734
1265.299, 47.08089
1265.781, 46.75542
1266.263, 45.79033
1266.745, 43.85057
1267.228, 43.12178
1267.710, 43.97021
1268.192, 44.90829
1268.674, 45.44635
1269.156, 45.20720
1269.638, 43.75233
1270.120, 42.21656
1270.602, 42.66458
1271.084, 44.22538
1271.567, 44.96651
1272.049, 45.30336
1272.531, 46.50526
1273.013, 48.04817
1273.495, 48.01667
1273.977, 46.26876
1274.459, 44.99768
1274.941, 45.35120
1275.423, 45.65097
1275.906, 45.26397
1276.388, 44.42055
1276.870, 42.19272
1277.352, 40.61417
1277.834, 41.76429
1278.316, 44.25452
1278.798, 46.14890
1279.280, 47.39404
1279.763, 47.50642
1280.245, 46.02128
1280.727, 45.40765
1281.209, 45.87656
1281.691, 45.90749
1282.173, 45.12782
1282.655, 44.85251
1283.137, 45.78532
1283.620, 46.64513
1284.102, 45.96575
1284.584, 44.60488
1285.066, 43.84037
##END=



