##NAMES=Corundum
##RRUFFID=R060020
##IDEAL CHEMISTRY=Al_2_O_3_
##LOCALITY=Yogo Gulch, Montana, USA
##OWNER=RRUFF
##SOURCE=American Museum of Natural History
##DESCRIPTION=Water rounded light blue fragment
##STATUS=The identification of this mineral has been confirmed by X-ray diffraction and chemical analysis
##URL=rruff.info/R060020
##MEASURED CHEMISTRY=(Al_1.99_Fe^3+^_0.01_)_Î£=2_O_3_ ; Fe^3+^ by charge balance
94.99219, 22.21662
95.47430, 22.50465
95.95642, 22.48554
96.43854, 22.23628
96.92065, 22.01405
97.40277, 22.06597
97.88489, 22.63460
98.36700, 22.90847
98.84912, 22.76570
99.33124, 22.46714
99.81335, 22.22096
100.2955, 22.09196
100.7776, 22.00092
101.2597, 21.77572
101.7418, 21.28733
102.2239, 20.92333
102.7061, 20.84199
103.1882, 20.95598
103.6703, 21.05581
104.1524, 21.06744
104.6345, 21.00946
105.1166, 20.93417
105.5988, 20.84264
106.0809, 20.73015
106.5630, 20.60651
107.0451, 20.47952
107.5272, 20.28146
108.0093, 19.83868
108.4915, 19.36507
108.9736, 19.06790
109.4557, 19.05177
109.9378, 19.21659
110.4199, 19.28562
110.9020, 19.18187
111.3842, 19.08179
111.8663, 19.01588
112.3484, 18.98363
112.8305, 18.99650
113.3126, 19.07913
113.7947, 19.23779
114.2769, 19.21113
114.7590, 18.78014
115.2411, 18.38524
115.7232, 18.18184
116.2053, 18.16443
116.6874, 18.24769
117.1695, 18.36717
117.6517, 18.55746
118.1338, 18.57789
118.6159, 18.25620
119.0980, 17.87426
119.5801, 17.68606
120.0622, 17.75336
120.5444, 17.91900
121.0265, 17.95961
121.5086, 17.87186
121.9907, 17.82700
122.4728, 17.96758
122.9549, 18.19372
123.4371, 18.22835
123.9192, 17.90342
124.4013, 17.47884
124.8834, 17.24044
125.3655, 17.19197
125.8476, 17.23208
126.3298, 17.31924
126.8119, 17.46233
127.2940, 17.53904
127.7761, 17.38488
128.2582, 17.22763
128.7404, 17.25244
129.2225, 17.50939
129.7046, 17.81709
130.1867, 17.85530
130.6688, 17.47323
131.1509, 17.08451
131.6331, 16.65027
132.1152, 16.27813
132.5973, 16.09104
133.0794, 16.15278
133.5615, 16.39678
134.0436, 16.54426
134.5258, 16.45754
135.0079, 16.41697
135.4900, 16.50075
135.9721, 16.65401
136.4542, 16.77604
136.9363, 16.79633
137.4184, 16.72355
137.9006, 16.70520
138.3827, 16.84326
138.8648, 16.93188
139.3469, 16.83532
139.8290, 16.57528
140.3111, 16.30624
140.7933, 16.14756
141.2754, 16.09518
141.7575, 16.04625
142.2396, 15.98481
142.7217, 15.93007
143.2038, 15.90473
143.6860, 15.91298
144.1681, 15.93771
144.6502, 15.97075
145.1323, 16.00959
145.6144, 16.05008
146.0965, 16.07722
146.5787, 16.10286
147.0608, 16.18149
147.5429, 16.39794
148.0250, 16.54364
148.5071, 16.45925
148.9892, 16.20856
149.4714, 15.97099
149.9535, 15.89180
150.4356, 15.98163
150.9177, 16.08718
151.3998, 16.36855
151.8819, 16.53119
152.3641, 16.35226
152.8462, 15.88897
153.3283, 15.42558
153.8104, 15.31454
154.2925, 15.74002
154.7746, 16.01183
155.2568, 16.07307
155.7389, 16.05920
156.2210, 16.05592
156.7031, 16.07948
157.1852, 16.08348
157.6673, 15.98810
158.1495, 15.65721
158.6316, 15.46562
159.1137, 15.49119
159.5958, 15.61619
160.0779, 15.72710
160.5600, 15.78570
161.0422, 15.81946
161.5243, 15.88985
162.0064, 16.02492
162.4885, 16.12787
162.9706, 16.19826
163.4527, 16.22116
163.9349, 16.14883
164.4170, 15.93002
164.8991, 15.65547
165.3812, 15.47978
165.8633, 15.38815
166.3454, 15.40160
166.8276, 15.59271
167.3097, 15.93466
167.7918, 16.23305
168.2739, 16.43154
168.7560, 16.52572
169.2381, 16.49799
169.7203, 16.31223
170.2024, 16.11278
170.6845, 16.04192
171.1666, 16.11111
171.6487, 16.24453
172.1308, 16.55459
172.6130, 16.85043
173.0951, 16.95977
173.5772, 16.81671
174.0593, 16.54392
174.5414, 16.34251
175.0235, 16.21056
175.5057, 16.16858
175.9878, 16.26758
176.4699, 16.41840
176.9520, 16.55315
177.4341, 16.64320
177.9162, 16.67883
178.3984, 16.62133
178.8805, 16.29700
179.3626, 16.10599
179.8447, 16.14314
180.3268, 16.32135
180.8089, 16.55271
181.2911, 16.79333
181.7732, 17.02661
182.2553, 17.15476
182.7374, 17.10615
183.2195, 17.03258
183.7016, 16.88865
184.1838, 16.74256
184.6659, 16.72484
185.1480, 16.93201
185.6301, 17.33398
186.1122, 17.61522
186.5943, 17.77238
187.0765, 17.84571
187.5586, 17.79719
188.0407, 17.66311
188.5228, 17.54911
189.0049, 17.51443
189.4870, 17.56807
189.9692, 17.69803
190.4513, 18.02106
190.9334, 18.32025
191.4155, 18.44431
191.8976, 18.39842
192.3797, 18.29290
192.8619, 18.15784
193.3440, 18.02331
193.8261, 17.96745
194.3082, 18.04093
194.7903, 18.16887
195.2724, 18.24008
195.7546, 18.23032
196.2367, 18.32089
196.7188, 18.84622
197.2009, 19.50831
197.6830, 19.87017
198.1651, 19.61034
198.6473, 19.10912
199.1294, 19.10722
199.6115, 19.87333
200.0936, 20.46096
200.5757, 20.24320
201.0578, 19.64974
201.5400, 19.20899
202.0221, 19.19327
202.5042, 19.47296
202.9863, 19.66699
203.4684, 19.70465
203.9505, 19.76834
204.4327, 19.95971
204.9148, 20.20024
205.3969, 20.39257
205.8790, 20.49243
206.3611, 20.49413
206.8432, 20.35680
207.3254, 19.83834
207.8075, 19.47263
208.2896, 19.42473
208.7717, 19.58964
209.2538, 19.82805
209.7359, 20.06345
210.2181, 20.28680
210.7002, 20.40328
211.1823, 20.27973
211.6644, 20.18133
212.1465, 20.21500
212.6286, 20.30556
213.1108, 20.30622
213.5929, 20.10776
214.0750, 19.73122
214.5571, 19.49389
215.0392, 19.50318
215.5213, 19.52056
216.0035, 19.46074
216.4856, 19.35736
216.9677, 19.30862
217.4498, 19.39671
217.9319, 19.59968
218.4140, 19.60957
218.8961, 19.24054
219.3783, 18.91330
219.8604, 18.80884
220.3425, 18.88524
220.8246, 19.00012
221.3067, 19.07189
221.7888, 19.10255
222.2710, 19.12201
222.7531, 19.13746
223.2352, 19.13693
223.7173, 19.09367
224.1994, 19.02013
224.6815, 18.97725
225.1637, 19.01164
225.6458, 19.10464
226.1279, 19.17085
226.6100, 19.20825
227.0921, 19.22199
227.5742, 19.20753
228.0564, 19.16713
228.5385, 19.12513
229.0206, 19.10442
229.5027, 19.08508
229.9848, 19.02251
230.4669, 18.87225
230.9491, 18.73394
231.4312, 18.71058
231.9133, 18.80283
232.3954, 18.89038
232.8775, 18.92068
233.3596, 18.91066
233.8418, 18.87794
234.3239, 18.81332
234.8060, 18.74990
235.2881, 18.74261
235.7702, 18.80287
236.2523, 18.80845
236.7345, 18.55888
237.2166, 18.31495
237.6987, 18.34643
238.1808, 18.74377
238.6629, 19.26320
239.1451, 19.65618
239.6272, 19.93777
240.1093, 20.01779
240.5914, 19.64355
241.0735, 19.17713
241.5556, 18.85044
242.0378, 18.71699
242.5199, 18.72437
243.0020, 18.85930
243.4841, 19.19808
243.9662, 19.37191
244.4483, 19.14358
244.9305, 18.84237
245.4126, 18.68454
245.8947, 18.71570
246.3768, 18.81640
246.8589, 18.81800
247.3410, 18.67582
247.8232, 18.57405
248.3053, 18.52507
248.7874, 18.52059
249.2695, 18.57215
249.7516, 18.67525
250.2337, 18.79729
250.7159, 18.90049
251.1980, 18.99170
251.6801, 19.04228
252.1622, 19.04885
252.6443, 19.02358
253.1264, 18.95980
253.6086, 18.86387
254.0907, 18.76114
254.5728, 18.68673
255.0549, 18.65890
255.5370, 18.60169
256.0191, 18.47254
256.5013, 18.35311
256.9834, 18.29636
257.4655, 18.30078
257.9476, 18.32334
258.4297, 18.31240
258.9118, 18.24436
259.3940, 18.24286
259.8761, 18.38624
260.3582, 18.51440
260.8403, 18.52329
261.3224, 18.42728
261.8045, 18.32022
262.2867, 18.29016
262.7688, 18.34698
263.2509, 18.42163
263.7330, 18.53687
264.2151, 18.64458
264.6972, 18.73725
265.1794, 18.80548
265.6615, 18.83142
266.1436, 18.79833
266.6257, 18.70409
267.1078, 18.58622
267.5899, 18.34014
268.0721, 18.17402
268.5542, 18.26501
269.0363, 18.52730
269.5184, 18.70774
270.0005, 18.61652
270.4826, 18.27608
270.9648, 18.03192
271.4469, 17.88787
271.9290, 17.81066
272.4111, 17.79873
272.8932, 17.84459
273.3753, 17.95981
273.8575, 18.18041
274.3396, 18.45004
274.8217, 18.46091
275.3038, 17.93063
275.7859, 17.51958
276.2680, 17.54688
276.7502, 17.83687
277.2323, 18.00957
277.7144, 17.86997
278.1965, 17.53769
278.6786, 17.37206
279.1607, 17.42882
279.6429, 17.50409
280.1250, 17.59505
280.6071, 17.66087
281.0892, 17.59390
281.5713, 17.32637
282.0534, 16.99669
282.5356, 16.92843
283.0177, 17.23559
283.4998, 17.37077
283.9819, 16.99685
284.4640, 16.42009
284.9461, 16.13279
285.4283, 16.28791
285.9104, 16.64781
286.3925, 16.92005
286.8746, 17.11494
287.3567, 17.20455
287.8388, 17.06742
288.3210, 16.86707
288.8031, 16.86197
289.2852, 17.11780
289.7673, 17.37501
290.2494, 17.27947
290.7315, 16.85703
291.2137, 16.63745
291.6958, 16.97071
292.1779, 17.39986
292.6600, 17.34099
293.1421, 16.72688
293.6242, 16.10893
294.1064, 15.98548
294.5885, 16.26616
295.0706, 16.42752
295.5527, 16.31895
296.0348, 16.14208
296.5169, 16.07588
296.9991, 16.12005
297.4812, 16.16171
297.9633, 16.09022
298.4454, 15.97815
298.9275, 16.03984
299.4096, 16.47073
299.8918, 16.86505
300.3739, 16.86393
300.8560, 16.52441
301.3381, 16.25242
301.8202, 16.24931
302.3023, 16.41511
302.7845, 16.53598
303.2666, 16.61996
303.7487, 16.64170
304.2308, 16.56396
304.7129, 16.40710
305.1950, 16.22322
305.6772, 15.98419
306.1593, 15.79401
306.6414, 15.83121
307.1235, 16.11763
307.6056, 16.37266
308.0877, 16.47683
308.5699, 16.46238
309.0520, 16.39111
309.5341, 16.25853
310.0162, 16.11357
310.4983, 16.01605
310.9804, 15.95793
311.4626, 15.89853
311.9447, 15.83309
312.4268, 15.75584
312.9089, 15.64247
313.3910, 15.47850
313.8731, 15.33800
314.3553, 15.30794
314.8374, 15.35579
315.3195, 15.37966
315.8016, 15.33667
316.2837, 15.27400
316.7658, 15.25204
317.2480, 15.27341
317.7301, 15.27448
318.2122, 15.18889
318.6943, 15.06312
319.1764, 15.00685
319.6585, 15.03798
320.1407, 15.12822
320.6228, 15.30940
321.1049, 15.55996
321.5870, 15.71002
322.0691, 15.63575
322.5512, 15.46152
323.0334, 15.42454
323.5155, 15.56660
323.9976, 15.70813
324.4797, 15.76237
324.9618, 15.74181
325.4439, 15.68213
325.9261, 15.58927
326.4082, 15.46611
326.8903, 15.27139
327.3724, 14.99939
327.8545, 14.84601
328.3366, 15.01510
328.8188, 15.31058
329.3009, 15.37265
329.7830, 15.10914
330.2651, 14.79383
330.7472, 14.72220
331.2293, 14.84501
331.7115, 14.89473
332.1936, 14.75978
332.6757, 14.56683
333.1578, 14.44153
333.6399, 14.39007
334.1220, 14.37616
334.6042, 14.39356
335.0863, 14.42877
335.5684, 14.43055
336.0505, 14.32757
336.5326, 14.26218
337.0147, 14.39215
337.4969, 14.66419
337.9790, 14.82279
338.4611, 14.71913
338.9432, 14.46694
339.4253, 14.32849
339.9074, 14.35070
340.3896, 14.35131
340.8717, 14.14212
341.3538, 13.87484
341.8359, 13.91170
342.3180, 14.41045
342.8001, 15.03477
343.2822, 15.26470
343.7643, 15.06379
344.2465, 14.96026
344.7286, 15.14920
345.2107, 15.43451
345.6928, 15.59575
346.1749, 15.60317
346.6570, 15.55618
347.1392, 15.52129
347.6213, 15.50513
348.1034, 15.57246
348.5855, 15.77794
349.0676, 16.02139
349.5497, 16.26172
350.0319, 16.48996
350.5140, 16.67324
350.9961, 16.77869
351.4782, 16.83225
351.9603, 16.95684
352.4424, 17.26151
352.9246, 17.49492
353.4067, 17.53574
353.8888, 17.46075
354.3709, 17.38650
354.8530, 17.34986
355.3351, 17.37841
355.8173, 17.54096
356.2994, 17.92491
356.7815, 18.24106
357.2636, 18.31997
357.7457, 18.40073
358.2278, 18.77182
358.7100, 19.46203
359.1921, 20.21024
359.6742, 20.72366
360.1563, 20.95453
360.6384, 21.21392
361.1205, 21.55396
361.6027, 21.87256
362.0848, 22.11560
362.5669, 22.28774
363.0490, 22.40300
363.5311, 22.45163
364.0132, 22.46076
364.4954, 22.66224
364.9775, 23.32382
365.4596, 23.84846
365.9417, 23.94619
366.4238, 23.88795
366.9059, 24.08612
367.3881, 24.70794
367.8702, 25.52588
368.3523, 26.07051
368.8344, 26.12766
369.3165, 26.24033
369.7986, 26.29139
370.2808, 26.47232
370.7629, 26.98590
371.2450, 27.82146
371.7271, 28.76040
372.2092, 29.55339
372.6913, 30.16501
373.1735, 30.89582
373.6556, 31.41748
374.1377, 32.37278
374.6198, 34.10056
375.1019, 36.44780
375.5840, 39.07007
376.0662, 41.76097
376.5483, 44.53074
377.0304, 47.45385
377.5125, 51.48761
377.9946, 54.18190
378.4767, 55.38941
378.9589, 55.07531
379.4410, 52.88929
379.9231, 48.77966
380.4052, 43.70880
380.8873, 38.92393
381.3694, 34.21807
381.8516, 30.55994
382.3337, 28.52572
382.8158, 27.13956
383.2979, 26.09848
383.7800, 25.30041
384.2621, 24.62836
384.7443, 23.97948
385.2264, 23.36460
385.7085, 22.89722
386.1906, 22.65480
386.6727, 22.45810
387.1548, 22.17952
387.6370, 21.90578
388.1191, 21.79279
388.6012, 21.94716
389.0833, 22.20956
389.5654, 22.27419
390.0475, 22.08906
390.5297, 21.94336
391.0118, 21.90414
391.4939, 21.96203
391.9760, 22.18075
392.4581, 22.57313
392.9402, 22.88300
393.4224, 22.73552
393.9045, 22.25053
394.3866, 22.20791
394.8687, 22.87766
395.3508, 23.74674
395.8329, 24.34293
396.3151, 24.77128
396.7972, 25.39439
397.2793, 26.38410
397.7614, 27.62902
398.2435, 29.08764
398.7256, 30.77786
399.2078, 32.31651
399.6899, 33.55537
400.1720, 34.42391
400.6541, 34.82589
401.1362, 34.52486
401.6183, 34.18844
402.1005, 34.21141
402.5826, 34.50708
403.0647, 34.78534
403.5468, 34.89566
404.0289, 35.13110
404.5110, 36.02035
404.9932, 37.60055
405.4753, 39.14516
405.9574, 40.44529
406.4395, 41.69566
406.9216, 43.09296
407.4037, 44.65097
407.8859, 46.20448
408.3680, 47.54014
408.8501, 48.73174
409.3322, 50.55661
409.8143, 53.00330
410.2964, 55.99426
410.7786, 59.48492
411.2607, 63.50632
411.7428, 68.02542
412.2249, 72.98497
412.7070, 78.73112
413.1891, 85.92840
413.6713, 94.67553
414.1534, 104.9711
414.6355, 117.8842
415.1176, 131.4865
415.5997, 146.5104
416.0818, 161.5758
416.5640, 172.2910
417.0461, 174.7822
417.5282, 169.0445
418.0103, 157.2628
418.4924, 132.6905
418.9745, 109.2512
419.4567, 88.64384
419.9388, 71.36749
420.4209, 57.84991
420.9030, 48.43407
421.3851, 42.18529
421.8672, 37.51828
422.3494, 34.84026
422.8315, 32.71318
423.3136, 31.08098
423.7957, 29.82702
424.2778, 28.94047
424.7599, 28.38679
425.2421, 28.08044
425.7242, 28.00304
426.2063, 28.13259
426.6884, 28.24817
427.1705, 28.28084
427.6526, 28.42184
428.1348, 28.92150
428.6169, 29.52298
429.0990, 29.87051
429.5811, 29.85009
430.0632, 29.51823
430.5453, 28.84711
431.0275, 27.82846
431.5096, 26.88265
431.9917, 26.16241
432.4738, 25.52966
432.9559, 24.79722
433.4380, 23.96737
433.9202, 23.22990
434.4023, 22.64516
434.8844, 22.22165
435.3665, 22.02309
435.8486, 22.07292
436.3307, 22.17504
436.8129, 22.21085
437.2950, 22.18132
437.7771, 22.11370
438.2592, 21.98334
438.7413, 21.84201
439.2234, 21.70047
439.7056, 21.56943
440.1877, 21.47016
440.6698, 21.40755
441.1519, 21.39193
441.6340, 21.43779
442.1161, 21.53873
442.5983, 21.73380
443.0804, 22.16335
443.5625, 22.58377
444.0446, 22.72640
444.5267, 22.64833
445.0089, 22.69011
445.4910, 23.12805
445.9731, 23.91344
446.4552, 24.57568
446.9373, 25.17920
447.4194, 25.58458
447.9016, 25.77584
448.3837, 25.75595
448.8658, 25.52271
449.3479, 25.07869
449.8300, 24.43363
450.3121, 23.54496
450.7943, 22.28434
451.2764, 21.26389
451.7585, 20.58617
452.2406, 20.06112
452.7227, 19.64448
453.2048, 19.32898
453.6870, 19.12717
454.1691, 19.07016
454.6512, 19.09794
455.1333, 19.04436
455.6154, 18.87206
456.0975, 18.73063
456.5797, 18.69820
457.0618, 18.69715
457.5439, 18.66845
458.0260, 18.60412
458.5081, 18.53641
458.9902, 18.51887
459.4724, 18.52193
459.9545, 18.40685
460.4366, 18.10171
460.9187, 17.83792
461.4008, 17.85368
461.8829, 18.04710
462.3651, 18.17238
462.8472, 18.11887
463.3293, 18.05847
463.8114, 18.19208
464.2935, 18.44339
464.7756, 18.50998
465.2578, 18.24802
465.7399, 17.83756
466.2220, 17.57442
466.7041, 17.47237
467.1862, 17.44069
467.6683, 17.54990
468.1505, 17.66825
468.6326, 17.66354
469.1147, 17.55099
469.5968, 17.45176
470.0789, 17.45198
470.5610, 17.53804
471.0432, 17.61827
471.5253, 17.68143
472.0074, 17.75320
472.4895, 17.88619
472.9716, 18.00245
473.4537, 17.98628
473.9359, 17.83019
474.4180, 17.67277
474.9001, 17.69322
475.3822, 17.91660
475.8643, 18.10784
476.3464, 18.25362
476.8286, 18.37760
477.3107, 18.47298
477.7928, 18.55506
478.2749, 18.64570
478.7570, 18.75401
479.2391, 18.87747
479.7213, 19.03933
480.2034, 19.25725
480.6855, 19.35645
481.1676, 19.18004
481.6497, 18.98525
482.1318, 19.00852
482.6140, 19.22484
483.0961, 19.41421
483.5782, 19.42157
484.0603, 19.35940
484.5424, 19.44922
485.0245, 19.70511
485.5067, 19.85336
485.9888, 19.67049
486.4709, 19.32029
486.9530, 19.24771
487.4351, 19.60421
487.9172, 19.88617
488.3994, 19.86976
488.8815, 19.70211
489.3636, 19.59522
489.8457, 19.58478
490.3278, 19.53890
490.8099, 19.31877
491.2921, 18.91635
491.7742, 18.57284
492.2563, 18.24023
492.7384, 18.01078
493.2205, 18.00145
493.7026, 18.08406
494.1848, 18.06335
494.6669, 17.87074
495.1490, 17.62586
495.6311, 17.52178
496.1132, 17.60265
496.5953, 17.68332
497.0775, 17.88696
497.5596, 17.97087
498.0417, 17.71889
498.5238, 17.27559
499.0059, 16.96144
499.4880, 16.97004
499.9702, 17.15144
500.4523, 17.21072
500.9344, 17.13209
501.4165, 17.02977
501.8986, 16.89655
502.3807, 16.78690
502.8629, 16.78021
503.3450, 16.87042
503.8271, 16.90500
504.3092, 16.65215
504.7913, 16.36699
505.2734, 16.56314
505.7556, 17.26269
506.2377, 17.80585
506.7198, 17.74073
507.2019, 17.28757
507.6840, 17.16083
508.1661, 17.59726
508.6482, 17.86649
509.1303, 17.58526
509.6125, 17.13669
510.0946, 16.97242
510.5767, 17.15498
511.0588, 17.46445
511.5409, 17.71697
512.0231, 17.91227
512.5052, 18.00167
512.9873, 17.84708
513.4694, 17.74996
513.9515, 17.80176
514.4337, 17.92493
514.9158, 18.04815
515.3979, 18.14458
515.8800, 18.19594
516.3621, 18.16813
516.8442, 18.05313
517.3264, 17.93516
517.8085, 17.73004
518.2906, 17.63949
518.7727, 17.80205
519.2548, 18.11431
519.7369, 18.43064
520.2191, 18.75018
520.7012, 18.93627
521.1833, 18.72590
521.6654, 18.18444
522.1475, 17.83225
522.6296, 17.82076
523.1118, 17.97005
523.5939, 18.14120
524.0760, 18.32599
524.5581, 18.43865
525.0402, 18.39052
525.5223, 18.33110
526.0045, 18.40378
526.4866, 18.55693
526.9687, 18.63218
527.4508, 18.55835
527.9329, 18.38944
528.4150, 18.21614
528.8972, 17.99310
529.3793, 17.88342
529.8614, 17.98454
530.3435, 18.10170
530.8256, 18.12135
531.3077, 18.06535
531.7899, 18.00659
532.2720, 17.98457
532.7541, 18.00120
533.2362, 18.07472
533.7183, 18.24365
534.2004, 18.36071
534.6826, 18.36984
535.1647, 18.34336
535.6468, 18.32908
536.1289, 18.32003
536.6110, 18.27004
537.0931, 18.13700
537.5753, 17.95331
538.0574, 17.75735
538.5395, 17.54494
539.0216, 17.39216
539.5037, 17.29104
539.9858, 17.30912
540.4680, 17.63947
540.9501, 18.38427
541.4322, 18.83389
541.9143, 18.48455
542.3964, 17.94971
542.8785, 17.88579
543.3607, 18.26828
543.8428, 18.66432
544.3249, 18.80074
544.8070, 18.73780
545.2891, 18.69674
545.7712, 18.66464
546.2534, 18.67648
546.7355, 18.80068
547.2176, 18.91739
547.6997, 18.92049
548.1818, 18.82157
548.6639, 18.71214
549.1461, 18.65989
549.6282, 18.65650
550.1103, 18.69113
550.5924, 18.82550
551.0745, 18.83751
551.5566, 18.48189
552.0388, 18.08653
552.5209, 17.90197
553.0030, 17.95021
553.4851, 18.11728
553.9672, 18.46625
554.4493, 18.84652
554.9315, 18.93197
555.4136, 18.70504
555.8957, 18.51899
556.3778, 18.57569
556.8599, 18.79474
557.3420, 18.96800
557.8242, 19.10596
558.3063, 19.18719
558.7884, 19.14518
559.2705, 19.08694
559.7526, 19.10024
560.2347, 19.19372
560.7169, 19.35714
561.1990, 19.59673
561.6811, 19.87407
562.1632, 20.00400
562.6453, 19.88202
563.1274, 19.78630
563.6096, 19.73655
564.0917, 19.72789
564.5738, 19.76015
565.0559, 19.83104
565.5380, 19.93481
566.0201, 20.08496
566.5023, 20.25678
566.9844, 20.35348
567.4665, 20.34676
567.9486, 20.45913
568.4307, 20.83140
568.9128, 21.32069
569.3950, 21.71351
569.8771, 21.99990
570.3592, 22.33743
570.8413, 22.77514
571.3234, 23.29382
571.8055, 23.76392
572.2877, 24.25654
572.7698, 25.16920
573.2519, 26.77476
573.7340, 28.75965
574.2161, 30.31286
574.6982, 31.33346
575.1804, 32.06013
575.6625, 32.65526
576.1446, 32.82994
576.6267, 32.34124
577.1088, 31.28111
577.5909, 29.85637
578.0731, 28.14488
578.5552, 26.29591
579.0373, 24.57885
579.5194, 22.95402
580.0015, 21.70452
580.4836, 21.05155
580.9658, 20.64584
581.4479, 20.20682
581.9300, 19.76080
582.4121, 19.43336
582.8942, 19.38217
583.3763, 19.37715
583.8585, 19.14158
584.3406, 18.74975
584.8227, 18.48638
585.3048, 18.45685
585.7869, 18.55081
586.2690, 18.62580
586.7512, 18.67758
587.2333, 18.72963
587.7154, 18.88443
588.1975, 18.93142
588.6796, 18.64926
589.1617, 18.23943
589.6438, 18.04316
590.1259, 18.18032
590.6080, 18.44373
591.0901, 18.52148
591.5723, 18.38243
592.0544, 18.37447
592.5365, 18.62963
593.0186, 18.82644
593.5007, 18.76854
593.9828, 18.57852
594.4650, 18.42452
594.9471, 18.33538
595.4292, 18.32858
595.9113, 18.50269
596.3934, 18.75787
596.8755, 18.81981
597.3577, 18.64017
597.8398, 18.47292
598.3219, 18.53638
598.8040, 18.78171
599.2861, 18.87066
599.7682, 18.71857
600.2504, 18.54926
600.7325, 18.34197
601.2146, 18.16849
601.6967, 18.08574
602.1788, 18.10417
602.6609, 18.22891
603.1431, 18.49111
603.6252, 18.83529
604.1073, 19.01031
604.5894, 18.98688
605.0715, 18.86936
605.5536, 18.54597
606.0358, 18.23836
606.5179, 18.12188
607.0000, 18.18838
607.4821, 18.29291
607.9642, 18.37922
608.4464, 18.45902
608.9285, 18.56702
609.4106, 18.69021
609.8927, 18.74273
610.3748, 18.68328
610.8569, 18.56686
611.3391, 18.46356
611.8212, 18.35919
612.3033, 18.34014
612.7854, 18.51146
613.2675, 18.65325
613.7496, 18.62810
614.2318, 18.51902
614.7139, 18.48151
615.1960, 18.56848
615.6781, 18.67562
616.1602, 18.63210
616.6423, 18.42623
617.1245, 18.35468
617.6066, 18.52005
618.0887, 18.64682
618.5708, 18.59430
619.0529, 18.42278
619.5350, 18.16309
620.0172, 17.76110
620.4993, 17.51609
620.9814, 17.74951
621.4635, 18.18367
621.9456, 18.37213
622.4277, 18.28159
622.9099, 18.12934
623.3920, 18.04497
623.8741, 18.02060
624.3562, 18.03143
624.8383, 18.16106
625.3204, 18.20090
625.8026, 17.95209
626.2847, 17.78728
626.7668, 18.09553
627.2489, 18.70124
627.7310, 19.07348
628.2131, 18.87882
628.6953, 18.42637
629.1774, 18.26803
629.6595, 18.41576
630.1416, 18.57960
630.6237, 18.76521
631.1058, 18.86018
631.5880, 18.69498
632.0701, 18.34859
632.5522, 18.06207
633.0343, 17.81833
633.5164, 17.70416
633.9985, 17.89083
634.4807, 18.18724
634.9628, 18.22254
635.4449, 17.95870
635.9270, 17.79162
636.4091, 18.13173
636.8912, 18.90294
637.3734, 19.25870
637.8555, 18.82997
638.3376, 18.57626
638.8197, 18.73997
639.3018, 19.04009
639.7839, 19.28550
640.2661, 19.45668
640.7482, 19.60855
641.2303, 19.75987
641.7124, 19.92030
642.1945, 20.14347
642.6766, 20.41489
643.1588, 20.57213
643.6409, 20.55834
644.1230, 20.42293
644.6051, 20.19255
645.0872, 19.84650
645.5693, 19.61290
646.0515, 19.61331
646.5336, 19.58851
647.0157, 19.40129
647.4978, 19.14334
647.9799, 18.93955
648.4620, 18.82076
648.9442, 18.73638
649.4263, 18.63364
649.9084, 18.51602
650.3905, 18.41297
650.8726, 18.30103
651.3547, 18.27095
651.8369, 18.52318
652.3190, 18.75534
652.8011, 18.57922
653.2832, 17.97642
653.7653, 17.50132
654.2474, 17.46637
654.7296, 17.56666
655.2117, 17.54914
655.6938, 17.41752
656.1759, 17.17715
656.6580, 16.82255
657.1401, 16.52917
657.6223, 16.58946
658.1044, 17.10164
658.5865, 17.37662
659.0686, 17.16681
659.5507, 16.99224
660.0328, 17.03532
660.5150, 17.15067
660.9971, 17.14909
661.4792, 16.99587
661.9613, 16.84670
662.4434, 16.86536
662.9255, 16.96866
663.4077, 16.95457
663.8898, 16.81745
664.3719, 16.66899
664.8540, 16.54365
665.3361, 16.45920
665.8182, 16.45427
666.3004, 16.55667
666.7825, 16.64320
667.2646, 16.66630
667.7467, 16.72052
668.2288, 16.94539
668.7109, 17.20324
669.1931, 17.23318
669.6752, 16.96252
670.1573, 16.63877
670.6394, 16.61790
671.1215, 16.86378
671.6036, 16.84419
672.0858, 16.44029
672.5679, 16.13941
673.0500, 16.22098
673.5321, 16.49872
674.0142, 16.70755
674.4963, 16.84826
674.9785, 16.90239
675.4606, 16.79412
675.9427, 16.65627
676.4248, 16.61269
676.9069, 16.62871
677.3890, 16.58971
677.8712, 16.45069
678.3533, 16.29655
678.8354, 16.25657
679.3175, 16.34379
679.7996, 16.42742
680.2817, 16.58795
680.7639, 16.61802
681.2460, 16.30950
681.7281, 15.92025
682.2102, 15.76141
682.6923, 15.87918
683.1744, 15.98084
683.6566, 15.86025
684.1387, 15.66760
684.6208, 15.61389
685.1029, 15.67131
685.5850, 15.66264
686.0671, 15.50745
686.5493, 15.30391
687.0314, 15.19534
687.5135, 15.18807
687.9956, 15.24439
688.4777, 15.52802
688.9598, 15.68278
689.4420, 15.57290
689.9241, 15.31235
690.4062, 14.98323
690.8883, 14.61746
691.3704, 14.32877
691.8525, 14.21375
692.3347, 14.22806
692.8168, 14.33674
693.2989, 14.52661
693.7810, 14.60713
694.2631, 14.48223
694.7452, 14.29268
695.2274, 14.24792
695.7095, 14.39159
696.1916, 14.40955
696.6737, 14.18561
697.1558, 13.98682
697.6379, 13.87469
698.1201, 13.84405
698.6022, 13.95848
699.0843, 14.18509
699.5664, 14.27931
700.0485, 13.94680
700.5306, 13.37772
701.0128, 13.10578
701.4949, 13.14148
701.9770, 13.13140
702.4591, 12.90268
702.9412, 12.71340
703.4233, 12.95624
703.9055, 13.66455
704.3876, 14.00788
704.8697, 13.60490
705.3518, 13.28215
705.8339, 13.46311
706.3160, 13.79717
706.7982, 13.84729
707.2803, 13.58208
707.7624, 13.29090
708.2445, 13.19045
708.7266, 13.24494
709.2087, 13.38568
709.6909, 13.62501
710.1730, 13.81603
710.6551, 13.92126
711.1372, 13.97537
711.6193, 13.97254
712.1014, 13.93410
712.5836, 13.98747
713.0657, 14.20891
713.5478, 14.43900
714.0299, 14.62935
714.5120, 14.79861
714.9941, 14.97247
715.4763, 15.14937
715.9584, 15.29809
716.4405, 15.39220
716.9226, 15.46700
717.4047, 15.63799
717.8868, 15.93078
718.3690, 16.04950
718.8511, 15.81877
719.3332, 15.64016
719.8153, 15.88573
720.2974, 16.39257
720.7795, 16.75629
721.2617, 16.87491
721.7438, 16.99942
722.2259, 17.22973
722.7080, 17.49095
723.1901, 17.71398
723.6722, 17.90127
724.1544, 18.07835
724.6365, 18.25584
725.1186, 18.47067
725.6007, 18.80511
726.0828, 19.26681
726.5649, 19.71614
727.0471, 20.15359
727.5292, 20.56449
728.0113, 20.92441
728.4934, 21.26366
728.9755, 21.62315
729.4576, 21.99415
729.9398, 22.43271
730.4219, 22.95308
730.9040, 23.55371
731.3861, 24.30092
731.8682, 25.11676
732.3503, 25.81851
732.8325, 26.34776
733.3146, 26.85431
733.7967, 27.50751
734.2788, 28.30443
734.7609, 29.24693
735.2430, 30.44867
735.7252, 31.42977
736.2073, 31.78881
736.6894, 32.04665
737.1715, 32.84861
737.6536, 34.17107
738.1357, 35.43659
738.6179, 36.47080
739.1000, 37.48093
739.5821, 38.54446
740.0642, 39.67162
740.5463, 40.88281
741.0284, 42.17949
741.5106, 43.56897
741.9927, 45.05337
742.4748, 46.63940
742.9569, 48.37013
743.4390, 50.29789
743.9211, 52.08266
744.4033, 53.64271
744.8854, 55.07030
745.3675, 56.32837
745.8496, 57.50932
746.3317, 58.93073
746.8138, 60.96847
747.2960, 62.66519
747.7781, 63.79601
748.2602, 64.40206
748.7423, 64.39334
749.2244, 63.88229
749.7065, 63.16368
750.1887, 62.38993
750.6708, 61.44971
751.1529, 60.16037
751.6350, 58.52630
752.1171, 56.52979
752.5992, 54.04557
753.0814, 51.63771
753.5635, 49.62599
754.0456, 47.85839
754.5277, 46.00258
755.0098, 43.99743
755.4919, 42.19401
755.9741, 40.70692
756.4562, 39.34720
756.9383, 37.99023
757.4204, 36.69791
757.9025, 35.62711
758.3846, 34.78466
758.8668, 33.96031
759.3489, 32.90668
759.8310, 31.74628
760.3131, 30.85932
760.7952, 30.25400
761.2773, 29.75812
761.7595, 29.36905
762.2416, 28.96678
762.7237, 28.41927
763.2058, 27.72886
763.6879, 27.04418
764.1700, 26.20298
764.6522, 25.58628
765.1343, 25.45610
765.6164, 25.41995
766.0985, 25.09584
766.5806, 24.57517
767.0627, 24.25959
767.5449, 24.40169
768.0270, 24.61163
768.5091, 24.28445
768.9912, 23.63002
769.4733, 23.44467
769.9554, 23.82457
770.4376, 24.19886
770.9197, 24.23566
771.4018, 24.05909
771.8839, 23.95316
772.3660, 23.98599
772.8481, 23.89184
773.3303, 23.46831
773.8124, 23.15562
774.2945, 23.17430
774.7766, 23.34760
775.2587, 23.47435
775.7408, 23.51722
776.2230, 23.51372
776.7051, 23.47599
777.1872, 23.41214
777.6693, 23.33377
778.1514, 23.23765
778.6335, 23.10481
779.1157, 22.93137
779.5978, 22.74783
780.0799, 22.56810
780.5620, 22.41256
781.0441, 22.43722
781.5262, 22.77022
782.0084, 22.97919
782.4905, 22.96836
782.9726, 22.84783
783.4547, 22.59784
783.9368, 22.30050
784.4189, 22.15612
784.9011, 22.22557
785.3832, 22.39712
785.8653, 22.70659
786.3474, 23.02942
786.8295, 23.27041
787.3116, 23.40395
787.7938, 23.36852
788.2759, 23.13962
788.7580, 22.85844
789.2401, 22.71462
789.7222, 22.70514
790.2043, 22.78996
790.6865, 23.01575
791.1686, 23.13409
791.6507, 22.98093
792.1328, 22.75906
792.6149, 22.73564
793.0970, 22.91141
793.5792, 23.07055
794.0613, 23.27061
794.5434, 23.36537
795.0255, 23.14550
795.5076, 22.91386
795.9897, 23.03546
796.4719, 23.45158
796.9540, 23.79270
797.4361, 23.83960
797.9182, 23.75378
798.4003, 23.71054
798.8824, 23.72021
799.3646, 23.87358
799.8467, 24.18648
800.3288, 24.39053
800.8109, 24.30673
801.2930, 24.07308
801.7751, 23.99431
802.2573, 24.14186
802.7394, 24.20470
803.2215, 24.07626
803.7036, 23.98674
804.1857, 24.00643
804.6678, 24.09212
805.1500, 24.20622
805.6321, 24.34125
806.1142, 24.47602
806.5963, 24.62766
807.0784, 24.74944
807.5605, 24.77887
808.0427, 24.75778
808.5248, 24.74797
809.0069, 24.76980
809.4890, 24.85246
809.9711, 25.02166
810.4532, 25.25472
810.9354, 25.57594
811.4175, 26.05675
811.8996, 25.99997
812.3817, 25.07704
812.8638, 24.17816
813.3459, 23.82128
813.8281, 23.81692
814.3102, 23.75303
814.7923, 23.59522
815.2744, 23.51897
815.7565, 23.73109
816.2386, 23.83090
816.7208, 23.47921
817.2029, 22.95563
817.6850, 22.64258
818.1671, 22.60242
818.6492, 22.63749
819.1313, 22.65931
819.6135, 22.60622
820.0956, 22.33685
820.5777, 21.89427
821.0598, 21.42595
821.5419, 20.95706
822.0240, 20.65886
822.5062, 20.68866
822.9883, 20.93345
823.4704, 21.02154
823.9525, 20.88194
824.4346, 20.76000
824.9167, 20.71804
825.3989, 20.62229
825.8810, 20.41243
826.3631, 20.12386
826.8452, 19.71862
827.3273, 19.17724
827.8094, 18.95006
828.2916, 19.66656
828.7737, 20.29563
829.2558, 19.85127
829.7379, 18.90754
830.2200, 18.43536
830.7021, 18.58107
831.1843, 18.84828
831.6664, 18.86744
832.1485, 18.74623
832.6306, 18.71216
833.1127, 18.76193
833.5948, 18.83953
834.0770, 18.95335
834.5591, 19.00313
835.0412, 18.89420
835.5233, 18.71511
836.0054, 18.69807
836.4875, 18.98375
836.9697, 19.02243
837.4518, 18.58602
837.9339, 18.19632
838.4160, 18.06573
838.8981, 18.04302
839.3802, 17.93697
839.8624, 17.74474
840.3445, 17.64124
840.8266, 17.76768
841.3087, 17.95104
841.7908, 18.11925
842.2729, 18.21615
842.7551, 18.06532
843.2372, 17.70829
843.7193, 17.48359
844.2014, 17.61589
844.6835, 17.87639
845.1656, 17.79269
845.6478, 17.36083
846.1299, 17.09757
846.6120, 17.03921
847.0941, 17.09357
847.5762, 17.27830
848.0583, 17.48339
848.5405, 17.54932
849.0226, 17.46262
849.5047, 17.35085
849.9868, 17.11589
850.4689, 16.98651
850.9510, 17.12318
851.4332, 17.29630
851.9153, 17.31967
852.3974, 17.20872
852.8795, 17.06293
853.3616, 16.90936
853.8438, 16.76788
854.3259, 16.65762
854.8080, 16.56791
855.2901, 16.46951
855.7722, 16.37555
856.2543, 16.35214
856.7365, 16.42390
857.2186, 16.50084
857.7007, 16.45889
858.1828, 16.32164
858.6649, 16.27690
859.1470, 16.34456
859.6292, 16.38414
860.1113, 16.37317
860.5934, 16.29793
861.0755, 16.11482
861.5576, 15.85581
862.0397, 15.68455
862.5219, 15.60070
863.0040, 15.60296
863.4861, 15.81578
863.9682, 15.98317
864.4503, 15.97247
864.9324, 15.83336
865.4146, 15.60198
865.8967, 15.29554
866.3788, 15.08945
866.8609, 15.22658
867.3430, 15.38263
867.8251, 15.14846
868.3073, 14.73067
868.7894, 14.57849
869.2715, 14.73668
869.7536, 14.88823
870.2357, 14.80193
870.7178, 14.61605
871.2000, 14.67577
871.6821, 14.96772
872.1642, 14.96563
872.6463, 14.56787
873.1284, 14.22764
873.6105, 14.18178
874.0927, 14.26490
874.5748, 14.21167
875.0569, 13.99169
875.5390, 13.90196
876.0211, 14.11841
876.5032, 14.23198
876.9854, 14.09257
877.4675, 13.90695
877.9496, 13.81255
878.4317, 13.80457
878.9138, 13.86443
879.3959, 14.06845
879.8781, 14.10190
880.3602, 13.53780
880.8423, 12.94449
881.3244, 12.97389
881.8065, 13.39987
882.2886, 13.65684
882.7708, 13.57419
883.2529, 13.38596
883.7350, 13.28765
884.2171, 13.25631
884.6992, 13.24937
885.1813, 13.26371
885.6635, 13.27883
886.1456, 13.29185
886.6277, 13.28516
887.1098, 13.24219
887.5919, 13.18076
888.0740, 13.15506
888.5562, 13.08720
889.0383, 12.98601
889.5204, 12.95872
890.0025, 12.79585
890.4846, 12.71175
890.9667, 12.70213
891.4489, 12.81760
891.9310, 13.03854
892.4131, 13.11324
892.8952, 12.88676
893.3773, 12.66644
893.8594, 12.56509
894.3416, 12.48907
894.8237, 12.35362
895.3058, 12.17888
895.7879, 12.01744
896.2700, 11.88540
896.7521, 11.81136
897.2343, 11.79641
897.7164, 11.86768
898.1985, 12.17111
898.6806, 12.58531
899.1627, 12.74298
899.6448, 12.56959
900.1270, 12.29211
900.6091, 12.08733
901.0912, 11.93891
901.5733, 11.79897
902.0554, 11.72813
902.5375, 11.61825
903.0197, 11.67784
903.5018, 11.74751
903.9839, 11.79128
904.4660, 11.79734
904.9481, 11.73278
905.4302, 11.58252
905.9124, 11.51147
906.3945, 11.67819
906.8766, 11.69202
907.3587, 11.30104
907.8408, 10.91639
908.3229, 10.87041
908.8051, 11.05311
909.2872, 11.13902
909.7693, 11.02583
910.2514, 10.94888
910.7335, 11.05484
911.2156, 11.16835
911.6978, 11.14095
912.1799, 11.04313
912.6620, 11.00679
913.1441, 11.04751
913.6262, 11.06254
914.1083, 10.95754
914.5905, 10.83594
915.0726, 10.87628
915.5547, 10.99597
916.0368, 10.95279
916.5189, 10.75442
917.0010, 10.64426
917.4832, 10.74686
917.9652, 10.93468
918.4473, 11.00804
918.9294, 10.98673
919.4116, 11.13040
919.8937, 11.48470
920.3758, 11.66628
920.8579, 11.56208
921.3400, 11.30261
921.8221, 10.93694
922.3043, 10.52337
922.7864, 10.27484
923.2685, 10.18815
923.7506, 10.27315
924.2327, 10.79074
924.7148, 11.17036
925.1970, 11.11763
925.6791, 10.90663
926.1612, 10.84018
926.6433, 10.92081
927.1254, 10.95979
927.6075, 10.87487
928.0897, 10.79032
928.5718, 10.76558
929.0539, 10.74874
929.5360, 10.64548
930.0181, 10.52501
930.5002, 10.58770
930.9824, 10.88997
931.4645, 11.11129
931.9466, 10.87291
932.4287, 10.51700
932.9108, 10.56816
933.3929, 10.82013
933.8751, 10.68409
934.3572, 10.14216
934.8393, 9.818320
935.3214, 10.13780
935.8035, 10.71008
936.2856, 10.83796
936.7678, 10.59113
937.2499, 10.47358
937.7320, 10.50693
938.2141, 10.55282
938.6962, 10.56507
939.1783, 10.56608
939.6605, 10.58260
940.1426, 10.60701
940.6247, 10.57931
941.1068, 10.44761
941.5889, 10.43320
942.0710, 10.64377
942.5532, 10.81859
943.0353, 10.79668
943.5174, 10.68143
943.9995, 10.62178
944.4816, 10.61460
944.9637, 10.68403
945.4459, 10.99123
945.9280, 11.15654
946.4101, 11.01851
946.8922, 10.77934
947.3743, 10.49811
947.8564, 10.25438
948.3386, 10.20976
948.8207, 10.42996
949.3028, 10.66400
949.7849, 10.87211
950.2670, 10.97628
950.7491, 10.79581
951.2313, 10.54329
951.7134, 10.56192
952.1955, 10.83859
952.6776, 11.07365
953.1597, 11.10105
953.6418, 11.04226
954.1240, 11.00898
954.6061, 10.99174
955.0882, 10.95258
955.5703, 10.91151
956.0524, 10.97928
956.5345, 11.17793
957.0167, 11.32706
957.4988, 11.24399
957.9809, 11.02363
958.4630, 10.89470
958.9451, 10.85450
959.4272, 10.88366
959.9094, 10.98613
960.3915, 11.04246
960.8736, 10.98897
961.3557, 10.88340
961.8378, 10.80174
962.3199, 10.74426
962.8021, 10.71957
963.2842, 10.70812
963.7663, 10.81040
964.2484, 11.14595
964.7305, 11.40612
965.2126, 11.35056
965.6948, 11.10858
966.1769, 10.96113
966.6590, 10.91748
967.1411, 10.93334
967.6232, 11.00757
968.1053, 11.14015
968.5875, 11.49484
969.0696, 11.76537
969.5517, 11.61027
970.0338, 11.17945
970.5159, 10.95135
970.9980, 11.10466
971.4802, 11.14916
971.9623, 10.73963
972.4444, 10.40824
972.9265, 10.54712
973.4086, 10.88619
973.8907, 11.09216
974.3729, 11.13814
974.8550, 11.17695
975.3371, 11.29552
975.8192, 11.36934
976.3013, 11.25574
976.7834, 11.09141
977.2656, 11.00302
977.7477, 10.99760
978.2298, 11.10278
978.7119, 11.29838
979.1940, 11.42623
979.6761, 11.35014
980.1583, 11.18368
980.6404, 11.06341
981.1225, 10.98898
981.6046, 10.97699
982.0867, 11.01576
982.5688, 11.05226
983.0510, 11.06430
983.5331, 11.04189
984.0152, 10.95011
984.4973, 10.83926
984.9794, 10.92650
985.4615, 11.18683
985.9437, 11.23813
986.4258, 11.01627
986.9079, 10.84892
987.3900, 10.92183
987.8721, 11.09166
988.3542, 11.13567
988.8364, 11.05919
989.3185, 10.99629
989.8006, 10.94833
990.2827, 10.89771
990.7648, 10.81300
991.2469, 10.80837
991.7291, 10.99885
992.2112, 11.27789
992.6933, 11.41636
993.1754, 11.39928
993.6575, 11.31913
994.1396, 11.13221
994.6218, 10.95970
995.1039, 10.80217
995.5860, 10.69573
996.0681, 10.68611
996.5502, 10.74707
997.0323, 10.81767
997.5145, 10.92862
997.9966, 10.95232
998.4787, 10.74302
998.9608, 10.62081
999.4429, 10.81725
999.9250, 11.03858
1000.407, 10.96871
1000.889, 10.69253
1001.371, 10.56007
1001.854, 10.70670
1002.336, 10.78968
1002.818, 10.58436
1003.300, 10.42048
1003.782, 10.59944
1004.264, 10.85279
1004.746, 10.81696
1005.228, 10.52014
1005.710, 10.27520
1006.193, 10.20282
1006.675, 10.19113
1007.157, 10.25428
1007.639, 10.27393
1008.121, 10.06818
1008.603, 9.774751
1009.085, 9.632700
1009.567, 9.670136
1010.049, 9.758660
1010.532, 9.834715
1011.014, 9.913146
1011.496, 10.02621
1011.978, 10.13836
1012.460, 10.22507
1012.942, 10.26170
1013.424, 10.12963
1013.906, 9.845429
1014.389, 9.715105
1014.871, 10.01527
1015.353, 10.44224
1015.835, 10.57945
1016.317, 10.50146
1016.799, 10.31158
1017.281, 10.06648
1017.763, 9.949670
1018.245, 10.01646
1018.728, 10.17515
1019.210, 10.36332
1019.692, 10.53858
1020.174, 10.54347
1020.656, 10.44374
1021.138, 10.66988
1021.620, 11.21023
1022.102, 11.44081
1022.585, 11.11829
1023.067, 10.65220
1023.549, 10.46038
1024.031, 10.46724
1024.513, 10.42430
1024.995, 10.33380
1025.477, 10.31056
1025.959, 10.37194
1026.442, 10.34661
1026.924, 10.12502
1027.406, 10.01771
1027.888, 10.44306
1028.370, 11.24667
1028.852, 11.57182
1029.334, 11.36043
1029.816, 11.05524
1030.298, 10.63108
1030.781, 10.41111
1031.263, 10.60273
1031.745, 10.90642
1032.227, 10.94872
1032.709, 10.76327
1033.191, 10.65262
1033.673, 10.66613
1034.155, 10.56704
1034.637, 10.24025
1035.120, 10.03777
1035.602, 10.18728
1036.084, 10.43828
1036.566, 10.44909
1037.048, 10.24283
1037.530, 10.20020
1038.012, 10.45756
1038.494, 10.56741
1038.977, 10.38905
1039.459, 10.24230
1039.941, 10.32536
1040.423, 10.46166
1040.905, 10.38432
1041.387, 10.10972
1041.869, 10.03505
1042.351, 10.34080
1042.833, 10.54471
1043.316, 10.61187
1043.798, 10.58998
1044.280, 10.42283
1044.762, 10.22644
1045.244, 10.14972
1045.726, 10.18616
1046.208, 10.20520
1046.690, 10.19963
1047.172, 10.17984
1047.655, 10.03044
1048.137, 10.00163
1048.619, 10.36214
1049.101, 10.80165
1049.583, 10.92462
1050.065, 10.74672
1050.547, 10.62470
1051.029, 10.67810
1051.512, 10.66569
1051.994, 10.46054
1052.476, 10.28744
1052.958, 10.27931
1053.440, 10.35022
1053.922, 10.38849
1054.404, 10.39846
1054.886, 10.47245
1055.369, 10.71374
1055.851, 10.85802
1056.333, 10.70649
1056.815, 10.60101
1057.297, 10.86112
1057.779, 11.17392
1058.261, 11.09716
1058.743, 10.68999
1059.225, 10.44037
1059.708, 10.52857
1060.190, 10.63826
1060.672, 10.71379
1061.154, 10.74106
1061.636, 10.66569
1062.118, 10.57015
1062.600, 10.58813
1063.082, 10.68128
1063.564, 10.62959
1064.047, 10.27409
1064.529, 10.07408
1065.011, 10.31628
1065.493, 10.62223
1065.975, 10.86038
1066.457, 10.98110
1066.939, 10.87204
1067.421, 10.60607
1067.904, 10.43720
1068.386, 10.46134
1068.868, 10.47296
1069.350, 10.31913
1069.832, 10.20986
1070.314, 10.33835
1070.796, 10.52166
1071.278, 10.52389
1071.760, 10.40467
1072.243, 10.41984
1072.725, 10.67019
1073.207, 10.82553
1073.689, 10.61837
1074.171, 10.42387
1074.653, 10.46478
1075.135, 10.61843
1075.617, 10.85576
1076.099, 11.07122
1076.582, 11.02186
1077.064, 10.63217
1077.546, 10.25978
1078.028, 10.01979
1078.510, 9.891298
1078.992, 9.908973
1079.474, 9.992652
1079.956, 10.06332
1080.439, 10.14112
1080.921, 10.33330
1081.403, 10.65490
1081.885, 10.80326
1082.367, 10.47862
1082.849, 10.16665
1083.331, 10.10372
1083.813, 10.16631
1084.295, 10.31385
1084.778, 10.47793
1085.260, 10.57663
1085.742, 10.59165
1086.224, 10.52409
1086.706, 10.25233
1087.188, 10.08914
1087.670, 10.36487
1088.152, 10.61370
1088.635, 10.34334
1089.117, 9.884807
1089.599, 9.791482
1090.081, 10.07227
1090.563, 10.25794
1091.045, 10.11933
1091.527, 10.01174
1092.009, 10.16944
1092.491, 10.31214
1092.974, 10.19503
1093.456, 9.996079
1093.938, 9.961981
1094.420, 10.07242
1094.902, 10.12893
1095.384, 10.07133
1095.866, 9.974676
1096.348, 9.773254
1096.830, 9.651206
1097.313, 9.790521
1097.795, 9.991282
1098.277, 10.03566
1098.759, 9.962226
1099.241, 9.929852
1099.723, 9.974047
1100.205, 10.04251
1100.687, 10.14244
1101.170, 10.23321
1101.652, 10.32534
1102.134, 10.37654
1102.616, 10.33344
1103.098, 10.23053
1103.580, 10.11605
1104.062, 9.993421
1104.544, 9.966644
1105.026, 10.14522
1105.509, 10.30304
1105.991, 10.40238
1106.473, 10.43553
1106.955, 10.34444
1107.437, 10.21310
1107.919, 10.15715
1108.401, 10.18441
1108.883, 10.25049
1109.365, 10.41518
1109.848, 10.51674
1110.330, 10.49380
1110.812, 10.45001
1111.294, 10.44487
1111.776, 10.43424
1112.258, 10.34337
1112.740, 10.19483
1113.222, 10.12101
1113.705, 10.15597
1114.187, 10.20775
1114.669, 10.33296
1115.151, 10.39385
1115.633, 10.28852
1116.115, 10.16102
1116.597, 10.13461
1117.079, 10.17338
1117.562, 10.18275
1118.044, 10.15915
1118.526, 10.12077
1119.008, 10.04641
1119.490, 9.994416
1119.972, 9.983175
1120.454, 9.983673
1120.936, 9.964048
1121.418, 9.959885
1121.901, 10.05840
1122.383, 10.00246
1122.865, 9.962396
1123.347, 10.00028
1123.829, 9.837889
1124.311, 9.902887
1124.793, 9.931170
1125.275, 9.751349
1125.757, 9.591218
1126.240, 9.770829
1126.722, 10.18402
1127.204, 10.19660
1127.686, 9.647322
1128.168, 9.537034
1128.650, 10.04364
1129.132, 10.36441
1129.614, 10.20669
1130.097, 9.975724
1130.579, 10.00474
1131.061, 10.18851
1131.543, 10.29230
1132.025, 10.31689
1132.507, 10.16903
1132.989, 9.825544
1133.471, 9.694718
1133.953, 9.874671
1134.436, 10.03789
1134.918, 9.994952
1135.400, 9.854904
1135.882, 9.761853
1136.364, 9.710925
1136.846, 9.659845
1137.328, 9.621119
1137.810, 9.728893
1138.292, 9.986567
1138.775, 10.27960
1139.257, 10.56074
1139.739, 10.69658
1140.221, 10.54025
1140.703, 10.23732
1141.185, 10.06462
1141.667, 9.984090
1142.149, 9.863475
1142.632, 9.726827
1143.114, 9.719611
1143.596, 9.853965
1144.078, 9.962216
1144.560, 9.939825
1145.042, 9.920789
1145.524, 10.15624
1146.006, 10.42582
1146.489, 10.34970
1146.971, 10.05863
1147.453, 9.754538
1147.935, 9.508970
1148.417, 9.413220
1148.899, 9.495046
1149.381, 9.662717
1149.863, 9.932398
1150.345, 10.14169
1150.828, 10.06665
1151.310, 9.913920
1151.792, 9.937181
1152.274, 10.05811
1152.756, 10.09928
1153.238, 10.03936
1153.720, 9.971852
1154.202, 9.930684
1154.684, 9.901700
1155.167, 9.853806
1155.649, 9.842905
1156.131, 9.937236
1156.613, 10.06204
1157.095, 10.14037
1157.577, 10.17771
1158.059, 10.21404
1158.541, 10.25998
1159.024, 10.27582
1159.506, 10.19804
1159.988, 10.16580
1160.470, 10.23580
1160.952, 10.34358
1161.434, 10.52615
1161.916, 10.67784
1162.398, 10.59295
1162.880, 10.28836
1163.363, 10.16687
1163.845, 10.45465
1164.327, 10.50002
1164.809, 10.07178
1165.291, 9.798618
1165.773, 9.954630
1166.255, 10.21964
1166.737, 10.36223
1167.219, 10.39084
1167.702, 10.30504
1168.184, 10.08138
1168.666, 10.00349
1169.148, 10.10228
1169.630, 10.21816
1170.112, 10.35166
1170.594, 10.34212
1171.076, 10.06890
1171.559, 9.789191
1172.041, 9.844675
1172.523, 10.13378
1173.005, 10.28692
1173.487, 10.30986
1173.969, 10.25890
1174.451, 10.14531
1174.933, 10.05639
1175.416, 10.01790
1175.898, 10.03131
1176.380, 10.09827
1176.862, 10.21097
1177.344, 10.28771
1177.826, 10.66266
1178.308, 10.48642
1178.790, 10.61469
1179.272, 10.65793
1179.755, 10.48443
1180.237, 10.66091
1180.719, 10.47681
1181.201, 10.24917
1181.683, 10.19600
1182.165, 10.22946
1182.647, 10.30355
1183.129, 10.38286
1183.611, 10.41974
1184.094, 10.43668
1184.576, 10.50251
1185.058, 10.59421
1185.540, 10.57343
1186.022, 10.36555
1186.504, 10.18809
1186.986, 10.09804
1187.468, 10.11117
1187.951, 10.34387
1188.433, 10.57801
1188.915, 10.62635
1189.397, 10.55414
1189.879, 10.45951
1190.361, 10.35436
1190.843, 10.38593
1191.325, 10.72526
1191.807, 10.94356
1192.290, 10.96446
1192.772, 10.95144
1193.254, 10.99430
1193.736, 10.96386
1194.218, 10.66289
1194.700, 10.80672
1195.182, 10.30495
1195.664, 10.81828
1196.146, 11.03038
1196.629, 10.89821
1197.111, 10.66244
1197.593, 10.32861
1198.075, 10.10176
1198.557, 10.08372
1199.039, 10.17968
1199.521, 10.29459
1200.003, 10.42107
1200.486, 10.53507
1200.968, 10.64185
1201.450, 10.78550
1201.932, 10.94894
1202.414, 11.05087
1202.896, 11.06340
1203.378, 10.88892
1203.860, 10.46675
1204.343, 10.14940
1204.825, 10.44487
1205.307, 10.92933
1205.789, 11.05194
1206.271, 10.98021
1206.753, 10.90005
1207.235, 10.86144
1207.717, 10.95260
1208.199, 11.15349
1208.682, 11.22721
1209.164, 10.98899
1209.646, 10.86243
1210.128, 11.28044
1210.610, 11.60325
1211.092, 11.30120
1211.574, 10.86472
1212.056, 10.75655
1212.538, 10.88630
1213.021, 11.02725
1213.503, 11.16589
1213.985, 11.17080
1214.467, 10.86339
1214.949, 10.70925
1215.431, 10.84816
1215.913, 10.93933
1216.395, 10.79793
1216.878, 10.67496
1217.360, 10.83426
1217.842, 11.13552
1218.324, 11.19806
1218.806, 11.01463
1219.288, 10.92205
1219.770, 10.92515
1220.252, 10.94997
1220.734, 10.98579
1221.217, 11.00327
1221.699, 10.98842
1222.181, 11.01101
1222.663, 11.15367
1223.145, 11.33249
1223.627, 11.40499
1224.109, 11.38643
1224.591, 11.25140
1225.073, 11.07220
1225.556, 11.08018
1226.038, 11.24380
1226.520, 11.25841
1227.002, 11.00679
1227.484, 10.81335
1227.966, 10.97794
1228.448, 11.18994
1228.930, 11.24918
1229.413, 11.24026
1229.895, 11.21008
1230.377, 11.17795
1230.859, 11.13766
1231.341, 11.11038
1231.823, 11.19620
1232.305, 11.48383
1232.787, 11.61511
1233.270, 11.42049
1233.752, 11.24767
1234.234, 11.09749
1234.716, 11.08075
1235.198, 11.33845
1235.680, 11.65116
1236.162, 11.74333
1236.644, 11.65111
1237.126, 11.53136
1237.609, 11.37348
1238.091, 11.31360
1238.573, 11.36149
1239.055, 11.37421
1239.537, 11.32047
1240.019, 11.27303
1240.501, 11.27295
1240.983, 11.25593
1241.465, 11.11656
1241.948, 10.96179
1242.430, 11.01271
1242.912, 11.19366
1243.394, 11.39602
1243.876, 11.57654
1244.358, 11.65643
1244.840, 11.63690
1245.322, 11.57467
1245.805, 11.48625
1246.287, 11.44336
1246.769, 11.54484
1247.251, 11.62920
1247.733, 11.55277
1248.215, 11.47818
1248.697, 11.54232
1249.179, 11.68270
1249.661, 11.85827
1250.144, 12.03102
1250.626, 11.99178
1251.108, 11.58850
1251.590, 11.43353
1252.072, 11.68482
1252.554, 11.81438
1253.036, 11.66992
1253.518, 11.55102
1254.000, 11.63139
1254.483, 11.74590
1254.965, 11.68418
1255.447, 11.52289
1255.929, 11.54225
1256.411, 11.40392
1256.893, 11.58990
1257.375, 11.28090
1257.857, 11.15545
1258.340, 11.26432
1258.822, 11.46024
1259.304, 11.66820
1259.786, 11.72908
1260.268, 11.41821
1260.750, 11.06295
1261.232, 10.96922
1261.714, 11.02121
1262.197, 11.18782
1262.679, 11.35899
1263.161, 11.34240
1263.643, 11.20675
1264.125, 11.23981
1264.607, 11.52509
1265.089, 11.72943
1265.571, 11.73505
1266.053, 11.74317
1266.536, 11.76306
1267.018, 11.82365
1267.500, 11.96282
1267.982, 12.11239
1268.464, 12.23909
1268.946, 12.29041
1269.428, 12.08710
1269.910, 12.13863
1270.392, 12.04494
1270.875, 11.89931
1271.357, 11.90085
1271.839, 11.56492
1272.321, 11.46336
1272.803, 11.77015
1273.285, 12.06064
1273.767, 12.00852
1274.249, 11.92493
1274.732, 12.29262
1275.214, 12.71486
1275.696, 12.64401
1276.178, 12.37351
1276.660, 12.29500
1277.142, 12.36130
1277.624, 12.38336
1278.106, 12.33422
1278.589, 12.31294
1279.071, 12.39516
1279.553, 12.38607
1280.035, 12.11638
1280.517, 11.94497
1280.999, 11.97132
1281.481, 12.11775
1281.963, 12.42342
1282.445, 12.69685
1282.927, 12.64447
1283.410, 12.36340
1283.892, 12.32277
1284.374, 12.51883
1284.856, 12.57002
1285.338, 12.47339
1285.820, 12.31493
1286.302, 12.12345
1286.784, 11.96374
1287.267, 11.86800
1287.749, 11.88758
1288.231, 12.05915
1288.713, 12.38257
##END=



