##NAMES=Corundum
##RRUFFID=R060020
##IDEAL CHEMISTRY=Al_2_O_3_
##LOCALITY=Yogo Gulch, Montana, USA
##OWNER=RRUFF
##SOURCE=American Museum of Natural History
##DESCRIPTION=Water rounded light blue fragment
##STATUS=The identification of this mineral has been confirmed by X-ray diffraction and chemical analysis
##URL=rruff.info/R060020
##MEASURED CHEMISTRY=(Al_1.99_Fe^3+^_0.01_)_Î£=2_O_3_ ; Fe^3+^ by charge balance
93.40625, 33.34898
93.88837, 32.11943
94.37048, 33.03704
94.85260, 35.64453
95.33472, 38.65304
95.81683, 41.85996
96.29895, 45.25074
96.78107, 48.81286
97.26318, 52.56272
97.74530, 56.49305
98.22742, 60.60551
98.70953, 64.91370
99.19165, 69.21985
99.67377, 73.42559
100.1559, 77.52735
100.6380, 81.76061
101.1201, 86.18299
101.6022, 90.55021
102.0844, 94.33938
102.5665, 97.37988
103.0486, 100.5180
103.5307, 103.9798
104.0128, 107.8026
104.4949, 111.9919
104.9771, 116.6529
105.4592, 121.6693
105.9413, 126.9245
106.4234, 132.4000
106.9055, 138.0790
107.3876, 143.8886
107.8698, 149.9396
108.3519, 156.0764
108.8340, 162.4493
109.3161, 169.0180
109.7982, 175.2055
110.2803, 180.1370
110.7624, 185.3303
111.2446, 191.5724
111.7267, 200.6539
112.2088, 208.9529
112.6909, 216.0172
113.1730, 221.9360
113.6551, 227.3429
114.1373, 232.2786
114.6194, 236.7475
115.1015, 240.8087
115.5836, 244.3113
116.0657, 247.5193
116.5478, 250.4489
117.0300, 253.1410
117.5121, 255.6283
117.9942, 257.5830
118.4763, 259.4198
118.9584, 261.6630
119.4405, 264.5115
119.9227, 267.8660
120.4048, 271.7216
120.8869, 276.1759
121.3690, 280.7827
121.8511, 285.2077
122.3332, 289.5830
122.8154, 294.1859
123.2975, 299.6776
123.7796, 305.2245
124.2617, 309.8549
124.7438, 312.8709
125.2259, 315.9350
125.7081, 320.9266
126.1902, 327.3095
126.6723, 331.9782
127.1544, 333.9771
127.6365, 335.2835
128.1186, 337.4071
128.6008, 341.1513
129.0829, 345.2023
129.5650, 347.5281
130.0471, 348.2155
130.5292, 348.3361
131.0113, 348.8135
131.4935, 349.4928
131.9756, 349.6416
132.4577, 348.6523
132.9398, 347.1431
133.4219, 347.1951
133.9040, 348.9754
134.3862, 350.9016
134.8683, 351.0157
135.3504, 349.3620
135.8325, 348.0397
136.3146, 347.8226
136.7967, 348.5893
137.2789, 349.1031
137.7610, 349.2632
138.2431, 349.4126
138.7252, 350.1740
139.2073, 351.7418
139.6894, 352.9887
140.1716, 353.4958
140.6537, 353.1980
141.1358, 352.5948
141.6179, 351.4265
142.1000, 350.1921
142.5821, 349.8605
143.0643, 350.6089
143.5464, 351.8528
144.0285, 353.5336
144.5106, 356.1508
144.9927, 357.8359
145.4748, 358.1755
145.9570, 357.6548
146.4391, 357.6708
146.9212, 358.6158
147.4033, 359.6170
147.8854, 360.2552
148.3675, 360.0656
148.8497, 360.2389
149.3318, 361.0561
149.8139, 362.3336
150.2960, 363.1652
150.7781, 363.3106
151.2602, 363.1766
151.7424, 362.9793
152.2245, 362.3112
152.7066, 362.0308
153.1887, 362.4164
153.6708, 363.3919
154.1529, 364.0770
154.6351, 364.0245
155.1172, 363.8929
155.5993, 364.1221
156.0814, 365.3996
156.5635, 366.3917
157.0456, 366.6468
157.5278, 366.1616
158.0099, 365.9600
158.4920, 366.5119
158.9741, 367.3181
159.4562, 367.9369
159.9383, 368.0926
160.4205, 368.2116
160.9026, 368.4908
161.3847, 368.9592
161.8668, 369.2901
162.3489, 369.3212
162.8310, 369.1742
163.3132, 368.9888
163.7953, 368.5092
164.2774, 368.2332
164.7595, 368.4444
165.2416, 369.1991
165.7237, 370.1615
166.2059, 371.5977
166.6880, 373.0734
167.1701, 373.9302
167.6522, 372.8624
168.1343, 371.7183
168.6164, 372.0211
169.0986, 374.2215
169.5807, 376.5297
170.0628, 377.9227
170.5449, 378.5771
171.0270, 378.8157
171.5091, 378.5985
171.9913, 378.1495
172.4734, 377.5624
172.9555, 376.7111
173.4376, 376.2008
173.9197, 376.6958
174.4018, 377.9688
174.8840, 379.4054
175.3661, 381.0424
175.8482, 382.4973
176.3303, 383.1214
176.8124, 382.5559
177.2945, 381.7729
177.7767, 381.8140
178.2588, 382.5486
178.7409, 383.4426
179.2230, 384.3656
179.7051, 385.1941
180.1872, 385.5365
180.6694, 385.0063
181.1515, 384.5626
181.6336, 386.2661
182.1157, 389.7392
182.5978, 392.2807
183.0799, 390.8444
183.5621, 386.9481
184.0442, 384.9018
184.5263, 386.0591
185.0084, 388.6928
185.4905, 389.8794
185.9726, 389.6608
186.4547, 389.2685
186.9369, 389.8160
187.4190, 391.0517
187.9011, 391.8611
188.3832, 391.8999
188.8653, 391.5077
189.3474, 391.2574
189.8296, 391.1368
190.3117, 391.4933
190.7938, 393.0883
191.2759, 395.6956
191.7580, 397.4462
192.2401, 397.6785
192.7223, 396.9339
193.2044, 396.8847
193.6865, 397.6148
194.1686, 398.3642
194.6507, 398.1578
195.1328, 397.0597
195.6150, 396.6311
196.0971, 397.3763
196.5792, 399.0257
197.0613, 400.7031
197.5434, 402.4764
198.0255, 403.9161
198.5077, 404.3203
198.9898, 403.6357
199.4719, 403.3189
199.9540, 403.8140
200.4361, 404.9606
200.9182, 405.9058
201.4004, 406.6085
201.8825, 407.2274
202.3646, 407.9580
202.8467, 408.8265
203.3288, 409.5619
203.8109, 410.0746
204.2931, 410.3915
204.7752, 410.7321
205.2573, 411.1182
205.7394, 411.4806
206.2215, 411.6700
206.7036, 411.6016
207.1858, 411.8252
207.6679, 412.6392
208.1500, 413.9716
208.6321, 414.5706
209.1142, 414.1016
209.5963, 413.5251
210.0785, 414.0062
210.5606, 415.8734
211.0427, 417.5778
211.5248, 418.8543
212.0069, 419.7012
212.4890, 419.8046
212.9712, 418.8376
213.4533, 417.6351
213.9354, 417.1374
214.4175, 417.4981
214.8996, 418.1045
215.3817, 418.9147
215.8639, 419.9227
216.3460, 420.6625
216.8281, 421.0880
217.3102, 421.3019
217.7923, 421.2945
218.2744, 420.7621
218.7566, 420.8060
219.2387, 421.8448
219.7208, 423.9135
220.2029, 425.6450
220.6850, 427.0455
221.1671, 428.0796
221.6493, 428.6871
222.1314, 428.8570
222.6135, 428.6031
223.0956, 427.6974
223.5777, 426.0680
224.0598, 425.3711
224.5420, 425.9149
225.0241, 427.0425
225.5062, 428.1394
225.9883, 429.3331
226.4704, 430.1991
226.9525, 430.5615
227.4347, 430.4026
227.9168, 430.2357
228.3989, 429.8513
228.8810, 429.6798
229.3631, 430.2523
229.8452, 432.0493
230.3274, 433.6620
230.8095, 434.8353
231.2916, 435.5660
231.7737, 435.9417
232.2558, 435.7190
232.7379, 435.3952
233.2201, 435.5312
233.7022, 436.5164
234.1843, 437.1877
234.6664, 437.1967
235.1485, 436.5316
235.6306, 436.1025
236.1128, 435.7248
236.5949, 435.7648
237.0770, 436.6947
237.5591, 439.2212
238.0412, 441.2525
238.5233, 442.3193
239.0055, 442.4247
239.4876, 442.4512
239.9697, 442.2834
240.4518, 442.1652
240.9339, 442.3230
241.4160, 442.8692
241.8982, 443.4764
242.3803, 444.1198
242.8624, 444.7990
243.3445, 445.3832
243.8266, 445.7750
244.3087, 446.1844
244.7909, 446.8022
245.2730, 447.7599
245.7551, 448.6534
246.2372, 449.4295
246.7193, 450.0862
247.2014, 450.6781
247.6836, 451.3377
248.1657, 451.7531
248.6478, 451.5441
249.1299, 450.0502
249.6120, 449.4135
250.0941, 450.3116
250.5762, 452.4612
251.0584, 453.4440
251.5405, 452.4751
252.0226, 451.3888
252.5047, 451.6235
252.9868, 454.1125
253.4689, 455.6961
253.9511, 455.6459
254.4332, 454.3623
254.9153, 454.2186
255.3974, 455.9033
255.8795, 457.6802
256.3617, 458.3745
256.8438, 457.4847
257.3259, 456.8498
257.8080, 456.6219
258.2901, 456.7511
258.7722, 457.0158
259.2544, 457.3225
259.7365, 457.9179
260.2186, 459.0219
260.7007, 460.8405
261.1828, 462.5193
261.6649, 464.1149
262.1471, 465.4903
262.6292, 466.2591
263.1113, 466.2768
263.5934, 465.9425
264.0755, 465.2650
264.5576, 463.8790
265.0398, 463.5280
265.5219, 464.6592
266.0040, 466.5812
266.4861, 467.7029
266.9682, 467.8026
267.4503, 467.6487
267.9325, 467.4757
268.4146, 467.1709
268.8967, 467.4820
269.3788, 468.6802
269.8609, 470.2335
270.3430, 471.0065
270.8252, 470.7217
271.3073, 470.5878
271.7894, 471.2454
272.2715, 472.8167
272.7536, 473.7589
273.2357, 473.8584
273.7179, 473.6132
274.2000, 473.7095
274.6821, 474.1325
275.1642, 474.9635
275.6463, 476.4911
276.1284, 478.7152
276.6106, 479.9385
277.0927, 479.9323
277.5748, 479.4190
278.0569, 479.3084
278.5390, 479.6545
279.0211, 479.9870
279.5032, 480.1765
279.9854, 480.2343
280.4675, 480.2540
280.9496, 480.2564
281.4317, 480.1698
281.9138, 479.7108
282.3959, 478.8461
282.8781, 478.6228
283.3602, 479.5380
283.8423, 481.2773
284.3244, 482.4090
284.8065, 482.8633
285.2886, 483.1888
285.7708, 483.8768
286.2529, 484.9081
286.7350, 485.9957
287.2171, 487.1624
287.6992, 488.2855
288.1813, 488.9875
288.6635, 489.2588
289.1456, 489.3087
289.6277, 489.0963
290.1098, 488.7081
290.5919, 488.7284
291.0740, 489.2391
291.5562, 490.2089
292.0383, 492.1090
292.5204, 494.8705
293.0025, 496.6937
293.4846, 495.6234
293.9667, 492.5517
294.4489, 490.5750
294.9310, 490.1487
295.4131, 490.7411
295.8952, 492.0885
296.3773, 494.0259
296.8594, 495.5000
297.3416, 495.5729
297.8237, 494.8059
298.3058, 494.4675
298.7879, 494.6761
299.2700, 495.1678
299.7521, 495.8006
300.2343, 496.4968
300.7164, 496.9760
301.1985, 496.8858
301.6806, 496.5666
302.1627, 496.4017
302.6448, 496.3711
303.1270, 496.8747
303.6091, 498.8030
304.0912, 501.5155
304.5733, 503.7751
305.0554, 505.0132
305.5375, 505.5527
306.0197, 505.4566
306.5018, 504.7674
306.9839, 504.2341
307.4660, 504.5040
307.9481, 505.2618
308.4302, 506.0723
308.9124, 506.9365
309.3945, 507.6806
309.8766, 507.9948
310.3587, 507.9876
310.8408, 508.2082
311.3229, 509.3482
311.8051, 510.7313
312.2872, 511.6224
312.7693, 511.6686
313.2514, 511.5195
313.7335, 511.5573
314.2156, 511.7052
314.6978, 511.7389
315.1799, 511.4911
315.6620, 511.1264
316.1441, 510.6490
316.6262, 509.8025
317.1083, 509.5251
317.5905, 510.7418
318.0726, 512.7292
318.5547, 514.2478
319.0368, 514.7540
319.5189, 514.7546
320.0010, 514.2183
320.4832, 512.8990
320.9653, 512.3460
321.4474, 513.7704
321.9295, 515.9387
322.4116, 517.4084
322.8937, 517.4254
323.3759, 517.1395
323.8580, 516.7513
324.3401, 516.2668
324.8222, 516.0320
325.3043, 516.4861
325.7864, 517.0055
326.2686, 517.1089
326.7507, 515.8495
327.2328, 515.1686
327.7149, 515.5519
328.1970, 516.8944
328.6791, 518.0725
329.1613, 519.0177
329.6434, 519.8199
330.1255, 520.5197
330.6076, 521.1038
331.0897, 521.5994
331.5718, 522.0248
332.0540, 522.3585
332.5361, 522.5442
333.0182, 522.5470
333.5003, 522.4481
333.9824, 522.1954
334.4645, 521.5372
334.9467, 521.5471
335.4288, 522.5422
335.9109, 523.9854
336.3930, 525.0066
336.8751, 525.5681
337.3572, 525.7977
337.8394, 525.5308
338.3215, 524.7125
338.8036, 524.8229
339.2857, 526.1937
339.7678, 527.9186
340.2499, 528.8318
340.7321, 528.6520
341.2142, 529.3531
341.6963, 531.8489
342.1784, 535.5140
342.6605, 537.1778
343.1426, 536.5467
343.6248, 535.2127
344.1069, 534.1507
344.5890, 533.3835
345.0711, 533.3737
345.5532, 534.3507
346.0353, 535.8903
346.5175, 537.0317
346.9996, 537.7925
347.4817, 538.7438
347.9638, 540.6163
348.4459, 543.0244
348.9280, 544.4694
349.4102, 544.7308
349.8923, 544.4921
350.3744, 544.3161
350.8565, 544.2911
351.3386, 544.7675
351.8207, 546.4193
352.3029, 548.5079
352.7850, 549.7662
353.2671, 550.1829
353.7492, 550.3901
354.2313, 550.8693
354.7134, 551.5290
355.1956, 552.2233
355.6777, 552.9718
356.1598, 553.6683
356.6419, 554.0043
357.1240, 554.1071
357.6061, 554.6445
358.0883, 556.4149
358.5704, 558.6412
359.0525, 560.4719
359.5346, 561.4258
360.0167, 562.5704
360.4988, 564.7035
360.9810, 567.4737
361.4631, 570.0971
361.9452, 572.0901
362.4273, 573.9484
362.9094, 575.5900
363.3915, 576.6349
363.8737, 579.2250
364.3558, 586.6088
364.8379, 595.0386
365.3200, 600.0927
365.8021, 597.7676
366.2842, 594.9100
366.7664, 592.7726
367.2485, 591.3996
367.7306, 592.2401
368.2127, 598.1494
368.6948, 604.6705
369.1769, 608.8923
369.6591, 607.2698
370.1412, 607.6380
370.6233, 611.2832
371.1054, 617.3370
371.5875, 622.4337
372.0696, 625.1296
372.5518, 628.5516
373.0339, 634.0251
373.5160, 641.9735
373.9981, 650.8793
374.4802, 660.9725
374.9623, 671.9429
375.4445, 683.3174
375.9266, 695.5575
376.4087, 707.3088
376.8908, 718.7228
377.3729, 729.7564
377.8550, 738.0569
378.3372, 744.6376
378.8193, 745.5934
379.3014, 735.3701
379.7835, 713.4051
380.2656, 690.1437
380.7477, 666.0106
381.2299, 643.2606
381.7120, 627.9506
382.1941, 620.2953
382.6762, 615.5554
383.1583, 611.1707
383.6404, 607.2245
384.1226, 604.3203
384.6047, 602.6277
385.0868, 601.5622
385.5689, 600.3422
386.0510, 599.0961
386.5331, 598.2811
387.0153, 598.6227
387.4974, 599.3123
387.9795, 598.9154
388.4616, 597.4277
388.9437, 596.2349
389.4258, 596.6279
389.9080, 597.9477
390.3901, 599.2715
390.8722, 600.4479
391.3543, 601.3900
391.8364, 602.0442
392.3185, 602.4036
392.8007, 602.4611
393.2828, 601.4620
393.7649, 600.6354
394.2470, 600.9687
394.7291, 603.0114
395.2112, 605.0818
395.6934, 606.2162
396.1755, 607.0744
396.6576, 608.6481
397.1397, 610.8469
397.6218, 614.0941
398.1039, 618.9008
398.5861, 625.4371
399.0682, 631.5714
399.5503, 637.4979
400.0324, 642.7238
400.5145, 646.8259
400.9966, 648.8032
401.4788, 651.1263
401.9609, 654.1794
402.4430, 657.7285
402.9251, 660.7472
403.4072, 662.5342
403.8893, 664.8798
404.3714, 668.6871
404.8535, 674.3757
405.3357, 679.7513
405.8178, 684.3961
406.2999, 689.1884
406.7820, 695.5804
407.2641, 703.8592
407.7462, 711.9854
408.2284, 718.9783
408.7105, 725.2586
409.1926, 733.3297
409.6747, 743.1219
410.1568, 755.2097
410.6389, 769.8358
411.1211, 787.0104
411.6032, 807.5115
412.0853, 831.6092
412.5674, 859.0359
413.0495, 891.0496
413.5316, 927.2997
414.0138, 964.9427
414.4959, 1004.531
414.9780, 1044.305
415.4601, 1085.528
415.9422, 1129.582
416.4243, 1159.070
416.9065, 1162.800
417.3886, 1142.396
417.8707, 1099.718
418.3528, 1015.910
418.8349, 928.5663
419.3170, 856.8018
419.7992, 799.5569
420.2813, 755.0950
420.7634, 725.6653
421.2455, 705.3705
421.7276, 690.9474
422.2097, 683.3925
422.6919, 677.6122
423.1740, 672.2059
423.6561, 667.7870
424.1382, 665.1721
424.6203, 665.8347
425.1024, 667.0432
425.5846, 668.2069
426.0667, 669.2977
426.5488, 670.6399
427.0309, 672.4105
427.5130, 674.2924
427.9951, 676.1574
428.4773, 678.4015
428.9594, 679.8104
429.4415, 680.4420
429.9236, 680.1385
430.4057, 678.2255
430.8878, 674.2410
431.3700, 670.1203
431.8521, 666.7521
432.3342, 664.1414
432.8163, 661.1510
433.2984, 657.6172
433.7805, 654.2924
434.2627, 651.9324
434.7448, 650.5227
435.2269, 650.0929
435.7090, 651.2438
436.1911, 652.7469
436.6732, 651.7220
437.1554, 648.4498
437.6375, 645.2499
438.1196, 643.5646
438.6017, 642.9764
439.0838, 642.8300
439.5659, 643.0401
440.0481, 643.7234
440.5302, 645.4073
441.0123, 647.5689
441.4944, 649.3336
441.9765, 650.0891
442.4586, 650.5540
442.9408, 651.0120
443.4229, 651.5031
443.9050, 652.2867
444.3871, 653.6999
444.8692, 655.2890
445.3513, 656.7692
445.8335, 658.1194
446.3156, 659.3228
446.7977, 660.7188
447.2798, 661.9066
447.7619, 662.1505
448.2440, 660.1722
448.7262, 658.5917
449.2083, 658.3497
449.6904, 659.5762
450.1725, 659.3199
450.6546, 656.5715
451.1367, 653.6057
451.6189, 652.3084
452.1010, 653.3327
452.5831, 653.7805
453.0652, 653.2804
453.5473, 652.1933
454.0294, 651.1366
454.5116, 650.0429
454.9937, 649.5393
455.4758, 650.2831
455.9579, 651.9584
456.4400, 652.6797
456.9221, 652.3730
457.4043, 651.8289
457.8864, 651.7787
458.3685, 652.1064
458.8506, 652.4648
459.3327, 652.7038
459.8148, 653.0322
460.2970, 653.7233
460.7791, 654.7217
461.2612, 655.8265
461.7433, 657.2170
462.2254, 658.4913
462.7076, 659.3837
463.1897, 659.9065
463.6718, 659.7686
464.1539, 657.7709
464.6360, 655.5031
465.1181, 654.5839
465.6003, 656.8289
466.0824, 658.9662
466.5645, 660.0693
467.0466, 660.3809
467.5287, 660.8488
468.0108, 662.0779
468.4930, 663.0123
468.9751, 663.1365
469.4572, 662.0566
469.9393, 661.5959
470.4214, 661.8652
470.9035, 662.6451
471.3857, 663.7491
471.8678, 665.2645
472.3499, 666.8868
472.8320, 668.8353
473.3141, 670.7623
473.7962, 671.2426
474.2784, 670.0859
474.7605, 668.9023
475.2426, 668.6508
475.7247, 669.2171
476.2068, 669.9280
476.6889, 670.7832
477.1711, 671.6900
477.6532, 672.4483
478.1353, 673.1682
478.6174, 674.1519
479.0995, 675.5416
479.5816, 677.1866
480.0638, 679.0603
480.5459, 681.0729
481.0280, 682.8742
481.5101, 683.9882
481.9922, 684.9767
482.4743, 686.4484
482.9565, 688.6547
483.4386, 690.2732
483.9207, 690.4964
484.4028, 689.9603
484.8849, 689.3267
485.3670, 688.2850
485.8492, 687.6764
486.3313, 687.7208
486.8134, 688.3736
487.2955, 689.3885
487.7776, 691.7838
488.2597, 693.3047
488.7419, 692.5504
489.2240, 688.5427
489.7061, 687.3593
490.1882, 690.2165
490.6703, 694.1102
491.1524, 695.5710
491.6346, 694.2704
492.1167, 693.0067
492.5988, 692.2883
493.0809, 691.9249
493.5630, 691.3484
494.0451, 690.5635
494.5273, 690.1463
495.0094, 690.8398
495.4915, 692.0728
495.9736, 692.3210
496.4557, 691.4499
496.9378, 690.7607
497.4200, 691.9697
497.9021, 693.9835
498.3842, 695.0488
498.8663, 694.0837
499.3484, 692.8730
499.8305, 692.4200
500.3127, 692.6031
500.7948, 693.1009
501.2769, 694.1384
501.7590, 695.1861
502.2411, 695.8786
502.7232, 696.0897
503.2054, 696.7574
503.6875, 698.9288
504.1696, 701.0020
504.6517, 701.7416
505.1338, 700.1872
505.6159, 698.9334
506.0981, 697.9901
506.5802, 697.4812
507.0623, 697.8995
507.5444, 699.6572
508.0265, 700.9926
508.5086, 701.0230
508.9908, 699.9783
509.4729, 699.8234
509.9550, 700.6260
510.4371, 701.7806
510.9192, 702.9455
511.4013, 704.0569
511.8835, 704.7258
512.3655, 704.7542
512.8477, 704.8339
513.3298, 705.9659
513.8119, 707.7945
514.2940, 709.4614
514.7761, 710.7895
515.2582, 711.6543
515.7404, 711.6477
516.2225, 710.9266
516.7046, 710.6028
517.1867, 711.6163
517.6688, 712.8800
518.1509, 713.6249
518.6331, 713.3860
519.1152, 713.4886
519.5973, 714.3345
520.0794, 715.5446
520.5615, 716.6323
521.0436, 717.6207
521.5258, 718.3858
522.0079, 718.5903
522.4900, 718.5109
522.9721, 719.8422
523.4542, 723.1977
523.9363, 726.0717
524.4185, 726.9510
524.9006, 725.8519
525.3827, 724.9354
525.8648, 724.2056
526.3469, 723.6600
526.8290, 723.3303
527.3112, 723.2040
527.7933, 723.2057
528.2754, 723.3497
528.7575, 723.5833
529.2396, 723.6580
529.7217, 723.7449
530.2039, 724.3287
530.6860, 726.4127
531.1681, 728.5126
531.6502, 729.2812
532.1323, 728.6934
532.6144, 728.5934
533.0966, 730.0587
533.5787, 732.0264
534.0608, 733.8115
534.5429, 735.6422
535.0250, 736.6948
535.5071, 736.5145
535.9893, 735.6513
536.4714, 734.8196
536.9535, 733.7769
537.4356, 733.2620
537.9177, 733.5699
538.3998, 734.5712
538.8820, 735.3807
539.3641, 735.9092
539.8462, 736.6287
540.3283, 738.2225
540.8104, 740.4348
541.2925, 741.0604
541.7747, 739.7462
542.2568, 738.5686
542.7389, 740.3729
543.2210, 744.0130
543.7031, 746.8234
544.1852, 748.0618
544.6674, 748.2121
545.1495, 746.8560
545.6316, 744.6928
546.1137, 743.4658
546.5958, 744.7205
547.0779, 746.4795
547.5601, 747.8583
548.0422, 748.7992
548.5243, 749.3256
549.0064, 748.8468
549.4885, 748.3736
549.9706, 748.5851
550.4528, 750.2648
550.9349, 751.0536
551.4170, 750.2760
551.8991, 749.1363
552.3812, 749.6332
552.8633, 752.2969
553.3455, 754.3840
553.8276, 755.0883
554.3097, 754.8455
554.7918, 755.1183
555.2739, 755.9056
555.7560, 756.5457
556.2382, 756.5383
556.7203, 756.1220
557.2024, 755.8243
557.6845, 755.6786
558.1666, 755.5016
558.6487, 754.6600
559.1309, 753.8811
559.6130, 754.2294
560.0951, 756.6000
560.5772, 758.8844
561.0593, 759.7966
561.5414, 759.9835
562.0236, 760.5750
562.5057, 762.6535
562.9878, 764.3217
563.4699, 764.7793
563.9520, 764.1669
564.4341, 764.0514
564.9163, 764.4462
565.3984, 765.3146
565.8805, 766.8023
566.3626, 769.1102
566.8447, 770.7151
567.3268, 771.4071
567.8090, 772.0283
568.2911, 773.5605
568.7732, 775.9361
569.2553, 778.4239
569.7374, 780.9182
570.2195, 783.4365
570.7017, 786.0413
571.1838, 788.7641
571.6659, 791.6418
572.1480, 795.2906
572.6301, 798.7081
573.1122, 800.7252
573.5944, 801.5338
574.0765, 802.7086
574.5586, 805.8703
575.0407, 808.9280
575.5228, 810.6688
576.0049, 810.7800
576.4871, 809.9776
576.9692, 808.0978
577.4513, 805.4938
577.9334, 802.3718
578.4155, 798.5676
578.8976, 794.6461
579.3798, 790.2989
579.8619, 786.1693
580.3440, 784.2098
580.8261, 784.5868
581.3082, 785.0930
581.7903, 784.7525
582.2725, 783.8841
582.7546, 783.4335
583.2367, 783.3741
583.7188, 783.3709
584.2009, 782.9061
584.6830, 782.4621
585.1652, 782.7862
585.6473, 784.0750
586.1294, 785.4112
586.6115, 786.4875
587.0936, 787.2302
587.5757, 787.5455
588.0579, 786.7484
588.5400, 786.2850
589.0221, 786.3713
589.5042, 786.9697
589.9863, 788.0286
590.4684, 790.0965
590.9506, 791.6944
591.4327, 792.3091
591.9148, 792.0698
592.3969, 792.1111
592.8790, 792.4717
593.3611, 792.9736
593.8433, 793.7437
594.3254, 794.6309
594.8075, 794.6583
595.2896, 793.7127
595.7717, 792.7479
596.2538, 792.9042
596.7360, 793.6718
597.2181, 794.0799
597.7002, 793.6761
598.1823, 793.3152
598.6644, 793.3450
599.1465, 793.8455
599.6287, 794.9564
600.1108, 797.8714
600.5929, 800.1950
601.0750, 800.6539
601.5571, 799.5433
602.0392, 799.6137
602.5214, 802.0139
603.0035, 804.0438
603.4856, 804.2003
603.9677, 802.2091
604.4498, 802.5441
604.9319, 805.8282
605.4141, 809.4717
605.8962, 811.1288
606.3783, 810.9946
606.8604, 809.9097
607.3425, 807.6885
607.8246, 805.7181
608.3068, 806.0890
608.7889, 807.9483
609.2710, 809.4528
609.7531, 809.6571
610.2352, 809.6249
610.7173, 809.9611
611.1995, 810.6135
611.6816, 811.4316
612.1637, 813.0064
612.6458, 814.1495
613.1279, 814.1519
613.6100, 812.9530
614.0922, 812.4305
614.5743, 813.0320
615.0564, 813.7284
615.5385, 813.9718
616.0206, 813.7120
616.5027, 813.1461
616.9849, 812.0386
617.4670, 811.3435
617.9491, 812.6853
618.4312, 815.5978
618.9133, 817.5750
619.3954, 817.9544
619.8776, 817.7017
620.3597, 817.6476
620.8418, 817.8591
621.3239, 818.4788
621.8060, 819.9688
622.2881, 821.5143
622.7703, 822.6572
623.2524, 823.4564
623.7345, 824.1872
624.2166, 824.9549
624.6987, 825.6133
625.1808, 825.8788
625.6630, 825.6501
626.1451, 826.4416
626.6272, 828.6924
627.1093, 831.2422
627.5914, 833.4361
628.0735, 835.2921
628.5557, 836.3592
629.0378, 836.4837
629.5199, 836.2976
630.0020, 836.2256
630.4841, 836.4354
630.9662, 837.6398
631.4484, 840.5717
631.9305, 843.4050
632.4126, 843.7814
632.8947, 842.8141
633.3768, 842.7453
633.8589, 845.5091
634.3411, 848.3632
634.8232, 850.1457
635.3053, 851.0042
635.7874, 851.9161
636.2695, 852.4584
636.7516, 853.6502
637.2338, 855.8746
637.7159, 859.1707
638.1980, 862.7501
638.6801, 866.6178
639.1622, 870.7240
639.6443, 875.4388
640.1265, 880.5198
640.6086, 884.2224
641.0907, 886.2756
641.5728, 887.5338
642.0549, 889.1091
642.5370, 890.5077
643.0192, 890.7938
643.5013, 889.4274
643.9834, 887.4902
644.4655, 885.4434
644.9476, 883.3594
645.4297, 881.2703
645.9119, 879.2380
646.3940, 877.2048
646.8761, 875.2932
647.3582, 873.4067
647.8403, 871.1018
648.3224, 867.7900
648.8046, 865.2203
649.2867, 864.3333
649.7688, 864.8680
650.2509, 864.2637
650.7330, 862.4055
651.2151, 860.5471
651.6973, 859.4594
652.1794, 859.0801
652.6615, 859.5540
653.1436, 860.9340
653.6257, 862.1509
654.1078, 862.1638
654.5900, 861.6498
655.0721, 861.3683
655.5542, 861.6881
656.0363, 861.8456
656.5184, 860.9929
657.0005, 860.0818
657.4827, 860.4661
657.9648, 863.8342
658.4469, 865.6111
658.9290, 864.5547
659.4111, 861.9830
659.8932, 861.1171
660.3754, 862.0929
660.8575, 863.6300
661.3396, 865.5647
661.8217, 867.5339
662.3038, 868.5535
662.7859, 868.7112
663.2681, 868.6492
663.7502, 868.7885
664.2323, 868.8808
664.7144, 868.4530
665.1965, 867.5257
665.6786, 867.1500
666.1608, 868.4528
666.6429, 869.9594
667.1250, 870.6558
667.6071, 869.9127
668.0892, 869.9091
668.5714, 870.9814
669.0535, 872.4582
669.5356, 873.7347
670.0177, 874.7786
670.4998, 876.0419
670.9819, 877.7117
671.4641, 879.2499
671.9462, 879.8221
672.4283, 879.5674
672.9104, 878.9465
673.3925, 877.6307
673.8746, 876.7690
674.3568, 877.9885
674.8389, 880.5141
675.3210, 882.6920
675.8031, 883.6746
676.2852, 884.3112
676.7673, 885.0724
677.2495, 885.8339
677.7316, 885.7824
678.2137, 884.0876
678.6958, 882.7507
679.1779, 882.7240
679.6600, 883.9089
680.1422, 883.7219
680.6243, 881.8968
681.1064, 880.2703
681.5885, 880.2257
682.0706, 881.3973
682.5527, 882.7253
683.0349, 884.1888
683.5170, 885.4804
683.9991, 886.5873
684.4812, 887.3240
684.9633, 887.2561
685.4454, 885.7872
685.9276, 885.2253
686.4097, 887.3524
686.8918, 890.3215
687.3739, 892.1032
687.8560, 891.9089
688.3381, 891.8009
688.8203, 891.9361
689.3024, 892.1371
689.7845, 892.0033
690.2666, 891.4703
690.7487, 891.2704
691.2308, 891.5766
691.7130, 892.2970
692.1951, 893.5638
692.6772, 895.1725
693.1593, 896.4335
693.6414, 896.3069
694.1235, 896.2735
694.6057, 898.3846
695.0878, 901.8318
695.5699, 903.2795
696.0520, 899.4141
696.5341, 895.5681
697.0162, 893.7621
697.4984, 893.9971
697.9805, 894.9590
698.4626, 897.0953
698.9447, 899.0932
699.4268, 900.0805
699.9089, 900.1289
700.3911, 900.4447
700.8732, 901.0400
701.3553, 901.7721
701.8374, 902.7520
702.3195, 903.7076
702.8016, 903.9683
703.2838, 903.3027
703.7659, 902.9770
704.2480, 904.3077
704.7301, 906.0622
705.2122, 907.0176
705.6943, 905.9615
706.1765, 905.7552
706.6586, 907.2922
707.1407, 909.2787
707.6228, 910.0486
708.1049, 909.1492
708.5870, 908.9478
709.0692, 909.9330
709.5513, 911.4976
710.0334, 912.6197
710.5155, 913.3717
710.9976, 914.1091
711.4797, 914.9128
711.9618, 915.8085
712.4439, 917.0432
712.9260, 918.3857
713.4081, 919.3102
713.8903, 918.9198
714.3724, 918.7717
714.8545, 919.4963
715.3366, 921.0410
715.8187, 922.8321
716.3008, 925.2863
716.7830, 927.2780
717.2651, 928.2059
717.7472, 928.2927
718.2293, 929.5109
718.7114, 931.9485
719.1935, 934.1077
719.6757, 934.6640
720.1578, 934.4092
720.6399, 934.9025
721.1220, 936.1467
721.6041, 937.4586
722.0862, 938.5054
722.5684, 939.3192
723.0505, 939.6647
723.5326, 939.1856
724.0147, 939.8727
724.4968, 943.0540
724.9789, 946.5549
725.4611, 949.0173
725.9432, 950.0947
726.4253, 951.5296
726.9074, 953.5215
727.3895, 955.4271
727.8716, 956.1420
728.3538, 956.1273
728.8359, 957.3182
729.3180, 960.2327
729.8001, 963.5389
730.2822, 966.1600
730.7643, 968.4202
731.2465, 970.7548
731.7286, 973.9111
732.2107, 976.1730
732.6928, 975.6033
733.1749, 974.3621
733.6570, 975.8293
734.1392, 981.4977
734.6213, 986.4268
735.1034, 989.7845
735.5855, 992.2200
736.0676, 994.9063
736.5497, 997.8384
737.0319, 1001.090
737.5140, 1004.792
737.9961, 1008.621
738.4782, 1012.219
738.9603, 1015.603
739.4424, 1018.802
739.9246, 1021.067
740.4067, 1023.941
740.8888, 1028.667
741.3709, 1034.750
741.8530, 1039.942
742.3351, 1043.377
742.8173, 1047.122
743.2994, 1051.929
743.7815, 1057.546
744.2636, 1062.590
744.7457, 1067.027
745.2278, 1071.322
745.7100, 1075.950
746.1921, 1080.446
746.6742, 1083.673
747.1563, 1085.766
747.6384, 1087.599
748.1205, 1090.341
748.6027, 1092.512
749.0848, 1092.959
749.5669, 1091.568
750.0490, 1089.769
750.5311, 1088.186
751.0132, 1085.722
751.4954, 1081.467
751.9775, 1075.180
752.4596, 1070.494
752.9417, 1067.549
753.4238, 1065.264
753.9059, 1063.292
754.3881, 1061.210
754.8702, 1057.293
755.3523, 1051.413
755.8344, 1046.301
756.3165, 1044.492
756.7986, 1044.111
757.2808, 1043.625
757.7629, 1042.873
758.2450, 1041.783
758.7271, 1040.397
759.2092, 1038.623
759.6913, 1036.070
760.1735, 1032.124
760.6556, 1030.284
761.1377, 1031.100
761.6198, 1032.491
762.1019, 1031.863
762.5840, 1029.880
763.0662, 1028.858
763.5483, 1029.334
764.0304, 1029.898
764.5125, 1029.185
764.9946, 1027.982
765.4767, 1027.207
765.9589, 1027.289
766.4410, 1027.406
766.9231, 1027.218
767.4052, 1027.137
767.8873, 1027.701
768.3694, 1029.172
768.8516, 1030.273
769.3337, 1030.844
769.8158, 1031.078
770.2979, 1031.236
770.7800, 1031.295
771.2621, 1031.085
771.7443, 1030.379
772.2264, 1029.855
772.7085, 1030.002
773.1906, 1030.735
773.6727, 1031.924
774.1548, 1034.471
774.6370, 1036.316
775.1191, 1036.737
775.6012, 1036.464
776.0833, 1036.567
776.5654, 1037.077
777.0475, 1037.944
777.5297, 1039.326
778.0118, 1040.782
778.4939, 1041.272
778.9760, 1041.087
779.4581, 1041.312
779.9402, 1042.289
780.4224, 1043.853
780.9045, 1046.161
781.3866, 1048.882
781.8687, 1051.389
782.3508, 1054.146
782.8329, 1055.793
783.3151, 1055.546
783.7972, 1054.249
784.2793, 1053.860
784.7614, 1054.581
785.2435, 1055.090
785.7256, 1054.920
786.2078, 1054.505
786.6899, 1054.805
787.1720, 1055.658
787.6541, 1056.406
788.1362, 1057.034
788.6183, 1057.253
789.1005, 1056.001
789.5826, 1054.206
790.0647, 1054.201
790.5468, 1059.644
791.0289, 1062.998
791.5110, 1061.642
791.9932, 1057.529
792.4753, 1057.109
792.9574, 1060.825
793.4395, 1064.059
793.9216, 1064.848
794.4037, 1064.555
794.8859, 1066.087
795.3680, 1068.809
795.8501, 1070.662
796.3322, 1069.568
796.8143, 1068.370
797.2964, 1068.908
797.7786, 1070.682
798.2607, 1071.782
798.7428, 1070.887
799.2249, 1071.113
799.7070, 1073.714
800.1891, 1077.740
800.6713, 1079.887
801.1534, 1080.130
801.6355, 1080.234
802.1176, 1080.896
802.5997, 1081.906
803.0818, 1083.234
803.5640, 1084.688
804.0461, 1085.678
804.5282, 1085.413
805.0103, 1085.159
805.4924, 1085.309
805.9745, 1085.908
806.4567, 1087.065
806.9388, 1089.211
807.4209, 1090.842
807.9030, 1091.190
808.3851, 1090.943
808.8672, 1092.525
809.3494, 1095.710
809.8315, 1098.506
810.3136, 1100.143
810.7957, 1100.738
811.2778, 1099.665
811.7599, 1097.581
812.2421, 1096.327
812.7242, 1096.751
813.2063, 1097.929
813.6884, 1100.779
814.1705, 1104.124
814.6526, 1103.508
815.1348, 1097.547
815.6169, 1093.441
816.0990, 1093.995
816.5811, 1097.099
817.0632, 1098.497
817.5453, 1098.380
818.0275, 1097.507
818.5096, 1095.108
818.9917, 1093.171
819.4738, 1093.348
819.9559, 1095.018
820.4380, 1096.505
820.9202, 1097.623
821.4023, 1098.315
821.8844, 1098.233
822.3665, 1097.877
822.8486, 1098.913
823.3307, 1101.402
823.8129, 1102.948
824.2950, 1102.392
824.7771, 1101.014
825.2592, 1100.603
825.7413, 1100.870
826.2234, 1101.100
826.7056, 1100.482
827.1877, 1100.324
827.6698, 1101.477
828.1519, 1103.383
828.6340, 1104.855
829.1161, 1106.092
829.5983, 1106.203
830.0804, 1104.542
830.5625, 1102.345
831.0446, 1102.109
831.5267, 1103.556
832.0089, 1105.320
832.4910, 1107.306
832.9731, 1108.797
833.4552, 1108.370
833.9373, 1107.222
834.4194, 1107.277
834.9016, 1111.475
835.3837, 1113.643
835.8658, 1111.793
836.3479, 1108.499
836.8300, 1107.759
837.3121, 1109.821
837.7943, 1112.043
838.2764, 1114.073
838.7585, 1115.857
839.2406, 1117.581
839.7227, 1118.971
840.2048, 1119.361
840.6870, 1118.061
841.1691, 1116.863
841.6512, 1116.526
842.1333, 1116.791
842.6154, 1117.335
843.0975, 1117.904
843.5797, 1119.374
844.0618, 1122.229
844.5439, 1125.154
845.0260, 1126.585
845.5081, 1126.668
845.9902, 1125.717
846.4724, 1123.533
846.9545, 1121.940
847.4366, 1123.286
847.9187, 1125.696
848.4008, 1127.059
848.8829, 1126.543
849.3651, 1126.300
849.8472, 1126.864
850.3293, 1127.553
850.8114, 1127.877
851.2935, 1127.817
851.7756, 1127.675
852.2578, 1127.454
852.7399, 1127.230
853.2220, 1126.717
853.7041, 1126.380
854.1862, 1127.155
854.6683, 1129.175
855.1505, 1131.107
855.6326, 1132.237
856.1147, 1133.120
856.5968, 1134.027
857.0789, 1134.919
857.5610, 1136.238
858.0432, 1138.155
858.5253, 1139.875
859.0074, 1140.656
859.4895, 1140.803
859.9716, 1141.465
860.4537, 1142.621
860.9359, 1143.900
861.4180, 1145.520
861.9001, 1146.824
862.3822, 1147.240
862.8643, 1146.795
863.3464, 1146.434
863.8286, 1146.339
864.3107, 1146.209
864.7928, 1145.846
865.2749, 1145.404
865.7570, 1145.744
866.2391, 1146.820
866.7213, 1147.686
867.2034, 1147.370
867.6855, 1146.992
868.1676, 1147.948
868.6497, 1149.833
869.1318, 1151.475
869.6140, 1152.251
870.0961, 1152.978
870.5782, 1153.547
871.0603, 1154.293
871.5424, 1156.527
872.0245, 1160.544
872.5067, 1162.985
872.9888, 1162.614
873.4709, 1160.974
873.9530, 1160.093
874.4351, 1159.791
874.9172, 1159.686
875.3994, 1159.677
875.8815, 1159.812
876.3636, 1160.186
876.8457, 1160.711
877.3278, 1161.320
877.8099, 1162.246
878.2921, 1162.520
878.7742, 1161.904
879.2563, 1161.024
879.7384, 1160.398
880.2205, 1160.156
880.7026, 1160.831
881.1848, 1162.675
881.6669, 1164.501
882.1490, 1165.502
882.6311, 1166.118
883.1132, 1166.711
883.5953, 1167.233
884.0775, 1167.932
884.5596, 1168.699
885.0417, 1169.808
885.5238, 1171.818
886.0059, 1174.449
886.4880, 1175.991
886.9702, 1176.385
887.4523, 1176.008
887.9344, 1174.018
888.4165, 1172.202
888.8986, 1172.380
889.3807, 1174.637
889.8629, 1176.641
890.3450, 1177.808
890.8271, 1179.125
891.3092, 1181.224
891.7913, 1183.777
892.2734, 1184.663
892.7556, 1183.957
893.2377, 1183.304
893.7198, 1183.748
894.2019, 1184.519
894.6840, 1184.829
895.1661, 1184.795
895.6483, 1184.756
896.1304, 1184.058
896.6125, 1184.351
897.0946, 1186.414
897.5767, 1189.356
898.0588, 1191.365
898.5410, 1192.456
899.0231, 1192.529
899.5052, 1191.126
899.9873, 1189.891
900.4694, 1191.625
900.9515, 1194.747
901.4337, 1196.537
901.9158, 1195.465
902.3979, 1194.564
902.8800, 1194.756
903.3621, 1195.407
903.8442, 1195.942
904.3264, 1196.240
904.8085, 1197.293
905.2906, 1199.293
905.7727, 1201.292
906.2548, 1202.209
906.7369, 1202.603
907.2191, 1203.580
907.7012, 1205.275
908.1833, 1206.267
908.6654, 1204.758
909.1475, 1203.426
909.6296, 1203.974
910.1118, 1206.356
910.5939, 1207.802
911.0760, 1208.133
911.5581, 1208.475
912.0402, 1209.762
912.5223, 1211.321
913.0045, 1211.490
913.4866, 1210.654
913.9687, 1210.198
914.4508, 1210.852
914.9329, 1211.953
915.4150, 1213.446
915.8972, 1215.155
916.3793, 1216.771
916.8614, 1218.435
917.3435, 1219.275
917.8256, 1218.912
918.3077, 1218.008
918.7899, 1217.093
919.2720, 1216.523
919.7541, 1217.266
920.2362, 1220.106
920.7183, 1223.084
921.2004, 1225.955
921.6826, 1228.102
922.1647, 1228.954
922.6468, 1228.227
923.1289, 1226.766
923.6110, 1224.094
924.0931, 1222.350
924.5753, 1224.522
925.0574, 1228.925
925.5395, 1231.943
926.0216, 1233.318
926.5037, 1233.781
926.9858, 1232.767
927.4680, 1231.840
927.9501, 1232.204
928.4322, 1233.733
928.9143, 1234.436
929.3964, 1233.844
929.8785, 1234.281
930.3607, 1237.575
930.8428, 1241.912
931.3249, 1242.831
931.8070, 1241.176
932.2891, 1239.717
932.7712, 1240.180
933.2534, 1240.572
933.7355, 1239.474
934.2176, 1237.926
934.6997, 1237.941
935.1818, 1239.900
935.6639, 1242.295
936.1461, 1245.149
936.6282, 1247.910
937.1103, 1250.025
937.5924, 1251.495
938.0745, 1252.280
938.5566, 1252.419
939.0388, 1251.736
939.5209, 1248.391
940.0030, 1245.596
940.4851, 1246.097
940.9672, 1250.443
941.4493, 1253.150
941.9315, 1253.867
942.4136, 1254.389
942.8957, 1256.159
943.3778, 1258.472
943.8599, 1260.032
944.3420, 1260.885
944.8242, 1261.459
945.3063, 1261.250
945.7884, 1261.558
946.2705, 1263.429
946.7526, 1266.178
947.2347, 1268.023
947.7169, 1268.941
948.1990, 1269.208
948.6811, 1268.710
949.1632, 1268.072
949.6453, 1268.355
950.1274, 1269.109
950.6096, 1269.441
951.0917, 1268.810
951.5738, 1268.369
952.0559, 1268.387
952.5380, 1268.754
953.0201, 1269.164
953.5023, 1269.366
953.9844, 1272.063
954.4665, 1277.577
954.9486, 1282.414
955.4307, 1283.086
955.9128, 1281.738
956.3950, 1280.979
956.8771, 1280.931
957.3591, 1280.784
957.8412, 1279.536
958.3234, 1279.132
958.8055, 1280.578
959.2876, 1283.224
959.7697, 1284.365
960.2518, 1284.045
960.7339, 1284.214
961.2161, 1285.925
961.6982, 1287.767
962.1803, 1287.580
962.6624, 1286.697
963.1445, 1287.233
963.6266, 1292.130
964.1088, 1294.667
964.5909, 1293.341
965.0730, 1291.130
965.5551, 1291.057
966.0372, 1292.926
966.5193, 1295.460
967.0015, 1298.572
967.4836, 1300.891
967.9657, 1300.412
968.4478, 1299.372
968.9299, 1299.715
969.4120, 1301.580
969.8942, 1303.096
970.3763, 1303.966
970.8584, 1304.946
971.3405, 1306.303
971.8226, 1307.977
972.3047, 1310.505
972.7869, 1313.379
973.2690, 1314.458
973.7511, 1311.356
974.2332, 1308.460
974.7153, 1308.239
975.1974, 1309.687
975.6796, 1311.535
976.1617, 1314.523
976.6438, 1315.144
977.1259, 1312.520
977.6080, 1309.991
978.0901, 1311.863
978.5723, 1316.103
979.0544, 1318.749
979.5365, 1319.413
980.0186, 1319.102
980.5007, 1315.937
980.9828, 1314.343
981.4650, 1317.347
981.9471, 1323.988
982.4292, 1328.016
982.9113, 1329.265
983.3934, 1329.681
983.8755, 1329.756
984.3577, 1329.796
984.8398, 1330.453
985.3219, 1331.328
985.8040, 1331.650
986.2861, 1329.660
986.7682, 1329.428
987.2504, 1332.585
987.7325, 1336.316
988.2146, 1337.417
988.6967, 1336.069
989.1788, 1335.764
989.6609, 1336.751
990.1431, 1337.989
990.6252, 1338.985
991.1073, 1339.625
991.5894, 1339.469
992.0715, 1338.588
992.5536, 1338.812
993.0358, 1340.938
993.5179, 1342.614
994.0000, 1342.776
994.4821, 1342.307
994.9642, 1343.582
995.4464, 1346.087
995.9285, 1348.123
996.4106, 1349.030
996.8927, 1349.363
997.3748, 1347.816
997.8569, 1346.771
998.3391, 1349.311
998.8212, 1357.598
999.3033, 1361.511
999.7854, 1360.378
1000.268, 1357.622
1000.750, 1355.147
1001.232, 1353.473
1001.714, 1354.006
1002.196, 1356.498
1002.678, 1358.515
1003.160, 1358.886
1003.642, 1358.867
1004.124, 1358.765
1004.607, 1358.609
1005.089, 1358.349
1005.571, 1358.003
1006.053, 1358.069
1006.535, 1358.642
1007.017, 1359.729
1007.499, 1361.886
1007.981, 1364.257
1008.464, 1365.799
1008.946, 1365.740
1009.428, 1366.319
1009.910, 1367.976
1010.392, 1369.377
1010.874, 1368.962
1011.356, 1367.575
1011.838, 1368.844
1012.320, 1372.287
1012.803, 1375.114
1013.285, 1375.068
1013.767, 1374.818
1014.249, 1376.318
1014.731, 1378.394
1015.213, 1378.040
1015.695, 1374.568
1016.177, 1373.080
1016.659, 1374.644
1017.142, 1377.525
1017.624, 1380.281
1018.106, 1382.703
1018.588, 1384.479
1019.070, 1385.479
1019.552, 1386.240
1020.034, 1386.433
1020.516, 1386.980
1020.999, 1388.493
1021.481, 1390.700
1021.963, 1392.014
1022.445, 1392.556
1022.927, 1393.169
1023.409, 1394.432
1023.891, 1395.704
1024.373, 1396.714
1024.855, 1397.396
1025.338, 1397.615
1025.820, 1397.243
1026.302, 1396.747
1026.784, 1396.057
1027.266, 1395.587
1027.748, 1396.032
1028.230, 1396.909
1028.712, 1397.089
1029.195, 1396.559
1029.677, 1396.685
1030.159, 1398.321
1030.641, 1400.479
1031.123, 1403.246
1031.605, 1406.093
1032.087, 1406.652
1032.569, 1405.095
1033.052, 1404.911
1033.534, 1407.811
1034.016, 1410.821
1034.498, 1411.062
1034.980, 1409.979
1035.462, 1409.145
1035.944, 1408.380
1036.426, 1409.341
1036.908, 1412.649
1037.391, 1415.974
1037.873, 1417.339
1038.355, 1417.565
1038.837, 1419.197
1039.319, 1421.733
1039.801, 1422.802
1040.283, 1418.945
1040.765, 1416.264
1041.247, 1417.229
1041.730, 1420.168
1042.212, 1423.041
1042.694, 1425.846
1043.176, 1425.833
1043.658, 1422.089
1044.140, 1419.452
1044.622, 1424.621
1045.104, 1431.443
1045.587, 1433.281
1046.069, 1429.063
1046.551, 1427.443
1047.033, 1429.793
1047.515, 1432.105
1047.997, 1432.823
1048.479, 1432.592
1048.961, 1432.717
1049.443, 1433.051
1049.926, 1433.124
1050.408, 1431.978
1050.890, 1431.987
1051.372, 1435.680
1051.854, 1439.533
1052.336, 1440.487
1052.818, 1438.357
1053.300, 1436.905
1053.782, 1436.169
1054.265, 1436.884
1054.747, 1441.193
1055.229, 1445.777
1055.711, 1447.823
1056.193, 1447.752
1056.675, 1447.306
1057.157, 1445.827
1057.639, 1446.201
1058.122, 1449.344
1058.604, 1453.271
1059.086, 1455.767
1059.568, 1456.857
1060.050, 1456.110
1060.532, 1453.220
1061.014, 1451.378
1061.496, 1453.336
1061.979, 1454.967
1062.461, 1454.001
1062.943, 1451.360
1063.425, 1451.712
1063.907, 1454.809
1064.389, 1458.133
1064.871, 1461.343
1065.353, 1463.400
1065.835, 1462.537
1066.318, 1460.537
1066.800, 1459.612
1067.282, 1459.736
1067.764, 1461.593
1068.246, 1465.557
1068.728, 1469.358
1069.210, 1471.252
1069.692, 1471.840
1070.174, 1471.546
1070.657, 1470.713
1071.139, 1470.597
1071.621, 1472.542
1072.103, 1473.831
1072.585, 1473.458
1073.067, 1472.943
1073.549, 1475.444
1074.031, 1479.948
1074.514, 1481.639
1074.996, 1479.689
1075.478, 1478.392
1075.960, 1481.376
1076.442, 1485.099
1076.924, 1487.470
1077.406, 1488.630
1077.888, 1489.220
1078.370, 1489.229
1078.853, 1488.983
1079.335, 1488.318
1079.817, 1488.068
1080.299, 1490.177
1080.781, 1492.815
1081.263, 1493.285
1081.745, 1489.543
1082.227, 1487.979
1082.709, 1489.172
1083.192, 1491.120
1083.674, 1492.635
1084.156, 1493.934
1084.638, 1495.472
1085.120, 1497.279
1085.602, 1499.489
1086.084, 1502.786
1086.566, 1505.720
1087.048, 1508.234
1087.531, 1509.994
1088.013, 1510.256
1088.495, 1509.182
1088.977, 1508.805
1089.459, 1509.262
1089.941, 1509.407
1090.423, 1507.260
1090.905, 1505.596
1091.388, 1507.015
1091.870, 1510.600
1092.352, 1512.124
1092.834, 1511.178
1093.316, 1511.078
1093.798, 1512.576
1094.280, 1515.125
1094.762, 1519.681
1095.245, 1524.040
1095.727, 1524.848
1096.209, 1520.749
1096.691, 1518.847
1097.173, 1520.456
1097.655, 1522.152
1098.137, 1522.270
1098.619, 1521.608
1099.101, 1521.955
1099.583, 1523.077
1100.066, 1524.417
1100.548, 1526.223
1101.030, 1527.447
1101.512, 1527.380
1101.994, 1527.103
1102.476, 1527.479
1102.958, 1528.452
1103.440, 1529.239
1103.923, 1529.822
1104.405, 1530.078
1104.887, 1529.278
1105.369, 1528.816
1105.851, 1529.465
1106.333, 1531.012
1106.815, 1533.161
1107.297, 1536.100
1107.780, 1537.947
1108.262, 1538.389
1108.744, 1538.912
1109.226, 1541.937
1109.708, 1544.955
1110.190, 1544.486
1110.672, 1540.933
1111.154, 1540.758
1111.636, 1546.067
1112.119, 1549.412
1112.601, 1548.471
1113.083, 1546.254
1113.565, 1547.879
1114.047, 1551.270
1114.529, 1552.348
1115.011, 1549.916
1115.493, 1548.733
1115.975, 1550.884
1116.458, 1552.833
1116.940, 1552.725
1117.422, 1551.597
1117.904, 1553.233
1118.386, 1556.824
1118.868, 1559.628
1119.350, 1560.259
1119.832, 1560.693
1120.315, 1561.591
1120.797, 1562.765
1121.279, 1564.410
1121.761, 1566.493
1122.243, 1565.913
1122.725, 1562.901
1123.207, 1561.152
1123.689, 1563.957
1124.172, 1567.620
1124.654, 1569.806
1125.136, 1571.215
1125.618, 1573.251
1126.100, 1576.224
1126.582, 1578.130
1127.064, 1578.746
1127.546, 1579.248
1128.028, 1580.948
1128.510, 1582.829
1128.993, 1583.649
1129.475, 1584.960
1129.957, 1584.241
1130.439, 1586.203
1130.921, 1587.168
1131.403, 1586.565
1131.885, 1585.433
1132.367, 1584.929
1132.850, 1584.883
1133.332, 1585.041
1133.814, 1585.371
1134.296, 1585.851
1134.778, 1586.354
1135.260, 1587.228
1135.742, 1588.772
1136.224, 1590.494
1136.707, 1591.154
1137.189, 1591.184
1137.671, 1591.841
1138.153, 1593.660
1138.635, 1595.113
1139.117, 1595.105
1139.599, 1595.114
1140.081, 1595.867
1140.563, 1597.217
1141.046, 1598.492
1141.528, 1599.741
1142.010, 1601.304
1142.492, 1603.678
1142.974, 1605.723
1143.456, 1606.481
1143.938, 1606.894
1144.420, 1607.762
1144.902, 1609.094
1145.385, 1610.608
1145.867, 1612.297
1146.349, 1614.385
1146.831, 1617.521
1147.313, 1620.542
1147.795, 1623.170
1148.277, 1624.793
1148.759, 1624.177
1149.242, 1620.447
1149.724, 1619.579
1150.206, 1622.089
1150.688, 1624.521
1151.170, 1623.454
1151.652, 1621.434
1152.134, 1620.973
1152.616, 1621.625
1153.099, 1621.127
1153.581, 1618.305
1154.063, 1618.292
1154.545, 1622.230
1155.027, 1627.011
1155.509, 1628.926
1155.991, 1629.702
1156.473, 1631.710
1156.955, 1635.003
1157.438, 1637.250
1157.920, 1638.279
1158.402, 1638.151
1158.884, 1636.501
1159.366, 1634.623
1159.848, 1634.353
1160.330, 1635.251
1160.812, 1636.962
1161.294, 1639.621
1161.777, 1640.735
1162.259, 1638.035
1162.741, 1637.067
1163.223, 1640.322
1163.705, 1645.790
1164.187, 1649.637
1164.669, 1651.997
1165.151, 1653.072
1165.634, 1652.372
1166.116, 1652.238
1166.598, 1653.631
1167.080, 1655.220
1167.562, 1656.274
1168.044, 1657.080
1168.526, 1659.320
1169.008, 1662.310
1169.490, 1663.524
1169.973, 1661.120
1170.455, 1658.742
1170.937, 1657.283
1171.419, 1656.745
1171.901, 1657.260
1172.383, 1658.784
1172.865, 1661.467
1173.347, 1664.951
1173.829, 1667.426
1174.312, 1666.701
1174.794, 1666.279
1175.276, 1668.171
1175.758, 1670.563
1176.240, 1671.722
1176.722, 1671.662
1177.204, 1671.552
1177.686, 1671.425
1178.169, 1671.435
1178.651, 1671.836
1179.133, 1672.226
1179.615, 1671.843
1180.097, 1671.640
1180.579, 1673.435
1181.061, 1677.247
1181.543, 1679.356
1182.026, 1679.513
1182.508, 1679.649
1182.990, 1681.211
1183.472, 1683.174
1183.954, 1685.171
1184.436, 1686.964
1184.918, 1688.131
1185.400, 1688.658
1185.882, 1688.592
1186.365, 1687.865
1186.847, 1687.649
1187.329, 1689.496
1187.811, 1691.760
1188.293, 1693.229
1188.775, 1694.005
1189.257, 1694.613
1189.739, 1695.080
1190.221, 1694.984
1190.704, 1694.100
1191.186, 1693.481
1191.668, 1694.433
1192.150, 1695.839
1192.632, 1696.258
1193.114, 1695.959
1193.596, 1698.148
1194.078, 1703.186
1194.561, 1706.951
1195.043, 1708.133
1195.525, 1708.166
1196.007, 1707.650
1196.489, 1707.285
1196.971, 1707.947
1197.453, 1709.673
1197.935, 1711.097
1198.417, 1712.224
1198.900, 1713.119
1199.382, 1713.752
1199.864, 1714.355
1200.346, 1715.465
1200.828, 1716.544
1201.310, 1716.699
1201.792, 1715.693
1202.274, 1716.247
1202.756, 1718.566
1203.239, 1720.720
1203.721, 1721.724
1204.203, 1722.361
1204.685, 1723.346
1205.167, 1724.527
1205.649, 1725.689
1206.131, 1726.776
1206.613, 1727.864
1207.096, 1728.902
1207.578, 1730.374
1208.060, 1733.689
1208.542, 1736.064
1209.024, 1732.341
1209.506, 1726.452
1209.988, 1725.109
1210.470, 1730.139
1210.953, 1733.647
1211.435, 1735.575
1211.917, 1736.883
1212.399, 1738.145
1212.881, 1739.185
1213.363, 1739.086
1213.845, 1738.887
1214.327, 1740.715
1214.809, 1745.597
1215.292, 1749.038
1215.774, 1750.855
1216.256, 1752.117
1216.738, 1753.363
1217.220, 1754.539
1217.702, 1755.892
1218.184, 1757.033
1218.666, 1757.043
1219.148, 1755.334
1219.631, 1754.835
1220.113, 1755.742
1220.595, 1757.204
1221.077, 1759.054
1221.559, 1760.732
1222.041, 1761.437
1222.523, 1761.690
1223.005, 1762.831
1223.488, 1765.232
1223.970, 1767.054
1224.452, 1768.190
1224.934, 1768.792
1225.416, 1768.074
1225.898, 1767.709
1226.380, 1769.965
1226.862, 1773.564
1227.344, 1774.795
1227.827, 1773.169
1228.309, 1772.163
1228.791, 1772.099
1229.273, 1772.301
1229.755, 1772.131
1230.237, 1772.073
1230.719, 1772.573
1231.201, 1773.102
1231.683, 1774.379
1232.166, 1775.178
1232.648, 1776.467
1233.130, 1778.356
1233.612, 1779.917
1234.094, 1780.276
1234.576, 1780.127
1235.058, 1779.498
1235.540, 1778.858
1236.023, 1779.484
1236.505, 1781.409
1236.987, 1783.029
1237.469, 1784.171
1237.951, 1784.590
1238.433, 1782.635
1238.915, 1781.398
1239.397, 1784.306
1239.880, 1788.982
1240.362, 1789.421
1240.844, 1786.022
1241.326, 1784.881
1241.808, 1787.036
1242.290, 1789.925
1242.772, 1792.317
1243.254, 1794.291
1243.736, 1795.435
1244.219, 1796.421
1244.701, 1799.546
1245.183, 1804.224
1245.665, 1806.636
1246.147, 1805.945
1246.629, 1805.193
1247.111, 1805.740
1247.593, 1807.016
1248.075, 1808.496
1248.558, 1810.659
1249.040, 1816.287
1249.522, 1823.765
1250.004, 1825.330
1250.486, 1819.393
1250.968, 1814.166
1251.450, 1813.829
1251.932, 1814.689
1252.415, 1815.722
1252.897, 1816.889
1253.379, 1818.094
1253.861, 1819.319
1254.343, 1820.727
1254.825, 1822.396
1255.307, 1823.074
1255.789, 1821.576
1256.271, 1820.001
1256.754, 1818.569
1257.236, 1817.968
1257.718, 1820.287
1258.200, 1824.085
1258.682, 1826.589
1259.164, 1827.263
1259.646, 1827.750
1260.128, 1827.995
1260.610, 1828.874
1261.093, 1830.848
1261.575, 1833.107
1262.057, 1835.328
1262.539, 1836.576
1263.021, 1834.403
1263.503, 1828.158
1263.985, 1826.571
1264.467, 1831.573
1264.950, 1835.656
1265.432, 1836.577
1265.914, 1835.910
1266.396, 1834.444
1266.878, 1833.307
1267.360, 1834.163
1267.842, 1837.194
1268.324, 1839.215
1268.807, 1840.055
1269.289, 1841.041
1269.771, 1842.480
1270.253, 1844.373
1270.735, 1847.067
1271.217, 1849.961
1271.699, 1852.756
1272.181, 1855.278
1272.663, 1856.501
1273.146, 1856.422
1273.628, 1854.511
1274.110, 1849.925
1274.592, 1846.879
1275.074, 1849.916
1275.556, 1854.365
1276.038, 1857.486
1276.520, 1859.303
1277.002, 1859.610
1277.485, 1858.693
1277.967, 1858.003
1278.449, 1857.705
1278.931, 1858.788
1279.413, 1863.328
1279.895, 1867.627
1280.377, 1870.274
1280.859, 1871.279
1281.342, 1869.779
1281.824, 1866.757
1282.306, 1864.899
1282.788, 1864.745
1283.270, 1866.154
1283.752, 1869.817
1284.234, 1874.026
1284.716, 1878.712
1285.198, 1882.849
1285.681, 1884.177
1286.163, 1883.780
1286.645, 1883.693
1287.127, 1884.302
1287.609, 1884.066
1288.091, 1882.353
1288.573, 1881.248
1289.055, 1881.296
1289.537, 1882.403
1290.020, 1885.349
1290.502, 1888.692
1290.984, 1890.794
1291.466, 1891.436
1291.948, 1891.149
1292.430, 1889.708
1292.912, 1889.259
1293.394, 1890.609
1293.877, 1891.982
1294.359, 1890.247
1294.841, 1889.002
1295.323, 1893.053
1295.805, 1900.400
1296.287, 1902.511
1296.769, 1899.781
1297.251, 1898.618
1297.734, 1900.474
1298.216, 1902.879
1298.698, 1904.788
1299.180, 1906.126
1299.662, 1906.411
1300.144, 1906.573
1300.626, 1909.575
1301.108, 1914.368
1301.590, 1917.361
1302.073, 1917.931
1302.555, 1917.479
1303.037, 1914.732
1303.519, 1913.773
1304.001, 1916.208
1304.483, 1919.418
1304.965, 1920.210
##END=



