##NAMES=Cosalite
##RRUFFID=R060229
##IDEAL CHEMISTRY=Pb^2+^_2_Bi^3+^_2_S^2-^_5_
##LOCALITY=Amax mine, Kitsault, near Alice Arm, British Columbia, Canada
##OWNER=RRUFF
##SOURCE=Michael Scott
##DESCRIPTION=Parallel group of black metallic acicular crystals
##STATUS=The identification of this mineral is confirmed by single-crystal X-ray diffraction and chemical analysis.
##URL=rruff.info/R060229
##MEASURED CHEMISTRY=(Pb_1.84_Cu_0.16_)_Î£=2_Bi_2.00_S_5.00_
127.7548, 18.36226
128.2369, 20.15674
128.7190, 21.76553
129.2011, 23.35245
129.6832, 25.23062
130.1653, 27.31997
130.6474, 29.24537
131.1296, 30.80949
131.6117, 32.02355
132.0938, 32.90416
132.5759, 33.33348
133.0580, 33.63816
133.5401, 34.56211
134.0223, 36.12835
134.5044, 37.59864
134.9865, 38.33342
135.4686, 38.36214
135.9507, 38.51861
136.4328, 38.76533
136.9150, 39.30979
137.3971, 41.07856
137.8792, 44.37337
138.3613, 47.76274
138.8434, 49.89928
139.3255, 50.49725
139.8077, 51.48206
140.2898, 53.39886
140.7719, 56.07526
141.2540, 58.03579
141.7361, 59.08512
142.2182, 59.70720
142.7004, 60.25720
143.1825, 60.52127
143.6646, 61.27531
144.1467, 62.96482
144.6288, 65.74268
145.1109, 67.25362
145.5931, 66.70010
146.0752, 65.52921
146.5573, 65.52390
147.0394, 67.67741
147.5215, 69.57088
148.0036, 70.54983
148.4858, 70.39943
148.9679, 70.22657
149.4500, 69.68600
149.9321, 69.23421
150.4142, 69.55742
150.8963, 71.30745
151.3785, 73.23978
151.8606, 75.02727
152.3427, 76.69837
152.8248, 78.23784
153.3069, 79.63554
153.7890, 80.90855
154.2712, 81.83972
154.7533, 81.89317
155.2354, 81.97009
155.7175, 82.30241
156.1996, 83.28247
156.6817, 83.77706
157.1639, 83.12460
157.6460, 81.88638
158.1281, 81.28599
158.6102, 82.12328
159.0923, 83.24744
159.5744, 84.17384
160.0566, 85.25178
160.5387, 85.45689
161.0208, 83.49337
161.5029, 80.26210
161.9850, 78.40556
162.4671, 80.01756
162.9493, 82.58410
163.4314, 84.44548
163.9135, 85.17559
164.3956, 85.22338
164.8777, 84.30296
165.3598, 82.69724
165.8420, 81.58787
166.3241, 82.06483
166.8062, 83.03608
167.2883, 83.51174
167.7704, 82.71302
168.2525, 81.85209
168.7346, 81.68433
169.2168, 82.12963
169.6989, 82.69774
170.1810, 83.31902
170.6631, 83.83110
171.1452, 84.03764
171.6273, 83.75754
172.1095, 83.24083
172.5916, 82.41580
173.0737, 81.34340
173.5558, 80.76187
174.0379, 81.92506
174.5201, 83.82762
175.0022, 84.86121
175.4843, 83.53244
175.9664, 81.53163
176.4485, 80.95145
176.9306, 81.75184
177.4128, 82.88121
177.8949, 83.58926
178.3770, 83.95472
178.8591, 84.16804
179.3412, 84.40196
179.8233, 84.49657
180.3055, 83.98289
180.7876, 82.80835
181.2697, 81.81984
181.7518, 82.24792
182.2339, 83.64037
182.7160, 84.54771
183.1982, 83.87450
183.6803, 82.34652
184.1624, 81.59019
184.6445, 81.67219
185.1266, 82.14358
185.6087, 82.71475
186.0909, 83.32626
186.5730, 83.62529
187.0551, 83.16104
187.5372, 82.23460
188.0193, 81.93389
188.5014, 82.36538
188.9836, 83.01804
189.4657, 83.25118
189.9478, 83.09383
190.4299, 82.90417
190.9120, 82.93479
191.3941, 83.10621
191.8763, 82.88517
192.3584, 82.15179
192.8405, 81.35686
193.3226, 81.22594
193.8047, 81.76344
194.2868, 82.26205
194.7690, 82.36815
195.2511, 82.11043
195.7332, 81.86498
196.2153, 81.62209
196.6974, 81.43300
197.1795, 81.50530
197.6617, 81.88035
198.1438, 82.01507
198.6259, 81.43233
199.1080, 80.13753
199.5901, 79.48692
200.0722, 79.65395
200.5544, 80.24893
201.0365, 80.60681
201.5186, 80.71829
202.0007, 80.67081
202.4828, 80.45239
202.9649, 80.04469
203.4471, 79.68986
203.9292, 79.34901
204.4113, 79.10887
204.8934, 79.23939
205.3755, 79.86787
205.8576, 80.34484
206.3398, 80.30804
206.8219, 79.67213
207.3040, 79.06857
207.7861, 78.45671
208.2682, 77.93760
208.7503, 77.77818
209.2325, 78.07736
209.7146, 78.42680
210.1967, 78.64189
210.6788, 78.69693
211.1609, 78.77007
211.6430, 78.93754
212.1252, 79.06999
212.6073, 78.80000
213.0894, 77.94180
213.5715, 77.17082
214.0536, 76.82695
214.5357, 77.03876
215.0179, 77.22234
215.5000, 77.44736
215.9821, 77.59731
216.4642, 77.31861
216.9463, 76.33328
217.4284, 75.51885
217.9105, 75.33518
218.3927, 76.07349
218.8748, 76.45499
219.3569, 76.32731
219.8390, 75.92673
220.3211, 75.80013
220.8032, 76.11684
221.2854, 76.38919
221.7675, 76.41943
222.2496, 76.15948
222.7317, 75.77601
223.2138, 75.12315
223.6959, 74.41898
224.1781, 74.16658
224.6602, 74.59413
225.1423, 75.07683
225.6244, 75.35950
226.1065, 75.39357
226.5886, 75.38661
227.0708, 75.34672
227.5529, 75.26156
228.0350, 75.10222
228.5171, 74.84269
228.9992, 74.55040
229.4813, 74.26255
229.9635, 74.02052
230.4456, 73.64421
230.9277, 73.03655
231.4098, 72.34933
231.8919, 71.87086
232.3740, 71.68931
232.8562, 71.57841
233.3383, 71.40836
233.8204, 71.02693
234.3025, 71.13665
234.7846, 72.10217
235.2667, 73.36256
235.7489, 73.82151
236.2310, 72.95704
236.7131, 72.14809
237.1952, 71.94503
237.6773, 72.66668
238.1594, 72.77950
238.6416, 71.83313
239.1237, 70.55276
239.6058, 70.17732
240.0879, 71.32481
240.5700, 72.37035
241.0521, 72.74800
241.5343, 72.24563
242.0164, 72.01817
242.4985, 72.23909
242.9806, 72.61472
243.4627, 72.69126
243.9448, 72.24598
244.4270, 71.87863
244.9091, 71.77427
245.3912, 71.98782
245.8733, 72.16737
246.3554, 72.31557
246.8375, 72.42708
247.3197, 72.47707
247.8018, 72.37402
248.2839, 72.37940
248.7660, 72.62454
249.2481, 73.17439
249.7302, 73.42661
250.2124, 73.17829
250.6945, 72.82406
251.1766, 72.87961
251.6587, 73.72765
252.1408, 74.22305
252.6229, 73.93890
253.1051, 72.78462
253.5872, 72.27320
254.0693, 72.71521
254.5514, 73.44125
255.0335, 73.75846
255.5156, 73.50447
255.9978, 73.16479
256.4799, 72.65672
256.9620, 71.98728
257.4441, 72.25129
257.9262, 74.07129
258.4083, 76.01326
258.8904, 76.71425
259.3726, 75.73782
259.8547, 74.59306
260.3368, 73.42339
260.8189, 72.25040
261.3010, 71.46130
261.7831, 71.17245
262.2653, 71.08351
262.7474, 70.95226
263.2295, 70.70742
263.7116, 70.63129
264.1937, 70.80061
264.6758, 71.17338
265.1580, 71.57781
265.6401, 72.14947
266.1222, 72.49346
266.6043, 72.20179
267.0864, 70.96107
267.5685, 70.22523
268.0507, 70.25718
268.5328, 70.86390
269.0149, 71.34753
269.4970, 71.72871
269.9791, 71.95088
270.4612, 71.93301
270.9434, 71.59966
271.4255, 71.42772
271.9076, 71.57779
272.3897, 71.81644
272.8718, 71.41544
273.3539, 70.14339
273.8361, 68.98390
274.3182, 68.53849
274.8003, 68.92039
275.2824, 69.13222
275.7645, 69.13329
276.2466, 68.95414
276.7288, 68.48972
277.2109, 67.59162
277.6930, 67.13716
278.1751, 68.00509
278.6572, 70.34035
279.1393, 70.82108
279.6215, 68.89104
280.1036, 66.18020
280.5857, 65.41496
281.0678, 66.81670
281.5499, 68.02923
282.0320, 68.01756
282.5142, 66.88164
282.9963, 65.95872
283.4784, 65.31771
283.9605, 64.67995
284.4426, 63.59385
284.9247, 62.04705
285.4069, 60.67633
285.8890, 59.69398
286.3711, 59.06306
286.8532, 58.62823
287.3353, 58.42451
287.8174, 58.21972
288.2996, 57.81972
288.7817, 57.22283
289.2638, 56.37508
289.7459, 55.08606
290.2280, 53.62660
290.7101, 52.85551
291.1923, 52.81162
291.6744, 52.77269
292.1565, 51.88936
292.6386, 50.38012
293.1207, 49.45286
293.6028, 49.66446
294.0850, 50.22897
294.5671, 49.40207
295.0492, 47.26830
295.5313, 45.24046
296.0134, 44.60590
296.4955, 44.91151
296.9777, 44.79408
297.4598, 43.91140
297.9419, 42.82888
298.4240, 42.44877
298.9061, 42.65417
299.3882, 42.82536
299.8704, 42.57505
300.3525, 42.03697
300.8346, 41.43423
301.3167, 40.77787
301.7988, 40.12983
302.2809, 39.40271
302.7631, 38.70769
303.2452, 38.35284
303.7273, 38.91562
304.2094, 39.75002
304.6915, 39.86304
305.1736, 39.15115
305.6558, 38.37581
306.1379, 38.27997
306.6200, 38.59230
307.1021, 38.80177
307.5842, 38.71399
308.0663, 38.41655
308.5485, 37.88552
309.0306, 37.13551
309.5127, 36.48170
309.9948, 36.22442
310.4769, 36.16673
310.9590, 36.05980
311.4412, 35.80378
311.9233, 35.48863
312.4054, 35.12423
312.8875, 34.72979
313.3696, 34.42263
313.8517, 34.36671
314.3339, 34.37987
314.8160, 34.29515
315.2981, 33.99927
315.7802, 33.71699
316.2623, 33.59574
316.7444, 33.58097
317.2266, 33.52311
317.7087, 33.42307
318.1908, 33.21845
318.6729, 32.80143
319.1550, 31.98529
319.6371, 31.42077
320.1193, 31.63094
320.6014, 32.18892
321.0835, 32.39848
321.5656, 31.49404
322.0477, 30.67881
322.5298, 30.58457
323.0120, 31.45748
323.4941, 31.98035
323.9762, 31.51011
324.4583, 30.69494
324.9404, 30.23575
325.4225, 30.47777
325.9047, 30.85202
326.3868, 31.34445
326.8689, 31.96922
327.3510, 32.25617
327.8331, 31.95885
328.3152, 31.44224
328.7974, 30.95779
329.2795, 30.46737
329.7616, 30.05938
330.2437, 29.75805
330.7258, 29.55292
331.2079, 29.37716
331.6901, 29.16031
332.1722, 29.04205
332.6543, 29.09025
333.1364, 29.32840
333.6185, 29.71302
334.1006, 30.42678
334.5828, 31.23081
335.0649, 31.51496
335.5470, 31.03692
336.0291, 30.46648
336.5112, 30.05245
336.9933, 29.82485
337.4755, 29.56797
337.9576, 29.21572
338.4397, 28.91462
338.9218, 28.90051
339.4039, 29.25917
339.8860, 29.60772
340.3681, 29.89546
340.8503, 30.10764
341.3324, 29.94602
341.8145, 29.30625
342.2966, 28.58206
342.7787, 28.06464
343.2608, 27.75448
343.7430, 27.76158
344.2251, 28.22405
344.7072, 28.93778
345.1893, 29.32525
345.6714, 29.38367
346.1535, 29.19167
346.6357, 28.66431
347.1178, 27.87743
347.5999, 27.31619
348.0820, 27.07135
348.5641, 26.96809
349.0462, 26.69036
349.5284, 26.27241
350.0105, 25.96232
350.4926, 25.87579
350.9747, 25.99232
351.4568, 26.38077
351.9389, 27.08309
352.4211, 27.66812
352.9032, 27.48903
353.3853, 26.83133
353.8674, 26.39050
354.3495, 26.69846
354.8316, 27.20141
355.3138, 27.18268
355.7959, 26.68950
356.2780, 26.21806
356.7601, 26.11884
357.2422, 26.23967
357.7243, 26.39616
358.2065, 26.58133
358.6886, 26.72228
359.1707, 26.79806
359.6528, 26.79409
360.1349, 26.66634
360.6170, 26.08138
361.0992, 25.56576
361.5813, 25.60961
362.0634, 26.52139
362.5455, 27.19190
363.0276, 26.91378
363.5097, 26.16880
363.9919, 25.67395
364.4740, 25.94296
364.9561, 26.22743
365.4382, 26.19093
365.9203, 25.78122
366.4024, 25.49713
366.8846, 25.47943
367.3667, 25.60098
367.8488, 25.75878
368.3309, 26.03783
368.8130, 26.24417
369.2951, 26.33259
369.7773, 26.31722
370.2594, 26.30204
370.7415, 26.38241
371.2236, 26.37569
371.7057, 26.17742
372.1878, 25.57624
372.6700, 25.19398
373.1521, 25.11660
373.6342, 25.22289
374.1163, 25.28132
374.5984, 25.25788
375.0805, 25.25354
375.5627, 25.31920
376.0448, 25.46770
376.5269, 25.51177
377.0090, 25.40632
377.4911, 25.27517
377.9732, 25.29939
378.4554, 25.52880
378.9375, 25.56166
379.4196, 25.21539
379.9017, 24.65025
380.3838, 24.50229
380.8659, 24.82047
381.3481, 25.18169
381.8302, 25.29603
382.3123, 25.18210
382.7944, 24.93234
383.2765, 24.50103
383.7586, 24.07602
384.2408, 23.91528
384.7229, 24.00807
385.2050, 24.28087
385.6871, 24.97606
386.1692, 25.75400
386.6513, 25.89241
387.1335, 25.35129
387.6156, 24.65772
388.0977, 24.14890
388.5798, 23.84629
389.0619, 23.78998
389.5440, 24.04777
390.0262, 24.50744
390.5083, 25.26804
390.9904, 26.22784
391.4725, 26.87691
391.9546, 26.81976
392.4367, 26.37836
392.9189, 25.76003
393.4010, 24.87152
393.8831, 24.16184
394.3652, 24.03827
394.8473, 24.21521
395.3294, 24.22117
395.8116, 23.29480
396.2937, 22.69828
396.7758, 23.25571
397.2579, 25.18419
397.7400, 26.45704
398.2221, 26.25611
398.7043, 25.44570
399.1864, 24.72550
399.6685, 23.92081
400.1506, 23.49191
400.6327, 23.75439
401.1148, 24.50916
401.5970, 24.79264
402.0791, 24.23754
402.5612, 23.63314
403.0433, 23.31166
403.5254, 23.32113
404.0075, 23.51888
404.4897, 24.08149
404.9718, 24.68038
405.4539, 24.72817
405.9360, 23.99261
406.4181, 23.43915
406.9002, 23.36588
407.3824, 23.72828
407.8645, 24.21414
408.3466, 24.93077
408.8287, 25.36270
409.3108, 24.67148
409.7929, 22.94755
410.2751, 22.26876
410.7572, 23.24207
411.2393, 24.90680
411.7214, 25.42480
412.2035, 24.89509
412.6856, 24.20292
413.1678, 23.80129
413.6499, 23.60450
414.1320, 23.40748
414.6141, 23.19098
415.0962, 23.06649
415.5783, 23.19853
416.0605, 23.48967
416.5426, 23.75814
417.0247, 23.91663
417.5068, 24.04772
417.9889, 24.36709
418.4710, 24.78049
418.9532, 24.85245
419.4353, 23.86799
419.9174, 22.72216
420.3995, 22.23737
420.8816, 22.89248
421.3637, 23.31605
421.8459, 22.50576
422.3280, 21.22823
422.8101, 20.64084
423.2922, 21.83714
423.7743, 23.00592
424.2564, 23.56890
424.7386, 23.47143
425.2207, 23.24397
425.7028, 22.51296
426.1849, 21.94447
426.6670, 22.00691
427.1491, 23.43302
427.6313, 24.30993
428.1134, 24.27380
428.5955, 23.67830
429.0776, 23.52529
429.5597, 24.09766
430.0418, 24.54929
430.5240, 24.54617
431.0061, 24.06423
431.4882, 23.40456
431.9703, 22.44147
432.4524, 21.58680
432.9345, 21.42294
433.4167, 21.97064
433.8988, 22.40451
434.3809, 22.53481
434.8630, 22.42209
435.3451, 22.13165
435.8272, 21.67098
436.3094, 21.26409
436.7915, 21.12135
437.2736, 21.13885
437.7557, 21.02255
438.2378, 20.71323
438.7199, 20.47229
439.2020, 20.61300
439.6841, 21.01545
440.1663, 21.43387
440.6484, 21.99315
441.1305, 22.36131
441.6126, 22.06194
442.0947, 21.21652
442.5768, 20.57398
443.0590, 20.67645
443.5411, 21.05087
444.0232, 21.35943
444.5053, 21.59511
444.9874, 21.63247
445.4695, 21.06840
445.9517, 20.34823
446.4338, 20.18635
446.9159, 21.46208
447.3980, 22.57269
447.8801, 23.02941
448.3622, 22.78976
448.8444, 22.48933
449.3265, 22.08793
449.8086, 21.65978
450.2907, 21.22394
450.7728, 20.63541
451.2549, 20.39089
451.7371, 20.69208
452.2192, 21.24403
452.7013, 21.35532
453.1834, 20.91189
453.6655, 20.43873
454.1476, 20.05719
454.6298, 19.79104
455.1119, 20.04406
455.5940, 20.91185
456.0761, 21.77771
456.5582, 22.03164
457.0403, 21.74386
457.5225, 21.19891
458.0046, 20.31796
458.4867, 19.48403
458.9688, 19.38082
459.4509, 19.87470
459.9330, 20.41803
460.4152, 20.55438
460.8973, 20.65596
461.3794, 21.39698
461.8615, 22.84204
462.3436, 23.84983
462.8257, 23.28503
463.3079, 22.03419
463.7900, 21.09332
464.2721, 20.84471
464.7542, 20.82902
465.2363, 20.99435
465.7184, 21.26528
466.2006, 21.42752
466.6827, 21.24001
467.1648, 21.09836
467.6469, 21.24554
468.1290, 21.86870
468.6111, 22.07458
469.0933, 21.46411
469.5754, 20.69026
470.0575, 20.33650
470.5396, 20.63316
471.0217, 20.89577
471.5038, 21.08929
471.9860, 21.18590
472.4681, 21.01169
472.9502, 20.42778
473.4323, 20.04087
473.9144, 20.31817
474.3965, 21.22363
474.8787, 21.53227
475.3608, 21.15477
475.8429, 20.60118
476.3250, 20.42764
476.8071, 20.57736
477.2892, 20.77588
477.7714, 20.97712
478.2535, 21.15429
478.7356, 21.36915
479.2177, 21.56120
479.6998, 21.47018
480.1819, 20.54507
480.6641, 19.48223
481.1462, 19.06957
481.6283, 19.39561
482.1104, 19.85965
482.5925, 20.23310
483.0746, 20.51560
483.5568, 20.70786
484.0389, 20.96531
484.5210, 20.96064
485.0031, 20.26754
485.4852, 19.19571
485.9673, 18.68745
486.4495, 19.53266
486.9316, 20.35875
487.4137, 20.65240
487.8958, 20.25724
488.3779, 20.13052
488.8600, 20.46679
489.3422, 20.86692
489.8243, 20.95862
490.3064, 20.65184
490.7885, 20.34911
491.2706, 20.11609
491.7527, 19.90466
492.2349, 19.48490
492.7170, 18.81848
493.1991, 18.42780
493.6812, 18.56315
494.1633, 19.18375
494.6454, 20.47151
495.1276, 22.47571
495.6097, 23.99270
496.0918, 23.43404
496.5739, 21.60423
497.0560, 20.22003
497.5381, 19.73013
498.0203, 19.60256
498.5024, 19.42151
498.9845, 19.23454
499.4666, 19.14253
499.9487, 19.30192
500.4308, 19.48146
500.9130, 19.54232
501.3951, 19.47858
501.8772, 19.40324
502.3593, 19.38151
502.8414, 19.33986
503.3235, 19.22467
503.8057, 18.89199
504.2878, 18.68451
504.7699, 18.52950
505.2520, 18.53164
505.7341, 18.95362
506.2162, 20.25310
506.6984, 21.03346
507.1805, 20.72419
507.6626, 19.48522
508.1447, 18.90608
508.6268, 19.13123
509.1089, 19.47789
509.5911, 19.35671
510.0732, 18.83768
510.5553, 18.81057
511.0374, 19.44856
511.5195, 20.17614
512.0016, 20.20326
512.4838, 19.69348
512.9659, 19.18394
513.4480, 18.76714
513.9301, 18.52735
514.4122, 18.60903
514.8943, 18.96768
515.3765, 19.41516
515.8586, 20.22517
516.3407, 20.83198
516.8228, 20.64013
517.3049, 19.40204
517.7870, 18.39316
518.2692, 18.19876
518.7513, 18.38153
519.2334, 18.52418
519.7155, 18.68023
520.1976, 18.64475
520.6797, 18.13131
521.1619, 17.42148
521.6440, 17.42447
522.1261, 18.76702
522.6082, 19.68756
523.0903, 19.33666
523.5724, 17.67593
524.0546, 16.96843
524.5367, 17.43579
525.0188, 18.18297
525.5009, 18.43359
525.9830, 18.22553
526.4651, 17.96379
526.9473, 17.65830
527.4294, 17.44412
527.9115, 17.63913
528.3936, 18.11741
528.8757, 18.46522
529.3578, 18.46148
529.8400, 18.25147
530.3221, 17.86029
530.8042, 17.33965
531.2863, 16.99363
531.7684, 17.04935
532.2505, 17.31257
532.7327, 17.70572
533.2148, 18.32650
533.6969, 18.69578
534.1790, 18.44022
534.6611, 17.96448
535.1432, 17.72677
535.6254, 17.93833
536.1075, 18.18415
536.5896, 18.57831
537.0717, 18.97375
537.5538, 18.74536
538.0359, 17.54624
538.5181, 16.52851
539.0002, 16.21085
539.4823, 16.58181
539.9644, 16.98615
540.4465, 17.45020
540.9286, 17.81647
541.4108, 17.80720
541.8929, 17.53949
542.3750, 17.62121
542.8571, 18.30239
543.3392, 18.92539
543.8214, 18.44313
544.3035, 17.27771
544.7856, 16.44597
545.2677, 16.43300
545.7498, 16.89659
546.2319, 18.11072
546.7141, 19.81607
547.1962, 20.53014
547.6783, 18.32764
548.1604, 15.97749
548.6425, 15.13914
549.1246, 16.62093
549.6068, 17.72277
550.0889, 18.14596
550.5710, 18.13424
551.0531, 17.82856
551.5352, 16.86217
552.0173, 16.44043
552.4995, 16.95847
552.9816, 17.93780
553.4637, 18.09892
553.9458, 17.32263
554.4279, 16.55511
554.9100, 16.14467
555.3922, 16.06027
555.8743, 16.29410
556.3564, 16.84470
556.8385, 17.32654
557.3206, 17.41474
557.8027, 17.22808
558.2849, 16.86550
558.7670, 16.24778
559.2491, 15.91247
559.7312, 16.74813
560.2133, 17.98525
560.6954, 18.57122
561.1776, 17.47048
561.6597, 16.36367
562.1418, 15.77630
562.6239, 15.62707
563.1060, 15.61434
563.5881, 15.79998
564.0703, 16.01226
564.5524, 16.18930
565.0345, 16.32011
565.5166, 16.58916
565.9987, 17.18771
566.4808, 17.59883
566.9630, 17.21792
567.4451, 15.93987
567.9272, 15.43461
568.4093, 16.00547
568.8914, 16.90228
569.3735, 16.97004
569.8557, 16.38332
570.3378, 15.99756
570.8199, 16.24364
571.3020, 16.69802
571.7841, 16.82101
572.2662, 16.67889
572.7484, 16.51671
573.2305, 16.37227
573.7126, 16.32451
574.1947, 16.56635
574.6768, 17.13914
575.1589, 17.33573
575.6411, 16.39774
576.1232, 15.34233
576.6053, 14.90491
577.0874, 15.58351
577.5695, 16.17236
578.0516, 16.80599
578.5338, 17.25592
579.0159, 17.11175
579.4980, 16.18521
579.9801, 15.33213
580.4622, 14.73246
580.9443, 14.34133
581.4265, 14.04906
581.9086, 13.85566
582.3907, 13.75911
582.8728, 13.61219
583.3549, 13.59625
583.8370, 14.33809
584.3192, 15.82291
584.8013, 17.02180
585.2834, 16.90787
585.7655, 16.22233
586.2476, 15.84366
586.7297, 16.12146
587.2118, 16.21180
587.6939, 15.54514
588.1760, 14.56093
588.6581, 13.81910
589.1403, 13.14843
589.6224, 13.07421
590.1045, 14.04428
590.5866, 15.65350
591.0687, 16.53409
591.5508, 16.46563
592.0330, 16.13809
592.5151, 15.70868
592.9972, 15.20714
593.4793, 15.02606
593.9614, 15.19570
594.4435, 15.45653
594.9257, 15.63717
595.4078, 15.74332
595.8899, 15.80396
596.3720, 15.82627
596.8541, 15.77304
597.3362, 15.59367
597.8184, 15.31996
598.3005, 14.97601
598.7826, 14.31728
599.2647, 13.94146
599.7468, 14.56731
600.2289, 15.66215
600.7111, 16.04872
601.1932, 14.40532
601.6753, 13.12349
602.1574, 12.88214
602.6395, 13.63037
603.1216, 14.77430
603.6038, 16.87391
604.0859, 18.36202
604.5680, 18.10239
605.0501, 15.92761
605.5322, 14.66563
606.0143, 14.38292
606.4965, 14.66890
606.9786, 15.42236
607.4607, 16.42118
607.9428, 16.88470
608.4249, 16.54741
608.9070, 15.98347
609.3892, 15.66234
609.8713, 15.55246
610.3534, 15.58826
610.8355, 16.06367
611.3176, 16.36371
611.7997, 15.97125
612.2819, 15.11765
612.7640, 14.66160
613.2461, 15.24271
613.7282, 15.79234
614.2103, 15.89888
614.6924, 15.52773
615.1746, 15.45082
615.6567, 15.86660
616.1388, 16.20202
616.6209, 15.92855
617.1030, 15.01649
617.5851, 14.56564
618.0673, 14.65389
618.5494, 15.08605
619.0315, 15.97845
619.5136, 17.04503
619.9957, 17.34681
620.4778, 16.32125
620.9600, 15.14537
621.4421, 15.24628
621.9242, 15.99433
622.4063, 16.10664
622.8884, 13.77507
623.3705, 12.00445
623.8527, 12.43189
624.3348, 14.73387
624.8169, 16.44703
625.2990, 17.14631
625.7811, 17.38355
626.2632, 17.28600
626.7454, 16.83834
627.2275, 16.23101
627.7096, 15.34730
628.1917, 14.60809
628.6738, 14.40083
629.1559, 14.68571
629.6381, 15.09870
630.1202, 15.67550
630.6023, 16.04288
631.0844, 15.52475
631.5665, 14.51590
632.0486, 13.83874
632.5308, 13.78213
633.0129, 14.05303
633.4950, 14.79031
633.9771, 15.67059
634.4592, 16.08826
634.9413, 15.18751
635.4235, 14.49144
635.9056, 14.68318
636.3877, 15.58931
636.8698, 15.98518
637.3519, 15.58821
637.8340, 15.13227
638.3162, 14.93372
638.7983, 14.98355
639.2804, 14.86118
639.7625, 14.53537
640.2446, 14.21136
640.7267, 14.02173
641.2089, 13.96920
641.6910, 14.12871
642.1731, 14.53464
642.6552, 14.90489
643.1373, 14.80694
643.6194, 14.57096
644.1016, 14.68550
644.5837, 15.59958
645.0658, 16.33040
645.5479, 16.35924
646.0300, 15.95769
646.5121, 15.56082
646.9943, 15.20792
647.4764, 14.87775
647.9585, 14.46877
648.4406, 14.08568
648.9227, 14.20103
649.4048, 15.01766
649.8870, 15.60439
650.3691, 15.47633
650.8512, 14.83321
651.3333, 14.47813
651.8154, 14.41325
652.2975, 14.59643
652.7797, 15.39343
653.2618, 16.25308
653.7439, 16.19035
654.2260, 15.09343
654.7081, 14.17181
655.1902, 14.34956
655.6724, 14.91281
656.1545, 15.30269
656.6366, 15.59893
657.1187, 15.33079
657.6008, 13.52576
658.0829, 11.65676
658.5651, 11.41212
659.0472, 13.60658
659.5293, 15.26880
660.0114, 15.99663
660.4935, 16.03679
660.9756, 15.76970
661.4578, 15.21049
661.9399, 14.59696
662.4220, 13.91367
662.9041, 13.32870
663.3862, 13.16093
663.8683, 13.33832
664.3505, 13.57003
664.8326, 13.53235
665.3147, 13.62233
665.7968, 14.39513
666.2789, 15.80435
666.7610, 16.49192
667.2432, 15.33039
667.7253, 14.06135
668.2074, 13.55975
668.6895, 14.01220
669.1716, 14.29596
669.6537, 14.31610
670.1359, 14.35376
670.6180, 14.70592
671.1001, 15.35523
671.5822, 15.87529
672.0643, 16.22373
672.5464, 16.45876
673.0286, 16.63813
673.5107, 16.75398
673.9928, 16.79280
674.4749, 16.75427
674.9570, 16.62978
675.4391, 16.29692
675.9213, 15.89887
676.4034, 15.67295
676.8855, 16.01162
677.3676, 16.16281
677.8497, 15.78827
678.3318, 15.11169
678.8140, 14.76732
679.2961, 14.86776
679.7782, 15.03332
680.2603, 15.12746
680.7424, 15.18871
681.2245, 15.49842
681.7067, 16.06096
682.1888, 16.42487
682.6709, 16.04451
683.1530, 15.38350
683.6351, 15.35030
684.1172, 15.93422
684.5994, 16.34237
685.0815, 15.93152
685.5636, 15.24826
686.0457, 14.63035
686.5278, 14.06086
687.0099, 13.84152
687.4921, 14.19968
687.9742, 14.81394
688.4563, 15.55180
688.9384, 16.64785
689.4205, 17.07788
689.9026, 16.63173
690.3848, 15.84929
690.8669, 15.45215
691.3490, 15.38963
691.8311, 15.23058
692.3132, 14.80603
692.7953, 14.44320
693.2775, 14.69540
693.7596, 15.28434
694.2417, 15.64630
694.7238, 15.36284
695.2059, 14.99894
695.6880, 14.76773
696.1702, 14.64752
696.6523, 14.56366
697.1344, 14.31410
697.6165, 14.36151
698.0986, 15.01967
698.5807, 16.08881
699.0629, 16.32203
699.5450, 15.51366
700.0271, 14.83900
700.5092, 14.97286
700.9913, 15.67308
701.4734, 16.22532
701.9556, 16.61827
702.4377, 16.69326
702.9198, 16.08167
703.4019, 15.24608
703.8840, 14.58092
704.3661, 14.11323
704.8483, 13.99878
705.3304, 14.91421
705.8125, 15.76079
706.2946, 15.65420
706.7767, 13.95038
707.2589, 13.11387
707.7410, 13.28883
708.2231, 14.13520
708.7052, 15.76622
709.1873, 18.22990
709.6694, 19.15984
710.1516, 18.07892
710.6337, 16.37757
711.1158, 15.53328
711.5979, 15.38387
712.0800, 15.68149
712.5621, 16.62931
713.0443, 17.40198
713.5264, 17.40344
714.0085, 16.89316
714.4906, 16.25926
714.9727, 15.09226
715.4548, 14.45581
715.9370, 14.80091
716.4191, 15.65986
716.9012, 15.95420
717.3833, 15.46179
717.8654, 15.24663
718.3475, 15.74740
718.8297, 16.59297
719.3118, 16.74246
719.7939, 16.28549
720.2760, 15.82938
720.7581, 15.75365
721.2402, 15.80063
721.7224, 15.68406
722.2045, 15.43986
722.6866, 15.23966
723.1687, 15.02449
723.6508, 14.99068
724.1329, 15.36941
724.6151, 16.16424
725.0972, 16.57712
725.5793, 16.43200
726.0614, 16.19953
726.5435, 16.19585
727.0256, 16.39490
727.5078, 15.94450
727.9899, 14.77590
728.4720, 13.79943
728.9541, 13.94178
729.4362, 14.70871
729.9183, 15.23650
730.4005, 15.43446
730.8826, 15.55802
731.3647, 15.64256
731.8468, 15.79471
732.3289, 16.17486
732.8110, 17.09778
733.2932, 17.44354
733.7753, 16.81375
734.2574, 15.91501
734.7395, 15.31722
735.2216, 15.04019
735.7037, 14.91403
736.1859, 14.91463
736.6680, 15.10182
737.1501, 15.72669
737.6322, 16.61527
738.1143, 17.22904
738.5964, 17.47970
739.0786, 17.35745
739.5607, 16.25391
740.0428, 14.96373
740.5249, 14.59482
741.0070, 17.03303
741.4891, 18.47197
741.9713, 17.39074
742.4534, 15.27796
742.9355, 14.29208
743.4176, 14.76142
743.8997, 15.38601
744.3818, 16.03984
744.8640, 16.56812
745.3461, 16.45075
745.8282, 15.81650
746.3103, 15.52136
746.7924, 16.19643
747.2745, 16.98176
747.7567, 16.88814
748.2388, 16.19652
748.7209, 15.61248
749.2030, 15.16311
749.6851, 15.11677
750.1672, 16.07295
750.6494, 17.58152
751.1315, 17.81525
751.6136, 16.01483
752.0957, 14.68316
752.5778, 14.79513
753.0599, 15.92561
753.5421, 16.45916
754.0242, 16.41212
754.5063, 16.21153
754.9884, 15.97923
755.4705, 15.79831
755.9526, 15.85877
756.4348, 16.10279
756.9169, 16.22337
757.3990, 15.85833
757.8811, 15.53486
758.3632, 15.49680
758.8453, 15.76317
759.3275, 16.24796
759.8096, 17.25448
760.2917, 17.91107
760.7738, 17.57542
761.2559, 16.41262
761.7380, 16.20915
762.2202, 16.99501
762.7023, 17.74160
763.1844, 17.48423
763.6665, 16.83091
764.1486, 16.79096
764.6307, 17.39447
765.1129, 17.74207
765.5950, 16.95812
766.0771, 16.09504
766.5592, 15.87394
767.0413, 16.51482
767.5234, 16.98273
768.0056, 17.26906
768.4877, 17.39626
768.9698, 17.32519
769.4519, 17.06084
769.9340, 16.85349
770.4161, 16.69757
770.8983, 16.71836
771.3804, 17.34587
771.8625, 18.09954
772.3446, 18.12951
772.8267, 17.26312
773.3088, 16.42627
773.7910, 16.12621
774.2731, 16.01145
774.7552, 15.79691
775.2373, 15.34443
775.7194, 15.11173
776.2015, 15.12827
776.6837, 15.32149
777.1658, 15.68936
777.6479, 16.22477
778.1300, 16.66149
778.6121, 16.98261
779.0942, 17.19755
779.5764, 17.25236
780.0585, 17.23408
780.5406, 17.33845
781.0227, 17.69668
781.5048, 17.77055
781.9869, 16.97145
782.4691, 15.97350
782.9512, 15.38595
783.4332, 15.23360
783.9153, 15.53680
784.3975, 16.49931
784.8796, 17.57734
785.3617, 18.26282
785.8438, 18.54799
786.3259, 18.27039
786.8080, 17.30123
787.2902, 16.35220
787.7723, 16.24334
788.2544, 16.60141
788.7365, 16.93914
789.2186, 17.23710
789.7007, 17.26624
790.1829, 16.58048
790.6650, 15.78666
791.1471, 15.52503
791.6292, 16.01777
792.1113, 16.59734
792.5934, 17.39057
793.0756, 17.99321
793.5577, 17.63379
794.0398, 16.52727
794.5219, 16.08633
795.0040, 16.66790
795.4861, 17.44057
795.9683, 17.59944
796.4504, 17.47438
796.9325, 17.54405
797.4146, 18.25714
797.8967, 18.52987
798.3788, 17.60563
798.8610, 16.40027
799.3431, 15.85407
799.8252, 16.11647
800.3073, 16.55750
800.7894, 17.24008
801.2715, 17.80252
801.7537, 17.54474
802.2358, 16.74282
802.7179, 16.42725
803.2000, 16.93844
803.6821, 17.50961
804.1642, 17.51028
804.6464, 17.24550
805.1285, 17.07474
805.6106, 17.05968
806.0927, 17.18455
806.5748, 17.54185
807.0569, 17.94550
807.5391, 18.25986
808.0212, 18.51328
808.5033, 18.35948
808.9854, 17.66758
809.4675, 16.91172
809.9496, 16.75572
810.4318, 16.96765
810.9139, 17.02724
811.3960, 16.76441
811.8781, 16.52765
812.3602, 16.44279
812.8423, 16.52427
813.3245, 16.80602
813.8066, 17.69614
814.2887, 18.04725
814.7708, 17.60111
815.2529, 16.97070
815.7350, 16.94651
816.2172, 17.48025
816.6993, 17.48133
817.1814, 16.70894
817.6635, 16.03753
818.1456, 16.70547
818.6277, 17.92026
819.1099, 18.55670
819.5920, 18.21131
820.0741, 17.77615
820.5562, 17.51906
821.0383, 17.31952
821.5204, 17.06315
822.0026, 16.70627
822.4847, 16.42531
822.9668, 16.24621
823.4489, 16.07857
823.9310, 15.72405
824.4131, 15.29655
824.8953, 15.24364
825.3774, 15.64694
825.8595, 16.15577
826.3416, 16.64889
826.8237, 17.02646
827.3058, 17.16567
827.7880, 16.96007
828.2701, 16.77298
828.7522, 16.51171
829.2343, 16.41993
829.7164, 16.75581
830.1985, 17.56241
830.6807, 18.18211
831.1628, 18.61180
831.6449, 18.75315
832.1270, 18.24622
832.6091, 17.48927
833.0912, 17.18283
833.5734, 17.42114
834.0555, 17.67393
834.5376, 17.64901
835.0197, 17.57699
835.5018, 17.66975
835.9839, 18.00395
836.4661, 17.96843
836.9482, 17.46280
837.4303, 16.83184
837.9124, 16.18186
838.3945, 15.58145
838.8766, 15.48193
839.3588, 15.86566
839.8409, 16.22111
840.3230, 15.90658
840.8051, 15.59656
841.2872, 16.06740
841.7693, 17.35230
842.2515, 18.17102
842.7336, 18.00818
843.2157, 17.63581
843.6978, 17.23563
844.1799, 16.83415
844.6620, 16.88005
845.1442, 17.40539
845.6263, 17.87627
846.1084, 17.84277
846.5905, 17.62362
847.0726, 17.90030
847.5547, 18.51522
848.0369, 18.71763
848.5190, 17.77326
849.0011, 16.70847
849.4832, 15.79241
849.9653, 15.10727
850.4474, 15.12379
850.9296, 16.12022
851.4117, 16.99042
851.8938, 17.37860
852.3759, 17.37679
852.8580, 17.07849
853.3401, 16.56072
853.8223, 16.18302
854.3044, 16.20670
854.7865, 16.34214
855.2686, 16.40179
855.7507, 16.42118
856.2328, 16.49042
856.7150, 16.69525
857.1971, 16.86519
857.6792, 17.03861
858.1613, 17.11236
858.6434, 16.73957
859.1255, 15.94668
859.6077, 15.40021
860.0898, 15.28912
860.5719, 15.50357
861.0540, 16.19120
861.5361, 17.05054
862.0182, 17.58817
862.5004, 17.48841
862.9825, 17.27736
863.4646, 17.01545
863.9467, 16.73446
864.4288, 16.40393
864.9109, 15.92731
865.3931, 15.97316
865.8752, 16.72559
866.3573, 17.57990
866.8394, 17.84159
867.3215, 17.65889
867.8036, 17.32223
868.2858, 16.86611
868.7679, 16.36485
869.2500, 15.69987
869.7321, 15.10362
870.2142, 14.77115
870.6964, 14.67547
871.1785, 14.96081
871.6606, 15.75136
872.1427, 16.61094
872.6248, 17.29015
873.1069, 17.74310
873.5891, 17.59999
874.0712, 16.86366
874.5533, 16.28998
875.0354, 16.73527
875.5175, 17.33621
875.9996, 17.33552
876.4818, 16.65048
876.9639, 16.19246
877.4460, 16.13770
877.9281, 16.15675
878.4102, 16.10320
878.8923, 16.16218
879.3745, 16.07261
879.8566, 16.29795
880.3387, 16.46461
880.8208, 16.56753
881.3029, 16.46106
881.7850, 15.69463
882.2672, 14.54366
882.7493, 13.95006
883.2314, 14.82618
883.7135, 15.53735
884.1956, 15.71086
884.6777, 15.46863
885.1599, 15.00049
885.6420, 14.26916
886.1241, 13.95336
886.6062, 14.35413
887.0883, 15.05383
887.5704, 15.68633
888.0526, 16.15161
888.5347, 16.23374
889.0168, 15.48121
889.4989, 14.89994
889.9810, 15.01806
890.4631, 15.34052
890.9453, 15.26031
891.4274, 14.60436
891.9095, 14.35432
892.3916, 14.65625
892.8737, 15.11367
893.3558, 15.22353
893.8380, 15.15835
894.3201, 15.34587
894.8022, 15.90843
895.2843, 16.26513
895.7664, 15.90925
896.2485, 15.39307
896.7307, 15.16260
897.2128, 15.30335
897.6949, 15.18116
898.1770, 14.68755
898.6591, 14.28194
899.1412, 14.31046
899.6234, 14.66130
900.1055, 15.10462
900.5876, 15.60324
901.0697, 15.92931
901.5518, 15.84667
902.0339, 15.63023
902.5161, 15.43336
902.9982, 15.25016
903.4803, 14.96412
903.9624, 14.49409
904.4445, 14.10362
904.9266, 13.82563
905.4088, 13.73072
905.8909, 14.27608
906.3730, 15.23215
906.8551, 15.61142
907.3372, 14.65468
907.8193, 13.50795
908.3015, 12.60212
908.7836, 12.11034
909.2657, 12.41026
909.7478, 14.50708
910.2299, 15.48732
910.7120, 14.78179
911.1942, 13.52767
911.6763, 13.25888
912.1584, 13.77910
912.6405, 14.03097
913.1226, 13.83076
913.6047, 13.54553
914.0869, 13.29943
914.5690, 13.21184
915.0511, 13.46693
915.5332, 14.24679
916.0153, 14.71846
916.4974, 14.86374
916.9796, 14.68528
917.4617, 13.93878
917.9438, 12.79209
918.4259, 12.63827
918.9080, 13.40222
919.3901, 14.12343
919.8723, 14.06619
920.3544, 13.80237
920.8365, 13.81740
921.3186, 14.05312
921.8007, 14.08800
922.2828, 13.67675
922.7650, 13.37733
923.2471, 13.35005
923.7292, 13.49444
924.2113, 13.63846
924.6934, 13.75457
925.1755, 13.61957
925.6577, 13.01885
926.1398, 12.43992
926.6219, 12.38468
927.1040, 12.58849
927.5861, 12.67894
928.0682, 12.02275
928.5504, 12.20213
929.0325, 13.76286
929.5146, 15.37610
929.9967, 15.40370
930.4788, 14.09684
930.9609, 13.50463
931.4431, 13.81675
931.9252, 14.21385
932.4073, 14.03315
932.8894, 13.65814
933.3715, 13.38594
933.8536, 13.25081
934.3358, 13.24074
934.8179, 13.41929
935.3000, 13.60600
935.7821, 13.76151
936.2642, 13.85629
936.7463, 13.63675
937.2285, 13.17246
937.7106, 12.96844
938.1927, 13.77381
938.6748, 14.47053
939.1569, 13.87769
939.6390, 12.59674
940.1212, 12.01125
940.6033, 12.78199
941.0854, 13.40808
941.5675, 13.80041
942.0496, 13.87952
942.5317, 13.24277
943.0139, 12.11358
943.4960, 11.66611
943.9781, 12.19281
944.4602, 12.80862
944.9423, 12.89723
945.4244, 12.72322
945.9066, 12.47212
946.3887, 12.08941
946.8708, 11.98878
947.3529, 12.28163
947.8350, 12.59877
948.3171, 12.67422
948.7993, 12.58953
949.2814, 12.65262
949.7635, 12.85468
950.2456, 13.13384
950.7277, 13.54891
951.2098, 13.93347
951.6920, 14.17615
952.1741, 14.30358
952.6562, 14.47545
953.1383, 14.85970
953.6204, 14.76639
954.1025, 13.86554
954.5847, 12.78308
955.0668, 12.63977
955.5489, 13.15139
956.0310, 13.60098
956.5131, 13.83685
956.9952, 13.86981
957.4774, 13.57251
957.9595, 13.15828
958.4416, 12.76518
958.9237, 12.30146
959.4058, 12.40018
959.8879, 13.20488
960.3701, 13.92441
960.8522, 13.83026
961.3343, 13.26798
961.8164, 12.89004
962.2985, 12.69456
962.7806, 12.55440
963.2628, 12.39982
963.7449, 12.30355
964.2270, 12.33352
964.7091, 12.43477
965.1912, 12.36185
965.6733, 12.05921
966.1555, 12.24866
966.6376, 13.35987
967.1197, 14.45157
967.6018, 13.93979
968.0839, 12.63726
968.5660, 11.90247
969.0482, 12.37057
969.5303, 12.75147
970.0124, 12.55649
970.4945, 12.41839
970.9766, 12.94588
971.4587, 14.16739
971.9409, 14.82750
972.4230, 14.90454
972.9051, 14.50972
973.3872, 13.12457
973.8693, 11.75551
974.3514, 11.62058
974.8336, 12.55468
975.3157, 13.15919
975.7978, 12.88698
976.2799, 12.72466
976.7620, 12.97005
977.2441, 13.39437
977.7263, 13.39424
978.2084, 13.05828
978.6905, 12.87371
979.1726, 13.02931
979.6547, 13.24635
980.1368, 13.39948
980.6190, 13.45764
981.1010, 13.36263
981.5831, 13.01964
982.0652, 12.78892
982.5474, 12.67775
983.0295, 12.65879
983.5116, 12.79870
983.9937, 13.00065
984.4758, 12.88527
984.9579, 12.50834
985.4401, 12.32988
985.9222, 12.76694
986.4043, 13.28864
986.8864, 13.76769
987.3685, 14.12302
987.8506, 14.01786
988.3328, 13.34136
988.8149, 13.00231
989.2970, 13.36829
989.7791, 13.75337
990.2612, 12.81910
990.7433, 11.39814
991.2255, 10.96595
991.7076, 12.32667
992.1897, 13.31235
992.6718, 13.15791
993.1539, 12.73094
993.6360, 12.50410
994.1182, 12.47580
994.6003, 12.56741
995.0824, 12.78018
995.5645, 13.07534
996.0466, 13.66088
996.5287, 14.12599
997.0109, 13.93257
997.4930, 13.28998
997.9751, 12.98219
998.4572, 13.30070
998.9393, 13.60730
999.4214, 13.83072
999.9036, 13.95302
1000.386, 13.87677
1000.868, 13.66991
1001.350, 13.59195
1001.832, 13.73295
1002.314, 13.76554
1002.796, 13.45802
1003.278, 12.98112
1003.760, 12.32943
1004.243, 11.44824
1004.725, 11.41444
1005.207, 12.37287
1005.689, 13.34944
1006.171, 13.88594
1006.653, 14.05818
1007.135, 13.84695
1007.617, 13.38980
1008.100, 13.04931
1008.582, 13.10026
1009.064, 13.09552
1009.546, 12.83214
1010.028, 12.57907
1010.510, 12.81380
1010.992, 13.49683
1011.474, 13.72787
1011.956, 13.38286
1012.439, 12.97214
1012.921, 12.99732
1013.403, 13.10953
1013.885, 12.93032
1014.367, 12.41969
1014.849, 12.21925
1015.331, 12.44923
1015.813, 12.75174
1016.296, 13.05541
1016.778, 13.27848
1017.260, 13.13589
1017.742, 12.74701
1018.224, 12.45769
1018.706, 12.41703
1019.188, 12.45642
1019.670, 12.48647
1020.152, 12.58291
1020.635, 12.86125
1021.117, 13.39066
1021.599, 13.64034
1022.081, 13.58473
1022.563, 13.44996
1023.045, 13.38355
1023.527, 13.36111
1024.009, 13.36644
1024.492, 13.39367
1024.974, 13.41909
1025.456, 13.54840
1025.938, 13.47530
1026.420, 13.01163
1026.902, 12.46854
1027.384, 12.62744
1027.866, 13.27201
1028.349, 13.43520
1028.831, 12.78216
1029.313, 12.13482
1029.795, 11.98152
1030.277, 12.07377
1030.759, 12.23497
1031.241, 12.45926
1031.723, 12.71399
1032.205, 13.02818
1032.688, 13.19928
1033.170, 13.00220
1033.652, 12.68655
1034.134, 12.60953
1034.616, 12.71893
1035.098, 12.88211
1035.580, 13.26365
1036.062, 13.36184
1036.544, 12.84677
1037.027, 12.36841
1037.509, 12.97783
1037.991, 14.45296
1038.473, 15.14168
1038.955, 14.90269
1039.437, 14.31832
1039.919, 13.42042
1040.401, 12.66676
1040.884, 12.48436
1041.366, 12.80001
1041.848, 12.84268
1042.330, 12.48316
1042.812, 12.48378
1043.294, 13.24549
1043.776, 14.10588
1044.258, 13.97757
1044.740, 13.30554
1045.223, 12.85421
1045.705, 12.84715
1046.187, 12.96604
1046.669, 13.35102
1047.151, 13.58069
1047.633, 13.25839
1048.115, 12.49373
1048.597, 12.24701
1049.079, 12.45829
1049.562, 12.64064
1050.044, 12.28408
1050.526, 12.04090
1051.008, 12.51185
1051.490, 13.33131
1051.972, 13.70077
1052.454, 13.49414
1052.936, 13.29527
1053.419, 13.16540
1053.901, 13.04306
1054.383, 12.78339
1054.865, 12.53202
1055.347, 12.48454
1055.829, 12.66074
1056.311, 12.97044
1056.793, 13.64743
1057.276, 14.10301
1057.758, 14.11470
1058.240, 13.82464
1058.722, 13.66777
1059.204, 13.57286
1059.686, 13.14064
1060.168, 12.00507
1060.650, 11.18989
1061.132, 11.61863
1061.615, 12.44858
1062.097, 12.88321
1062.579, 12.84419
1063.061, 13.00378
1063.543, 13.39015
1064.025, 13.67349
1064.507, 13.58899
1064.989, 13.32566
1065.471, 12.99898
1065.954, 12.68943
1066.436, 12.59890
1066.918, 13.44398
1067.400, 13.35745
1067.882, 11.78901
1068.364, 10.02951
1068.846, 9.655082
1069.328, 10.34028
1069.811, 11.38158
1070.293, 12.66747
1070.775, 13.36424
1071.257, 12.32242
1071.739, 11.33846
1072.221, 11.34663
1072.703, 12.00759
1073.185, 12.18829
1073.667, 11.89491
1074.150, 11.80273
1074.632, 12.12822
1075.114, 12.56708
1075.596, 13.06307
1076.078, 13.37517
1076.560, 13.11987
1077.042, 12.06260
1077.524, 11.55584
1078.006, 11.69347
1078.489, 12.05988
1078.971, 12.53889
1079.453, 13.01903
1079.935, 13.25544
1080.417, 13.31109
1080.899, 13.33942
1081.381, 13.39094
1081.863, 13.43937
1082.345, 13.61182
1082.828, 13.62000
1083.310, 13.00492
1083.792, 11.91241
1084.274, 11.43250
1084.756, 11.56685
1085.238, 11.74394
1085.720, 11.39390
1086.202, 11.20046
1086.685, 11.93877
1087.167, 13.02947
1087.649, 12.85196
1088.131, 11.16640
1088.613, 10.63801
1089.095, 11.87900
1089.577, 13.42124
1090.059, 13.96775
1090.542, 13.86115
1091.024, 13.23185
1091.506, 12.05736
1091.988, 11.61023
1092.470, 12.18767
1092.952, 12.83903
1093.434, 13.30803
1093.916, 13.53412
1094.398, 13.14697
1094.880, 12.46454
1095.363, 12.26183
1095.845, 13.03165
1096.327, 13.51528
1096.809, 13.38999
1097.291, 12.91780
1097.773, 12.10794
1098.255, 11.04665
1098.737, 10.34233
1099.220, 10.00031
1099.702, 10.04724
1100.184, 11.04174
1100.666, 11.82123
1101.148, 11.34115
1101.630, 10.53828
1102.112, 10.93085
1102.594, 12.81887
1103.077, 13.45333
1103.559, 12.62844
1104.041, 11.59608
1104.523, 11.19212
1105.005, 11.20496
1105.487, 11.68715
1105.969, 12.46757
1106.451, 12.68024
1106.933, 12.02030
1107.416, 11.55083
1107.898, 11.45268
1108.380, 11.61215
1108.862, 11.88500
1109.344, 12.30878
1109.826, 13.15540
1110.308, 14.50523
1110.790, 15.11223
1111.272, 14.23386
1111.755, 13.20865
1112.237, 12.39474
1112.719, 11.78467
1113.201, 11.41156
1113.683, 11.21503
1114.165, 10.91803
1114.647, 10.26207
1115.129, 10.02864
1115.612, 11.23622
1116.094, 12.37686
1116.576, 12.29111
1117.058, 11.08899
1117.540, 10.77958
1118.022, 11.28618
1118.504, 11.63828
1118.986, 11.03659
1119.469, 10.49450
1119.951, 10.85514
1120.433, 11.62707
1120.915, 12.07218
1121.397, 12.05825
1121.879, 12.25115
1122.361, 12.69032
1122.843, 13.07500
1123.325, 13.20420
1123.807, 13.13568
1124.290, 12.79860
1124.772, 12.30520
1125.254, 12.06964
1125.736, 12.32992
1126.218, 12.28492
1126.700, 11.74105
1127.182, 11.19843
1127.664, 11.41151
1128.147, 11.93761
1128.629, 11.95627
1129.111, 11.44234
1129.593, 11.07222
1130.075, 10.99522
1130.557, 11.19674
1131.039, 11.86051
1131.521, 12.55766
1132.004, 12.22700
1132.486, 11.28362
1132.968, 11.01099
1133.450, 11.77122
1133.932, 12.31794
1134.414, 11.71904
1134.896, 11.19202
1135.378, 11.36452
1135.860, 12.05069
1136.343, 12.52220
1136.825, 12.78728
1137.307, 12.86226
1137.789, 12.72202
1138.271, 12.47638
1138.753, 11.97845
1139.235, 11.58419
1139.717, 11.70602
1140.199, 12.35754
1140.682, 12.25850
1141.164, 11.42281
1141.646, 10.85960
1142.128, 11.42667
1142.610, 12.09743
1143.092, 11.81869
1143.574, 11.20073
1144.056, 11.25250
1144.539, 12.43327
1145.021, 12.57496
1145.503, 11.53706
1145.985, 10.48291
1146.467, 10.27334
1146.949, 10.53031
1147.431, 11.15161
1147.913, 11.88411
1148.396, 11.96608
1148.878, 10.78531
1149.360, 10.41227
1149.842, 11.22228
1150.324, 12.15253
1150.806, 11.83763
1151.288, 11.07358
1151.770, 11.24014
1152.252, 12.22351
1152.734, 12.56737
1153.217, 11.33423
1153.699, 10.55329
1154.181, 10.70689
1154.663, 11.21219
1155.145, 11.19771
1155.627, 10.90813
1156.109, 10.99655
1156.591, 11.55288
1157.074, 11.59918
1157.556, 9.558040
1158.038, 8.695829
1158.520, 10.57910
1159.002, 13.44088
1159.484, 12.80802
1159.966, 9.866993
1160.448, 8.386246
1160.931, 9.444378
1161.413, 10.55081
1161.895, 10.60537
1162.377, 10.37106
1162.859, 10.01923
1163.341, 9.714209
1163.823, 10.44487
1164.305, 11.90611
1164.787, 12.53786
1165.270, 11.42661
1165.752, 10.44893
1166.234, 10.77203
1166.716, 11.45233
1167.198, 11.89882
1167.680, 12.10275
1168.162, 11.74000
1168.644, 10.90047
1169.126, 10.45430
1169.609, 11.05855
1170.091, 11.76622
1170.573, 11.99128
1171.055, 12.04920
1171.537, 12.32572
1172.019, 12.86606
1172.501, 13.12592
1172.983, 13.10059
1173.466, 12.74630
1173.948, 11.49384
1174.430, 10.46916
1174.912, 10.70273
1175.394, 11.58242
1175.876, 12.08967
1176.358, 12.18018
1176.840, 11.99931
1177.323, 11.53640
1177.805, 11.17352
1178.287, 11.31334
1178.769, 11.57543
1179.251, 11.70226
1179.733, 11.68690
1180.215, 11.50049
1180.697, 11.03110
1181.179, 11.05917
1181.661, 11.72812
1182.144, 12.29879
1182.626, 11.93703
1183.108, 11.29599
1183.590, 11.00806
1184.072, 11.02980
1184.554, 10.98264
1185.036, 10.81682
1185.518, 10.73234
1186.001, 10.76165
1186.483, 10.86098
1186.965, 11.00665
1187.447, 11.17895
1187.929, 11.37466
1188.411, 11.58409
1188.893, 11.73871
1189.375, 11.83656
1189.858, 11.87285
1190.340, 11.83571
1190.822, 11.77386
1191.304, 11.87132
1191.786, 11.90366
1192.268, 11.44317
1192.750, 10.43598
1193.232, 10.03089
1193.714, 10.43102
1194.197, 10.91225
1194.679, 11.29283
1195.161, 11.57530
1195.643, 11.75004
1196.125, 11.83223
1196.607, 11.84416
1197.089, 11.78739
1197.571, 11.61543
1198.053, 11.25781
1198.536, 11.00099
1199.018, 10.95438
1199.500, 11.04170
1199.982, 11.16312
1200.464, 11.33096
1200.946, 11.60838
1201.428, 12.09103
1201.910, 12.28290
1202.393, 12.16789
1202.875, 11.74427
1203.357, 10.80953
1203.839, 9.856362
1204.321, 9.768497
1204.803, 10.23219
1205.285, 10.72237
1205.767, 11.15100
1206.250, 11.56535
1206.732, 12.04591
1207.214, 12.27388
1207.696, 11.95288
1208.178, 11.38726
1208.660, 10.99037
1209.142, 10.78217
1209.624, 10.81915
1210.106, 11.34383
1210.589, 11.62685
1211.071, 11.62777
1211.553, 11.49065
1212.035, 11.23195
1212.517, 10.95356
1212.999, 10.77057
1213.481, 10.70501
1213.963, 10.80224
1214.445, 11.17815
1214.928, 11.60890
1215.410, 12.21346
1215.892, 12.50543
1216.374, 11.63328
1216.856, 10.53241
1217.338, 11.09303
1217.820, 12.60608
1218.302, 13.30464
1218.785, 12.29337
1219.267, 11.41463
1219.749, 10.70483
1220.231, 10.17522
1220.713, 9.778936
1221.195, 9.589625
1221.677, 9.759329
1222.159, 10.22228
1222.641, 10.82478
1223.124, 11.87019
1223.606, 12.17644
1224.088, 11.51537
1224.570, 10.84245
1225.052, 11.26079
1225.534, 11.97977
1226.016, 11.83494
1226.498, 11.08715
1226.980, 10.75379
1227.463, 11.09072
1227.945, 11.41521
1228.427, 11.68410
1228.909, 11.87953
1229.391, 12.22346
1229.873, 12.30510
1230.355, 11.16519
1230.837, 9.321624
1231.320, 8.762736
1231.802, 10.00636
1232.284, 10.97596
1232.766, 11.46762
1233.248, 11.62696
1233.730, 11.35318
1234.212, 11.00537
1234.694, 10.89056
1235.177, 11.03219
1235.659, 11.49513
1236.141, 12.45524
1236.623, 12.71234
1237.105, 12.03665
1237.587, 11.29836
1238.069, 11.33020
1238.551, 11.62735
1239.033, 11.86373
1239.516, 11.97331
1239.998, 11.82065
1240.480, 11.37535
1240.962, 10.86328
1241.444, 10.28246
1241.926, 9.936275
1242.408, 10.37639
1242.890, 10.87187
1243.372, 10.65471
1243.855, 11.04465
1244.337, 11.32711
1244.819, 11.23346
1245.301, 11.81609
1245.783, 11.79042
1246.265, 11.62640
1246.747, 11.62368
1247.229, 11.66989
1247.712, 11.87955
1248.194, 12.02168
1248.676, 11.23766
1249.158, 9.648173
1249.640, 9.248485
1250.122, 10.38785
1250.604, 11.44468
1251.086, 10.99288
1251.568, 10.53975
1252.051, 11.02772
1252.533, 11.93416
1253.015, 11.95921
1253.497, 11.29666
1253.979, 11.02919
1254.461, 11.33993
1254.943, 11.66874
1255.425, 11.69710
1255.907, 11.69444
1256.390, 11.78789
1256.872, 11.89594
1257.354, 11.88428
1257.836, 11.74640
1258.318, 11.40383
1258.800, 10.83997
1259.282, 10.38204
1259.764, 10.03154
1260.247, 10.06245
1260.729, 10.71624
1261.211, 11.52723
1261.693, 11.57700
1262.175, 11.19142
1262.657, 11.12670
1263.139, 11.48840
1263.621, 11.65467
1264.104, 11.29264
1264.586, 11.14762
1265.068, 11.55336
1265.550, 11.88609
1266.032, 10.74353
1266.514, 9.144419
1266.996, 8.946067
1267.478, 10.30704
1267.960, 10.84051
1268.443, 9.911076
1268.925, 9.662827
1269.407, 10.79113
1269.889, 12.10561
1270.371, 12.13799
1270.853, 11.57013
1271.335, 11.08828
1271.817, 10.77395
1272.299, 10.62564
1272.782, 10.64236
1273.264, 10.88686
1273.746, 11.43663
1274.228, 11.89412
1274.710, 11.85061
1275.192, 11.57660
1275.674, 11.23847
1276.156, 10.87669
1276.639, 10.60837
1277.121, 10.43638
1277.603, 10.12416
1278.085, 9.580590
1278.567, 9.371692
1279.049, 10.49493
1279.531, 11.49574
1280.013, 11.26313
1280.495, 10.36330
1280.978, 10.33245
1281.460, 11.00940
1281.942, 11.36146
1282.424, 11.21023
1282.906, 10.96307
1283.388, 10.86123
1283.870, 10.64456
1284.352, 10.10067
1284.834, 9.533716
1285.317, 9.710120
1285.799, 10.33218
1286.281, 10.54495
1286.763, 10.24256
1287.245, 10.00023
1287.727, 9.708239
1288.209, 10.10360
1288.691, 11.67437
1289.173, 13.29449
1289.656, 13.24298
1290.138, 12.24240
1290.620, 11.25400
1291.102, 10.42082
1291.584, 10.30394
1292.066, 11.31932
1292.548, 11.70955
1293.030, 11.01822
1293.513, 10.22738
1293.995, 10.57990
1294.477, 11.28032
1294.959, 11.54030
1295.441, 11.34711
1295.923, 11.06151
1296.405, 10.64265
1296.887, 10.47854
1297.370, 10.62667
1297.852, 11.03389
1298.334, 12.16263
1298.816, 13.04239
1299.298, 12.72688
1299.780, 11.77013
1300.262, 11.15508
1300.744, 10.85847
1301.226, 10.63050
1301.708, 10.44217
1302.191, 10.34750
1302.673, 10.51386
1303.155, 10.60533
1303.637, 10.53512
1304.119, 10.29935
##END=



