##NAMES=Cosalite
##RRUFFID=R060988
##IDEAL CHEMISTRY=Pb^2+^_2_Bi^3+^_2_S^2-^_5_
##LOCALITY=San Nicolas mine, Badajoz Provence, Spain
##OWNER=RRUFF
##SOURCE=Bob Jenkins
##DESCRIPTION=Silver metallic prismatic crystals, exterior tarnish steel-blue, associated with quartz and yellowish-green crystals of a Bi oxide.
##STATUS=The identification of this mineral has been confirmed only by single crystal X-ray diffraction.
##URL=rruff.info/R060988
121.5281, 2146.321
122.0102, 2213.134
122.4923, 2329.336
122.9744, 2523.211
123.4565, 2809.370
123.9386, 3178.891
124.4208, 3622.888
124.9029, 4155.280
125.3850, 4765.255
125.8671, 5405.270
126.3492, 6108.767
126.8313, 6803.494
127.3135, 7466.102
127.7956, 8092.219
128.2777, 8658.276
128.7598, 9095.033
129.2419, 9412.058
129.7240, 9849.147
130.2061, 10492.95
130.6883, 11198.70
131.1704, 12124.45
131.6525, 13143.79
132.1346, 13772.00
132.6167, 13386.42
133.0988, 11799.57
133.5810, 10470.01
134.0631, 9617.563
134.5452, 8910.164
135.0273, 8227.340
135.5094, 7554.675
135.9915, 6941.370
136.4737, 6441.020
136.9558, 6062.234
137.4379, 5787.924
137.9200, 5643.703
138.4021, 5573.371
138.8842, 5568.854
139.3664, 5618.986
139.8485, 5691.791
140.3306, 5739.232
140.8127, 5730.270
141.2948, 5762.762
141.7769, 5822.678
142.2591, 5923.480
142.7412, 6080.638
143.2233, 6294.916
143.7054, 6549.296
144.1875, 6813.944
144.6696, 7078.078
145.1518, 7373.912
145.6339, 7752.647
146.1160, 8130.722
146.5981, 8432.262
147.0802, 8635.904
147.5623, 8783.231
148.0445, 8956.183
148.5266, 9274.257
149.0087, 9441.027
149.4908, 9410.069
149.9729, 9253.729
150.4550, 9019.097
150.9371, 8721.838
151.4193, 8401.873
151.9014, 8140.458
152.3835, 7979.740
152.8656, 7823.865
153.3477, 7672.392
153.8298, 7521.355
154.3120, 7360.010
154.7941, 7182.850
155.2762, 7006.706
155.7583, 6875.724
156.2404, 6790.583
156.7225, 6743.293
157.2047, 6765.886
157.6868, 6819.111
158.1689, 6832.667
158.6510, 6770.840
159.1331, 6681.333
159.6152, 6695.654
160.0974, 6857.562
160.5795, 7023.617
161.0616, 7194.304
161.5437, 7342.898
162.0258, 7414.700
162.5079, 7380.540
162.9901, 7269.550
163.4722, 7147.969
163.9543, 7019.397
164.4364, 6878.873
164.9185, 6710.505
165.4007, 6528.831
165.8828, 6368.717
166.3649, 6243.145
166.8470, 6147.919
167.3291, 6071.718
167.8112, 6017.083
168.2934, 5972.049
168.7755, 5936.773
169.2576, 5908.265
169.7397, 5879.168
170.2218, 5849.144
170.7039, 5813.440
171.1861, 5762.353
171.6682, 5690.996
172.1503, 5618.645
172.6324, 5553.677
173.1145, 5495.338
173.5966, 5439.985
174.0788, 5388.458
174.5609, 5336.980
175.0430, 5276.848
175.5251, 5201.784
176.0072, 5134.823
176.4893, 5095.470
176.9714, 5077.591
177.4536, 5051.702
177.9357, 5002.685
178.4178, 4944.891
178.8999, 4901.744
179.3820, 4876.451
179.8641, 4854.724
180.3463, 4824.558
180.8284, 4788.706
181.3105, 4763.414
181.7926, 4756.899
182.2747, 4761.666
182.7568, 4769.229
183.2390, 4783.310
183.7211, 4785.291
184.2032, 4751.286
184.6853, 4688.158
185.1674, 4643.798
185.6495, 4644.512
186.1317, 4659.213
186.6138, 4645.342
187.0959, 4596.622
187.5780, 4552.570
188.0601, 4548.106
188.5422, 4576.785
189.0244, 4593.335
189.5065, 4587.101
189.9886, 4560.367
190.4707, 4513.733
190.9528, 4444.739
191.4349, 4380.704
191.9171, 4339.598
192.3992, 4320.141
192.8813, 4313.709
193.3634, 4323.664
193.8455, 4341.750
194.3276, 4362.062
194.8098, 4384.781
195.2919, 4401.177
195.7740, 4401.810
196.2561, 4389.077
196.7382, 4379.708
197.2203, 4380.057
197.7025, 4381.122
198.1846, 4371.561
198.6667, 4351.789
199.1488, 4338.384
199.6309, 4350.356
200.1130, 4381.813
200.5951, 4394.281
201.0773, 4367.663
201.5594, 4338.033
202.0415, 4341.047
202.5236, 4372.931
203.0057, 4396.761
203.4878, 4380.435
203.9700, 4333.515
204.4521, 4304.517
204.9342, 4308.513
205.4163, 4318.645
205.8984, 4317.531
206.3805, 4305.431
206.8627, 4282.978
207.3448, 4240.263
207.8269, 4185.421
208.3090, 4150.738
208.7911, 4146.501
209.2732, 4151.575
209.7554, 4150.702
210.2375, 4145.740
210.7196, 4142.930
211.2017, 4148.628
211.6838, 4159.141
212.1659, 4162.839
212.6481, 4157.064
213.1302, 4148.506
213.6123, 4132.256
214.0944, 4115.657
214.5765, 4118.309
215.0586, 4173.736
215.5408, 4252.052
216.0229, 4276.532
216.5050, 4227.121
216.9871, 4171.209
217.4692, 4154.419
217.9513, 4160.366
218.4335, 4159.890
218.9156, 4130.238
219.3977, 4092.566
219.8798, 4091.317
220.3619, 4138.554
220.8440, 4181.924
221.3262, 4186.921
221.8083, 4169.982
222.2904, 4151.625
222.7725, 4134.280
223.2546, 4121.663
223.7367, 4122.817
224.2189, 4141.098
224.7010, 4154.574
225.1831, 4151.153
225.6652, 4136.111
226.1473, 4114.139
226.6294, 4082.956
227.1115, 4049.751
227.5937, 4020.764
228.0758, 3995.811
228.5579, 3978.314
229.0400, 3971.000
229.5221, 3972.196
230.0042, 3980.404
230.4864, 3997.407
230.9685, 4016.795
231.4506, 4036.073
231.9327, 4054.790
232.4148, 4064.768
232.8969, 4059.483
233.3791, 4046.105
233.8612, 4036.974
234.3433, 4035.467
234.8254, 4025.758
235.3075, 3981.473
235.7896, 3912.996
236.2718, 3881.587
236.7539, 3921.566
237.2360, 3984.019
237.7181, 4006.500
238.2002, 3985.729
238.6823, 3964.433
239.1645, 3971.723
239.6466, 3995.645
240.1287, 3999.725
240.6108, 3969.397
241.0929, 3931.582
241.5750, 3918.204
242.0572, 3927.286
242.5393, 3936.722
243.0214, 3942.545
243.5035, 3942.723
243.9856, 3929.155
244.4677, 3896.636
244.9499, 3867.061
245.4320, 3869.335
245.9141, 3897.705
246.3962, 3916.212
246.8783, 3911.323
247.3604, 3895.619
247.8426, 3885.031
248.3247, 3881.194
248.8068, 3872.550
249.2889, 3844.500
249.7710, 3801.370
250.2531, 3773.228
250.7352, 3776.096
251.2174, 3784.462
251.6995, 3774.701
252.1816, 3748.458
252.6637, 3727.263
253.1458, 3726.702
253.6279, 3742.828
254.1101, 3751.716
254.5922, 3752.312
255.0743, 3747.138
255.5564, 3738.240
256.0385, 3724.800
256.5207, 3702.842
257.0028, 3668.501
257.4849, 3626.408
257.9670, 3591.601
258.4491, 3562.248
258.9312, 3540.769
259.4134, 3531.930
259.8955, 3530.838
260.3776, 3532.163
260.8597, 3535.359
261.3418, 3532.938
261.8239, 3506.705
262.3060, 3436.184
262.7881, 3384.222
263.2703, 3369.083
263.7524, 3370.772
264.2345, 3371.330
264.7166, 3365.741
265.1987, 3351.958
265.6808, 3325.425
266.1630, 3275.512
266.6451, 3242.840
267.1272, 3240.457
267.6093, 3244.925
268.0914, 3241.460
268.5735, 3227.888
269.0557, 3207.792
269.5378, 3183.774
270.0199, 3154.665
270.5020, 3129.482
270.9841, 3097.259
271.4662, 3078.251
271.9484, 3094.919
272.4305, 3133.850
272.9126, 3157.890
273.3947, 3137.090
273.8768, 3077.190
274.3589, 3052.327
274.8411, 3117.011
275.3232, 3157.800
275.8053, 3129.975
276.2874, 3069.833
276.7695, 3033.897
277.2516, 3051.597
277.7338, 3103.145
278.2159, 3127.093
278.6980, 3103.317
279.1801, 3080.619
279.6622, 3057.296
280.1443, 3040.805
280.6265, 3042.420
281.1086, 3064.490
281.5907, 3092.014
282.0728, 3101.504
282.5549, 3089.202
283.0370, 3069.193
283.5192, 3029.764
284.0013, 2993.088
284.4834, 2976.786
284.9655, 2979.624
285.4476, 2982.247
285.9297, 2965.490
286.4119, 2928.249
286.8940, 2886.120
287.3761, 2823.696
287.8582, 2773.479
288.3403, 2756.470
288.8224, 2763.626
289.3046, 2769.683
289.7867, 2755.133
290.2688, 2727.260
290.7509, 2715.254
291.2330, 2727.382
291.7151, 2738.994
292.1973, 2742.970
292.6794, 2738.492
293.1615, 2722.173
293.6436, 2688.004
294.1257, 2648.060
294.6078, 2619.531
295.0900, 2603.514
295.5721, 2590.007
296.0542, 2577.073
296.5363, 2563.524
297.0184, 2548.996
297.5005, 2534.305
297.9827, 2515.229
298.4648, 2482.545
298.9469, 2440.494
299.4290, 2411.120
299.9111, 2404.649
300.3932, 2406.868
300.8754, 2398.237
301.3575, 2378.259
301.8396, 2362.546
302.3217, 2365.859
302.8038, 2374.280
303.2859, 2361.093
303.7681, 2319.954
304.2502, 2278.373
304.7323, 2265.020
305.2144, 2279.841
305.6965, 2286.698
306.1786, 2278.013
306.6608, 2264.638
307.1429, 2253.676
307.6250, 2245.337
308.1071, 2237.515
308.5892, 2229.016
309.0714, 2219.893
309.5535, 2210.591
310.0356, 2202.753
310.5177, 2192.968
310.9998, 2176.958
311.4819, 2158.887
311.9640, 2145.413
312.4461, 2139.215
312.9283, 2139.071
313.4104, 2142.471
313.8925, 2159.034
314.3746, 2164.786
314.8567, 2155.689
315.3388, 2138.670
315.8210, 2114.663
316.3031, 2086.237
316.7852, 2063.558
317.2673, 2062.202
317.7494, 2092.977
318.2315, 2096.520
318.7137, 2050.416
319.1958, 2000.335
319.6779, 1958.828
320.1600, 1928.604
320.6421, 1911.480
321.1242, 1911.257
321.6064, 1924.383
322.0885, 1928.410
322.5706, 1918.401
323.0527, 1905.863
323.5348, 1887.937
324.0169, 1871.636
324.4991, 1867.058
324.9812, 1879.226
325.4633, 1897.693
325.9454, 1904.132
326.4275, 1894.748
326.9096, 1892.373
327.3918, 1904.542
327.8739, 1924.620
328.3560, 1955.146
328.8381, 1995.366
329.3202, 2022.539
329.8023, 2010.073
330.2845, 1967.647
330.7666, 1939.512
331.2487, 1934.896
331.7308, 1937.356
332.2129, 1934.107
332.6950, 1926.728
333.1772, 1920.327
333.6593, 1915.855
334.1414, 1913.456
334.6235, 1913.143
335.1056, 1914.933
335.5877, 1919.667
336.0699, 1929.774
336.5520, 1942.632
337.0341, 1949.447
337.5162, 1948.378
337.9983, 1943.954
338.4804, 1934.542
338.9626, 1923.469
339.4447, 1919.113
339.9268, 1925.242
340.4089, 1934.849
340.8910, 1935.658
341.3731, 1923.289
341.8553, 1911.260
342.3374, 1899.782
342.8195, 1888.941
343.3016, 1878.159
343.7837, 1867.745
344.2658, 1859.789
344.7480, 1857.032
345.2301, 1860.184
345.7122, 1857.285
346.1943, 1839.029
346.6764, 1824.939
347.1585, 1827.268
347.6407, 1836.736
348.1228, 1835.653
348.6049, 1813.702
349.0870, 1781.284
349.5691, 1767.714
350.0512, 1784.003
350.5334, 1797.709
351.0155, 1804.593
351.4976, 1807.106
351.9797, 1805.220
352.4618, 1799.529
352.9439, 1794.660
353.4261, 1798.519
353.9082, 1810.991
354.3903, 1812.853
354.8724, 1796.959
355.3545, 1777.233
355.8366, 1758.673
356.3188, 1743.050
356.8009, 1735.396
357.2830, 1745.984
357.7651, 1761.993
358.2472, 1759.684
358.7293, 1737.065
359.2115, 1716.209
359.6936, 1707.690
360.1757, 1708.765
360.6578, 1713.849
361.1399, 1729.091
361.6220, 1736.037
362.1041, 1715.954
362.5862, 1681.050
363.0684, 1660.248
363.5505, 1663.507
364.0326, 1674.712
364.5147, 1669.123
364.9968, 1637.600
365.4789, 1629.363
365.9611, 1663.158
366.4432, 1708.872
366.9253, 1754.481
367.4074, 1793.637
367.8895, 1811.001
368.3716, 1791.596
368.8538, 1740.078
369.3359, 1709.593
369.8180, 1719.430
370.3001, 1728.203
370.7822, 1727.778
371.2643, 1723.438
371.7465, 1722.352
372.2286, 1727.031
372.7107, 1733.712
373.1928, 1736.596
373.6749, 1735.438
374.1570, 1731.211
374.6392, 1723.546
375.1213, 1713.083
375.6034, 1694.527
376.0855, 1671.828
376.5676, 1658.602
377.0497, 1670.625
377.5319, 1699.419
378.0140, 1713.285
378.4961, 1708.525
378.9782, 1698.399
379.4603, 1682.379
379.9424, 1667.188
380.4246, 1663.764
380.9067, 1679.999
381.3888, 1695.977
381.8709, 1690.261
382.3530, 1668.666
382.8351, 1660.051
383.3173, 1678.231
383.7994, 1700.535
384.2815, 1688.559
384.7636, 1638.873
385.2457, 1605.927
385.7278, 1613.752
386.2100, 1632.558
386.6921, 1633.462
387.1742, 1616.849
387.6563, 1602.774
388.1384, 1606.817
388.6205, 1626.256
389.1027, 1636.219
389.5848, 1626.239
390.0669, 1620.002
390.5490, 1624.851
391.0311, 1634.634
391.5132, 1644.222
391.9954, 1651.337
392.4775, 1652.089
392.9596, 1637.293
393.4417, 1597.193
393.9238, 1572.627
394.4059, 1576.897
394.8881, 1585.073
395.3702, 1585.973
395.8523, 1581.633
396.3344, 1580.289
396.8165, 1588.094
397.2986, 1601.754
397.7808, 1612.227
398.2629, 1618.737
398.7450, 1624.881
399.2271, 1637.604
399.7092, 1647.715
400.1913, 1641.505
400.6735, 1612.966
401.1556, 1587.699
401.6377, 1585.290
402.1198, 1599.006
402.6019, 1613.407
403.0840, 1626.775
403.5662, 1634.049
404.0483, 1626.545
404.5304, 1603.865
405.0125, 1591.400
405.4946, 1598.554
405.9767, 1608.957
406.4589, 1614.117
406.9410, 1614.366
407.4231, 1610.784
407.9052, 1603.205
408.3873, 1595.169
408.8694, 1596.511
409.3516, 1616.725
409.8336, 1632.863
410.3158, 1651.886
410.7979, 1661.736
411.2800, 1644.072
411.7621, 1603.340
412.2442, 1568.761
412.7263, 1570.133
413.2085, 1605.280
413.6906, 1628.609
414.1727, 1637.809
414.6548, 1637.754
415.1369, 1622.480
415.6190, 1602.993
416.1012, 1595.705
416.5833, 1608.300
417.0654, 1624.740
417.5475, 1627.796
418.0296, 1618.434
418.5117, 1604.994
418.9939, 1585.753
419.4760, 1568.935
419.9581, 1564.369
420.4402, 1570.886
420.9223, 1582.255
421.4044, 1601.944
421.8866, 1622.376
422.3687, 1636.390
422.8508, 1644.421
423.3329, 1651.911
423.8150, 1663.678
424.2971, 1674.860
424.7793, 1667.879
425.2614, 1617.873
425.7435, 1582.318
426.2256, 1567.387
426.7077, 1566.921
427.1898, 1581.942
427.6720, 1608.700
428.1541, 1632.172
428.6362, 1635.901
429.1183, 1619.422
429.6004, 1604.959
430.0826, 1593.055
430.5647, 1582.587
431.0468, 1570.232
431.5289, 1559.882
432.0110, 1558.819
432.4931, 1571.511
432.9753, 1585.295
433.4574, 1583.073
433.9395, 1565.733
434.4216, 1550.964
434.9037, 1542.681
435.3858, 1537.593
435.8680, 1527.754
436.3501, 1514.840
436.8322, 1518.407
437.3143, 1567.943
437.7964, 1617.864
438.2785, 1619.732
438.7607, 1581.402
439.2428, 1545.911
439.7249, 1535.293
440.2070, 1543.354
440.6891, 1552.946
441.1712, 1570.353
441.6534, 1580.196
442.1355, 1575.968
442.6176, 1568.191
443.0997, 1563.557
443.5818, 1563.616
444.0639, 1568.856
444.5461, 1581.500
445.0282, 1600.103
445.5103, 1608.363
445.9924, 1599.867
446.4745, 1591.097
446.9566, 1581.772
447.4388, 1577.057
447.9209, 1586.503
448.4030, 1613.762
448.8851, 1638.708
449.3672, 1639.289
449.8493, 1620.458
450.3315, 1605.747
450.8136, 1599.547
451.2957, 1594.907
451.7778, 1584.909
452.2599, 1570.976
452.7420, 1561.011
453.2242, 1554.546
453.7063, 1553.532
454.1884, 1564.983
454.6705, 1582.291
455.1526, 1590.079
455.6347, 1582.277
456.1169, 1566.468
456.5990, 1554.137
457.0811, 1541.838
457.5632, 1542.901
458.0453, 1570.106
458.5274, 1596.540
459.0095, 1608.795
459.4916, 1609.232
459.9738, 1605.580
460.4559, 1601.579
460.9380, 1598.159
461.4201, 1599.774
461.9022, 1609.860
462.3843, 1610.050
462.8665, 1583.967
463.3486, 1555.631
463.8307, 1544.536
464.3128, 1551.020
464.7949, 1564.098
465.2770, 1588.190
465.7592, 1611.182
466.2413, 1610.034
466.7234, 1585.006
467.2055, 1564.001
467.6876, 1563.374
468.1697, 1578.064
468.6519, 1590.881
469.1340, 1604.212
469.6161, 1612.410
470.0982, 1615.984
470.5803, 1613.273
471.0624, 1599.464
471.5446, 1576.075
472.0267, 1552.071
472.5088, 1533.849
472.9909, 1521.944
473.4730, 1526.347
473.9551, 1569.999
474.4373, 1593.525
474.9194, 1563.451
475.4015, 1518.557
475.8836, 1501.959
476.3657, 1523.856
476.8478, 1551.093
477.3300, 1551.415
477.8121, 1533.180
478.2942, 1529.084
478.7763, 1545.671
479.2584, 1563.291
479.7405, 1569.755
480.2227, 1565.068
480.7048, 1553.105
481.1869, 1524.458
481.6690, 1499.384
482.1511, 1480.632
482.6332, 1472.162
483.1154, 1486.992
483.5975, 1526.474
484.0796, 1565.923
484.5617, 1573.850
485.0438, 1544.936
485.5259, 1528.316
486.0081, 1539.459
486.4902, 1546.740
486.9723, 1538.825
487.4544, 1523.293
487.9365, 1509.444
488.4186, 1500.282
488.9008, 1497.692
489.3829, 1507.394
489.8650, 1528.146
490.3471, 1544.096
490.8292, 1553.967
491.3113, 1557.025
491.7935, 1549.582
492.2756, 1534.213
492.7577, 1519.297
493.2398, 1501.178
493.7219, 1488.563
494.2040, 1490.117
494.6862, 1500.513
495.1683, 1507.734
495.6504, 1507.912
496.1325, 1508.815
496.6146, 1523.777
497.0967, 1561.711
497.5789, 1573.105
498.0610, 1526.871
498.5431, 1488.932
499.0252, 1494.167
499.5073, 1520.217
499.9894, 1525.716
500.4716, 1491.549
500.9537, 1450.269
501.4358, 1452.403
501.9179, 1497.591
502.4000, 1530.995
502.8821, 1543.645
503.3643, 1544.585
503.8464, 1538.151
504.3285, 1525.799
504.8106, 1511.540
505.2927, 1490.733
505.7748, 1473.526
506.2570, 1467.286
506.7391, 1469.620
507.2212, 1478.493
507.7033, 1493.462
508.1854, 1504.304
508.6675, 1494.788
509.1496, 1456.946
509.6317, 1436.385
510.1139, 1450.173
510.5960, 1461.938
511.0781, 1454.526
511.5602, 1438.496
512.0424, 1431.888
512.5245, 1442.203
513.0066, 1458.589
513.4887, 1468.708
513.9708, 1472.618
514.4529, 1469.521
514.9351, 1455.295
515.4172, 1442.100
515.8993, 1443.477
516.3814, 1454.459
516.8635, 1458.311
517.3456, 1439.494
517.8278, 1427.023
518.3099, 1447.346
518.7920, 1481.682
519.2741, 1492.619
519.7562, 1470.699
520.2383, 1441.832
520.7205, 1437.319
521.2026, 1460.000
521.6847, 1478.320
522.1668, 1499.638
522.6489, 1507.287
523.1310, 1482.908
523.6132, 1448.686
524.0953, 1433.863
524.5774, 1447.479
525.0595, 1468.075
525.5416, 1474.844
526.0237, 1470.233
526.5059, 1464.623
526.9880, 1458.599
527.4701, 1453.239
527.9522, 1449.769
528.4343, 1447.566
528.9164, 1443.889
529.3986, 1437.559
529.8807, 1431.436
530.3628, 1430.959
530.8449, 1428.841
531.3270, 1411.487
531.8091, 1379.924
532.2913, 1353.838
532.7734, 1353.775
533.2554, 1375.840
533.7375, 1375.797
534.2197, 1328.714
534.7018, 1303.833
535.1839, 1333.214
535.6660, 1380.444
536.1481, 1418.653
536.6302, 1443.182
537.1124, 1452.913
537.5945, 1438.573
538.0766, 1411.908
538.5587, 1392.603
539.0408, 1381.480
539.5229, 1375.479
540.0051, 1373.638
540.4872, 1375.207
540.9693, 1378.121
541.4514, 1378.857
541.9335, 1387.883
542.4156, 1415.398
542.8978, 1443.200
543.3799, 1461.909
543.8620, 1469.995
544.3441, 1466.011
544.8262, 1446.958
545.3083, 1422.127
545.7905, 1414.721
546.2726, 1428.459
546.7547, 1435.983
547.2368, 1431.471
547.7189, 1419.716
548.2010, 1400.878
548.6832, 1377.298
549.1653, 1361.253
549.6474, 1357.166
550.1295, 1360.558
550.6116, 1372.516
551.0938, 1388.982
551.5759, 1401.029
552.0580, 1405.675
552.5401, 1405.397
553.0222, 1402.966
553.5043, 1397.949
553.9865, 1393.575
554.4686, 1391.570
554.9507, 1388.290
555.4328, 1382.687
555.9149, 1375.346
556.3970, 1364.929
556.8792, 1350.829
557.3613, 1342.184
557.8434, 1352.625
558.3255, 1375.420
558.8076, 1390.660
559.2897, 1396.978
559.7719, 1390.815
560.2540, 1362.388
560.7361, 1322.029
561.2182, 1309.284
561.7003, 1345.734
562.1824, 1370.268
562.6646, 1363.383
563.1467, 1348.604
563.6288, 1347.854
564.1109, 1359.589
564.5930, 1367.188
565.0751, 1358.563
565.5573, 1339.416
566.0394, 1326.269
566.5215, 1320.552
567.0036, 1314.415
567.4857, 1308.168
567.9678, 1298.747
568.4500, 1274.902
568.9321, 1241.473
569.4142, 1232.461
569.8963, 1285.068
570.3784, 1339.820
570.8605, 1346.014
571.3427, 1320.970
571.8248, 1304.775
572.3069, 1310.480
572.7890, 1327.299
573.2711, 1343.347
573.7532, 1359.804
574.2354, 1363.781
574.7175, 1340.131
575.1996, 1322.806
575.6817, 1326.425
576.1638, 1338.381
576.6459, 1343.645
577.1281, 1338.718
577.6102, 1332.128
578.0923, 1333.431
578.5744, 1336.756
579.0565, 1322.506
579.5386, 1290.200
580.0208, 1278.020
580.5029, 1313.853
580.9850, 1376.070
581.4671, 1407.435
581.9492, 1393.899
582.4313, 1370.287
582.9135, 1310.620
583.3956, 1263.886
583.8777, 1271.778
584.3598, 1317.419
584.8419, 1357.304
585.3240, 1370.242
585.8062, 1365.225
586.2883, 1349.980
586.7704, 1325.467
587.2525, 1317.769
587.7346, 1337.388
588.2167, 1358.751
588.6989, 1357.684
589.1810, 1338.567
589.6631, 1330.370
590.1452, 1340.188
590.6273, 1353.159
591.1094, 1376.118
591.5916, 1393.333
592.0737, 1377.694
592.5558, 1331.837
593.0379, 1291.967
593.5200, 1289.070
594.0021, 1315.554
594.4843, 1341.005
594.9664, 1369.538
595.4485, 1381.709
595.9306, 1360.397
596.4127, 1330.853
596.8948, 1317.970
597.3770, 1320.790
597.8591, 1322.883
598.3412, 1315.075
598.8233, 1309.075
599.3054, 1313.807
599.7875, 1326.939
600.2697, 1346.633
600.7518, 1371.601
601.2339, 1390.478
601.7160, 1386.353
602.1981, 1357.332
602.6802, 1339.370
603.1624, 1340.202
603.6445, 1340.380
604.1266, 1331.379
604.6087, 1320.031
605.0908, 1310.967
605.5729, 1304.620
606.0551, 1309.724
606.5372, 1346.610
607.0193, 1388.382
607.5014, 1396.778
607.9835, 1375.419
608.4656, 1350.773
608.9478, 1334.263
609.4299, 1326.765
609.9120, 1332.807
610.3941, 1364.642
610.8762, 1371.080
611.3583, 1315.970
611.8405, 1273.584
612.3226, 1279.602
612.8047, 1311.804
613.2868, 1336.567
613.7689, 1344.098
614.2510, 1343.379
614.7332, 1335.410
615.2153, 1326.133
615.6974, 1332.035
616.1795, 1353.915
616.6616, 1371.329
617.1437, 1371.971
617.6259, 1359.976
618.1080, 1346.686
618.5901, 1329.798
619.0722, 1315.701
619.5543, 1308.456
620.0364, 1299.944
620.5186, 1274.627
621.0007, 1246.222
621.4828, 1249.018
621.9649, 1305.163
622.4470, 1363.477
622.9291, 1355.979
623.4113, 1303.366
623.8934, 1283.273
624.3755, 1309.071
624.8576, 1336.976
625.3397, 1334.689
625.8218, 1310.025
626.3040, 1297.777
626.7861, 1310.111
627.2682, 1318.545
627.7503, 1318.286
628.2324, 1317.425
628.7145, 1322.522
629.1967, 1331.849
629.6788, 1339.065
630.1609, 1340.262
630.6430, 1339.752
631.1251, 1344.919
631.6072, 1354.134
632.0893, 1358.606
632.5714, 1356.888
633.0535, 1348.550
633.5356, 1329.545
634.0178, 1303.053
634.4999, 1293.556
634.9820, 1314.757
635.4641, 1333.229
635.9462, 1351.306
636.4283, 1361.106
636.9105, 1347.999
637.3926, 1319.879
637.8747, 1304.402
638.3568, 1322.161
638.8389, 1350.588
639.3210, 1352.188
639.8032, 1330.976
640.2853, 1317.469
640.7674, 1318.829
641.2495, 1323.931
641.7316, 1323.671
642.2137, 1318.540
642.6959, 1313.512
643.1780, 1309.150
643.6601, 1304.165
644.1422, 1293.522
644.6243, 1285.948
645.1064, 1290.004
645.5886, 1304.175
646.0707, 1321.667
646.5528, 1342.636
647.0349, 1357.330
647.5170, 1340.097
647.9991, 1298.082
648.4813, 1285.948
648.9634, 1319.806
649.4455, 1359.087
649.9276, 1367.266
650.4097, 1347.578
650.8918, 1335.529
651.3740, 1337.477
651.8561, 1338.050
652.3382, 1335.862
652.8203, 1331.422
653.3024, 1324.202
653.7845, 1314.975
654.2667, 1305.283
654.7488, 1293.129
655.2309, 1286.030
655.7130, 1300.983
656.1951, 1331.703
656.6772, 1347.795
657.1594, 1342.132
657.6415, 1328.421
658.1236, 1315.312
658.6057, 1304.374
659.0878, 1308.167
659.5699, 1354.425
660.0521, 1376.816
660.5342, 1348.645
661.0163, 1314.561
661.4984, 1306.591
661.9805, 1320.601
662.4626, 1334.043
662.9448, 1336.778
663.4269, 1333.758
663.9090, 1329.208
664.3911, 1323.302
664.8732, 1315.481
665.3553, 1305.695
665.8375, 1297.788
666.3196, 1294.194
666.8017, 1295.404
667.2838, 1304.220
667.7659, 1327.224
668.2480, 1346.155
668.7302, 1361.559
669.2123, 1371.322
669.6944, 1371.932
670.1765, 1366.003
670.6586, 1359.330
671.1407, 1352.074
671.6229, 1348.959
672.1050, 1358.794
672.5871, 1373.703
673.0692, 1378.851
673.5513, 1372.902
674.0334, 1361.798
674.5156, 1348.327
674.9977, 1335.677
675.4798, 1333.806
675.9619, 1346.527
676.4440, 1358.942
676.9261, 1373.621
677.4083, 1383.636
677.8904, 1381.756
678.3725, 1373.821
678.8546, 1371.864
679.3367, 1380.855
679.8188, 1388.310
680.3010, 1385.200
680.7831, 1378.975
681.2652, 1383.271
681.7473, 1393.543
682.2294, 1387.274
682.7115, 1351.688
683.1937, 1306.239
683.6758, 1286.673
684.1579, 1295.401
684.6400, 1304.652
685.1221, 1313.796
685.6042, 1322.620
686.0864, 1330.809
686.5685, 1338.743
687.0506, 1348.777
687.5327, 1364.493
688.0148, 1368.983
688.4969, 1351.816
688.9791, 1328.319
689.4612, 1296.695
689.9433, 1269.799
690.4254, 1276.515
690.9075, 1325.494
691.3896, 1379.926
691.8718, 1394.721
692.3539, 1377.303
692.8360, 1367.896
693.3181, 1368.070
693.8002, 1365.304
694.2823, 1351.469
694.7645, 1336.994
695.2466, 1339.510
695.7287, 1365.006
696.2108, 1377.569
696.6929, 1370.584
697.1750, 1359.182
697.6572, 1343.724
698.1393, 1329.258
698.6214, 1321.403
699.1035, 1320.766
699.5856, 1323.000
700.0677, 1329.216
700.5499, 1333.761
701.0320, 1323.844
701.5141, 1303.470
701.9962, 1292.727
702.4783, 1297.744
702.9604, 1304.039
703.4426, 1293.944
703.9247, 1270.068
704.4068, 1275.763
704.8889, 1338.609
705.3710, 1382.474
705.8531, 1384.217
706.3353, 1373.209
706.8174, 1365.040
707.2995, 1360.815
707.7816, 1359.958
708.2637, 1363.533
708.7458, 1368.563
709.2280, 1373.598
709.7101, 1378.683
710.1922, 1385.833
710.6743, 1393.825
711.1564, 1396.436
711.6385, 1389.377
712.1207, 1375.133
712.6028, 1358.546
713.0849, 1339.259
713.5670, 1319.969
714.0491, 1296.490
714.5313, 1282.974
715.0134, 1291.031
715.4955, 1314.700
715.9776, 1340.166
716.4597, 1378.868
716.9418, 1391.732
717.4240, 1337.722
717.9061, 1290.003
718.3882, 1313.177
718.8703, 1371.320
719.3524, 1389.216
719.8345, 1341.807
720.3167, 1288.158
720.7988, 1288.926
721.2809, 1324.900
721.7630, 1352.660
722.2451, 1370.621
722.7272, 1382.284
723.2094, 1389.382
723.6915, 1388.477
724.1736, 1372.387
724.6557, 1338.547
725.1378, 1318.190
725.6199, 1318.901
726.1021, 1322.442
726.5842, 1330.636
727.0663, 1335.490
727.5484, 1324.616
728.0305, 1300.785
728.5126, 1288.209
728.9948, 1307.507
729.4769, 1328.763
729.9590, 1330.415
730.4411, 1321.349
730.9232, 1312.799
731.4053, 1307.819
731.8874, 1309.052
732.3695, 1320.126
732.8516, 1334.220
733.3337, 1333.649
733.8159, 1317.719
734.2980, 1299.026
734.7801, 1274.521
735.2622, 1261.383
735.7443, 1275.726
736.2264, 1309.215
736.7086, 1332.669
737.1907, 1342.576
737.6728, 1350.074
738.1549, 1352.823
738.6370, 1356.343
739.1191, 1368.959
739.6013, 1382.760
740.0834, 1382.397
740.5655, 1363.081
741.0476, 1341.909
741.5297, 1330.083
742.0118, 1325.615
742.4940, 1327.715
742.9761, 1334.717
743.4582, 1342.778
743.9403, 1350.668
744.4224, 1349.243
744.9045, 1321.727
745.3867, 1270.870
745.8688, 1262.468
746.3509, 1317.139
746.8330, 1358.547
747.3151, 1361.941
747.7972, 1349.825
748.2794, 1339.428
748.7615, 1331.220
749.2436, 1329.190
749.7257, 1346.621
750.2078, 1353.751
750.6899, 1323.161
751.1721, 1291.802
751.6542, 1298.937
752.1363, 1338.277
752.6184, 1380.408
753.1005, 1413.561
753.5826, 1430.072
754.0648, 1412.150
754.5469, 1370.656
755.0290, 1331.078
755.5111, 1297.148
755.9932, 1292.055
756.4753, 1332.963
756.9575, 1389.135
757.4396, 1398.568
757.9217, 1346.780
758.4038, 1328.212
758.8859, 1372.995
759.3680, 1403.225
759.8502, 1374.532
760.3323, 1328.515
760.8144, 1307.151
761.2965, 1312.170
761.7786, 1318.770
762.2607, 1324.005
762.7429, 1325.871
763.2250, 1318.466
763.7071, 1309.835
764.1892, 1316.512
764.6713, 1334.883
765.1534, 1338.413
765.6356, 1306.336
766.1177, 1257.410
766.5998, 1214.025
767.0819, 1179.097
767.5640, 1167.995
768.0461, 1183.227
768.5283, 1208.872
769.0104, 1236.750
769.4925, 1263.911
769.9746, 1283.523
770.4567, 1295.858
770.9388, 1299.119
771.4210, 1285.050
771.9031, 1273.101
772.3852, 1269.160
772.8673, 1272.718
773.3494, 1284.011
773.8315, 1303.326
774.3137, 1326.936
774.7958, 1367.012
775.2779, 1396.879
775.7600, 1395.245
776.2421, 1377.098
776.7242, 1362.963
777.2064, 1356.183
777.6885, 1347.626
778.1706, 1327.164
778.6527, 1306.778
779.1348, 1311.348
779.6169, 1333.917
780.0991, 1342.912
780.5812, 1333.097
781.0633, 1323.477
781.5454, 1326.936
782.0275, 1340.611
782.5096, 1360.254
782.9918, 1394.906
783.4739, 1400.891
783.9560, 1351.832
784.4381, 1313.543
784.9202, 1332.362
785.4023, 1371.871
785.8845, 1377.380
786.3666, 1341.167
786.8487, 1318.170
787.3308, 1329.949
787.8129, 1344.073
788.2950, 1345.269
788.7772, 1339.792
789.2593, 1333.792
789.7414, 1329.582
790.2235, 1330.310
790.7056, 1339.668
791.1877, 1352.406
791.6699, 1364.080
792.1520, 1373.530
792.6341, 1377.436
793.1162, 1375.548
793.5983, 1370.806
794.0804, 1365.296
794.5626, 1357.101
795.0447, 1341.009
795.5268, 1315.788
796.0089, 1291.426
796.4910, 1265.041
796.9731, 1249.956
797.4553, 1261.768
797.9374, 1279.175
798.4195, 1262.996
798.9016, 1202.304
799.3837, 1174.788
799.8658, 1202.064
800.3480, 1235.528
800.8301, 1271.883
801.3122, 1301.083
801.7943, 1309.597
802.2764, 1301.544
802.7585, 1298.982
803.2407, 1318.011
803.7228, 1332.825
804.2049, 1314.596
804.6870, 1286.264
805.1691, 1280.938
805.6512, 1296.968
806.1334, 1314.590
806.6155, 1324.303
807.0976, 1326.503
807.5797, 1315.095
808.0618, 1295.128
808.5439, 1299.560
809.0261, 1330.054
809.5082, 1358.477
809.9903, 1376.625
810.4724, 1380.288
810.9545, 1359.237
811.4366, 1314.722
811.9188, 1300.956
812.4009, 1340.705
812.8830, 1367.754
813.3651, 1364.628
813.8472, 1352.538
814.3293, 1337.883
814.8115, 1325.490
815.2936, 1330.386
815.7757, 1368.149
816.2578, 1391.045
816.7399, 1372.462
817.2220, 1347.328
817.7042, 1340.529
818.1863, 1344.574
818.6684, 1341.914
819.1505, 1328.510
819.6326, 1319.045
820.1147, 1325.930
820.5969, 1342.284
821.0790, 1370.291
821.5611, 1398.783
822.0432, 1387.095
822.5253, 1331.880
823.0074, 1287.812
823.4896, 1299.633
823.9717, 1346.810
824.4538, 1382.664
824.9359, 1407.420
825.4180, 1409.363
825.9001, 1382.531
826.3823, 1353.916
826.8644, 1337.209
827.3465, 1328.088
827.8286, 1317.505
828.3107, 1301.739
828.7928, 1302.509
829.2749, 1340.293
829.7570, 1367.096
830.2391, 1363.856
830.7213, 1350.995
831.2034, 1344.237
831.6855, 1344.172
832.1676, 1348.004
832.6497, 1365.778
833.1318, 1372.216
833.6140, 1343.705
834.0961, 1311.303
834.5782, 1306.224
835.0603, 1320.041
835.5424, 1325.770
836.0245, 1313.143
836.5067, 1297.491
836.9888, 1287.719
837.4709, 1285.821
837.9530, 1300.059
838.4351, 1324.920
838.9172, 1343.077
839.3994, 1349.704
839.8815, 1349.543
840.3636, 1344.966
840.8457, 1339.892
841.3278, 1352.498
841.8099, 1383.311
842.2921, 1385.357
842.7742, 1345.442
843.2563, 1310.076
843.7384, 1308.773
844.2205, 1328.859
844.7026, 1344.178
845.1848, 1357.842
845.6669, 1353.119
846.1490, 1309.786
846.6311, 1278.573
847.1132, 1286.171
847.5953, 1305.062
848.0775, 1309.182
848.5596, 1299.667
849.0417, 1294.127
849.5238, 1292.641
850.0059, 1298.498
850.4880, 1327.178
850.9702, 1350.697
851.4523, 1337.744
851.9344, 1303.657
852.4165, 1286.091
852.8986, 1297.734
853.3807, 1317.002
853.8629, 1338.174
854.3450, 1352.538
854.8271, 1345.948
855.3092, 1326.399
855.7913, 1309.505
856.2734, 1299.629
856.7556, 1295.730
857.2377, 1296.768
857.7198, 1303.555
858.2019, 1323.609
858.6840, 1351.784
859.1661, 1359.214
859.6483, 1343.065
860.1304, 1336.496
860.6125, 1360.281
861.0946, 1387.817
861.5767, 1365.484
862.0588, 1289.415
862.5410, 1268.190
863.0231, 1319.991
863.5052, 1359.063
863.9873, 1357.387
864.4694, 1340.795
864.9515, 1333.209
865.4337, 1333.068
865.9158, 1327.387
866.3979, 1301.325
866.8800, 1294.026
867.3621, 1323.570
867.8442, 1353.251
868.3264, 1370.366
868.8085, 1374.859
869.2906, 1362.576
869.7727, 1330.622
870.2548, 1310.068
870.7369, 1318.703
871.2191, 1328.973
871.7012, 1320.043
872.1833, 1311.199
872.6654, 1335.850
873.1475, 1382.888
873.6296, 1398.477
874.1118, 1344.857
874.5939, 1295.221
875.0760, 1322.768
875.5581, 1376.617
876.0402, 1395.554
876.5223, 1382.722
877.0045, 1355.646
877.4866, 1322.596
877.9687, 1301.464
878.4508, 1317.513
878.9329, 1349.434
879.4150, 1345.498
879.8972, 1315.570
880.3793, 1307.812
880.8614, 1329.216
881.3435, 1347.498
881.8256, 1341.226
882.3077, 1322.697
882.7899, 1315.788
883.2720, 1320.760
883.7541, 1327.537
884.2362, 1336.445
884.7183, 1346.032
885.2004, 1358.453
885.6826, 1364.245
886.1647, 1351.026
886.6468, 1321.199
887.1289, 1298.231
887.6110, 1276.697
888.0931, 1275.900
888.5753, 1321.676
889.0574, 1356.109
889.5395, 1335.002
890.0216, 1287.223
890.5037, 1265.579
890.9858, 1274.978
891.4680, 1285.441
891.9501, 1288.814
892.4322, 1300.773
892.9143, 1339.431
893.3964, 1378.026
893.8785, 1391.563
894.3607, 1383.444
894.8428, 1371.207
895.3249, 1355.047
895.8070, 1346.205
896.2891, 1357.327
896.7712, 1370.044
897.2534, 1368.109
897.7355, 1358.417
898.2176, 1355.526
898.6997, 1361.381
899.1818, 1362.254
899.6639, 1343.428
900.1461, 1323.333
900.6282, 1321.554
901.1103, 1329.679
901.5924, 1337.514
902.0745, 1342.128
902.5566, 1338.512
903.0388, 1324.175
903.5209, 1310.017
904.0030, 1306.090
904.4851, 1312.657
904.9672, 1339.144
905.4493, 1378.238
905.9315, 1398.344
906.4136, 1391.790
906.8957, 1359.818
907.3778, 1297.346
907.8599, 1231.892
908.3420, 1238.441
908.8242, 1311.506
909.3063, 1358.306
909.7884, 1371.808
910.2705, 1381.137
910.7526, 1400.082
911.2347, 1409.053
911.7169, 1378.374
912.1990, 1315.265
912.6811, 1295.865
913.1632, 1335.819
913.6453, 1351.163
914.1274, 1314.150
914.6096, 1291.755
915.0917, 1337.819
915.5738, 1413.045
916.0559, 1433.199
916.5380, 1384.388
917.0201, 1349.872
917.5023, 1332.593
917.9844, 1325.541
918.4665, 1335.756
918.9486, 1347.615
919.4307, 1345.568
919.9128, 1334.261
920.3950, 1332.188
920.8771, 1349.472
921.3592, 1356.854
921.8413, 1333.191
922.3234, 1320.697
922.8055, 1361.458
923.2877, 1408.803
923.7698, 1392.792
924.2519, 1316.893
924.7340, 1275.730
925.2161, 1325.093
925.6982, 1372.025
926.1804, 1386.646
926.6625, 1384.917
927.1446, 1372.858
927.6267, 1356.100
928.1088, 1339.532
928.5909, 1324.500
929.0730, 1321.833
929.5551, 1354.292
930.0372, 1382.766
930.5193, 1369.845
931.0015, 1341.780
931.4836, 1331.003
931.9657, 1337.851
932.4478, 1348.391
932.9299, 1357.640
933.4120, 1360.563
933.8942, 1344.732
934.3763, 1326.523
934.8584, 1331.975
935.3405, 1350.090
935.8226, 1354.975
936.3047, 1343.114
936.7869, 1329.046
937.2690, 1321.384
937.7511, 1319.270
938.2332, 1325.981
938.7153, 1335.784
939.1974, 1335.442
939.6796, 1325.821
940.1617, 1309.390
940.6438, 1288.683
941.1259, 1285.058
941.6080, 1326.153
942.0901, 1385.808
942.5723, 1401.637
943.0544, 1381.626
943.5365, 1362.692
944.0186, 1349.400
944.5007, 1338.952
944.9828, 1329.982
945.4650, 1324.832
945.9471, 1328.277
946.4292, 1337.917
946.9113, 1339.754
947.3934, 1333.938
947.8755, 1330.772
948.3577, 1332.377
948.8398, 1333.836
949.3219, 1332.041
949.8040, 1328.154
950.2861, 1322.818
950.7682, 1315.763
951.2504, 1322.560
951.7325, 1347.340
952.2146, 1356.845
952.6967, 1337.590
953.1788, 1320.129
953.6609, 1332.170
954.1431, 1361.642
954.6252, 1371.248
955.1073, 1356.933
955.5894, 1339.028
956.0715, 1311.871
956.5536, 1299.394
957.0358, 1315.671
957.5179, 1339.045
958.0000, 1347.783
958.4821, 1344.084
958.9642, 1341.034
959.4464, 1333.618
959.9285, 1341.533
960.4106, 1382.442
960.8927, 1408.721
961.3748, 1393.939
961.8569, 1360.306
962.3391, 1329.920
962.8212, 1302.998
963.3033, 1303.077
963.7854, 1361.583
964.2675, 1391.783
964.7496, 1365.141
965.2318, 1335.611
965.7139, 1335.359
966.1960, 1346.541
966.6781, 1335.538
967.1602, 1297.343
967.6423, 1286.635
968.1245, 1334.338
968.6066, 1366.631
969.0887, 1357.099
969.5708, 1345.042
970.0529, 1361.028
970.5350, 1389.231
971.0172, 1393.206
971.4993, 1362.603
971.9814, 1354.253
972.4635, 1404.729
972.9456, 1436.943
973.4277, 1413.637
973.9099, 1379.416
974.3920, 1367.165
974.8741, 1372.017
975.3562, 1378.247
975.8383, 1385.623
976.3204, 1387.572
976.8026, 1376.328
977.2847, 1367.669
977.7668, 1373.183
978.2489, 1379.625
978.7310, 1371.099
979.2131, 1352.422
979.6953, 1342.811
980.1774, 1348.727
980.6595, 1355.474
981.1416, 1359.717
981.6237, 1363.287
982.1058, 1372.723
982.5880, 1377.943
983.0701, 1358.924
983.5522, 1323.705
984.0343, 1312.918
984.5164, 1352.492
984.9985, 1379.899
985.4807, 1357.851
985.9628, 1335.275
986.4449, 1346.318
986.9270, 1370.928
987.4091, 1385.832
987.8912, 1387.550
988.3734, 1377.229
988.8555, 1344.511
989.3376, 1321.077
989.8197, 1334.564
990.3018, 1345.986
990.7839, 1322.033
991.2661, 1282.262
991.7482, 1254.169
992.2303, 1241.583
992.7124, 1235.529
993.1945, 1227.205
993.6766, 1234.092
994.1588, 1283.621
994.6409, 1332.079
995.1230, 1338.332
995.6051, 1323.843
996.0872, 1325.195
996.5693, 1347.300
997.0515, 1369.190
997.5336, 1384.853
998.0157, 1394.884
998.4978, 1394.594
998.9799, 1393.513
999.4620, 1399.378
999.9442, 1410.196
1000.426, 1424.262
1000.908, 1440.216
1001.391, 1447.786
1001.873, 1436.978
1002.355, 1423.923
1002.837, 1418.280
1003.319, 1412.104
1003.801, 1392.202
1004.283, 1369.148
1004.765, 1366.847
1005.247, 1388.369
1005.730, 1401.490
1006.212, 1380.145
1006.694, 1362.513
1007.176, 1370.865
1007.658, 1387.926
1008.140, 1401.671
1008.622, 1411.303
1009.104, 1421.455
1009.586, 1432.378
1010.069, 1426.420
1010.551, 1370.022
1011.033, 1328.279
1011.515, 1346.439
1011.997, 1380.329
1012.479, 1396.122
1012.961, 1396.593
1013.443, 1393.230
1013.926, 1388.476
1014.408, 1380.934
1014.890, 1364.342
1015.372, 1352.197
1015.854, 1353.306
1016.336, 1359.087
1016.818, 1364.370
1017.300, 1368.072
1017.782, 1369.993
1018.265, 1370.081
1018.747, 1365.872
1019.229, 1354.899
1019.711, 1341.571
1020.193, 1328.560
1020.675, 1313.151
1021.157, 1282.286
1021.639, 1251.678
1022.122, 1256.011
1022.604, 1301.597
1023.086, 1331.668
1023.568, 1318.797
1024.050, 1302.137
1024.532, 1291.463
1025.014, 1285.564
1025.496, 1280.119
1025.978, 1279.949
1026.461, 1301.609
1026.943, 1348.168
1027.425, 1365.235
1027.907, 1305.028
1028.389, 1263.042
1028.871, 1281.863
1029.353, 1311.398
1029.835, 1316.333
1030.318, 1310.280
1030.800, 1322.584
1031.282, 1356.856
1031.764, 1372.864
1032.246, 1341.640
1032.728, 1324.660
1033.210, 1352.023
1033.692, 1377.916
1034.174, 1362.163
1034.656, 1334.615
1035.139, 1348.626
1035.621, 1408.178
1036.103, 1443.712
1036.585, 1433.097
1037.067, 1423.605
1037.549, 1425.412
1038.031, 1424.038
1038.513, 1409.232
1038.996, 1388.749
1039.478, 1371.876
1039.960, 1358.638
1040.442, 1351.604
1040.924, 1351.108
1041.406, 1356.095
1041.888, 1364.430
1042.370, 1382.086
1042.853, 1426.137
1043.335, 1466.986
1043.817, 1460.345
1044.299, 1411.468
1044.781, 1390.428
1045.263, 1414.977
1045.745, 1423.730
1046.227, 1406.265
1046.709, 1386.870
1047.192, 1371.461
1047.674, 1364.929
1048.156, 1376.950
1048.638, 1402.259
1049.120, 1405.786
1049.602, 1376.831
1050.084, 1371.394
1050.566, 1399.409
1051.048, 1425.684
1051.531, 1438.863
1052.013, 1441.421
1052.495, 1431.628
1052.977, 1417.711
1053.459, 1440.619
1053.941, 1509.446
1054.423, 1501.192
1054.905, 1398.828
1055.388, 1338.833
1055.870, 1368.309
1056.352, 1416.563
1056.834, 1426.374
1057.316, 1408.681
1057.798, 1381.382
1058.280, 1346.846
1058.762, 1350.294
1059.245, 1390.641
1059.727, 1408.755
1060.209, 1390.045
1060.691, 1358.927
1061.173, 1330.108
1061.655, 1311.934
1062.137, 1325.719
1062.619, 1361.228
1063.101, 1377.109
1063.583, 1376.724
1064.066, 1381.096
1064.548, 1392.557
1065.030, 1391.260
1065.512, 1365.187
1065.994, 1341.196
1066.476, 1363.314
1066.958, 1404.306
1067.440, 1403.078
1067.923, 1378.583
1068.405, 1380.496
1068.887, 1408.497
1069.369, 1430.217
1069.851, 1432.005
1070.333, 1424.799
1070.815, 1413.949
1071.297, 1403.590
1071.780, 1401.565
1072.262, 1401.297
1072.744, 1391.992
1073.226, 1375.889
1073.708, 1358.067
1074.190, 1341.186
1074.672, 1336.397
1075.154, 1357.046
1075.636, 1382.710
1076.119, 1405.674
1076.601, 1421.616
1077.083, 1425.652
1077.565, 1420.066
1078.047, 1408.033
1078.529, 1390.609
1079.011, 1369.300
1079.493, 1330.257
1079.975, 1313.747
1080.458, 1359.769
1080.940, 1404.185
1081.422, 1401.678
1081.904, 1380.287
1082.386, 1375.646
1082.868, 1386.839
1083.350, 1391.060
1083.832, 1376.219
1084.314, 1374.684
1084.797, 1412.238
1085.279, 1434.785
1085.761, 1405.495
1086.243, 1371.949
1086.725, 1383.483
1087.207, 1419.070
1087.689, 1413.380
1088.171, 1345.601
1088.654, 1328.682
1089.136, 1396.387
1089.618, 1438.105
1090.100, 1428.277
1090.582, 1391.522
1091.064, 1328.368
1091.546, 1272.547
1092.028, 1291.789
1092.510, 1383.254
1092.993, 1429.545
1093.475, 1424.664
1093.957, 1424.351
1094.439, 1437.471
1094.921, 1442.774
1095.403, 1429.730
1095.885, 1407.697
1096.367, 1386.468
1096.849, 1367.125
1097.332, 1348.139
1097.814, 1332.917
1098.296, 1351.529
1098.778, 1399.973
1099.260, 1433.550
1099.742, 1437.770
1100.224, 1418.183
1100.706, 1372.735
1101.189, 1329.691
1101.671, 1340.258
1102.153, 1377.912
1102.635, 1394.223
1103.117, 1393.349
1103.599, 1391.168
1104.081, 1390.668
1104.563, 1387.071
1105.046, 1377.438
1105.528, 1368.715
1106.010, 1368.044
1106.492, 1369.089
1106.974, 1363.644
1107.456, 1358.223
1107.938, 1361.497
1108.420, 1372.167
1108.902, 1386.696
1109.385, 1404.516
1109.867, 1414.175
1110.349, 1404.489
1110.831, 1394.970
1111.313, 1390.996
1111.795, 1391.898
1112.277, 1401.417
1112.759, 1413.077
1113.241, 1414.217
1113.724, 1405.007
1114.206, 1407.547
1114.688, 1438.625
1115.170, 1456.311
1115.652, 1460.779
1116.134, 1448.875
1116.616, 1404.594
1117.098, 1365.123
1117.581, 1372.378
1118.063, 1407.805
1118.545, 1405.418
1119.027, 1353.449
1119.509, 1344.101
1119.991, 1386.300
1120.473, 1416.504
1120.955, 1419.669
1121.438, 1412.657
1121.920, 1404.213
1122.402, 1401.061
1122.884, 1417.687
1123.366, 1446.714
1123.848, 1456.133
1124.330, 1448.908
1124.812, 1439.210
1125.294, 1428.879
1125.776, 1416.053
1126.259, 1400.297
1126.741, 1385.744
1127.223, 1376.557
1127.705, 1369.108
1128.187, 1351.276
1128.669, 1337.271
1129.151, 1353.529
1129.633, 1388.749
1130.116, 1420.581
1130.598, 1443.750
1131.080, 1461.678
1131.562, 1479.198
1132.044, 1477.931
1132.526, 1425.425
1133.008, 1377.289
1133.490, 1376.145
1133.973, 1389.172
1134.455, 1382.015
1134.937, 1361.694
1135.419, 1351.407
1135.901, 1354.884
1136.383, 1360.777
1136.865, 1368.296
1137.347, 1377.680
1137.829, 1397.524
1138.312, 1406.650
1138.794, 1388.507
1139.276, 1363.081
1139.758, 1355.091
1140.240, 1361.053
1140.722, 1358.662
1141.204, 1343.271
1141.686, 1354.756
1142.168, 1401.664
1142.651, 1416.031
1143.133, 1375.837
1143.615, 1333.200
1144.097, 1325.274
1144.579, 1335.084
1145.061, 1327.758
1145.543, 1315.148
1146.025, 1351.204
1146.508, 1418.493
1146.990, 1455.173
1147.472, 1457.791
1147.954, 1453.008
1148.436, 1451.557
1148.918, 1452.047
1149.400, 1457.156
1149.882, 1457.277
1150.365, 1441.862
1150.847, 1417.552
1151.329, 1373.603
1151.811, 1335.680
1152.293, 1361.984
1152.775, 1439.483
1153.257, 1472.223
1153.739, 1417.815
1154.221, 1365.253
1154.703, 1326.327
1155.186, 1311.687
1155.668, 1340.569
1156.150, 1380.690
1156.632, 1415.505
1157.114, 1440.446
1157.596, 1446.898
1158.078, 1434.517
1158.560, 1413.185
1159.043, 1375.234
1159.525, 1356.470
1160.007, 1364.550
1160.489, 1372.517
1160.971, 1368.661
1161.453, 1369.429
1161.935, 1392.890
1162.417, 1424.252
1162.900, 1423.869
1163.382, 1399.886
1163.864, 1391.517
1164.346, 1397.135
1164.828, 1407.661
1165.310, 1419.521
1165.792, 1426.541
1166.274, 1425.841
1166.756, 1416.108
1167.239, 1379.856
1167.721, 1352.582
1168.203, 1388.886
1168.685, 1438.519
1169.167, 1442.027
1169.649, 1416.042
1170.131, 1392.145
1170.613, 1378.596
1171.095, 1385.233
1171.578, 1431.103
1172.060, 1458.525
1172.542, 1443.791
1173.024, 1422.121
1173.506, 1386.797
1173.988, 1370.264
1174.470, 1412.393
1174.952, 1477.384
1175.434, 1495.048
1175.917, 1465.284
1176.399, 1430.099
1176.881, 1384.866
1177.363, 1366.210
1177.845, 1380.333
1178.327, 1396.469
1178.809, 1403.189
1179.291, 1404.777
1179.774, 1403.174
1180.256, 1405.921
1180.738, 1436.725
1181.220, 1478.274
1181.702, 1483.066
1182.184, 1463.692
1182.666, 1458.065
1183.148, 1465.418
1183.630, 1453.845
1184.113, 1411.913
1184.595, 1378.211
1185.077, 1383.969
1185.559, 1396.762
1186.041, 1400.157
1186.523, 1400.267
1187.005, 1397.859
1187.487, 1397.702
1187.969, 1410.330
1188.452, 1432.037
1188.934, 1438.778
1189.416, 1422.604
1189.898, 1410.677
1190.380, 1406.313
1190.862, 1397.709
1191.344, 1378.041
1191.826, 1365.691
1192.309, 1370.572
1192.791, 1391.769
1193.273, 1437.037
1193.755, 1486.896
1194.237, 1447.469
1194.719, 1341.548
1195.201, 1309.168
1195.683, 1346.109
1196.166, 1385.745
1196.648, 1409.692
1197.130, 1421.851
1197.612, 1423.532
1198.094, 1422.306
1198.576, 1427.381
1199.058, 1429.910
1199.540, 1415.252
1200.022, 1399.325
1200.505, 1401.686
1200.987, 1415.280
1201.469, 1426.041
1201.951, 1431.747
1202.433, 1432.857
1202.915, 1429.556
1203.397, 1421.294
1203.879, 1405.748
1204.361, 1389.061
1204.844, 1370.348
1205.326, 1356.333
1205.808, 1353.652
1206.290, 1354.329
1206.772, 1341.132
1207.254, 1319.054
1207.736, 1326.822
1208.218, 1360.584
1208.701, 1388.437
1209.183, 1406.057
1209.665, 1401.082
1210.147, 1374.831
1210.629, 1373.746
1211.111, 1435.306
1211.593, 1494.371
1212.075, 1472.763
1212.557, 1432.118
1213.040, 1430.058
1213.522, 1445.694
1214.004, 1460.463
1214.486, 1467.618
1214.968, 1452.417
1215.450, 1414.153
1215.932, 1401.362
1216.414, 1455.301
1216.896, 1477.244
1217.379, 1438.898
1217.861, 1414.681
1218.343, 1432.923
1218.825, 1456.717
1219.307, 1459.346
1219.789, 1450.423
1220.271, 1445.349
1220.753, 1445.056
1221.236, 1463.063
1221.718, 1491.829
1222.200, 1478.356
1222.682, 1430.278
1223.164, 1413.748
1223.646, 1442.280
1224.128, 1465.234
1224.610, 1451.225
1225.093, 1428.039
1225.575, 1408.713
1226.057, 1400.263
1226.539, 1418.668
1227.021, 1441.150
1227.503, 1443.673
1227.985, 1433.622
1228.467, 1425.756
1228.949, 1421.666
1229.432, 1425.747
1229.914, 1443.882
1230.396, 1456.762
1230.878, 1466.021
1231.360, 1462.125
1231.842, 1438.996
1232.324, 1418.488
1232.806, 1414.143
1233.288, 1423.281
1233.771, 1452.345
1234.253, 1480.129
1234.735, 1432.910
1235.217, 1346.197
1235.699, 1307.697
1236.181, 1310.780
1236.663, 1320.156
1237.145, 1327.271
1237.628, 1338.993
1238.110, 1360.813
1238.592, 1370.557
1239.074, 1342.719
1239.556, 1320.779
1240.038, 1319.147
1240.520, 1333.885
1241.002, 1376.155
1241.484, 1422.236
1241.967, 1444.677
1242.449, 1447.610
1242.931, 1449.211
1243.413, 1450.440
1243.895, 1439.155
1244.377, 1415.047
1244.859, 1399.194
1245.341, 1394.890
1245.823, 1386.781
1246.306, 1368.561
1246.788, 1364.308
1247.270, 1403.373
1247.752, 1449.412
1248.234, 1455.927
1248.716, 1450.302
1249.198, 1467.345
1249.680, 1488.771
1250.163, 1486.910
1250.645, 1464.909
1251.127, 1435.021
1251.609, 1396.020
1252.091, 1386.212
1252.573, 1436.655
1253.055, 1458.810
1253.537, 1432.472
1254.020, 1419.453
1254.502, 1446.862
1254.984, 1464.657
1255.466, 1431.324
1255.948, 1380.850
1256.430, 1374.926
1256.912, 1394.542
1257.394, 1368.851
1257.876, 1328.717
1258.359, 1367.714
1258.841, 1457.046
1259.323, 1493.742
1259.805, 1466.233
1260.287, 1451.602
1260.769, 1488.274
1261.251, 1507.358
1261.733, 1455.797
1262.215, 1417.732
1262.698, 1442.601
1263.180, 1465.793
1263.662, 1440.253
1264.144, 1409.740
1264.626, 1430.456
1265.108, 1481.368
1265.590, 1482.937
1266.072, 1437.533
1266.555, 1410.309
1267.037, 1399.467
1267.519, 1379.631
1268.001, 1353.156
1268.483, 1362.124
1268.965, 1418.079
1269.447, 1468.465
1269.929, 1476.302
1270.411, 1469.462
1270.894, 1456.309
1271.376, 1449.358
1271.858, 1454.675
##END=



