##NAMES=Cotunnite
##RRUFFID=R060655
##IDEAL CHEMISTRY=Pb^2+^Cl_2_
##LOCALITY=Mount Vesuvius, Somma-Vesuvius Complex, Naples Province, Campania, Italy
##OWNER=RRUFF
##SOURCE=Michael Scott
##DESCRIPTION=Colorless tabular crystals with a melted looking exterior
##STATUS=The identification of this mineral is confirmed by single-crystal X-ray diffraction and chemical analysis.
##URL=rruff.info/R060655
##MEASURED CHEMISTRY=Pb_1.00_Cl_2.00_
90.185, 901.556
90.668, 913.064
91.150, 919.622
91.632, 918.832
92.114, 916.032
92.596, 917.402
93.078, 922.731
93.560, 930.044
94.042, 938.390
94.525, 947.596
95.007, 956.583
95.489, 963.909
95.971, 970.964
96.453, 982.740
96.935, 1000.090
97.417, 1018.853
97.899, 1030.280
98.381, 1033.252
98.864, 1045.935
99.346, 1077.747
99.828, 1129.867
100.310, 1186.549
100.792, 1247.401
101.274, 1312.895
101.756, 1383.520
102.238, 1453.673
102.720, 1540.115
103.203, 1654.769
103.685, 1798.848
104.167, 1964.845
104.649, 2144.386
105.131, 2339.104
105.613, 2581.197
106.095, 2867.698
106.577, 3208.395
107.060, 3606.602
107.542, 4053.488
108.024, 4575.001
108.506, 5182.658
108.988, 5872.899
109.470, 6645.639
109.952, 7508.814
110.434, 8449.777
110.916, 9442.769
111.399, 10492.960
111.881, 11584.530
112.363, 12721.550
112.845, 13864.230
113.327, 15087.570
113.809, 16393.350
114.291, 17793.439
114.773, 19292.600
115.256, 20855.949
115.738, 22517.051
116.220, 24318.279
116.702, 26285.420
117.184, 28369.141
117.666, 30565.971
118.148, 32871.449
118.630, 35253.270
119.113, 37745.180
119.595, 40264.461
120.077, 42661.570
120.559, 44840.871
121.041, 46883.660
121.523, 48879.449
122.005, 50892.379
122.487, 52739.410
122.969, 54227.250
123.451, 55400.270
123.934, 56414.930
124.416, 57357.000
124.898, 58195.391
125.380, 58882.559
125.862, 59377.469
126.344, 59732.781
126.826, 60005.828
127.308, 60195.289
127.791, 60301.961
128.273, 60290.898
128.755, 60187.660
129.237, 60077.160
129.719, 59969.328
130.201, 59878.289
130.683, 59830.141
131.165, 59814.738
131.648, 59879.570
132.130, 60113.480
132.612, 60512.488
133.094, 60965.090
133.576, 61394.891
134.058, 61805.789
134.540, 62314.559
135.022, 62947.352
135.504, 63673.379
135.986, 64388.840
136.469, 65097.039
136.951, 65815.383
137.433, 66547.500
137.915, 67296.906
138.397, 68074.203
138.879, 68903.828
139.361, 69778.547
139.844, 70517.148
140.326, 71081.023
140.808, 71574.242
141.290, 72112.609
141.772, 72739.227
142.254, 73319.094
142.736, 73810.000
143.218, 74210.477
143.700, 74553.031
144.182, 74819.094
144.665, 75038.297
145.147, 75271.383
145.629, 75511.977
146.111, 75765.047
146.593, 76029.250
147.075, 76318.539
147.557, 76591.547
148.040, 76832.906
148.522, 77050.930
149.004, 77287.297
149.486, 77556.594
149.968, 77834.930
150.450, 78109.570
150.932, 78407.273
151.414, 78680.906
151.896, 78933.797
152.378, 79172.750
152.861, 79371.328
153.343, 79566.117
153.825, 79712.883
154.307, 79772.383
154.789, 79687.148
155.271, 79573.898
155.753, 79495.359
156.235, 79495.422
156.718, 79338.719
157.200, 78913.797
157.682, 78318.906
158.164, 77695.523
158.646, 77102.477
159.128, 76462.977
159.610, 75725.867
160.092, 74845.797
160.574, 73957.094
161.057, 73118.844
161.539, 72295.711
162.021, 71427.844
162.503, 70433.227
162.985, 69412.391
163.467, 68433.781
163.949, 67506.797
164.431, 66632.773
164.913, 65795.844
165.396, 65002.039
165.878, 64279.680
166.360, 63658.410
166.842, 63114.230
167.324, 62622.250
167.806, 62140.648
168.288, 61736.238
168.770, 61462.191
169.253, 61317.520
169.735, 61253.391
170.217, 61251.941
170.699, 61309.801
171.181, 61420.828
171.663, 61608.859
172.145, 61835.539
172.627, 62073.449
173.109, 62322.281
173.592, 62572.449
174.074, 62832.539
174.556, 63088.512
175.038, 63311.320
175.520, 63529.898
176.002, 63692.762
176.484, 63714.602
176.966, 63571.410
177.449, 63323.512
177.931, 63064.961
178.413, 62775.289
178.895, 62359.051
179.377, 61734.711
179.859, 60937.930
180.341, 60061.641
180.823, 59142.410
181.305, 58129.980
181.788, 56940.109
182.270, 55574.629
182.752, 54139.891
183.234, 52729.422
183.716, 51323.480
184.198, 49905.020
184.680, 48424.391
185.162, 46942.520
185.645, 45518.891
186.127, 44166.770
186.609, 42857.809
187.091, 41577.059
187.573, 40332.828
188.055, 39135.422
188.537, 37999.000
189.019, 36921.461
189.501, 35898.102
189.984, 34936.090
190.466, 34013.160
190.948, 33115.699
191.430, 32236.881
191.912, 31402.080
192.394, 30632.760
192.876, 29931.250
193.358, 29215.510
193.840, 28472.250
194.323, 27750.410
194.805, 27136.051
195.287, 26639.461
195.769, 26168.850
196.251, 25677.721
196.733, 25166.539
197.215, 24651.420
197.697, 24126.461
198.180, 23606.090
198.662, 23126.061
199.144, 22689.320
199.626, 22279.770
200.108, 21885.730
200.590, 21508.199
201.072, 21137.859
201.554, 20768.869
202.036, 20404.391
202.519, 20059.400
203.001, 19736.590
203.483, 19422.891
203.965, 19103.789
204.447, 18774.580
204.929, 18463.840
205.411, 18185.090
205.893, 17932.141
206.376, 17666.510
206.858, 17383.619
207.340, 17096.920
207.822, 16821.699
208.304, 16562.211
208.786, 16297.690
209.268, 16022.230
209.750, 15737.560
210.232, 15464.040
210.715, 15203.130
211.197, 14952.960
211.679, 14713.670
212.161, 14489.710
212.643, 14262.620
213.125, 14024.110
213.607, 13769.680
214.089, 13532.700
214.572, 13314.510
215.054, 13112.230
215.536, 12919.460
216.018, 12739.360
216.500, 12559.220
216.982, 12369.560
217.464, 12165.940
217.946, 11974.990
218.428, 11801.900
218.911, 11638.700
219.393, 11472.620
219.875, 11298.380
220.357, 11128.250
220.839, 10970.850
221.321, 10834.170
221.803, 10689.020
222.285, 10531.860
222.768, 10365.930
223.250, 10201.290
223.732, 10027.710
224.214, 9870.215
224.696, 9743.008
225.178, 9662.667
225.660, 9576.257
226.142, 9482.786
226.624, 9381.039
227.107, 9267.128
227.589, 9129.645
228.071, 8995.722
228.553, 8885.821
229.035, 8813.986
229.517, 8732.488
229.999, 8634.000
230.481, 8520.328
230.964, 8410.141
231.446, 8300.787
231.928, 8198.203
232.410, 8109.600
232.892, 8045.736
233.374, 7973.952
233.856, 7887.562
234.338, 7787.789
234.820, 7700.652
235.303, 7635.926
235.785, 7572.444
236.267, 7489.703
236.749, 7369.468
237.231, 7265.183
237.713, 7188.550
238.195, 7139.634
238.677, 7089.953
239.160, 7041.327
239.642, 6990.272
240.124, 6933.177
240.606, 6867.573
241.088, 6800.529
241.570, 6733.312
242.052, 6665.967
242.534, 6597.048
243.016, 6523.952
243.499, 6451.357
243.981, 6384.263
244.463, 6323.049
244.945, 6266.189
245.427, 6213.127
245.909, 6164.201
246.391, 6118.622
246.873, 6076.674
247.355, 6037.309
247.838, 6001.738
248.320, 5978.560
248.802, 5942.455
249.284, 5881.632
249.766, 5790.507
250.248, 5716.455
250.730, 5665.619
251.212, 5627.305
251.695, 5588.863
252.177, 5555.005
252.659, 5512.333
253.141, 5453.244
253.623, 5372.202
254.105, 5306.063
254.587, 5257.559
255.069, 5221.304
255.551, 5191.754
256.034, 5175.997
256.516, 5152.455
256.998, 5109.867
257.480, 5040.487
257.962, 4989.946
258.444, 4964.862
258.926, 4952.934
259.408, 4933.885
259.891, 4907.910
260.373, 4874.083
260.855, 4827.222
261.337, 4759.593
261.819, 4715.882
262.301, 4707.017
262.783, 4713.135
263.265, 4696.631
263.747, 4647.657
264.229, 4598.478
264.712, 4562.006
265.194, 4542.291
265.676, 4518.452
266.158, 4491.126
266.640, 4459.661
267.122, 4421.802
267.604, 4374.328
268.086, 4330.017
268.569, 4295.089
269.051, 4270.644
269.533, 4249.586
270.015, 4234.408
270.497, 4220.536
270.979, 4198.105
271.461, 4164.276
271.943, 4132.060
272.426, 4109.005
272.908, 4097.177
273.390, 4081.124
273.872, 4060.739
274.354, 4036.125
274.836, 4004.662
275.318, 3964.057
275.800, 3927.142
276.282, 3900.454
276.765, 3884.450
277.247, 3874.231
277.729, 3872.871
278.211, 3872.712
278.693, 3857.166
279.175, 3823.796
279.657, 3790.036
280.139, 3763.666
280.621, 3744.698
281.104, 3730.869
281.586, 3724.685
282.068, 3718.990
282.550, 3698.485
283.032, 3661.948
283.514, 3626.740
283.996, 3601.841
284.478, 3586.719
284.961, 3574.493
285.443, 3566.543
285.925, 3557.894
286.407, 3538.685
286.889, 3508.917
287.371, 3479.345
287.853, 3453.642
288.335, 3432.198
288.818, 3419.997
289.300, 3420.234
289.782, 3421.462
290.264, 3402.052
290.746, 3363.937
291.228, 3331.281
291.710, 3322.183
292.192, 3329.400
292.674, 3325.258
293.156, 3306.869
293.639, 3283.184
294.121, 3266.716
294.603, 3256.311
295.085, 3244.779
295.567, 3227.374
296.049, 3206.488
296.531, 3187.389
297.013, 3170.459
297.496, 3154.815
297.978, 3138.674
298.460, 3122.788
298.942, 3109.417
299.424, 3100.739
299.906, 3095.101
300.388, 3090.457
300.870, 3087.110
301.353, 3081.721
301.835, 3066.160
302.317, 3045.241
302.799, 3030.937
303.281, 3035.892
303.763, 3047.699
304.245, 3048.771
304.727, 3037.298
305.209, 3026.163
305.691, 3030.843
306.174, 3043.588
306.656, 3049.598
307.138, 3039.429
307.620, 3021.448
308.102, 3001.894
308.584, 2980.792
309.066, 2961.620
309.548, 2947.484
310.031, 2936.693
310.513, 2926.329
310.995, 2916.490
311.477, 2905.739
311.959, 2892.581
312.441, 2877.064
312.923, 2861.368
313.405, 2845.163
313.888, 2830.029
314.370, 2818.076
314.852, 2807.946
315.334, 2802.607
315.816, 2808.543
316.298, 2824.991
316.780, 2832.643
317.262, 2813.820
317.744, 2786.641
318.227, 2768.234
318.709, 2775.453
319.191, 2780.265
319.673, 2769.582
320.155, 2745.111
320.637, 2727.000
321.119, 2698.850
321.601, 2718.670
322.083, 2726.847
322.566, 2724.004
323.048, 2677.144
323.530, 2687.125
324.012, 2674.324
324.494, 2660.591
324.976, 2678.572
325.458, 2638.113
325.940, 2652.481
326.422, 2660.192
326.905, 2668.821
327.387, 2678.081
327.869, 2685.776
328.351, 2682.196
328.833, 2650.447
329.315, 2621.472
329.797, 2609.880
330.280, 2636.373
330.762, 2648.839
331.244, 2639.642
331.726, 2616.885
332.208, 2604.444
332.690, 2609.940
333.172, 2616.013
333.654, 2615.034
334.136, 2603.050
334.618, 2593.675
335.101, 2586.910
335.583, 2582.640
336.065, 2581.062
336.547, 2583.304
337.029, 2585.688
337.511, 2587.489
337.993, 2589.324
338.475, 2585.879
338.958, 2575.451
339.440, 2561.893
339.922, 2550.805
340.404, 2541.898
340.886, 2536.421
341.368, 2536.735
341.850, 2542.385
342.332, 2541.152
342.815, 2531.285
343.297, 2519.994
343.779, 2518.204
344.261, 2525.892
344.743, 2529.675
345.225, 2522.945
345.707, 2509.163
346.189, 2501.119
346.671, 2499.240
347.154, 2500.871
347.636, 2505.607
348.118, 2512.360
348.600, 2515.902
349.082, 2513.174
349.564, 2507.361
350.046, 2505.851
350.528, 2508.251
351.010, 2508.096
351.493, 2497.306
351.975, 2480.450
352.457, 2466.332
352.939, 2456.609
353.421, 2451.370
353.903, 2455.169
354.385, 2465.447
354.867, 2470.345
355.349, 2454.390
355.832, 2432.206
356.314, 2421.581
356.796, 2429.290
357.278, 2441.560
357.760, 2453.457
358.242, 2462.783
358.724, 2464.470
359.207, 2445.304
359.689, 2424.554
360.171, 2417.997
360.653, 2432.483
361.135, 2444.403
361.617, 2440.295
362.099, 2427.295
362.581, 2416.898
363.063, 2410.452
363.546, 2409.120
364.028, 2415.751
364.510, 2432.474
364.992, 2444.680
365.474, 2446.985
365.956, 2444.006
366.438, 2440.750
366.920, 2435.608
367.402, 2432.662
367.885, 2433.996
368.367, 2440.041
368.849, 2443.763
369.331, 2442.549
369.813, 2440.674
370.295, 2440.233
370.777, 2429.328
371.259, 2439.143
371.741, 2488.690
372.224, 2567.339
372.706, 2601.108
373.188, 2569.468
373.670, 2521.373
374.152, 2482.739
374.634, 2453.022
375.116, 2437.570
375.598, 2440.932
376.081, 2456.194
376.563, 2467.283
377.045, 2474.691
377.527, 2476.158
378.009, 2467.151
378.491, 2447.210
378.973, 2436.703
379.455, 2438.253
379.938, 2444.819
380.420, 2445.295
380.902, 2439.846
381.384, 2435.277
381.866, 2434.235
382.348, 2436.366
382.830, 2441.522
383.312, 2450.188
383.794, 2457.459
384.276, 2455.556
384.759, 2447.381
385.241, 2442.615
385.723, 2445.170
386.205, 2452.265
386.687, 2461.925
387.169, 2473.589
387.651, 2482.759
388.134, 2485.404
388.616, 2483.479
389.098, 2479.300
389.580, 2471.841
390.062, 2464.735
390.544, 2459.762
391.026, 2457.239
391.508, 2458.430
391.990, 2467.220
392.473, 2477.968
392.955, 2487.428
393.437, 2496.051
393.919, 2500.645
394.401, 2495.213
394.883, 2485.723
395.365, 2481.914
395.847, 2497.325
396.329, 2509.221
396.812, 2507.005
397.294, 2487.008
397.776, 2470.057
398.258, 2456.731
398.740, 2448.690
399.222, 2447.799
399.704, 2461.052
400.186, 2473.104
400.668, 2482.813
401.151, 2490.069
401.633, 2492.059
402.115, 2483.479
402.597, 2475.623
403.079, 2477.869
403.561, 2498.898
404.043, 2505.788
404.525, 2488.716
405.008, 2459.098
405.490, 2453.091
405.972, 2478.017
406.454, 2502.221
406.936, 2507.257
407.418, 2492.248
407.900, 2484.419
408.382, 2486.149
408.865, 2490.812
409.347, 2485.992
409.829, 2472.520
410.311, 2464.983
410.793, 2474.992
411.275, 2494.619
411.757, 2499.781
412.239, 2490.076
412.721, 2477.374
413.203, 2471.915
413.686, 2471.912
414.168, 2473.531
414.650, 2476.073
415.132, 2479.195
415.614, 2480.968
416.096, 2482.275
416.578, 2487.592
417.060, 2509.137
417.543, 2531.368
418.025, 2536.474
418.507, 2514.283
418.989, 2492.696
419.471, 2486.790
419.953, 2491.380
420.435, 2496.589
420.917, 2500.249
421.400, 2502.766
421.882, 2506.278
422.364, 2512.724
422.846, 2509.686
423.328, 2483.031
423.810, 2451.200
424.292, 2432.351
424.774, 2439.758
425.256, 2446.735
425.738, 2449.313
426.221, 2448.004
426.703, 2449.429
427.185, 2458.556
427.667, 2464.486
428.149, 2458.943
428.631, 2435.045
429.113, 2419.039
429.595, 2413.524
430.078, 2415.527
430.560, 2419.768
431.042, 2427.538
431.524, 2431.450
432.006, 2425.262
432.488, 2409.732
432.970, 2403.203
433.452, 2407.325
433.935, 2414.039
434.417, 2413.325
434.899, 2406.370
435.381, 2399.492
435.863, 2393.725
436.345, 2390.094
436.827, 2392.643
437.309, 2400.741
437.791, 2406.803
438.274, 2404.210
438.756, 2396.221
439.238, 2387.210
439.720, 2377.559
440.202, 2368.150
440.684, 2357.188
441.166, 2346.833
441.648, 2342.110
442.130, 2350.002
442.613, 2360.738
443.095, 2370.331
443.577, 2379.147
444.059, 2381.211
444.541, 2366.548
445.023, 2347.527
445.505, 2336.848
445.987, 2345.243
446.470, 2353.426
446.952, 2359.695
447.434, 2363.673
447.916, 2361.642
448.398, 2346.771
448.880, 2332.715
449.362, 2327.089
449.844, 2334.885
450.327, 2340.397
450.809, 2344.884
451.291, 2345.937
451.773, 2337.011
452.255, 2314.792
452.737, 2294.438
453.219, 2281.056
453.701, 2274.387
454.183, 2272.725
454.665, 2276.912
455.148, 2281.771
455.630, 2281.951
456.112, 2278.010
456.594, 2273.260
457.076, 2267.935
457.558, 2262.906
458.040, 2259.920
458.522, 2258.712
459.005, 2257.655
459.487, 2256.099
459.969, 2253.978
460.451, 2249.401
460.933, 2240.489
461.415, 2237.189
461.897, 2257.232
462.379, 2285.419
462.862, 2298.895
463.344, 2274.867
463.826, 2246.467
464.308, 2226.460
464.790, 2215.427
465.272, 2212.284
465.754, 2225.400
466.236, 2241.025
466.718, 2250.150
467.201, 2247.910
467.683, 2244.066
468.165, 2236.877
468.647, 2228.517
469.129, 2224.267
469.611, 2225.941
470.093, 2229.015
470.575, 2233.202
471.057, 2239.194
471.540, 2237.412
472.022, 2224.805
472.504, 2210.454
472.986, 2204.567
473.468, 2207.461
473.950, 2213.808
474.432, 2224.499
474.914, 2236.183
475.397, 2238.742
475.879, 2232.671
476.361, 2227.788
476.843, 2235.479
477.325, 2248.429
477.807, 2249.211
478.289, 2234.263
478.771, 2217.267
479.254, 2209.161
479.736, 2208.239
480.218, 2211.320
480.700, 2222.969
481.182, 2233.484
481.664, 2233.672
482.146, 2224.761
482.628, 2219.520
483.110, 2228.435
483.592, 2239.230
484.075, 2243.338
484.557, 2234.866
485.039, 2226.249
485.521, 2217.683
486.003, 2210.122
486.485, 2205.714
486.967, 2206.935
487.449, 2207.957
487.931, 2206.422
488.414, 2201.982
488.896, 2202.967
489.378, 2212.972
489.860, 2222.577
490.342, 2222.760
490.824, 2212.376
491.306, 2202.785
491.789, 2194.920
492.271, 2189.600
492.753, 2181.987
493.235, 2172.954
493.717, 2185.250
494.199, 2264.607
494.681, 2368.378
495.163, 2391.155
495.645, 2324.457
496.128, 2242.515
496.610, 2208.390
497.092, 2204.031
497.574, 2201.382
498.056, 2187.368
498.538, 2176.950
499.020, 2186.513
499.502, 2209.183
499.984, 2221.054
500.467, 2197.739
500.949, 2172.870
501.431, 2167.391
501.913, 2192.226
502.395, 2207.562
502.877, 2200.427
503.359, 2184.866
503.841, 2175.681
504.323, 2171.973
504.806, 2176.677
505.288, 2196.130
505.770, 2225.325
506.252, 2235.366
506.734, 2220.305
507.216, 2201.792
507.698, 2191.896
508.181, 2190.756
508.663, 2192.716
509.145, 2198.381
509.627, 2204.733
510.109, 2207.275
510.591, 2206.807
511.073, 2207.980
511.555, 2215.342
512.037, 2223.039
512.519, 2218.413
513.002, 2203.886
513.484, 2194.819
513.966, 2208.038
514.448, 2228.045
514.930, 2239.041
515.412, 2236.284
515.894, 2231.696
516.376, 2230.383
516.859, 2230.708
517.341, 2230.409
517.823, 2229.145
518.305, 2226.895
518.787, 2221.460
519.269, 2213.343
519.751, 2212.062
520.233, 2223.064
520.716, 2235.070
521.198, 2242.161
521.680, 2242.747
522.162, 2243.093
522.644, 2242.825
523.126, 2242.897
523.608, 2245.536
524.090, 2251.145
524.572, 2255.173
525.055, 2257.644
525.537, 2256.932
526.019, 2243.913
526.501, 2219.366
526.983, 2200.243
527.465, 2206.523
527.947, 2224.695
528.429, 2228.891
528.911, 2212.108
529.394, 2196.598
529.876, 2203.785
530.358, 2222.822
530.840, 2236.887
531.322, 2236.923
531.804, 2233.077
532.286, 2229.236
532.768, 2225.343
533.250, 2219.620
533.733, 2204.815
534.215, 2193.701
534.697, 2193.925
535.179, 2213.021
535.661, 2225.312
536.143, 2228.603
536.625, 2226.976
537.107, 2225.527
537.589, 2224.526
538.072, 2222.459
538.554, 2218.084
539.036, 2212.760
539.518, 2212.239
540.000, 2216.716
540.482, 2221.602
540.964, 2222.932
541.446, 2222.233
541.929, 2224.563
542.411, 2230.766
542.893, 2235.896
543.375, 2231.772
543.857, 2223.937
544.339, 2221.906
544.821, 2232.724
545.303, 2246.239
545.786, 2260.755
546.268, 2274.103
546.750, 2278.492
547.232, 2260.700
547.714, 2242.273
548.196, 2233.440
548.678, 2237.571
549.160, 2242.590
549.643, 2250.338
550.125, 2257.213
550.607, 2259.479
551.089, 2254.408
551.571, 2252.232
552.053, 2255.844
552.535, 2261.932
553.017, 2260.946
553.499, 2252.143
553.982, 2243.826
554.464, 2238.793
554.946, 2237.273
555.428, 2242.886
555.910, 2255.975
556.392, 2265.749
556.874, 2258.586
557.356, 2243.238
557.838, 2233.511
558.321, 2232.838
558.803, 2237.918
559.285, 2252.706
559.767, 2271.100
560.249, 2281.407
560.731, 2270.355
561.213, 2259.535
561.695, 2258.490
562.177, 2267.604
562.660, 2272.563
563.142, 2269.369
563.624, 2264.661
564.106, 2262.341
564.588, 2265.138
565.070, 2261.135
565.552, 2244.752
566.034, 2228.926
566.516, 2236.591
566.999, 2269.674
567.481, 2294.496
567.963, 2299.166
568.445, 2292.173
568.927, 2294.169
569.409, 2303.769
569.891, 2309.358
570.373, 2297.069
570.856, 2279.163
571.338, 2273.911
571.820, 2284.113
572.302, 2292.422
572.784, 2284.581
573.266, 2271.030
573.748, 2262.544
574.230, 2267.654
574.713, 2271.690
575.195, 2267.515
575.677, 2259.777
576.159, 2261.957
576.641, 2284.973
577.123, 2303.567
577.605, 2311.251
578.087, 2307.964
578.570, 2295.789
579.052, 2270.292
579.534, 2247.349
580.016, 2242.747
580.498, 2254.815
580.980, 2261.345
581.462, 2258.575
581.944, 2254.527
582.426, 2262.036
582.909, 2277.237
583.391, 2288.603
583.873, 2288.318
584.355, 2284.787
584.837, 2285.463
585.319, 2289.372
585.801, 2292.450
586.283, 2289.464
586.765, 2287.707
587.248, 2293.699
587.730, 2312.222
588.212, 2321.111
588.694, 2305.727
589.176, 2287.369
589.658, 2284.568
590.140, 2309.901
590.622, 2321.361
591.104, 2309.236
591.587, 2285.966
592.069, 2280.997
592.551, 2295.802
593.033, 2311.523
593.515, 2322.675
593.997, 2328.434
594.479, 2322.522
594.961, 2305.548
595.443, 2291.272
595.926, 2294.242
596.408, 2304.052
596.890, 2305.942
597.372, 2295.883
597.854, 2286.820
598.336, 2285.721
598.818, 2289.943
599.300, 2296.241
599.783, 2310.496
600.265, 2319.257
600.747, 2315.133
601.229, 2303.117
601.711, 2298.675
602.193, 2306.168
602.675, 2313.854
603.157, 2316.897
603.640, 2315.446
604.122, 2319.952
604.604, 2332.421
605.086, 2342.112
605.568, 2336.367
606.050, 2319.319
606.532, 2309.100
607.014, 2308.738
607.497, 2313.216
607.979, 2320.221
608.461, 2327.940
608.943, 2332.905
609.425, 2330.102
609.907, 2327.795
610.389, 2331.578
610.871, 2339.818
611.353, 2346.645
611.836, 2350.931
612.318, 2353.093
612.800, 2352.465
613.282, 2348.582
613.764, 2346.812
614.246, 2348.599
614.728, 2350.630
615.210, 2350.694
615.692, 2348.837
616.175, 2343.967
616.657, 2334.563
617.139, 2325.661
617.621, 2327.213
618.103, 2336.705
618.585, 2341.637
619.067, 2333.000
619.549, 2322.634
620.031, 2323.905
620.514, 2335.177
620.996, 2350.963
621.478, 2382.246
621.960, 2406.028
622.442, 2401.757
622.924, 2364.359
623.406, 2340.118
623.888, 2351.122
624.370, 2368.128
624.853, 2372.326
625.335, 2355.022
625.817, 2344.736
626.299, 2343.859
626.781, 2347.648
627.263, 2349.413
627.745, 2349.086
628.227, 2349.124
628.710, 2350.544
629.192, 2352.266
629.674, 2350.837
630.156, 2347.255
630.638, 2346.534
631.120, 2358.569
631.602, 2370.187
632.084, 2364.497
632.567, 2341.637
633.049, 2325.172
633.531, 2329.337
634.013, 2340.914
634.495, 2351.578
634.977, 2362.887
635.459, 2367.590
635.941, 2362.523
636.424, 2353.146
636.906, 2345.038
637.388, 2337.843
637.870, 2333.151
638.352, 2330.780
638.834, 2331.489
639.316, 2339.600
639.798, 2354.388
640.280, 2365.107
640.763, 2363.981
641.245, 2357.147
641.727, 2353.066
642.209, 2351.807
642.691, 2353.664
643.173, 2362.877
643.655, 2372.661
644.137, 2376.738
644.619, 2372.644
645.102, 2371.188
645.584, 2379.656
646.066, 2388.910
646.548, 2390.908
647.030, 2380.411
647.512, 2372.841
647.994, 2368.442
648.476, 2367.875
648.958, 2374.809
649.441, 2389.841
649.923, 2399.625
650.405, 2397.936
650.887, 2389.946
651.369, 2385.762
651.851, 2384.732
652.333, 2383.150
652.815, 2374.673
653.297, 2367.355
653.780, 2371.131
654.262, 2386.361
654.744, 2399.038
655.226, 2401.327
655.708, 2400.652
656.190, 2402.289
656.672, 2410.078
657.154, 2412.880
657.636, 2407.803
658.119, 2400.417
658.601, 2397.452
659.083, 2399.926
659.565, 2399.806
660.047, 2394.541
660.529, 2387.915
661.011, 2388.815
661.494, 2395.686
661.976, 2399.643
662.458, 2394.818
662.940, 2386.599
663.422, 2379.374
663.904, 2373.543
664.386, 2370.806
664.868, 2374.047
665.350, 2379.015
665.833, 2383.610
666.315, 2387.641
666.797, 2391.304
667.279, 2395.198
667.761, 2398.052
668.243, 2398.573
668.725, 2395.693
669.207, 2394.286
669.690, 2394.531
670.172, 2395.838
670.654, 2398.426
671.136, 2401.766
671.618, 2402.544
672.100, 2398.933
672.582, 2394.428
673.064, 2393.047
673.546, 2394.133
674.029, 2396.108
674.511, 2399.651
674.993, 2402.873
675.475, 2405.618
675.957, 2407.691
676.439, 2407.214
676.921, 2398.845
677.403, 2393.642
677.885, 2397.408
678.368, 2411.088
678.850, 2416.054
679.332, 2410.749
679.814, 2401.174
680.296, 2387.568
680.778, 2372.280
681.260, 2372.124
681.742, 2389.987
682.224, 2411.790
682.707, 2428.579
683.189, 2438.344
683.671, 2436.238
684.153, 2411.588
684.635, 2391.014
685.117, 2390.430
685.599, 2401.170
686.081, 2408.601
686.563, 2406.720
687.046, 2406.243
687.528, 2410.000
688.010, 2416.307
688.492, 2417.877
688.974, 2413.458
689.456, 2410.381
689.938, 2413.272
690.420, 2419.792
690.903, 2420.719
691.385, 2416.352
691.867, 2412.475
692.349, 2412.621
692.831, 2415.821
693.313, 2423.066
693.795, 2435.146
694.277, 2442.053
694.760, 2432.522
695.242, 2420.137
695.724, 2415.884
696.206, 2427.940
696.688, 2436.230
697.170, 2441.425
697.652, 2442.390
698.134, 2434.763
698.617, 2416.445
699.099, 2409.202
699.581, 2419.941
700.063, 2437.677
700.545, 2444.108
701.027, 2441.327
701.509, 2436.483
701.991, 2428.729
702.473, 2423.697
702.956, 2431.268
703.438, 2446.546
703.920, 2452.662
704.402, 2433.155
704.884, 2412.954
705.366, 2401.171
705.848, 2397.604
706.330, 2401.101
706.812, 2416.168
707.295, 2429.932
707.777, 2434.497
708.259, 2429.963
708.741, 2426.227
709.223, 2423.323
709.705, 2421.155
710.187, 2419.868
710.669, 2419.249
711.151, 2418.277
711.634, 2416.148
712.116, 2416.951
712.598, 2429.333
713.080, 2443.393
713.562, 2448.131
714.044, 2424.532
714.526, 2413.370
715.008, 2425.500
715.490, 2447.811
715.973, 2459.027
716.455, 2456.934
716.937, 2452.757
717.419, 2448.298
717.901, 2443.863
718.383, 2438.763
718.865, 2433.664
719.347, 2433.316
719.830, 2447.010
720.312, 2461.615
720.794, 2460.534
721.276, 2447.233
721.758, 2437.911
722.240, 2441.708
722.722, 2448.978
723.204, 2456.249
723.687, 2463.321
724.169, 2467.912
724.651, 2470.102
725.133, 2469.696
725.615, 2465.339
726.097, 2456.739
726.579, 2452.892
727.061, 2454.459
727.544, 2455.902
728.026, 2450.327
728.508, 2441.424
728.990, 2437.111
729.472, 2439.599
729.954, 2441.430
730.436, 2434.501
730.918, 2425.927
731.400, 2423.230
731.883, 2435.265
732.365, 2442.907
732.847, 2441.323
733.329, 2437.104
733.811, 2441.616
734.293, 2458.734
734.775, 2465.134
735.257, 2451.873
735.739, 2432.399
736.222, 2422.868
736.704, 2427.146
737.186, 2419.607
737.668, 2442.726
738.150, 2458.403
738.632, 2467.037
739.114, 2447.541
739.596, 2464.370
740.078, 2466.641
740.561, 2468.315
741.043, 2490.258
741.525, 2474.851
742.007, 2494.486
742.489, 2491.552
742.971, 2504.875
743.453, 2507.324
743.935, 2500.746
744.417, 2500.304
744.900, 2505.946
745.382, 2508.749
745.864, 2496.476
746.346, 2479.816
746.828, 2474.163
747.310, 2481.433
747.792, 2487.868
748.274, 2485.140
748.757, 2480.414
749.239, 2479.617
749.721, 2487.332
750.203, 2488.183
750.685, 2478.443
751.167, 2467.458
751.649, 2464.411
752.131, 2469.465
752.614, 2476.726
753.096, 2487.109
753.578, 2493.555
754.060, 2478.853
754.542, 2455.696
755.024, 2450.076
755.506, 2480.045
755.988, 2507.547
756.471, 2510.154
756.953, 2497.908
757.435, 2485.734
757.917, 2472.267
758.399, 2463.844
758.881, 2460.538
759.363, 2462.912
759.845, 2476.351
760.327, 2502.964
760.810, 2516.857
761.292, 2505.641
761.774, 2482.835
762.256, 2471.618
762.738, 2470.064
763.220, 2471.977
763.702, 2476.850
764.184, 2481.991
764.666, 2486.548
765.148, 2490.216
765.631, 2491.359
766.113, 2488.216
766.595, 2483.857
767.077, 2477.033
767.559, 2468.712
768.041, 2471.880
768.523, 2488.530
769.005, 2503.006
769.487, 2503.699
769.970, 2495.900
770.452, 2492.110
770.934, 2492.207
771.416, 2493.445
771.898, 2493.021
772.380, 2493.857
772.862, 2499.813
773.344, 2512.281
773.827, 2519.740
774.309, 2518.999
774.791, 2514.614
775.273, 2508.467
775.755, 2500.461
776.237, 2491.399
776.719, 2480.352
777.201, 2472.741
777.683, 2475.078
778.166, 2484.296
778.648, 2493.878
779.130, 2503.397
779.612, 2510.004
780.094, 2510.920
780.576, 2508.167
781.058, 2503.053
781.541, 2492.388
782.023, 2486.646
782.505, 2486.777
782.987, 2491.455
783.469, 2501.126
783.951, 2517.175
784.433, 2527.402
784.915, 2529.907
785.397, 2528.760
785.880, 2528.931
786.362, 2529.529
786.844, 2528.244
787.326, 2524.270
787.808, 2519.052
788.290, 2511.370
788.772, 2503.865
789.254, 2500.012
789.737, 2500.413
790.219, 2505.076
790.701, 2516.581
791.183, 2530.282
791.665, 2537.932
792.147, 2539.051
792.629, 2539.953
793.111, 2542.618
793.593, 2544.267
794.076, 2538.898
794.558, 2529.077
795.040, 2521.357
795.522, 2520.349
796.004, 2519.697
796.486, 2513.471
796.968, 2505.516
797.450, 2504.954
797.932, 2518.395
798.415, 2530.300
798.897, 2539.212
799.379, 2544.202
799.861, 2540.936
800.343, 2529.453
800.825, 2519.122
801.307, 2512.855
801.789, 2510.229
802.271, 2512.874
802.754, 2518.848
803.236, 2522.528
803.718, 2517.917
804.200, 2513.919
804.682, 2516.263
805.164, 2522.884
805.646, 2523.526
806.128, 2515.188
806.610, 2506.767
807.093, 2500.006
807.575, 2495.514
808.057, 2496.637
808.539, 2502.928
809.021, 2509.437
809.503, 2513.303
809.985, 2516.206
810.468, 2521.105
810.950, 2526.980
811.432, 2529.413
811.914, 2520.141
812.396, 2514.026
812.878, 2519.689
813.360, 2534.445
813.842, 2539.114
814.324, 2529.350
814.807, 2524.552
815.289, 2539.527
815.771, 2563.615
816.253, 2556.202
816.735, 2522.624
817.217, 2500.738
817.699, 2531.152
818.181, 2567.503
818.664, 2570.246
819.146, 2541.770
819.628, 2519.849
820.110, 2514.681
820.592, 2514.585
821.074, 2516.024
821.556, 2519.320
822.038, 2530.326
822.520, 2550.402
823.003, 2565.218
823.485, 2563.434
823.967, 2552.024
824.449, 2542.756
824.931, 2535.643
825.413, 2529.578
825.895, 2520.579
826.377, 2515.408
826.859, 2520.838
827.342, 2537.082
827.824, 2545.568
828.306, 2542.551
828.788, 2538.350
829.270, 2537.184
829.752, 2538.686
830.234, 2541.581
830.716, 2545.701
831.198, 2547.819
831.681, 2541.453
832.163, 2534.953
832.645, 2541.035
833.127, 2557.976
833.609, 2566.346
834.091, 2549.121
834.573, 2532.527
835.055, 2528.296
835.537, 2535.603
836.020, 2538.280
836.502, 2535.408
836.984, 2532.096
837.466, 2529.995
837.948, 2529.783
838.430, 2534.168
838.912, 2542.606
839.394, 2551.401
839.877, 2559.143
840.359, 2565.971
840.841, 2573.145
841.323, 2580.446
841.805, 2582.182
842.287, 2575.934
842.769, 2567.623
843.251, 2556.981
843.734, 2545.933
844.216, 2550.108
844.698, 2569.036
845.180, 2584.303
845.662, 2581.995
846.144, 2571.574
846.626, 2560.219
847.108, 2549.334
847.591, 2545.172
848.073, 2557.438
848.555, 2569.401
849.037, 2575.199
849.519, 2575.235
850.001, 2570.351
850.483, 2558.167
850.965, 2552.450
851.447, 2563.778
851.930, 2583.382
852.412, 2591.155
852.894, 2588.486
853.376, 2581.691
853.858, 2566.715
854.340, 2555.750
854.822, 2558.749
855.304, 2573.302
855.786, 2584.160
856.269, 2591.297
856.751, 2593.114
857.233, 2587.775
857.715, 2577.418
858.197, 2567.893
858.679, 2559.453
859.161, 2554.345
859.643, 2552.741
860.125, 2555.816
860.608, 2569.732
861.090, 2589.454
861.572, 2601.661
862.054, 2594.093
862.536, 2587.716
863.018, 2589.379
863.500, 2595.079
863.982, 2592.309
864.464, 2579.274
864.947, 2573.278
865.429, 2582.984
865.911, 2596.625
866.393, 2590.778
866.875, 2573.677
867.357, 2565.892
867.839, 2587.087
868.321, 2606.877
868.804, 2614.682
869.286, 2612.878
869.768, 2606.068
870.250, 2590.790
870.732, 2580.527
871.214, 2578.830
871.696, 2580.803
872.178, 2576.455
872.661, 2568.196
873.143, 2564.882
873.625, 2569.092
874.107, 2578.697
874.589, 2598.756
875.071, 2620.866
875.553, 2633.790
876.035, 2628.679
876.518, 2623.219
877.000, 2618.738
877.482, 2612.908
877.964, 2600.699
878.446, 2582.846
878.928, 2570.152
879.410, 2564.279
879.892, 2564.147
880.374, 2571.705
880.857, 2583.122
881.339, 2594.408
881.821, 2606.917
882.303, 2613.401
882.785, 2608.223
883.267, 2599.985
883.749, 2595.395
884.231, 2595.219
884.713, 2590.383
885.196, 2579.419
885.678, 2571.756
886.160, 2581.778
886.642, 2598.849
887.124, 2604.583
887.606, 2596.372
888.088, 2589.311
888.570, 2587.901
889.052, 2591.538
889.534, 2601.860
890.017, 2620.010
890.499, 2628.080
890.981, 2623.282
891.463, 2619.566
891.945, 2630.771
892.427, 2648.845
892.909, 2652.605
893.391, 2643.146
893.874, 2633.497
894.356, 2630.273
894.838, 2629.649
895.320, 2630.618
895.802, 2632.673
896.284, 2631.056
896.766, 2623.022
897.248, 2618.313
897.731, 2622.064
898.213, 2630.920
898.695, 2635.588
899.177, 2636.530
899.659, 2636.183
900.141, 2632.676
900.623, 2631.463
901.105, 2638.170
901.588, 2650.048
902.070, 2659.735
902.552, 2670.410
903.034, 2671.087
903.516, 2656.537
903.998, 2634.609
904.480, 2619.509
904.962, 2610.997
905.444, 2607.524
905.927, 2609.464
906.409, 2614.269
906.891, 2623.240
907.373, 2632.421
907.855, 2636.256
908.337, 2625.975
908.819, 2621.007
909.301, 2623.112
909.783, 2629.349
910.266, 2637.321
910.748, 2646.840
911.230, 2656.316
911.712, 2666.474
912.194, 2669.281
912.676, 2646.284
913.158, 2617.696
913.640, 2608.503
914.122, 2627.655
914.605, 2643.013
915.087, 2651.104
915.569, 2652.525
916.051, 2644.008
916.533, 2625.433
917.015, 2622.423
917.497, 2635.495
917.979, 2650.407
918.461, 2658.861
918.944, 2662.414
919.426, 2661.681
919.908, 2657.089
920.390, 2652.035
920.872, 2647.189
921.354, 2642.077
921.836, 2634.407
922.318, 2626.281
922.801, 2630.796
923.283, 2648.237
923.765, 2662.971
924.247, 2667.759
924.729, 2666.794
925.211, 2663.895
925.693, 2659.487
926.175, 2654.571
926.657, 2644.880
927.140, 2640.735
927.622, 2645.447
928.104, 2655.621
928.586, 2667.369
929.068, 2680.844
929.550, 2689.127
930.032, 2690.753
930.515, 2687.728
930.997, 2678.256
931.479, 2667.302
931.961, 2663.548
932.443, 2675.397
932.925, 2677.076
933.407, 2646.948
933.889, 2618.678
934.371, 2619.344
934.854, 2652.500
935.336, 2676.730
935.818, 2691.848
936.300, 2696.499
936.782, 2679.599
937.264, 2657.490
937.746, 2651.351
938.228, 2662.239
938.710, 2674.222
939.193, 2689.749
939.675, 2696.804
940.157, 2687.059
940.639, 2664.509
941.121, 2657.713
941.603, 2666.882
942.085, 2674.727
942.567, 2670.639
943.049, 2663.081
943.532, 2663.309
944.014, 2668.272
944.496, 2670.786
944.978, 2663.478
945.460, 2660.373
945.942, 2666.355
946.424, 2675.734
946.906, 2677.750
947.388, 2672.425
947.871, 2671.735
948.353, 2679.471
948.835, 2685.588
949.317, 2675.786
949.799, 2659.766
950.281, 2649.607
950.763, 2648.501
951.245, 2651.552
951.728, 2661.474
952.210, 2670.703
952.692, 2672.011
953.174, 2665.681
953.656, 2669.727
954.138, 2684.268
954.620, 2697.833
955.102, 2702.869
955.584, 2702.054
956.067, 2693.754
956.549, 2679.543
957.031, 2674.890
957.513, 2691.271
957.995, 2703.084
958.477, 2701.424
958.959, 2691.073
959.442, 2685.746
959.924, 2685.164
960.406, 2687.564
960.888, 2695.779
961.370, 2701.312
961.852, 2693.160
962.334, 2678.812
962.816, 2670.574
963.298, 2670.643
963.781, 2677.430
964.263, 2695.127
964.745, 2712.031
965.227, 2712.619
965.709, 2700.435
966.191, 2689.758
966.673, 2681.959
967.155, 2678.203
967.638, 2682.656
968.120, 2688.886
968.602, 2691.057
969.084, 2688.068
969.566, 2692.132
970.048, 2708.355
970.530, 2715.861
971.012, 2697.662
971.494, 2665.582
971.977, 2649.427
972.459, 2647.529
972.941, 2653.726
973.423, 2669.692
973.905, 2687.910
974.387, 2710.695
974.869, 2731.815
975.351, 2736.667
975.833, 2719.814
976.316, 2712.948
976.798, 2724.951
977.280, 2737.533
977.762, 2717.035
978.244, 2682.449
978.726, 2667.947
979.208, 2685.873
979.690, 2704.640
980.172, 2714.245
980.655, 2720.248
981.137, 2727.709
981.619, 2737.314
982.101, 2730.554
982.583, 2706.502
983.065, 2685.008
983.547, 2682.245
984.029, 2687.869
984.511, 2690.738
984.994, 2691.406
985.476, 2694.019
985.958, 2702.996
986.440, 2709.763
986.922, 2711.583
987.404, 2711.022
987.886, 2712.566
988.369, 2716.613
988.851, 2722.348
989.333, 2721.701
989.815, 2704.787
990.297, 2727.668
990.779, 2740.889
991.261, 2744.970
991.743, 2712.532
992.225, 2727.250
992.708, 2727.428
993.190, 2730.295
993.672, 2721.462
994.154, 2706.427
994.636, 2707.080
995.118, 2722.087
995.600, 2731.626
996.082, 2714.528
996.565, 2698.324
997.047, 2700.208
997.529, 2715.620
998.011, 2728.617
998.493, 2739.637
998.975, 2744.563
999.457, 2740.333
999.939, 2733.283
1000.421, 2731.639
1000.904, 2734.135
1001.386, 2738.833
1001.868, 2747.451
1002.350, 2753.385
1002.832, 2755.568
1003.314, 2753.988
1003.796, 2746.030
1004.278, 2731.422
1004.760, 2728.411
1005.243, 2737.547
1005.725, 2747.583
1006.207, 2749.635
1006.689, 2748.803
1007.171, 2748.389
1007.653, 2748.970
1008.135, 2754.031
1008.617, 2771.786
1009.099, 2777.604
1009.582, 2760.586
1010.064, 2733.880
1010.546, 2725.520
1011.028, 2731.759
1011.510, 2739.361
1011.992, 2745.832
1012.474, 2749.438
1012.956, 2746.488
1013.438, 2741.834
1013.921, 2740.426
1014.403, 2743.271
1014.885, 2746.065
1015.367, 2749.174
1015.849, 2750.264
1016.331, 2743.783
1016.813, 2736.083
1017.295, 2739.676
1017.778, 2752.731
1018.260, 2761.888
1018.742, 2759.362
1019.224, 2755.344
1019.706, 2750.809
1020.188, 2747.742
1020.670, 2751.517
1021.152, 2761.737
1021.634, 2775.621
1022.117, 2795.624
1022.599, 2808.083
1023.081, 2789.745
1023.563, 2763.601
1024.045, 2756.972
1024.527, 2784.947
1025.009, 2793.467
1025.491, 2774.984
1025.974, 2756.291
1026.456, 2761.608
1026.938, 2779.531
1027.420, 2777.222
1027.902, 2758.424
1028.384, 2743.247
1028.866, 2743.264
1029.348, 2747.078
1029.830, 2750.635
1030.313, 2754.956
1030.795, 2762.999
1031.277, 2775.049
1031.759, 2786.262
1032.241, 2796.426
1032.723, 2802.820
1033.205, 2799.872
1033.687, 2792.843
1034.170, 2786.818
1034.652, 2781.946
1035.134, 2783.011
1035.616, 2795.518
1036.098, 2803.242
1036.580, 2793.295
1037.062, 2772.831
1037.544, 2771.633
1038.026, 2785.261
1038.509, 2794.323
1038.991, 2780.599
1039.473, 2769.130
1039.955, 2777.320
1040.437, 2792.651
1040.919, 2793.487
1041.401, 2776.651
1041.883, 2764.410
1042.365, 2758.577
1042.848, 2759.995
1043.330, 2777.336
1043.812, 2798.052
1044.294, 2806.052
1044.776, 2799.266
1045.258, 2791.167
1045.740, 2780.410
1046.222, 2774.588
1046.705, 2777.588
1047.187, 2786.524
1047.669, 2795.792
1048.151, 2803.613
1048.633, 2801.487
1049.115, 2775.615
1049.597, 2757.749
1050.079, 2773.411
1050.562, 2802.078
1051.044, 2820.380
1051.526, 2826.837
1052.008, 2827.974
1052.490, 2823.536
1052.972, 2815.975
1053.454, 2804.326
1053.936, 2792.542
1054.418, 2783.248
1054.901, 2777.631
1055.383, 2781.766
1055.865, 2810.185
1056.347, 2828.540
1056.829, 2827.349
1057.311, 2816.117
1057.793, 2812.080
1058.275, 2813.960
1058.757, 2817.836
1059.240, 2823.882
1059.722, 2826.917
1060.204, 2822.414
1060.686, 2814.876
1061.168, 2805.948
1061.650, 2795.377
1062.132, 2798.359
1062.614, 2816.496
1063.097, 2829.273
1063.579, 2820.504
1064.061, 2804.364
1064.543, 2796.327
1065.025, 2793.661
1065.507, 2790.469
1065.989, 2782.469
1066.471, 2778.151
1066.953, 2777.582
1067.436, 2781.646
1067.918, 2779.698
1068.400, 2784.290
1068.882, 2862.147
1069.364, 3014.600
1069.846, 3100.606
1070.328, 2970.512
1070.810, 2833.032
1071.292, 2792.086
1071.775, 2821.939
1072.257, 2832.240
1072.739, 2822.978
1073.221, 2816.194
1073.703, 2819.658
1074.185, 2824.002
1074.667, 2821.986
1075.149, 2814.707
1075.631, 2800.866
1076.114, 2772.549
1076.596, 2768.201
1077.078, 2795.955
1077.560, 2823.617
1078.042, 2828.419
1078.524, 2819.165
1079.006, 2810.311
1079.488, 2803.496
1079.971, 2804.374
1080.453, 2826.171
1080.935, 2841.489
1081.417, 2843.356
1081.899, 2837.821
1082.381, 2831.314
1082.863, 2824.120
1083.345, 2809.357
1083.828, 2784.719
1084.310, 2798.590
1084.792, 2953.425
1085.274, 3101.101
1085.756, 3121.602
1086.238, 3031.602
1086.720, 2954.417
1087.202, 2889.526
1087.684, 2841.126
1088.167, 2810.479
1088.649, 2797.105
1089.131, 2814.054
1089.613, 2842.280
1090.095, 2854.104
1090.577, 2836.521
1091.059, 2821.998
1091.541, 2809.939
1092.023, 2806.065
1092.506, 2818.796
1092.988, 2841.314
1093.470, 2852.914
1093.952, 2855.443
1094.434, 2856.168
1094.916, 2856.559
1095.398, 2857.934
1095.880, 2862.549
1096.363, 2866.753
1096.845, 2864.362
1097.327, 2855.842
1097.809, 2853.800
1098.291, 2859.450
1098.773, 2867.977
1099.255, 2881.386
1099.737, 2891.528
1100.219, 2890.036
1100.702, 2878.728
1101.184, 2870.758
1101.666, 2867.010
1102.148, 2861.130
1102.630, 2849.314
1103.112, 2840.541
1103.594, 2856.683
1104.076, 2878.786
1104.558, 2876.864
1105.041, 2835.716
1105.523, 2813.613
1106.005, 2820.243
1106.487, 2834.240
1106.969, 2846.794
1107.451, 2856.998
1107.933, 2860.380
1108.415, 2858.774
1108.898, 2857.583
1109.380, 2860.421
1109.862, 2862.247
1110.344, 2861.115
1110.826, 2859.236
1111.308, 2858.822
1111.790, 2859.767
1112.272, 2859.777
1112.755, 2858.869
1113.237, 2858.772
1113.719, 2857.658
1114.201, 2860.631
1114.683, 2877.827
1115.165, 2900.270
1115.647, 2903.664
1116.129, 2885.479
1116.611, 2865.258
1117.094, 2844.219
1117.576, 2832.257
1118.058, 2850.292
1118.540, 2875.846
1119.022, 2883.588
1119.504, 2869.572
1119.986, 2861.963
1120.468, 2864.806
1120.950, 2864.513
1121.433, 2854.500
1121.915, 2841.537
1122.397, 2836.843
1122.879, 2838.612
1123.361, 2844.496
1123.843, 2858.238
1124.325, 2864.341
1124.807, 2858.043
1125.290, 2848.442
1125.772, 2837.414
1126.254, 2828.177
1126.736, 2839.534
1127.218, 2866.229
1127.700, 2885.563
1128.182, 2876.170
1128.664, 2869.688
1129.146, 2879.810
1129.629, 2895.604
1130.111, 2907.692
1130.593, 2915.815
1131.075, 2913.138
1131.557, 2899.399
1132.039, 2883.456
1132.521, 2860.384
1133.003, 2847.992
1133.485, 2869.092
1133.968, 2909.050
1134.450, 2923.684
1134.932, 2909.686
1135.414, 2900.246
1135.896, 2901.947
1136.378, 2905.638
1136.860, 2898.605
1137.342, 2891.031
1137.825, 2896.670
1138.307, 2917.682
1138.789, 2921.595
1139.271, 2902.159
1139.753, 2887.839
1140.235, 2890.537
1140.717, 2899.073
1141.199, 2897.818
1141.682, 2890.214
1142.164, 2880.578
1142.646, 2865.982
1143.128, 2863.317
1143.610, 2880.462
1144.092, 2894.336
1144.574, 2886.853
1145.056, 2869.291
1145.538, 2874.220
1146.021, 2893.811
1146.503, 2905.065
1146.985, 2891.119
1147.467, 2879.315
1147.949, 2874.327
1148.431, 2872.878
1148.913, 2871.504
1149.395, 2871.031
1149.877, 2877.531
1150.360, 2890.095
1150.842, 2900.572
1151.324, 2902.536
1151.806, 2903.528
1152.288, 2906.167
1152.770, 2909.577
1153.252, 2912.043
1153.734, 2913.708
1154.217, 2918.676
1154.699, 2927.688
1155.181, 2932.987
1155.663, 2926.614
1156.145, 2917.145
1156.627, 2908.303
1157.109, 2901.145
1157.591, 2899.478
1158.073, 2903.495
1158.556, 2909.556
1159.038, 2918.255
1159.520, 2922.043
1160.002, 2904.814
1160.484, 2885.930
1160.966, 2888.898
1161.448, 2914.443
1161.930, 2915.404
1162.412, 2887.022
1162.895, 2869.576
1163.377, 2882.471
1163.859, 2905.264
1164.341, 2919.398
1164.823, 2926.392
1165.305, 2927.912
1165.787, 2923.621
1166.269, 2913.782
1166.752, 2895.291
1167.234, 2885.136
1167.716, 2901.296
1168.198, 2924.967
1168.680, 2925.333
1169.162, 2912.142
1169.644, 2905.825
1170.126, 2923.262
1170.609, 2924.377
1171.091, 2900.952
1171.573, 2882.502
1172.055, 2905.440
1172.537, 2944.925
1173.019, 2952.788
1173.501, 2934.276
1173.983, 2915.434
1174.465, 2896.044
1174.948, 2890.950
1175.430, 2906.305
1175.912, 2927.187
1176.394, 2936.617
1176.876, 2938.046
1177.358, 2940.423
1177.840, 2943.894
1178.322, 2942.508
1178.804, 2929.535
1179.287, 2916.405
1179.769, 2902.104
1180.251, 2893.749
1180.733, 2909.982
1181.215, 2941.537
1181.697, 2961.020
1182.179, 2963.946
1182.661, 2963.871
1183.144, 2964.812
1183.626, 2966.016
1184.108, 2968.814
1184.590, 2970.289
1185.072, 2959.050
1185.554, 2939.539
1186.036, 2928.832
1186.518, 2932.385
1187.000, 2938.186
1187.483, 2943.440
1187.965, 2946.166
1188.447, 2944.710
1188.929, 2940.235
1189.411, 2937.279
1189.893, 2935.786
1190.375, 2935.245
1190.857, 2935.375
1191.339, 2936.851
1191.822, 2940.919
1192.304, 2945.796
1192.786, 2951.384
1193.268, 2957.077
1193.750, 2953.923
1194.232, 2943.371
1194.714, 2935.799
1195.196, 2937.144
1195.678, 2941.470
1196.161, 2950.267
1196.643, 2957.336
1197.125, 2956.108
1197.607, 2946.452
1198.089, 2936.135
1198.571, 2925.775
1199.053, 2923.612
1199.535, 2942.457
1200.018, 2961.515
1200.500, 2972.367
1200.982, 2975.589
1201.464, 2969.902
1201.946, 2955.130
1202.428, 2946.257
1202.910, 2943.929
1203.392, 2942.372
1203.875, 2937.419
1204.357, 2932.461
1204.839, 2925.781
1205.321, 2922.161
1205.803, 2933.341
1206.285, 2959.638
1206.767, 2971.445
1207.249, 2965.774
1207.731, 2958.834
1208.214, 2960.469
1208.696, 2966.870
1209.178, 2980.494
1209.660, 2995.792
1210.142, 2998.756
1210.624, 2989.536
1211.106, 2978.763
1211.588, 2967.382
1212.070, 2961.500
1212.553, 2972.675
1213.035, 2984.707
1213.517, 2983.437
1213.999, 2973.872
1214.481, 2973.313
1214.963, 2981.406
1215.445, 2985.499
1215.927, 2982.019
1216.410, 2979.094
1216.892, 2987.350
1217.374, 2994.698
1217.856, 2991.188
1218.338, 2979.185
1218.820, 2967.138
1219.302, 2955.462
1219.784, 2953.345
1220.266, 2966.202
1220.749, 2978.580
1221.231, 2977.246
1221.713, 2972.544
1222.195, 2973.454
1222.677, 2978.776
1223.159, 2975.955
1223.641, 2965.669
1224.123, 2957.368
1224.605, 2953.073
1225.088, 2955.162
1225.570, 2971.879
1226.052, 2990.224
1226.534, 3000.023
1227.016, 3001.564
1227.498, 2996.694
1227.980, 2986.385
1228.462, 2981.455
1228.945, 2989.167
1229.427, 2997.846
1229.909, 3003.081
1230.391, 3003.968
1230.873, 2998.680
1231.355, 2987.822
1231.837, 2978.987
1232.319, 2973.418
1232.802, 2980.896
1233.284, 3022.225
1233.766, 3053.821
1234.248, 3047.004
1234.730, 3026.706
1235.212, 3012.375
1235.694, 3003.995
1236.176, 2998.642
1236.658, 2996.146
1237.141, 2995.619
1237.623, 3002.116
1238.105, 3003.425
1238.587, 2984.487
1239.069, 2967.425
1239.551, 2976.434
1240.033, 3006.589
1240.515, 3016.608
1240.997, 3008.909
1241.480, 3001.956
1241.962, 3008.471
1242.444, 3012.944
1242.926, 3010.868
1243.408, 3005.034
1243.890, 2995.464
1244.372, 2984.231
1244.854, 2981.990
1245.337, 2987.654
1245.819, 2992.761
1246.301, 2989.298
1246.783, 2990.697
1247.265, 3002.018
1247.747, 3014.976
1248.229, 3021.208
1248.711, 3021.417
1249.193, 3014.928
1249.676, 3003.366
1250.158, 2995.911
1250.640, 3000.207
1251.122, 3003.587
1251.604, 3003.729
1252.086, 3003.322
1252.568, 3006.373
1253.050, 3010.993
1253.532, 3012.298
1254.015, 3010.786
1254.497, 3010.757
1254.979, 3007.590
1255.461, 3019.614
1255.943, 3057.038
1256.425, 3089.294
1256.907, 3067.815
1257.389, 3023.981
1257.872, 3005.601
1258.354, 3012.892
1258.836, 3023.577
1259.318, 3039.409
1259.800, 3043.324
1260.282, 3030.202
1260.764, 3014.347
1261.246, 3010.752
1261.729, 3014.733
1262.211, 3025.234
1262.693, 3039.598
1263.175, 3041.466
1263.657, 3026.167
1264.139, 3017.589
1264.621, 3020.890
1265.103, 3025.804
1265.585, 3019.866
1266.068, 3012.534
1266.550, 3013.139
1267.032, 3021.026
1267.514, 3028.629
1267.996, 3035.948
1268.478, 3042.623
1268.960, 3048.431
1269.442, 3054.503
1269.924, 3061.987
1270.407, 3069.872
1270.889, 3077.676
1271.371, 3084.979
1271.853, 3089.410
1272.335, 3091.174
1272.817, 3099.917
1273.299, 3118.706
1273.781, 3127.888
1274.264, 3100.392
1274.746, 3074.270
1275.228, 3072.106
1275.710, 3084.498
1276.192, 3091.721
1276.674, 3093.590
1277.156, 3085.323
1277.638, 3065.292
1278.120, 3055.123
1278.603, 3080.502
1279.085, 3096.829
1279.567, 3071.477
1280.049, 3048.740
1280.531, 3167.700
1281.013, 3351.162
1281.495, 3373.681
1281.977, 3192.059
1282.459, 3054.991
1282.942, 3050.177
1283.424, 3072.385
1283.906, 3104.707
1284.388, 3131.422
1284.870, 3117.596
1285.352, 3085.268
1285.834, 3073.029
1286.316, 3086.275
1286.799, 3093.177
1287.281, 3089.375
1287.763, 3084.331
1288.245, 3080.489
1288.727, 3076.062
1289.209, 3066.802
1289.691, 3057.168
1290.173, 3051.424
1290.656, 3050.436
1291.138, 3055.129
1291.620, 3066.263
1292.102, 3077.606
1292.584, 3087.536
1293.066, 3096.905
1293.548, 3108.213
1294.030, 3116.856
##END=



