##NAMES=Covellite
##RRUFFID=R060306
##IDEAL CHEMISTRY=Cu^1+^S
##LOCALITY=3800' level, Leonard mine, Butte, Silver Bow County, Montana, USA
##OWNER=RRUFF
##SOURCE=Michael Scott
##DESCRIPTION=Blue iridescent metallic hexagonal plates
##STATUS=The identification of this mineral has been confirmed by X-ray diffraction and chemical analysis
##URL=rruff.info/R060306
##MEASURED CHEMISTRY=Cu_1.00_S_1.00_
90.97430, 27.25765
91.45642, 27.30747
91.93854, 27.39248
92.42065, 27.35167
92.90277, 26.88360
93.38489, 25.90958
93.86700, 24.76993
94.34912, 23.64767
94.83124, 22.60952
95.31335, 22.08339
95.79547, 22.87072
96.27759, 24.54041
96.75970, 25.25360
97.24182, 24.53522
97.72394, 23.01361
98.20605, 21.98478
98.68817, 21.47857
99.17029, 21.20521
99.65240, 21.00603
100.1345, 20.89197
100.6166, 20.64217
101.0988, 20.08623
101.5809, 19.31340
102.0630, 19.15095
102.5451, 19.83800
103.0272, 20.70754
103.5093, 21.02271
103.9915, 20.64351
104.4736, 20.05030
104.9557, 19.25287
105.4378, 18.12367
105.9199, 17.54272
106.4020, 17.78405
106.8842, 18.43583
107.3663, 18.77609
107.8484, 18.52833
108.3305, 18.28608
108.8126, 18.27754
109.2947, 18.85023
109.7769, 19.07795
110.2590, 18.75768
110.7411, 18.05563
111.2232, 17.49731
111.7053, 17.11443
112.1874, 16.85979
112.6696, 16.71612
113.1517, 16.95746
113.6338, 17.01290
114.1159, 16.52960
114.5980, 15.63886
115.0801, 15.27352
115.5623, 16.60072
116.0444, 18.08454
116.5265, 18.53626
117.0086, 16.14885
117.4907, 13.99327
117.9728, 13.59697
118.4550, 15.05982
118.9371, 16.10703
119.4192, 15.29440
119.9013, 13.57755
120.3834, 12.18624
120.8655, 11.65636
121.3477, 11.60623
121.8298, 11.85454
122.3119, 12.42836
122.7940, 13.04824
123.2761, 13.63595
123.7582, 14.13192
124.2404, 14.40355
124.7225, 14.23837
125.2046, 13.85741
125.6867, 13.51312
126.1688, 13.21849
126.6509, 13.01972
127.1331, 12.93131
127.6152, 12.96641
128.0973, 13.19025
128.5794, 14.00679
129.0615, 15.05577
129.5436, 15.42656
130.0258, 14.72981
130.5079, 13.47416
130.9900, 12.44353
131.4721, 11.64673
131.9542, 11.06666
132.4363, 10.69621
132.9185, 10.53481
133.4006, 10.57335
133.8827, 10.78546
134.3648, 11.19881
134.8469, 12.13601
135.3290, 13.74978
135.8112, 15.22073
136.2933, 15.27277
136.7754, 13.78369
137.2575, 12.82294
137.7396, 13.41757
138.2217, 15.49302
138.7039, 16.44449
139.1860, 15.88562
139.6681, 14.81159
140.1502, 14.83583
140.6323, 16.27847
141.1144, 17.75226
141.5966, 18.76260
142.0787, 19.25730
142.5608, 19.41592
143.0429, 18.98531
143.5250, 18.35999
144.0071, 18.51845
144.4893, 19.88254
144.9714, 21.34373
145.4535, 22.35762
145.9356, 22.56973
146.4177, 23.08980
146.8998, 24.20527
147.3820, 25.67798
147.8641, 26.53570
148.3462, 26.28652
148.8283, 25.87476
149.3104, 25.76978
149.7925, 25.53286
150.2747, 26.19892
150.7568, 28.49537
151.2389, 32.20835
151.7210, 34.67527
152.2031, 34.81506
152.6852, 34.34964
153.1674, 34.34832
153.6495, 35.40481
154.1316, 36.34884
154.6137, 36.96320
155.0958, 37.23801
155.5779, 37.57141
156.0601, 37.76125
156.5422, 38.14027
157.0243, 38.99287
157.5064, 41.48002
157.9885, 43.41502
158.4706, 43.89082
158.9528, 42.67034
159.4349, 41.75861
159.9170, 41.69047
160.3991, 42.19605
160.8812, 42.96339
161.3633, 44.24080
161.8455, 45.49061
162.3276, 46.49376
162.8097, 47.20283
163.2918, 47.73243
163.7739, 48.16621
164.2560, 48.38485
164.7382, 47.98857
165.2203, 46.50287
165.7024, 45.23150
166.1845, 45.07169
166.6666, 46.46055
167.1487, 47.83119
167.6309, 48.10546
168.1130, 47.74174
168.5951, 47.70199
169.0772, 48.71155
169.5593, 50.08411
170.0414, 51.30375
170.5236, 52.38573
171.0057, 53.07921
171.4878, 52.88396
171.9699, 52.08659
172.4520, 51.56139
172.9341, 52.23778
173.4163, 53.29321
173.8984, 53.76548
174.3805, 53.38715
174.8626, 52.48500
175.3447, 50.83516
175.8268, 48.69191
176.3090, 47.26184
176.7911, 47.90435
177.2732, 49.70004
177.7553, 51.19994
178.2374, 52.10353
178.7195, 52.49123
179.2017, 52.17749
179.6838, 51.24471
180.1659, 50.51469
180.6480, 50.97516
181.1301, 52.12159
181.6122, 52.74188
182.0944, 52.17990
182.5765, 51.13642
183.0586, 50.84639
183.5407, 51.30486
184.0228, 51.91526
184.5049, 52.15269
184.9871, 52.09899
185.4692, 52.02953
185.9513, 51.97797
186.4334, 51.98619
186.9155, 52.32873
187.3976, 53.05532
187.8798, 53.52859
188.3619, 52.61328
188.8440, 50.59556
189.3261, 49.41180
189.8082, 50.12995
190.2903, 52.16644
190.7725, 53.51092
191.2546, 54.16828
191.7367, 54.20753
192.2188, 53.32934
192.7009, 51.59809
193.1830, 50.41921
193.6652, 50.63662
194.1473, 51.96354
194.6294, 52.54265
195.1115, 52.27178
195.5936, 51.60476
196.0757, 51.00541
196.5579, 50.46510
197.0400, 50.20728
197.5221, 50.45488
198.0042, 51.16089
198.4863, 51.64213
198.9684, 51.90229
199.4506, 51.92405
199.9327, 51.59428
200.4148, 50.87011
200.8969, 50.18054
201.3790, 49.67174
201.8611, 49.34701
202.3433, 49.17727
202.8254, 49.17805
203.3075, 49.30646
203.7896, 49.58556
204.2717, 50.09804
204.7538, 50.35186
205.2360, 49.96769
205.7181, 48.82052
206.2002, 48.27061
206.6823, 48.55183
207.1644, 49.14777
207.6465, 48.93921
208.1287, 47.61501
208.6108, 46.58492
209.0929, 46.67582
209.5750, 48.22182
210.0571, 49.06122
210.5392, 49.04726
211.0214, 48.46561
211.5035, 47.82830
211.9856, 47.06306
212.4677, 46.45843
212.9498, 46.20570
213.4319, 46.42869
213.9140, 46.43836
214.3962, 46.03749
214.8783, 45.54283
215.3604, 45.84709
215.8425, 47.43739
216.3246, 48.73458
216.8067, 48.85344
217.2889, 47.26390
217.7710, 46.34693
218.2531, 46.33897
218.7352, 46.91716
219.2173, 47.37986
219.6994, 47.86195
220.1816, 47.96886
220.6637, 47.35173
221.1458, 45.45475
221.6279, 44.49267
222.1100, 44.84657
222.5921, 46.00846
223.0743, 46.64312
223.5564, 46.51089
224.0385, 46.26826
224.5206, 46.23176
225.0027, 46.51936
225.4848, 46.68948
225.9670, 46.68605
226.4491, 46.57746
226.9312, 46.56608
227.4133, 46.77824
227.8954, 46.88224
228.3775, 46.71824
228.8597, 46.21250
229.3418, 45.56240
229.8239, 44.51144
230.3060, 43.37961
230.7881, 43.21223
231.2702, 44.78162
231.7524, 46.13905
232.2345, 46.28416
232.7166, 44.43465
233.1987, 43.20851
233.6808, 42.75603
234.1629, 42.89668
234.6451, 43.20270
235.1272, 43.86150
235.6093, 44.40506
236.0914, 44.59843
236.5735, 44.23573
237.0556, 43.98901
237.5378, 43.83367
238.0199, 43.80247
238.5020, 44.00267
238.9841, 44.58997
239.4662, 45.18338
239.9483, 45.57707
240.4305, 45.50983
240.9126, 45.89210
241.3947, 47.05883
241.8768, 48.57009
242.3589, 49.33595
242.8410, 49.14767
243.3232, 48.53484
243.8053, 47.59464
244.2874, 45.86239
244.7695, 44.97499
245.2516, 45.31407
245.7337, 46.34022
246.2159, 46.75977
246.6980, 45.92333
247.1801, 45.50890
247.6622, 46.38167
248.1443, 49.44478
248.6264, 51.18409
249.1086, 51.01057
249.5907, 49.81761
250.0728, 49.51660
250.5549, 50.73501
251.0370, 51.78595
251.5191, 51.93847
252.0013, 50.80369
252.4834, 50.05342
252.9655, 49.71791
253.4476, 49.75140
253.9297, 50.11963
254.4118, 50.96624
254.8940, 51.87309
255.3761, 52.75356
255.8582, 53.70101
256.3403, 54.20777
256.8224, 54.04796
257.3046, 53.62230
257.7867, 53.61332
258.2688, 54.17112
258.7509, 54.83036
259.2330, 55.43664
259.7151, 55.97463
260.1973, 56.62087
260.6794, 57.52563
261.1615, 58.38174
261.6436, 58.59744
262.1257, 57.77174
262.6078, 57.29954
263.0900, 57.75072
263.5721, 59.27196
264.0542, 60.34476
264.5363, 61.03797
265.0184, 61.21243
265.5005, 60.48201
265.9827, 58.36678
266.4648, 56.78259
266.9469, 56.48083
267.4290, 57.50069
267.9111, 57.87189
268.3932, 57.37872
268.8754, 56.56437
269.3575, 56.07768
269.8396, 56.04261
270.3217, 55.84876
270.8038, 55.25707
271.2859, 54.29904
271.7681, 53.70256
272.2502, 53.52205
272.7323, 53.58931
273.2144, 53.95434
273.6965, 54.82418
274.1786, 54.82507
274.6608, 53.28817
275.1429, 50.54284
275.6250, 49.04124
276.1071, 49.04668
276.5892, 49.53935
277.0714, 49.59190
277.5535, 49.14362
278.0356, 48.84424
278.5177, 48.88536
278.9998, 49.14906
279.4819, 49.10744
279.9641, 48.69849
280.4462, 48.24363
280.9283, 48.05204
281.4104, 48.13928
281.8925, 48.05557
282.3746, 47.71486
282.8568, 47.17345
283.3389, 46.46995
283.8210, 45.55107
284.3031, 44.87848
284.7852, 44.85119
285.2673, 45.43864
285.7495, 46.18506
286.2316, 47.18557
286.7137, 48.10065
287.1958, 48.00680
287.6779, 46.86852
288.1600, 45.80152
288.6422, 45.59963
289.1243, 46.14284
289.6064, 46.59220
290.0885, 46.90206
290.5706, 47.05407
291.0527, 46.90821
291.5349, 46.49080
292.0170, 46.18247
292.4991, 46.33026
292.9812, 46.77990
293.4633, 46.90775
293.9454, 46.62251
294.4276, 46.27216
294.9097, 46.40176
295.3918, 46.91825
295.8739, 47.32957
296.3560, 47.29447
296.8381, 46.99268
297.3203, 46.89959
297.8024, 47.05383
298.2845, 47.15002
298.7666, 46.80993
299.2487, 46.13758
299.7308, 45.43978
300.2130, 44.64891
300.6951, 43.98242
301.1772, 43.85077
301.6593, 44.25159
302.1414, 44.85856
302.6235, 45.65211
303.1057, 46.43443
303.5878, 46.76412
304.0699, 46.15393
304.5520, 45.29827
305.0341, 45.11584
305.5162, 45.52534
305.9984, 45.83007
306.4805, 45.28160
306.9626, 44.38041
307.4447, 43.86313
307.9268, 44.14233
308.4089, 44.57060
308.8911, 44.49604
309.3732, 44.04567
309.8553, 43.74354
310.3374, 44.04221
310.8195, 44.57417
311.3016, 45.00025
311.7838, 45.29840
312.2659, 45.37576
312.7480, 44.96172
313.2301, 44.25898
313.7122, 43.76125
314.1943, 43.94099
314.6765, 44.25023
315.1586, 44.27515
315.6407, 43.88102
316.1228, 43.47487
316.6049, 43.14756
317.0870, 42.94996
317.5692, 42.96816
318.0513, 43.41837
318.5334, 43.93746
319.0155, 44.38738
319.4976, 44.77122
319.9797, 44.99466
320.4619, 45.01432
320.9440, 44.86048
321.4261, 44.56866
321.9082, 43.91064
322.3903, 43.34209
322.8724, 42.98895
323.3546, 42.85765
323.8367, 42.88939
324.3188, 43.22628
324.8009, 43.64120
325.2830, 43.95699
325.7651, 44.16867
326.2473, 44.26810
326.7294, 44.13948
327.2115, 43.83451
327.6936, 43.75410
328.1757, 44.28404
328.6578, 44.77985
329.1400, 44.91841
329.6221, 44.29110
330.1042, 43.86015
330.5863, 43.75943
331.0684, 43.86130
331.5505, 43.77030
332.0327, 43.12425
332.5148, 42.70987
332.9969, 42.91210
333.4790, 44.08500
333.9611, 44.87923
334.4432, 45.18704
334.9254, 45.17793
335.4075, 45.13529
335.8896, 45.08742
336.3717, 44.94930
336.8538, 44.69877
337.3359, 44.33277
337.8180, 43.80539
338.3001, 42.95906
338.7823, 42.19305
339.2644, 42.04808
339.7465, 42.67350
340.2286, 43.26920
340.7107, 43.67537
341.1928, 43.89834
341.6750, 43.88263
342.1571, 43.55163
342.6392, 43.26424
343.1213, 43.46357
343.6034, 44.16056
344.0855, 44.41204
344.5677, 43.91013
345.0498, 43.02871
345.5319, 42.73510
346.0140, 43.04662
346.4961, 43.45071
346.9782, 43.60337
347.4604, 43.56067
347.9425, 43.59903
348.4246, 43.76458
348.9067, 43.95770
349.3888, 44.06262
349.8709, 44.07913
350.3531, 44.00294
350.8352, 43.73047
351.3173, 43.38746
351.7994, 43.24636
352.2815, 43.33085
352.7636, 43.45068
353.2458, 43.36536
353.7279, 43.17841
354.2100, 43.11663
354.6921, 43.39709
355.1742, 43.75346
355.6563, 43.93567
356.1385, 43.94489
356.6206, 43.81481
357.1027, 43.21891
357.5848, 42.62459
358.0669, 42.64044
358.5490, 43.87015
359.0312, 45.08242
359.5133, 45.44558
359.9954, 45.14642
360.4775, 44.77678
360.9596, 44.72599
361.4417, 44.63250
361.9239, 44.13383
362.4060, 42.90309
362.8881, 42.06954
363.3702, 42.39226
363.8523, 43.31435
364.3344, 43.98227
364.8166, 44.00828
365.2987, 43.87239
365.7808, 43.71671
366.2629, 43.54236
366.7450, 43.41939
367.2271, 43.36843
367.7093, 43.36950
368.1914, 43.40503
368.6735, 43.78888
369.1556, 43.85404
369.6377, 43.19429
370.1198, 41.95013
370.6020, 41.44019
371.0841, 42.31199
371.5662, 43.31773
372.0483, 43.75085
372.5304, 43.10083
373.0125, 42.87628
373.4947, 43.38327
373.9768, 44.23642
374.4589, 44.47679
374.9410, 43.78836
375.4231, 43.14109
375.9052, 43.00598
376.3874, 43.51347
376.8695, 43.38527
377.3516, 42.33110
377.8337, 41.12770
378.3158, 40.78415
378.7979, 41.40204
379.2801, 42.14730
379.7622, 42.91230
380.2443, 43.61587
380.7264, 43.85989
381.2085, 43.59950
381.6906, 43.18001
382.1728, 42.79448
382.6549, 42.46494
383.1370, 42.39814
383.6191, 42.71607
384.1012, 43.15271
384.5833, 43.19374
385.0655, 42.89614
385.5476, 42.69004
386.0297, 42.85491
386.5118, 43.27000
386.9939, 43.87062
387.4760, 44.72347
387.9582, 45.23032
388.4403, 44.39865
388.9224, 42.81346
389.4045, 41.69608
389.8866, 41.93171
390.3687, 42.57430
390.8509, 42.86292
391.3330, 42.81248
391.8151, 42.68474
392.2972, 42.45787
392.7793, 42.30893
393.2614, 42.44799
393.7436, 43.30571
394.2257, 43.91745
394.7078, 43.60704
395.1899, 42.71061
395.6720, 42.11058
396.1541, 42.42906
396.6363, 42.83487
397.1184, 42.88061
397.6005, 42.33270
398.0826, 42.01855
398.5647, 42.36133
399.0468, 42.90203
399.5290, 43.08426
400.0111, 42.47436
400.4932, 41.92826
400.9753, 41.54564
401.4574, 41.32661
401.9395, 41.36515
402.4217, 41.90590
402.9038, 42.44612
403.3859, 42.62185
403.8680, 42.22490
404.3501, 41.97728
404.8322, 42.03547
405.3144, 42.22168
405.7965, 41.96058
406.2786, 41.04205
406.7607, 40.36834
407.2428, 40.42774
407.7249, 41.24670
408.2071, 42.08752
408.6892, 43.07404
409.1713, 43.73965
409.6534, 43.09059
410.1355, 41.22607
410.6176, 40.14470
411.0998, 40.77111
411.5819, 42.33158
412.0640, 43.02781
412.5461, 42.87179
413.0282, 42.30985
413.5103, 41.34283
413.9925, 40.26009
414.4746, 39.70649
414.9567, 39.88673
415.4388, 40.32016
415.9209, 40.49466
416.4030, 40.52744
416.8852, 40.71539
417.3673, 41.59814
417.8494, 42.43861
418.3315, 42.47725
418.8136, 41.66092
419.2957, 40.91050
419.7779, 40.69952
420.2600, 40.83127
420.7421, 41.11250
421.2242, 41.79497
421.7063, 42.29739
422.1884, 42.25996
422.6706, 41.85085
423.1527, 41.70451
423.6348, 42.56178
424.1169, 43.23846
424.5990, 43.07219
425.0811, 41.32272
425.5633, 40.32879
426.0454, 40.61178
426.5275, 41.49754
427.0096, 42.16471
427.4917, 42.62380
427.9738, 42.83080
428.4560, 42.70055
428.9381, 42.25091
429.4202, 41.92994
429.9023, 41.79037
430.3844, 41.68776
430.8665, 41.49863
431.3487, 41.19074
431.8308, 40.99986
432.3129, 40.96701
432.7950, 41.03236
433.2771, 41.02504
433.7592, 40.93475
434.2414, 41.02348
434.7235, 41.38360
435.2056, 42.01740
435.6877, 43.18365
436.1698, 44.94910
436.6519, 46.37826
437.1341, 46.05783
437.6162, 44.63160
438.0983, 43.81755
438.5804, 44.32306
439.0625, 45.28656
439.5446, 45.84665
440.0268, 46.05097
440.5089, 46.07224
440.9910, 45.67859
441.4731, 45.34243
441.9552, 45.62312
442.4373, 46.72591
442.9195, 47.62235
443.4016, 47.47994
443.8837, 46.93642
444.3658, 46.76704
444.8479, 47.32145
445.3300, 48.16312
445.8122, 49.33448
446.2943, 50.76350
446.7764, 51.95094
447.2585, 52.54155
447.7406, 53.08883
448.2227, 53.87395
448.7049, 54.98706
449.1870, 56.16367
449.6691, 57.49087
450.1512, 58.83318
450.6333, 59.87270
451.1154, 60.26584
451.5976, 61.11953
452.0797, 62.78933
452.5618, 65.22879
453.0439, 67.72032
453.5260, 70.21523
454.0081, 72.76357
454.4903, 75.29579
454.9724, 77.79692
455.4545, 80.75804
455.9366, 84.20851
456.4187, 88.14687
456.9008, 92.41280
457.3830, 97.09826
457.8651, 102.3918
458.3472, 109.2290
458.8293, 116.5443
459.3114, 122.2954
459.7935, 126.4365
460.2757, 130.5213
460.7578, 136.0979
461.2399, 142.2466
461.7220, 147.5748
462.2041, 151.2362
462.6862, 154.9338
463.1684, 159.6192
463.6505, 165.2032
464.1326, 171.3757
464.6147, 177.9996
465.0968, 185.2293
465.5789, 192.9538
466.0611, 201.1270
466.5432, 210.1449
467.0253, 219.5230
467.5074, 230.0132
467.9895, 242.2025
468.4716, 257.2433
468.9538, 272.8321
469.4359, 288.9145
469.9180, 305.3076
470.4001, 321.6201
470.8822, 337.9578
471.3643, 353.8677
471.8465, 369.5460
472.3286, 385.2295
472.8107, 398.4903
473.2928, 409.3964
473.7749, 417.4210
474.2570, 422.5218
474.7392, 424.6874
475.2213, 420.8177
475.7034, 409.8258
476.1855, 392.9336
476.6676, 371.3328
477.1497, 345.2626
477.6319, 318.1676
478.1140, 290.7477
478.5961, 263.8038
479.0782, 238.3068
479.5603, 214.2424
480.0424, 192.7207
480.5246, 174.9173
481.0067, 160.1498
481.4888, 147.4185
481.9709, 136.9812
482.4530, 127.6673
482.9352, 118.8031
483.4173, 110.5623
483.8994, 103.4942
484.3815, 98.30498
484.8636, 93.89094
485.3457, 89.74369
485.8279, 85.74181
486.3100, 82.20874
486.7921, 79.27544
487.2742, 76.77660
487.7563, 74.57875
488.2384, 72.92704
488.7206, 71.12373
489.2027, 68.96664
489.6848, 66.62213
490.1669, 64.72756
490.6490, 63.37972
491.1311, 62.23661
491.6133, 61.17426
492.0954, 60.18811
492.5775, 59.29967
493.0596, 58.53305
493.5417, 57.78288
494.0238, 56.88855
494.5060, 55.89365
494.9881, 55.03064
495.4702, 54.41411
495.9523, 53.87824
496.4344, 53.16976
496.9165, 52.33773
497.3987, 51.56991
497.8808, 50.87120
498.3629, 50.33783
498.8450, 50.25642
499.3271, 50.68066
499.8092, 50.68941
500.2914, 48.96281
500.7735, 46.98779
501.2556, 46.15306
501.7377, 48.35152
502.2198, 49.86528
502.7019, 49.43237
503.1841, 47.70664
503.6662, 46.48055
504.1483, 46.22699
504.6304, 46.12036
505.1125, 45.95818
505.5946, 45.73626
506.0768, 45.51886
506.5589, 45.30991
507.0410, 45.10307
507.5231, 44.88037
508.0052, 44.63041
508.4873, 44.42403
508.9695, 44.22955
509.4516, 44.15051
509.9337, 44.50827
510.4158, 45.27317
510.8979, 45.88514
511.3800, 46.12652
511.8622, 46.04210
512.3443, 45.55040
512.8264, 44.68719
513.3085, 44.04756
513.7906, 44.38886
514.2728, 45.11100
514.7549, 45.41335
515.2370, 45.06514
515.7191, 44.52639
516.2012, 43.90691
516.6833, 43.32343
517.1655, 42.94417
517.6476, 43.05606
518.1297, 43.15131
518.6118, 42.97724
519.0939, 42.56886
519.5760, 42.36094
520.0582, 42.61163
520.5403, 42.89973
521.0224, 43.07686
521.5045, 43.20564
521.9866, 43.00758
522.4688, 42.28884
522.9509, 41.45613
523.4330, 40.97338
523.9151, 40.85316
524.3972, 41.06512
524.8793, 41.76406
525.3615, 42.65285
525.8436, 42.84774
526.3257, 42.35927
526.8078, 41.89355
527.2899, 41.85128
527.7720, 42.12854
528.2542, 42.62841
528.7363, 43.36021
529.2184, 43.84608
529.7005, 43.45534
530.1826, 42.63833
530.6647, 42.00644
531.1469, 41.80484
531.6290, 41.70499
532.1111, 41.45381
532.5932, 41.18081
533.0753, 41.15001
533.5574, 41.65357
534.0396, 42.20274
534.5217, 42.70710
535.0038, 43.16459
535.4859, 43.33648
535.9680, 43.16849
536.4501, 42.76438
536.9323, 42.09079
537.4144, 40.80663
537.8965, 40.23985
538.3786, 40.59599
538.8607, 41.42628
539.3428, 42.17420
539.8250, 42.86724
540.3071, 43.16345
540.7892, 42.84995
541.2713, 42.17046
541.7534, 41.60947
542.2355, 41.18251
542.7177, 41.05493
543.1998, 41.71984
543.6819, 42.60805
544.1640, 42.64223
544.6461, 41.69576
545.1282, 40.95374
545.6104, 41.57946
546.0925, 42.73839
546.5746, 43.50724
547.0567, 43.64762
547.5388, 43.34504
548.0209, 42.26961
548.5031, 40.81202
548.9852, 39.80887
549.4673, 39.51241
549.9494, 39.56388
550.4315, 40.01525
550.9136, 40.86361
551.3958, 41.40895
551.8779, 41.66726
552.3600, 41.59527
552.8421, 41.02484
553.3242, 39.86203
553.8063, 39.11007
554.2885, 38.84894
554.7706, 38.89531
555.2527, 39.01733
555.7348, 39.22880
556.2169, 39.66764
556.6990, 40.57722
557.1812, 41.46470
557.6633, 41.48171
558.1454, 40.82035
558.6275, 40.20109
559.1096, 40.14977
559.5917, 40.23555
560.0739, 40.08250
560.5560, 39.65998
561.0381, 39.28931
561.5202, 39.25558
562.0023, 39.23333
562.4844, 38.96502
562.9666, 38.01621
563.4487, 37.42797
563.9308, 37.40794
564.4129, 37.70386
564.8950, 37.96854
565.3771, 38.27209
565.8593, 38.36289
566.3414, 38.09241
566.8235, 37.57698
567.3056, 37.36421
567.7877, 37.49072
568.2698, 37.66195
568.7520, 37.63405
569.2341, 37.49844
569.7162, 37.69710
570.1983, 38.26633
570.6804, 38.76955
571.1625, 38.70445
571.6447, 38.32119
572.1268, 38.04335
572.6089, 38.05996
573.0910, 38.00785
573.5731, 37.47782
574.0552, 36.74694
574.5374, 36.28798
575.0195, 36.62658
575.5016, 36.89090
575.9837, 36.62340
576.4658, 35.89584
576.9479, 35.66016
577.4301, 36.29248
577.9122, 36.99993
578.3943, 37.51214
578.8764, 37.86618
579.3585, 37.68732
579.8406, 36.74866
580.3228, 35.78166
580.8049, 35.64370
581.2870, 36.28485
581.7691, 36.84631
582.2512, 37.20480
582.7333, 37.36457
583.2155, 37.26516
583.6975, 36.96128
584.1796, 36.61910
584.6617, 36.27855
585.1439, 35.96253
585.6260, 35.59259
586.1081, 35.22569
586.5902, 35.14824
587.0723, 35.83484
587.5544, 36.58134
588.0366, 37.03064
588.5187, 37.14189
589.0008, 36.94486
589.4829, 35.79811
589.9650, 34.78231
590.4471, 34.82251
590.9293, 36.73808
591.4114, 37.75933
591.8935, 37.45177
592.3756, 36.46466
592.8577, 35.94269
593.3398, 35.91262
593.8220, 35.94842
594.3041, 35.85583
594.7862, 35.78422
595.2683, 36.28669
595.7504, 37.25373
596.2325, 37.91329
596.7147, 37.42405
597.1968, 36.55337
597.6789, 36.21650
598.1610, 36.48682
598.6431, 36.80070
599.1252, 36.96209
599.6074, 36.96279
600.0895, 36.77250
600.5716, 36.17800
601.0537, 35.75669
601.5358, 35.73043
602.0179, 35.87294
602.5001, 35.87423
602.9822, 35.54367
603.4643, 35.47548
603.9464, 35.88305
604.4285, 36.57427
604.9106, 36.95064
605.3928, 36.99861
605.8749, 36.82051
606.3570, 36.32495
606.8391, 35.65046
607.3212, 35.16867
607.8033, 34.88560
608.2855, 34.94555
608.7676, 35.90934
609.2497, 37.09307
609.7318, 37.50158
610.2139, 36.83448
610.6960, 36.17861
611.1782, 36.28553
611.6603, 36.64640
612.1424, 36.72129
612.6245, 36.10729
613.1066, 35.53952
613.5887, 35.00856
614.0709, 34.60313
614.5530, 34.54618
615.0351, 35.06118
615.5172, 35.43716
615.9993, 35.40897
616.4814, 35.08779
616.9636, 35.11300
617.4457, 35.51031
617.9278, 35.95407
618.4099, 36.35855
618.8920, 36.63896
619.3741, 36.47293
619.8563, 35.84176
620.3384, 35.20055
620.8205, 34.88042
621.3026, 34.78106
621.7847, 34.82039
622.2668, 35.06981
622.7490, 35.21027
623.2311, 34.99518
623.7132, 34.62939
624.1953, 34.37485
624.6774, 34.23921
625.1595, 34.27156
625.6417, 34.56511
626.1238, 35.01491
626.6059, 35.38929
627.0880, 35.81987
627.5701, 35.74009
628.0522, 34.60218
628.5344, 32.79705
629.0165, 32.56645
629.4986, 33.94664
629.9807, 35.31012
630.4628, 35.25217
630.9449, 34.44474
631.4271, 34.17068
631.9092, 34.54027
632.3913, 35.02446
632.8734, 35.41774
633.3555, 35.64046
633.8376, 35.57445
634.3198, 34.96416
634.8019, 34.52275
635.2840, 34.66115
635.7661, 34.99744
636.2482, 34.96963
636.7303, 34.09416
637.2125, 33.67108
637.6946, 34.09349
638.1767, 34.98926
638.6588, 35.27537
639.1409, 34.87832
639.6230, 34.38758
640.1052, 33.91257
640.5873, 33.55769
641.0694, 33.80532
641.5515, 34.59866
642.0336, 35.26384
642.5157, 35.28192
642.9979, 34.95496
643.4800, 34.51324
643.9621, 33.96063
644.4442, 33.67927
644.9263, 34.07650
645.4084, 34.68821
645.8906, 35.14237
646.3727, 35.31187
646.8548, 35.45083
647.3369, 35.66900
647.8190, 35.80128
648.3011, 35.61329
648.7833, 34.98225
649.2654, 34.40997
649.7475, 33.91597
650.2296, 33.58064
650.7117, 33.65585
651.1938, 34.10486
651.6760, 34.47869
652.1581, 34.54248
652.6402, 34.46877
653.1223, 34.48763
653.6044, 34.59258
654.0865, 34.75790
654.5687, 35.00323
655.0508, 35.27607
655.5329, 35.61047
656.0150, 36.01281
656.4971, 36.18922
656.9792, 35.95069
657.4614, 35.56220
657.9435, 35.10969
658.4256, 34.45060
658.9077, 34.30794
659.3898, 34.95398
659.8719, 35.63661
660.3541, 35.32285
660.8362, 34.06423
661.3183, 33.67141
661.8004, 34.59172
662.2825, 35.87020
662.7646, 36.41492
663.2468, 36.33167
663.7289, 35.83927
664.2110, 34.60243
664.6931, 33.50866
665.1752, 33.38795
665.6573, 33.88492
666.1395, 34.15301
666.6216, 33.34893
667.1037, 32.88490
667.5858, 33.51657
668.0679, 35.03116
668.5500, 35.94574
669.0322, 36.18194
669.5143, 35.97200
669.9964, 35.21526
670.4785, 33.97883
670.9606, 33.43494
671.4427, 33.63213
671.9249, 34.03768
672.4070, 34.27813
672.8891, 34.40411
673.3712, 34.49433
673.8533, 34.55038
674.3354, 34.66371
674.8176, 35.02380
675.2997, 35.41825
675.7818, 35.61329
676.2639, 35.47441
676.7460, 35.29598
677.2281, 35.09155
677.7103, 34.90817
678.1924, 34.81353
678.6745, 34.87608
679.1566, 34.87812
679.6387, 34.77876
680.1208, 34.61568
680.6030, 34.42950
681.0851, 34.22364
681.5672, 34.13051
682.0493, 34.18950
682.5314, 34.39924
683.0135, 34.97813
683.4957, 35.77179
683.9778, 36.15079
684.4599, 35.23109
684.9420, 34.22147
685.4241, 34.11259
685.9063, 34.85217
686.3884, 35.25007
686.8705, 34.51404
687.3526, 33.81121
687.8347, 33.70143
688.3168, 34.29569
688.7990, 34.76234
689.2811, 35.19221
689.7632, 35.31270
690.2453, 34.65443
690.7274, 33.31612
691.2095, 32.73168
691.6917, 33.05290
692.1738, 33.68262
692.6559, 34.17164
693.1380, 34.48619
693.6201, 34.52191
694.1022, 34.15515
694.5844, 33.78874
695.0665, 33.64458
695.5486, 33.64102
696.0307, 33.67363
696.5128, 33.62688
696.9949, 33.75151
697.4771, 34.24111
697.9592, 34.83946
698.4413, 34.95477
698.9234, 34.41328
699.4055, 34.11520
699.8876, 34.41547
700.3698, 34.99920
700.8519, 35.03315
701.3340, 34.58273
701.8161, 34.07489
702.2982, 33.62645
702.7803, 33.30593
703.2625, 33.18217
703.7446, 33.25255
704.2267, 33.49828
704.7088, 34.11015
705.1909, 34.72284
705.6730, 35.18687
706.1552, 35.49299
706.6373, 35.54701
707.1194, 35.19810
707.6015, 34.80803
708.0836, 34.58644
708.5657, 34.54490
709.0479, 34.39114
709.5300, 34.08832
710.0121, 33.89674
710.4942, 34.13684
710.9763, 34.65590
711.4584, 35.12044
711.9406, 35.48689
712.4227, 35.78170
712.9048, 36.10154
713.3869, 36.32548
713.8690, 36.31855
714.3511, 35.96324
714.8333, 35.53521
715.3154, 34.96134
715.7975, 34.40995
716.2796, 34.05028
716.7617, 33.88993
717.2438, 33.91464
717.7260, 34.13472
718.2081, 34.52240
718.6902, 35.23418
719.1723, 36.17892
719.6544, 36.51883
720.1365, 35.65223
720.6187, 34.60139
721.1008, 34.62320
721.5829, 35.40078
722.0650, 36.19281
722.5471, 37.09752
723.0292, 37.52314
723.5114, 36.78685
723.9935, 35.24556
724.4756, 34.46707
724.9577, 34.97248
725.4398, 35.51207
725.9219, 35.71908
726.4041, 35.65995
726.8862, 35.78411
727.3683, 36.12543
727.8504, 36.26772
728.3325, 35.65373
728.8146, 34.77479
729.2968, 34.85933
729.7789, 35.80354
730.2610, 36.62505
730.7431, 36.61267
731.2252, 36.31246
731.7073, 36.09485
732.1895, 36.00031
732.6716, 35.91005
733.1537, 35.70163
733.6358, 35.58714
734.1179, 35.72067
734.6000, 36.18396
735.0822, 36.37026
735.5643, 36.20362
736.0464, 36.02248
736.5285, 36.24736
737.0106, 36.72855
737.4927, 36.82920
737.9749, 36.44994
738.4570, 36.05751
738.9391, 36.20663
739.4212, 36.50473
739.9033, 36.43940
740.3854, 35.62549
740.8676, 35.14233
741.3497, 35.65737
741.8318, 36.44763
742.3139, 36.76240
742.7960, 36.38917
743.2781, 36.06258
743.7603, 35.82799
744.2424, 35.65245
744.7245, 35.40881
745.2066, 35.13825
745.6887, 35.23997
746.1708, 35.94661
746.6530, 36.69680
747.1351, 36.72717
747.6172, 36.36599
748.0993, 36.19285
748.5814, 36.94443
749.0635, 37.30970
749.5457, 36.36965
750.0278, 34.80212
750.5099, 34.07885
750.9920, 34.55677
751.4741, 35.28097
751.9562, 36.29278
752.4384, 37.28630
752.9205, 37.31837
753.4026, 36.41697
753.8847, 35.49927
754.3668, 34.78102
754.8489, 34.40050
755.3311, 34.89084
755.8132, 35.92644
756.2953, 36.53974
756.7774, 35.66201
757.2595, 34.86640
757.7416, 35.15031
758.2238, 36.27176
758.7059, 36.76223
759.1880, 36.05272
759.6701, 35.52140
760.1522, 35.66329
760.6343, 36.31173
761.1165, 36.56474
761.5986, 36.40611
762.0807, 36.15459
762.5628, 35.90147
763.0449, 35.70527
763.5270, 35.65477
764.0092, 35.74953
764.4913, 35.99028
764.9734, 36.57228
765.4555, 37.13464
765.9376, 37.57293
766.4197, 37.87793
766.9019, 37.58486
767.3840, 36.17754
767.8661, 34.90401
768.3482, 34.30997
768.8303, 34.37066
769.3124, 34.67308
769.7946, 35.24476
770.2767, 35.69223
770.7588, 35.65824
771.2409, 35.34010
771.7230, 34.99501
772.2051, 34.65033
772.6873, 34.53225
773.1694, 35.00622
773.6515, 35.57463
774.1336, 35.84909
774.6157, 35.70452
775.0978, 35.87937
775.5800, 36.77253
776.0621, 37.47572
776.5442, 37.35765
777.0263, 36.36882
777.5084, 35.60661
777.9905, 35.06964
778.4727, 34.72839
778.9548, 34.50869
779.4369, 34.48392
779.9190, 34.96230
780.4011, 36.00249
780.8832, 36.70966
781.3654, 36.18255
781.8475, 35.39106
782.3296, 35.09373
782.8117, 35.63324
783.2938, 35.84493
783.7759, 35.54040
784.2581, 35.17110
784.7402, 35.07039
785.2223, 35.23796
785.7044, 35.53054
786.1865, 35.95374
786.6686, 36.37841
787.1508, 36.84912
787.6329, 37.17657
788.1150, 36.92647
788.5971, 35.90697
789.0792, 35.16848
789.5613, 35.47687
790.0435, 36.09415
790.5256, 36.41675
791.0077, 36.26557
791.4898, 36.21389
791.9719, 36.34531
792.4540, 36.43569
792.9362, 36.22803
793.4183, 35.75147
793.9004, 35.36169
794.3825, 35.07885
794.8646, 34.92441
795.3467, 34.94643
795.8289, 35.09564
796.3110, 35.35995
796.7931, 35.81741
797.2752, 36.04986
797.7573, 35.60968
798.2394, 35.08327
798.7216, 34.98059
799.2037, 35.54572
799.6858, 35.85060
800.1679, 35.77312
800.6500, 35.71159
801.1321, 36.20815
801.6143, 37.10821
802.0964, 37.64516
802.5785, 37.71688
803.0606, 37.57000
803.5427, 37.29384
804.0248, 36.97989
804.5070, 36.74860
804.9891, 36.69099
805.4712, 36.50323
805.9533, 35.75194
806.4354, 35.12464
806.9175, 35.21177
807.3997, 36.27689
807.8818, 36.88684
808.3639, 36.93603
808.8460, 36.78649
809.3281, 36.98248
809.8102, 37.25515
810.2924, 36.66879
810.7745, 34.96612
811.2566, 33.66881
811.7387, 34.42059
812.2208, 35.72889
812.7029, 36.23512
813.1851, 35.39846
813.6672, 34.62624
814.1493, 33.79144
814.6314, 33.27326
815.1135, 33.49877
815.5956, 34.50974
816.0778, 35.28723
816.5599, 35.78007
817.0420, 36.15021
817.5241, 36.77790
818.0062, 37.29697
818.4883, 36.93842
818.9705, 35.46331
819.4526, 34.33775
819.9347, 34.55796
820.4168, 35.16564
820.8989, 35.42561
821.3810, 35.13771
821.8632, 35.27668
822.3453, 36.02737
822.8274, 36.80239
823.3095, 37.14856
823.7916, 37.10497
824.2737, 36.73640
824.7559, 36.03992
825.2380, 35.46657
825.7201, 35.36406
826.2022, 35.58186
826.6843, 36.18355
827.1664, 37.27856
827.6486, 37.68763
828.1307, 36.33303
828.6128, 34.98160
829.0949, 34.55965
829.5770, 35.15630
830.0591, 35.28017
830.5413, 34.84623
831.0234, 34.45427
831.5055, 34.66581
831.9876, 35.19387
832.4697, 35.47667
832.9518, 35.50038
833.4340, 35.47384
833.9161, 35.49548
834.3982, 35.52317
834.8803, 35.51472
835.3624, 35.46344
835.8445, 35.50124
836.3267, 35.71550
836.8088, 35.84164
837.2909, 35.66647
837.7730, 35.28339
838.2551, 35.39588
838.7372, 35.95927
839.2194, 36.25344
839.7015, 35.37286
840.1836, 34.32073
840.6657, 34.23766
841.1478, 34.97565
841.6299, 35.47417
842.1121, 35.07151
842.5942, 34.73089
843.0763, 34.80938
843.5584, 35.22337
844.0405, 35.52192
844.5226, 35.70284
845.0048, 35.76605
845.4869, 35.60952
845.9690, 35.41852
846.4511, 35.67712
846.9332, 36.23519
847.4153, 36.59680
847.8975, 36.45784
848.3796, 36.12844
848.8617, 35.50454
849.3438, 34.79730
849.8259, 34.71412
850.3080, 35.64806
850.7902, 36.36210
851.2723, 36.57909
851.7544, 36.42690
852.2365, 36.04174
852.7186, 35.48736
853.2007, 35.14580
853.6829, 35.22460
854.1650, 35.45680
854.6471, 35.59843
855.1292, 35.73439
855.6113, 36.00869
856.0934, 36.86902
856.5756, 37.30029
857.0577, 36.99551
857.5398, 36.38092
858.0219, 36.03284
858.5040, 35.95689
858.9861, 36.10706
859.4683, 36.55632
859.9504, 36.93358
860.4325, 36.64112
860.9146, 35.99383
861.3967, 35.55774
861.8788, 35.60302
862.3610, 35.51095
862.8431, 34.76305
863.3252, 33.96068
863.8073, 33.67088
864.2894, 34.04897
864.7715, 34.52666
865.2537, 35.18766
865.7358, 35.65730
866.2179, 35.36275
866.7000, 34.60278
867.1821, 34.23459
867.6642, 34.35604
868.1464, 34.50896
868.6285, 34.23976
869.1106, 33.99132
869.5927, 34.16935
870.0748, 34.95068
870.5569, 35.43196
871.0391, 35.53923
871.5212, 35.47381
872.0033, 35.30647
872.4854, 35.05352
872.9675, 34.89341
873.4496, 34.81104
873.9318, 34.60642
874.4139, 33.79347
874.8960, 33.06407
875.3781, 33.23458
875.8602, 34.18312
876.3423, 34.78674
876.8245, 34.30637
877.3066, 34.02114
877.7887, 34.43877
878.2708, 35.28474
878.7529, 35.36610
879.2350, 34.68454
879.7172, 33.79624
880.1993, 32.64618
880.6814, 31.76770
881.1635, 32.23010
881.6456, 33.50176
882.1277, 34.34187
882.6099, 33.86148
883.0920, 33.39440
883.5741, 33.22317
884.0562, 33.31038
884.5383, 33.70829
885.0204, 34.52291
885.5026, 34.95411
885.9847, 34.81836
886.4668, 34.37636
886.9489, 33.76544
887.4310, 33.15458
887.9131, 32.92472
888.3953, 33.27339
888.8774, 33.71026
889.3595, 34.26770
889.8416, 34.65460
890.3237, 34.53437
890.8058, 33.54032
891.2880, 33.16315
891.7701, 33.52453
892.2522, 34.13420
892.7343, 34.70483
893.2164, 35.15567
893.6985, 35.17665
894.1807, 34.74915
894.6628, 34.34661
895.1449, 34.31836
895.6270, 34.38501
896.1091, 34.37738
896.5912, 34.27928
897.0734, 34.10632
897.5555, 33.78999
898.0376, 33.56489
898.5197, 33.54900
899.0018, 33.71011
899.4839, 34.02401
899.9661, 34.44698
900.4482, 34.72333
900.9303, 34.70266
901.4124, 34.50053
901.8945, 34.01878
902.3766, 33.40424
902.8588, 33.13229
903.3409, 33.37694
903.8230, 33.73091
904.3051, 34.19386
904.7872, 34.64912
905.2693, 34.83044
905.7515, 34.77975
906.2336, 34.76229
906.7157, 34.86403
907.1978, 34.97990
907.6799, 34.88369
908.1620, 34.80882
908.6442, 35.06655
909.1263, 36.19328
909.6084, 36.76324
910.0905, 36.45170
910.5726, 35.98458
911.0547, 36.05288
911.5369, 36.60833
912.0190, 37.08549
912.5011, 37.45085
912.9832, 37.75230
913.4653, 38.07138
913.9474, 38.31707
914.4296, 38.24141
914.9117, 37.79634
915.3938, 37.97266
915.8759, 39.71685
916.3580, 40.95372
916.8401, 40.58972
917.3223, 39.00950
917.8044, 38.44995
918.2865, 38.87636
918.7686, 39.65112
919.2507, 40.89510
919.7328, 41.93538
920.2150, 41.88102
920.6971, 41.10769
921.1792, 40.54959
921.6613, 40.74472
922.1434, 40.75739
922.6255, 40.23335
923.1077, 39.66440
923.5898, 40.10988
924.0719, 41.48889
924.5540, 42.35957
925.0361, 42.34521
925.5182, 42.13652
926.0004, 42.35455
926.4825, 42.81789
926.9646, 43.38097
927.4467, 44.22863
927.9288, 44.49802
928.4109, 43.67030
928.8931, 42.81577
929.3752, 42.86235
929.8573, 43.77916
930.3394, 43.68116
930.8215, 42.57011
931.3036, 41.41851
931.7858, 40.81616
932.2679, 40.61140
932.7500, 40.95027
933.2321, 41.67929
933.7142, 41.76650
934.1964, 40.28485
934.6785, 39.07513
935.1606, 38.69308
935.6427, 38.84342
936.1248, 38.75002
936.6069, 38.40486
937.0891, 37.69569
937.5712, 36.34083
938.0533, 35.05724
938.5354, 34.60681
939.0175, 34.65163
939.4996, 34.70677
939.9818, 34.70784
940.4639, 34.61831
940.9460, 34.34632
941.4281, 34.11338
941.9102, 34.28929
942.3923, 34.78904
942.8745, 34.64332
943.3566, 33.75534
943.8387, 33.07508
944.3208, 33.76934
944.8029, 34.72656
945.2850, 34.92010
945.7672, 34.23101
946.2493, 33.77843
946.7314, 33.73413
947.2135, 33.78102
947.6956, 33.85275
948.1777, 33.89901
948.6599, 33.70658
949.1420, 33.30566
949.6241, 32.85925
950.1062, 32.24878
950.5883, 31.85085
951.0704, 32.14627
951.5526, 32.78911
952.0347, 33.09947
952.5168, 32.79020
952.9989, 32.64771
953.4810, 32.79337
953.9631, 32.99397
954.4453, 32.90459
954.9274, 32.62262
955.4095, 32.52369
955.8916, 32.67375
956.3737, 32.78164
956.8558, 32.63033
957.3380, 32.38167
957.8201, 32.08878
958.3022, 31.74100
958.7843, 31.74427
959.2664, 32.25509
959.7485, 32.61105
960.2307, 32.34983
960.7128, 31.80151
961.1949, 31.85446
961.6770, 32.32732
962.1591, 32.58028
962.6412, 32.00861
963.1234, 31.50568
963.6055, 31.55042
964.0876, 31.84982
964.5697, 31.89520
965.0518, 31.61846
965.5339, 31.41353
966.0161, 31.33721
966.4982, 31.30993
966.9803, 31.18585
967.4624, 31.06301
967.9445, 31.16970
968.4266, 31.58512
968.9088, 31.83493
969.3909, 31.49611
969.8730, 31.18214
970.3551, 31.20899
970.8372, 31.56068
971.3193, 32.08416
971.8015, 32.79108
972.2836, 33.18940
972.7657, 32.72489
973.2478, 32.04755
973.7299, 31.99974
974.2120, 32.35061
974.6942, 32.52506
975.1763, 32.09320
975.6584, 31.81766
976.1405, 31.78207
976.6226, 31.95397
977.1047, 32.45509
977.5869, 33.21896
978.0690, 33.34995
978.5511, 32.65126
979.0332, 31.98559
979.5153, 32.28714
979.9974, 32.81516
980.4796, 32.84091
980.9617, 32.19970
981.4438, 31.73135
981.9259, 31.43090
982.4080, 31.38749
982.8901, 31.84397
983.3723, 32.48418
983.8544, 31.96872
984.3365, 30.64874
984.8186, 29.98189
985.3007, 31.52952
985.7828, 32.96912
986.2650, 33.07769
986.7471, 32.39094
987.2292, 31.80686
987.7113, 31.24746
988.1934, 31.19513
988.6755, 31.83038
989.1577, 32.43224
989.6398, 31.95432
990.1219, 30.98930
990.6040, 30.58456
991.0861, 30.86522
991.5682, 31.18614
992.0504, 31.21755
992.5325, 31.32251
993.0146, 31.76223
993.4967, 32.41500
993.9788, 32.55915
994.4609, 32.19715
994.9431, 31.87461
995.4252, 31.81461
995.9073, 31.89500
996.3894, 32.15392
996.8715, 32.41100
997.3536, 32.37408
997.8358, 31.66979
998.3179, 31.07459
998.8000, 30.50075
999.2821, 30.20676
999.7642, 30.72139
1000.246, 31.80309
1000.728, 31.96442
1001.211, 31.16948
1001.693, 30.41049
1002.175, 30.23899
1002.657, 30.40946
1003.139, 31.03968
1003.621, 31.96606
1004.103, 32.03466
1004.585, 30.87363
1005.068, 30.34368
1005.550, 31.19727
1006.032, 32.45195
1006.514, 32.48699
1006.996, 31.74621
1007.478, 31.11547
1007.960, 30.87963
1008.442, 30.67662
1008.924, 30.25521
1009.407, 29.94923
1009.889, 30.04928
1010.371, 30.57745
1010.853, 30.79700
1011.335, 30.70692
1011.817, 30.64749
1012.299, 30.83587
1012.781, 31.16832
1013.263, 31.80322
1013.746, 32.52901
1014.228, 32.58356
1014.710, 31.18251
1015.192, 30.42937
1015.674, 30.84547
1016.156, 31.67709
1016.638, 31.63436
1017.120, 31.05973
1017.603, 31.15776
1018.085, 32.23399
1018.567, 33.08860
1019.049, 32.84395
1019.531, 32.26523
1020.013, 31.77517
1020.495, 31.39178
1020.977, 31.47372
1021.459, 32.07756
1021.942, 32.67060
1022.424, 33.18016
1022.906, 33.33790
1023.388, 32.40835
1023.870, 30.92336
1024.352, 29.92349
1024.834, 29.95889
1025.316, 30.22294
1025.799, 30.81185
1026.281, 31.35850
1026.763, 31.40260
1027.245, 31.03417
1027.727, 30.85322
1028.209, 30.88839
1028.691, 30.97665
1029.173, 31.04070
1029.656, 31.08929
1030.138, 31.12183
1030.620, 31.14150
1031.102, 31.14562
1031.584, 31.09686
1032.066, 31.22507
1032.548, 31.67629
1033.030, 32.11059
1033.512, 31.78800
1033.995, 31.16750
1034.477, 31.16070
1034.959, 32.26701
1035.441, 32.83283
1035.923, 31.81192
1036.405, 30.90040
1036.887, 31.24178
1037.369, 32.59680
1037.851, 32.56092
1038.334, 31.30045
1038.816, 30.37537
1039.298, 31.17577
1039.780, 32.09409
1040.262, 31.92140
1040.744, 31.13839
1041.226, 30.73164
1041.708, 30.88000
1042.191, 30.99874
1042.673, 31.05931
1043.155, 31.04235
1043.637, 30.77440
1044.119, 30.48068
1044.601, 30.61983
1045.083, 31.20509
1045.565, 31.72778
1046.047, 32.14407
1046.530, 32.26982
1047.012, 31.88544
1047.494, 31.27429
1047.976, 31.36749
1048.458, 32.05211
1048.940, 32.35345
1049.422, 31.87145
1049.904, 31.38030
1050.386, 31.46905
1050.869, 31.83815
1051.351, 32.28113
1051.833, 32.88461
1052.315, 32.80056
1052.797, 31.84786
1053.279, 31.03562
1053.761, 31.07750
1054.243, 31.54120
1054.726, 31.67309
1055.208, 31.60793
1055.690, 31.70278
1056.172, 32.48563
1056.654, 32.86155
1057.136, 32.60231
1057.618, 32.02311
1058.100, 31.34751
1058.583, 30.63977
1059.065, 30.38251
1059.547, 30.60457
1060.029, 30.92447
1060.511, 31.27201
1060.993, 31.44830
1061.475, 31.17626
1061.957, 30.60431
1062.439, 30.37353
1062.922, 30.54029
1063.404, 30.68830
1063.886, 30.69349
1064.368, 30.70071
1064.850, 31.17167
1065.332, 31.62561
1065.814, 31.23297
1066.296, 29.48725
1066.778, 28.58195
1067.261, 29.09692
1067.743, 29.73069
1068.225, 29.76166
1068.707, 29.43910
1069.189, 29.57192
1069.671, 30.08043
1070.153, 30.68994
1070.635, 31.45410
1071.118, 32.05385
1071.600, 32.41156
1072.082, 32.48078
1072.564, 32.09818
1073.046, 31.20184
1073.528, 30.71281
1074.010, 30.67272
1074.492, 30.71345
1074.974, 30.50675
1075.457, 30.29664
1075.939, 30.25708
1076.421, 30.40034
1076.903, 30.77444
1077.385, 31.56431
1077.867, 32.07868
1078.349, 32.22218
1078.831, 31.99438
1079.313, 30.95868
1079.796, 29.71128
1080.278, 29.52064
1080.760, 30.62265
1081.242, 31.37185
1081.724, 30.86052
1082.206, 30.30631
1082.688, 30.13690
1083.170, 30.22933
1083.652, 30.22527
1084.135, 30.13288
1084.617, 29.96161
1085.099, 29.61605
1085.581, 29.45140
1086.063, 30.01516
1086.545, 30.61806
1087.027, 30.56885
1087.509, 29.76649
1087.992, 29.35284
1088.474, 29.34638
1088.956, 29.44767
1089.438, 29.52485
1089.920, 29.57490
1090.402, 29.60679
1090.884, 29.60747
1091.366, 29.53316
1091.849, 29.14772
1092.331, 29.20078
1092.813, 29.86391
1093.295, 30.59854
1093.777, 30.82625
1094.259, 30.75002
1094.741, 30.81988
1095.223, 31.02329
1095.705, 31.08753
1096.188, 30.82020
1096.670, 30.47877
1097.152, 30.01617
1097.634, 29.63354
1098.116, 29.87417
1098.598, 30.57502
1099.080, 30.75484
1099.562, 30.21349
1100.044, 29.64740
1100.527, 29.32913
1101.009, 29.32282
1101.491, 29.94865
1101.973, 30.98089
1102.455, 30.76713
1102.937, 29.24075
1103.419, 28.53352
1103.901, 29.72248
1104.384, 31.09130
1104.866, 30.58139
1105.348, 29.36637
1105.830, 28.86908
1106.312, 29.48229
1106.794, 30.03855
1107.276, 30.62521
1107.758, 30.82676
1108.240, 30.12445
1108.723, 29.12484
1109.205, 28.79255
1109.687, 29.01312
1110.169, 29.51253
1110.651, 30.68363
1111.133, 31.38605
1111.615, 31.34673
1112.097, 31.17021
1112.579, 31.60358
1113.062, 32.35328
1113.544, 32.15284
1114.026, 31.11996
1114.508, 30.25284
1114.990, 30.25031
1115.472, 30.28646
1115.954, 30.08181
1116.436, 29.73607
1116.919, 29.26110
1117.401, 28.69280
1117.883, 28.82367
1118.365, 29.76803
1118.847, 30.60906
1119.329, 30.52157
1119.811, 30.21310
1120.293, 30.21695
1120.776, 30.43118
1121.258, 30.27972
1121.740, 29.67920
1122.222, 29.62568
1122.704, 30.54162
1123.186, 31.29707
1123.668, 30.28288
1124.150, 28.73507
1124.632, 27.98142
1125.115, 28.27747
1125.597, 28.85924
1126.079, 29.85039
1126.561, 30.67903
1127.043, 31.13528
1127.525, 31.28898
1128.007, 31.19909
1128.489, 30.91417
1128.971, 30.48888
1129.454, 29.83312
1129.936, 29.31181
1130.418, 28.83331
1130.900, 28.72773
1131.382, 29.49003
1131.864, 30.63062
1132.346, 30.51854
1132.828, 29.52687
1133.311, 28.83569
1133.793, 29.06379
1134.275, 29.50433
1134.757, 30.38604
1135.239, 30.97691
1135.721, 30.23478
1136.203, 28.45848
1136.685, 28.38619
1137.167, 29.85063
1137.650, 30.97702
1138.132, 30.31455
1138.614, 29.47526
1139.096, 29.15938
1139.578, 29.12892
1140.060, 29.10046
1140.542, 29.07441
1141.024, 28.89344
1141.506, 28.53735
1141.989, 28.50293
1142.471, 29.80220
1142.953, 30.96235
1143.435, 30.67832
1143.917, 29.38959
1144.399, 28.69089
1144.881, 28.65860
1145.363, 28.72253
1145.846, 28.81488
1146.328, 28.81257
1146.810, 28.38065
1147.292, 27.94632
1147.774, 28.00439
1148.256, 28.57682
1148.738, 28.91757
1149.220, 28.95785
1149.703, 28.99982
1150.185, 29.13917
1150.667, 29.27456
1151.149, 29.21297
1151.631, 29.09391
1152.113, 29.17757
1152.595, 29.57150
1153.077, 29.53068
1153.559, 28.72714
1154.042, 28.28562
1154.524, 28.82230
1155.006, 29.73349
1155.488, 29.97471
1155.970, 29.74038
1156.452, 29.37471
1156.934, 28.89760
1157.416, 28.46476
1157.898, 27.92024
1158.381, 27.75010
1158.863, 28.47276
1159.345, 29.61758
1159.827, 29.72308
1160.309, 29.11020
1160.791, 28.65607
1161.273, 28.81511
1161.755, 28.91615
1162.238, 28.87362
1162.720, 28.67164
1163.202, 28.08487
1163.684, 27.30443
1164.166, 27.51263
1164.648, 28.49948
1165.130, 29.33310
1165.612, 29.67617
1166.094, 29.63047
1166.577, 28.95707
1167.059, 28.17079
1167.541, 27.78507
1168.023, 27.75721
1168.505, 27.72720
1168.987, 27.69356
1169.469, 27.75522
1169.951, 27.93378
1170.433, 28.26371
1170.916, 28.98785
1171.398, 29.73097
1171.880, 29.99650
1172.362, 29.80297
1172.844, 29.35177
1173.326, 28.67386
1173.808, 28.24305
1174.290, 28.50939
1174.773, 29.00210
1175.255, 29.64612
1175.737, 30.25355
1176.219, 30.45423
1176.701, 30.24879
1177.183, 29.79581
1177.665, 29.10134
1178.147, 28.35424
1178.630, 27.36270
1179.112, 26.68623
1179.594, 26.93801
1180.076, 27.82444
1180.558, 28.41757
1181.040, 28.70779
1181.522, 28.99473
1182.004, 29.34978
1182.486, 29.60913
1182.969, 29.55750
1183.451, 29.40500
1183.933, 29.37080
1184.415, 29.41336
1184.897, 29.08840
1185.379, 28.31934
1185.861, 28.10871
1186.343, 28.85855
1186.825, 29.62762
1187.308, 29.31593
1187.790, 28.70526
1188.272, 28.57203
1188.754, 28.94681
1189.236, 29.26511
1189.718, 29.53185
1190.200, 29.65731
1190.682, 29.55969
1191.165, 29.46470
1191.647, 29.88117
1192.129, 30.25919
1192.611, 29.77725
1193.093, 28.28515
1193.575, 27.83824
1194.057, 28.60727
1194.539, 29.16174
1195.021, 28.85724
1195.504, 28.27066
1195.986, 27.79729
1196.468, 27.56676
1196.950, 27.85824
1197.432, 28.81399
1197.914, 29.40889
1198.396, 29.63437
1198.878, 29.51526
1199.360, 28.83114
1199.843, 28.17007
1200.325, 28.44660
1200.807, 29.09125
1201.289, 29.27459
1201.771, 28.80913
1202.253, 28.27561
1202.735, 27.61578
1203.217, 27.28786
1203.700, 27.83652
1204.182, 28.50250
1204.664, 28.27761
1205.146, 27.62498
1205.628, 27.30937
1206.110, 27.54288
1206.592, 27.62252
1207.074, 27.50888
1207.557, 27.49700
1208.039, 27.85288
1208.521, 28.33207
1209.003, 28.82655
1209.485, 29.20358
1209.967, 29.15081
1210.449, 28.35256
1210.931, 28.08769
1211.413, 28.43501
1211.896, 28.80953
1212.378, 28.70857
1212.860, 28.50890
1213.342, 28.69377
1213.824, 29.06055
1214.306, 29.17063
1214.788, 28.91841
1215.270, 28.66868
1215.752, 28.41508
1216.235, 28.28616
1216.717, 28.51410
1217.199, 28.79278
1217.681, 28.71213
1218.163, 28.47181
1218.645, 28.57109
1219.127, 29.19838
1219.609, 29.46524
1220.092, 29.31796
1220.574, 28.98613
1221.056, 28.37194
1221.538, 27.90819
1222.020, 28.22845
1222.502, 28.95743
1222.984, 29.16480
1223.466, 28.64571
1223.948, 28.56503
1224.431, 29.03071
1224.913, 29.41546
1225.395, 29.08292
1225.877, 28.58138
1226.359, 28.20742
1226.841, 28.06547
1227.323, 28.37721
1227.805, 29.25536
1228.287, 29.78580
1228.770, 29.89588
1229.252, 29.81618
1229.734, 29.76792
1230.216, 29.56249
1230.698, 28.79738
1231.180, 27.84845
1231.662, 27.59452
1232.144, 28.09035
1232.627, 28.50882
1233.109, 28.78213
1233.591, 28.97440
1234.073, 29.00665
1234.555, 29.10770
1235.037, 29.70156
1235.519, 30.35417
1236.001, 30.12985
1236.484, 29.03112
1236.966, 28.35027
1237.448, 28.20379
1237.930, 28.03391
1238.412, 26.96799
1238.894, 26.29696
1239.376, 27.24583
1239.858, 28.79766
1240.340, 29.38508
1240.823, 29.04944
1241.305, 28.03421
1241.787, 26.41759
1242.269, 25.50629
1242.751, 26.94188
1243.233, 28.31540
1243.715, 28.55489
1244.197, 28.15438
1244.679, 27.72508
1245.162, 27.30723
1245.644, 27.15730
1246.126, 27.28729
1246.608, 27.51867
1247.090, 27.90289
1247.572, 28.18966
1248.054, 28.31721
1248.536, 28.30378
1249.019, 28.03849
1249.501, 27.66666
1249.983, 27.69144
1250.465, 28.13118
1250.947, 28.63728
1251.429, 29.42720
1251.911, 29.68608
1252.393, 29.05720
1252.875, 28.19918
1253.358, 27.96157
1253.840, 28.18466
1254.322, 28.68527
1254.804, 29.37126
1255.286, 29.62634
1255.768, 28.92197
1256.250, 28.38582
1256.732, 28.19286
1257.214, 28.20642
1257.697, 28.40797
1258.179, 28.62381
1258.661, 28.45902
1259.143, 27.98459
1259.625, 27.85568
1260.107, 28.36613
1260.589, 28.63193
1261.071, 28.51379
1261.554, 28.18807
1262.036, 27.69314
1262.518, 27.20634
1263.000, 26.95365
1263.482, 26.90330
1263.964, 26.76975
1264.446, 26.38455
1264.928, 26.72460
1265.411, 28.01058
1265.893, 29.22135
1266.375, 29.43287
1266.857, 29.18352
1267.339, 28.68641
1267.821, 28.14337
1268.303, 28.08271
1268.785, 28.54054
1269.267, 29.07785
1269.750, 29.65701
1270.232, 29.96630
1270.714, 29.64227
1271.196, 29.11138
1271.678, 28.45527
1272.160, 27.87356
1272.642, 27.74186
1273.124, 28.03022
1273.606, 28.35511
1274.089, 28.67172
1274.571, 28.80930
1275.053, 28.44732
1275.535, 28.16010
1276.017, 28.20213
1276.499, 28.37301
1276.981, 28.41622
1277.463, 28.35950
1277.946, 28.23864
1278.428, 28.09281
1278.910, 28.15500
1279.392, 28.91687
1279.874, 29.29700
1280.356, 28.95706
1280.838, 28.49693
1281.320, 28.67970
1281.802, 29.17854
1282.285, 29.26682
1282.767, 29.01997
1283.249, 28.91284
1283.731, 29.31328
1284.213, 29.31861
1284.695, 28.75945
1285.177, 28.18302
1285.659, 28.18167
1286.141, 28.38477
1286.624, 28.18362
1287.106, 27.81305
1287.588, 28.06241
1288.070, 29.28126
1288.552, 29.70022
1289.034, 29.15906
1289.516, 28.66331
1289.998, 29.24293
1290.481, 29.91812
1290.963, 29.92682
1291.445, 29.46588
1291.927, 28.84682
1292.409, 28.03326
1292.891, 27.74490
1293.373, 27.97851
1293.855, 28.42342
1294.338, 29.30423
1294.820, 29.85462
1295.302, 29.31631
1295.784, 28.60950
1296.266, 28.64766
1296.748, 29.26706
1297.230, 29.24585
1297.712, 28.73102
1298.194, 28.39234
1298.677, 28.43796
1299.159, 28.92874
1299.641, 30.33322
1300.123, 31.22687
1300.605, 29.99308
1301.087, 27.74538
1301.569, 27.26303
1302.051, 27.91647
1302.533, 28.24371
1303.016, 27.91189
##END=



