##NAMES=Covellite
##RRUFFID=R060129
##IDEAL CHEMISTRY=Cu^1+^S
##LOCALITY=Butte, Montana, USA
##OWNER=RRUFF
##SOURCE=University of Arizona Mineral Museum
##DESCRIPTION=Iridescent blue metallic hexagonal plates
##STATUS=The identification of this mineral has been confirmed by X-ray diffraction and chemical analysis
##URL=rruff.info/R060129
##MEASURED CHEMISTRY=Cu_1.00_S_1.00_
89.78156, 0.0000000E+00
90.26367, 13.14575
90.74579, 12.84912
91.22791, 12.92665
91.71002, 13.34654
92.19214, 13.83660
92.67426, 14.40802
93.15638, 14.90860
93.63850, 14.89429
94.12061, 13.83971
94.60273, 12.27192
95.08485, 11.48062
95.56696, 11.53925
96.04908, 11.92605
96.53120, 12.02919
97.01331, 11.86433
97.49543, 11.78499
97.97755, 12.04960
98.45966, 12.62520
98.94178, 12.90684
99.42390, 12.82928
99.90602, 12.54518
100.3881, 12.32523
100.8703, 12.17231
101.3524, 12.07093
101.8345, 12.02898
102.3166, 12.07188
102.7987, 12.08178
103.2808, 12.10573
103.7630, 12.08924
104.2451, 11.73725
104.7272, 10.75982
105.2093, 9.825726
105.6914, 9.389791
106.1735, 9.787760
106.6557, 10.11813
107.1378, 10.27876
107.6199, 10.26794
108.1020, 10.17171
108.5841, 9.744947
109.0662, 9.361487
109.5484, 9.350765
110.0305, 10.01735
110.5126, 10.75332
110.9947, 11.57426
111.4768, 12.60974
111.9590, 13.15442
112.4411, 12.67914
112.9232, 11.79191
113.4053, 11.28883
113.8874, 11.70552
114.3695, 12.20373
114.8517, 12.46842
115.3338, 12.40491
115.8159, 12.25165
116.2980, 11.96038
116.7801, 11.62166
117.2622, 11.43297
117.7444, 11.55592
118.2265, 11.79868
118.7086, 12.05172
119.1907, 12.36942
119.6728, 12.57903
120.1549, 12.44587
120.6371, 12.07043
121.1192, 11.85950
121.6013, 12.13452
122.0834, 12.67176
122.5655, 13.22545
123.0476, 13.72678
123.5298, 14.21031
124.0119, 14.67543
124.4940, 15.12782
124.9761, 15.65022
125.4582, 16.26664
125.9404, 16.99630
126.4225, 17.87484
126.9046, 19.20474
127.3867, 20.60403
127.8688, 21.35229
128.3509, 21.39854
128.8331, 21.29042
129.3152, 21.59723
129.7973, 22.26805
130.2794, 23.03483
130.7615, 23.66724
131.2436, 24.28116
131.7258, 25.33282
132.2079, 26.91493
132.6900, 28.71294
133.1721, 30.23763
133.6542, 31.47852
134.1364, 32.71414
134.6185, 34.10518
135.1006, 35.65319
135.5827, 37.18299
136.0648, 38.62691
136.5469, 40.12138
137.0291, 42.22566
137.5112, 45.16421
137.9933, 47.71943
138.4754, 48.97080
138.9575, 48.68087
139.4396, 48.55565
139.9218, 49.00506
140.4039, 49.75750
140.8860, 49.28581
141.3681, 47.03789
141.8502, 44.54852
142.3323, 43.10958
142.8145, 43.08728
143.2966, 43.12481
143.7787, 43.06911
144.2608, 42.91839
144.7429, 42.57664
145.2250, 41.77568
145.7072, 41.02101
146.1893, 40.82667
146.6714, 41.64855
147.1535, 42.34309
147.6356, 42.57733
148.1178, 42.21593
148.5999, 42.30869
149.0820, 43.09157
149.5641, 44.23108
150.0462, 45.33540
150.5283, 46.64627
151.0105, 47.66745
151.4926, 47.73001
151.9747, 46.90426
152.4568, 46.53604
152.9389, 47.05442
153.4210, 47.94297
153.9032, 48.48730
154.3853, 48.56970
154.8674, 48.35320
155.3495, 47.81104
155.8316, 46.66951
156.3137, 45.83909
156.7959, 45.79128
157.2780, 46.11887
157.7601, 46.05590
158.2422, 44.99482
158.7243, 43.83266
159.2065, 42.97512
159.6886, 42.48682
160.1707, 42.28663
160.6528, 42.55167
161.1349, 43.10918
161.6170, 43.50304
162.0992, 43.54430
162.5813, 43.38789
163.0634, 43.11918
163.5455, 42.63200
164.0276, 42.20684
164.5097, 41.93166
164.9919, 41.80864
165.4740, 41.85244
165.9561, 42.28946
166.4382, 42.79643
166.9203, 43.07423
167.4024, 42.78566
167.8846, 42.50646
168.3667, 42.70857
168.8488, 43.30999
169.3309, 43.77955
169.8130, 43.75714
170.2952, 43.43047
170.7773, 43.03051
171.2594, 42.54667
171.7415, 42.08345
172.2236, 41.67015
172.7057, 41.31356
173.1879, 41.13804
173.6700, 41.37188
174.1521, 41.83363
174.6342, 42.21666
175.1163, 42.37284
175.5984, 42.41049
176.0806, 42.42999
176.5627, 42.43068
177.0448, 42.45110
177.5269, 42.64592
178.0090, 42.89689
178.4911, 42.92610
178.9733, 42.41600
179.4554, 41.67498
179.9375, 41.19221
180.4196, 40.99138
180.9017, 40.91164
181.3838, 40.81565
181.8660, 40.71034
182.3481, 40.61567
182.8302, 40.50597
183.3123, 40.41785
183.7944, 40.51307
184.2766, 40.84686
184.7587, 41.10163
185.2408, 40.30066
185.7229, 40.90052
186.2050, 41.23378
186.6871, 41.31477
187.1693, 40.38792
187.6514, 40.76249
188.1335, 40.61551
188.6156, 40.44714
189.0977, 41.00489
189.5798, 40.96180
190.0620, 41.06645
190.5441, 40.74425
191.0262, 40.09398
191.5083, 39.81102
191.9904, 39.98473
192.4725, 40.39959
192.9547, 40.80611
193.4368, 41.21665
193.9189, 41.35494
194.4010, 40.83519
194.8831, 39.72643
195.3652, 39.18201
195.8474, 39.39254
196.3295, 40.01217
196.8116, 40.40503
197.2937, 40.56286
197.7758, 40.57523
198.2579, 40.46421
198.7401, 40.22783
199.2222, 39.94760
199.7043, 39.60575
200.1864, 39.25353
200.6685, 39.02250
201.1507, 38.93410
201.6328, 38.87017
202.1149, 38.76937
202.5970, 38.63149
203.0791, 38.43296
203.5612, 38.11274
204.0434, 37.77678
204.5255, 37.79733
205.0076, 38.29546
205.4897, 38.73474
205.9718, 38.71034
206.4539, 38.11326
206.9361, 37.72915
207.4182, 37.69908
207.9003, 37.89447
208.3824, 37.87083
208.8645, 37.54105
209.3466, 37.22004
209.8288, 37.11942
210.3109, 37.29748
210.7930, 37.44883
211.2751, 37.57151
211.7572, 37.64260
212.2393, 37.54450
212.7215, 37.19315
213.2036, 36.85890
213.6857, 36.74012
214.1678, 36.92212
214.6499, 37.03961
215.1320, 37.09795
215.6142, 36.55059
216.0963, 37.17358
216.5784, 37.52996
217.0605, 37.63408
217.5426, 36.73035
218.0247, 37.12804
218.5069, 37.00418
218.9890, 36.85894
219.4711, 37.43980
219.9532, 36.25920
220.4353, 36.85080
220.9175, 37.17579
221.3996, 37.24850
221.8817, 36.31338
222.3638, 36.67968
222.8459, 36.52443
223.3280, 36.34779
223.8102, 36.89726
224.2923, 36.10872
224.7744, 36.64668
225.2565, 36.65512
225.7386, 36.90592
226.2207, 36.63193
226.7029, 36.52003
227.1850, 36.93308
227.6671, 37.05546
228.1492, 36.72107
228.6313, 36.98726
229.1134, 36.18040
229.5956, 36.43744
230.0777, 36.42912
230.5598, 36.36395
231.0419, 36.25723
231.5240, 36.20454
232.0062, 36.32590
232.4883, 36.33982
232.9704, 35.55736
233.4525, 36.17462
233.9346, 36.52530
234.4167, 36.62370
234.8989, 35.71425
235.3810, 36.10623
235.8631, 35.97666
236.3452, 35.82570
236.8273, 36.40085
237.3094, 35.63799
237.7916, 36.20163
238.2737, 36.23576
238.7558, 35.31714
239.2379, 34.95980
239.7200, 35.28169
240.2021, 35.70477
240.6843, 35.90892
241.1664, 35.74432
241.6485, 35.69088
242.1306, 35.79963
242.6127, 36.03551
243.0948, 36.26994
243.5770, 36.53487
244.0591, 36.75655
244.5412, 36.86691
245.0233, 36.72016
245.5054, 36.69970
245.9876, 37.05619
246.4697, 37.33089
246.9518, 37.52824
247.4339, 37.41651
247.9160, 37.70388
248.3981, 37.83131
248.8803, 37.95221
249.3624, 38.47734
249.8445, 39.11822
250.3266, 39.64723
250.8087, 39.97083
251.2908, 40.24472
251.7730, 40.47334
252.2551, 40.42493
252.7372, 40.80766
253.2193, 41.06251
253.7014, 41.34285
254.1835, 41.87792
254.6657, 42.03481
255.1478, 42.63046
255.6299, 43.09579
256.1120, 43.86138
256.5941, 44.25975
257.0763, 44.58110
257.5584, 44.80198
258.0405, 44.96487
258.5226, 45.15176
259.0047, 45.37780
259.4868, 45.60061
259.9690, 45.80426
260.4511, 45.98818
260.9332, 46.15506
261.4153, 46.30244
261.8974, 46.43696
262.3795, 46.57133
262.8617, 46.71772
263.3438, 46.83958
263.8259, 46.95412
264.3080, 47.08613
264.7901, 46.99550
265.2722, 46.58956
265.7544, 46.07096
266.2365, 45.77758
266.7186, 45.82440
267.2007, 45.74035
267.6828, 45.32029
268.1649, 44.52796
268.6471, 43.97401
269.1292, 43.72166
269.6113, 43.59188
270.0934, 43.36637
270.5755, 43.02436
271.0576, 42.65845
271.5398, 42.29691
272.0219, 41.93569
272.5040, 41.52224
272.9861, 41.02831
273.4682, 40.55375
273.9503, 40.22974
274.4325, 40.09436
274.9146, 39.90565
275.3967, 39.60568
275.8788, 39.20058
276.3610, 38.69677
276.8431, 38.02163
277.3252, 37.48169
277.8073, 36.94293
278.2894, 37.47675
278.7715, 37.74397
279.2537, 37.75891
279.7358, 36.76601
280.2179, 37.07454
280.7000, 36.86151
281.1821, 36.62710
281.6642, 37.11879
282.1464, 36.27247
282.6285, 36.75265
283.1106, 36.70332
283.5927, 36.89634
284.0748, 36.56458
284.5569, 36.39491
285.0391, 36.75016
285.5212, 36.42022
286.0033, 36.71820
286.4854, 36.84840
286.9675, 36.73404
287.4496, 36.47716
287.9318, 36.21801
288.4139, 35.95362
288.8960, 35.83820
289.3781, 36.13039
289.8602, 36.70594
290.3423, 36.88409
290.8245, 36.53278
291.3066, 35.96086
291.7887, 35.62210
292.2708, 35.50139
292.7529, 35.47589
293.2350, 35.53598
293.7172, 35.64419
294.1993, 35.65481
294.6814, 35.53847
295.1635, 35.43314
295.6456, 35.56375
296.1277, 35.87548
296.6099, 36.13445
297.0920, 36.22371
297.5741, 36.18562
298.0562, 36.06055
298.5383, 35.84154
299.0204, 35.64690
299.5026, 35.63652
299.9847, 35.74921
300.4668, 35.82095
300.9489, 35.73577
301.4311, 35.59937
301.9132, 35.55854
302.3953, 35.61110
302.8774, 35.70819
303.3595, 35.84899
303.8416, 36.00252
304.3238, 36.12561
304.8059, 36.26778
305.2880, 36.30839
305.7701, 36.00658
306.2522, 35.42337
306.7343, 34.94929
307.2165, 34.92969
307.6986, 35.13490
308.1807, 35.27000
308.6628, 35.21626
309.1449, 35.15248
309.6270, 35.24142
310.1092, 35.44116
310.5913, 35.61491
311.0734, 35.68767
311.5555, 35.70147
312.0376, 35.69952
312.5197, 35.70849
313.0019, 35.64980
313.4840, 35.35832
313.9661, 34.96856
314.4482, 34.75214
314.9303, 35.10490
315.4124, 35.46735
315.8946, 35.40685
316.3767, 34.75779
316.8588, 34.27858
317.3409, 34.44151
317.8230, 34.91252
318.3051, 35.24994
318.7873, 35.13700
319.2694, 35.02690
319.7515, 35.16699
320.2336, 35.59597
320.7157, 35.88468
321.1978, 35.82580
321.6800, 35.61061
322.1621, 35.41116
322.6442, 35.23700
323.1263, 35.10641
323.6084, 35.03278
324.0905, 35.01350
324.5727, 35.00996
325.0548, 35.05728
325.5369, 35.09309
326.0190, 35.07969
326.5012, 35.01892
326.9833, 34.90354
327.4654, 34.66082
327.9475, 34.34374
328.4296, 34.16778
328.9117, 34.19958
329.3939, 34.31444
329.8760, 34.47270
330.3581, 34.74330
330.8402, 34.92443
331.3223, 34.93224
331.8044, 34.42059
332.2866, 34.93105
332.7687, 35.21164
333.2508, 35.27472
333.7329, 34.46879
334.2150, 34.78500
334.6971, 34.65150
335.1793, 34.49957
335.6614, 34.60995
336.1435, 35.08633
336.6256, 35.33283
337.1077, 35.36182
337.5898, 34.52180
338.0720, 34.80392
338.5541, 34.63634
339.0362, 34.45033
339.5183, 34.89039
340.0004, 34.90466
340.4825, 34.95306
340.9647, 34.95309
341.4468, 34.93926
341.9289, 34.90558
342.4110, 34.77137
342.8931, 34.50093
343.3752, 34.36843
343.8574, 34.76194
344.3395, 35.62197
344.8216, 35.88424
345.3037, 35.28366
345.7858, 34.36298
346.2679, 34.09600
346.7501, 34.44681
347.2322, 34.87276
347.7143, 35.14616
348.1964, 35.27312
348.6785, 35.24780
349.1607, 35.05122
349.6428, 34.81258
350.1249, 34.68066
350.6070, 34.62710
351.0891, 34.55819
351.5713, 34.37594
352.0534, 34.18708
352.5355, 34.15825
353.0176, 34.28702
353.4997, 34.48379
353.9818, 34.79888
354.4640, 35.10971
354.9461, 35.21094
355.4282, 34.91357
355.9103, 34.55297
356.3924, 34.41352
356.8745, 34.46232
357.3567, 34.57007
357.8388, 34.79622
358.3209, 34.97654
358.8030, 34.94711
359.2851, 34.61782
359.7672, 34.24300
360.2494, 33.83847
360.7315, 33.49135
361.2136, 33.36665
361.6957, 33.80631
362.1778, 34.25224
362.6599, 34.38922
363.1421, 34.15048
363.6242, 33.93368
364.1063, 33.93117
364.5884, 33.97834
365.0705, 33.90690
365.5526, 33.42099
366.0348, 33.08672
366.5169, 33.05173
366.9990, 33.30726
367.4811, 33.66025
367.9632, 34.38719
368.4453, 35.00609
368.9275, 35.23063
369.4096, 34.64891
369.8917, 34.24102
370.3738, 34.08463
370.8559, 34.10986
371.3380, 34.12299
371.8202, 34.09136
372.3023, 34.09350
372.7844, 34.18435
373.2665, 34.42028
373.7487, 34.49829
374.2308, 34.33104
374.7129, 34.09415
375.1950, 34.03597
375.6771, 34.21202
376.1592, 34.40203
376.6414, 34.60671
377.1235, 34.79890
377.6056, 34.63500
378.0877, 34.00022
378.5698, 33.38176
379.0519, 33.29356
379.5341, 33.74065
380.0162, 34.00108
380.4983, 33.91865
380.9804, 33.62317
381.4625, 33.35926
381.9446, 33.12470
382.4268, 33.00154
382.9089, 33.03760
383.3910, 33.22305
383.8731, 33.59851
384.3552, 34.21516
384.8373, 34.77712
385.3195, 34.89381
385.8016, 34.66425
386.2837, 34.38005
386.7658, 34.06631
387.2479, 33.82210
387.7300, 33.87560
388.2122, 34.20928
388.6943, 34.42463
389.1764, 34.01915
389.6585, 33.38937
390.1406, 33.05898
390.6227, 33.32475
391.1049, 33.70801
391.5870, 33.99446
392.0691, 34.16156
392.5512, 34.14137
393.0333, 33.63263
393.5154, 33.11457
393.9976, 32.95403
394.4797, 33.34232
394.9618, 33.59480
395.4439, 33.32784
395.9260, 32.84623
396.4081, 32.55628
396.8903, 32.56619
397.3724, 32.75163
397.8545, 33.24219
398.3366, 34.06167
398.8188, 34.45019
399.3009, 34.02842
399.7830, 33.37589
400.2651, 32.84642
400.7472, 32.37900
401.2293, 32.13435
401.7115, 32.21297
402.1936, 32.50921
402.6757, 32.70049
403.1578, 32.73362
403.6399, 32.75267
404.1220, 32.81377
404.6042, 32.92092
405.0863, 33.08672
405.5684, 33.40265
406.0505, 33.62828
406.5326, 33.30308
407.0147, 32.31046
407.4969, 31.67122
407.9790, 31.76323
408.4611, 32.39079
408.9432, 32.74696
409.4253, 32.80564
409.9074, 32.84768
410.3896, 33.24792
410.8717, 33.86500
411.3538, 33.99043
411.8359, 33.39671
412.3180, 32.59138
412.8001, 32.27125
413.2823, 32.36221
413.7644, 32.54226
414.2465, 32.75315
414.7286, 32.90837
415.2107, 32.82995
415.6928, 32.50274
416.1750, 32.22307
416.6571, 32.29117
417.1392, 32.52345
417.6213, 32.67269
418.1034, 32.60075
418.5855, 32.48226
419.0677, 32.39346
419.5498, 32.33525
420.0319, 32.31440
420.5140, 32.37025
420.9961, 32.43797
421.4782, 32.48697
421.9604, 32.52967
422.4425, 32.50823
422.9246, 32.36323
423.4067, 32.16033
423.8889, 31.98737
424.3710, 31.73553
424.8531, 31.64287
425.3352, 31.82205
425.8173, 32.27322
426.2994, 32.64199
426.7816, 32.95354
427.2637, 33.15346
427.7458, 33.19340
428.2279, 33.00893
428.7100, 32.81274
429.1921, 32.59562
429.6743, 32.38968
430.1564, 32.28900
430.6385, 32.31567
431.1206, 32.36400
431.6027, 32.42048
432.0848, 32.48031
432.5670, 32.37118
433.0491, 32.04687
433.5312, 31.74265
434.0133, 31.73053
434.4954, 31.97640
434.9775, 32.25368
435.4597, 32.51259
435.9418, 32.76652
436.4239, 33.03767
436.9060, 33.32135
437.3881, 33.60235
437.8702, 33.84347
438.3524, 34.08488
438.8345, 34.41001
439.3166, 34.84472
439.7987, 35.24364
440.2808, 35.41206
440.7629, 35.48433
441.2451, 35.66807
441.7272, 36.26388
442.2093, 36.79572
442.6914, 36.88395
443.1735, 36.61176
443.6556, 36.54360
444.1378, 36.94710
444.6199, 37.58000
445.1020, 38.31364
445.5841, 39.23753
446.0662, 40.04626
446.5483, 40.67698
447.0305, 41.17337
447.5126, 41.60200
447.9947, 41.74546
448.4768, 42.08051
448.9590, 42.71109
449.4411, 43.63736
449.9232, 44.78569
450.4053, 46.27705
450.8874, 47.83166
451.3695, 49.16766
451.8517, 50.16875
452.3338, 51.50474
452.8159, 53.26178
453.2980, 55.33108
453.7801, 57.52682
454.2622, 59.82481
454.7444, 62.32424
455.2265, 64.97121
455.7086, 67.84179
456.1907, 71.20747
456.6728, 75.13406
457.1549, 79.25102
457.6371, 83.20410
458.1192, 87.14371
458.6013, 91.63481
459.0834, 97.02139
459.5655, 102.5353
460.0476, 107.2848
460.5298, 111.4622
461.0119, 115.3894
461.4940, 119.0214
461.9761, 122.7246
462.4582, 126.8515
462.9403, 131.4956
463.4225, 136.1330
463.9046, 139.7877
464.3867, 143.6975
464.8688, 148.9407
465.3509, 156.6058
465.8330, 164.7211
466.3152, 172.7044
466.7973, 180.7634
467.2794, 189.6162
467.7615, 199.7161
468.2436, 210.3428
468.7257, 221.3887
469.2079, 232.7866
469.6900, 244.3043
470.1721, 256.0299
470.6542, 267.6767
471.1363, 279.3100
471.6184, 291.5040
472.1006, 301.5252
472.5827, 309.2264
473.0648, 314.2488
473.5469, 315.6908
474.0291, 313.5966
474.5112, 307.4507
474.9933, 296.3105
475.4754, 280.7384
475.9575, 262.4765
476.4396, 241.3120
476.9218, 219.5078
477.4039, 198.9894
477.8860, 179.8310
478.3681, 162.4269
478.8502, 146.9114
479.3323, 133.1855
479.8145, 121.2964
480.2966, 111.0708
480.7787, 102.3529
481.2608, 95.31753
481.7429, 89.32829
482.2250, 84.02915
482.7072, 79.41989
483.1893, 75.25027
483.6714, 71.45896
484.1535, 68.05101
484.6356, 65.02541
485.1177, 62.40552
485.5999, 60.10691
486.0820, 58.19470
486.5641, 56.61773
487.0462, 55.16297
487.5283, 53.92157
488.0104, 52.67724
488.4926, 51.28547
488.9747, 49.69336
489.4568, 48.38293
489.9389, 47.42039
490.4210, 46.63966
490.9031, 45.90660
491.3853, 45.22215
491.8674, 44.49667
492.3495, 43.69093
492.8316, 42.86577
493.3137, 42.14194
493.7958, 41.51528
494.2780, 40.98009
494.7601, 40.57478
495.2422, 40.25064
495.7243, 39.91585
496.2064, 39.55989
496.6885, 39.25228
497.1707, 39.09363
497.6528, 38.99613
498.1349, 38.84064
498.6170, 38.58755
499.0992, 38.27534
499.5813, 37.94657
500.0634, 37.57360
500.5455, 37.08675
501.0276, 36.14108
501.5097, 35.36738
501.9919, 35.11959
502.4740, 35.52726
502.9561, 35.70547
503.4382, 35.37891
503.9203, 34.95212
504.4024, 34.69418
504.8846, 34.65948
505.3667, 34.70443
505.8488, 34.90705
506.3309, 35.13172
506.8130, 35.01667
507.2951, 34.45877
507.7773, 34.03899
508.2594, 34.10652
508.7415, 34.51542
509.2236, 34.31231
509.7057, 33.44871
510.1878, 32.59214
510.6700, 32.29312
511.1521, 32.43879
511.6342, 32.73404
512.1163, 33.17696
512.5984, 33.59182
513.0806, 33.73529
513.5627, 33.71368
514.0448, 33.74915
514.5269, 34.09293
515.0090, 34.39977
515.4911, 34.39267
515.9733, 34.11142
516.4554, 33.84272
516.9375, 33.65709
517.4196, 33.54506
517.9017, 33.53105
518.3839, 33.72456
518.8660, 33.75023
519.3481, 33.38359
519.8302, 32.91469
520.3123, 32.65859
520.7944, 32.70905
521.2766, 32.80495
521.7587, 32.94566
522.2408, 33.09853
522.7229, 33.13144
523.2050, 33.02673
523.6871, 32.87016
524.1693, 32.66142
524.6514, 32.41671
525.1335, 32.34044
525.6156, 32.45951
526.0977, 32.57079
526.5798, 32.09153
527.0620, 32.63235
527.5441, 32.94331
528.0262, 33.03674
528.5083, 32.26117
528.9904, 32.60774
529.4725, 32.50461
529.9547, 32.38304
530.4368, 32.88755
530.9189, 32.23837
531.4010, 32.58059
531.8831, 32.33186
532.3652, 32.24348
532.8474, 32.62074
533.3295, 33.07849
533.8116, 33.38262
534.2937, 33.49886
534.7758, 33.46167
535.2579, 33.19011
535.7401, 32.80783
536.2222, 32.48027
536.7043, 32.14967
537.1864, 32.00835
537.6685, 32.15096
538.1506, 32.50851
538.6328, 32.78056
539.1149, 32.97638
539.5970, 33.04628
540.0791, 32.85757
540.5612, 32.49219
541.0433, 32.41328
541.5255, 32.66859
542.0076, 32.89978
542.4897, 32.68242
542.9718, 32.19148
543.4539, 31.76628
543.9360, 31.48491
544.4182, 31.32945
544.9003, 31.35044
545.3824, 31.49024
545.8645, 31.62109
546.3466, 31.71600
546.8287, 31.76785
547.3109, 31.74201
547.7930, 31.63644
548.2751, 31.59398
548.7572, 31.73619
549.2393, 31.86894
549.7214, 31.88494
550.2036, 31.72890
550.6857, 31.58456
551.1678, 31.47214
551.6499, 31.35090
552.1320, 31.11908
552.6141, 30.73024
553.0963, 30.54020
553.5784, 30.68625
554.0605, 31.03688
554.5426, 31.29922
555.0247, 31.47055
555.5068, 31.49645
555.9890, 31.27983
556.4711, 30.91720
556.9532, 30.54053
557.4353, 30.15598
557.9174, 29.85217
558.3995, 29.73458
558.8817, 29.71856
559.3638, 29.71239
559.8459, 29.68278
560.3281, 29.68515
560.8102, 29.78524
561.2923, 29.92189
561.7744, 29.99822
562.2565, 29.97634
562.7386, 29.91326
563.2208, 29.80270
563.7029, 29.65504
564.1850, 29.51787
564.6671, 29.32425
565.1492, 29.26608
565.6313, 29.56998
566.1135, 30.30249
566.5956, 30.37476
567.0777, 29.27069
567.5598, 29.78344
568.0419, 30.06633
568.5240, 30.13170
569.0062, 29.32806
569.4883, 29.64656
569.9704, 29.51536
570.4525, 29.36572
570.9346, 29.84216
571.4167, 29.16492
571.8989, 29.63142
572.3810, 29.64137
572.8631, 29.86027
573.3452, 29.62670
573.8273, 29.53288
574.3094, 29.48656
574.7916, 29.24948
575.2737, 28.89352
575.7558, 28.28319
576.2379, 28.04658
576.7200, 28.46011
577.2021, 29.03281
577.6843, 29.34340
578.1664, 29.33721
578.6485, 29.21083
579.1306, 28.94731
579.6127, 28.61251
580.0948, 28.27868
580.5770, 27.94590
581.0591, 27.79925
581.5412, 27.99353
582.0233, 28.37879
582.5054, 28.68422
582.9875, 28.89917
583.4697, 28.96795
583.9518, 28.74714
584.4339, 28.41329
584.9160, 28.10862
585.3981, 27.83310
585.8802, 27.74820
586.3624, 28.22200
586.8445, 28.77897
587.3266, 28.97744
587.8087, 28.24257
588.2908, 27.76711
588.7729, 27.89648
589.2551, 28.30909
589.7372, 28.44163
590.2193, 28.05858
590.7014, 27.88112
591.1835, 28.20994
591.6656, 28.88366
592.1478, 28.96545
592.6299, 28.37443
593.1120, 27.78734
593.5941, 27.61195
594.0762, 27.77210
594.5583, 28.07706
595.0405, 28.52927
595.5226, 28.85186
596.0047, 28.71770
596.4868, 28.32537
596.9689, 27.92144
597.4510, 27.47873
597.9332, 27.24859
598.4153, 27.51248
598.8974, 28.04591
599.3795, 28.51911
599.8616, 29.06903
600.3438, 29.31005
600.8259, 28.88592
601.3080, 28.02195
601.7901, 27.64151
602.2722, 28.08182
602.7543, 28.44374
603.2365, 28.35125
603.7186, 27.81551
604.2007, 27.40620
604.6828, 27.10623
605.1649, 27.02691
605.6470, 27.48668
606.1292, 28.29103
606.6113, 28.54878
607.0934, 28.08733
607.5755, 27.50561
608.0576, 27.44658
608.5398, 27.68491
609.0219, 27.83729
609.5040, 27.71596
609.9861, 27.57316
610.4683, 27.58410
610.9504, 27.67424
611.4325, 27.68215
611.9146, 27.49762
612.3967, 27.29773
612.8788, 27.13996
613.3610, 27.02052
613.8431, 26.84893
614.3252, 26.54007
614.8073, 26.32612
615.2894, 26.35044
615.7715, 26.62831
616.2537, 26.88846
616.7358, 27.14784
617.2179, 27.30606
617.7000, 27.15365
618.1821, 26.79834
618.6642, 26.65617
619.1464, 26.84421
619.6285, 27.07590
620.1106, 27.09089
620.5927, 26.94264
621.0748, 26.72447
621.5569, 26.21234
622.0391, 25.89820
622.5212, 26.18501
623.0033, 26.86128
623.4854, 27.27894
623.9675, 27.15069
624.4496, 26.91906
624.9318, 26.64683
625.4139, 26.33881
625.8960, 26.26092
626.3781, 26.48317
626.8602, 26.77507
627.3423, 27.08403
627.8245, 27.40023
628.3066, 27.26776
628.7887, 26.60859
629.2708, 25.93175
629.7529, 25.82672
630.2350, 26.10166
630.7172, 26.31045
631.1993, 26.32950
631.6814, 26.33741
632.1635, 26.55292
632.6456, 26.83725
633.1277, 26.97317
633.6099, 26.74720
634.0920, 26.51159
634.5741, 26.39552
635.0562, 26.36224
635.5383, 26.25199
636.0204, 25.94030
636.5026, 25.72197
636.9847, 25.66714
637.4668, 25.77844
637.9489, 26.17047
638.4310, 26.94386
638.9131, 27.56109
639.3953, 27.57107
639.8774, 27.10184
640.3595, 26.69645
640.8416, 26.37248
641.3237, 26.18782
641.8058, 26.28893
642.2880, 26.53463
642.7701, 26.73643
643.2522, 26.86979
643.7343, 26.91375
644.2164, 26.78690
644.6985, 26.58806
645.1807, 26.44996
645.6628, 26.47318
646.1449, 26.46543
646.6270, 26.31901
647.1091, 26.14048
647.5912, 26.26400
648.0734, 26.88208
648.5555, 27.24274
649.0376, 26.97866
649.5197, 26.28945
650.0018, 26.12515
650.4839, 26.47849
650.9661, 26.87942
651.4482, 27.09252
651.9303, 27.13213
652.4124, 26.93265
652.8945, 26.50175
653.3766, 26.19234
653.8588, 26.32387
654.3409, 26.62523
654.8230, 26.89647
655.3051, 27.14361
655.7872, 27.23667
656.2693, 27.03867
656.7515, 26.73135
657.2336, 26.46871
657.7158, 26.15172
658.1979, 26.13587
658.6800, 26.59940
659.1621, 27.20523
659.6442, 27.29916
660.1263, 26.87482
660.6085, 26.49170
661.0906, 26.27935
661.5727, 26.25669
662.0548, 26.54854
662.5369, 27.08178
663.0190, 27.57809
663.5012, 28.06798
663.9833, 28.32296
664.4654, 28.00782
664.9475, 27.20507
665.4296, 26.56388
665.9117, 26.48418
666.3939, 26.45761
666.8760, 26.13283
667.3581, 25.37999
667.8402, 25.21494
668.3223, 25.91712
668.8044, 26.76422
669.2866, 27.22406
669.7687, 27.28643
670.2508, 27.29208
670.7329, 27.26334
671.2150, 27.15481
671.6971, 26.77699
672.1793, 26.27939
672.6614, 26.09016
673.1435, 26.40183
673.6256, 26.78805
674.1077, 26.88306
674.5898, 26.83645
675.0720, 26.87856
675.5541, 27.28290
676.0362, 27.56059
676.5183, 27.47156
677.0004, 27.15899
677.4825, 27.03468
677.9647, 27.26064
678.4468, 27.35633
678.9289, 27.13143
679.4110, 26.67907
679.8931, 26.45307
680.3752, 26.46606
680.8574, 26.52143
681.3395, 26.48661
681.8216, 26.42019
682.3037, 26.47290
682.7858, 26.63583
683.2679, 26.77141
683.7501, 26.79996
684.2322, 26.75378
684.7143, 26.61527
685.1964, 26.34715
685.6785, 26.22572
686.1606, 26.44851
686.6428, 26.75894
687.1249, 26.97155
687.6070, 27.02770
688.0891, 27.13433
688.5712, 27.35042
689.0533, 27.52293
689.5355, 27.40333
690.0176, 27.00779
690.4997, 26.74836
690.9818, 26.72540
691.4639, 26.78952
691.9460, 26.76803
692.4282, 26.67846
692.9103, 26.55439
693.3924, 26.32251
693.8745, 26.16086
694.3566, 26.20287
694.8387, 26.39283
695.3209, 26.60002
695.8030, 26.93149
696.2851, 27.11371
696.7672, 27.02027
697.2493, 26.71884
697.7314, 26.56479
698.2136, 26.58290
698.6957, 26.67022
699.1778, 26.81539
699.6599, 26.99267
700.1420, 27.07158
700.6241, 27.05698
701.1063, 27.03014
701.5884, 27.07983
702.0705, 27.13300
702.5526, 27.05016
703.0347, 26.82381
703.5168, 26.70819
703.9990, 26.99608
704.4811, 27.32278
704.9632, 27.42490
705.4453, 27.18752
705.9274, 26.96949
706.4095, 26.78465
706.8917, 26.60654
707.3738, 26.31592
707.8560, 25.85094
708.3381, 26.00473
708.8202, 26.98054
709.3023, 28.07896
709.7844, 28.38384
710.2665, 28.09460
710.7487, 27.75780
711.2308, 27.47728
711.7129, 27.27035
712.1950, 27.07843
712.6771, 26.98576
713.1592, 27.12030
713.6414, 27.94107
714.1235, 28.50533
714.6056, 28.41700
715.0877, 27.96540
715.5698, 27.71414
716.0519, 27.74321
716.5341, 27.75997
717.0162, 27.68049
717.4983, 27.55209
717.9804, 27.48601
718.4625, 27.48503
718.9446, 27.59973
719.4268, 28.02090
719.9089, 28.45866
720.3910, 28.52201
720.8731, 28.26065
721.3552, 27.88808
721.8373, 27.19729
722.3195, 26.70276
722.8016, 26.80362
723.2837, 27.52005
723.7658, 28.03386
724.2479, 28.23492
724.7300, 28.32817
725.2122, 28.38113
725.6943, 28.39283
726.1764, 28.46609
726.6585, 28.61883
727.1406, 28.72316
727.6227, 28.64743
728.1049, 28.45456
728.5870, 28.26550
729.0691, 28.08742
729.5512, 27.99305
730.0333, 28.05793
730.5154, 28.21757
730.9976, 28.46008
731.4797, 28.90176
731.9618, 29.05841
732.4439, 28.51484
732.9260, 27.89062
733.4081, 27.67921
733.8903, 28.04658
734.3724, 28.26245
734.8545, 28.25136
735.3366, 28.17835
735.8187, 28.30853
736.3008, 28.57607
736.7830, 28.63429
737.2651, 28.34049
737.7472, 28.05750
738.2293, 28.25457
738.7114, 28.66763
739.1935, 28.89945
739.6757, 28.61516
740.1578, 28.40150
740.6399, 28.52988
741.1220, 28.79695
741.6041, 28.84492
742.0862, 28.56417
742.5684, 28.29928
743.0505, 28.08931
743.5326, 27.93970
744.0147, 27.86021
744.4968, 27.85168
744.9789, 27.92903
745.4611, 28.16751
745.9432, 28.40952
746.4253, 28.38179
746.9074, 28.18911
747.3895, 28.10279
747.8716, 28.48314
748.3538, 28.75432
748.8359, 28.53474
749.3180, 27.94976
749.8001, 27.67797
750.2822, 27.98694
750.7643, 28.16320
751.2465, 27.88886
751.7286, 27.32030
752.2107, 27.32862
752.6928, 27.92643
753.1749, 28.41671
753.6570, 28.33303
754.1392, 27.92443
754.6213, 27.50331
755.1034, 27.09545
755.5855, 26.86156
756.0676, 26.98753
756.5498, 27.22382
757.0319, 27.45999
757.5140, 27.68661
757.9962, 27.84219
758.4783, 27.89508
758.9604, 27.91764
759.4425, 27.91686
759.9246, 27.89576
760.4067, 28.03502
760.8889, 28.35709
761.3710, 28.62582
761.8531, 28.68152
762.3352, 28.55774
762.8173, 28.23284
763.2994, 27.72006
763.7816, 27.33105
764.2637, 27.30235
764.7458, 27.44512
765.2279, 27.67176
765.7100, 28.02688
766.1921, 28.17816
766.6743, 27.94839
767.1564, 27.71333
767.6385, 27.75624
768.1206, 28.13095
768.6027, 28.22392
769.0848, 27.98422
769.5670, 27.75020
770.0491, 27.92645
770.5312, 28.30783
771.0133, 28.47838
771.4954, 28.37755
771.9775, 28.19219
772.4597, 27.93962
772.9418, 27.71730
773.4239, 27.60496
773.9060, 27.63165
774.3881, 27.73979
774.8702, 27.99964
775.3524, 28.25455
775.8345, 28.35757
776.3166, 28.29395
776.7987, 28.25906
777.2808, 28.26458
777.7629, 28.30182
778.2451, 28.43392
778.7272, 28.57596
779.2093, 28.51969
779.6914, 28.17208
780.1735, 27.87109
780.6556, 27.84104
781.1378, 27.94689
781.6199, 28.06231
782.1020, 28.19251
782.5841, 28.28949
783.0662, 28.36510
783.5483, 28.39332
784.0305, 28.29757
784.5126, 28.06773
784.9947, 28.05329
785.4768, 28.34318
785.9589, 28.63083
786.4410, 28.49298
786.9232, 28.11444
787.4053, 27.81833
787.8874, 27.67717
788.3695, 27.64340
788.8516, 27.77542
789.3337, 27.96033
789.8159, 28.07144
790.2980, 28.08499
790.7801, 28.04178
791.2622, 27.91186
791.7443, 27.76617
792.2264, 27.70278
792.7086, 27.71715
793.1907, 27.74298
793.6728, 27.76386
794.1549, 27.81675
794.6370, 27.97462
795.1191, 28.18479
795.6013, 28.37762
796.0834, 28.60445
796.5655, 28.66883
797.0476, 28.39747
797.5297, 27.97190
798.0118, 27.59732
798.4940, 27.17924
798.9761, 27.06391
799.4582, 27.36942
799.9403, 27.81631
800.4224, 28.02543
800.9045, 28.03254
801.3867, 28.05425
801.8688, 28.13121
802.3509, 28.24233
802.8330, 28.47844
803.3151, 28.69567
803.7972, 28.67443
804.2794, 28.12491
804.7615, 27.72530
805.2436, 27.62653
805.7258, 27.74125
806.2079, 28.04493
806.6900, 28.65658
807.1721, 28.95488
807.6542, 28.81045
808.1364, 28.51678
808.6185, 28.45239
809.1006, 28.55871
809.5827, 28.65096
810.0648, 28.66376
810.5469, 28.73775
811.0291, 29.20730
811.5112, 29.69299
811.9933, 29.74505
812.4754, 28.77360
812.9575, 28.15168
813.4396, 28.09382
813.9218, 28.25467
814.4039, 28.24099
814.8860, 28.03779
815.3681, 27.89468
815.8502, 27.83207
816.3323, 27.86247
816.8145, 28.09611
817.2966, 28.40786
817.7787, 28.56746
818.2608, 28.48952
818.7429, 28.37324
819.2250, 28.28888
819.7072, 28.22663
820.1893, 28.17337
820.6714, 28.08399
821.1535, 28.11074
821.6356, 28.30501
822.1177, 28.52337
822.5999, 28.63503
823.0820, 28.63815
823.5641, 28.48561
824.0462, 28.15268
824.5283, 27.82371
825.0104, 27.59667
825.4926, 27.50704
825.9747, 27.63202
826.4568, 28.06051
826.9389, 28.44294
827.4210, 28.83642
827.9031, 29.04602
828.3853, 28.87157
828.8674, 28.17756
829.3495, 27.77679
829.8316, 27.71012
830.3137, 27.79292
830.7958, 27.87070
831.2780, 27.96197
831.7601, 28.12239
832.2422, 28.35943
832.7243, 28.59294
833.2064, 28.84654
833.6885, 29.02204
834.1707, 29.02051
834.6528, 28.77320
835.1349, 28.57681
835.6170, 28.39526
836.0991, 28.32618
836.5812, 28.52400
837.0634, 28.95484
837.5455, 29.07073
838.0276, 28.86619
838.5097, 28.58025
838.9918, 28.30675
839.4739, 28.10249
839.9561, 28.03510
840.4382, 28.10734
840.9203, 28.25954
841.4024, 28.64454
841.8845, 28.92984
842.3666, 28.91062
842.8488, 28.59704
843.3309, 28.57518
843.8130, 28.90203
844.2951, 29.20303
844.7772, 29.25766
845.2593, 29.13053
845.7415, 28.91963
846.2236, 28.64521
846.7057, 28.42002
847.1878, 28.30316
847.6699, 28.25697
848.1520, 28.29320
848.6342, 28.39715
849.1163, 28.43957
849.5984, 28.31942
850.0805, 28.35185
850.5626, 28.73969
851.0447, 29.29839
851.5269, 29.32694
852.0090, 28.89071
852.4911, 28.53115
852.9732, 28.63083
853.4553, 28.81275
853.9374, 28.67323
854.4196, 28.34585
854.9017, 28.16012
855.3839, 28.40185
855.8660, 28.56119
856.3481, 28.50509
856.8302, 28.32521
857.3123, 28.23246
857.7944, 28.23558
858.2766, 28.18793
858.7587, 28.02040
859.2408, 27.85519
859.7229, 27.87489
860.2050, 28.03053
860.6871, 28.23786
861.1693, 28.61993
861.6514, 28.80775
862.1335, 28.45204
862.6156, 27.91598
863.0977, 27.69549
863.5798, 27.89710
864.0620, 28.13350
864.5441, 28.42507
865.0262, 28.62409
865.5083, 28.51314
865.9904, 28.15815
866.4725, 27.70644
866.9547, 27.13162
867.4368, 26.74403
867.9189, 26.89183
868.4010, 27.24896
868.8831, 27.52907
869.3652, 27.72356
869.8474, 27.72773
870.3295, 27.43447
870.8116, 27.12536
871.2937, 27.01658
871.7758, 27.09714
872.2579, 27.28507
872.7401, 27.58112
873.2222, 27.80227
873.7043, 27.69805
874.1864, 27.51817
874.6685, 27.58569
875.1506, 27.92856
875.6328, 28.01403
876.1149, 27.36407
876.5970, 26.80860
877.0791, 26.68906
877.5612, 26.95806
878.0433, 27.15190
878.5255, 27.26976
879.0076, 27.32516
879.4897, 27.33904
879.9718, 27.28493
880.4539, 26.99545
880.9360, 26.58220
881.4182, 26.43055
881.9003, 27.11692
882.3824, 27.62932
882.8645, 27.42029
883.3466, 26.81523
883.8287, 26.69050
884.3109, 27.15851
884.7930, 27.46304
885.2751, 27.36643
885.7572, 27.08155
886.2393, 26.91162
886.7214, 26.83878
887.2036, 26.82479
887.6857, 26.88372
888.1678, 26.95219
888.6499, 26.98465
889.1320, 27.01962
889.6141, 27.11906
890.0963, 27.34809
890.5784, 27.47297
891.0605, 27.48728
891.5426, 27.37623
892.0247, 26.99338
892.5068, 26.47494
892.9890, 26.24093
893.4711, 26.36678
893.9532, 26.63309
894.4353, 27.05649
894.9174, 27.44172
895.3995, 27.62767
895.8817, 27.56565
896.3638, 27.39355
896.8459, 26.99781
897.3280, 26.73223
897.8101, 26.94919
898.2922, 27.51728
898.7744, 27.66541
899.2565, 27.42391
899.7386, 27.12460
900.2207, 26.86240
900.7028, 26.72086
901.1849, 26.86753
901.6671, 27.23989
902.1492, 27.37774
902.6313, 27.09390
903.1134, 26.81095
903.5955, 26.58932
904.0776, 26.47598
904.5598, 26.70051
905.0419, 27.20769
905.5240, 27.54925
906.0062, 27.46249
906.4883, 27.30472
906.9704, 27.38881
907.4525, 27.62081
907.9346, 27.85071
908.4167, 27.99003
908.8989, 28.20597
909.3810, 28.55379
909.8631, 28.92838
910.3452, 29.23747
910.8273, 29.47318
911.3094, 29.44617
911.7916, 29.09347
912.2737, 28.81243
912.7558, 29.08584
913.2379, 29.56317
913.7200, 29.85126
914.2021, 29.84675
914.6843, 29.91337
915.1664, 30.21790
915.6485, 30.46370
916.1306, 30.43617
916.6127, 30.16412
917.0948, 30.16056
917.5770, 30.42549
918.0591, 30.77655
918.5412, 31.17004
919.0233, 31.53840
919.5054, 31.79615
919.9875, 31.96004
920.4697, 32.11736
920.9518, 32.49470
921.4339, 32.58125
921.9160, 32.08123
922.3981, 31.33160
922.8802, 31.25295
923.3624, 31.82474
923.8445, 32.36440
924.3266, 32.67361
924.8087, 32.88704
925.2908, 33.18168
925.7729, 33.47206
926.2551, 33.63487
926.7372, 33.59565
927.2193, 33.49878
927.7014, 33.35453
928.1835, 33.17348
928.6656, 32.95899
929.1478, 32.71238
929.6299, 32.45269
930.1120, 32.17933
930.5941, 31.95948
931.0762, 32.03614
931.5583, 32.08066
932.0405, 31.55250
932.5226, 30.42844
933.0047, 29.79965
933.4868, 30.50333
933.9689, 31.02277
934.4510, 30.78148
934.9332, 29.93122
935.4153, 29.19991
935.8974, 28.58243
936.3795, 28.10108
936.8616, 27.79484
937.3438, 27.59338
937.8259, 27.46559
938.3080, 27.38276
938.7901, 27.29076
939.2722, 27.16029
939.7543, 27.02983
940.2365, 26.85694
940.7186, 26.73918
941.2007, 26.92798
941.6828, 27.37257
942.1649, 27.41151
942.6470, 26.91637
943.1292, 26.33490
943.6113, 26.00277
944.0934, 25.83428
944.5755, 25.74011
945.0576, 25.70715
945.5397, 25.78493
946.0219, 26.05190
946.5040, 26.29925
946.9861, 26.43945
947.4682, 26.47053
947.9503, 26.31494
948.4324, 25.99810
948.9146, 25.74222
949.3967, 25.71099
949.8788, 25.75750
950.3609, 25.81469
950.8430, 25.86376
951.3251, 25.85044
951.8073, 25.75437
952.2894, 25.63132
952.7715, 25.48681
953.2536, 25.32251
953.7357, 25.13089
954.2179, 24.92031
954.7000, 24.71774
955.1821, 24.52521
955.6642, 24.36961
956.1464, 24.14441
956.6285, 24.04759
957.1106, 24.35706
957.5927, 25.27676
958.0748, 25.65111
958.5569, 25.30484
959.0391, 24.88338
959.5212, 24.82218
960.0033, 25.01164
960.4854, 25.19467
960.9675, 25.35262
961.4496, 25.38313
961.9318, 25.11148
962.4139, 24.82293
962.8960, 24.66495
963.3781, 24.60126
963.8602, 24.52362
964.3423, 24.42844
964.8245, 24.32141
965.3066, 24.17259
965.7887, 24.09468
966.2708, 24.35424
966.7529, 24.77711
967.2350, 25.01672
967.7172, 24.96216
968.1993, 24.84908
968.6814, 24.71799
969.1635, 24.59966
969.6456, 24.51648
970.1277, 24.47182
970.6099, 24.40746
971.0920, 24.31821
971.5741, 24.27493
972.0562, 24.34962
972.5383, 24.48316
973.0204, 24.61018
973.5026, 24.73088
973.9847, 24.85603
974.4668, 24.96100
974.9489, 25.11495
975.4310, 25.38901
975.9131, 25.67672
976.3953, 25.72874
976.8774, 25.56344
977.3595, 25.48195
977.8416, 25.59295
978.3237, 25.62209
978.8058, 25.05201
979.2880, 24.41083
979.7701, 24.34651
980.2522, 25.25019
980.7343, 25.72032
981.2164, 25.54060
981.6985, 25.25632
982.1807, 25.22246
982.6628, 25.36364
983.1449, 25.34945
983.6270, 25.19281
984.1091, 24.97561
984.5912, 24.52735
985.0734, 24.25271
985.5555, 24.59340
986.0376, 25.25292
986.5197, 25.40251
987.0018, 24.81289
987.4839, 24.49702
987.9661, 24.66639
988.4482, 24.99363
988.9303, 25.04373
989.4124, 24.92541
989.8945, 24.83300
990.3766, 24.79942
990.8588, 24.80608
991.3409, 24.96259
991.8230, 25.04115
992.3051, 24.83574
992.7872, 24.37213
993.2693, 24.37788
993.7515, 24.87432
994.2336, 25.21405
994.7157, 24.86819
995.1978, 24.33463
995.6799, 24.12600
996.1620, 24.18299
996.6442, 24.36898
997.1263, 24.82311
997.6084, 25.15646
998.0905, 25.33208
998.5726, 25.37446
999.0547, 25.22771
999.5369, 24.94786
1000.019, 24.95329
1000.501, 25.31030
1000.983, 25.60447
1001.465, 25.49373
1001.947, 25.23501
1002.430, 24.99279
1002.912, 24.78020
1003.394, 24.63011
1003.876, 24.53397
1004.358, 24.53465
1004.840, 24.69394
1005.322, 24.90375
1005.804, 24.94932
1006.287, 24.87518
1006.769, 24.79464
1007.251, 24.80661
1007.733, 24.72956
1008.215, 24.34596
1008.697, 23.96371
1009.179, 23.88301
1009.661, 24.13474
1010.143, 24.36960
1010.626, 24.58458
1011.108, 24.68373
1011.590, 24.48536
1012.072, 24.21332
1012.554, 24.04588
1013.036, 24.00264
1013.518, 24.14499
1014.000, 24.72559
1014.483, 25.04578
1014.965, 24.85193
1015.447, 24.41665
1015.929, 24.23090
1016.411, 24.27852
1016.893, 24.55828
1017.375, 25.17717
1017.857, 25.64633
1018.339, 25.52051
1018.822, 25.21371
1019.304, 25.12014
1019.786, 25.30283
1020.268, 25.17481
1020.750, 24.66201
1021.232, 24.31039
1021.714, 24.70995
1022.196, 25.33490
1022.679, 25.30191
1023.161, 24.80258
1023.643, 24.38545
1024.125, 24.21267
1024.607, 24.19067
1025.089, 24.37071
1025.571, 24.60826
1026.053, 24.64098
1026.535, 24.51537
1027.018, 24.66038
1027.500, 25.14303
1027.982, 25.59421
1028.464, 25.81438
1028.946, 25.82339
1029.428, 25.49467
1029.910, 24.84458
1030.392, 24.69430
1030.875, 25.24152
1031.357, 25.53034
1031.839, 25.07346
1032.321, 24.39748
1032.803, 24.61161
1033.285, 25.30193
1033.767, 25.56800
1034.249, 24.86733
1034.731, 24.25265
1035.214, 23.86910
1035.696, 23.76786
1036.178, 24.15951
1036.660, 25.03095
1037.142, 25.16300
1037.624, 24.58196
1038.106, 24.13576
1038.588, 24.70425
1039.071, 25.34252
1039.553, 25.26944
1040.035, 24.66589
1040.517, 24.20947
1040.999, 23.91293
1041.481, 23.81495
1041.963, 23.93508
1042.445, 24.20827
1042.927, 24.75401
1043.410, 25.32944
1043.892, 25.36016
1044.374, 24.70419
1044.856, 24.22399
1045.338, 24.42091
1045.820, 24.68357
1046.302, 24.77816
1046.784, 24.71521
1047.266, 24.45658
1047.749, 24.03261
1048.231, 23.84645
1048.713, 24.20932
1049.195, 24.59907
1049.677, 24.52728
1050.159, 24.26736
1050.641, 24.21246
1051.123, 24.53213
1051.606, 24.64628
1052.088, 24.50947
1052.570, 24.33458
1053.052, 24.29661
1053.534, 24.32889
1054.016, 24.29589
1054.498, 24.21301
1054.980, 24.16620
1055.463, 24.20742
1055.945, 24.27184
1056.427, 24.37602
1056.909, 24.46167
1057.391, 24.41224
1057.873, 24.24432
1058.355, 24.07401
1058.837, 23.91138
1059.319, 23.83065
1059.802, 23.89007
1060.284, 24.05458
1060.766, 24.41209
1061.248, 24.92639
1061.730, 25.00450
1062.212, 24.57190
1062.694, 24.06388
1063.176, 23.56170
1063.658, 23.20660
1064.141, 23.36508
1064.623, 23.76327
1065.105, 23.90214
1065.587, 23.36188
1066.069, 23.25437
1066.551, 24.00392
1067.033, 24.68892
1067.515, 24.50545
1067.998, 23.67124
1068.480, 23.37067
1068.962, 23.52802
1069.444, 23.73221
1069.926, 23.71640
1070.408, 23.74069
1070.890, 23.99656
1071.372, 24.33537
1071.854, 24.55819
1072.337, 24.67145
1072.819, 24.56678
1073.301, 24.22009
1073.783, 23.79367
1074.265, 23.30930
1074.747, 22.91906
1075.229, 22.77244
1075.711, 22.87858
1076.193, 23.19222
1076.676, 23.88860
1077.158, 24.28744
1077.640, 24.09374
1078.122, 23.72069
1078.604, 24.00410
1079.086, 24.62925
1079.568, 24.92651
1080.051, 24.70309
1080.533, 24.35179
1081.015, 23.76844
1081.497, 23.34458
1081.979, 23.34090
1082.461, 23.67829
1082.943, 23.81016
1083.425, 23.77488
1083.907, 23.86357
1084.390, 24.42844
1084.872, 24.85574
1085.354, 24.56250
1085.836, 24.00418
1086.318, 23.80624
1086.800, 24.12901
1087.282, 24.15824
1087.764, 23.85162
1088.246, 23.48613
1088.729, 23.23218
1089.211, 23.07424
1089.693, 23.02402
1090.175, 23.05551
1090.657, 23.07033
1091.139, 22.98048
1091.621, 23.02597
1092.103, 23.29920
1092.586, 23.58938
1093.068, 23.53916
1093.550, 23.30478
1094.032, 23.26977
1094.514, 23.47975
1094.996, 23.67897
1095.478, 23.81427
1095.960, 23.83795
1096.443, 23.69513
1096.925, 23.45520
1097.407, 23.30933
1097.889, 23.25169
1098.371, 23.24931
1098.853, 23.30472
1099.335, 23.36937
1099.817, 23.41432
1100.299, 23.44964
1100.781, 23.50998
1101.264, 23.60181
1101.746, 23.46134
1102.228, 23.05699
1102.710, 22.84392
1103.192, 23.19420
1103.674, 23.65803
1104.156, 23.66559
1104.638, 23.44820
1105.121, 23.39344
1105.603, 23.75016
1106.085, 23.88705
1106.567, 23.73672
1107.049, 23.55944
1107.531, 23.63618
1108.013, 23.79996
1108.495, 23.65522
1108.978, 23.28038
1109.460, 23.00936
1109.942, 23.05529
1110.424, 23.09372
1110.906, 23.06466
1111.388, 23.00565
1111.870, 22.97095
1112.352, 22.94958
1112.834, 22.84497
1113.317, 22.65628
1113.799, 22.62406
1114.281, 23.15018
1114.763, 23.58344
1115.245, 23.53711
1115.727, 23.19463
1116.209, 23.00395
1116.691, 22.95910
1117.173, 22.89336
1117.656, 22.76024
1118.138, 22.66401
1118.620, 22.70157
1119.102, 22.80967
1119.584, 22.95000
1120.066, 23.11713
1120.548, 23.29322
1121.030, 23.50232
1121.513, 23.54453
1121.995, 23.31353
1122.477, 22.94842
1122.959, 22.47130
1123.441, 22.02908
1123.923, 21.84603
1124.405, 22.07719
1124.887, 22.25436
1125.370, 22.37510
1125.852, 22.42562
1126.334, 22.31977
1126.816, 22.19381
1127.298, 22.42468
1127.780, 22.85934
1128.262, 23.12948
1128.744, 22.85702
1129.226, 22.80689
1129.709, 23.23837
1130.191, 23.61003
1130.673, 23.25714
1131.155, 22.45793
1131.637, 22.37280
1132.119, 22.91833
1132.601, 23.46856
1133.083, 23.82354
1133.566, 23.97966
1134.048, 23.88001
1134.530, 23.64349
1135.012, 23.35388
1135.494, 23.03625
1135.976, 22.99977
1136.458, 23.26881
1136.940, 23.50012
1137.422, 23.42656
1137.905, 23.27463
1138.387, 23.15310
1138.869, 23.06117
1139.351, 23.00316
1139.833, 22.98145
1140.315, 22.93063
1140.797, 22.84186
1141.279, 22.70360
1141.761, 22.31529
1142.244, 22.01938
1142.726, 22.24549
1143.208, 22.95110
1143.690, 23.24615
1144.172, 23.06156
1144.654, 22.86278
1145.136, 22.80585
1145.618, 22.74426
1146.101, 22.32496
1146.583, 21.89329
1147.065, 21.94140
1147.547, 22.68818
1148.029, 23.13145
1148.511, 23.20802
1148.993, 23.12877
1149.475, 22.93340
1149.958, 22.70849
1150.440, 22.57328
1150.922, 22.51857
1151.404, 22.52960
1151.886, 22.62390
1152.368, 22.74422
1152.850, 22.91261
1153.332, 23.05074
1153.814, 23.16524
1154.297, 23.18543
1154.779, 22.82049
1155.261, 22.20632
1155.743, 21.73819
1156.225, 21.65694
1156.707, 21.58539
1157.189, 21.40644
1157.671, 21.31627
1158.153, 21.51912
1158.636, 21.95077
1159.118, 22.44238
1159.600, 22.94015
1160.082, 23.21664
1160.564, 22.95446
1161.046, 22.72141
1161.528, 22.68819
1162.010, 22.73869
1162.493, 22.76521
1162.975, 22.76240
1163.457, 22.66425
1163.939, 22.47899
1164.421, 22.34534
1164.903, 22.39359
1165.385, 22.45672
1165.867, 22.46257
1166.349, 22.43570
1166.832, 22.39170
1167.314, 22.33806
1167.796, 22.45431
1168.278, 22.76479
1168.760, 22.87547
1169.242, 22.08499
1169.724, 21.43013
1170.206, 21.80698
1170.688, 22.73470
1171.171, 22.99089
1171.653, 22.58769
1172.135, 22.23574
1172.617, 22.06598
1173.099, 21.97639
1173.581, 21.89636
1174.063, 21.85550
1174.545, 21.89710
1175.028, 22.00139
1175.510, 22.07736
1175.992, 22.12294
1176.474, 22.24706
1176.956, 22.54040
1177.438, 22.65753
1177.920, 21.89698
1178.402, 21.08810
1178.885, 21.15628
1179.367, 22.08030
1179.849, 22.57021
1180.331, 22.60169
1180.813, 22.47796
1181.295, 22.24502
1181.777, 22.04900
1182.259, 22.02888
1182.741, 22.13810
1183.224, 22.39088
1183.706, 22.81779
1184.188, 22.91920
1184.670, 22.64942
1185.152, 22.37864
1185.634, 22.24182
1186.116, 22.23509
1186.598, 22.47727
1187.081, 22.78941
1187.563, 22.90943
1188.045, 22.75670
1188.527, 22.63072
1189.009, 22.52791
1189.491, 22.48184
1189.973, 22.56242
1190.455, 22.64813
1190.938, 22.70879
1191.420, 22.03730
1191.902, 22.55563
1192.384, 22.84410
1192.866, 22.91504
1193.348, 22.11698
1193.830, 22.44106
1194.312, 22.31544
1194.794, 22.17138
1195.276, 22.65339
1195.759, 21.98171
1196.241, 22.45380
1196.723, 22.46933
1197.205, 22.69381
1197.687, 22.46581
1198.169, 22.37757
1198.651, 22.74195
1199.133, 23.12973
1199.616, 23.16622
1200.098, 22.84011
1200.580, 22.68872
1201.062, 23.00474
1201.544, 22.94163
1202.026, 22.36375
1202.508, 21.81759
1202.990, 21.87895
1203.473, 22.18541
1203.955, 22.25315
1204.437, 22.15125
1204.919, 22.16597
1205.401, 22.43871
1205.883, 22.54767
1206.365, 22.41074
1206.847, 22.31668
1207.329, 22.75002
1207.812, 23.24450
1208.294, 23.00798
1208.776, 22.25541
1209.258, 22.05195
1209.740, 22.86427
1210.222, 23.21880
1210.704, 22.86395
1211.186, 22.40596
1211.668, 22.56644
1212.151, 22.91160
1212.633, 22.82964
1213.115, 22.39223
1213.597, 22.18975
1214.079, 22.33725
1214.561, 22.51028
1215.043, 22.66580
1215.525, 22.82748
1216.008, 23.15723
1216.490, 23.41645
1216.972, 23.19490
1217.454, 22.56844
1217.936, 22.24465
1218.418, 22.32737
1218.900, 22.47640
1219.382, 22.63951
1219.865, 22.84367
1220.347, 23.34484
1220.829, 23.74612
1221.311, 23.43842
1221.793, 22.49751
1222.275, 21.93759
1222.757, 21.86584
1223.239, 21.89803
1223.721, 21.97507
1224.203, 22.07021
1224.686, 22.24709
1225.168, 22.35905
1225.650, 22.16322
1226.132, 21.69649
1226.614, 21.54250
1227.096, 21.78353
1227.578, 21.89027
1228.061, 21.72205
1228.543, 21.52809
1229.025, 21.58276
1229.507, 21.73287
1229.989, 21.81585
1230.471, 21.84218
1230.953, 21.99353
1231.435, 22.28260
1231.917, 22.62322
1232.400, 23.03492
1232.882, 23.29695
1233.364, 23.11677
1233.846, 22.75975
1234.328, 22.39609
1234.810, 22.06203
1235.292, 21.89379
1235.774, 21.89448
1236.256, 22.05060
1236.739, 22.39476
1237.221, 22.70416
1237.703, 22.81754
1238.185, 22.79571
1238.667, 22.61665
1239.149, 22.34279
1239.631, 22.26027
1240.113, 22.36038
1240.596, 22.32962
1241.078, 22.04886
1241.560, 21.87759
1242.042, 22.24747
1242.524, 22.66707
1243.006, 22.80011
1243.488, 22.70890
1243.970, 22.63225
1244.453, 22.55977
1244.935, 22.39457
1245.417, 22.09005
1245.899, 21.82403
1246.381, 21.65355
1246.863, 21.61932
1247.345, 21.77310
1247.827, 22.04111
1248.309, 22.18278
1248.792, 22.21698
1249.274, 22.21958
1249.756, 22.20320
1250.238, 22.18882
1250.720, 22.14350
1251.202, 22.16913
1251.684, 22.37839
1252.166, 22.62024
1252.648, 22.33677
1253.131, 21.76916
1253.613, 21.72348
1254.095, 22.48134
1254.577, 22.97344
1255.059, 22.66884
1255.541, 22.32154
1256.023, 22.16688
1256.505, 22.15721
1256.988, 22.31339
1257.470, 22.50568
1257.952, 22.38306
1258.434, 21.81094
1258.916, 21.56142
1259.398, 21.87952
1259.880, 22.20743
1260.362, 22.37214
1260.844, 22.43024
1261.327, 22.44079
1261.809, 22.42325
1262.291, 22.42700
1262.773, 22.46734
1263.255, 22.36243
1263.737, 22.04740
1264.219, 21.78794
1264.701, 21.65775
1265.183, 21.64820
1265.666, 21.83838
1266.148, 22.08488
1266.630, 22.20401
1267.112, 22.17396
1267.594, 22.21563
1268.076, 22.34313
1268.558, 22.42637
1269.040, 22.41568
1269.523, 22.39499
1270.005, 22.53082
1270.487, 22.63018
1270.969, 22.40129
1271.451, 21.94256
1271.933, 21.87694
1272.415, 22.19855
1272.897, 22.45689
1273.380, 22.54320
1273.862, 22.54216
1274.344, 22.40136
1274.826, 22.31524
1275.308, 22.49797
1275.790, 22.79185
1276.272, 22.57678
1276.754, 21.96943
1277.236, 21.61699
1277.719, 21.67916
1278.201, 21.77310
1278.683, 21.65082
1279.165, 21.58304
1279.647, 21.69184
1280.129, 21.90136
1280.611, 22.06583
1281.093, 22.19851
1281.576, 22.36774
1282.058, 22.59246
1282.540, 22.66022
1283.022, 22.39049
1283.504, 22.16317
1283.986, 22.10255
1284.468, 22.06628
1284.950, 21.73208
1285.432, 21.31981
1285.915, 21.20182
1286.397, 21.41653
1286.879, 21.71540
1287.361, 22.12261
1287.843, 22.41218
1288.325, 22.52070
1288.807, 22.54126
1289.289, 22.50337
1289.771, 22.49214
1290.254, 22.65293
1290.736, 22.94551
1291.218, 23.10769
1291.700, 23.15573
1292.182, 22.79240
1292.664, 21.90560
1293.146, 21.24844
1293.628, 21.68685
1294.111, 22.36197
1294.593, 22.75440
1295.075, 22.90497
1295.557, 22.83244
1296.039, 22.56485
1296.521, 22.41064
1297.003, 22.40772
1297.485, 22.45871
1297.968, 22.52350
1298.450, 22.61557
1298.932, 22.82129
1299.414, 22.95349
1299.896, 22.58683
1300.378, 21.93114
1300.860, 21.64813
1301.342, 21.75711
1301.824, 21.89280
##END=



