##NAMES=Covellite
##RRUFFID=R060143
##IDEAL CHEMISTRY=Cu^1+^S
##LOCALITY=Butte, Montana, USA
##OWNER=RRUFF
##SOURCE=Marcus Origlieri
##DESCRIPTION=Irridescent blue to purple hexagonal plates
##STATUS=The identification of this mineral has been confirmed by X-ray diffraction and chemical analysis
##URL=rruff.info/R060143
##MEASURED CHEMISTRY=Cu_1.00_S_1.00_
92.02539, 350.7088
92.50751, 368.2941
92.98962, 379.1518
93.47174, 371.2417
93.95386, 355.7668
94.43597, 340.5513
94.91809, 329.3428
95.40021, 321.3230
95.88232, 312.9955
96.36444, 307.4864
96.84656, 297.3412
97.32867, 277.2308
97.81078, 252.0849
98.29290, 230.1465
98.77502, 218.4341
99.25713, 218.1664
99.73925, 212.7889
100.2214, 200.1448
100.7035, 185.8696
101.1856, 171.3829
101.6677, 157.2755
102.1498, 144.3843
102.6320, 133.7217
103.1141, 125.6553
103.5962, 119.4549
104.0783, 116.4614
104.5604, 114.7150
105.0425, 112.2840
105.5247, 108.6658
106.0068, 103.8768
106.4889, 97.36533
106.9710, 88.67487
107.4531, 80.95213
107.9352, 75.81599
108.4173, 72.94560
108.8995, 70.56970
109.3816, 68.14122
109.8637, 65.94670
110.3458, 64.29723
110.8279, 63.28163
111.3100, 62.56750
111.7922, 61.69591
112.2743, 60.50903
112.7564, 59.70606
113.2385, 59.77282
113.7206, 60.14307
114.2027, 60.37091
114.6849, 60.26387
115.1670, 59.86193
115.6491, 59.29262
116.1312, 58.22828
116.6133, 57.37409
117.0954, 56.91772
117.5776, 56.73049
118.0597, 56.62016
118.5418, 56.45856
119.0239, 56.24440
119.5060, 56.00874
119.9881, 55.53162
120.4703, 55.23173
120.9524, 55.38013
121.4345, 55.91516
121.9166, 56.53095
122.3987, 56.97438
122.8808, 57.21149
123.3630, 57.26223
123.8451, 57.01194
124.3272, 56.63369
124.8093, 56.25846
125.2914, 55.89172
125.7735, 55.60751
126.2557, 55.57838
126.7378, 55.74685
127.2199, 55.85387
127.7020, 55.85522
128.1841, 55.72807
128.6662, 55.37112
129.1483, 54.62280
129.6305, 53.80619
130.1126, 53.10057
130.5947, 52.51785
131.0768, 52.12712
131.5589, 52.11827
132.0410, 52.57531
132.5232, 52.72607
133.0053, 52.23772
133.4874, 51.56861
133.9695, 50.86110
134.4516, 50.16913
134.9337, 49.56734
135.4159, 49.18247
135.8980, 49.14751
136.3801, 49.09205
136.8622, 49.00958
137.3443, 48.89546
137.8264, 48.77425
138.3086, 48.65151
138.7907, 48.47460
139.2728, 48.09953
139.7549, 47.52056
140.2370, 46.72800
140.7191, 45.41026
141.2013, 43.92334
141.6834, 42.85435
142.1655, 42.57431
142.6476, 42.84822
143.1297, 42.62694
143.6118, 41.59776
144.0939, 40.52082
144.5761, 39.62767
145.0582, 38.92019
145.5403, 38.41276
146.0224, 38.18912
146.5045, 38.16700
146.9866, 38.06157
147.4688, 37.86761
147.9509, 37.58316
148.4330, 37.15373
148.9151, 36.54620
149.3972, 35.99799
149.8793, 35.69717
150.3615, 35.53181
150.8436, 35.38263
151.3257, 35.21893
151.8078, 35.04002
152.2899, 34.84438
152.7720, 34.61998
153.2542, 34.39584
153.7363, 34.16475
154.2184, 33.94293
154.7005, 33.76712
155.1826, 33.70064
155.6647, 33.71502
156.1469, 33.50548
156.6290, 32.69313
157.1111, 32.02248
157.5932, 31.72282
158.0753, 31.72340
158.5574, 31.86063
159.0396, 32.02027
159.5217, 32.22124
160.0038, 32.25785
160.4859, 31.97729
160.9680, 31.69389
161.4501, 31.55906
161.9323, 31.56048
162.4144, 31.57746
162.8965, 31.48049
163.3786, 31.22492
163.8607, 31.04809
164.3428, 30.99762
164.8250, 30.98557
165.3071, 30.94874
165.7892, 30.87741
166.2713, 30.80707
166.7534, 30.80156
167.2355, 30.88263
167.7177, 30.84934
168.1998, 30.53741
168.6819, 30.14878
169.1640, 29.98503
169.6461, 30.15089
170.1282, 30.38219
170.6104, 30.31731
171.0925, 29.99486
171.5746, 29.69922
172.0567, 29.55317
172.5388, 29.52076
173.0209, 29.49384
173.5031, 29.43640
173.9852, 29.27704
174.4673, 29.35154
174.9494, 29.35030
175.4315, 29.27739
175.9136, 28.91815
176.3958, 28.92862
176.8779, 28.79094
177.3600, 28.64718
177.8421, 28.70972
178.3242, 28.39212
178.8063, 28.51456
179.2885, 28.60210
179.7706, 28.55213
180.2527, 28.30175
180.7348, 28.19280
181.2169, 28.43330
181.6990, 28.68137
182.1812, 28.72947
182.6633, 28.55882
183.1454, 28.31735
183.6275, 28.22820
184.1096, 28.42620
184.5917, 28.48773
185.0738, 28.33846
185.5560, 28.12792
186.0381, 27.97066
186.5202, 27.89155
187.0023, 27.82198
187.4844, 27.63951
187.9665, 27.18457
188.4487, 26.87382
188.9308, 26.78506
189.4129, 26.79631
189.8950, 26.82957
190.3771, 26.85647
190.8592, 26.83438
191.3414, 26.66305
191.8235, 26.21164
192.3056, 25.86036
192.7877, 25.65160
193.2698, 25.56546
193.7519, 25.59866
194.2341, 25.76478
194.7162, 25.99795
195.1983, 26.18187
195.6804, 26.34988
196.1625, 26.40898
196.6446, 26.26669
197.1268, 25.99437
197.6089, 25.74510
198.0910, 25.55839
198.5731, 25.43726
199.0552, 25.39166
199.5373, 25.43244
200.0195, 25.47328
200.5016, 25.42745
200.9837, 25.32498
201.4658, 25.34302
201.9479, 25.65870
202.4300, 25.98615
202.9122, 25.98584
203.3943, 25.62266
203.8764, 25.21564
204.3585, 25.01410
204.8406, 25.01630
205.3227, 25.05333
205.8048, 25.18350
206.2870, 25.25600
206.7691, 25.10910
207.2512, 24.73013
207.7333, 24.34535
208.2154, 24.20821
208.6975, 24.35694
209.1797, 24.52746
209.6618, 24.78558
210.1439, 24.97828
210.6260, 24.97156
211.1081, 24.75791
211.5902, 24.48820
212.0724, 24.37114
212.5545, 24.47839
213.0366, 24.52257
213.5187, 24.42152
214.0008, 24.30075
214.4829, 24.24529
214.9651, 24.26764
215.4472, 24.31041
215.9293, 24.27791
216.4114, 24.08438
216.8935, 23.99891
217.3756, 24.09038
217.8578, 24.22173
218.3399, 24.29630
218.8220, 24.29438
219.3041, 24.26704
219.7862, 24.29841
220.2683, 24.46937
220.7505, 24.53475
221.2326, 24.38661
221.7147, 24.21191
222.1968, 24.18113
222.6789, 24.32511
223.1610, 24.51832
223.6432, 24.57121
224.1253, 24.38059
224.6074, 24.25239
225.0895, 24.18014
225.5716, 24.17167
226.0537, 24.28815
226.5358, 24.53541
227.0180, 24.76068
227.5001, 24.71374
227.9822, 24.24182
228.4643, 23.99623
228.9464, 24.18457
229.4285, 24.54017
229.9107, 24.79098
230.3928, 24.87611
230.8749, 24.87859
231.3570, 24.90438
231.8391, 24.96307
232.3212, 24.95143
232.8034, 24.74150
233.2855, 24.49535
233.7676, 24.43770
234.2497, 24.62521
234.7318, 24.90333
235.2139, 25.13704
235.6961, 25.32969
236.1782, 25.44315
236.6603, 25.39002
237.1424, 25.27482
237.6245, 25.28373
238.1066, 25.47694
238.5888, 25.66741
239.0709, 25.61666
239.5530, 25.40256
240.0351, 25.27423
240.5172, 25.36417
240.9993, 25.58498
241.4815, 25.78378
241.9636, 25.96337
242.4457, 26.08912
242.9278, 26.06186
243.4099, 25.96077
243.8920, 25.96131
244.3742, 26.20612
244.8563, 26.59202
245.3384, 26.90177
245.8205, 27.15628
246.3026, 27.27659
246.7847, 27.13551
247.2668, 26.85521
247.7490, 26.62718
248.2311, 26.54230
248.7132, 26.56355
249.1953, 26.61409
249.6774, 26.73054
250.1595, 26.79802
250.6417, 26.68783
251.1238, 26.52728
251.6059, 26.50150
252.0880, 26.73862
252.5701, 27.10606
253.0522, 27.24734
253.5344, 27.00709
254.0165, 26.84370
254.4986, 27.02118
254.9807, 27.29039
255.4628, 27.34334
255.9449, 27.01746
256.4271, 26.51292
256.9092, 26.31381
257.3913, 26.60085
257.8734, 26.86448
258.3555, 26.98324
258.8376, 27.04195
259.3198, 27.13750
259.8019, 27.30837
260.2840, 27.48203
260.7661, 27.49761
261.2482, 27.26948
261.7303, 27.03620
262.2125, 26.75130
262.6946, 26.51334
263.1767, 26.43375
263.6588, 26.53958
264.1409, 26.72738
264.6230, 26.79709
265.1052, 26.60042
265.5873, 26.58475
266.0694, 26.99444
266.5515, 27.41539
267.0336, 27.50530
267.5157, 27.20535
267.9979, 26.74074
268.4800, 26.43160
268.9621, 26.29877
269.4442, 26.30326
269.9263, 26.60668
270.4084, 26.90217
270.8906, 26.96278
271.3727, 26.77533
271.8548, 26.50736
272.3369, 26.36344
272.8190, 26.39263
273.3011, 26.38981
273.7833, 26.30740
274.2654, 26.23868
274.7475, 26.22096
275.2296, 26.26425
275.7117, 26.38344
276.1938, 26.61555
276.6760, 27.01221
277.1581, 27.18999
277.6402, 26.94090
278.1223, 26.71802
278.6044, 26.74582
279.0865, 26.99606
279.5686, 27.30753
280.0508, 27.54907
280.5329, 27.71711
281.0150, 27.96444
281.4971, 28.33636
281.9792, 28.72439
282.4613, 29.14444
282.9435, 29.55209
283.4256, 29.85256
283.9077, 29.97775
284.3898, 29.94556
284.8719, 29.90732
285.3540, 29.91286
285.8362, 29.85865
286.3183, 29.63909
286.8004, 29.34814
287.2825, 29.16439
287.7646, 29.18790
288.2467, 29.35614
288.7289, 29.45106
289.2110, 29.33545
289.6931, 29.31999
290.1752, 29.56039
290.6573, 29.90145
291.1394, 30.12301
291.6216, 30.13894
292.1037, 30.01614
292.5858, 29.87829
293.0679, 29.68079
293.5500, 29.55681
294.0321, 29.61731
294.5143, 29.71582
294.9964, 29.68091
295.4785, 29.46644
295.9606, 29.15792
296.4427, 28.86594
296.9248, 28.58689
297.4070, 28.34361
297.8891, 28.16325
298.3712, 28.00327
298.8533, 27.82959
299.3354, 27.63689
299.8175, 27.43107
300.2997, 27.21749
300.7818, 26.99494
301.2639, 26.76686
301.7460, 26.46693
302.2281, 26.21420
302.7102, 26.16071
303.1924, 26.27374
303.6745, 26.29663
304.1566, 25.99356
304.6387, 25.38988
305.1208, 25.01253
305.6029, 25.05331
306.0851, 25.10894
306.5672, 24.96457
307.0493, 24.66234
307.5314, 24.35934
308.0135, 24.14719
308.4956, 23.99919
308.9778, 23.79864
309.4599, 23.41794
309.9420, 23.14755
310.4241, 23.24191
310.9062, 23.49945
311.3883, 23.48459
311.8705, 22.98247
312.3526, 22.23400
312.8347, 21.78696
313.3168, 21.72306
313.7989, 21.69822
314.2810, 21.64592
314.7632, 21.59598
315.2453, 21.61036
315.7274, 21.71025
316.2095, 21.80582
316.6916, 21.75839
317.1737, 21.52211
317.6559, 21.34554
318.1380, 21.32297
318.6201, 21.32391
319.1022, 21.21221
319.5843, 20.97445
320.0664, 20.71177
320.5485, 20.50398
321.0306, 20.35904
321.5128, 20.29343
321.9949, 20.38440
322.4770, 20.48681
322.9591, 20.51244
323.4412, 20.46437
323.9233, 20.37899
324.4055, 20.26708
324.8876, 20.14067
325.3697, 20.08546
325.8518, 20.15033
326.3339, 20.22082
326.8160, 20.22343
327.2982, 20.20047
327.7803, 20.27226
328.2624, 20.51871
328.7445, 20.83334
329.2266, 20.91157
329.7087, 20.61268
330.1909, 20.36896
330.6730, 20.29076
331.1551, 20.30076
331.6372, 20.31751
332.1193, 20.31831
332.6014, 20.27789
333.0836, 20.14025
333.5657, 19.83070
334.0478, 19.66166
334.5299, 19.75414
335.0120, 19.91882
335.4941, 19.99386
335.9763, 19.96432
336.4584, 19.93371
336.9405, 20.01694
337.4226, 20.23214
337.9047, 20.27715
338.3868, 19.97850
338.8690, 19.69300
339.3511, 19.63574
339.8332, 19.75467
340.3153, 19.86641
340.7974, 19.85634
341.2795, 19.74154
341.7617, 19.62659
342.2438, 19.50133
342.7259, 19.38805
343.2080, 19.26575
343.6901, 19.16461
344.1722, 19.15072
344.6544, 19.25403
345.1365, 19.40454
345.6186, 19.45734
346.1007, 19.36115
346.5828, 19.23140
347.0649, 19.06141
347.5471, 18.86291
348.0292, 18.59855
348.5113, 18.28312
348.9934, 18.03804
349.4755, 18.03244
349.9576, 18.36059
350.4398, 18.53701
350.9219, 18.51668
351.4040, 18.41300
351.8861, 18.23792
352.3682, 18.02423
352.8503, 17.83051
353.3325, 17.69726
353.8146, 17.62569
354.2967, 17.64090
354.7788, 17.92026
355.2609, 18.08366
355.7430, 17.96804
356.2252, 17.70932
356.7073, 17.49368
357.1894, 17.40954
357.6715, 17.42288
358.1536, 17.45532
358.6357, 17.59763
359.1179, 17.61075
359.5999, 17.39078
360.0821, 17.11020
360.5642, 16.88103
361.0463, 16.73809
361.5284, 16.69284
362.0105, 16.80316
362.4926, 17.18807
362.9748, 17.25625
363.4569, 16.64406
363.9390, 16.07619
364.4211, 15.89733
364.9032, 16.03786
365.3853, 16.24260
365.8675, 16.32304
366.3496, 16.29299
366.8317, 16.28916
367.3138, 16.39937
367.7959, 16.41769
368.2780, 16.19436
368.7602, 15.89556
369.2423, 15.74286
369.7244, 15.83691
370.2065, 16.05207
370.6886, 16.13051
371.1707, 15.99720
371.6529, 15.91572
372.1350, 16.01894
372.6171, 16.11455
373.0992, 16.06528
373.5813, 15.85828
374.0634, 15.58822
374.5456, 15.30915
375.0277, 15.01417
375.5098, 14.87141
375.9919, 14.98852
376.4740, 15.15517
376.9561, 15.32831
377.4383, 15.47418
377.9204, 15.51621
378.4025, 15.35867
378.8846, 15.09714
379.3667, 15.02954
379.8488, 15.25812
380.3310, 15.41461
380.8131, 15.26244
381.2952, 15.00311
381.7773, 14.84950
382.2594, 14.87206
382.7415, 14.92968
383.2237, 14.84419
383.7058, 14.61670
384.1879, 14.45614
384.6700, 14.42962
385.1521, 14.47459
385.6342, 14.55608
386.1164, 14.66689
386.5985, 14.72945
387.0806, 14.68361
387.5627, 14.55981
388.0448, 14.41515
388.5269, 14.23859
389.0091, 14.09525
389.4912, 14.06587
389.9733, 14.10578
390.4554, 14.11638
390.9375, 14.02613
391.4196, 13.94705
391.9018, 14.00466
392.3839, 14.18426
392.8660, 14.33869
393.3481, 14.36915
393.8302, 14.37287
394.3123, 14.56032
394.7945, 15.00333
395.2766, 15.38061
395.7587, 15.54133
396.2408, 15.56035
396.7229, 15.54120
397.2050, 15.50060
397.6872, 15.48009
398.1693, 15.54093
398.6514, 15.69323
399.1335, 15.78891
399.6156, 15.75460
400.0977, 15.71649
400.5798, 15.75709
401.0620, 15.87500
401.5441, 16.04169
402.0262, 16.24520
402.5083, 16.47903
402.9904, 16.70678
403.4725, 16.95358
403.9547, 17.16511
404.4368, 17.33097
404.9189, 17.45627
405.4010, 17.52034
405.8831, 17.52167
406.3652, 17.53579
406.8474, 17.68814
407.3295, 18.07522
407.8116, 18.31164
408.2937, 18.30544
408.7758, 18.24918
409.2579, 18.25022
409.7401, 18.30050
410.2222, 18.34342
410.7043, 18.34475
411.1864, 18.29793
411.6685, 18.14780
412.1506, 17.85514
412.6328, 17.49584
413.1149, 17.03157
413.5970, 16.53010
414.0791, 16.04962
414.5612, 15.61257
415.0433, 15.22918
415.5255, 14.92190
416.0076, 14.70478
416.4897, 14.51125
416.9718, 14.32099
417.4539, 14.16971
417.9360, 14.09208
418.4182, 14.07359
418.9003, 14.06692
419.3824, 14.04088
419.8645, 13.99865
420.3466, 13.93974
420.8287, 13.81635
421.3109, 13.78019
421.7930, 14.05590
422.2751, 14.37863
422.7572, 14.39524
423.2393, 13.95686
423.7214, 13.45010
424.2036, 13.31275
424.6857, 13.53163
425.1678, 13.75812
425.6499, 13.95864
426.1320, 14.08668
426.6141, 14.08069
427.0963, 13.95744
427.5784, 13.84548
428.0605, 13.80380
428.5426, 13.80385
429.0247, 13.79742
429.5068, 13.78011
429.9890, 13.79128
430.4711, 13.87208
430.9532, 13.99730
431.4353, 14.08553
431.9174, 14.15148
432.3995, 14.15824
432.8817, 14.07603
433.3638, 13.92250
433.8459, 13.70197
434.3280, 13.40157
434.8101, 13.13222
435.2922, 13.06761
435.7744, 13.27516
436.2565, 13.42367
436.7386, 13.45425
437.2207, 13.46084
437.7028, 13.53855
438.1849, 13.66198
438.6671, 13.71214
439.1492, 13.60144
439.6313, 13.35927
440.1134, 13.16023
440.5955, 13.00122
441.0776, 12.89078
441.5598, 12.81274
442.0418, 12.79313
442.5240, 12.91044
443.0061, 13.16240
443.4882, 13.40107
443.9703, 13.43132
444.4524, 13.22292
444.9345, 12.94708
445.4167, 12.34243
445.8988, 11.93118
446.3809, 12.02309
446.8630, 12.43903
447.3451, 12.84015
447.8272, 13.04379
448.3094, 13.08652
448.7915, 13.02176
449.2736, 12.76604
449.7557, 12.64275
450.2378, 12.83946
450.7199, 13.12566
451.2021, 13.38156
451.6842, 13.58217
452.1663, 13.68397
452.6484, 13.57204
453.1305, 13.31355
453.6126, 13.23965
454.0948, 13.45227
454.5769, 13.65375
455.0590, 13.55814
455.5411, 13.32216
456.0232, 13.22828
456.5053, 13.40159
456.9875, 13.64699
457.4696, 13.83021
457.9517, 13.95218
458.4338, 14.00037
458.9159, 13.93604
459.3980, 13.86425
459.8802, 13.97919
460.3623, 14.30108
460.8444, 14.55070
461.3265, 14.61685
461.8086, 14.63138
462.2907, 14.72332
462.7729, 14.88826
463.2550, 15.02978
463.7371, 15.07529
464.2192, 15.04765
464.7013, 15.08189
465.1834, 15.22899
465.6656, 15.36830
466.1477, 15.46176
466.6298, 15.55082
467.1119, 15.67118
467.5940, 15.83550
468.0761, 16.05394
468.5583, 16.36037
469.0404, 16.79594
469.5225, 17.06587
470.0046, 17.00908
470.4867, 16.95076
470.9688, 17.04139
471.4510, 17.18443
471.9331, 17.20889
472.4152, 17.02859
472.8973, 16.72628
473.3794, 16.45678
473.8615, 16.23405
474.3437, 15.98572
474.8258, 15.67627
475.3079, 15.35554
475.7900, 15.04602
476.2721, 14.75274
476.7542, 14.47802
477.2364, 14.21813
477.7185, 13.98093
478.2006, 13.80277
478.6827, 13.70182
479.1648, 13.55073
479.6469, 13.22526
480.1291, 12.83564
480.6112, 12.57551
481.0933, 12.46865
481.5754, 12.44772
482.0575, 12.53162
482.5396, 12.66684
483.0217, 12.76044
483.5038, 12.79456
483.9860, 12.77985
484.4681, 12.72424
484.9502, 12.62480
485.4323, 12.48961
485.9144, 12.22662
486.3965, 12.02742
486.8787, 12.04239
487.3608, 12.16501
487.8429, 12.17726
488.3250, 11.99209
488.8071, 11.74333
489.2892, 11.67978
489.7714, 11.91681
490.2535, 12.05624
490.7356, 12.12103
491.2177, 12.08512
491.6998, 11.81625
492.1819, 11.43415
492.6641, 11.22742
493.1462, 11.40819
493.6283, 11.82259
494.1104, 12.00070
494.5925, 11.83665
495.0746, 11.72307
495.5568, 11.81603
496.0389, 11.94699
496.5210, 11.99491
497.0031, 11.95388
497.4852, 11.90574
497.9673, 11.90407
498.4495, 11.93911
498.9316, 12.00557
499.4137, 12.12389
499.8958, 12.17208
500.3779, 12.01782
500.8600, 11.76552
501.3422, 11.64551
501.8243, 11.74614
502.3064, 11.81050
502.7885, 11.63367
503.2706, 11.35331
503.7527, 11.23283
504.2349, 11.33098
504.7170, 11.49357
505.1991, 11.56932
505.6812, 11.55219
506.1633, 11.58086
506.6454, 11.78759
507.1276, 11.88958
507.6097, 11.64462
508.0918, 11.26724
508.5739, 11.10656
509.0560, 11.28803
509.5381, 11.63955
510.0203, 11.89546
510.5024, 12.03917
510.9845, 12.14459
511.4666, 12.20195
511.9487, 12.23011
512.4308, 12.24860
512.9130, 12.24143
513.3951, 12.16658
513.8772, 11.98895
514.3593, 11.77435
514.8414, 11.63546
515.3235, 11.57398
515.8057, 11.57725
516.2878, 11.70200
516.7699, 11.83210
517.2520, 11.87027
517.7341, 11.82386
518.2162, 11.75392
518.6984, 11.65916
519.1805, 11.56983
519.6626, 11.55139
520.1447, 11.59556
520.6268, 11.56579
521.1089, 11.34933
521.5911, 11.07590
522.0732, 11.08110
522.5553, 11.47345
523.0374, 11.77017
523.5195, 11.85708
524.0016, 11.83920
524.4838, 11.76909
524.9659, 11.67352
525.4480, 11.61671
525.9301, 11.65752
526.4122, 11.75885
526.8943, 11.71708
527.3765, 11.27588
527.8586, 11.06724
528.3407, 11.30838
528.8228, 11.67433
529.3049, 11.91532
529.7870, 11.99851
530.2692, 12.03116
530.7513, 12.12596
531.2334, 12.25380
531.7155, 12.21678
532.1976, 11.93104
532.6797, 11.67642
533.1619, 11.58384
533.6440, 11.57685
534.1261, 11.59162
534.6082, 11.62170
535.0903, 11.65330
535.5724, 11.67784
536.0546, 11.69750
536.5367, 11.70466
537.0188, 11.69472
537.5009, 11.72793
537.9830, 11.87519
538.4651, 12.10342
538.9473, 12.22661
539.4294, 12.18417
539.9115, 12.12402
540.3936, 12.05551
540.8757, 12.00655
541.3578, 12.03705
541.8400, 12.14623
542.3221, 12.23799
542.8042, 12.19984
543.2863, 12.02791
543.7684, 11.96524
544.2505, 12.10957
544.7326, 12.25149
545.2147, 12.37670
545.6968, 12.46721
546.1790, 12.49762
546.6611, 12.46431
547.1432, 12.40213
547.6253, 12.30758
548.1074, 12.19404
548.5895, 12.25389
549.0717, 12.59985
549.5538, 12.89190
550.0359, 12.87407
550.5180, 12.68465
551.0001, 12.51607
551.4822, 12.40572
551.9644, 12.30342
552.4465, 12.15234
552.9286, 11.99131
553.4107, 11.92958
553.8928, 11.99121
554.3749, 12.01586
554.8571, 11.81667
555.3392, 11.40695
555.8213, 11.29107
556.3034, 11.73071
556.7855, 12.09904
557.2676, 12.25414
557.7498, 12.24292
558.2319, 12.07457
558.7140, 11.77666
559.1961, 11.47096
559.6782, 11.27583
560.1603, 11.19162
560.6425, 11.25228
561.1246, 11.63526
561.6067, 11.89881
562.0888, 11.85389
562.5709, 11.65974
563.0530, 11.45952
563.5352, 11.28345
564.0173, 11.21098
564.4994, 11.39495
564.9815, 11.74079
565.4636, 11.90860
565.9457, 11.83312
566.4279, 11.76704
566.9100, 11.94705
567.3921, 12.25467
567.8742, 12.27667
568.3563, 11.82510
568.8384, 11.40420
569.3206, 11.14143
569.8027, 11.02421
570.2848, 11.09431
570.7669, 11.32622
571.2490, 11.55193
571.7311, 11.61951
572.2133, 11.54519
572.6954, 11.50336
573.1775, 11.49056
573.6596, 11.51896
574.1417, 11.62838
574.6238, 11.75207
575.1060, 11.84451
575.5881, 11.89421
576.0702, 11.89599
576.5523, 11.82438
577.0344, 11.70324
577.5165, 11.62395
577.9987, 11.59462
578.4808, 11.56842
578.9629, 11.48672
579.4450, 11.42746
579.9271, 11.52919
580.4092, 11.82930
580.8914, 12.03674
581.3735, 11.92422
581.8556, 11.73710
582.3377, 11.79938
582.8198, 12.08131
583.3019, 12.28136
583.7841, 12.21205
584.2662, 11.97849
584.7483, 11.87239
585.2304, 12.01928
585.7125, 12.08910
586.1946, 12.09100
586.6768, 12.01377
587.1589, 11.76516
587.6410, 11.43074
588.1231, 11.22911
588.6052, 11.30793
589.0873, 11.52589
589.5695, 11.57403
590.0516, 11.42380
590.5337, 11.31249
591.0158, 11.30839
591.4979, 11.32929
591.9800, 11.31627
592.4622, 11.27219
592.9443, 11.20639
593.4264, 11.03283
593.9085, 10.91877
594.3906, 11.07734
594.8727, 11.40799
595.3549, 11.64272
595.8370, 11.69774
596.3191, 11.61448
596.8012, 11.40438
597.2833, 11.01215
597.7654, 10.89704
598.2476, 11.31432
598.7297, 11.67016
599.2118, 11.75154
599.6939, 11.67943
600.1760, 11.62173
600.6581, 11.62609
601.1403, 11.61966
601.6224, 11.50407
602.1045, 11.28476
602.5866, 11.08494
603.0687, 10.86383
603.5508, 10.75527
604.0330, 10.93513
604.5151, 11.22164
604.9972, 11.38173
605.4793, 11.37099
605.9614, 11.33463
606.4435, 11.36158
606.9257, 11.39840
607.4078, 11.35094
607.8899, 11.22245
608.3720, 11.11092
608.8541, 11.07994
609.3362, 11.10812
609.8184, 11.12801
610.3005, 11.13725
610.7826, 11.14087
611.2647, 11.10863
611.7468, 11.09730
612.2289, 11.18438
612.7111, 11.32427
613.1932, 11.39451
613.6753, 11.32063
614.1574, 11.15597
614.6395, 10.96687
615.1216, 10.74240
615.6038, 10.64490
616.0859, 10.78284
616.5680, 10.94120
617.0501, 10.88452
617.5322, 10.68912
618.0143, 10.62153
618.4965, 10.82885
618.9786, 11.07259
619.4607, 11.22750
619.9428, 11.31482
620.4249, 11.37539
620.9070, 11.41877
621.3892, 11.42659
621.8713, 11.37827
622.3534, 11.27417
622.8355, 11.15153
623.3176, 10.90826
623.7997, 10.78363
624.2819, 10.89220
624.7640, 11.08016
625.2461, 11.22663
625.7282, 11.30822
626.2103, 11.34928
626.6924, 11.37935
627.1745, 11.37788
627.6566, 11.26806
628.1387, 11.03967
628.6208, 10.83967
629.1030, 10.70972
629.5851, 10.64862
630.0672, 10.68055
630.5493, 10.81012
631.0314, 10.91011
631.5135, 10.95627
631.9957, 10.97320
632.4778, 10.95770
632.9599, 10.92817
633.4420, 10.92965
633.9241, 10.97704
634.4063, 11.01844
634.8884, 10.96640
635.3705, 10.80043
635.8526, 10.71510
636.3347, 10.78225
636.8168, 10.83065
637.2990, 10.74542
637.7811, 10.63723
638.2632, 10.66221
638.7453, 10.85907
639.2274, 11.04717
639.7095, 11.12822
640.1917, 11.10794
640.6738, 10.94784
641.1559, 10.65659
641.6380, 10.41819
642.1201, 10.32904
642.6022, 10.35882
643.0844, 10.44614
643.5665, 10.64371
644.0486, 10.78823
644.5307, 10.83931
645.0128, 10.87656
645.4949, 10.98303
645.9771, 11.10230
646.4592, 11.10240
646.9413, 10.92191
647.4234, 10.68647
647.9055, 10.59105
648.3876, 10.63185
648.8698, 10.59117
649.3519, 10.37096
649.8340, 10.25822
650.3161, 10.56430
650.7982, 11.06527
651.2803, 11.29373
651.7625, 11.11762
652.2446, 10.93008
652.7267, 10.91008
653.2088, 10.93949
653.6909, 10.86019
654.1730, 10.69014
654.6552, 10.57979
655.1373, 10.62402
655.6194, 10.77201
656.1015, 10.90656
656.5836, 11.06280
657.0657, 11.11334
657.5479, 10.89770
658.0300, 10.72191
658.5121, 10.78529
658.9942, 10.97357
659.4763, 11.03959
659.9584, 10.87213
660.4406, 10.66311
660.9227, 10.56440
661.4048, 10.55952
661.8869, 10.63137
662.3690, 10.77924
662.8511, 10.89838
663.3333, 10.90804
663.8154, 10.83532
664.2975, 10.79395
664.7796, 10.84044
665.2617, 10.83816
665.7438, 10.72804
666.2260, 10.61683
666.7081, 10.51548
667.1902, 10.47723
667.6723, 10.65735
668.1544, 11.18643
668.6365, 11.74371
669.1187, 11.73608
669.6008, 11.19532
670.0829, 10.86936
670.5650, 10.91336
671.0471, 11.04922
671.5292, 11.10713
672.0114, 11.09324
672.4935, 11.03728
672.9756, 10.88965
673.4577, 10.78751
673.9398, 10.82722
674.4219, 10.89293
674.9041, 10.84444
675.3862, 10.70458
675.8683, 10.61307
676.3504, 10.65945
676.8325, 10.78967
677.3146, 10.89237
677.7968, 10.98140
678.2789, 10.96753
678.7610, 10.75491
679.2431, 10.54768
679.7252, 10.43914
680.2073, 10.42631
680.6895, 10.53415
681.1716, 10.85536
681.6537, 11.08109
682.1358, 10.92910
682.6179, 10.62355
683.1000, 10.50680
683.5822, 10.59253
684.0643, 10.65748
684.5464, 10.54747
685.0285, 10.34878
685.5106, 10.31915
685.9927, 10.56046
686.4749, 10.73135
686.9570, 10.81306
687.4391, 10.82664
687.9212, 10.73820
688.4033, 10.59681
688.8854, 10.49270
689.3676, 10.46346
689.8497, 10.43646
690.3318, 10.28814
690.8139, 10.11353
691.2960, 10.17155
691.7781, 10.47802
692.2603, 10.73749
692.7424, 10.77642
693.2245, 10.64071
693.7066, 10.43242
694.1887, 9.962245
694.6708, 9.814579
695.1530, 10.34309
695.6351, 10.80575
696.1172, 10.82860
696.5993, 10.54299
697.0814, 10.14470
697.5635, 9.688974
698.0457, 9.391397
698.5278, 9.593406
699.0099, 10.12534
699.4920, 10.44776
699.9741, 10.51606
700.4562, 10.44283
700.9384, 10.23512
701.4205, 9.987310
701.9026, 9.910949
702.3847, 10.10050
702.8668, 10.21055
703.3489, 10.14056
703.8311, 10.09027
704.3132, 10.18162
704.7953, 10.35054
705.2774, 10.49000
705.7595, 10.56573
706.2416, 10.62277
706.7238, 10.73626
707.2059, 10.87466
707.6880, 10.86838
708.1701, 10.69070
708.6522, 10.56028
709.1343, 10.58535
709.6164, 10.68369
710.0985, 10.73184
710.5806, 10.72501
711.0627, 10.70773
711.5449, 10.70041
712.0270, 10.66403
712.5091, 10.51006
712.9912, 10.34643
713.4733, 10.35913
713.9554, 10.57036
714.4376, 10.78176
714.9197, 10.78482
715.4018, 10.64212
715.8839, 10.61216
716.3660, 10.71412
716.8481, 10.78735
717.3303, 10.77569
717.8124, 10.72512
718.2945, 10.67084
718.7766, 10.61527
719.2587, 10.60297
719.7408, 10.66177
720.2230, 10.73628
720.7051, 10.87186
721.1872, 10.97347
721.6693, 10.86316
722.1514, 10.57076
722.6335, 10.36934
723.1157, 10.49768
723.5978, 10.80453
724.0799, 10.83362
724.5620, 10.54052
725.0441, 10.45564
725.5262, 10.79292
726.0084, 11.15588
726.4905, 11.17364
726.9726, 10.94126
727.4547, 10.83251
727.9368, 10.97098
728.4189, 11.06975
728.9011, 10.98924
729.3832, 10.87130
729.8653, 10.86199
730.3474, 10.94485
730.8295, 11.01004
731.3116, 10.99462
731.7938, 10.95005
732.2759, 10.98106
732.7580, 11.08952
733.2401, 11.13276
733.7222, 11.08398
734.2043, 11.00839
734.6865, 10.92048
735.1686, 10.84056
735.6507, 10.81882
736.1328, 10.88307
736.6149, 10.90919
737.0970, 10.81585
737.5792, 10.72865
738.0613, 10.76276
738.5434, 10.86225
739.0255, 10.86124
739.5076, 10.71630
739.9897, 10.65606
740.4719, 11.08674
740.9540, 11.88917
741.4361, 12.15366
741.9182, 11.78110
742.4003, 11.36087
742.8824, 11.07452
743.3646, 10.88028
743.8467, 10.74596
744.3288, 10.67211
744.8109, 10.57611
745.2930, 10.30965
745.7751, 10.18527
746.2573, 10.43548
746.7394, 10.83737
747.2215, 11.18065
747.7036, 11.39961
748.1857, 11.44740
748.6678, 11.23637
749.1500, 10.91288
749.6321, 10.84993
750.1142, 11.04716
750.5963, 11.10297
751.0784, 10.89154
751.5605, 10.66325
752.0427, 10.62405
752.5248, 10.74093
753.0069, 10.82515
753.4890, 10.88987
753.9711, 10.90497
754.4532, 10.78418
754.9354, 10.68526
755.4175, 10.76324
755.8996, 10.94993
756.3817, 11.07279
756.8638, 11.05730
757.3459, 10.99083
757.8281, 10.97902
758.3102, 11.00317
758.7923, 10.99008
759.2744, 10.93399
759.7565, 10.85184
760.2386, 10.72021
760.7208, 10.62758
761.2029, 10.75049
761.6850, 11.18157
762.1671, 11.44898
762.6492, 11.51529
763.1313, 11.47551
763.6135, 11.21465
764.0956, 10.94957
764.5777, 10.97493
765.0598, 11.28868
765.5419, 11.54098
766.0240, 11.43790
766.5062, 11.20557
766.9883, 11.18802
767.4704, 11.32914
767.9525, 11.39935
768.4346, 11.34359
768.9167, 11.20858
769.3989, 11.01490
769.8810, 10.78773
770.3631, 10.68817
770.8452, 10.73056
771.3273, 10.87810
771.8094, 11.35869
772.2916, 11.71386
772.7737, 11.56797
773.2558, 11.13609
773.7379, 10.89055
774.2200, 10.99862
774.7021, 11.14490
775.1843, 11.07457
775.6664, 10.94864
776.1485, 11.03461
776.6306, 11.28771
777.1127, 11.39514
777.5948, 11.21038
778.0770, 10.79753
778.5591, 11.13337
779.0412, 11.33424
779.5233, 11.40738
780.0054, 10.97027
780.4875, 11.19205
780.9697, 11.14979
781.4518, 11.09669
781.9339, 11.41121
782.4160, 11.04831
782.8981, 11.35700
783.3802, 11.39761
783.8624, 11.56092
784.3445, 11.45853
784.8266, 11.43821
785.3087, 11.68366
785.7908, 11.78194
786.2729, 11.64897
786.7551, 11.82008
787.2372, 11.44790
787.7193, 11.61111
788.2014, 11.71716
788.6835, 11.73283
789.1656, 11.62976
789.6478, 11.45600
790.1299, 11.14474
790.6120, 10.84185
791.0941, 10.95026
791.5762, 11.67707
792.0583, 12.17235
792.5404, 12.35988
793.0225, 12.34077
793.5046, 11.98680
793.9868, 11.54125
794.4689, 11.31611
794.9510, 11.37195
795.4331, 11.54113
795.9152, 11.79095
796.3973, 12.01115
796.8795, 11.96268
797.3616, 11.70207
797.8437, 11.50422
798.3258, 11.43628
798.8079, 11.43639
799.2900, 11.45203
799.7722, 11.48786
800.2543, 11.58521
800.7364, 11.88019
801.2185, 11.95869
801.7006, 11.50757
802.1827, 11.11515
802.6649, 11.12398
803.1470, 11.36536
803.6291, 11.52326
804.1112, 11.52529
804.5933, 11.49577
805.0754, 11.49475
805.5576, 11.49257
806.0397, 11.39533
806.5218, 11.28034
807.0039, 11.38271
807.4860, 11.76452
807.9681, 12.15956
808.4503, 12.27063
808.9324, 12.14033
809.4145, 11.96794
809.8966, 11.73311
810.3787, 11.57983
810.8608, 11.55312
811.3430, 11.60320
811.8251, 11.71982
812.3072, 11.88418
812.7893, 11.96903
813.2714, 11.90409
813.7535, 11.86532
814.2357, 11.90078
814.7178, 11.94833
815.1999, 12.00917
815.6820, 12.03833
816.1641, 11.91312
816.6462, 11.58643
817.1284, 11.32223
817.6105, 11.46399
818.0926, 11.79306
818.5747, 11.85683
819.0568, 11.68432
819.5389, 11.55851
820.0211, 11.58006
820.5032, 11.64226
820.9853, 11.60966
821.4674, 11.49698
821.9495, 11.54894
822.4316, 11.90471
822.9138, 12.12238
823.3959, 12.08210
823.8780, 11.92167
824.3601, 11.57611
824.8422, 11.19384
825.3243, 11.21434
825.8065, 11.96584
826.2886, 12.49459
826.7707, 12.21054
827.2528, 11.74070
827.7349, 11.64838
828.2170, 11.82454
828.6992, 11.92181
829.1813, 11.82071
829.6634, 11.67623
830.1455, 11.65731
830.6276, 11.72809
831.1097, 11.75037
831.5919, 11.72597
832.0740, 11.80212
832.5561, 12.05057
833.0382, 12.28492
833.5203, 12.32245
834.0024, 12.18678
834.4846, 12.05429
834.9667, 11.87113
835.4488, 11.78366
835.9309, 11.92944
836.4130, 12.03228
836.8951, 11.86922
837.3773, 11.58929
837.8594, 11.47467
838.3415, 11.60147
838.8236, 11.76126
839.3057, 11.86170
839.7878, 11.93354
840.2700, 12.02132
840.7521, 12.10117
841.2342, 12.11240
841.7163, 12.04365
842.1984, 11.93665
842.6805, 11.81157
843.1627, 11.70253
843.6448, 11.74408
844.1269, 11.94203
844.6090, 12.06444
845.0911, 12.05383
845.5732, 12.02644
846.0554, 12.06896
846.5375, 12.14887
847.0196, 12.17526
847.5017, 12.15093
847.9838, 12.06203
848.4659, 11.74856
848.9481, 11.55752
849.4302, 11.75420
849.9123, 12.06871
850.3944, 12.16053
850.8765, 11.99876
851.3586, 11.82757
851.8408, 11.77162
852.3229, 11.75261
852.8050, 11.69411
853.2871, 11.62983
853.7692, 11.64233
854.2513, 11.72191
854.7335, 11.74356
855.2156, 11.61853
855.6977, 11.46421
856.1798, 11.55206
856.6619, 11.86904
857.1440, 11.97337
857.6262, 11.80560
858.1083, 11.62451
858.5904, 11.53596
859.0725, 11.49881
859.5546, 11.45390
860.0367, 11.39707
860.5189, 11.38418
861.0010, 11.46059
861.4831, 11.51768
861.9652, 11.51970
862.4473, 11.51305
862.9294, 11.54047
863.4116, 11.58878
863.8937, 11.62357
864.3758, 11.65100
864.8579, 11.60648
865.3400, 11.32934
865.8221, 11.04772
866.3043, 11.05439
866.7864, 11.27998
867.2685, 11.53812
867.7506, 11.75118
868.2327, 11.84881
868.7148, 11.72559
869.1970, 11.44924
869.6791, 11.23254
870.1612, 11.07600
870.6433, 10.97010
871.1254, 10.91241
871.6075, 10.91138
872.0897, 10.99200
872.5718, 11.11889
873.0539, 11.17247
873.5360, 11.09392
874.0181, 11.07702
874.5002, 11.15500
874.9823, 11.25791
875.4644, 11.43908
875.9465, 11.58793
876.4286, 11.52813
876.9108, 11.26416
877.3929, 11.10263
877.8750, 11.26860
878.3571, 11.42334
878.8392, 11.33522
879.3214, 11.15991
879.8035, 11.09450
880.2856, 11.12848
880.7677, 11.12565
881.2498, 11.01397
881.7319, 10.88846
882.2141, 10.90063
882.6962, 10.98895
883.1783, 10.93042
883.6604, 10.73707
884.1425, 10.65637
884.6246, 10.78844
885.1068, 10.93010
885.5889, 10.83755
886.0710, 10.55648
886.5531, 10.45826
887.0352, 10.60801
887.5173, 10.76048
887.9995, 10.96054
888.4816, 11.05062
888.9637, 10.86374
889.4458, 10.51906
889.9279, 10.23507
890.4100, 9.994892
890.8922, 9.904948
891.3743, 10.12033
891.8564, 10.32554
892.3385, 10.37981
892.8206, 10.34564
893.3027, 10.25187
893.7849, 10.13901
894.2670, 10.14248
894.7491, 10.40677
895.2312, 10.64220
895.7133, 10.51134
896.1954, 10.21072
896.6776, 10.03503
897.1597, 10.00452
897.6418, 10.08637
898.1239, 10.26210
898.6060, 10.39091
899.0881, 10.27004
899.5703, 9.952213
900.0524, 9.688470
900.5345, 9.476096
901.0166, 9.401206
901.4987, 9.507496
901.9808, 9.669489
902.4630, 9.811425
902.9451, 9.912650
903.4272, 9.886171
903.9093, 9.600527
904.3914, 9.494886
904.8735, 9.746032
905.3557, 9.957246
905.8378, 10.00054
906.3199, 9.929646
906.8020, 9.726254
907.2841, 9.415165
907.7662, 9.303301
908.2484, 9.728296
908.7305, 10.02874
909.2126, 9.818818
909.6947, 9.462409
910.1768, 9.249416
910.6589, 9.193414
911.1411, 9.238369
911.6232, 9.365882
912.1053, 9.508974
912.5874, 9.637026
913.0695, 9.728309
913.5516, 9.732098
914.0338, 9.670232
914.5159, 9.600534
914.9980, 9.540736
915.4801, 9.509295
915.9622, 9.526419
916.4443, 9.561978
916.9265, 9.514821
917.4086, 9.385692
917.8907, 9.432968
918.3728, 9.728559
918.8549, 9.857944
919.3370, 9.552716
919.8192, 9.176228
920.3013, 9.274403
920.7834, 9.866797
921.2655, 10.14832
921.7476, 9.942537
922.2297, 9.730885
922.7119, 9.575605
923.1940, 9.434880
923.6761, 9.254718
924.1582, 9.080688
924.6403, 9.011572
925.1224, 9.072390
925.6046, 9.167401
926.0867, 9.334599
926.5688, 9.460903
927.0509, 9.453935
927.5330, 9.393070
928.0151, 9.386301
928.4973, 9.426944
928.9794, 9.410559
929.4615, 9.259059
929.9436, 9.112829
930.4257, 9.112732
930.9078, 9.182751
931.3900, 9.210573
931.8721, 9.203539
932.3542, 9.231127
932.8363, 9.310760
933.3184, 9.358352
933.8005, 9.285949
934.2827, 9.124774
934.7648, 8.933419
935.2469, 8.720578
935.7290, 8.557832
936.2111, 8.455693
936.6932, 8.451326
937.1754, 8.580082
937.6575, 8.777341
938.1396, 8.940263
938.6217, 9.077130
939.1038, 9.045256
939.5859, 8.723141
940.0681, 8.570665
940.5502, 8.825746
941.0323, 9.114463
941.5144, 9.093619
941.9965, 8.843703
942.4786, 8.710161
942.9608, 8.780283
943.4429, 8.780060
943.9250, 8.584822
944.4071, 8.451402
944.8892, 8.522218
945.3713, 8.684296
945.8535, 8.831144
946.3356, 8.944964
946.8177, 9.005550
947.2998, 8.961790
947.7819, 8.932574
948.2640, 9.060342
948.7462, 9.156619
949.2283, 8.964840
949.7104, 8.620464
950.1925, 8.425279
950.6746, 8.466664
951.1567, 8.602954
951.6389, 8.815298
952.1210, 8.982171
952.6031, 8.858674
953.0852, 8.596259
953.5673, 8.570569
954.0494, 8.784744
954.5316, 8.925532
955.0137, 8.821563
955.4958, 8.640725
955.9779, 8.648432
956.4600, 8.794135
956.9421, 8.831407
957.4242, 8.761272
957.9063, 8.604275
958.3884, 8.353753
958.8705, 8.145149
959.3527, 8.085211
959.8348, 8.154030
960.3169, 8.320872
960.7990, 8.626761
961.2811, 8.790133
961.7632, 8.723644
962.2454, 8.762416
962.7275, 9.135024
963.2096, 9.512424
963.6917, 9.507941
964.1738, 9.158416
964.6559, 8.869446
965.1381, 8.626037
965.6202, 8.470705
966.1023, 8.450706
966.5844, 8.463660
967.0665, 8.457259
967.5486, 8.462474
968.0308, 8.554666
968.5129, 8.734867
968.9950, 8.805704
969.4771, 8.668341
969.9592, 8.492107
970.4413, 8.223114
970.9235, 8.036968
971.4056, 8.162511
971.8877, 8.455724
972.3698, 8.616130
972.8519, 8.563212
973.3340, 8.456407
973.8162, 8.367793
974.2983, 8.279937
974.7804, 8.125148
975.2625, 7.993373
975.7446, 8.054989
976.2267, 8.269762
976.7089, 8.428767
977.1910, 8.430369
977.6731, 8.422284
978.1552, 8.635082
978.6373, 8.894403
979.1194, 8.840023
979.6016, 8.570418
980.0837, 8.412116
980.5658, 8.428601
981.0479, 8.499700
981.5300, 8.550219
982.0121, 8.568027
982.4943, 8.483624
982.9764, 8.337100
983.4585, 8.415935
983.9406, 8.715964
984.4227, 8.845559
984.9048, 8.670899
985.3870, 8.429475
985.8691, 8.331674
986.3512, 8.345798
986.8333, 8.397552
987.3154, 8.509533
987.7975, 8.434924
988.2797, 8.093594
988.7618, 7.834674
989.2439, 7.800660
989.7260, 7.899647
990.2081, 8.045882
990.6902, 8.230930
991.1724, 8.385747
991.6545, 8.553205
992.1366, 8.581892
992.6187, 8.343888
993.1008, 8.144505
993.5829, 8.130831
994.0651, 8.227338
994.5472, 8.375229
995.0293, 8.577605
995.5114, 8.630147
995.9935, 8.366527
996.4756, 8.191985
996.9578, 8.191688
997.4399, 8.258060
997.9220, 8.404851
998.4041, 8.545117
998.8862, 8.516405
999.3683, 8.297693
999.8505, 8.152998
1000.333, 8.183271
1000.815, 8.251428
1001.297, 8.338665
1001.779, 8.416058
1002.261, 8.474683
1002.743, 8.500964
1003.225, 8.456882
1003.707, 8.332111
1004.190, 8.231433
1004.672, 8.243399
1005.154, 8.255670
1005.636, 8.180014
1006.118, 8.071304
1006.600, 7.957155
1007.082, 7.875618
1007.564, 7.932049
1008.046, 8.167552
1008.529, 8.359128
1009.011, 8.245099
1009.493, 8.075087
1009.975, 8.162493
1010.457, 8.377589
1010.939, 8.478943
1011.421, 8.456814
1011.903, 8.455782
1012.385, 8.548117
1012.868, 8.616152
1013.350, 8.471963
1013.832, 8.249163
1014.314, 8.223495
1014.796, 8.331412
1015.278, 8.388795
1015.760, 8.358935
1016.242, 8.240900
1016.725, 8.023713
1017.207, 7.856687
1017.689, 8.042201
1018.171, 8.447767
1018.653, 8.556005
1019.135, 8.410722
1019.617, 8.383106
1020.099, 8.547873
1020.581, 8.607943
1021.064, 8.338636
1021.546, 7.968254
1022.028, 7.987448
1022.510, 8.345201
1022.992, 8.375894
1023.474, 8.068167
1023.956, 7.937892
1024.438, 8.136040
1024.921, 8.312156
1025.403, 8.183679
1025.885, 7.908921
1026.367, 7.875513
1026.849, 8.102167
1027.331, 8.280330
1027.813, 8.417630
1028.295, 8.443999
1028.777, 8.298985
1029.260, 8.189819
1029.742, 8.307984
1030.224, 8.553964
1030.706, 8.631591
1031.188, 8.492706
1031.670, 8.465185
1032.152, 8.631332
1032.634, 8.651973
1033.116, 8.348418
1033.599, 8.033662
1034.081, 7.981396
1034.563, 8.110499
1035.045, 7.858462
1035.527, 8.167620
1036.009, 8.341805
1036.491, 8.388268
1036.973, 7.924471
1037.456, 8.119572
1037.938, 8.050614
1038.420, 7.970830
1038.902, 8.258664
1039.384, 7.869084
1039.866, 8.151089
1040.348, 8.165009
1040.830, 8.361056
1041.313, 8.432058
1041.795, 8.256021
1042.277, 8.037722
1042.759, 7.935280
1043.241, 7.923320
1043.723, 7.926810
1044.205, 7.948560
1044.687, 7.974158
1045.169, 7.974218
1045.651, 8.015731
1046.134, 8.170854
1046.616, 8.327667
1047.098, 8.409494
1047.580, 8.416665
1048.062, 8.346824
1048.544, 8.157115
1049.026, 8.039492
1049.508, 8.035682
1049.991, 8.086228
1050.473, 8.286243
1050.955, 8.431974
1051.437, 8.258227
1051.919, 7.907077
1052.401, 7.798032
1052.883, 8.066375
1053.365, 8.229466
1053.848, 8.035084
1054.330, 7.911837
1054.812, 8.150644
1055.294, 8.418415
1055.776, 8.385554
1056.258, 8.153602
1056.740, 8.017731
1057.222, 8.043983
1057.704, 8.072210
1058.187, 8.061152
1058.669, 8.038383
1059.151, 8.002707
1059.633, 7.971390
1060.115, 7.953241
1060.597, 7.952460
1061.079, 7.976308
1061.561, 8.027238
1062.043, 8.091196
1062.526, 8.262102
1063.008, 8.319391
1063.490, 8.024745
1063.972, 7.697709
1064.454, 7.603292
1064.936, 7.703749
1065.418, 7.915906
1065.900, 8.225056
1066.383, 8.421008
1066.865, 8.323498
1067.347, 8.222653
1067.829, 8.327986
1068.311, 8.419789
1068.793, 8.231875
1069.275, 7.914022
1069.757, 7.780306
1070.240, 7.885114
1070.722, 7.990591
1071.204, 8.038020
1071.686, 8.011959
1072.168, 7.833020
1072.650, 7.646175
1073.132, 7.549375
1073.614, 7.540248
1074.096, 7.631608
1074.578, 7.806117
1075.061, 7.911529
1075.543, 7.807436
1076.025, 7.745923
1076.507, 7.930168
1076.989, 8.123473
1077.471, 8.149947
1077.953, 8.053064
1078.435, 7.872912
1078.918, 7.647210
1079.400, 7.522137
1079.882, 7.595137
1080.364, 7.686029
1080.846, 7.711048
1081.328, 7.720391
1081.810, 7.755838
1082.292, 7.795685
1082.774, 7.798238
1083.257, 7.770423
1083.739, 7.764124
1084.221, 7.794642
1084.703, 7.855087
1085.185, 7.963831
1085.667, 8.077508
1086.149, 8.182563
1086.631, 8.265731
1087.114, 8.322392
1087.596, 8.344764
1088.078, 8.310229
1088.560, 8.203783
1089.042, 8.082014
1089.524, 7.977933
1090.006, 7.852240
1090.488, 7.596313
1090.970, 7.377573
1091.453, 7.393289
1091.935, 7.585863
1092.417, 7.810812
1092.899, 8.052551
1093.381, 8.135950
1093.863, 7.836820
1094.345, 7.570531
1094.827, 7.537752
1095.309, 7.611091
1095.792, 7.777127
1096.274, 7.926968
1096.756, 7.814573
1097.238, 7.401669
1097.720, 7.175318
1098.202, 7.480078
1098.684, 7.726092
1099.166, 7.634304
1099.649, 7.499471
1100.131, 7.542496
1100.613, 7.668263
1101.095, 7.723961
1101.577, 7.695200
1102.059, 7.642004
1102.541, 7.532048
1103.023, 7.475136
1103.505, 7.567326
1103.988, 7.637935
1104.470, 7.590456
1104.952, 7.475080
1105.434, 7.314271
1105.916, 7.136404
1106.398, 7.063448
1106.880, 7.190414
1107.362, 7.239489
1107.844, 7.013814
1108.327, 6.899428
1108.809, 7.172433
1109.291, 7.504639
1109.773, 7.588412
1110.255, 7.490759
1110.737, 7.441918
1111.219, 7.482389
1111.701, 7.472856
1112.184, 7.270498
1112.666, 7.203563
1113.148, 7.523742
1113.630, 7.817930
1114.112, 7.792571
1114.594, 7.565713
1115.076, 7.309012
1115.558, 6.997108
1116.041, 6.922275
1116.523, 7.292181
1117.005, 7.544470
1117.487, 7.588901
1117.969, 7.553666
1118.451, 7.456524
1118.933, 7.350266
1119.415, 7.290833
1119.897, 7.281035
1120.380, 7.368923
1120.862, 7.687552
1121.344, 7.746140
1121.826, 7.330444
1122.308, 7.094182
1122.790, 7.356966
1123.272, 7.725095
1123.754, 7.833750
1124.236, 7.745454
1124.719, 7.662802
1125.201, 7.575756
1125.683, 7.553030
1126.165, 7.613967
1126.647, 7.677283
1127.129, 7.748128
1127.611, 7.714262
1128.093, 7.452362
1128.576, 7.147208
1129.058, 7.175827
1129.540, 7.515728
1130.022, 7.656880
1130.504, 7.577873
1130.986, 7.555790
1131.468, 7.642090
1131.950, 7.656421
1132.432, 7.496348
1132.915, 7.338355
1133.397, 7.418979
1133.879, 7.644064
1134.361, 7.663592
1134.843, 7.495654
1135.325, 7.333470
1135.807, 7.195860
1136.289, 7.158599
1136.771, 7.243049
1137.254, 7.273856
1137.736, 7.084752
1138.218, 6.873621
1138.700, 7.070047
1139.182, 7.530154
1139.664, 7.792428
1140.146, 7.868103
1140.628, 7.850482
1141.111, 7.766107
1141.593, 7.617042
1142.075, 7.401236
1142.557, 7.221914
1143.039, 7.230596
1143.521, 7.322381
1144.003, 7.373775
1144.485, 7.350668
1144.968, 7.048479
1145.450, 6.612731
1145.932, 6.593737
1146.414, 7.114489
1146.896, 7.582237
1147.378, 7.550155
1147.860, 7.360751
1148.342, 7.269291
1148.824, 7.266041
1149.307, 7.408803
1149.789, 7.598315
1150.271, 7.628647
1150.753, 7.518867
1151.235, 7.520027
1151.717, 7.776124
1152.199, 7.950219
1152.681, 7.772886
1153.163, 7.540828
1153.646, 7.398622
1154.128, 7.344871
1154.610, 7.402075
1155.092, 7.529408
1155.574, 7.670210
1156.056, 7.817126
1156.538, 7.841369
1157.020, 7.527602
1157.503, 7.342952
1157.985, 7.587808
1158.467, 7.815450
1158.949, 7.719635
1159.431, 7.475351
1159.913, 7.238821
1160.395, 7.050295
1160.877, 7.167012
1161.359, 8.038968
1161.842, 8.325644
1162.324, 7.465924
1162.806, 6.866786
1163.288, 7.066211
1163.770, 7.433074
1164.252, 7.509198
1164.734, 7.414414
1165.216, 7.402951
1165.698, 7.475590
1166.181, 7.656601
1166.663, 8.042685
1167.145, 8.137956
1167.627, 7.778192
1168.109, 7.489593
1168.591, 7.544938
1169.073, 7.692808
1169.555, 7.629259
1170.037, 7.435516
1170.520, 7.440121
1171.002, 7.635974
1171.484, 7.726696
1171.966, 7.701424
1172.448, 7.682916
1172.930, 7.703498
1173.412, 7.723159
1173.894, 7.718384
1174.377, 7.667607
1174.859, 7.468537
1175.341, 7.228725
1175.823, 7.338527
1176.305, 7.643859
1176.787, 7.623887
1177.269, 7.306944
1177.751, 7.115111
1178.234, 7.192944
1178.716, 7.347098
1179.198, 7.453417
1179.680, 7.514415
1180.162, 7.498715
1180.644, 7.467158
1181.126, 7.543529
1181.608, 7.639030
1182.090, 7.557446
1182.573, 7.322600
1183.055, 7.144043
1183.537, 7.106552
1184.019, 7.081703
1184.501, 6.954100
1184.983, 6.882136
1185.465, 7.017962
1185.947, 7.187045
1186.429, 7.246457
1186.912, 7.225122
1187.394, 7.169855
1187.876, 7.092505
1188.358, 7.088787
1188.840, 7.180686
1189.322, 7.336284
1189.804, 7.723960
1190.286, 7.946011
1190.769, 7.736206
1191.251, 7.450741
1191.733, 7.408357
1192.215, 7.507605
1192.697, 7.474525
1193.179, 7.284621
1193.661, 7.178759
1194.143, 7.180702
1194.625, 7.164030
1195.108, 7.080458
1195.590, 7.126170
1196.072, 7.431768
1196.554, 7.754310
1197.036, 7.816878
1197.518, 7.673318
1198.000, 7.391622
1198.482, 7.024415
1198.964, 7.159790
1199.447, 7.730919
1199.929, 7.936705
1200.411, 7.631631
1200.893, 7.332350
1201.375, 7.335924
1201.857, 7.489306
1202.339, 7.702401
1202.821, 7.873132
1203.304, 7.794821
1203.786, 7.577930
1204.268, 7.379201
1204.750, 7.228436
1205.232, 7.146989
1205.714, 7.134736
1206.196, 7.164474
1206.678, 7.236944
1207.161, 7.301995
1207.643, 7.291562
1208.125, 7.305055
1208.607, 7.446782
1209.089, 7.619425
1209.571, 7.781079
1210.053, 7.869284
1210.535, 7.719308
1211.017, 7.289481
1211.500, 7.010246
1211.982, 7.036252
1212.464, 7.071944
1212.946, 7.042020
1213.428, 7.065254
1213.910, 7.191787
1214.392, 7.389419
1214.874, 7.682527
1215.356, 7.987310
1215.839, 8.013179
1216.321, 7.707116
1216.803, 7.669451
1217.285, 7.961835
1217.767, 8.103064
1218.249, 8.002681
1218.731, 7.828428
1219.213, 7.650947
1219.696, 7.527573
1220.178, 7.527533
1220.660, 7.612575
1221.142, 7.745097
1221.624, 7.876700
1222.106, 7.820282
1222.588, 7.613441
1223.070, 7.361976
1223.552, 7.126122
1224.035, 7.068860
1224.517, 7.266938
1224.999, 7.500344
1225.481, 7.631207
1225.963, 7.659858
1226.445, 7.453891
1226.927, 7.262484
1227.409, 7.495299
1227.891, 7.857920
1228.374, 7.725123
1228.856, 7.167017
1229.338, 7.024276
1229.820, 7.756640
1230.302, 8.083047
1230.784, 7.167122
1231.266, 6.555894
1231.748, 7.061655
1232.231, 7.650443
1232.713, 7.627284
1233.195, 7.352227
1233.677, 7.344743
1234.159, 7.564541
1234.641, 7.634443
1235.123, 7.496064
1235.605, 7.513286
1236.088, 7.741409
1236.570, 7.840039
1237.052, 7.711709
1237.534, 7.528392
1238.016, 7.392310
1238.498, 7.317526
1238.980, 7.334790
1239.462, 7.415505
1239.944, 7.495610
1240.427, 7.571165
1240.909, 7.641085
1241.391, 7.695234
1241.873, 7.692245
1242.355, 7.634347
1242.837, 7.591997
1243.319, 7.606627
1243.801, 7.612495
1244.283, 7.533947
1244.766, 7.457854
1245.248, 7.411262
1245.730, 7.435643
1246.212, 7.692130
1246.694, 7.986823
1247.176, 7.901392
1247.658, 7.454619
1248.140, 7.287627
1248.622, 7.752608
1249.105, 7.944512
1249.587, 7.538955
1250.069, 7.315578
1250.551, 7.599302
1251.033, 7.834613
1251.515, 7.628519
1251.997, 7.258960
1252.479, 7.129045
1252.962, 7.215239
1253.444, 7.459775
1253.926, 7.854339
1254.408, 7.858119
1254.890, 7.471511
1255.372, 7.132105
1255.854, 6.956276
1256.336, 6.919586
1256.818, 7.011329
1257.301, 7.165412
1257.783, 7.377752
1258.265, 7.531218
1258.747, 7.406611
1259.229, 7.165324
1259.711, 6.955468
1260.193, 6.841647
1260.675, 6.948274
1261.157, 7.236447
1261.640, 7.482063
1262.122, 7.623812
1262.604, 7.685956
1263.086, 7.606251
1263.568, 7.547640
1264.050, 7.565971
1264.532, 7.616101
1265.014, 7.660913
1265.497, 7.737842
1265.979, 7.952916
1266.461, 8.216738
1266.943, 8.094069
1267.425, 7.483806
1267.907, 7.288007
1268.389, 7.547475
1268.871, 7.823813
1269.354, 8.043646
1269.836, 7.969492
1270.318, 7.486963
1270.800, 7.088113
1271.282, 7.299630
1271.764, 7.725339
1272.246, 7.678649
1272.728, 7.437469
1273.210, 7.520631
1273.693, 7.770576
1274.175, 7.873992
1274.657, 7.817039
1275.139, 7.690551
1275.621, 7.527506
1276.103, 7.445469
1276.585, 7.516810
1277.067, 7.636935
1277.549, 7.863237
1278.032, 8.015527
1278.514, 7.951395
1278.996, 7.827891
1279.478, 7.741018
1279.960, 7.719589
1280.442, 7.856780
1280.924, 8.141150
1281.406, 8.177715
1281.889, 7.931735
1282.371, 7.682034
1282.853, 7.442284
1283.335, 7.337908
1283.817, 7.402349
1284.299, 7.484418
1284.781, 7.486522
1285.263, 7.470812
1285.745, 7.500051
1286.228, 7.574338
##END=



