##NAMES=Covellite
##RRUFFID=R060143
##IDEAL CHEMISTRY=Cu^1+^S
##LOCALITY=Butte, Montana, USA
##OWNER=RRUFF
##SOURCE=Marcus Origlieri
##DESCRIPTION=Irridescent blue to purple hexagonal plates
##STATUS=The identification of this mineral has been confirmed by X-ray diffraction and chemical analysis
##URL=rruff.info/R060143
##MEASURED CHEMISTRY=Cu_1.00_S_1.00_
89.78156, 0.0000000E+00
90.26367, 13.90134
90.74579, 13.74486
91.22791, 13.87295
91.71002, 14.24266
92.19214, 14.46926
92.67426, 13.98895
93.15638, 13.08677
93.63850, 12.54540
94.12061, 12.87931
94.60273, 13.67515
95.08485, 13.92027
95.56696, 13.56042
96.04908, 13.00192
96.53120, 12.75364
97.01331, 12.80092
97.49543, 12.75844
97.97755, 12.37048
98.45966, 11.66808
98.94178, 11.16454
99.42390, 10.86619
99.90602, 10.76441
100.3881, 10.94954
100.8703, 11.55618
101.3524, 11.96973
101.8345, 11.71101
102.3166, 10.49158
102.7987, 9.888431
103.2808, 10.20614
103.7630, 11.21371
104.2451, 11.88680
104.7272, 12.14626
105.2093, 12.18384
105.6914, 12.12134
106.1735, 11.94086
106.6557, 11.69104
107.1378, 11.37473
107.6199, 10.98835
108.1020, 10.55169
108.5841, 9.879770
109.0662, 9.252295
109.5484, 8.911465
110.0305, 9.015247
110.5126, 9.244079
110.9947, 9.592473
111.4768, 10.11115
111.9590, 10.52233
112.4411, 10.85892
112.9232, 11.06299
113.4053, 11.05049
113.8874, 10.52668
114.3695, 10.01266
114.8517, 9.716490
115.3338, 9.723059
115.8159, 9.794298
116.2980, 9.882758
116.7801, 9.988666
117.2622, 10.11116
117.7444, 10.22625
118.2265, 10.37269
118.7086, 10.59051
119.1907, 10.97389
119.6728, 11.30311
120.1549, 11.30398
120.6371, 11.08911
121.1192, 11.11539
121.6013, 11.93064
122.0834, 13.03330
122.5655, 13.85411
123.0476, 14.04803
123.5298, 14.04308
124.0119, 14.10669
124.4940, 14.25129
124.9761, 14.65446
125.4582, 15.58897
125.9404, 16.87857
126.4225, 18.17180
126.9046, 19.34442
127.3867, 20.43346
127.8688, 21.46799
128.3509, 22.43979
128.8331, 23.43714
129.3152, 24.76701
129.7973, 26.30776
130.2794, 27.42454
130.7615, 27.45214
131.2436, 26.77122
131.7258, 26.67041
132.2079, 27.22639
132.6900, 28.27898
133.1721, 29.63181
133.6542, 31.28114
134.1364, 33.18471
134.6185, 35.55235
135.1006, 38.35852
135.5827, 40.58622
136.0648, 42.01099
136.5469, 43.01200
137.0291, 44.58805
137.5112, 46.87310
137.9933, 49.13571
138.4754, 51.05235
138.9575, 52.66028
139.4396, 53.54588
139.9218, 53.50111
140.4039, 52.69971
140.8860, 51.92570
141.3681, 51.12310
141.8502, 50.45827
142.3323, 50.14514
142.8145, 50.40324
143.2966, 50.41976
143.7787, 49.95166
144.2608, 49.00867
144.7429, 48.48276
145.2250, 48.72502
145.7072, 49.06298
146.1893, 48.46719
146.6714, 48.62867
147.1535, 48.73236
147.6356, 48.78727
148.1178, 48.31901
148.5999, 48.77746
149.0820, 49.01805
149.5641, 49.35480
150.0462, 50.25706
150.5283, 51.63469
151.0105, 52.99730
151.4926, 53.46375
151.9747, 53.24609
152.4568, 53.26060
152.9389, 53.85592
153.4210, 54.61480
153.9032, 54.95854
154.3853, 54.70314
154.8674, 54.15349
155.3495, 53.29806
155.8316, 51.76665
156.3137, 50.77903
156.7959, 50.97038
157.2780, 51.78684
157.7601, 52.18668
158.2422, 51.42065
158.7243, 50.57704
159.2065, 50.20875
159.6886, 50.70726
160.1707, 51.13152
160.6528, 51.06050
161.1349, 50.69055
161.6170, 50.54283
162.0992, 51.20848
162.5813, 51.91214
163.0634, 52.12040
163.5455, 51.40996
164.0276, 49.99660
164.5097, 50.72044
164.9919, 51.11594
165.4740, 51.20075
165.9561, 50.04432
166.4382, 50.49070
166.9203, 50.29475
167.4024, 50.07246
167.8846, 50.74442
168.3667, 49.76853
168.8488, 50.06357
169.3309, 49.78759
169.8130, 50.27578
170.2952, 50.96917
170.7773, 51.16185
171.2594, 49.55611
171.7415, 50.19567
172.2236, 50.50689
172.7057, 50.50742
173.1879, 49.26669
173.6700, 49.62879
174.1521, 49.34855
174.6342, 49.04198
175.1163, 49.62966
175.5984, 48.56949
176.0806, 49.14297
176.5627, 48.90442
177.0448, 48.76546
177.5269, 49.10908
178.0090, 49.71803
178.4911, 50.08403
178.9733, 49.87002
179.4554, 48.75050
179.9375, 49.43740
180.4196, 49.79597
180.9017, 49.84385
181.3838, 48.65049
181.8660, 49.05993
182.3481, 48.82704
182.8302, 48.56782
183.3123, 49.20285
183.7944, 48.19004
184.2766, 48.81088
184.7587, 49.24020
185.2408, 49.28177
185.7229, 48.86718
186.2050, 47.72262
186.6871, 48.44010
187.1693, 48.82924
187.6514, 48.90770
188.1335, 47.74492
188.6156, 48.18494
189.0977, 47.98262
189.5798, 47.75397
190.0620, 48.41958
190.5441, 47.43733
191.0262, 48.08876
191.5083, 48.08805
191.9904, 48.38581
192.4725, 48.03727
192.9547, 48.54784
193.4368, 49.00909
193.9189, 49.22465
194.4010, 49.04242
194.8831, 48.49454
195.3652, 48.10205
195.8474, 47.94099
196.3295, 47.88291
196.8116, 47.62939
197.2937, 47.15304
197.7758, 46.74683
198.2579, 46.59763
198.7401, 46.70916
199.2222, 46.92091
199.7043, 47.30494
200.1864, 47.68697
200.6685, 47.58595
201.1507, 46.90796
201.6328, 45.58449
202.1149, 46.33695
202.5970, 46.76107
203.0791, 46.87451
203.5612, 45.74671
204.0434, 46.22171
204.5255, 46.05437
205.0076, 45.86071
205.4897, 46.56129
205.9718, 45.61403
206.4539, 46.30043
206.9361, 46.33471
207.4182, 46.66744
207.9003, 46.35388
208.3824, 46.77430
208.8645, 46.45656
209.3466, 45.93429
209.8288, 45.63317
210.3109, 45.63995
210.7930, 45.48046
211.2751, 45.07156
211.7572, 43.88393
212.2393, 44.58173
212.7215, 44.95118
213.2036, 45.00996
213.6857, 43.82750
214.1678, 44.24784
214.6499, 44.02586
215.1320, 43.77753
215.6142, 44.42345
216.0963, 43.42152
216.5784, 44.05327
217.0605, 44.03289
217.5426, 44.31097
218.0247, 43.94275
218.5069, 43.77552
218.9890, 42.79722
219.4711, 43.49163
219.9532, 43.85770
220.4353, 43.91309
220.9175, 42.72722
221.3996, 43.14417
221.8817, 42.91879
222.3638, 42.66707
222.8459, 43.30961
223.3280, 42.30429
223.8102, 42.93264
224.2923, 42.90886
224.7744, 43.18355
225.2565, 42.93487
225.7386, 42.58313
226.2207, 42.36190
226.7029, 42.38749
227.1850, 42.59828
227.6671, 42.65540
228.1492, 42.43475
228.6313, 42.23638
229.1134, 42.28954
229.5956, 42.84578
230.0777, 43.06615
230.5598, 42.70624
231.0419, 41.93698
231.5240, 41.61766
232.0062, 41.96700
232.4883, 42.46850
232.9704, 42.84499
233.4525, 43.15132
233.9346, 43.19712
234.4167, 42.84070
234.8989, 42.19611
235.3810, 41.81216
235.8631, 41.81663
236.3452, 41.90730
236.8273, 41.90213
237.3094, 41.71167
237.7916, 41.61443
238.2737, 41.61653
238.7558, 41.72176
239.2379, 41.97738
239.7200, 42.56026
240.2021, 43.05397
240.6843, 43.18895
241.1664, 42.66029
241.6485, 42.45906
242.1306, 42.78514
242.6127, 43.47052
243.0948, 43.86708
243.5770, 43.90005
244.0591, 43.75067
244.5412, 43.45252
245.0233, 42.74685
245.5054, 42.48359
245.9876, 42.84546
246.4697, 43.64632
246.9518, 44.34309
247.4339, 45.02801
247.9160, 45.47389
248.3981, 45.47520
248.8803, 44.60842
249.3624, 44.33603
249.8445, 44.91590
250.3266, 46.04504
250.8087, 46.90514
251.2908, 47.40594
251.7730, 47.76954
252.2551, 48.07532
252.7372, 48.29723
253.2193, 48.50346
253.7014, 48.55152
254.1835, 48.64311
254.6657, 49.36934
255.1478, 51.30810
255.6299, 52.86491
256.1120, 53.23253
256.5941, 51.82134
257.0763, 51.13830
257.5584, 51.46773
258.0405, 52.33974
258.5226, 52.79101
259.0047, 52.63073
259.4868, 52.45127
259.9690, 52.46004
260.4511, 52.66870
260.9332, 53.04108
261.4153, 53.68975
261.8974, 54.40828
262.3795, 54.81132
262.8617, 54.77595
263.3438, 54.73194
263.8259, 54.86366
264.3080, 55.22533
264.7901, 55.35406
265.2722, 55.19546
265.7544, 54.86904
266.2365, 54.49763
266.7186, 54.00491
267.2007, 53.71867
267.6828, 53.89856
268.1649, 54.60824
268.6471, 54.58356
269.1292, 53.59602
269.6113, 52.23602
270.0934, 51.21296
270.5755, 50.56762
271.0576, 50.07238
271.5398, 49.70409
272.0219, 49.45480
272.5040, 49.13758
272.9861, 48.72593
273.4682, 48.31209
273.9503, 48.02382
274.4325, 47.90217
274.9146, 47.67576
275.3967, 47.24389
275.8788, 46.63767
276.3610, 46.11286
276.8431, 45.65653
277.3252, 45.33453
277.8073, 45.28315
278.2894, 45.53661
278.7715, 45.65908
279.2537, 45.52004
279.7358, 45.19505
280.2179, 45.00700
280.7000, 44.97694
281.1821, 44.98901
281.6642, 44.97712
282.1464, 44.94184
282.6285, 44.81897
283.1106, 44.59832
283.5927, 44.28335
284.0748, 43.77314
284.5569, 43.02098
285.0391, 42.48376
285.5212, 42.65396
286.0033, 43.45354
286.4854, 43.93182
286.9675, 43.89675
287.4496, 43.59679
287.9318, 43.57046
288.4139, 43.82245
288.8960, 43.98953
289.3781, 43.69592
289.8602, 43.07714
290.3423, 42.88997
290.8245, 43.29933
291.3066, 43.89998
291.7887, 44.02510
292.2708, 43.71847
292.7529, 43.37312
293.2350, 43.27906
293.7172, 43.31883
294.1993, 43.06174
294.6814, 42.42678
295.1635, 41.77950
295.6456, 41.55517
296.1277, 41.71031
296.6099, 42.07536
297.0920, 42.84643
297.5741, 43.71296
298.0562, 43.98961
298.5383, 43.63791
299.0204, 43.04893
299.5026, 42.46581
299.9847, 41.93732
300.4668, 41.57542
300.9489, 41.45082
301.4311, 41.51168
301.9132, 41.78712
302.3953, 42.26812
302.8774, 42.66077
303.3595, 42.64855
303.8416, 42.39967
304.3238, 42.21290
304.8059, 42.24969
305.2880, 42.32734
305.7701, 42.29173
306.2522, 42.14256
306.7343, 41.88062
307.2165, 41.24497
307.6986, 40.58205
308.1807, 40.37730
308.6628, 41.00985
309.1449, 41.69852
309.6270, 41.79275
310.1092, 41.43404
310.5913, 41.07416
311.0734, 40.85693
311.5555, 40.80206
312.0376, 40.99359
312.5197, 41.58041
313.0019, 42.04765
313.4840, 41.93545
313.9661, 41.50250
314.4482, 41.27693
314.9303, 41.82017
315.4124, 42.40128
315.8946, 42.52177
316.3767, 42.03861
316.8588, 41.53361
317.3409, 41.20849
317.8230, 41.00977
318.3051, 40.86738
318.7873, 40.86948
319.2694, 40.82598
319.7515, 40.57548
320.2336, 40.08342
320.7157, 39.80431
321.1978, 40.08883
321.6800, 40.54301
322.1621, 40.81064
322.6442, 40.54992
323.1263, 40.37499
323.6084, 40.51621
324.0905, 40.94635
324.5727, 41.20978
325.0548, 41.00642
325.5369, 40.76537
326.0190, 40.74640
326.5012, 41.41676
326.9833, 41.78904
327.4654, 41.59063
327.9475, 40.98301
328.4296, 40.61687
328.9117, 40.62157
329.3939, 40.75515
329.8760, 40.94631
330.3581, 41.37743
330.8402, 41.51221
331.3223, 41.09762
331.8044, 40.45595
332.2866, 40.27900
332.7687, 40.96816
333.2508, 41.53013
333.7329, 41.58303
334.2150, 40.95707
334.6971, 40.67226
335.1793, 40.93348
335.6614, 41.33506
336.1435, 41.28147
336.6256, 40.51242
337.1077, 39.99068
337.5898, 40.05026
338.0720, 40.65240
338.5541, 40.98519
339.0362, 40.99105
339.5183, 40.86713
340.0004, 40.78429
340.4825, 40.74950
340.9647, 40.69582
341.4468, 40.58229
341.9289, 40.45774
342.4110, 40.51966
342.8931, 40.79623
343.3752, 41.06813
343.8574, 41.21109
344.3395, 41.22439
344.8216, 41.05247
345.3037, 40.63093
345.7858, 40.13791
346.2679, 39.87323
346.7501, 39.82774
347.2322, 39.89470
347.7143, 40.10955
348.1964, 40.39846
348.6785, 40.51423
349.1607, 40.43584
349.6428, 40.26046
350.1249, 39.97438
350.6070, 39.65805
351.0891, 39.56721
351.5713, 39.99496
352.0534, 40.61792
352.5355, 41.00199
353.0176, 41.14326
353.4997, 41.08908
353.9818, 40.73146
354.4640, 40.23488
354.9461, 39.84269
355.4282, 39.62072
355.9103, 39.53898
356.3924, 39.62427
356.8745, 39.84565
357.3567, 40.07692
357.8388, 40.34035
358.3209, 40.53318
358.8030, 40.52571
359.2851, 40.19877
359.7672, 39.93569
360.2494, 40.15126
360.7315, 40.55784
361.2136, 40.62321
361.6957, 39.63475
362.1778, 38.67462
362.6599, 38.31440
363.1421, 38.65769
363.6242, 39.14593
364.1063, 39.82116
364.5884, 40.47675
365.0705, 40.89577
365.5526, 40.82815
366.0348, 40.73549
366.5169, 40.72851
366.9990, 40.80219
367.4811, 40.83475
367.9632, 40.82239
368.4453, 40.76014
368.9275, 40.64173
369.4096, 40.33022
369.8917, 40.15624
370.3738, 40.23988
370.8559, 40.46085
371.3380, 40.46538
371.8202, 40.03548
372.3023, 39.68620
372.7844, 39.65480
373.2665, 40.06023
373.7487, 40.28309
374.2308, 40.23439
374.7129, 40.09311
375.1950, 40.12037
375.6771, 40.38540
376.1592, 40.59750
376.6414, 40.66351
377.1235, 40.60147
377.6056, 40.61567
378.0877, 40.73785
378.5698, 40.83393
379.0519, 40.75827
379.5341, 40.51049
380.0162, 40.30819
380.4983, 40.20963
380.9804, 40.15197
381.4625, 39.93776
381.9446, 39.56969
382.4268, 39.32340
382.9089, 39.46089
383.3910, 39.86106
383.8731, 40.16261
384.3552, 40.34803
384.8373, 40.37286
385.3195, 40.04928
385.8016, 39.50026
386.2837, 39.08369
386.7658, 39.07531
387.2479, 39.23370
387.7300, 39.25482
388.2122, 39.14208
388.6943, 39.00513
389.1764, 38.88308
389.6585, 38.79859
390.1406, 38.78945
390.6227, 38.90738
391.1049, 39.04316
391.5870, 39.07706
392.0691, 39.06097
392.5512, 39.15152
393.0333, 39.75231
393.5154, 40.25207
393.9976, 40.13234
394.4797, 39.05640
394.9618, 38.29272
395.4439, 38.50412
395.9260, 39.18732
396.4081, 39.67126
396.8903, 39.83385
397.3724, 39.76852
397.8545, 39.38070
398.3366, 38.65285
398.8188, 38.15218
399.3009, 37.96972
399.7830, 37.99251
400.2651, 38.15580
400.7472, 38.54439
401.2293, 38.95913
401.7115, 39.50962
402.1936, 40.07131
402.6757, 40.23887
403.1578, 39.83504
403.6399, 39.33664
404.1220, 38.89795
404.6042, 38.48262
405.0863, 38.36475
405.5684, 38.65889
406.0505, 39.06771
406.5326, 39.15362
407.0147, 38.85984
407.4969, 38.68937
407.9790, 38.83490
408.4611, 39.19389
408.9432, 39.34134
409.4253, 39.26305
409.9074, 39.11283
410.3896, 38.96170
410.8717, 38.82762
411.3538, 38.82323
411.8359, 39.01376
412.3180, 39.21516
412.8001, 39.05741
413.2823, 38.64820
413.7644, 38.40819
414.2465, 38.80066
414.7286, 39.38491
415.2107, 39.50877
415.6928, 39.12913
416.1750, 38.73850
416.6571, 38.80639
417.1392, 39.06440
417.6213, 39.14475
418.1034, 38.74025
418.5855, 38.32311
419.0677, 38.16716
419.5498, 38.22786
420.0319, 38.34497
420.5140, 38.66958
420.9961, 38.87779
421.4782, 38.70050
421.9604, 37.86873
422.4425, 37.28431
422.9246, 37.25026
423.4067, 37.54781
423.8889, 37.87833
424.3710, 38.33232
424.8531, 38.68486
425.3352, 38.88708
425.8173, 38.94119
426.2994, 38.86522
426.7816, 38.47139
427.2637, 38.13872
427.7458, 38.16704
428.2279, 38.84710
428.7100, 39.14076
429.1921, 38.79042
429.6743, 38.14006
430.1564, 38.07576
430.6385, 38.75973
431.1206, 39.40426
431.6027, 39.69073
432.0848, 39.63182
432.5670, 39.41184
433.0491, 38.98129
433.5312, 38.59133
434.0133, 38.52924
434.4954, 38.75969
434.9775, 39.04766
435.4597, 39.33990
435.9418, 39.65377
436.4239, 40.07725
436.9060, 40.57696
437.3881, 40.96205
437.8702, 41.07643
438.3524, 41.01266
438.8345, 40.83544
439.3166, 40.51457
439.7987, 40.33308
440.2808, 40.63984
440.7629, 41.21117
441.2451, 41.69512
441.7272, 41.88607
442.2093, 42.01372
442.6914, 42.19405
443.1735, 42.41920
443.6556, 42.62638
444.1378, 42.48708
444.6199, 42.53196
445.1020, 43.14087
445.5841, 44.71193
446.0662, 46.16833
446.5483, 47.46856
447.0305, 48.54990
447.5126, 49.29338
447.9947, 49.16737
448.4768, 49.34637
448.9590, 50.18274
449.4411, 51.68963
449.9232, 53.02631
450.4053, 54.08543
450.8874, 55.14684
451.3695, 56.36139
451.8517, 57.69600
452.3338, 59.39303
452.8159, 61.56545
453.2980, 63.98004
453.7801, 66.10229
454.2622, 67.87371
454.7444, 69.94303
455.2265, 72.50801
455.7086, 75.59814
456.1907, 79.32259
456.6728, 83.75880
457.1549, 88.43519
457.6371, 93.01189
458.1192, 97.55920
458.6013, 102.4181
459.0834, 107.7391
459.5655, 113.1788
460.0476, 118.3124
460.5298, 123.2475
461.0119, 128.0304
461.4940, 132.7141
461.9761, 137.3640
462.4582, 141.8875
462.9403, 146.2787
463.4225, 151.1492
463.9046, 156.5902
464.3867, 162.7738
464.8688, 169.7273
465.3509, 177.3935
465.8330, 185.9615
466.3152, 195.4296
466.7973, 205.7907
467.2794, 216.9744
467.7615, 229.2164
468.2436, 242.2053
468.7257, 256.0328
469.2079, 270.7001
469.6900, 285.4692
470.1721, 300.6000
470.6542, 315.4159
471.1363, 329.5086
471.6184, 343.2954
472.1006, 354.7819
472.5827, 363.8274
473.0648, 370.2249
473.5469, 373.9581
474.0291, 375.2320
474.5112, 371.4879
474.9933, 360.4057
475.4754, 342.8989
475.9575, 322.1146
476.4396, 297.8628
476.9218, 272.5752
477.4039, 248.2555
477.8860, 225.0633
478.3681, 203.5915
478.8502, 183.8166
479.3323, 166.0954
479.8145, 150.9551
480.2966, 138.1125
480.7787, 127.1392
481.2608, 118.0628
481.7429, 110.2801
482.2250, 103.4924
482.7072, 97.73738
483.1893, 92.53880
483.6714, 87.80625
484.1535, 83.51304
484.6356, 79.62532
485.1177, 76.10556
485.5999, 72.98490
486.0820, 70.45463
486.5641, 68.37610
487.0462, 66.13726
487.5283, 63.29383
488.0104, 60.89022
488.4926, 59.43381
488.9747, 59.13381
489.4568, 58.51192
489.9389, 57.52059
490.4210, 56.30165
490.9031, 54.90536
491.3853, 53.29267
491.8674, 52.06416
492.3495, 51.44646
492.8316, 51.16872
493.3137, 50.64643
493.7958, 49.89748
494.2780, 49.14594
494.7601, 48.54116
495.2422, 48.02113
495.7243, 47.47353
496.2064, 46.88389
496.6885, 46.33309
497.1707, 45.85442
497.6528, 45.45110
498.1349, 45.13142
498.6170, 44.94027
499.0992, 44.76517
499.5813, 44.54856
500.0634, 44.29983
500.5455, 44.04032
501.0276, 43.75769
501.5097, 43.48412
501.9919, 43.24091
502.4740, 43.04013
502.9561, 42.80219
503.4382, 42.43145
503.9203, 42.08312
504.4024, 41.87490
504.8846, 41.92840
505.3667, 41.87970
505.8488, 41.70701
506.3309, 41.42221
506.8130, 40.96302
507.2951, 40.22502
507.7773, 39.79641
508.2594, 40.04283
508.7415, 40.80632
509.2236, 41.14967
509.7057, 41.04553
510.1878, 40.87111
510.6700, 41.02074
511.1521, 41.35333
511.6342, 41.41851
512.1163, 41.09778
512.5984, 40.67611
513.0806, 40.48407
513.5627, 40.41323
514.0448, 40.23701
514.5269, 39.50755
515.0090, 38.92552
515.4911, 39.16381
515.9733, 40.08647
516.4554, 40.75455
516.9375, 40.59967
517.4196, 40.23505
517.9017, 40.04296
518.3839, 40.21724
518.8660, 40.19564
519.3481, 39.78698
519.8302, 39.21314
520.3123, 38.69409
520.7944, 38.13249
521.2766, 37.80392
521.7587, 37.80637
522.2408, 38.06592
522.7229, 38.31275
523.2050, 38.55649
523.6871, 38.75496
524.1693, 38.88948
524.6514, 38.95909
525.1335, 38.99013
525.6156, 38.99189
526.0977, 38.89337
526.5798, 38.45928
527.0620, 37.85094
527.5441, 37.58787
528.0262, 37.89608
528.5083, 38.37321
528.9904, 38.61897
529.4725, 38.69559
529.9547, 38.75195
530.4368, 38.90854
530.9189, 39.02877
531.4010, 38.99406
531.8831, 38.80366
532.3652, 38.63563
532.8474, 38.63762
533.3295, 38.61708
533.8116, 38.42895
534.2937, 37.77040
534.7758, 37.45064
535.2579, 37.74474
535.7401, 38.26013
536.2222, 38.39516
536.7043, 37.93333
537.1864, 37.60581
537.6685, 37.58385
538.1506, 37.81404
538.6328, 38.11493
539.1149, 38.52780
539.5970, 38.77253
540.0791, 38.55894
540.5612, 38.00309
541.0433, 37.65919
541.5255, 37.55521
542.0076, 37.58226
542.4897, 37.75956
542.9718, 37.97383
543.4539, 37.97060
543.9360, 37.54663
544.4182, 37.12107
544.9003, 37.11017
545.3824, 37.34811
545.8645, 37.46680
546.3466, 37.13600
546.8287, 36.81488
547.3109, 36.74446
547.7930, 36.94039
548.2751, 37.09857
548.7572, 37.21540
549.2393, 37.24855
549.7214, 37.16460
550.2036, 36.88285
550.6857, 36.66862
551.1678, 36.54008
551.6499, 36.46095
552.1320, 36.35882
552.6141, 36.20933
553.0963, 36.23404
553.5784, 36.62333
554.0605, 37.10122
554.5426, 36.75075
555.0247, 35.62529
555.5068, 34.68828
555.9890, 34.65467
556.4711, 35.15028
556.9532, 35.60725
557.4353, 36.00058
557.9174, 36.21552
558.3995, 36.08397
558.8817, 35.76213
559.3638, 35.37482
559.8459, 34.78946
560.3281, 34.48336
560.8102, 34.94618
561.2923, 35.74676
561.7744, 36.20443
562.2565, 35.96368
562.7386, 35.61642
563.2208, 35.18697
563.7029, 34.71923
564.1850, 34.52331
564.6671, 34.74640
565.1492, 34.98249
565.6313, 34.99787
566.1135, 34.76330
566.5956, 34.77681
567.0777, 35.13140
567.5598, 35.40475
568.0419, 34.95245
568.5240, 33.95975
569.0062, 33.40113
569.4883, 33.56590
569.9704, 34.00675
570.4525, 34.27625
570.9346, 34.37933
571.4167, 34.31989
571.8989, 33.86323
572.3810, 33.44225
572.8631, 33.41941
573.3452, 33.73983
573.8273, 34.00769
574.3094, 34.05346
574.7916, 34.02223
575.2737, 33.98411
575.7558, 33.94005
576.2379, 33.90830
576.7200, 33.92663
577.2021, 33.92706
577.6843, 33.83824
578.1664, 33.61866
578.6485, 33.41706
579.1306, 33.19846
579.6127, 33.05950
580.0948, 33.30781
580.5770, 33.94358
581.0591, 34.34824
581.5412, 34.08564
582.0233, 33.53512
582.5054, 33.66442
582.9875, 34.37661
583.4697, 34.94682
583.9518, 34.69778
584.4339, 34.14358
584.9160, 33.83821
585.3981, 33.86098
585.8802, 33.95319
586.3624, 34.19588
586.8445, 34.33965
587.3266, 34.14842
587.8087, 32.93374
588.2908, 32.20278
588.7729, 32.46323
589.2551, 33.21904
589.7372, 33.64178
590.2193, 33.57168
590.7014, 33.48588
591.1835, 33.52258
591.6656, 33.63562
592.1478, 33.55465
592.6299, 33.25534
593.1120, 32.94645
593.5941, 32.69599
594.0762, 32.53289
594.5583, 32.63403
595.0405, 33.01475
595.5226, 33.37767
596.0047, 33.43944
596.4868, 33.32388
596.9689, 33.18084
597.4510, 32.97707
597.9332, 32.92622
598.4153, 33.34643
598.8974, 33.94695
599.3795, 34.30526
599.8616, 34.18017
600.3438, 33.94851
600.8259, 33.67509
601.3080, 33.36227
601.7901, 32.99458
602.2722, 32.45341
602.7543, 32.06179
603.2365, 31.95516
603.7186, 32.12957
604.2007, 32.37652
604.6828, 32.71314
605.1649, 33.02622
605.6470, 33.23657
606.1292, 33.34430
606.6113, 33.31966
607.0934, 33.13296
607.5755, 32.97195
608.0576, 33.10968
608.5398, 33.39125
609.0219, 33.55427
609.5040, 33.51539
609.9861, 33.34101
610.4683, 32.91085
610.9504, 32.38268
611.4325, 32.09058
611.9146, 32.38729
612.3967, 32.66225
612.8788, 32.69498
613.3610, 32.51311
613.8431, 32.46400
614.3252, 32.63861
614.8073, 32.79455
615.2894, 32.81500
615.7715, 32.69520
616.2537, 32.49332
616.7358, 32.19245
617.2179, 31.89053
617.7000, 31.62941
618.1821, 31.44344
618.6642, 31.49708
619.1464, 31.87120
619.6285, 32.29060
620.1106, 32.50342
620.5927, 32.56372
621.0748, 32.56499
621.5569, 32.41737
622.0391, 32.34581
622.5212, 32.62823
623.0033, 33.08697
623.4854, 33.17831
623.9675, 32.31410
624.4496, 31.58236
624.9318, 31.31484
625.4139, 31.50350
625.8960, 31.73230
626.3781, 32.04341
626.8602, 32.29362
627.3423, 32.37450
627.8245, 32.29088
628.3066, 32.21453
628.7887, 32.15448
629.2708, 32.06925
629.7529, 31.82944
630.2350, 31.53920
630.7172, 31.45263
631.1993, 31.67520
631.6814, 31.96983
632.1635, 32.18989
632.6456, 32.34228
633.1277, 32.44236
633.6099, 32.57002
634.0920, 32.56497
634.5741, 32.31161
635.0562, 31.87337
635.5383, 31.47400
636.0204, 30.94687
636.5026, 30.71759
636.9847, 31.03565
637.4668, 31.84786
637.9489, 32.28782
638.4310, 32.30250
638.9131, 32.20380
639.3953, 32.21917
639.8774, 32.30431
640.3595, 32.24324
640.8416, 32.02071
641.3237, 31.73931
641.8058, 31.39030
642.2880, 31.08217
642.7701, 30.99015
643.2522, 31.19546
643.7343, 31.49599
644.2164, 31.90796
644.6985, 32.31739
645.1807, 32.56899
645.6628, 32.56113
646.1449, 32.47202
646.6270, 32.29377
647.1091, 32.06017
647.5912, 31.84962
648.0734, 31.63748
648.5555, 31.52142
649.0376, 31.57940
649.5197, 31.74964
650.0018, 31.66985
650.4839, 31.34280
650.9661, 31.18804
651.4482, 31.63191
651.9303, 32.37126
652.4124, 32.92168
652.8945, 33.25948
653.3766, 33.41607
653.8588, 33.41643
654.3409, 33.24314
654.8230, 32.80814
655.3051, 31.90910
655.7872, 31.30431
656.2693, 31.26812
656.7515, 31.54701
657.2336, 31.92816
657.7158, 32.60748
658.1979, 32.92941
658.6800, 32.71841
659.1621, 32.26914
659.6442, 32.12936
660.1263, 32.30323
660.6085, 32.39866
661.0906, 32.26714
661.5727, 32.02466
662.0548, 31.82361
662.5369, 31.67683
663.0190, 31.63346
663.5012, 31.74700
663.9833, 31.95334
664.4654, 32.33300
664.9475, 32.82687
665.4296, 33.02294
665.9117, 32.53432
666.3939, 31.93227
666.8760, 31.45587
667.3581, 31.09372
667.8402, 30.95611
668.3223, 31.09866
668.8044, 31.37637
669.2866, 31.74431
669.7687, 32.21638
670.2508, 32.43694
670.7329, 32.34602
671.2150, 32.18546
671.6971, 32.26959
672.1793, 32.49833
672.6614, 32.62044
673.1435, 32.58609
673.6256, 32.41044
674.1077, 31.91175
674.5898, 31.32483
675.0720, 31.01850
675.5541, 31.40652
676.0362, 31.74997
676.5183, 31.75725
677.0004, 31.57583
677.4825, 31.63262
677.9647, 32.09715
678.4468, 32.46732
678.9289, 32.57163
679.4110, 32.47641
679.8931, 32.58835
680.3752, 32.93340
680.8574, 33.03905
681.3395, 32.34791
681.8216, 31.30467
682.3037, 30.93351
682.7858, 31.19790
683.2679, 31.52100
683.7501, 31.50431
684.2322, 31.38692
684.7143, 31.40127
685.1964, 31.61563
685.6785, 31.69979
686.1606, 31.34408
686.6428, 30.98461
687.1249, 30.94638
687.6070, 31.43709
688.0891, 31.77482
688.5712, 31.93099
689.0533, 31.98030
689.5355, 32.03016
690.0176, 32.07575
690.4997, 31.95676
690.9818, 31.59681
691.4639, 31.20104
691.9460, 31.04124
692.4282, 31.06463
692.9103, 31.16193
693.3924, 31.36187
693.8745, 31.54097
694.3566, 31.69896
694.8387, 31.88386
695.3209, 32.02618
695.8030, 32.00119
696.2851, 31.81776
696.7672, 31.00153
697.2493, 32.18591
697.7314, 32.67624
698.2136, 31.68336
698.6957, 31.98385
699.1778, 32.11694
699.6599, 32.09164
700.1420, 31.43354
700.6241, 31.59258
701.1063, 31.42412
701.5884, 31.24226
702.0705, 31.15023
702.5526, 31.58366
703.0347, 31.84972
703.5168, 31.95737
703.9990, 31.43225
704.4811, 31.72424
704.9632, 31.68876
705.4453, 31.63986
705.9274, 32.04685
706.4095, 31.61375
706.8917, 32.01353
707.3738, 32.08083
707.8560, 32.30030
708.3381, 32.45370
708.8202, 32.33788
709.3023, 32.05696
709.7844, 31.87897
710.2665, 31.81385
710.7487, 31.91373
711.2308, 32.25981
711.7129, 32.59749
712.1950, 32.72371
712.6771, 32.71336
713.1592, 32.67945
713.6414, 32.77853
714.1235, 32.71513
714.6056, 32.14853
715.0877, 31.42828
715.5698, 31.33621
716.0519, 32.21626
716.5341, 32.80085
717.0162, 32.69204
717.4983, 32.14906
717.9804, 31.88404
718.4625, 31.88339
718.9446, 31.98849
719.4268, 32.19967
719.9089, 32.41933
720.3910, 32.50054
720.8731, 32.47068
721.3552, 32.44945
721.8373, 32.46082
722.3195, 32.52854
722.8016, 32.75254
723.2837, 33.13207
723.7658, 33.20443
724.2479, 32.65719
724.7300, 32.21401
725.2122, 32.29699
725.6943, 32.91815
726.1764, 33.07285
726.6585, 32.68454
727.1406, 32.32683
727.6227, 32.57219
728.1049, 33.16379
728.5870, 33.49331
729.0691, 33.51009
729.5512, 33.41923
730.0333, 33.31574
730.5154, 33.20354
730.9976, 33.05431
731.4797, 32.77646
731.9618, 32.73129
732.4439, 33.29972
732.9260, 33.89710
733.4081, 34.04626
733.8903, 33.56322
734.3724, 33.23744
734.8545, 33.11106
735.3366, 33.14124
735.8187, 33.38670
736.3008, 33.77179
736.7830, 33.90986
737.2651, 33.65674
737.7472, 33.35165
738.2293, 33.43728
738.7114, 33.66216
739.1935, 33.64008
739.6757, 32.75166
740.1578, 32.23883
740.6399, 32.86779
741.1220, 33.96664
741.6041, 34.35465
742.0862, 33.67175
742.5684, 33.05620
743.0505, 32.65009
743.5326, 32.44824
744.0147, 32.45842
744.4968, 32.67498
744.9789, 33.06061
745.4611, 33.79604
745.9432, 34.45542
746.4253, 34.29747
746.9074, 33.60927
747.3895, 33.13386
747.8716, 33.44501
748.3538, 33.79315
748.8359, 33.82314
749.3180, 33.59884
749.8001, 33.50060
750.2822, 33.70641
750.7643, 33.73711
751.2465, 33.34421
751.7286, 32.67097
752.2107, 32.48804
752.6928, 32.80310
753.1749, 33.12493
753.6570, 33.13826
754.1392, 32.99971
754.6213, 32.95441
755.1034, 32.99261
755.5855, 33.05671
756.0676, 33.24275
756.5498, 33.33570
757.0319, 33.07859
757.5140, 32.44910
757.9962, 32.25777
758.4783, 32.86286
758.9604, 33.44812
759.4425, 33.61293
759.9246, 33.36982
760.4067, 33.32674
760.8889, 33.50656
761.3710, 33.67883
761.8531, 33.68659
762.3352, 33.56411
762.8173, 33.28548
763.2994, 32.86408
763.7816, 32.63400
764.2637, 32.92762
764.7458, 33.40636
765.2279, 33.90648
765.7100, 34.50364
766.1921, 34.62383
766.6743, 33.90287
767.1564, 33.12793
767.6385, 32.81358
768.1206, 33.01082
768.6027, 33.21333
769.0848, 33.44580
769.5670, 33.52671
770.0491, 33.09772
770.5312, 32.44541
771.0133, 32.17545
771.4954, 32.38381
771.9775, 32.68611
772.4597, 32.94894
772.9418, 33.12980
773.4239, 33.15273
773.9060, 32.81778
774.3881, 32.85382
774.8702, 33.63867
775.3524, 34.39306
775.8345, 34.33181
776.3166, 33.35319
776.7987, 32.86856
777.2808, 33.03008
777.7629, 33.36364
778.2451, 33.33330
778.7272, 33.10794
779.2093, 33.04796
779.6914, 33.26640
780.1735, 33.45102
780.6556, 33.38691
781.1378, 33.21146
781.6199, 33.05365
782.1020, 32.91185
782.5841, 32.83200
783.0662, 32.83298
783.5483, 32.87442
784.0305, 32.91599
784.5126, 32.95776
784.9947, 32.99940
785.4768, 33.03761
785.9589, 33.08958
786.4410, 33.22010
786.9232, 33.36781
787.4053, 33.38561
787.8874, 33.13385
788.3695, 33.04090
788.8516, 33.58162
789.3337, 34.26524
789.8159, 34.52234
790.2980, 33.98886
790.7801, 33.60879
791.2622, 33.45739
791.7443, 33.40097
792.2264, 33.27318
792.7086, 33.07702
793.1907, 32.85201
793.6728, 32.56062
794.1549, 32.41187
794.6370, 32.79021
795.1191, 33.42707
795.6013, 33.90333
796.0834, 34.14214
796.5655, 34.13036
797.0476, 33.59955
797.5297, 32.93903
798.0118, 32.61993
798.4940, 32.73860
798.9761, 33.02061
799.4582, 33.55318
799.9403, 34.05634
800.4224, 34.10263
800.9045, 33.75927
801.3867, 33.42458
801.8688, 33.17336
802.3509, 32.97107
802.8330, 32.67289
803.3151, 32.44490
803.7972, 32.55737
804.2794, 33.53323
804.7615, 34.09356
805.2436, 33.57346
805.7258, 32.73396
806.2079, 32.38857
806.6900, 32.67958
807.1721, 32.90554
807.6542, 32.98151
808.1364, 33.01369
808.6185, 33.22755
809.1006, 33.51533
809.5827, 33.49011
810.0648, 32.94259
810.5469, 32.48997
811.0291, 32.73110
811.5112, 33.26033
811.9933, 33.60386
812.4754, 33.46097
812.9575, 33.46498
813.4396, 33.83543
813.9218, 34.17863
814.4039, 33.92380
814.8860, 33.00724
815.3681, 32.53934
815.8502, 32.68903
816.3323, 33.08424
816.8145, 33.38894
817.2966, 33.60363
817.7787, 33.70885
818.2608, 33.65122
818.7429, 33.65291
819.2250, 34.02145
819.7072, 34.38908
820.1893, 34.35158
820.6714, 33.56781
821.1535, 33.11892
821.6356, 33.08945
822.1177, 33.24312
822.5999, 33.40174
823.0820, 33.54105
823.5641, 33.43474
824.0462, 33.02100
824.5283, 32.66344
825.0104, 32.75112
825.4926, 33.05897
825.9747, 33.34875
826.4568, 33.59570
826.9389, 33.75408
827.4210, 33.83341
827.9031, 33.80190
828.3853, 33.55028
828.8674, 32.92740
829.3495, 32.94847
829.8316, 33.76496
830.3137, 34.58778
830.7958, 34.51698
831.2780, 33.91138
831.7601, 33.53990
832.2422, 33.49487
832.7243, 33.47950
833.2064, 33.19872
833.6885, 32.95410
834.1707, 33.04456
834.6528, 33.66088
835.1349, 33.87317
835.6170, 33.38386
836.0991, 32.99496
836.5812, 33.46677
837.0634, 34.69275
837.5455, 34.86100
838.0276, 33.94854
838.5097, 33.07335
838.9918, 33.28033
839.4739, 33.85252
839.9561, 34.01562
840.4382, 33.71890
840.9203, 33.36958
841.4024, 32.86312
841.8845, 32.57980
842.3666, 32.76247
842.8488, 33.39769
843.3309, 33.78248
843.8130, 33.90836
844.2951, 33.83197
844.7772, 33.39503
845.2593, 32.83786
845.7415, 32.79067
846.2236, 33.17312
846.7057, 33.55721
847.1878, 33.69366
847.6699, 33.77531
848.1520, 33.92536
848.6342, 34.13020
849.1163, 34.24461
849.5984, 34.24207
850.0805, 34.19849
850.5626, 34.15582
851.0447, 34.08043
851.5269, 33.78500
852.0090, 33.30767
852.4911, 32.96289
852.9732, 32.92400
853.4553, 33.06995
853.9374, 33.44138
854.4196, 33.90832
854.9017, 34.15101
855.3839, 33.90395
855.8660, 33.62069
856.3481, 33.34842
856.8302, 33.11740
857.3123, 32.98494
857.7944, 32.94929
858.2766, 33.05927
858.7587, 33.40528
859.2408, 33.73293
859.7229, 33.54073
860.2050, 33.06981
860.6871, 32.82569
861.1693, 33.16036
861.6514, 33.45681
862.1335, 33.50423
862.6156, 33.37132
863.0977, 33.13566
863.5798, 32.68465
864.0620, 32.46748
864.5441, 32.56225
865.0262, 32.79317
865.5083, 33.03175
865.9904, 33.22350
866.4725, 33.15129
866.9547, 32.72436
867.4368, 32.33474
867.9189, 32.27380
868.4010, 32.36964
868.8831, 32.47985
869.3652, 32.65123
869.8474, 32.63492
870.3295, 32.32010
870.8116, 31.99667
871.2937, 31.89170
871.7758, 31.99202
872.2579, 32.18623
872.7401, 32.47417
873.2222, 32.69517
873.7043, 32.61830
874.1864, 32.48137
874.6685, 32.58701
875.1506, 32.96183
875.6328, 33.12240
876.1149, 32.66591
876.5970, 32.28460
877.0791, 32.30613
877.5612, 32.66595
878.0433, 32.64991
878.5255, 32.24386
879.0076, 31.84632
879.4897, 31.64461
879.9718, 31.61749
880.4539, 31.84037
880.9360, 32.23239
881.4182, 32.51382
881.9003, 32.43583
882.3824, 32.37586
882.8645, 32.52797
883.3466, 32.78284
883.8287, 32.85150
884.3109, 32.70591
884.7930, 32.53265
885.2751, 32.38283
885.7572, 32.22438
886.2393, 31.88550
886.7214, 31.49988
887.2036, 31.43400
887.6857, 32.14537
888.1678, 32.64266
888.6499, 32.25100
889.1320, 31.50062
889.6141, 31.10414
890.0963, 31.22792
890.5784, 31.28606
891.0605, 31.20603
891.5426, 31.14982
892.0247, 31.35402
892.5068, 31.73411
892.9890, 32.08626
893.4711, 32.39634
893.9532, 32.49847
894.4353, 31.95561
894.9174, 31.37988
895.3995, 31.34372
895.8817, 32.09450
896.3638, 32.47988
896.8459, 32.38547
897.3280, 32.15640
897.8101, 32.00029
898.2922, 31.89379
898.7744, 31.64073
899.2565, 31.26954
899.7386, 31.08914
900.2207, 31.53250
900.7028, 32.04029
901.1849, 32.10903
901.6671, 31.80865
902.1492, 31.79137
902.6313, 32.36243
903.1134, 32.79654
903.5955, 32.87684
904.0776, 32.71688
904.5598, 32.62936
905.0419, 32.60286
905.5240, 32.53255
906.0062, 32.32495
906.4883, 32.14899
906.9704, 32.11886
907.4525, 32.23288
907.9346, 32.48961
908.4167, 33.15422
908.8989, 33.57402
909.3810, 33.60001
909.8631, 33.49430
910.3452, 33.57933
910.8273, 33.84464
911.3094, 34.17692
911.7916, 34.58336
912.2737, 34.87994
912.7558, 34.69419
913.2379, 34.42220
913.7200, 34.57636
914.2021, 35.36142
914.6843, 35.82235
915.1664, 35.56634
915.6485, 35.27291
916.1306, 35.30184
916.6127, 35.63462
917.0948, 35.95608
917.5770, 36.26789
918.0591, 36.60983
918.5412, 37.12164
919.0233, 37.59688
919.5054, 37.74902
919.9875, 37.65182
920.4697, 37.64044
920.9518, 37.94545
921.4339, 38.17088
921.9160, 38.18561
922.3981, 38.09298
922.8802, 38.16073
923.3624, 38.38383
923.8445, 38.63483
924.3266, 38.90178
924.8087, 39.12398
925.2908, 39.25000
925.7729, 39.28563
926.2551, 39.23107
926.7372, 38.96058
927.2193, 38.83965
927.7014, 39.05308
928.1835, 39.26667
928.6656, 39.14685
929.1478, 38.69557
929.6299, 38.27544
930.1120, 37.90564
930.5941, 37.59165
931.0762, 37.38656
931.5583, 37.21141
932.0405, 37.01078
932.5226, 36.78007
933.0047, 36.39602
933.4868, 35.55394
933.9689, 34.91075
934.4510, 34.81702
934.9332, 35.10276
935.4153, 34.80891
935.8974, 33.96518
936.3795, 33.27799
936.8616, 33.13813
937.3438, 33.22631
937.8259, 33.34423
938.3080, 33.43024
938.7901, 33.35922
939.2722, 32.99252
939.7543, 32.59933
940.2365, 32.21021
940.7186, 31.81202
941.2007, 31.32778
941.6828, 30.78450
942.1649, 30.52981
942.6470, 30.62885
943.1292, 30.85345
943.6113, 31.11563
944.0934, 31.32321
944.5755, 31.38220
945.0576, 31.26247
945.5397, 31.06034
946.0219, 30.61472
946.5040, 30.38004
946.9861, 30.72712
947.4682, 31.50123
947.9503, 31.69327
948.4324, 31.36196
948.9146, 30.99286
949.3967, 30.95302
949.8788, 30.90380
950.3609, 30.47903
950.8430, 29.83942
951.3251, 29.48020
951.8073, 29.47510
952.2894, 29.71890
952.7715, 30.34238
953.2536, 30.98345
953.7357, 30.90109
954.2179, 30.29197
954.7000, 29.98235
955.1821, 30.20647
955.6642, 30.44639
956.1464, 30.34778
956.6285, 30.09382
957.1106, 29.80429
957.5927, 29.42932
958.0748, 29.35287
958.5569, 29.68664
959.0391, 30.01825
959.5212, 30.08139
960.0033, 29.93234
960.4854, 29.66756
960.9675, 29.31592
961.4496, 29.04599
961.9318, 28.88721
962.4139, 28.89037
962.8960, 29.28590
963.3781, 29.84227
963.8602, 29.88885
964.3423, 29.25733
964.8245, 28.85669
965.3066, 28.92462
965.7887, 29.13904
966.2708, 28.92829
966.7529, 28.55022
967.2350, 28.57122
967.7172, 29.28477
968.1993, 29.79775
968.6814, 29.57273
969.1635, 29.19404
969.6456, 29.08659
970.1277, 29.28533
970.6099, 29.25449
971.0920, 28.97133
971.5741, 28.75805
972.0562, 28.92494
972.5383, 29.23251
973.0204, 29.31462
973.5026, 29.25050
973.9847, 29.38494
974.4668, 30.24663
974.9489, 30.76881
975.4310, 30.62213
975.9131, 30.10499
976.3953, 29.81790
976.8774, 29.74148
977.3595, 29.58316
977.8416, 29.24080
978.3237, 28.97529
978.8058, 29.12545
979.2880, 29.42622
979.7701, 29.61551
980.2522, 29.67741
980.7343, 29.47297
981.2164, 28.82175
981.6985, 28.23759
982.1807, 28.00917
982.6628, 28.10584
983.1449, 28.56097
983.6270, 29.28871
984.1091, 29.75347
984.5912, 29.28745
985.0734, 28.84108
985.5555, 29.13209
986.0376, 29.82225
986.5197, 29.94372
987.0018, 29.23191
987.4839, 28.85795
987.9661, 29.07032
988.4482, 29.47529
988.9303, 29.62677
989.4124, 29.55689
989.8945, 29.20208
990.3766, 28.45412
990.8588, 28.10382
991.3409, 28.99962
991.8230, 29.90744
992.3051, 30.07664
992.7872, 29.53725
993.2693, 29.06934
993.7515, 28.66622
994.2336, 28.53346
994.7157, 29.10042
995.1978, 29.71243
995.6799, 29.41912
996.1620, 28.59475
996.6442, 28.11572
997.1263, 28.54832
997.6084, 28.90424
998.0905, 29.10487
998.5726, 29.17260
999.0547, 29.03550
999.5369, 28.75901
1000.019, 28.83325
1000.501, 29.33654
1000.983, 29.76992
1001.465, 29.69317
1001.947, 29.46759
1002.430, 29.40294
1002.912, 29.51600
1003.394, 29.35977
1003.876, 28.78523
1004.358, 28.42924
1004.840, 28.58389
1005.322, 29.03816
1005.804, 29.54553
1006.287, 30.00712
1006.769, 30.18183
1007.251, 29.79405
1007.733, 29.39064
1008.215, 29.10651
1008.697, 28.90336
1009.179, 28.75312
1009.661, 28.65840
1010.143, 28.58370
1010.626, 28.52391
1011.108, 28.53453
1011.590, 28.71578
1012.072, 28.94737
1012.554, 29.12671
1013.036, 29.24704
1013.518, 29.32006
1014.000, 29.41890
1014.483, 29.33706
1014.965, 28.95271
1015.447, 28.45050
1015.929, 28.15366
1016.411, 28.05564
1016.893, 28.17590
1017.375, 28.59929
1017.857, 28.95424
1018.339, 28.94682
1018.822, 28.81463
1019.304, 28.75161
1019.786, 28.75968
1020.268, 28.90391
1020.750, 29.22453
1021.232, 29.42180
1021.714, 29.14754
1022.196, 28.72841
1022.679, 28.72758
1023.161, 29.01262
1023.643, 29.20457
1024.125, 29.09130
1024.607, 28.97385
1025.089, 28.85120
1025.571, 28.80177
1026.053, 29.03468
1026.535, 29.48532
1027.018, 29.59724
1027.500, 29.28427
1027.982, 29.01519
1028.464, 29.37262
1028.946, 29.74274
1029.428, 29.49961
1029.910, 28.63157
1030.392, 28.34027
1030.875, 28.80303
1031.357, 29.18436
1031.839, 29.15038
1032.321, 28.93061
1032.803, 29.00971
1033.285, 29.20483
1033.767, 29.08284
1034.249, 28.13717
1034.731, 27.62931
1035.214, 28.19850
1035.696, 28.98597
1036.178, 29.39244
1036.660, 29.41849
1037.142, 29.33801
1037.624, 29.16113
1038.106, 29.07140
1038.588, 29.30795
1039.071, 29.57455
1039.553, 29.67573
1040.035, 29.61979
1040.517, 29.44874
1040.999, 29.06123
1041.481, 28.88688
1041.963, 29.06041
1042.445, 29.25850
1042.927, 28.89811
1043.410, 28.29748
1043.892, 28.13374
1044.374, 28.54638
1044.856, 28.88691
1045.338, 28.67162
1045.820, 28.61441
1046.302, 29.22202
1046.784, 30.23097
1047.266, 30.04934
1047.749, 28.79346
1048.231, 27.84622
1048.713, 27.83432
1049.195, 28.20408
1049.677, 28.84123
1050.159, 29.45717
1050.641, 29.61503
1051.123, 29.07617
1051.606, 28.67936
1052.088, 28.41139
1052.570, 28.33390
1053.052, 28.71688
1053.534, 29.21992
1054.016, 29.02417
1054.498, 28.30297
1054.980, 27.92736
1055.463, 28.67433
1055.945, 29.24686
1056.427, 29.28194
1056.909, 29.04927
1057.391, 29.03613
1057.873, 29.19043
1058.355, 28.99580
1058.837, 28.33036
1059.319, 27.80557
1059.802, 28.12663
1060.284, 28.59336
1060.766, 28.58736
1061.248, 28.13386
1061.730, 28.10483
1062.212, 28.60556
1062.694, 28.96567
1063.176, 28.84689
1063.658, 28.62187
1064.141, 29.00023
1064.623, 29.60379
1065.105, 29.76006
1065.587, 29.00564
1066.069, 28.43526
1066.551, 28.19861
1067.033, 28.09659
1067.515, 27.98873
1067.998, 27.89162
1068.480, 27.93319
1068.962, 28.08755
1069.444, 28.21107
1069.926, 28.20623
1070.408, 28.17156
1070.890, 28.15012
1071.372, 28.12813
1071.854, 28.08507
1072.337, 28.02134
1072.819, 27.91965
1073.301, 27.76910
1073.783, 27.67797
1074.265, 27.83090
1074.747, 28.03571
1075.229, 28.08327
1075.711, 27.97228
1076.193, 27.92688
1076.676, 28.05750
1077.158, 27.99162
1077.640, 27.53785
1078.122, 27.01125
1078.604, 27.00647
1079.086, 27.33562
1079.568, 27.61190
1080.051, 27.74515
1080.533, 27.85191
1081.015, 28.12928
1081.497, 28.20812
1081.979, 27.77655
1082.461, 26.97126
1082.943, 26.69315
1083.425, 26.88691
1083.907, 27.16406
1084.390, 27.44021
1084.872, 27.60709
1085.354, 27.39975
1085.836, 27.14792
1086.318, 27.32722
1086.800, 28.14346
1087.282, 28.48693
1087.764, 28.28656
1088.246, 28.04113
1088.729, 28.26877
1089.211, 28.57653
1089.693, 28.43930
1090.175, 27.96591
1090.657, 27.62832
1091.139, 27.52762
1091.621, 27.54116
1092.103, 27.68046
1092.586, 27.87246
1093.068, 28.02020
1093.550, 28.14438
1094.032, 28.32152
1094.514, 28.56045
1094.996, 28.71549
1095.478, 28.68625
1095.960, 28.59049
1096.443, 28.43509
1096.925, 28.27003
1097.407, 28.30738
1097.889, 28.50092
1098.371, 28.48551
1098.853, 28.10339
1099.335, 27.71481
1099.817, 27.57407
1100.299, 27.54222
1100.781, 27.49767
1101.264, 27.43373
1101.746, 27.40040
1102.228, 27.39593
1102.710, 27.45032
1103.192, 27.67229
1103.674, 27.83796
1104.156, 27.53268
1104.638, 27.04514
1105.121, 26.85984
1105.603, 27.31100
1106.085, 27.57240
1106.567, 27.62226
1107.049, 27.54550
1107.531, 27.29882
1108.013, 27.02377
1108.495, 27.06724
1108.978, 27.34825
1109.460, 27.52633
1109.942, 27.30552
1110.424, 27.21963
1110.906, 27.44567
1111.388, 27.72574
1111.870, 27.69191
1112.352, 27.41355
1112.834, 27.17688
1113.317, 27.00549
1113.799, 26.86243
1114.281, 26.69428
1114.763, 26.58619
1115.245, 26.62536
1115.727, 26.73686
1116.209, 26.71116
1116.691, 26.55434
1117.173, 26.49607
1117.656, 26.61752
1118.138, 26.66491
1118.620, 26.13034
1119.102, 25.64585
1119.584, 25.92023
1120.066, 26.93538
1120.548, 27.50727
1121.030, 27.59880
1121.513, 27.49091
1121.995, 27.24152
1122.477, 26.93050
1122.959, 26.44005
1123.441, 26.03913
1123.923, 26.18594
1124.405, 27.33714
1124.887, 27.86538
1125.370, 27.59241
1125.852, 27.13007
1126.334, 26.71790
1126.816, 26.44103
1127.298, 26.60232
1127.780, 27.02873
1128.262, 27.30527
1128.744, 27.02444
1129.226, 27.00481
1129.709, 27.53446
1130.191, 28.00340
1130.673, 27.68051
1131.155, 26.86130
1131.637, 26.85761
1132.119, 27.53375
1132.601, 27.95630
1133.083, 27.20290
1133.566, 26.68374
1134.048, 27.07401
1134.530, 27.75809
1135.012, 27.87736
1135.494, 27.49190
1135.976, 27.24621
1136.458, 27.19493
1136.940, 27.25313
1137.422, 27.49276
1137.905, 27.69406
1138.387, 27.71298
1138.869, 27.59535
1139.351, 27.38732
1139.833, 27.07397
1140.315, 27.06320
1140.797, 27.47495
1141.279, 27.86036
1141.761, 27.73950
1142.244, 27.47763
1142.726, 27.42907
1143.208, 27.58640
1143.690, 27.47903
1144.172, 27.01982
1144.654, 26.86012
1145.136, 27.30076
1145.618, 27.81701
1146.101, 27.72762
1146.583, 27.35307
1147.065, 27.07288
1147.547, 26.96751
1148.029, 26.85883
1148.511, 26.73719
1148.993, 26.62514
1149.475, 26.49667
1149.958, 26.43401
1150.440, 26.62084
1150.922, 26.96004
1151.404, 27.29870
1151.886, 27.70991
1152.368, 27.79661
1152.850, 27.41981
1153.332, 26.99434
1153.814, 26.74966
1154.297, 26.65685
1154.779, 26.77969
1155.261, 26.99290
1155.743, 26.94159
1156.225, 26.21638
1156.707, 25.60551
1157.189, 25.07559
1157.671, 24.86665
1158.153, 25.39688
1158.636, 26.41891
1159.118, 26.91790
1159.600, 26.93988
1160.082, 26.81429
1160.564, 26.46490
1161.046, 26.30487
1161.528, 26.59399
1162.010, 26.95858
1162.493, 26.82620
1162.975, 26.33371
1163.457, 26.60619
1163.939, 27.61549
1164.421, 28.27321
1164.903, 27.51337
1165.385, 26.74140
1165.867, 26.59006
1166.349, 26.80692
1166.832, 27.09836
1167.314, 27.44051
1167.796, 27.41803
1168.278, 26.98129
1168.760, 26.57894
1169.242, 26.49813
1169.724, 26.57647
1170.206, 26.83315
1170.688, 27.14290
1171.171, 27.20360
1171.653, 27.01827
1172.135, 26.68452
1172.617, 26.20194
1173.099, 25.74740
1173.581, 25.40280
1174.063, 25.20444
1174.545, 25.27812
1175.028, 25.53781
1175.510, 25.55759
1175.992, 25.32034
1176.474, 25.28311
1176.956, 25.60944
1177.438, 25.97048
1177.920, 25.93876
1178.402, 25.88469
1178.885, 26.28817
1179.367, 27.12440
1179.849, 27.39288
1180.331, 27.04309
1180.813, 26.69040
1181.295, 26.55149
1181.777, 26.47843
1182.259, 26.27147
1182.741, 26.07346
1183.224, 26.07423
1183.706, 26.30958
1184.188, 26.45912
1184.670, 26.50995
1185.152, 26.57959
1185.634, 26.73382
1186.116, 26.90528
1186.598, 27.14434
1187.081, 27.29136
1187.563, 27.03958
1188.045, 26.16098
1188.527, 25.84999
1189.009, 26.20820
1189.491, 26.53731
1189.973, 26.40890
1190.455, 26.11012
1190.938, 25.88174
1191.420, 25.77021
1191.902, 25.88234
1192.384, 26.37770
1192.866, 26.65119
1193.348, 26.66872
1193.830, 26.63278
1194.312, 26.72408
1194.794, 26.79849
1195.276, 26.62225
1195.759, 26.29681
1196.241, 26.03319
1196.723, 25.89165
1197.205, 25.73202
1197.687, 25.53561
1198.169, 25.39599
1198.651, 25.42205
1199.133, 25.52218
1199.616, 25.51883
1200.098, 25.49598
1200.580, 25.70004
1201.062, 26.43319
1201.544, 26.68335
1202.026, 26.29315
1202.508, 25.89121
1202.990, 26.15266
1203.473, 26.63573
1203.955, 26.74354
1204.437, 26.56806
1204.919, 26.47851
1205.401, 26.63429
1205.883, 26.59378
1206.365, 26.27989
1206.847, 25.94335
1207.329, 25.82737
1207.812, 25.82809
1208.294, 25.75855
1208.776, 25.67463
1209.258, 25.87972
1209.740, 26.65397
1210.222, 27.03334
1210.704, 26.87862
1211.186, 26.46087
1211.668, 25.70815
1212.151, 25.08996
1212.633, 25.49637
1213.115, 26.69867
1213.597, 27.16271
1214.079, 26.47280
1214.561, 25.95436
1215.043, 25.79190
1215.525, 25.83596
1216.008, 26.08092
1216.490, 26.33545
1216.972, 26.32195
1217.454, 26.07079
1217.936, 25.91497
1218.418, 25.86979
1218.900, 25.94493
1219.382, 26.16182
1219.865, 26.41418
1220.347, 26.69390
1220.829, 26.86798
1221.311, 26.67787
1221.793, 26.17856
1222.275, 25.96188
1222.757, 26.10971
1223.239, 26.32787
1223.721, 26.60784
1224.203, 26.71928
1224.686, 26.21401
1225.168, 25.55281
1225.650, 25.16705
1226.132, 25.10370
1226.614, 25.26338
1227.096, 25.70350
1227.578, 26.03803
1228.061, 26.17174
1228.543, 26.24321
1229.025, 26.44769
1229.507, 26.62228
1229.989, 26.50217
1230.471, 26.14638
1230.953, 26.22938
1231.435, 26.82581
1231.917, 27.14902
1232.400, 26.95087
1232.882, 26.78444
1233.364, 27.51749
1233.846, 28.25664
1234.328, 27.93913
1234.810, 26.80221
1235.292, 26.61130
1235.774, 27.42710
1236.256, 27.80697
1236.739, 27.35287
1237.221, 26.66343
1237.703, 25.91060
1238.185, 25.41777
1238.667, 25.62214
1239.149, 26.32690
1239.631, 26.79104
1240.113, 27.00838
1240.596, 26.86976
1241.078, 26.23466
1241.560, 25.89989
1242.042, 27.13679
1242.524, 28.21441
1243.006, 27.69585
1243.488, 26.12877
1243.970, 25.75479
1244.453, 26.38856
1244.935, 26.41403
1245.417, 25.27859
1245.899, 24.50907
1246.381, 25.68034
1246.863, 26.78753
1247.345, 26.57866
1247.827, 25.55539
1248.309, 25.40690
1248.792, 25.93131
1249.274, 26.19080
1249.756, 25.88877
1250.238, 25.81336
1250.720, 26.81347
1251.202, 27.55661
1251.684, 27.41806
1252.166, 26.72252
1252.648, 26.14141
1253.131, 25.71750
1253.613, 25.62573
1254.095, 25.95984
1254.577, 26.22007
1255.059, 26.11568
1255.541, 26.12610
1256.023, 26.48919
1256.505, 26.96942
1256.988, 27.10029
1257.470, 26.96723
1257.952, 26.72564
1258.434, 26.39141
1258.916, 26.04095
1259.398, 25.56142
1259.880, 25.35994
1260.362, 25.64032
1260.844, 26.13292
1261.327, 26.44370
1261.809, 26.64393
1262.291, 26.90748
1262.773, 27.28490
1263.255, 27.18723
1263.737, 26.36651
1264.219, 25.91234
1264.701, 26.26673
1265.183, 26.85905
1265.666, 27.12967
1266.148, 27.12414
1266.630, 26.76107
1267.112, 26.03552
1267.594, 25.81577
1268.076, 26.17753
1268.558, 26.43337
1269.040, 26.35754
1269.523, 26.22065
1270.005, 26.42190
1270.487, 26.58157
1270.969, 26.16300
1271.451, 25.33114
1271.933, 25.09920
1272.415, 25.46085
1272.897, 25.92172
1273.380, 26.42581
1273.862, 26.62038
1274.344, 25.84299
1274.826, 25.06807
1275.308, 24.90614
1275.790, 25.22628
1276.272, 25.72279
1276.754, 26.33182
1277.236, 26.70671
1277.719, 26.76026
1278.201, 26.69694
1278.683, 26.57497
1279.165, 26.39459
1279.647, 26.07854
1280.129, 25.79242
1280.611, 25.94111
1281.093, 26.39493
1281.576, 26.90673
1282.058, 27.45756
1282.540, 27.53977
1283.022, 26.57497
1283.504, 25.83612
1283.986, 25.63520
1284.468, 25.82759
1284.950, 26.51543
1285.432, 27.28343
1285.915, 27.27795
1286.397, 26.44266
1286.879, 26.17021
1287.361, 26.81482
1287.843, 27.17301
1288.325, 26.92435
1288.807, 26.52549
1289.289, 26.46285
1289.771, 26.55803
1290.254, 26.70885
1290.736, 26.85202
1291.218, 26.67148
1291.700, 26.10287
1292.182, 25.85710
1292.664, 26.07352
1293.146, 26.41014
1293.628, 26.76141
1294.111, 26.95064
1294.593, 26.70566
1295.075, 26.26469
1295.557, 26.11458
1296.039, 26.22985
1296.521, 26.35551
1297.003, 26.46128
1297.485, 26.51602
1297.968, 26.55021
1298.450, 26.43160
1298.932, 26.00520
1299.414, 25.56930
1299.896, 25.67368
1300.378, 26.13103
1300.860, 26.40464
1301.342, 26.45057
1301.824, 26.35476
##END=



