##NAMES=Covellite
##RRUFFID=R060129
##IDEAL CHEMISTRY=Cu^1+^S
##LOCALITY=Butte, Montana, USA
##OWNER=RRUFF
##SOURCE=University of Arizona Mineral Museum
##DESCRIPTION=Iridescent blue metallic hexagonal plates
##STATUS=The identification of this mineral has been confirmed by X-ray diffraction and chemical analysis
##URL=rruff.info/R060129
##MEASURED CHEMISTRY=Cu_1.00_S_1.00_
92.02539, 211.8252
92.50751, 217.9987
92.98962, 222.4529
93.47174, 220.3169
93.95386, 215.4614
94.43597, 209.6534
94.91809, 203.4441
95.40021, 197.5082
95.88232, 193.5215
96.36444, 192.4268
96.84656, 191.9633
97.32867, 192.7897
97.81078, 193.8291
98.29290, 193.3175
98.77502, 189.5627
99.25713, 181.9134
99.73925, 174.9712
100.2214, 167.7709
100.7035, 161.8213
101.1856, 157.5906
101.6677, 155.1421
102.1498, 154.5010
102.6320, 155.8214
103.1141, 159.9524
103.5962, 164.3337
104.0783, 171.2380
104.5604, 177.5588
105.0425, 179.5326
105.5247, 175.8032
106.0068, 168.4251
106.4889, 160.1560
106.9710, 150.6035
107.4531, 142.0489
107.9352, 135.6423
108.4173, 131.1546
108.8995, 127.3127
109.3816, 123.7410
109.8637, 120.6556
110.3458, 118.2078
110.8279, 116.4157
111.3100, 115.2075
111.7922, 114.6651
112.2743, 115.0669
112.7564, 115.2399
113.2385, 115.0931
113.7206, 114.4967
114.2027, 113.1769
114.6849, 110.9514
115.1670, 108.1187
115.6491, 105.7556
116.1312, 103.8779
116.6133, 102.5306
117.0954, 101.8104
117.5776, 101.5859
118.0597, 101.7060
118.5418, 102.0949
119.0239, 102.7588
119.5060, 103.2598
119.9881, 103.7413
120.4703, 103.9741
120.9524, 103.7488
121.4345, 103.1322
121.9166, 102.4407
122.3987, 102.0163
122.8808, 101.9183
123.3630, 101.3813
123.8451, 100.3179
124.3272, 98.86012
124.8093, 96.88969
125.2914, 94.25841
125.7735, 91.85629
126.2557, 90.99987
126.7378, 91.36806
127.2199, 91.84711
127.7020, 92.29537
128.1841, 92.57692
128.6662, 92.19126
129.1483, 90.72712
129.6305, 88.92995
130.1126, 87.36105
130.5947, 86.01388
131.0768, 84.76316
131.5589, 83.41733
132.0410, 81.91795
132.5232, 80.81124
133.0053, 80.49700
133.4874, 80.37484
133.9695, 80.25323
134.4516, 80.05949
134.9337, 79.71059
135.4159, 79.02811
135.8980, 77.68453
136.3801, 76.62279
136.8622, 75.78902
137.3443, 75.24898
137.8264, 75.22678
138.3086, 75.78091
138.7907, 76.57630
139.2728, 76.67641
139.7549, 75.44304
140.2370, 74.20607
140.7191, 73.04874
141.2013, 71.94561
141.6834, 70.83413
142.1655, 69.67372
142.6476, 68.50564
143.1297, 67.53274
143.6118, 66.80608
144.0939, 66.17213
144.5761, 65.64926
145.0582, 65.20194
145.5403, 64.65818
146.0224, 63.89618
146.5045, 62.95545
146.9866, 61.98822
147.4688, 60.79465
147.9509, 59.74947
148.4330, 59.31590
148.9151, 59.58459
149.3972, 59.89518
149.8793, 59.87693
150.3615, 59.65120
150.8436, 59.31964
151.3257, 58.84993
151.8078, 58.33011
152.2899, 58.00686
152.7720, 58.06594
153.2542, 57.97901
153.7363, 57.44963
154.2184, 56.67335
154.7005, 55.92592
155.1826, 55.35114
155.6647, 54.95049
156.1469, 54.76751
156.6290, 55.18941
157.1111, 55.45444
157.5932, 55.30798
158.0753, 54.84000
158.5574, 54.26504
159.0396, 53.75499
159.5217, 53.31635
160.0038, 52.88566
160.4859, 52.35938
160.9680, 51.92802
161.4501, 51.76395
161.9323, 51.81321
162.4144, 51.83782
162.8965, 51.57805
163.3786, 50.92802
163.8607, 50.43811
164.3428, 50.08979
164.8250, 49.89529
165.3071, 49.93831
165.7892, 50.21592
166.2713, 50.53386
166.7534, 50.67570
167.2355, 50.62973
167.7177, 50.45018
168.1998, 49.97216
168.6819, 49.42086
169.1640, 49.11290
169.6461, 49.14431
170.1282, 49.30467
170.6104, 49.36673
171.0925, 49.34378
171.5746, 49.26489
172.0567, 49.15524
172.5388, 48.99984
173.0209, 48.73640
173.5031, 48.28490
173.9852, 47.81738
174.4673, 47.46480
174.9494, 47.22288
175.4315, 47.05139
175.9136, 46.95077
176.3958, 46.91774
176.8779, 46.86338
177.3600, 46.81148
177.8421, 46.69670
178.3242, 46.39429
178.8063, 45.93478
179.2885, 45.56057
179.7706, 45.63647
180.2527, 46.35729
180.7348, 46.66650
181.2169, 46.16101
181.6990, 45.48311
182.1812, 44.86795
182.6633, 44.39283
183.1454, 44.10090
183.6275, 44.10364
184.1096, 44.67194
184.5917, 44.95238
185.0738, 44.74860
185.5560, 44.44061
186.0381, 44.36836
186.5202, 44.58884
187.0023, 44.82166
187.4844, 44.56938
187.9665, 43.27100
188.4487, 42.36824
188.9308, 42.00631
189.4129, 41.95147
189.8950, 42.06763
190.3771, 42.30355
190.8592, 42.55016
191.3414, 42.58323
191.8235, 42.28740
192.3056, 41.99471
192.7877, 41.74199
193.2698, 41.51122
193.7519, 41.26259
194.2341, 40.97237
194.7162, 40.69426
195.1983, 40.59046
195.6804, 40.75447
196.1625, 40.75659
196.6446, 40.26444
197.1268, 39.51372
197.6089, 39.05655
198.0910, 39.13231
198.5731, 39.50337
199.0552, 39.83311
199.5373, 40.15992
200.0195, 40.30886
200.5016, 40.02497
200.9837, 39.41607
201.4658, 39.06414
201.9479, 39.29879
202.4300, 39.70902
202.9122, 39.83406
203.3943, 39.64724
203.8764, 39.34856
204.3585, 39.07931
204.8406, 38.83876
205.3227, 38.57048
205.8048, 38.08942
206.2870, 37.72046
206.7691, 37.81240
207.2512, 38.39313
207.7333, 38.97734
208.2154, 38.97507
208.6975, 38.26299
209.1797, 37.69721
209.6618, 37.60465
210.1439, 37.57585
210.6260, 37.34069
211.1081, 36.87150
211.5902, 36.40141
212.0724, 36.27553
212.5545, 36.65553
213.0366, 36.89058
213.5187, 36.88741
214.0008, 36.77436
214.4829, 36.55816
214.9651, 36.27011
215.4472, 36.02422
215.9293, 36.01210
216.4114, 36.40773
216.8935, 36.68122
217.3756, 36.90937
217.8578, 36.99087
218.3399, 36.73359
218.8220, 36.15057
219.3041, 35.54824
219.7862, 35.43581
220.2683, 36.30990
220.7505, 36.70021
221.2326, 36.31137
221.7147, 35.68225
222.1968, 35.16796
222.6789, 34.87165
223.1610, 34.76471
223.6432, 34.83311
224.1253, 35.31801
224.6074, 35.44167
225.0895, 34.82861
225.5716, 34.06679
226.0537, 33.73887
226.5358, 33.97119
227.0180, 34.39973
227.5001, 34.52026
227.9822, 34.22943
228.4643, 33.92611
228.9464, 33.51223
229.4285, 33.15222
229.9107, 33.05998
230.3928, 33.28773
230.8749, 33.65488
231.3570, 33.95266
231.8391, 34.17953
232.3212, 34.36836
232.8034, 34.58300
233.2855, 34.73858
233.7676, 34.73130
234.2497, 34.54145
234.7318, 33.83806
235.2139, 34.38822
235.6961, 34.72127
236.1782, 34.84885
236.6603, 34.15562
237.1424, 34.52230
237.6245, 34.46422
238.1066, 34.38872
238.5888, 34.90459
239.0709, 34.33075
239.5530, 34.39875
240.0351, 34.12798
240.5172, 33.97651
240.9993, 33.91403
241.4815, 33.88752
241.9636, 33.89587
242.4457, 33.93602
242.9278, 34.03763
243.4099, 34.16929
243.8920, 34.26189
244.3742, 34.26632
244.8563, 34.21474
245.3384, 34.19131
245.8205, 34.22821
246.3026, 34.21796
246.7847, 34.07228
247.2668, 33.84862
247.7490, 33.63781
248.2311, 33.49668
248.7132, 33.38786
249.1953, 33.21864
249.6774, 32.98526
250.1595, 32.69304
250.6417, 32.26353
251.1238, 31.80626
251.6059, 31.48569
252.0880, 31.42033
252.5701, 31.48166
253.0522, 31.32891
253.5344, 30.84612
254.0165, 30.37197
254.4986, 29.98973
254.9807, 29.67646
255.4628, 29.37519
255.9449, 29.04290
256.4271, 28.78368
256.9092, 28.53285
257.3913, 28.98216
257.8734, 29.21434
258.3555, 29.24107
258.8376, 28.44698
259.3198, 28.71279
259.8019, 28.55385
260.2840, 28.37749
260.7661, 28.79249
261.2482, 28.11779
261.7303, 28.52342
262.2125, 28.35093
262.6946, 28.33417
263.1767, 28.27968
263.6588, 28.15005
264.1409, 27.99996
264.6230, 27.92723
265.1052, 27.96852
265.5873, 28.02172
266.0694, 28.22243
266.5515, 28.34261
267.0336, 28.13476
267.5157, 27.57946
267.9979, 26.93616
268.4800, 26.60284
268.9621, 26.76022
269.4442, 26.85237
269.9263, 26.89770
270.4084, 26.87966
270.8906, 26.75650
271.3727, 26.53973
271.8548, 26.30426
272.3369, 26.14184
272.8190, 26.07673
273.3011, 26.01176
273.7833, 25.97982
274.2654, 25.92216
274.7475, 25.79889
275.2296, 25.61380
275.7117, 25.39477
276.1938, 25.15637
276.6760, 24.87327
277.1581, 24.73946
277.6402, 24.91076
278.1223, 25.05182
278.6044, 24.92702
279.0865, 24.61011
279.5686, 24.37985
280.0508, 24.47797
280.5329, 24.91348
281.0150, 25.21815
281.4971, 25.32474
281.9792, 25.39871
282.4613, 25.54272
282.9435, 25.70616
283.4256, 25.76527
283.9077, 25.63872
284.3898, 25.33752
284.8719, 24.96235
285.3540, 24.25658
285.8362, 23.76936
286.3183, 23.80129
286.8004, 24.13695
287.2825, 24.37579
287.7646, 24.30214
288.2467, 24.02156
288.7289, 23.90530
289.2110, 24.21470
289.6931, 24.35553
290.1752, 24.06435
290.6573, 23.59515
291.1394, 23.32563
291.6216, 23.40794
292.1037, 23.68174
292.5858, 23.82639
293.0679, 23.82035
293.5500, 23.72448
294.0321, 23.42340
294.5143, 23.08702
294.9964, 22.93269
295.4785, 23.01744
295.9606, 23.18746
296.4427, 23.22290
296.9248, 23.06083
297.4070, 22.94775
297.8891, 22.88746
298.3712, 22.88196
298.8533, 22.96367
299.3354, 23.12841
299.8175, 23.29152
300.2997, 23.37435
300.7818, 23.36538
301.2639, 23.28335
301.7460, 23.08787
302.2281, 22.85377
302.7102, 22.56971
303.1924, 22.26468
303.6745, 22.07549
304.1566, 22.12159
304.6387, 22.39930
305.1208, 22.67105
305.6029, 23.05164
306.0851, 23.32077
306.5672, 23.33335
307.0493, 23.13455
307.5314, 22.86026
308.0135, 22.56515
308.4956, 22.27051
308.9778, 22.07509
309.4599, 22.01579
309.9420, 21.98771
310.4241, 21.96239
310.9062, 21.94477
311.3883, 21.94818
311.8705, 21.98050
312.3526, 22.02897
312.8347, 22.06882
313.3168, 22.11474
313.7989, 22.12273
314.2810, 22.07358
314.7632, 21.98526
315.2453, 21.87259
315.7274, 21.73849
316.2095, 21.60259
316.6916, 21.49385
317.1737, 21.42053
317.6559, 21.33669
318.1380, 21.20599
318.6201, 21.08268
319.1022, 21.02950
319.5843, 21.05086
320.0664, 21.08288
320.5485, 21.05521
321.0306, 20.96234
321.5128, 20.95400
321.9949, 21.12171
322.4770, 21.29428
322.9591, 21.37007
323.4412, 21.35115
323.9233, 21.27860
324.4055, 21.17110
324.8876, 21.03321
325.3697, 20.90688
325.8518, 20.78739
326.3339, 20.68168
326.8160, 20.59195
327.2982, 20.51769
327.7803, 20.45569
328.2624, 20.40356
328.7445, 20.36550
329.2266, 20.36120
329.7087, 20.45600
330.1909, 20.46554
330.6730, 20.25786
331.1551, 19.98017
331.6372, 19.84609
332.1193, 19.91953
332.6014, 20.06087
333.0836, 20.05587
333.5657, 19.80798
334.0478, 19.71212
334.5299, 19.90875
335.0120, 20.17847
335.4941, 20.37068
335.9763, 20.45634
336.4584, 20.44462
336.9405, 20.33665
337.4226, 20.12293
337.9047, 19.87659
338.3868, 19.50192
338.8690, 19.18427
339.3511, 19.01522
339.8332, 18.98355
340.3153, 19.05524
340.7974, 19.22526
341.2795, 19.46774
341.7617, 19.60990
342.2438, 19.61575
342.7259, 19.58111
343.2080, 19.49255
343.6901, 19.38481
344.1722, 19.31454
344.6544, 19.30619
345.1365, 19.32854
345.6186, 19.31809
346.1007, 19.27655
346.5828, 19.19160
347.0649, 18.94023
347.5471, 18.71764
348.0292, 18.74232
348.5113, 19.03387
348.9934, 19.39876
349.4755, 19.60994
349.9576, 19.64720
350.4398, 19.59006
350.9219, 19.36141
351.4040, 19.12380
351.8861, 18.96556
352.3682, 18.87687
352.8503, 18.79446
353.3325, 18.66530
353.8146, 18.49734
354.2967, 18.41874
354.7788, 18.49587
355.2609, 18.58566
355.7430, 18.73362
356.2252, 18.85665
356.7073, 18.80467
357.1894, 18.50262
357.6715, 18.08431
358.1536, 17.88743
358.6357, 18.07015
359.1179, 18.25158
359.5999, 18.50593
360.0821, 18.69919
360.5642, 18.67854
361.0463, 18.43656
361.5284, 18.13534
362.0105, 17.98027
362.4926, 18.01550
362.9748, 18.02882
363.4569, 17.99532
363.9390, 17.96481
364.4211, 17.97720
364.9032, 18.01337
365.3853, 18.01837
365.8675, 17.94479
366.3496, 17.80284
366.8317, 17.68784
367.3138, 17.57193
367.7959, 17.52633
368.2780, 17.59429
368.7602, 17.72724
369.2423, 17.88503
369.7244, 18.05306
370.2065, 18.19207
370.6886, 18.19849
371.1707, 17.97853
371.6529, 17.86568
372.1350, 18.06800
372.6171, 18.27046
373.0992, 18.21684
373.5813, 17.89682
374.0634, 17.55260
374.5456, 17.48834
375.0277, 17.72602
375.5098, 17.75805
375.9919, 17.38684
376.4740, 17.00352
376.9561, 16.75717
377.4383, 16.63759
377.9204, 16.61918
378.4025, 16.74214
378.8846, 16.92463
379.3667, 16.90903
379.8488, 16.60155
380.3310, 16.33919
380.8131, 16.28122
381.2952, 16.32580
381.7773, 16.38560
382.2594, 16.44311
382.7415, 16.49150
383.2237, 16.50431
383.7058, 16.48201
384.1879, 16.52144
384.6700, 16.71164
385.1521, 16.90201
385.6342, 16.95048
386.1164, 16.86428
386.5985, 16.76267
387.0806, 16.72709
387.5627, 16.72228
388.0448, 16.64823
388.5269, 16.47369
389.0091, 16.30980
389.4912, 16.26182
389.9733, 16.28575
390.4554, 16.28592
390.9375, 16.20353
391.4196, 16.12692
391.9018, 16.17196
392.3839, 16.32080
392.8660, 16.40198
393.3481, 16.31866
393.8302, 16.14330
394.3123, 16.02181
394.7945, 15.96646
395.2766, 15.91740
395.7587, 15.82120
396.2408, 15.72361
396.7229, 15.72588
397.2050, 15.85971
397.6872, 16.00373
398.1693, 15.99213
398.6514, 15.80363
399.1335, 15.78355
399.6156, 16.19540
400.0977, 16.57995
400.5798, 16.56983
401.0620, 16.21569
401.5441, 15.79967
402.0262, 15.47754
402.5083, 15.24654
402.9904, 15.10803
403.4725, 15.09911
403.9547, 15.12070
404.4368, 15.16608
404.9189, 15.22758
405.4010, 15.29894
405.8831, 15.37736
406.3652, 15.46049
406.8474, 15.55598
407.3295, 15.71680
407.8116, 15.71791
408.2937, 15.37154
408.7758, 15.05064
409.2579, 15.02068
409.7401, 15.21692
410.2222, 15.36135
410.7043, 15.22304
411.1864, 14.86315
411.6685, 14.82431
412.1506, 15.62284
412.6328, 16.10646
413.1149, 15.88603
413.5970, 15.36959
414.0791, 14.98248
414.5612, 14.87494
415.0433, 14.95070
415.5255, 15.10680
416.0076, 15.41983
416.4897, 15.54779
416.9718, 15.23752
417.4539, 14.93412
417.9360, 14.88523
418.4182, 15.04193
418.9003, 15.17969
419.3824, 15.10810
419.8645, 14.89035
420.3466, 14.82880
420.8287, 15.01926
421.3109, 15.16646
421.7930, 15.10761
422.2751, 14.96264
422.7572, 14.86960
423.2393, 14.87588
423.7214, 14.89382
424.2036, 14.79669
424.6857, 14.59230
425.1678, 14.48602
425.6499, 14.56485
426.1320, 14.70648
426.6141, 14.81137
427.0963, 14.87990
427.5784, 14.90981
428.0605, 14.86833
428.5426, 14.80051
429.0247, 14.77736
429.5068, 14.80399
429.9890, 14.85180
430.4711, 14.93693
430.9532, 15.01830
431.4353, 14.97875
431.9174, 14.71773
432.3995, 14.48447
432.8817, 14.44775
433.3638, 14.52495
433.8459, 14.52795
434.3280, 14.39066
434.8101, 14.21725
435.2922, 14.15969
435.7744, 14.25853
436.2565, 14.31152
436.7386, 14.25972
437.2207, 14.20167
437.7028, 14.20533
438.1849, 14.26773
438.6671, 14.36283
439.1492, 14.48340
439.6313, 14.61136
440.1134, 14.63620
440.5955, 14.42914
441.0776, 14.27705
441.5598, 14.19840
442.0418, 14.19597
442.5240, 14.30567
443.0061, 14.52183
443.4882, 14.75397
443.9703, 14.88172
444.4524, 14.88593
444.9345, 14.87701
445.4167, 14.84433
445.8988, 14.80890
446.3809, 14.78573
446.8630, 14.76467
447.3451, 14.72698
447.8272, 14.66342
448.3094, 14.57391
448.7915, 14.42988
449.2736, 14.16191
449.7557, 14.03977
450.2378, 14.25861
450.7199, 14.56187
451.2021, 14.80930
451.6842, 14.97417
452.1663, 15.02803
452.6484, 14.84946
453.1305, 14.51781
453.6126, 14.42530
454.0948, 14.69200
454.5769, 14.96784
455.0590, 14.96082
455.5411, 14.80587
456.0232, 14.73938
456.5053, 14.86254
456.9875, 15.02026
457.4696, 15.11521
457.9517, 15.14189
458.4338, 15.02737
458.9159, 14.66190
459.3980, 14.31421
459.8802, 14.50247
460.3623, 15.28911
460.8444, 15.83949
461.3265, 15.86877
461.8086, 15.69158
462.2907, 15.53823
462.7729, 15.43986
463.2550, 15.40842
463.7371, 15.46650
464.2192, 15.58960
464.7013, 15.63634
465.1834, 15.39372
465.6656, 15.34983
466.1477, 15.75943
466.6298, 16.30933
467.1119, 16.66318
467.5940, 16.74472
468.0761, 16.68922
468.5583, 16.64296
469.0404, 16.59561
469.5225, 16.62436
470.0046, 16.83825
470.4867, 17.01589
470.9688, 17.03458
471.4510, 16.98328
471.9331, 17.03600
472.4152, 17.28940
472.8973, 17.59201
473.3794, 17.63967
473.8615, 17.37731
474.3437, 17.09387
474.8258, 16.80437
475.3079, 16.53984
475.7900, 16.36843
476.2721, 16.26185
476.7542, 16.06767
477.2364, 15.57377
477.7185, 14.95229
478.2006, 14.62156
478.6827, 14.62585
479.1648, 14.67580
479.6469, 14.66080
480.1291, 14.58025
480.6112, 14.42492
481.0933, 14.15061
481.5754, 13.92520
482.0575, 13.85684
482.5396, 13.88998
483.0217, 13.93365
483.5038, 13.97149
483.9860, 13.98927
484.4681, 13.96730
484.9502, 13.90364
485.4323, 13.85953
485.9144, 13.82799
486.3965, 13.82171
486.8787, 13.86074
487.3608, 13.92614
487.8429, 14.00397
488.3250, 14.08865
488.8071, 14.12885
489.2892, 14.01650
489.7714, 13.62399
490.2535, 13.39380
490.7356, 13.38302
491.2177, 13.45246
491.6998, 13.58710
492.1819, 13.74329
492.6641, 13.84320
493.1462, 13.83322
493.6283, 13.74294
494.1104, 13.64574
494.5925, 13.51552
495.0746, 13.45024
495.5568, 13.57933
496.0389, 13.70767
496.5210, 13.63638
497.0031, 13.37746
497.4852, 13.20792
497.9673, 13.41819
498.4495, 13.85967
498.9316, 14.11927
499.4137, 14.16389
499.8958, 14.11543
500.3779, 14.00722
500.8600, 13.86039
501.3422, 13.71109
501.8243, 13.52718
502.3064, 13.41439
502.7885, 13.50904
503.2706, 13.68876
503.7527, 13.71347
504.2349, 13.52962
504.7170, 13.29001
505.1991, 13.13340
505.6812, 13.06296
506.1633, 13.04974
506.6454, 13.20438
507.1276, 13.28782
507.6097, 13.11627
508.0918, 12.84415
508.5739, 12.74366
509.0560, 12.90932
509.5381, 13.15686
510.0203, 13.18062
510.5024, 12.89682
510.9845, 12.67645
511.4666, 12.42014
511.9487, 12.32758
512.4308, 12.64568
512.9130, 13.16737
513.3951, 13.47282
513.8772, 13.31376
514.3593, 12.94347
514.8414, 12.83793
515.3235, 13.03475
515.8057, 13.21103
516.2878, 13.32194
516.7699, 13.35779
517.2520, 13.27483
517.7341, 13.09547
518.2162, 12.97457
518.6984, 13.04810
519.1805, 13.17449
519.6626, 13.14828
520.1447, 12.97873
520.6268, 12.84029
521.1089, 12.82716
521.5911, 12.88151
522.0732, 12.86319
522.5553, 12.73374
523.0374, 12.65632
523.5195, 12.73013
524.0016, 12.81702
524.4838, 12.76920
524.9659, 12.60213
525.4480, 12.45652
525.9301, 12.44174
526.4122, 12.52219
526.8943, 12.51124
527.3765, 12.34017
527.8586, 12.17093
528.3407, 11.92488
528.8228, 11.74848
529.3049, 11.78727
529.7870, 12.03781
530.2692, 12.36844
530.7513, 12.71467
531.2334, 13.04763
531.7155, 13.15170
532.1976, 12.87924
532.6797, 12.72268
533.1619, 13.12264
533.6440, 13.62989
534.1261, 13.72312
534.6082, 13.27166
535.0903, 12.84760
535.5724, 12.95067
536.0546, 13.32022
536.5367, 13.34507
537.0188, 12.92729
537.5009, 12.48992
537.9830, 12.31552
538.4651, 12.38887
538.9473, 12.57628
539.4294, 13.06776
539.9115, 13.42497
540.3936, 13.35546
540.8757, 13.16588
541.3578, 13.27365
541.8400, 13.73884
542.3221, 14.28047
542.8042, 14.61125
543.2863, 14.72787
543.7684, 14.83683
544.2505, 14.80820
544.7326, 14.93642
545.2147, 15.43084
545.6968, 16.03186
546.1790, 16.47198
546.6611, 16.68059
547.1432, 16.73354
547.6253, 16.66039
548.1074, 16.47535
548.5895, 16.35317
549.0717, 16.32888
549.5538, 16.30715
550.0359, 16.29095
550.5180, 16.22501
551.0001, 16.00097
551.4822, 15.56182
551.9644, 15.06155
552.4465, 14.47267
552.9286, 13.91333
553.4107, 13.68458
553.8928, 13.85092
554.3749, 14.08843
554.8571, 14.11428
555.3392, 13.93286
555.8213, 13.74825
556.3034, 13.61636
556.7855, 13.41477
557.2676, 13.00544
557.7498, 12.55892
558.2319, 12.28514
558.7140, 12.22755
559.1961, 12.28349
559.6782, 12.35509
560.1603, 12.44253
560.6425, 12.50222
561.1246, 12.55262
561.6067, 12.54255
562.0888, 12.44367
562.5709, 12.29101
563.0530, 12.10717
563.5352, 11.89579
564.0173, 11.71051
564.4994, 11.57058
564.9815, 11.49232
565.4636, 11.58203
565.9457, 11.89758
566.4279, 12.12440
566.9100, 12.00436
567.3921, 11.63240
567.8742, 11.36742
568.3563, 11.18325
568.8384, 11.14643
569.3206, 11.44905
569.8027, 11.82614
570.2848, 11.92491
570.7669, 11.71358
571.2490, 11.40946
571.7311, 11.17285
572.2133, 11.01940
572.6954, 11.14212
573.1775, 11.95460
573.6596, 12.47141
574.1417, 12.39520
574.6238, 12.10343
575.1060, 11.87693
575.5881, 11.77361
576.0702, 11.75843
576.5523, 11.82165
577.0344, 11.94790
577.5165, 12.10397
577.9987, 12.31705
578.4808, 12.43966
578.9629, 12.39086
579.4450, 12.22269
579.9271, 11.98698
580.4092, 11.66327
580.8914, 11.42503
581.3735, 11.32808
581.8556, 11.35570
582.3377, 11.57342
582.8198, 11.93112
583.3019, 12.17268
583.7841, 12.13960
584.2662, 11.91731
584.7483, 11.73834
585.2304, 11.59429
585.7125, 11.51284
586.1946, 11.52191
586.6768, 11.56420
587.1589, 11.61647
587.6410, 11.67133
588.1231, 11.73012
588.6052, 11.80114
589.0873, 11.85330
589.5695, 11.76974
590.0516, 11.50543
590.5337, 11.46059
591.0158, 11.93737
591.4979, 12.38717
591.9800, 12.26571
592.4622, 11.71584
592.9443, 11.32225
593.4264, 11.30381
593.9085, 11.46939
594.3906, 11.79945
594.8727, 12.19184
595.3549, 12.31538
595.8370, 12.04985
596.3191, 11.68482
596.8012, 11.58143
597.2833, 11.78756
597.7654, 11.91930
598.2476, 11.88467
598.7297, 11.89331
599.2118, 12.13186
599.6939, 12.39869
600.1760, 12.38929
600.6581, 12.03403
601.1403, 11.60269
601.6224, 11.41700
602.1045, 11.46349
602.5866, 11.43776
603.0687, 11.31017
603.5508, 11.17470
604.0330, 11.02281
604.5151, 10.91394
604.9972, 10.95041
605.4793, 11.17112
605.9614, 11.39824
606.4435, 11.56218
606.9257, 11.67121
607.4078, 11.72853
607.8899, 11.73788
608.3720, 11.71981
608.8541, 11.68647
609.3362, 11.63638
609.8184, 11.56328
610.3005, 11.43532
610.7826, 11.33272
611.2647, 11.27081
611.7468, 11.21993
612.2289, 11.14116
612.7111, 11.05677
613.1932, 11.03344
613.6753, 11.11868
614.1574, 11.25410
614.6395, 11.31788
615.1216, 11.30139
615.6038, 11.34780
616.0859, 11.55199
616.5680, 11.72608
617.0501, 11.63776
617.5322, 11.37729
618.0143, 11.25907
618.4965, 11.49687
618.9786, 11.72449
619.4607, 11.70226
619.9428, 11.52149
620.4249, 11.31094
620.9070, 11.11112
621.3892, 11.00616
621.8713, 11.09721
622.3534, 11.38125
622.8355, 11.60351
623.3176, 11.71560
623.7997, 11.82557
624.2819, 12.01600
624.7640, 12.16731
625.2461, 12.12948
625.7282, 11.91073
626.2103, 11.70196
626.6924, 11.73485
627.1745, 11.85196
627.6566, 11.51006
628.1387, 10.64674
628.6208, 10.25785
629.1030, 10.95682
629.5851, 12.02180
630.0672, 12.31429
630.5493, 11.80554
631.0314, 11.43132
631.5135, 11.47051
631.9957, 11.54748
632.4778, 11.38223
632.9599, 11.07973
633.4420, 10.88382
633.9241, 10.88570
634.4063, 10.97596
634.8884, 11.00329
635.3705, 10.95916
635.8526, 10.91560
636.3347, 10.78227
636.8168, 10.78386
637.2990, 11.13358
637.7811, 11.58038
638.2632, 11.82719
638.7453, 11.80973
639.2274, 11.66179
639.7095, 11.33953
640.1917, 10.99803
640.6738, 10.96202
641.1559, 11.23999
641.6380, 11.53961
642.1201, 11.71747
642.6022, 11.79646
643.0844, 11.82614
643.5665, 11.78830
644.0486, 11.73369
644.5307, 11.63380
645.0128, 11.54492
645.4949, 11.50748
645.9771, 11.50287
646.4592, 11.49706
646.9413, 11.47596
647.4234, 11.42911
647.9055, 11.29455
648.3876, 11.07728
648.8698, 11.05410
649.3519, 11.32297
649.8340, 11.61363
650.3161, 11.77702
650.7982, 11.84237
651.2803, 11.84733
651.7625, 11.74209
652.2446, 11.71220
652.7267, 11.92534
653.2088, 12.19074
653.6909, 12.29883
654.1730, 12.24527
654.6552, 12.13033
655.1373, 12.01526
655.6194, 11.87810
656.1015, 11.62414
656.5836, 11.09831
657.0657, 10.85975
657.5479, 11.21602
658.0300, 11.60470
658.5121, 11.80536
658.9942, 11.86075
659.4763, 11.86436
659.9584, 11.82580
660.4406, 11.81550
660.9227, 11.94762
661.4048, 12.15143
661.8869, 12.23294
662.3690, 12.16214
662.8511, 12.05105
663.3333, 11.97641
663.8154, 11.92447
664.2975, 11.83823
664.7796, 11.69695
665.2617, 11.54970
665.7438, 11.32776
666.2260, 11.15959
666.7081, 11.15777
667.1902, 11.28358
667.6723, 11.42084
668.1544, 11.50868
668.6365, 11.58743
669.1187, 11.76741
669.6008, 12.03753
670.0829, 12.11106
670.5650, 11.87788
671.0471, 11.62994
671.5292, 11.58389
672.0114, 11.69734
672.4935, 11.80163
672.9756, 11.89869
673.4577, 11.97857
673.9398, 12.08484
674.4219, 12.13954
674.9041, 11.99060
675.3862, 11.70019
675.8683, 11.53553
676.3504, 11.67499
676.8325, 11.97104
677.3146, 12.07076
677.7968, 11.93824
678.2789, 11.77410
678.7610, 11.51279
679.2431, 11.33367
679.7252, 11.37083
680.2073, 11.55417
680.6895, 11.76509
681.1716, 12.03871
681.6537, 12.19200
682.1358, 12.06517
682.6179, 11.78000
683.1000, 11.42519
683.5822, 11.05750
684.0643, 10.90323
684.5464, 11.13651
685.0285, 11.59953
685.5106, 11.83011
685.9927, 11.69137
686.4749, 11.64093
686.9570, 11.71684
687.4391, 11.86365
687.9212, 12.16213
688.4033, 12.49144
688.8854, 12.62615
689.3676, 12.46860
689.8497, 12.22074
690.3318, 12.05122
690.8139, 11.91563
691.2960, 11.66224
691.7781, 11.28573
692.2603, 11.07324
692.7424, 11.22493
693.2245, 11.60769
693.7066, 11.87712
694.1887, 12.00250
694.6708, 12.06892
695.1530, 12.01355
695.6351, 11.96799
696.1172, 12.05375
696.5993, 12.17675
697.0814, 12.14631
697.5635, 11.88869
698.0457, 11.61013
698.5278, 11.51563
699.0099, 11.56740
699.4920, 11.68018
699.9741, 11.85583
700.4562, 11.91807
700.9384, 11.71102
701.4205, 11.41623
701.9026, 11.44732
702.3847, 12.02339
702.8668, 12.33086
703.3489, 12.15843
703.8311, 11.92456
704.3132, 11.86239
704.7953, 11.86792
705.2774, 11.69035
705.7595, 11.27129
706.2416, 10.93663
706.7238, 11.14936
707.2059, 11.75982
707.6880, 12.08887
708.1701, 12.09535
708.6522, 12.05291
709.1343, 12.06593
709.6164, 12.09923
710.0985, 12.08788
710.5806, 12.01839
711.0627, 12.00378
711.5449, 12.08432
712.0270, 12.18574
712.5091, 12.29099
712.9912, 12.38700
713.4733, 12.48411
713.9554, 12.57182
714.4376, 12.56827
714.9197, 12.34790
715.4018, 11.98843
715.8839, 11.78080
716.3660, 11.72884
716.8481, 11.82701
717.3303, 12.17051
717.8124, 12.53258
718.2945, 12.66370
718.7766, 12.57521
719.2587, 12.37336
719.7408, 11.86160
720.2230, 11.48001
720.7051, 11.47488
721.1872, 11.65145
721.6693, 11.77342
722.1514, 11.81804
722.6335, 11.93205
723.1157, 12.25402
723.5978, 12.67434
724.0799, 12.90761
724.5620, 12.95010
725.0441, 12.83811
725.5262, 12.49729
726.0084, 12.14672
726.4905, 11.94420
726.9726, 11.88075
727.4547, 11.93026
727.9368, 12.19532
728.4189, 12.41058
728.9011, 12.53533
729.3832, 12.54870
729.8653, 12.34966
730.3474, 12.01223
730.8295, 11.75946
731.3116, 11.71703
731.7938, 11.80091
732.2759, 11.86365
732.7580, 11.90396
733.2401, 12.04232
733.7222, 12.36555
734.2043, 12.57805
734.6865, 12.42222
735.1686, 12.07663
735.6507, 11.93992
736.1328, 12.06822
736.6149, 12.20948
737.0970, 12.35113
737.5792, 12.45409
738.0613, 12.49933
738.5434, 12.48403
739.0255, 12.37720
739.5076, 12.17613
739.9897, 11.99517
740.4719, 12.00070
740.9540, 12.15808
741.4361, 12.19373
741.9182, 12.06940
742.4003, 12.02766
742.8824, 12.21422
743.3646, 12.46005
743.8467, 12.52235
744.3288, 12.39995
744.8109, 12.32356
745.2930, 12.40240
745.7751, 12.42472
746.2573, 12.21869
746.7394, 11.95781
747.2215, 11.88499
747.7036, 12.00250
748.1857, 12.07910
748.6678, 11.89934
749.1500, 11.63339
749.6321, 11.74716
750.1142, 12.24029
750.5963, 12.47199
751.0784, 12.25008
751.5605, 11.93699
752.0427, 11.80208
752.5248, 11.82295
753.0069, 11.86689
753.4890, 11.99214
753.9711, 12.04841
754.4532, 11.93848
754.9354, 11.82268
755.4175, 11.86011
755.8996, 11.97975
756.3817, 11.96724
756.8638, 11.71991
757.3459, 11.49738
757.8281, 11.67649
758.3102, 12.14243
758.7923, 12.48194
759.2744, 12.67212
759.7565, 12.65969
760.2386, 12.34447
760.7208, 11.95035
761.2029, 11.88852
761.6850, 12.28847
762.1671, 12.49117
762.6492, 12.36009
763.1313, 12.21064
763.6135, 12.11022
764.0956, 12.06101
764.5777, 12.06519
765.0598, 12.11940
765.5419, 12.20551
766.0240, 12.33891
766.5062, 12.47335
766.9883, 12.51376
767.4704, 12.49199
767.9525, 12.57630
768.4346, 12.81334
768.9167, 12.98166
769.3989, 12.86022
769.8810, 12.51161
770.3631, 12.32373
770.8452, 12.35237
771.3273, 12.44268
771.8094, 12.67829
772.2916, 12.87773
772.7737, 12.93276
773.2558, 12.87998
773.7379, 12.78228
774.2200, 12.62826
774.7021, 12.55463
775.1843, 12.76954
775.6664, 13.04929
776.1485, 13.02924
776.6306, 12.76606
777.1127, 12.60004
777.5948, 12.68403
778.0770, 12.87781
778.5591, 12.97423
779.0412, 12.96896
779.5233, 12.97104
780.0054, 13.01639
780.4875, 12.99026
780.9697, 12.74781
781.4518, 12.50035
781.9339, 12.50063
782.4160, 12.72395
782.8981, 12.85097
783.3802, 12.71236
783.8624, 12.56619
784.3445, 12.54127
784.8266, 12.58627
785.3087, 12.64268
785.7908, 12.69846
786.2729, 12.77654
786.7551, 12.90768
787.2372, 13.00727
787.7193, 12.83086
788.2014, 12.38450
788.6835, 12.16426
789.1656, 12.25556
789.6478, 12.47597
790.1299, 12.79358
790.6120, 13.11824
791.0941, 13.21070
791.5762, 12.98447
792.0583, 12.80004
792.5404, 12.67222
793.0225, 12.59468
793.5046, 12.62359
793.9868, 12.67177
794.4689, 12.58731
794.9510, 12.35973
795.4331, 12.19031
795.9152, 12.28341
796.3973, 12.49065
796.8795, 12.53473
797.3616, 12.46103
797.8437, 12.50619
798.3258, 12.73218
798.8079, 13.01051
799.2900, 13.25190
799.7722, 13.43398
800.2543, 13.41139
800.7364, 13.03660
801.2185, 12.75892
801.7006, 12.58024
802.1827, 12.54144
802.6649, 12.82691
803.1470, 13.22406
803.6291, 13.29927
804.1112, 12.89256
804.5933, 12.56948
805.0754, 12.68352
805.5576, 12.96047
806.0397, 13.15602
806.5218, 13.28002
807.0039, 13.44046
807.4860, 13.66146
807.9681, 13.77917
808.4503, 13.56870
808.9324, 13.10904
809.4145, 12.83009
809.8966, 12.75011
810.3787, 12.74499
810.8608, 12.83347
811.3430, 12.89359
811.8251, 12.73408
812.3072, 12.42466
812.7893, 12.43536
813.2714, 13.13419
813.7535, 13.59876
814.2357, 13.54966
814.7178, 13.36357
815.1999, 13.27701
815.6820, 13.26007
816.1641, 13.17314
816.6462, 12.96482
817.1284, 12.82111
817.6105, 12.97003
818.0926, 13.27725
818.5747, 13.54078
819.0568, 13.73170
819.5389, 13.69805
820.0211, 13.37457
820.5032, 12.98974
820.9853, 12.79300
821.4674, 12.78026
821.9495, 12.90283
822.4316, 13.25264
822.9138, 13.54237
823.3959, 13.79999
823.8780, 13.90106
824.3601, 13.63091
824.8422, 13.15389
825.3243, 12.91731
825.8065, 13.09982
826.2886, 13.27167
826.7707, 13.21727
827.2528, 13.12607
827.7349, 13.15566
828.2170, 13.28804
828.6992, 13.49234
829.1813, 13.74572
829.6634, 13.91188
830.1455, 13.81032
830.6276, 13.51191
831.1097, 13.22056
831.5919, 12.93918
832.0740, 12.77215
832.5561, 12.75886
833.0382, 12.83699
833.5203, 12.96986
834.0024, 13.14139
834.4846, 13.23075
834.9667, 13.14423
835.4488, 13.12848
835.9309, 13.26720
836.4130, 13.40034
836.8951, 13.43324
837.3773, 13.40729
837.8594, 13.40075
838.3415, 13.43135
838.8236, 13.47371
839.3057, 13.54973
839.7878, 13.60217
840.2700, 13.57074
840.7521, 13.47329
841.2342, 13.32975
841.7163, 13.15762
842.1984, 13.02662
842.6805, 13.01534
843.1627, 13.07557
843.6448, 13.04064
844.1269, 12.90567
844.6090, 12.85650
845.0911, 12.92546
845.5732, 13.09677
846.0554, 13.42742
846.5375, 13.80863
847.0196, 13.91002
847.5017, 13.53620
847.9838, 13.32702
848.4659, 13.42914
848.9481, 13.51871
849.4302, 13.44026
849.9123, 13.29984
850.3944, 13.22807
850.8765, 13.24039
851.3586, 13.27001
851.8408, 13.31741
852.3229, 13.33489
852.8050, 13.26080
853.2871, 13.13768
853.7692, 13.03674
854.2513, 12.96670
854.7335, 12.88588
855.2156, 12.76239
855.6977, 12.66099
856.1798, 12.75745
856.6619, 13.04012
857.1440, 13.09811
857.6262, 12.86098
858.1083, 12.66346
858.5904, 12.64480
859.0725, 12.74969
859.5546, 12.93659
860.0367, 13.22544
860.5189, 13.35434
861.0010, 13.31921
861.4831, 13.13600
861.9652, 12.53081
862.4473, 12.01570
862.9294, 12.06389
863.4116, 12.52249
863.8937, 12.92669
864.3758, 13.17440
864.8579, 13.21703
865.3400, 12.86537
865.8221, 12.40939
866.3043, 12.10867
866.7864, 11.99829
867.2685, 12.18795
867.7506, 12.67902
868.2327, 13.11032
868.7148, 13.04999
869.1970, 12.66830
869.6791, 12.60101
870.1612, 12.84832
870.6433, 12.78434
871.1254, 12.19449
871.6075, 11.67859
872.0897, 11.72997
872.5718, 12.17257
873.0539, 12.44234
873.5360, 12.49762
874.0181, 12.47515
874.5002, 12.30114
874.9823, 12.13397
875.4644, 11.97542
875.9465, 11.88022
876.4286, 11.96367
876.9108, 12.21607
877.3929, 12.35453
877.8750, 12.13192
878.3571, 11.94613
878.8392, 12.04394
879.3214, 12.28432
879.8035, 12.61011
880.2856, 12.91608
880.7677, 12.92376
881.2498, 12.47303
881.7319, 11.91222
882.2141, 11.65034
882.6962, 11.63005
883.1783, 11.70477
883.6604, 11.86178
884.1425, 12.08438
884.6246, 12.38176
885.1068, 12.58339
885.5889, 12.48998
886.0710, 12.13329
886.5531, 11.73031
887.0352, 11.18063
887.5173, 10.88547
887.9995, 10.98774
888.4816, 11.22368
888.9637, 11.55359
889.4458, 11.86879
889.9279, 11.93069
890.4100, 11.66912
890.8922, 11.42710
891.3743, 11.18493
891.8564, 11.05015
892.3385, 11.18661
892.8206, 11.38415
893.3027, 11.35896
893.7849, 11.13537
894.2670, 11.00715
894.7491, 11.16714
895.2312, 11.37196
895.7133, 11.43900
896.1954, 11.38209
896.6776, 11.17778
897.1597, 10.86372
897.6418, 10.54110
898.1239, 10.25769
898.6060, 10.08318
899.0881, 10.14194
899.5703, 10.38215
900.0524, 10.52672
900.5345, 10.57015
901.0166, 10.62918
901.4987, 10.74681
901.9808, 10.81483
902.4630, 10.71485
902.9451, 10.52105
903.4272, 10.50626
903.9093, 10.80758
904.3914, 10.97029
904.8735, 10.98581
905.3557, 10.86879
905.8378, 10.46383
906.3199, 10.03613
906.8020, 9.902477
907.2841, 10.06339
907.7662, 10.23025
908.2484, 10.35387
908.7305, 10.44649
909.2126, 10.54199
909.6947, 10.58388
910.1768, 10.45797
910.6589, 10.24244
911.1411, 10.12875
911.6232, 10.18979
912.1053, 10.32409
912.5874, 10.49369
913.0695, 10.65151
913.5516, 10.72773
914.0338, 10.72805
914.5159, 10.69861
914.9980, 10.64022
915.4801, 10.42704
915.9622, 9.920442
916.4443, 9.320138
916.9265, 9.132377
917.4086, 9.355875
917.8907, 9.541209
918.3728, 9.645242
918.8549, 9.804943
919.3370, 10.13479
919.8192, 10.43317
920.3013, 10.38392
920.7834, 9.973022
921.2655, 9.785611
921.7476, 9.976313
922.2297, 10.12327
922.7119, 10.16025
923.1940, 10.14623
923.6761, 10.06055
924.1582, 9.961005
924.6403, 9.993249
925.1224, 10.22753
925.6046, 10.33319
926.0867, 10.11109
926.5688, 9.873191
927.0509, 9.767233
927.5330, 9.748593
928.0151, 9.791976
928.4973, 9.865907
928.9794, 9.889972
929.4615, 9.821559
929.9436, 9.701093
930.4257, 9.479213
930.9078, 9.276969
931.3900, 9.317302
931.8721, 9.541654
932.3542, 9.729639
932.8363, 9.806020
933.3184, 9.846085
933.8005, 9.914102
934.2827, 10.01123
934.7648, 10.20243
935.2469, 10.45769
935.7290, 10.44151
936.2111, 10.08915
936.6932, 9.713436
937.1754, 9.481243
937.6575, 9.390629
938.1396, 9.466898
938.6217, 9.734125
939.1038, 9.851629
939.5859, 9.748423
940.0681, 9.692153
940.5502, 9.803455
941.0323, 9.905744
941.5144, 9.807696
941.9965, 9.575413
942.4786, 9.497945
942.9608, 9.688784
943.4429, 9.791988
943.9250, 9.767449
944.4071, 9.684072
944.8892, 9.545092
945.3713, 9.377830
945.8535, 9.152592
946.3356, 8.902720
946.8177, 8.845713
947.2998, 9.176361
947.7819, 9.521420
948.2640, 9.775485
948.7462, 9.899194
949.2283, 9.774389
949.7104, 9.510433
950.1925, 9.319583
950.6746, 9.265928
951.1567, 9.279587
951.6389, 9.324819
952.1210, 9.390881
952.6031, 9.475629
953.0852, 9.567464
953.5673, 9.659324
954.0494, 9.737263
954.5316, 9.743723
955.0137, 9.646425
955.4958, 9.491642
955.9779, 9.332143
956.4600, 9.172132
956.9421, 9.045338
957.4242, 8.948545
957.9063, 8.759679
958.3884, 8.422984
958.8705, 8.289327
959.3527, 8.697643
959.8348, 9.404248
960.3169, 9.639279
960.7990, 9.268482
961.2811, 9.196533
961.7632, 9.607652
962.2454, 9.822204
962.7275, 9.454955
963.2096, 8.979800
963.6917, 8.949793
964.1738, 9.314403
964.6559, 9.508451
965.1381, 9.377741
965.6202, 9.324955
966.1023, 9.413228
966.5844, 9.520999
967.0665, 9.607294
967.5486, 9.676694
968.0308, 9.735357
968.5129, 9.784051
968.9950, 9.826169
969.4771, 9.927906
969.9592, 9.935934
970.4413, 9.757159
970.9235, 9.501559
971.4056, 9.173270
971.8877, 8.863429
972.3698, 8.753611
972.8519, 8.893395
973.3340, 9.053263
973.8162, 9.087008
974.2983, 9.105783
974.7804, 9.224389
975.2625, 9.371199
975.7446, 9.477922
976.2267, 9.510747
976.7089, 9.367532
977.1910, 8.986736
977.6731, 8.676840
978.1552, 8.872578
978.6373, 9.284002
979.1194, 9.362830
979.6016, 9.218171
980.0837, 9.247867
980.5658, 9.516721
981.0479, 9.800788
981.5300, 9.959891
982.0121, 9.974712
982.4943, 9.734542
982.9764, 9.302737
983.4585, 9.046529
983.9406, 8.974258
984.4227, 8.894026
984.9048, 8.733868
985.3870, 8.747481
985.8691, 9.233985
986.3512, 9.947213
986.8333, 10.00026
987.3154, 9.278529
987.7975, 8.851106
988.2797, 8.820560
988.7618, 8.890056
989.2439, 8.963077
989.7260, 9.050487
990.2081, 9.187549
990.6902, 9.355310
991.1724, 9.360090
991.6545, 9.063297
992.1366, 8.933090
992.6187, 9.117063
993.1008, 9.293133
993.5829, 9.340088
994.0651, 9.280339
994.5472, 9.093551
995.0293, 8.775421
995.5114, 8.606739
995.9935, 8.690473
996.4756, 8.777895
996.9578, 8.816836
997.4399, 8.873181
997.9220, 9.037508
998.4041, 9.218916
998.8862, 9.268921
999.3683, 9.169329
999.8505, 9.034897
1000.333, 8.739934
1000.815, 8.617496
1001.297, 9.030822
1001.779, 9.451962
1002.261, 9.328504
1002.743, 8.905963
1003.225, 8.775417
1003.707, 9.085837
1004.190, 9.325606
1004.672, 9.003492
1005.154, 8.793830
1005.636, 9.479670
1006.118, 10.29875
1006.600, 10.19285
1007.082, 9.394394
1007.564, 8.814312
1008.046, 8.783342
1008.529, 8.996408
1009.011, 9.426617
1009.493, 9.788816
1009.975, 9.601470
1010.457, 9.190265
1010.939, 9.242994
1011.421, 9.702560
1011.903, 9.896397
1012.385, 9.488992
1012.868, 8.972959
1013.350, 8.942933
1013.832, 9.139307
1014.314, 9.059875
1014.796, 8.789432
1015.278, 8.575443
1015.760, 8.470714
1016.242, 8.460056
1016.725, 8.535751
1017.207, 8.681678
1017.689, 8.948652
1018.171, 9.257856
1018.653, 9.229523
1019.135, 8.934018
1019.617, 8.960690
1020.099, 9.420385
1020.581, 9.671505
1021.064, 9.236173
1021.546, 8.558578
1022.028, 8.571066
1022.510, 9.185229
1022.992, 9.249163
1023.474, 8.743475
1023.956, 8.557541
1024.438, 8.956681
1024.921, 9.286483
1025.403, 9.028356
1025.885, 8.442526
1026.367, 8.086422
1026.849, 7.952221
1027.331, 8.319769
1027.813, 9.360416
1028.295, 9.864264
1028.777, 9.359528
1029.260, 8.755866
1029.742, 8.830109
1030.224, 9.294545
1030.706, 9.306333
1031.188, 8.740886
1031.670, 8.384434
1032.152, 8.245996
1032.634, 8.296864
1033.116, 8.576702
1033.599, 8.972836
1034.081, 9.497375
1034.563, 10.00298
1035.045, 9.973522
1035.527, 9.123194
1036.009, 8.752839
1036.491, 9.148746
1036.973, 9.483259
1037.456, 9.578486
1037.938, 9.464831
1038.420, 9.005953
1038.902, 8.386640
1039.384, 8.274379
1039.866, 8.978105
1040.348, 9.317425
1040.830, 8.961775
1041.313, 8.714201
1041.795, 8.900324
1042.277, 9.161558
1042.759, 9.210390
1043.241, 9.102361
1043.723, 9.007211
1044.205, 8.931632
1044.687, 8.856617
1045.169, 8.714248
1045.651, 8.660418
1046.134, 8.848782
1046.616, 9.046375
1047.098, 9.060594
1047.580, 8.928826
1048.062, 8.756193
1048.544, 8.495180
1049.026, 8.389939
1049.508, 8.640990
1049.991, 8.834771
1050.473, 8.693772
1050.955, 8.563065
1051.437, 8.856671
1051.919, 9.380773
1052.401, 9.575830
1052.883, 9.299827
1053.365, 8.983788
1053.848, 8.530584
1054.330, 8.291917
1054.812, 8.690129
1055.294, 9.107869
1055.776, 8.860730
1056.258, 8.230852
1056.740, 8.036404
1057.222, 8.512953
1057.704, 8.808003
1058.187, 8.485645
1058.669, 8.185018
1059.151, 8.198792
1059.633, 8.330474
1060.115, 8.409520
1060.597, 8.459651
1061.079, 8.579114
1061.561, 8.794897
1062.043, 8.991557
1062.526, 9.201768
1063.008, 9.293577
1063.490, 9.191833
1063.972, 8.961318
1064.454, 8.564737
1064.936, 8.115969
1065.418, 7.792267
1065.900, 7.628242
1066.383, 7.686957
1066.865, 8.191044
1067.347, 8.667212
1067.829, 8.955737
1068.311, 9.068032
1068.793, 8.868827
1069.275, 8.557698
1069.757, 8.557969
1070.240, 8.928771
1070.722, 9.106754
1071.204, 8.622854
1071.686, 8.203157
1072.168, 8.275412
1072.650, 8.465680
1073.132, 8.430196
1073.614, 8.302357
1074.096, 8.407149
1074.578, 8.761878
1075.061, 8.960340
1075.543, 8.711675
1076.025, 8.471838
1076.507, 8.498476
1076.989, 8.581956
1077.471, 8.572392
1077.953, 8.498913
1078.435, 8.409310
1078.918, 8.319850
1079.400, 8.262259
1079.882, 8.261155
1080.364, 8.266219
1080.846, 8.203828
1081.328, 8.190475
1081.810, 8.422851
1082.292, 8.688905
1082.774, 8.616791
1083.257, 8.267765
1083.739, 8.134497
1084.221, 8.464157
1084.703, 8.775896
1085.185, 8.886106
1085.667, 8.864785
1086.149, 8.654888
1086.631, 8.412721
1087.114, 8.339612
1087.596, 8.400126
1088.078, 8.404929
1088.560, 8.292927
1089.042, 8.155798
1089.524, 7.923647
1090.006, 7.804121
1090.488, 8.052524
1090.970, 8.361799
1091.453, 8.355549
1091.935, 8.154528
1092.417, 8.159417
1092.899, 8.489130
1093.381, 8.732127
1093.863, 8.680745
1094.345, 8.580583
1094.827, 8.491668
1095.309, 8.449023
1095.792, 8.524479
1096.274, 8.649813
1096.756, 8.697749
1097.238, 8.646089
1097.720, 8.560474
1098.202, 8.480649
1098.684, 8.343267
1099.166, 8.002689
1099.649, 7.723737
1100.131, 7.747702
1100.613, 7.921450
1101.095, 8.030213
1101.577, 8.046198
1102.059, 7.985954
1102.541, 7.720232
1103.023, 7.596685
1103.505, 7.864962
1103.988, 8.102187
1104.470, 8.039548
1104.952, 7.852006
1105.434, 7.710195
1105.916, 7.636358
1106.398, 7.667419
1106.880, 7.897649
1107.362, 8.021109
1107.844, 7.816025
1108.327, 7.719252
1108.809, 8.010289
1109.291, 8.379113
1109.773, 8.623256
1110.255, 8.708140
1110.737, 8.525757
1111.219, 7.952857
1111.701, 7.564317
1112.184, 7.405989
1112.666, 7.429938
1113.148, 7.812463
1113.630, 8.184883
1114.112, 8.305019
1114.594, 8.250787
1115.076, 8.140398
1115.558, 7.959132
1116.041, 7.874855
1116.523, 7.973386
1117.005, 8.020967
1117.487, 7.945058
1117.969, 7.886796
1118.451, 7.952552
1118.933, 8.031170
1119.415, 7.932458
1119.897, 7.691041
1120.380, 7.704984
1120.862, 8.108228
1121.344, 8.449096
1121.826, 8.772754
1122.308, 8.890638
1122.790, 8.651999
1123.272, 8.330097
1123.754, 8.180750
1124.236, 8.155913
1124.719, 8.080313
1125.201, 7.915980
1125.683, 7.914967
1126.165, 8.122649
1126.647, 8.329732
1127.129, 8.504136
1127.611, 8.605735
1128.093, 8.601330
1128.576, 8.518122
1129.058, 8.405463
1129.540, 8.263338
1130.022, 8.021204
1130.504, 7.647621
1130.986, 7.624434
1131.468, 8.064478
1131.950, 8.425961
1132.432, 8.444621
1132.915, 8.290601
1133.397, 8.157142
1133.879, 8.035308
1134.361, 7.851069
1134.843, 7.624291
1135.325, 7.653633
1135.807, 7.943202
1136.289, 8.176754
1136.771, 8.252394
1137.254, 8.270917
1137.736, 8.320020
1138.218, 8.330975
1138.700, 8.078094
1139.182, 7.703123
1139.664, 7.767057
1140.146, 8.160315
1140.628, 8.363625
1141.111, 8.293087
1141.593, 8.144697
1142.075, 8.019992
1142.557, 7.910563
1143.039, 7.805215
1143.521, 7.709546
1144.003, 7.708478
1144.485, 7.691244
1144.968, 7.261298
1145.450, 6.605217
1145.932, 6.423985
1146.414, 6.905948
1146.896, 7.574231
1147.378, 8.227357
1147.860, 8.653432
1148.342, 8.494173
1148.824, 8.123995
1149.307, 7.916219
1149.789, 7.860454
1150.271, 7.915103
1150.753, 8.042044
1151.235, 8.156734
1151.717, 8.231736
1152.199, 8.256934
1152.681, 8.236502
1153.163, 8.153380
1153.646, 7.874899
1154.128, 7.627221
1154.610, 7.699473
1155.092, 7.981016
1155.574, 8.217897
1156.056, 8.365553
1156.538, 8.324279
1157.020, 7.816582
1157.503, 7.474609
1157.985, 7.639383
1158.467, 7.843678
1158.949, 7.785714
1159.431, 7.616963
1159.913, 7.564795
1160.395, 7.614460
1160.877, 7.557493
1161.359, 7.223329
1161.842, 7.106370
1162.324, 7.385742
1162.806, 7.615056
1163.288, 7.662340
1163.770, 7.640464
1164.252, 7.644049
1164.734, 7.625864
1165.216, 7.439395
1165.698, 7.048056
1166.181, 7.011842
1166.663, 7.434370
1167.145, 7.854810
1167.627, 8.266689
1168.109, 8.441010
1168.591, 8.211082
1169.073, 7.893820
1169.555, 7.855967
1170.037, 8.031560
1170.520, 8.197707
1171.002, 8.352605
1171.484, 8.452924
1171.966, 8.495157
1172.448, 8.408471
1172.930, 8.176654
1173.412, 7.962942
1173.894, 7.873871
1174.377, 7.885114
1174.859, 8.015641
1175.341, 8.193783
1175.823, 8.191700
1176.305, 8.073666
1176.787, 8.017177
1177.269, 8.044622
1177.751, 8.203032
1178.234, 8.473948
1178.716, 8.497911
1179.198, 7.891294
1179.680, 7.150496
1180.162, 6.678162
1180.644, 6.504277
1181.126, 6.817719
1181.608, 7.380214
1182.090, 7.822229
1182.573, 8.084270
1183.055, 8.246448
1183.537, 8.332363
1184.019, 8.355733
1184.501, 8.187597
1184.983, 8.129630
1185.465, 8.603882
1185.947, 9.020934
1186.429, 8.684459
1186.912, 8.005886
1187.394, 7.811077
1187.876, 8.163119
1188.358, 8.380513
1188.840, 8.275164
1189.322, 8.157819
1189.804, 7.990905
1190.286, 7.907646
1190.769, 8.008726
1191.251, 8.151459
1191.733, 8.229951
1192.215, 8.251026
1192.697, 8.218303
1193.179, 8.113489
1193.661, 8.131699
1194.143, 8.335888
1194.625, 8.409550
1195.108, 8.268564
1195.590, 8.162948
1196.072, 8.229240
1196.554, 8.301086
1197.036, 8.163351
1197.518, 7.926541
1198.000, 8.002901
1198.482, 8.333572
1198.964, 8.347374
1199.447, 8.062617
1199.929, 7.810859
1200.411, 7.679945
1200.893, 7.730865
1201.375, 8.007150
1201.857, 8.248883
1202.339, 8.093039
1202.821, 7.767786
1203.304, 7.625262
1203.786, 7.595861
1204.268, 7.533902
1204.750, 7.478867
1205.232, 7.578349
1205.714, 7.850100
1206.196, 8.182423
1206.678, 8.584062
1207.161, 8.821630
1207.643, 8.634686
1208.125, 8.362885
1208.607, 8.202872
1209.089, 8.113715
1209.571, 8.036634
1210.053, 7.986272
1210.535, 8.044924
1211.017, 8.236516
1211.500, 8.275962
1211.982, 7.929138
1212.464, 7.726356
1212.946, 7.880193
1213.428, 7.999523
1213.910, 7.913999
1214.392, 7.762732
1214.874, 7.663289
1215.356, 7.608720
1215.839, 7.561759
1216.321, 7.501786
1216.803, 7.700607
1217.285, 8.230778
1217.767, 8.511257
1218.249, 8.422840
1218.731, 8.285181
1219.213, 8.247869
1219.696, 8.249374
1220.178, 8.222371
1220.660, 8.186074
1221.142, 8.185685
1221.624, 8.213592
1222.106, 8.250650
1222.588, 8.291595
1223.070, 8.340690
1223.552, 8.383922
1224.035, 8.339594
1224.517, 8.168900
1224.999, 8.022022
1225.481, 8.084989
1225.963, 8.160648
1226.445, 7.958124
1226.927, 7.774294
1227.409, 8.037826
1227.891, 8.489476
1228.374, 8.690973
1228.856, 8.606660
1229.338, 8.438723
1229.820, 8.207704
1230.302, 7.997186
1230.784, 7.777968
1231.266, 7.648803
1231.748, 7.633661
1232.231, 7.731975
1232.713, 8.065554
1233.195, 8.403021
1233.677, 8.366891
1234.159, 8.015229
1234.641, 7.879051
1235.123, 8.014133
1235.605, 8.096998
1236.088, 8.107636
1236.570, 8.150266
1237.052, 8.266118
1237.534, 8.238895
1238.016, 7.900695
1238.498, 7.581872
1238.980, 7.813447
1239.462, 8.350761
1239.944, 8.543850
1240.427, 8.486403
1240.909, 8.445624
1241.391, 8.424857
1241.873, 8.326111
1242.355, 8.142603
1242.837, 7.966216
1243.319, 7.834517
1243.801, 7.795802
1244.283, 7.967769
1244.766, 8.150147
1245.248, 8.175439
1245.730, 8.149291
1246.212, 8.175824
1246.694, 8.232133
1247.176, 8.320726
1247.658, 8.410856
1248.140, 8.243619
1248.622, 7.509600
1249.105, 7.095202
1249.587, 7.153976
1250.069, 7.382423
1250.551, 7.863777
1251.033, 8.220814
1251.515, 8.149344
1251.997, 7.949006
1252.479, 8.097003
1252.962, 8.501848
1253.444, 8.630936
1253.926, 8.489809
1254.408, 8.345245
1254.890, 8.212910
1255.372, 8.055169
1255.854, 7.876099
1256.336, 7.814894
1256.818, 7.953288
1257.301, 8.199834
1257.783, 8.540756
1258.265, 8.831305
1258.747, 8.851693
1259.229, 8.709604
1259.711, 8.470356
1260.193, 8.226968
1260.675, 8.101599
1261.157, 8.115927
1261.640, 8.293032
1262.122, 8.722311
1262.604, 8.899739
1263.086, 8.399080
1263.568, 8.002738
1264.050, 8.025021
1264.532, 8.151114
1265.014, 8.222551
1265.497, 8.274915
1265.979, 8.376909
1266.461, 8.486489
1266.943, 8.394555
1267.425, 8.047231
1267.907, 7.948768
1268.389, 8.136588
1268.871, 8.116474
1269.354, 7.796289
1269.836, 7.584974
1270.318, 7.669290
1270.800, 7.861481
1271.282, 7.992209
1271.764, 8.081346
1272.246, 8.171741
1272.728, 8.235976
1273.210, 8.166279
1273.693, 8.064711
1274.175, 8.141735
1274.657, 8.369727
1275.139, 8.652655
1275.621, 8.945372
1276.103, 8.915221
1276.585, 8.049720
1277.067, 7.461815
1277.549, 7.684770
1278.032, 8.054610
1278.514, 8.388264
1278.996, 8.598193
1279.478, 8.583841
1279.960, 8.424639
1280.442, 8.239526
1280.924, 8.035724
1281.406, 8.093698
1281.889, 8.469284
1282.371, 8.668051
1282.853, 8.649411
1283.335, 8.565597
1283.817, 8.460481
1284.299, 8.358701
1284.781, 8.273622
1285.263, 8.238124
1285.745, 8.285360
1286.228, 8.415585
##END=



