##NAMES=Covellite
##RRUFFID=R060306
##IDEAL CHEMISTRY=Cu^1+^S
##LOCALITY=3800' level, Leonard mine, Butte, Silver Bow County, Montana, USA
##OWNER=RRUFF
##SOURCE=Michael Scott
##DESCRIPTION=Blue iridescent metallic hexagonal plates
##STATUS=The identification of this mineral has been confirmed by X-ray diffraction and chemical analysis
##URL=rruff.info/R060306
##MEASURED CHEMISTRY=Cu_1.00_S_1.00_
91.53320, 330.1159
92.01532, 334.9593
92.49744, 336.2482
92.97955, 338.8996
93.46167, 337.5288
93.94379, 328.1087
94.42590, 310.7147
94.90802, 291.1797
95.39014, 274.4368
95.87225, 260.1942
96.35437, 249.1593
96.83649, 241.8446
97.31860, 237.2291
97.80072, 234.8222
98.28284, 234.7760
98.76495, 236.1143
99.24707, 235.0537
99.72919, 229.8377
100.2113, 224.2540
100.6934, 218.6350
101.1755, 213.3000
101.6577, 208.5794
102.1398, 204.4013
102.6219, 199.9958
103.1040, 200.2960
103.5861, 206.1824
104.0682, 214.4781
104.5504, 225.8267
105.0325, 239.3626
105.5146, 250.8532
105.9967, 253.8716
106.4788, 245.0878
106.9609, 235.5879
107.4431, 224.0808
107.9252, 212.6189
108.4073, 204.4382
108.8894, 201.1076
109.3715, 200.2292
109.8536, 197.6070
110.3358, 193.0014
110.8179, 188.1843
111.3000, 183.4836
111.7821, 179.0256
112.2642, 176.2144
112.7463, 176.9931
113.2285, 178.9166
113.7106, 179.7984
114.1927, 179.4063
114.6748, 177.5505
115.1569, 173.3963
115.6390, 165.4849
116.1212, 158.9712
116.6033, 155.5541
117.0854, 153.9457
117.5675, 152.9926
118.0496, 152.1323
118.5317, 151.4743
119.0139, 151.5653
119.4960, 153.2353
119.9781, 154.8451
120.4602, 155.7186
120.9423, 156.3288
121.4244, 157.5959
121.9066, 160.3386
122.3887, 164.7403
122.8708, 168.0506
123.3529, 171.4615
123.8350, 173.1298
124.3171, 171.5611
124.7993, 166.9893
125.2814, 161.2259
125.7635, 155.7763
126.2456, 150.6001
126.7277, 146.8847
127.2098, 145.5441
127.6920, 145.2769
128.1741, 144.8463
128.6562, 144.0528
129.1383, 142.9150
129.6204, 141.6023
130.1025, 140.1593
130.5847, 137.8587
131.0668, 133.4579
131.5489, 127.7542
132.0310, 123.6052
132.5131, 122.1211
132.9952, 121.9274
133.4774, 121.8599
133.9595, 121.8789
134.4416, 121.7855
134.9237, 121.4239
135.4058, 120.7888
135.8879, 119.9084
136.3701, 118.6489
136.8522, 117.2336
137.3343, 115.6239
137.8164, 113.8286
138.2985, 112.1851
138.7806, 111.3625
139.2628, 112.1642
139.7449, 112.3118
140.2270, 111.2961
140.7091, 109.7840
141.1912, 108.3402
141.6733, 107.2257
142.1555, 106.3376
142.6376, 105.3430
143.1197, 104.5072
143.6018, 103.2459
144.0839, 100.8992
144.5660, 98.14478
145.0482, 96.14315
145.5303, 95.67597
146.0124, 96.45570
146.4945, 96.28210
146.9766, 94.41366
147.4587, 92.55205
147.9409, 91.39050
148.4230, 90.86176
148.9051, 90.58315
149.3872, 90.37796
149.8693, 90.21338
150.3514, 89.92688
150.8336, 89.26927
151.3157, 88.64043
151.7978, 88.52847
152.2799, 89.02625
152.7620, 89.43195
153.2441, 89.11008
153.7263, 88.33140
154.2084, 87.47812
154.6905, 86.57893
155.1726, 85.70745
155.6547, 85.05423
156.1368, 84.74761
156.6190, 84.43736
157.1011, 83.74210
157.5832, 82.89635
158.0653, 82.38424
158.5474, 82.81945
159.0295, 84.07081
159.5117, 84.34473
159.9938, 82.37239
160.4759, 80.62147
160.9580, 80.07365
161.4401, 80.51749
161.9222, 81.26701
162.4044, 81.76832
162.8865, 82.03093
163.3686, 81.96809
163.8507, 81.28371
164.3328, 80.55336
164.8149, 80.02654
165.2971, 79.71091
165.7792, 79.46989
166.2613, 79.12556
166.7434, 78.56967
167.2255, 78.25835
167.7076, 78.44194
168.1898, 78.66384
168.6719, 78.50809
169.1540, 77.92139
169.6361, 77.28848
170.1182, 77.17122
170.6003, 77.83457
171.0825, 78.38476
171.5646, 79.00843
172.0467, 79.41382
172.5288, 79.03022
173.0109, 77.58936
173.4930, 75.96974
173.9752, 75.93587
174.4573, 77.73769
174.9394, 78.95040
175.4215, 78.60400
175.9036, 77.16367
176.3857, 75.53069
176.8679, 73.66113
177.3500, 72.16252
177.8321, 71.87836
178.3142, 72.86594
178.7963, 74.05827
179.2784, 75.01674
179.7606, 75.72337
180.2427, 75.91592
180.7248, 75.09647
181.2069, 74.08867
181.6890, 73.64257
182.1711, 73.82570
182.6533, 74.20438
183.1354, 74.37521
183.6175, 74.31059
184.0996, 74.25774
184.5817, 74.34414
185.0638, 74.41370
185.5460, 74.36335
186.0281, 74.17248
186.5102, 73.90858
186.9923, 73.62428
187.4744, 73.22848
187.9565, 73.07337
188.4387, 73.77817
188.9208, 74.36672
189.4029, 73.82964
189.8850, 71.92879
190.3671, 69.63813
190.8492, 68.87925
191.3314, 70.97978
191.8135, 72.54391
192.2956, 73.33918
192.7777, 73.59150
193.2598, 73.38162
193.7419, 72.75776
194.2241, 71.91075
194.7062, 71.30103
195.1883, 71.08823
195.6704, 70.96082
196.1525, 71.09983
196.6346, 71.26128
197.1168, 71.09184
197.5989, 70.42346
198.0810, 69.48885
198.5631, 68.97375
199.0452, 69.12603
199.5273, 69.33198
200.0095, 69.54200
200.4916, 69.73894
200.9737, 69.92786
201.4558, 70.13952
201.9379, 70.28549
202.4200, 70.06139
202.9022, 69.21646
203.3843, 68.51623
203.8664, 68.33698
204.3485, 68.52534
204.8306, 68.63834
205.3127, 68.43001
205.7949, 68.10255
206.2770, 68.14306
206.7591, 68.78870
207.2412, 69.26952
207.7233, 68.92747
208.2054, 67.91518
208.6876, 67.19620
209.1697, 67.24854
209.6518, 67.75925
210.1339, 68.24413
210.6160, 68.72012
211.0981, 69.06699
211.5803, 69.13890
212.0624, 68.93545
212.5445, 68.71485
213.0266, 68.63390
213.5087, 68.52896
213.9908, 68.21317
214.4730, 67.63174
214.9551, 67.00108
215.4372, 66.46397
215.9193, 65.96513
216.4014, 65.89500
216.8836, 66.97765
217.3657, 68.19775
217.8478, 68.85390
218.3299, 68.76994
218.8120, 68.32890
219.2941, 68.08902
219.7763, 68.20621
220.2584, 67.99497
220.7405, 66.92500
221.2226, 65.75200
221.7047, 64.96432
222.1868, 64.69812
222.6690, 64.81020
223.1511, 65.13156
223.6332, 65.82671
224.1153, 66.35489
224.5974, 66.49310
225.0795, 66.57961
225.5617, 66.92565
226.0438, 67.59660
226.5259, 68.33715
227.0080, 68.67757
227.4901, 68.30720
227.9722, 68.08713
228.4544, 68.27952
228.9365, 68.47459
229.4186, 68.30563
229.9007, 67.68925
230.3828, 66.86058
230.8649, 66.20682
231.3471, 65.55983
231.8292, 65.43251
232.3113, 66.52174
232.7934, 67.68315
233.2755, 67.80682
233.7576, 66.63990
234.2398, 64.96305
234.7219, 64.07468
235.2040, 64.44142
235.6861, 64.87154
236.1682, 65.39912
236.6503, 65.96942
237.1325, 66.58145
237.6146, 67.22325
238.0967, 67.78312
238.5788, 68.06397
239.0609, 67.84617
239.5430, 67.86083
240.0252, 68.39449
240.5073, 69.04128
240.9894, 69.34475
241.4715, 69.19917
241.9536, 68.91624
242.4357, 68.90065
242.9179, 69.19433
243.4000, 69.59656
243.8821, 70.34139
244.3642, 71.07008
244.8463, 71.32298
245.3284, 70.99387
245.8106, 70.46842
246.2927, 70.13328
246.7748, 69.98152
247.2569, 70.07881
247.7390, 70.51402
248.2211, 71.17167
248.7033, 72.05283
249.1854, 73.21364
249.6675, 74.16781
250.1496, 74.23804
250.6317, 73.56475
251.1138, 73.05161
251.5960, 73.13240
252.0781, 73.36724
252.5602, 73.16133
253.0423, 72.42377
253.5244, 71.47395
254.0065, 70.33462
254.4887, 69.16184
254.9708, 68.48099
255.4529, 68.68164
255.9350, 69.34763
256.4171, 70.02338
256.8992, 70.76382
257.3813, 71.19995
257.8635, 70.78059
258.3456, 69.89026
258.8277, 69.13213
259.3098, 68.61873
259.7919, 68.36665
260.2740, 68.54933
260.7562, 69.31527
261.2383, 69.87199
261.7204, 69.62753
262.2025, 68.93105
262.6846, 68.09948
263.1667, 67.03239
263.6489, 66.10075
264.1310, 65.96529
264.6131, 66.83054
265.0952, 67.60159
265.5773, 67.79861
266.0594, 67.64412
266.5416, 67.27988
267.0237, 66.71398
267.5058, 66.02910
267.9879, 65.27035
268.4700, 64.38618
268.9521, 63.68060
269.4343, 63.44813
269.9164, 63.34092
270.3985, 63.08496
270.8806, 62.60395
271.3627, 62.07694
271.8448, 61.73821
272.3270, 61.62275
272.8091, 61.50462
273.2912, 61.29112
273.7733, 61.08379
274.2554, 61.03909
274.7375, 61.16526
275.2197, 61.15266
275.7018, 60.43888
276.1839, 58.81773
276.6660, 57.85598
277.1481, 58.45006
277.6302, 59.29985
278.1124, 59.84469
278.5945, 60.02195
279.0766, 60.00979
279.5587, 59.94286
280.0408, 59.81029
280.5229, 59.72209
281.0051, 59.70190
281.4872, 59.71620
281.9693, 59.81626
282.4514, 59.95652
282.9335, 60.00559
283.4156, 59.83135
283.8978, 59.42921
284.3799, 59.01442
284.8620, 58.34504
285.3441, 57.92785
285.8262, 58.06037
286.3083, 58.58265
286.7905, 59.18230
287.2726, 59.73165
287.7547, 60.17933
288.2368, 59.96175
288.7189, 58.21814
289.2010, 56.81769
289.6832, 56.32180
290.1653, 56.47126
290.6474, 56.89388
291.1295, 57.41772
291.6116, 57.98794
292.0938, 58.38636
292.5759, 58.65022
293.0580, 58.64684
293.5401, 58.15559
294.0222, 57.48812
294.5043, 56.96161
294.9865, 56.71388
295.4686, 56.71954
295.9507, 56.98123
296.4328, 57.89222
296.9149, 58.32731
297.3970, 57.73280
297.8792, 56.91158
298.3613, 56.63740
298.8434, 57.12099
299.3255, 57.88122
299.8076, 58.08767
300.2897, 57.42122
300.7719, 56.90918
301.2540, 56.55499
301.7361, 56.37370
302.2182, 56.42327
302.7003, 56.68817
303.1824, 57.05102
303.6646, 57.41738
304.1467, 57.86565
304.6288, 58.01168
305.1109, 57.48486
305.5930, 56.99752
306.0751, 57.04961
306.5573, 57.50634
307.0394, 57.77506
307.5215, 57.20211
308.0036, 55.67730
308.4857, 54.90266
308.9678, 55.71479
309.4500, 56.48522
309.9321, 56.76767
310.4142, 56.64862
310.8963, 56.36966
311.3784, 56.06439
311.8605, 55.75635
312.3427, 55.63668
312.8248, 55.87383
313.3069, 56.11839
313.7890, 56.39505
314.2711, 56.61642
314.7532, 56.69427
315.2354, 56.58702
315.7175, 56.28857
316.1996, 55.73925
316.6817, 54.52134
317.1638, 53.73491
317.6459, 53.61971
318.1281, 53.86702
318.6102, 54.29912
319.0923, 54.83349
319.5744, 55.32951
320.0565, 55.52840
320.5386, 55.26959
321.0208, 55.07665
321.5029, 55.10425
321.9850, 55.09369
322.4671, 54.82383
322.9492, 54.30456
323.4313, 53.75977
323.9135, 53.40551
324.3956, 53.23688
324.8777, 53.30076
325.3598, 53.83841
325.8419, 54.38517
326.3240, 54.81165
326.8062, 55.10000
327.2883, 55.26312
327.7704, 55.28968
328.2525, 55.19035
328.7346, 55.16341
329.2167, 55.44187
329.6989, 55.51727
330.1810, 54.99645
330.6631, 54.25760
331.1452, 53.92112
331.6273, 54.36768
332.1094, 55.27151
332.5916, 55.56561
333.0737, 54.70257
333.5558, 54.16358
334.0379, 54.38513
334.5200, 54.90015
335.0021, 55.30075
335.4843, 55.45195
335.9664, 55.44387
336.4485, 55.41101
336.9306, 55.35424
337.4127, 55.26766
337.8948, 55.24883
338.3770, 55.12776
338.8591, 54.64950
339.3412, 53.87465
339.8233, 53.23536
340.3055, 53.32576
340.7876, 54.26862
341.2697, 54.68793
341.7518, 54.13274
342.2339, 53.45390
342.7160, 52.74060
343.1982, 52.15575
343.6803, 52.04681
344.1624, 52.85255
344.6445, 54.29039
345.1266, 54.86547
345.6087, 53.96186
346.0909, 53.17624
346.5730, 53.11572
347.0551, 53.43064
347.5372, 53.70190
348.0193, 53.76831
348.5014, 53.69213
348.9836, 53.56244
349.4657, 53.34812
349.9478, 53.18762
350.4299, 53.39493
350.9120, 53.49819
351.3941, 52.92904
351.8763, 51.61055
352.3584, 50.41568
352.8405, 50.48012
353.3226, 51.85239
353.8047, 52.69308
354.2868, 52.33748
354.7690, 51.81966
355.2511, 51.77104
355.7332, 52.14050
356.2153, 52.61591
356.6974, 53.21524
357.1795, 53.79473
357.6617, 53.64524
358.1438, 52.30960
358.6259, 51.18976
359.1080, 51.35575
359.5901, 52.19584
360.0722, 52.72363
360.5544, 52.42854
361.0365, 51.85563
361.5186, 51.90985
362.0007, 52.71251
362.4828, 53.16182
362.9649, 52.47676
363.4471, 51.38344
363.9292, 50.73832
364.4113, 50.70697
364.8934, 50.75860
365.3755, 50.30173
365.8576, 49.49527
366.3398, 49.30851
366.8219, 50.28129
367.3040, 51.46748
367.7861, 51.83765
368.2682, 51.46886
368.7503, 51.02137
369.2325, 50.79440
369.7146, 50.64320
370.1967, 50.25515
370.6788, 49.55244
371.1609, 48.92918
371.6430, 48.76227
372.1252, 48.93055
372.6073, 49.02717
373.0894, 48.85490
373.5715, 48.71012
374.0536, 48.89756
374.5357, 49.35894
375.0179, 49.76328
375.5000, 49.97629
375.9821, 49.99861
376.4642, 49.85524
376.9463, 49.56817
377.4284, 49.10637
377.9106, 48.20340
378.3927, 47.17344
378.8748, 46.56835
379.3569, 46.54505
379.8390, 46.89733
380.3211, 47.49062
380.8033, 48.43667
381.2854, 48.89399
381.7675, 48.42748
382.2496, 47.71776
382.7317, 47.21833
383.2138, 46.98231
383.6960, 46.99714
384.1781, 47.34770
384.6602, 47.97218
385.1423, 47.97746
385.6244, 46.61360
386.1065, 45.58530
386.5887, 45.59645
387.0708, 46.29461
387.5529, 47.20112
388.0350, 48.13488
388.5171, 48.85516
388.9992, 48.80739
389.4814, 46.95906
389.9635, 45.93320
390.4456, 46.33826
390.9277, 47.14797
391.4098, 47.61232
391.8919, 47.59078
392.3741, 47.28512
392.8562, 46.85515
393.3383, 46.24052
393.8204, 45.96873
394.3025, 46.48889
394.7846, 46.86270
395.2668, 46.57436
395.7489, 45.92588
396.2310, 45.52349
396.7131, 45.73835
397.1952, 46.38188
397.6773, 46.80773
398.1595, 46.97617
398.6416, 46.96777
399.1237, 46.77343
399.6058, 46.44605
400.0879, 45.97145
400.5700, 45.36888
401.0522, 44.78297
401.5343, 44.37053
402.0164, 44.13867
402.4985, 44.05990
402.9806, 44.33517
403.4627, 44.57660
403.9449, 44.55763
404.4270, 44.36357
404.9091, 44.23559
405.3912, 44.35258
405.8733, 44.62876
406.3554, 44.81884
406.8376, 44.95785
407.3197, 44.92041
407.8018, 44.31131
408.2839, 43.66090
408.7660, 43.67723
409.2481, 44.65832
409.7303, 45.59813
410.2124, 45.17413
410.6945, 43.51118
411.1766, 42.63154
411.6587, 43.41191
412.1408, 44.52929
412.6230, 44.63076
413.1051, 43.85921
413.5872, 43.26107
414.0693, 43.47976
414.5514, 44.06586
415.0335, 44.29881
415.5157, 44.11819
415.9978, 43.80418
416.4799, 43.43460
416.9620, 43.08770
417.4441, 42.98421
417.9262, 43.35605
418.4084, 43.67427
418.8905, 43.52687
419.3726, 43.08940
419.8547, 42.81285
420.3368, 42.85396
420.8189, 43.10823
421.3011, 43.47123
421.7832, 44.02965
422.2653, 44.32529
422.7474, 43.88232
423.2295, 43.44458
423.7116, 43.95988
424.1938, 45.31210
424.6759, 46.25799
425.1580, 45.71317
425.6401, 43.79493
426.1222, 42.68679
426.6043, 42.68370
427.0865, 43.00814
427.5686, 43.90712
428.0507, 44.88260
428.5328, 45.17118
429.0149, 44.49421
429.4970, 43.36674
429.9792, 42.70194
430.4613, 42.78529
430.9434, 42.71351
431.4255, 42.34972
431.9076, 41.97883
432.3897, 41.70331
432.8719, 41.55919
433.3540, 41.59307
433.8361, 41.87562
434.3182, 42.36076
434.8003, 42.70780
435.2824, 42.78703
435.7646, 42.92439
436.2467, 43.18718
436.7288, 43.54643
437.2109, 44.05748
437.6930, 44.74283
438.1751, 45.29700
438.6573, 45.24494
439.1394, 44.53467
439.6215, 43.92611
440.1036, 43.45575
440.5857, 43.19535
441.0678, 43.27607
441.5500, 43.61018
442.0321, 43.87475
442.5142, 43.90806
442.9963, 43.76944
443.4784, 43.44793
443.9605, 42.87912
444.4427, 42.64727
444.9248, 43.24982
445.4069, 44.28314
445.8890, 45.04585
446.3711, 45.49593
446.8532, 45.72115
447.3354, 45.60672
447.8175, 45.31925
448.2996, 45.23558
448.7817, 45.45194
449.2638, 45.79908
449.7459, 46.13272
450.2281, 46.45234
450.7102, 46.65839
451.1923, 46.31159
451.6744, 46.23658
452.1565, 47.27852
452.6386, 49.07378
453.1208, 50.45015
453.6029, 50.75929
454.0850, 50.40552
454.5671, 50.51043
455.0492, 51.62718
455.5313, 52.46300
456.0135, 52.87985
456.4956, 53.09457
456.9777, 53.11607
457.4598, 53.05125
457.9419, 53.29624
458.4240, 54.35414
458.9062, 56.24574
459.3883, 57.28064
459.8704, 56.32816
460.3525, 55.77204
460.8346, 56.49755
461.3167, 57.77324
461.7989, 58.62883
462.2810, 58.69344
462.7631, 58.40047
463.2452, 58.38531
463.7273, 58.67290
464.2094, 59.10064
464.6916, 59.87017
465.1737, 60.56155
465.6558, 60.84679
466.1379, 60.82298
466.6200, 60.87311
467.1021, 61.27283
467.5843, 61.85136
468.0664, 62.35786
468.5485, 62.83852
469.0306, 62.89663
469.5127, 62.08156
469.9948, 60.88448
470.4770, 60.11425
470.9591, 59.89943
471.4412, 59.72734
471.9233, 59.54255
472.4054, 59.17918
472.8875, 58.18234
473.3697, 56.43353
473.8518, 54.65607
474.3339, 53.52639
474.8160, 53.05463
475.2981, 52.44903
475.7802, 51.57771
476.2624, 50.71758
476.7445, 50.03854
477.2266, 49.44716
477.7087, 48.76879
478.1908, 47.92813
478.6729, 46.97291
479.1551, 45.94615
479.6372, 44.53002
480.1193, 43.83563
480.6014, 44.43580
481.0835, 45.13980
481.5656, 45.42042
482.0478, 45.23273
482.5299, 44.60413
483.0120, 43.46906
483.4941, 42.07218
483.9762, 41.45124
484.4583, 42.13076
484.9405, 42.51704
485.4226, 42.00276
485.9047, 41.30138
486.3868, 40.97198
486.8689, 41.07869
487.3510, 41.29908
487.8332, 41.35690
488.3153, 41.29485
488.7974, 41.37958
489.2795, 41.75309
489.7616, 41.94330
490.2437, 41.42694
490.7259, 40.59215
491.2080, 40.01789
491.6901, 39.84944
492.1722, 39.87809
492.6543, 40.01784
493.1364, 40.23966
493.6186, 40.49232
494.1007, 40.79114
494.5828, 40.99650
495.0649, 40.88863
495.5470, 40.42403
496.0291, 40.17921
496.5113, 40.41424
496.9934, 40.64791
497.4755, 40.57723
497.9576, 40.27889
498.4397, 39.98487
498.9218, 39.81279
499.4040, 39.66175
499.8861, 39.26648
500.3682, 38.10715
500.8503, 37.70415
501.3324, 38.71742
501.8145, 39.83105
502.2967, 40.21958
502.7788, 39.96318
503.2609, 39.61115
503.7430, 39.54393
504.2251, 39.67542
504.7072, 39.66127
505.1894, 39.42398
505.6715, 39.21791
506.1536, 39.08533
506.6357, 39.02300
507.1178, 39.06311
507.5999, 39.20131
508.0821, 39.33064
508.5642, 39.30819
509.0463, 39.21723
509.5284, 39.34725
510.0105, 39.76933
510.4926, 40.17576
510.9748, 40.44721
511.4569, 40.53961
511.9390, 40.32862
512.4211, 39.50940
512.9032, 38.93688
513.3853, 39.36467
513.8674, 40.23023
514.3495, 40.49486
514.8317, 39.92946
515.3138, 39.12160
515.7959, 38.64312
516.2780, 38.51163
516.7601, 38.47388
517.2422, 38.67379
517.7244, 38.79047
518.2065, 38.56683
518.6886, 38.24217
519.1707, 38.21581
519.6528, 38.61486
520.1349, 39.14596
520.6171, 39.37560
521.0992, 39.26983
521.5813, 38.99971
522.0634, 38.23791
522.5455, 37.64009
523.0276, 37.57264
523.5098, 37.82242
523.9919, 37.94489
524.4740, 37.68591
524.9561, 37.38545
525.4382, 37.67056
525.9203, 38.55529
526.4025, 39.09476
526.8846, 38.94108
527.3667, 38.53850
527.8488, 38.28805
528.3309, 38.17101
528.8130, 38.07341
529.2952, 37.88822
529.7773, 37.76446
530.2594, 37.93018
530.7415, 38.30960
531.2236, 38.51643
531.7057, 38.33564
532.1879, 38.02523
532.6700, 38.11109
533.1521, 38.92548
533.6342, 39.37244
534.1163, 39.15905
534.5984, 38.80504
535.0806, 38.71360
535.5627, 38.78659
536.0448, 38.57743
536.5269, 37.75853
537.0090, 36.69093
537.4911, 36.54787
537.9733, 37.84114
538.4554, 38.93933
538.9375, 39.67548
539.4196, 40.15156
539.9017, 40.35605
540.3839, 40.33619
540.8660, 40.23576
541.3481, 40.09778
541.8302, 39.96882
542.3123, 39.95575
542.7944, 40.06410
543.2766, 40.22035
543.7587, 40.27156
544.2408, 40.47573
544.7229, 41.29181
545.2050, 42.81599
545.6871, 44.07276
546.1693, 44.68357
546.6514, 44.88456
547.1335, 44.87458
547.6156, 44.69024
548.0977, 44.37496
548.5798, 43.92805
549.0620, 43.41138
549.5441, 43.03770
550.0262, 43.11882
550.5083, 42.91949
550.9904, 42.24456
551.4725, 41.43225
551.9547, 40.68433
552.4368, 40.03945
552.9189, 39.46823
553.4010, 38.94179
553.8831, 38.48652
554.3652, 38.21037
554.8474, 38.10638
555.3295, 38.20369
555.8116, 38.86679
556.2937, 39.48816
556.7758, 39.55273
557.2579, 39.06334
557.7401, 38.52452
558.2222, 38.19053
558.7043, 38.01295
559.1864, 37.95756
559.6685, 38.02408
560.1506, 38.02403
560.6328, 37.89612
561.1149, 37.61800
561.5970, 37.04750
562.0791, 35.99956
562.5612, 35.30141
563.0433, 35.24163
563.5255, 35.48739
564.0076, 35.90493
564.4897, 36.39019
564.9718, 36.71065
565.4539, 36.70854
565.9360, 36.46374
566.4182, 36.24329
566.9003, 36.06416
567.3824, 35.87528
567.8645, 35.42141
568.3466, 35.16697
568.8287, 35.57409
569.3109, 36.48434
569.7930, 37.29383
570.2751, 37.65528
570.7572, 37.65903
571.2393, 37.42336
571.7214, 36.92603
572.2036, 36.46508
572.6857, 36.11013
573.1678, 35.86517
573.6499, 35.76581
574.1320, 35.80766
574.6141, 35.80386
575.0963, 35.54951
575.5784, 35.35169
576.0605, 35.57038
576.5426, 36.09194
577.0247, 36.53158
577.5068, 36.71907
577.9890, 36.69888
578.4711, 36.54334
578.9532, 36.19823
579.4353, 35.85014
579.9174, 35.20501
580.3995, 34.84595
580.8817, 35.32376
581.3638, 36.25085
581.8459, 36.89436
582.3280, 36.90501
582.8101, 36.52166
583.2922, 36.01386
583.7744, 35.35272
584.2565, 35.03614
584.7386, 35.28648
585.2207, 35.67289
585.7029, 35.95523
586.1850, 36.13301
586.6671, 36.19530
587.1492, 36.15229
587.6313, 35.97606
588.1135, 35.40905
588.5956, 34.71572
589.0777, 34.66282
589.5598, 35.46143
590.0419, 36.31585
590.5240, 36.31530
591.0062, 35.40146
591.4883, 34.99899
591.9704, 35.60114
592.4525, 36.05246
592.9346, 35.80468
593.4167, 35.39087
593.8989, 35.59813
594.3810, 36.50925
594.8631, 37.29861
595.3452, 36.93509
595.8273, 35.55981
596.3094, 34.82395
596.7916, 34.88948
597.2737, 35.21884
597.7558, 35.84702
598.2379, 36.49434
598.7200, 36.88869
599.2021, 37.00483
599.6843, 36.83814
600.1664, 36.09892
600.6485, 35.21546
601.1306, 34.80916
601.6127, 34.90019
602.0948, 35.18872
602.5770, 35.53030
603.0591, 35.90596
603.5412, 36.26945
604.0233, 36.74065
604.5054, 36.98523
604.9875, 36.99878
605.4697, 36.79462
605.9518, 36.09163
606.4339, 35.18213
606.9160, 34.83107
607.3981, 35.54218
607.8802, 36.67551
608.3624, 36.82176
608.8445, 35.79804
609.3266, 35.27446
609.8087, 35.86959
610.2908, 36.55746
610.7729, 36.54825
611.2551, 36.02314
611.7372, 35.50234
612.2193, 35.04259
612.7014, 34.71866
613.1835, 34.67928
613.6656, 34.80145
614.1478, 34.73895
614.6299, 34.41003
615.1120, 34.21907
615.5941, 34.63084
616.0762, 35.64998
616.5583, 36.34042
617.0405, 36.79300
617.5226, 36.80245
618.0047, 35.84337
618.4868, 34.72373
618.9689, 34.28220
619.4510, 34.59738
619.9332, 35.09374
620.4153, 35.33290
620.8974, 35.35815
621.3795, 35.29319
621.8616, 35.11621
622.3438, 34.95732
622.8259, 34.79629
623.3080, 34.74260
623.7901, 34.99987
624.2722, 35.59164
624.7543, 36.03215
625.2365, 36.33728
625.7186, 36.32246
626.2007, 35.45362
626.6828, 34.12742
627.1649, 33.53246
627.6470, 34.18065
628.1292, 35.30043
628.6113, 35.59411
629.0934, 34.74883
629.5755, 34.38635
630.0576, 35.03740
630.5397, 35.62024
631.0219, 35.71751
631.5040, 35.59835
631.9861, 35.67360
632.4682, 36.06738
632.9503, 36.49146
633.4324, 36.76460
633.9146, 36.85675
634.3967, 36.52417
634.8788, 35.67729
635.3609, 35.12098
635.8430, 35.46959
636.3251, 36.36006
636.8073, 36.71758
637.2894, 36.32969
637.7715, 36.01577
638.2536, 35.87682
638.7357, 35.87339
639.2178, 36.12024
639.7000, 36.47984
640.1821, 36.56754
640.6642, 36.15495
641.1463, 35.52929
641.6284, 35.27740
642.1105, 35.45933
642.5927, 35.71391
643.0748, 36.15092
643.5569, 36.47297
644.0390, 36.50470
644.5211, 36.31884
645.0032, 36.04705
645.4854, 35.68190
645.9675, 35.32997
646.4496, 35.05402
646.9317, 34.84161
647.4138, 34.65435
647.8959, 34.49097
648.3781, 34.43536
648.8602, 34.57754
649.3423, 34.85320
649.8244, 34.94719
650.3065, 34.58055
650.7886, 34.45504
651.2708, 34.73449
651.7529, 35.12986
652.2350, 35.48536
652.7171, 35.78826
653.1992, 36.10015
653.6813, 36.50767
654.1635, 36.80556
654.6456, 36.56106
655.1277, 35.82899
655.6098, 35.26910
656.0919, 34.96163
656.5740, 34.99773
657.0562, 35.74569
657.5383, 36.99782
658.0204, 37.35073
658.5025, 35.68712
658.9846, 34.51929
659.4667, 34.97539
659.9489, 36.03996
660.4310, 36.85812
660.9131, 37.20408
661.3952, 36.90797
661.8773, 35.69568
662.3594, 34.03902
662.8416, 33.62532
663.3237, 34.87633
663.8058, 35.80825
664.2879, 35.85120
664.7700, 35.70354
665.2521, 35.94456
665.7343, 36.42968
666.2164, 36.64848
666.6985, 36.36224
667.1806, 35.89855
667.6627, 35.36514
668.1448, 34.85006
668.6270, 34.50345
669.1091, 34.36109
669.5912, 34.43815
670.0733, 34.78046
670.5554, 35.34199
671.0375, 35.80498
671.5197, 36.19267
672.0018, 36.43026
672.4839, 36.43878
672.9660, 36.36849
673.4481, 36.31501
673.9302, 36.27482
674.4124, 36.18946
674.8945, 35.98637
675.3766, 35.79665
675.8587, 35.86950
676.3408, 36.12220
676.8229, 36.11923
677.3051, 35.72684
677.7872, 35.33256
678.2693, 35.29676
678.7514, 35.58383
679.2335, 35.78322
679.7156, 35.70124
680.1978, 35.80260
680.6799, 36.54515
681.1620, 37.20431
681.6441, 36.95745
682.1262, 35.99816
682.6083, 35.28492
683.0905, 35.49313
683.5726, 36.10064
684.0547, 36.00402
684.5368, 35.20549
685.0189, 34.79542
685.5010, 35.06380
685.9832, 35.58319
686.4653, 36.20609
686.9474, 36.80724
687.4295, 36.79949
687.9116, 35.50352
688.3937, 34.51143
688.8759, 34.51640
689.3580, 34.88918
689.8401, 35.00922
690.3222, 34.85080
690.8043, 34.71889
691.2864, 34.81493
691.7686, 35.05611
692.2507, 35.30608
692.7328, 35.61781
693.2149, 35.55288
693.6970, 34.72229
694.1791, 33.98267
694.6613, 33.95513
695.1434, 34.44823
695.6255, 35.12144
696.1076, 36.17804
696.5897, 36.88869
697.0718, 36.72260
697.5540, 36.14750
698.0361, 35.67303
698.5182, 35.35564
699.0003, 35.06250
699.4824, 34.70461
699.9645, 34.36293
700.4467, 34.24871
700.9288, 34.40899
701.4109, 34.62520
701.8930, 34.90602
702.3751, 35.21938
702.8572, 35.66790
703.3394, 36.09985
703.8215, 36.22950
704.3036, 35.94328
704.7857, 35.58264
705.2678, 35.30064
705.7499, 35.08595
706.2321, 34.77960
706.7142, 34.47648
707.1963, 34.76316
707.6784, 36.01278
708.1605, 37.61915
708.6426, 38.35205
709.1248, 37.95553
709.6069, 37.59715
710.0890, 37.27557
710.5711, 36.99440
711.0532, 36.82212
711.5353, 36.65889
712.0175, 36.35107
712.4996, 35.86052
712.9817, 35.38625
713.4638, 34.97893
713.9459, 34.69904
714.4280, 34.57118
714.9102, 34.63249
715.3923, 35.21106
715.8744, 36.51511
716.3565, 37.76067
716.8386, 37.65724
717.3207, 35.88700
717.8029, 35.08347
718.2850, 36.19390
718.7671, 37.12665
719.2492, 37.51779
719.7313, 37.44801
720.2134, 36.74332
720.6956, 35.51115
721.1777, 34.66735
721.6598, 35.12348
722.1419, 36.00776
722.6240, 36.10023
723.1061, 35.61172
723.5883, 35.48582
724.0704, 36.02810
724.5525, 36.52449
725.0346, 36.11559
725.5167, 34.84648
725.9988, 34.39400
726.4810, 35.50968
726.9631, 36.37254
727.4452, 36.74826
727.9273, 36.82261
728.4094, 36.63886
728.8915, 36.27459
729.3737, 35.91552
729.8558, 35.58794
730.3379, 35.40031
730.8200, 35.54476
731.3021, 35.91544
731.7842, 36.23268
732.2664, 36.44612
732.7485, 36.61861
733.2306, 36.82519
733.7127, 36.99451
734.1948, 36.79775
734.6769, 35.61424
735.1591, 35.21265
735.6412, 36.59728
736.1233, 37.75172
736.6054, 37.35286
737.0875, 36.05971
737.5696, 35.16758
738.0518, 35.10151
738.5339, 35.35053
739.0160, 35.62087
739.4981, 35.88385
739.9802, 36.11833
740.4623, 36.30931
740.9445, 36.31932
741.4266, 36.04411
741.9087, 35.71813
742.3908, 35.79432
742.8729, 36.41520
743.3550, 36.82159
743.8372, 36.79779
744.3193, 36.81356
744.8014, 37.32901
745.2835, 37.75380
745.7656, 37.19161
746.2477, 35.60527
746.7299, 34.37685
747.2120, 34.37556
747.6941, 35.03677
748.1762, 36.02894
748.6583, 37.14220
749.1404, 37.69550
749.6226, 37.50138
750.1047, 37.00840
750.5868, 36.62252
751.0689, 36.36147
751.5510, 36.45059
752.0331, 37.24212
752.5153, 37.70295
752.9974, 37.40564
753.4795, 36.95782
753.9616, 36.64394
754.4437, 36.49333
754.9258, 36.54217
755.4080, 36.88472
755.8901, 37.26672
756.3722, 37.61163
756.8543, 37.84014
757.3364, 37.76594
757.8185, 37.42255
758.3007, 37.07495
758.7828, 36.88549
759.2649, 36.77497
759.7470, 36.48323
760.2291, 35.84110
760.7112, 35.88563
761.1934, 37.15474
761.6755, 38.31223
762.1576, 38.72451
762.6397, 38.67451
763.1218, 38.47642
763.6039, 38.15911
764.0861, 37.66195
764.5682, 36.57677
765.0503, 35.66031
765.5324, 35.64451
766.0145, 36.21412
766.4966, 36.80021
766.9788, 37.20364
767.4609, 37.35959
767.9430, 37.13166
768.4251, 36.62818
768.9072, 36.40351
769.3893, 36.49134
769.8715, 36.70394
770.3536, 37.08139
770.8357, 37.44851
771.3178, 37.58423
771.7999, 37.54881
772.2820, 37.66133
772.7642, 38.28645
773.2463, 38.59115
773.7284, 37.97637
774.2105, 37.23754
774.6926, 37.11305
775.1747, 37.51524
775.6569, 38.01708
776.1390, 38.42747
776.6211, 38.64037
777.1032, 38.38620
777.5853, 37.77102
778.0674, 37.39870
778.5496, 37.32164
779.0317, 37.42849
779.5138, 37.75002
779.9959, 38.09233
780.4780, 38.05360
780.9601, 37.42667
781.4423, 37.27991
781.9244, 38.01846
782.4065, 38.72129
782.8886, 39.28016
783.3707, 39.54102
783.8528, 39.12673
784.3350, 38.15150
784.8171, 37.49520
785.2992, 37.89980
785.7813, 38.66521
786.2634, 38.89482
786.7455, 38.71574
787.2277, 38.53706
787.7098, 38.44146
788.1919, 38.31190
788.6740, 38.05363
789.1561, 37.69883
789.6382, 37.32872
790.1204, 36.75486
790.6025, 36.63181
791.0846, 37.49357
791.5667, 38.26244
792.0488, 38.39229
792.5309, 38.15917
793.0131, 38.00154
793.4952, 38.00289
793.9773, 37.99308
794.4594, 37.75434
794.9415, 37.58527
795.4236, 37.87954
795.9058, 38.45441
796.3879, 38.86489
796.8700, 38.97721
797.3521, 38.97010
797.8342, 39.02216
798.3163, 39.11747
798.7985, 39.21837
799.2806, 39.37335
799.7627, 39.21790
800.2448, 38.49117
800.7269, 37.72161
801.2090, 37.33059
801.6912, 37.29144
802.1733, 37.38396
802.6554, 37.62209
803.1375, 37.96854
803.6196, 38.58282
804.1017, 39.15252
804.5839, 39.62349
805.0660, 39.83202
805.5481, 39.30109
806.0302, 37.84621
806.5123, 36.55524
806.9944, 36.88723
807.4766, 38.09401
807.9587, 38.26050
808.4408, 37.41850
808.9229, 36.61871
809.4050, 36.20547
809.8871, 36.24318
810.3693, 36.93479
810.8514, 38.26713
811.3335, 38.89484
811.8156, 38.22460
812.2977, 37.84296
812.7798, 38.32692
813.2620, 38.85155
813.7441, 38.76466
814.2262, 38.27463
814.7083, 38.07140
815.1904, 38.50743
815.6725, 38.82400
816.1547, 38.26982
816.6368, 37.59595
817.1189, 37.78885
817.6010, 38.66597
818.0831, 39.49672
818.5652, 39.96173
819.0474, 40.08602
819.5295, 39.78254
820.0116, 39.12260
820.4937, 38.76648
820.9758, 38.73690
821.4579, 38.93502
821.9401, 39.53770
822.4222, 39.98317
822.9043, 39.50066
823.3864, 38.14945
823.8685, 37.43662
824.3506, 37.90948
824.8328, 38.22628
825.3149, 38.11121
825.7970, 37.84203
826.2791, 37.49202
826.7612, 37.17537
827.2433, 37.10794
827.7255, 37.38725
828.2076, 37.76878
828.6897, 38.10316
829.1718, 38.37609
829.6539, 38.62687
830.1360, 38.80819
830.6182, 38.59448
831.1003, 37.85735
831.5824, 37.22128
832.0645, 37.52515
832.5466, 38.65671
833.0287, 39.19704
833.5109, 39.03497
833.9930, 38.56374
834.4751, 37.45691
834.9572, 36.55481
835.4393, 36.93075
835.9214, 38.06474
836.4036, 38.35845
836.8857, 37.02533
837.3678, 36.20598
837.8499, 36.80575
838.3320, 37.74026
838.8141, 38.39599
839.2963, 38.74803
839.7784, 38.82521
840.2605, 38.65614
840.7426, 38.48598
841.2247, 38.57671
841.7068, 38.79668
842.1890, 38.97022
842.6711, 39.05928
843.1532, 38.72188
843.6353, 37.84949
844.1174, 37.14578
844.5995, 37.28259
845.0817, 38.05170
845.5638, 38.51734
846.0459, 38.60881
846.5280, 38.58064
847.0101, 38.28777
847.4922, 38.08920
847.9744, 38.36386
848.4565, 38.76537
848.9386, 38.60786
849.4207, 37.67976
849.9028, 37.37233
850.3849, 38.82456
850.8671, 40.18047
851.3492, 40.18969
851.8313, 39.50935
852.3134, 38.98706
852.7955, 38.80548
853.2776, 38.80063
853.7598, 38.90110
854.2419, 39.03733
854.7240, 39.16557
855.2061, 39.24339
855.6882, 39.05847
856.1703, 38.59008
856.6525, 38.04003
857.1346, 37.48435
857.6167, 37.06270
858.0988, 37.09807
858.5809, 37.69735
859.0630, 38.03699
859.5452, 38.01369
860.0273, 37.91396
860.5094, 37.79294
860.9915, 37.65358
861.4736, 37.43085
861.9557, 37.16803
862.4379, 37.12051
862.9200, 37.51279
863.4021, 37.87509
863.8842, 38.15353
864.3663, 38.24439
864.8484, 37.95762
865.3306, 37.42101
865.8127, 36.90477
866.2948, 36.51521
866.7769, 36.24717
867.2590, 36.16108
867.7411, 36.17094
868.2233, 36.06897
868.7054, 35.88423
869.1875, 35.84980
869.6696, 36.03545
870.1517, 36.11847
870.6339, 35.74558
871.1160, 35.07498
871.5981, 34.86062
872.0802, 35.26097
872.5623, 35.55700
873.0444, 35.74072
873.5266, 35.70516
874.0087, 35.16338
874.4908, 34.46249
874.9729, 34.29583
875.4550, 34.78519
875.9371, 35.10707
876.4193, 34.93313
876.9014, 34.83289
877.3835, 35.23175
877.8656, 35.69741
878.3477, 35.70642
878.8298, 35.29720
879.3120, 34.92260
879.7941, 34.84225
880.2762, 34.77959
880.7583, 34.32594
881.2404, 33.77159
881.7225, 33.69469
882.2047, 34.04828
882.6868, 34.44529
883.1689, 34.71676
883.6510, 34.73088
884.1331, 34.15705
884.6152, 33.16405
885.0974, 33.21265
885.5795, 34.48977
886.0616, 35.46809
886.5437, 35.81947
887.0258, 35.69579
887.5079, 35.02060
887.9901, 34.01834
888.4722, 33.60886
888.9543, 34.40837
889.4364, 34.62125
889.9185, 33.66491
890.4006, 32.81117
890.8828, 32.68069
891.3649, 32.85827
891.8470, 32.75400
892.3291, 32.33681
892.8112, 32.17482
893.2933, 32.74409
893.7755, 33.35429
894.2576, 33.75857
894.7397, 33.84169
895.2218, 33.17172
895.7039, 32.02057
896.1860, 31.33287
896.6682, 31.56615
897.1503, 32.20851
897.6324, 32.80123
898.1145, 33.27304
898.5966, 33.30250
899.0787, 32.94234
899.5609, 32.84303
900.0430, 33.23474
900.5251, 33.50425
901.0072, 32.96605
901.4893, 33.27533
901.9714, 33.38581
902.4536, 32.97783
902.9357, 33.52923
903.4178, 32.90040
903.8999, 32.19127
904.3820, 31.99607
904.8641, 32.06581
905.3463, 31.90673
905.8284, 31.44329
906.3105, 31.37457
906.7926, 32.36620
907.2747, 32.96883
907.7568, 32.19792
908.2390, 31.29533
908.7211, 31.68114
909.2032, 32.90757
909.6853, 33.24776
910.1674, 31.83263
910.6495, 30.51952
911.1317, 30.72320
911.6138, 31.52991
912.0959, 32.12368
912.5780, 32.40950
913.0601, 32.23014
913.5422, 31.61335
914.0244, 31.08267
914.5065, 31.19295
914.9886, 31.50338
915.4707, 30.75961
915.9528, 29.24591
916.4349, 28.98118
916.9171, 30.25461
917.3992, 31.47690
917.8813, 31.81070
918.3634, 31.50362
918.8455, 30.82288
919.3276, 29.69136
919.8098, 29.73637
920.2919, 31.78466
920.7740, 32.82620
921.2561, 31.37169
921.7382, 29.70985
922.2203, 29.95759
922.7025, 31.55920
923.1846, 32.28719
923.6667, 31.70858
924.1488, 31.21596
924.6309, 30.68952
925.1130, 30.55689
925.5952, 31.51048
926.0773, 32.66414
926.5594, 32.78740
927.0415, 31.89123
927.5236, 31.24630
928.0057, 31.62870
928.4879, 32.05113
928.9700, 31.92319
929.4521, 31.44528
929.9342, 30.65209
930.4163, 29.74478
930.8984, 29.13190
931.3806, 28.96772
931.8627, 29.09839
932.3448, 29.48871
932.8269, 29.99734
933.3090, 30.35517
933.7911, 30.57174
934.2733, 30.67450
934.7554, 30.67082
935.2375, 30.54869
935.7196, 30.27633
936.2017, 29.99725
936.6838, 30.10244
937.1660, 30.62972
937.6481, 30.72395
938.1302, 30.27706
938.6123, 29.84509
939.0944, 29.55411
939.5765, 29.47541
940.0587, 29.76867
940.5408, 30.35004
941.0229, 30.59868
941.5050, 30.45724
941.9871, 30.08830
942.4692, 29.11053
942.9514, 28.34673
943.4335, 28.16894
943.9156, 28.36431
944.3977, 28.76245
944.8798, 29.33939
945.3619, 29.72304
945.8441, 29.68331
946.3262, 29.63465
946.8083, 29.77732
947.2904, 29.92433
947.7725, 29.91947
948.2546, 29.78735
948.7368, 29.61145
949.2189, 29.41599
949.7010, 29.19953
950.1831, 28.72432
950.6652, 28.43974
951.1473, 29.19168
951.6295, 30.30103
952.1116, 30.28074
952.5937, 29.20654
953.0758, 28.67039
953.5579, 29.65179
954.0400, 30.92792
954.5222, 30.59831
955.0043, 29.27460
955.4864, 28.86685
955.9685, 29.29990
956.4506, 29.43885
956.9327, 28.94568
957.4149, 28.40007
957.8970, 28.32450
958.3791, 28.13049
958.8612, 28.60475
959.3433, 28.41095
959.8254, 28.58200
960.3076, 29.30678
960.7897, 29.68171
961.2718, 29.18548
961.7539, 28.44259
962.2360, 28.23681
962.7181, 28.54749
963.2003, 28.93177
963.6824, 29.63233
964.1645, 29.89327
964.6466, 29.27997
965.1287, 28.66793
965.6108, 28.58087
966.0930, 28.75595
966.5751, 28.76213
967.0572, 28.55036
967.5393, 28.62376
968.0214, 29.39728
968.5035, 29.97585
968.9857, 30.09743
969.4678, 29.95514
969.9499, 29.52219
970.4320, 28.99038
970.9141, 28.76596
971.3962, 28.98307
971.8784, 29.15322
972.3605, 29.03063
972.8426, 28.81081
973.3247, 28.56802
973.8068, 28.34649
974.2889, 28.22500
974.7711, 28.17464
975.2532, 27.98965
975.7353, 27.51029
976.2174, 27.33352
976.6995, 28.55894
977.1816, 30.02474
977.6638, 29.88681
978.1459, 28.64963
978.6280, 27.56803
979.1101, 26.99935
979.5922, 27.08573
980.0743, 28.04800
980.5565, 29.15287
981.0386, 29.04906
981.5207, 28.08713
982.0028, 27.48497
982.4849, 27.29154
982.9670, 27.19447
983.4492, 27.08829
983.9313, 27.27737
984.4134, 28.16740
984.8955, 27.88053
985.3776, 29.35218
985.8597, 28.10128
986.3419, 27.59084
986.8240, 28.08409
987.3061, 28.63439
987.7882, 28.87763
988.2703, 28.88033
988.7524, 28.71339
989.2346, 28.37996
989.7167, 27.85840
990.1988, 26.86405
990.6809, 26.62131
991.1630, 27.77754
991.6451, 28.66761
992.1273, 28.25247
992.6094, 27.28098
993.0915, 26.81968
993.5736, 26.88211
994.0557, 27.19312
994.5378, 28.36476
995.0200, 28.87296
995.5021, 27.74581
995.9842, 26.80213
996.4663, 27.30654
996.9484, 28.50978
997.4305, 29.23274
997.9127, 29.38166
998.3948, 29.09883
998.8769, 27.88498
999.3590, 26.93847
999.8411, 26.67595
1000.323, 26.76767
1000.805, 27.18708
1001.287, 27.68958
1001.770, 27.76717
1002.252, 27.28086
1002.734, 26.95972
1003.216, 27.10670
1003.698, 27.50632
1004.180, 28.50192
1004.662, 29.33576
1005.144, 28.81152
1005.627, 27.43157
1006.109, 26.81065
1006.591, 27.54149
1007.073, 28.36137
1007.555, 28.30964
1008.037, 28.02186
1008.519, 28.18193
1009.001, 28.48619
1009.483, 28.33445
1009.966, 27.80131
1010.448, 27.44622
1010.930, 27.53593
1011.412, 27.81918
1011.894, 28.06163
1012.376, 28.32517
1012.858, 28.95476
1013.340, 29.63512
1013.823, 29.40506
1014.305, 28.26896
1014.787, 27.16403
1015.269, 26.61992
1015.751, 26.49120
1016.233, 26.77065
1016.715, 27.26179
1017.197, 27.32425
1017.679, 27.06163
1018.162, 27.06384
1018.644, 27.43592
1019.126, 27.77676
1019.608, 27.82100
1020.090, 27.67313
1020.572, 27.43110
1021.054, 27.13854
1021.536, 27.13284
1022.018, 27.40736
1022.501, 27.74743
1022.983, 28.11528
1023.465, 28.25222
1023.947, 27.91658
1024.429, 27.42751
1024.911, 27.62661
1025.393, 28.54539
1025.875, 28.37479
1026.358, 26.89919
1026.840, 26.23610
1027.322, 27.10744
1027.804, 28.11242
1028.286, 28.16302
1028.768, 27.58725
1029.250, 27.16800
1029.732, 26.89755
1030.214, 26.88951
1030.697, 27.24057
1031.179, 27.54660
1031.661, 27.78102
1032.143, 27.73438
1032.625, 27.10675
1033.107, 26.18665
1033.589, 25.80445
1034.071, 26.05354
1034.553, 26.42834
1035.036, 26.96877
1035.518, 27.58343
1036.000, 28.47846
1036.482, 29.09200
1036.964, 28.81376
1037.446, 27.97806
1037.928, 27.58328
1038.410, 27.77095
1038.893, 27.90040
1039.375, 27.95785
1039.857, 27.97625
1040.339, 27.84648
1040.821, 27.80397
1041.303, 28.19151
1041.785, 28.78188
1042.267, 28.86598
1042.750, 28.19200
1043.232, 27.85449
1043.714, 28.37543
1044.196, 28.54124
1044.678, 27.51298
1045.160, 26.56303
1045.642, 26.83618
1046.124, 27.85938
1046.606, 28.49093
1047.089, 28.64151
1047.571, 28.48081
1048.053, 27.54529
1048.535, 26.94751
1049.017, 27.29867
1049.499, 27.80680
1049.981, 27.88853
1050.463, 27.65961
1050.945, 27.39469
1051.428, 27.09146
1051.910, 26.97254
1052.392, 27.24332
1052.874, 27.48640
1053.356, 27.48754
1053.838, 27.48868
1054.320, 27.95905
1054.802, 28.48078
1055.285, 28.01434
1055.767, 26.28940
1056.249, 25.16424
1056.731, 25.54999
1057.213, 26.05280
1057.695, 26.27760
1058.177, 26.32043
1058.659, 26.01470
1059.141, 25.68375
1059.624, 26.02623
1060.106, 27.16036
1060.588, 27.97940
1061.070, 27.98568
1061.552, 27.80822
1062.034, 27.60354
1062.516, 27.39581
1062.998, 27.19296
1063.480, 27.00292
1063.963, 26.85563
1064.445, 26.74969
1064.927, 26.58623
1065.409, 26.02665
1065.891, 25.81192
1066.373, 26.60347
1066.855, 27.50279
1067.337, 27.96885
1067.820, 27.99239
1068.302, 27.40881
1068.784, 26.33740
1069.266, 25.79871
1069.748, 26.66784
1070.230, 27.28081
1070.712, 26.59669
1071.194, 25.69439
1071.677, 25.34167
1072.159, 25.32009
1072.641, 25.24591
1073.123, 25.08389
1073.605, 25.01468
1074.087, 25.10592
1074.569, 25.29276
1075.051, 25.79198
1075.533, 26.11563
1076.016, 25.63220
1076.498, 24.94221
1076.980, 24.92414
1077.462, 25.50252
1077.944, 25.91356
1078.426, 25.87678
1078.908, 25.74210
1079.390, 25.68456
1079.873, 25.57016
1080.355, 25.10010
1080.837, 24.67654
1081.319, 24.85769
1081.801, 25.51135
1082.283, 26.10631
1082.765, 26.50147
1083.247, 26.74925
1083.729, 26.84486
1084.212, 26.83469
1084.694, 26.78918
1085.176, 26.61504
1085.658, 25.99469
1086.140, 25.21735
1086.622, 25.04233
1087.104, 25.67756
1087.586, 26.17420
1088.068, 26.14035
1088.551, 25.86306
1089.033, 24.99812
1089.515, 24.39397
1089.997, 25.27410
1090.479, 26.78176
1090.961, 27.07289
1091.443, 25.89667
1091.925, 25.13210
1092.408, 26.17990
1092.890, 26.81631
1093.372, 25.46376
1093.854, 24.08736
1094.336, 24.27088
1094.818, 25.27570
1095.300, 26.14398
1095.782, 26.64202
1096.265, 26.31932
1096.747, 24.23744
1097.229, 22.89969
1097.711, 23.67915
1098.193, 24.82840
1098.675, 25.52912
1099.157, 25.89025
1099.639, 25.98059
1100.121, 25.90574
1100.604, 26.02829
1101.086, 26.58654
1101.568, 26.83609
1102.050, 26.20187
1102.532, 25.69608
1103.014, 26.03909
1103.496, 26.46409
1103.978, 26.13760
1104.460, 25.33714
1104.943, 24.86798
1105.425, 24.86386
1105.907, 25.05746
1106.389, 25.71301
1106.871, 26.13058
1107.353, 25.84457
1107.835, 25.51941
1108.317, 25.80591
1108.800, 26.28183
1109.282, 26.01611
1109.764, 24.89804
1110.246, 24.51014
1110.728, 26.11030
1111.210, 26.77085
1111.692, 25.22444
1112.174, 23.67088
1112.656, 22.90010
1113.139, 22.86593
1113.621, 23.77694
1114.103, 25.50567
1114.585, 26.75110
1115.067, 27.42332
1115.549, 27.75414
1116.031, 27.82138
1116.513, 27.41778
1116.995, 26.04385
1117.478, 24.63034
1117.960, 23.93593
1118.442, 23.86159
1118.924, 24.16074
1119.406, 25.09913
1119.888, 25.30351
1120.370, 24.17363
1120.852, 23.58411
1121.335, 24.14266
1121.817, 24.98771
1122.299, 25.78932
1122.781, 26.25137
1123.263, 25.62866
1123.745, 25.95260
1124.227, 26.03923
1124.709, 25.26285
1125.192, 26.04777
1125.674, 25.20106
1126.156, 24.43091
1126.638, 24.56213
1127.120, 25.03585
1127.602, 25.23526
1128.084, 25.17271
1128.566, 24.77283
1129.048, 23.91147
1129.531, 24.02352
1130.013, 25.37210
1130.495, 26.17371
1130.977, 25.82390
1131.459, 25.06310
1131.941, 24.44865
1132.423, 23.97366
1132.905, 23.64959
1133.387, 23.46785
1133.870, 23.20354
1134.352, 22.87244
1134.834, 23.04365
1135.316, 23.81780
1135.798, 24.53632
1136.280, 24.84032
1136.762, 24.93026
1137.244, 25.03205
1137.727, 25.15518
1138.209, 25.42403
1138.691, 25.74263
1139.173, 25.61898
1139.655, 25.08180
1140.137, 24.52029
1140.619, 24.09964
1141.101, 24.08836
1141.583, 24.81585
1142.066, 25.69705
1142.548, 25.85852
1143.030, 25.50331
1143.512, 24.80572
1143.994, 24.00192
1144.476, 23.61794
1144.958, 23.74457
1145.440, 24.32595
1145.922, 25.37789
1146.405, 26.20786
1146.887, 26.03425
1147.369, 25.42536
1147.851, 24.91431
1148.333, 24.46635
1148.815, 24.00921
1149.297, 23.56065
1149.779, 23.09967
1150.262, 22.66116
1150.744, 22.62548
1151.226, 23.40167
1151.708, 24.32530
1152.190, 25.28317
1152.672, 25.89084
1153.154, 25.67144
1153.636, 24.98223
1154.119, 24.19104
1154.601, 23.44963
1155.083, 23.05435
1155.565, 23.15145
1156.047, 23.35917
1156.529, 23.54013
1157.011, 23.82139
1157.493, 24.49538
1157.975, 25.07318
1158.458, 25.02979
1158.940, 24.62030
1159.422, 24.38767
1159.904, 24.38403
1160.386, 24.46272
1160.868, 24.53012
1161.350, 24.81055
1161.832, 25.71739
1162.314, 26.33048
1162.797, 26.12197
1163.279, 25.58579
1163.761, 25.24395
1164.243, 25.02720
1164.725, 24.56021
1165.207, 23.55687
1165.689, 23.39857
1166.171, 24.52670
1166.654, 25.10701
1167.136, 24.47032
1167.618, 23.93011
1168.100, 24.42313
1168.582, 25.35668
1169.064, 25.74409
1169.546, 25.62653
1170.028, 25.34716
1170.510, 24.90384
1170.993, 24.19153
1171.475, 23.18414
1171.957, 22.99965
1172.439, 24.08828
1172.921, 25.15282
1173.403, 24.98240
1173.885, 24.17451
1174.367, 23.78596
1174.849, 23.78513
1175.332, 24.24096
1175.814, 24.98854
1176.296, 25.38630
1176.778, 25.37197
1177.260, 25.35734
1177.742, 25.54006
1178.224, 25.63373
1178.706, 25.22205
1179.189, 24.73035
1179.671, 24.80763
1180.153, 25.09393
1180.635, 25.10327
1181.117, 24.85390
1181.599, 24.33758
1182.081, 23.68674
1182.563, 23.53852
1183.046, 24.36920
1183.528, 25.15258
1184.010, 25.26185
1184.492, 25.14234
1184.974, 24.95889
1185.456, 24.81670
1185.938, 24.92125
1186.420, 25.11263
1186.902, 24.97849
1187.385, 24.43700
1187.867, 23.93861
1188.349, 23.30391
1188.831, 23.12036
1189.313, 23.95355
1189.795, 24.71283
1190.277, 24.90437
1190.759, 24.73949
1191.241, 24.27399
1191.724, 23.64335
1192.206, 23.38979
1192.688, 23.59222
1193.170, 23.84357
1193.652, 24.16617
1194.134, 24.47465
1194.616, 24.76937
1195.098, 24.98044
1195.581, 25.04921
1196.063, 25.08758
1196.545, 25.28257
1197.027, 25.13646
1197.509, 25.42184
1197.991, 24.94628
1198.473, 24.69815
1198.955, 24.70603
1199.438, 24.90252
1199.920, 25.24127
1200.402, 25.37921
1200.884, 25.07697
1201.366, 24.57448
1201.848, 24.12072
1202.330, 23.73139
1202.812, 23.27578
1203.294, 22.98528
1203.776, 23.69810
1204.259, 24.96868
1204.741, 25.21873
1205.223, 24.15921
1205.705, 23.28769
1206.187, 23.46388
1206.669, 24.03692
1207.151, 24.95496
1207.633, 25.65762
1208.116, 25.51059
1208.598, 25.04831
1209.080, 24.90829
1209.562, 25.00718
1210.044, 24.95012
1210.526, 24.65784
1211.008, 24.36374
1211.490, 23.88748
1211.973, 23.75100
1212.455, 24.31833
1212.937, 24.91531
1213.419, 25.35940
1213.901, 25.58466
1214.383, 25.46656
1214.865, 25.09400
1215.347, 24.73773
1215.829, 24.35340
1216.312, 24.34417
1216.794, 24.82112
1217.276, 25.13043
1217.758, 25.16653
1218.240, 24.87018
1218.722, 24.12147
1219.204, 23.73112
1219.686, 24.76939
1220.168, 26.46471
1220.651, 26.80826
1221.133, 26.08788
1221.615, 25.35294
1222.097, 24.66387
1222.579, 23.87473
1223.061, 23.07147
1223.543, 22.89916
1224.025, 23.65875
1224.508, 24.57084
1224.990, 25.26359
1225.472, 25.39409
1225.954, 23.84099
1226.436, 22.20009
1226.918, 22.67240
1227.400, 24.19992
1227.882, 24.90734
1228.365, 24.64156
1228.847, 24.22108
1229.329, 23.78502
1229.811, 23.57263
1230.293, 23.82357
1230.775, 24.06388
1231.257, 24.02229
1231.739, 24.04946
1232.221, 24.62601
1232.703, 25.20976
1233.186, 24.95579
1233.668, 24.04895
1234.150, 23.71746
1234.632, 24.02589
1235.114, 24.82813
1235.596, 26.44546
1236.078, 26.81052
1236.560, 25.23790
1237.043, 23.84512
1237.525, 23.87057
1238.007, 24.57734
1238.489, 25.12341
1238.971, 25.43074
1239.453, 25.14409
1239.935, 24.46827
1240.417, 24.03733
1240.900, 23.88029
1241.382, 23.96034
1241.864, 24.22832
1242.346, 24.56543
1242.828, 24.92319
1243.310, 25.11476
1243.792, 24.96757
1244.274, 24.62226
1244.756, 24.00203
1245.239, 23.41781
1245.721, 23.20309
1246.203, 23.20887
1246.685, 23.21762
1247.167, 23.19316
1247.649, 23.05938
1248.131, 22.54733
1248.613, 22.78064
1249.095, 24.90736
1249.578, 26.22573
1250.060, 25.90466
1250.542, 25.26035
1251.024, 24.83651
1251.506, 24.58548
1251.988, 24.42315
1252.470, 24.41183
1252.952, 24.94887
1253.435, 26.06767
1253.917, 26.32133
1254.399, 25.71649
1254.881, 24.90935
1255.363, 24.06711
1255.845, 23.65900
1256.327, 23.89457
1256.809, 24.35904
1257.292, 24.74770
1257.774, 24.94187
1258.256, 24.56844
1258.738, 24.06284
1259.220, 24.05418
1259.702, 24.36738
1260.184, 24.78416
1260.666, 25.15795
1261.148, 25.14751
1261.630, 24.65548
1262.113, 24.45980
1262.595, 25.29823
1263.077, 25.79036
1263.559, 24.99244
1264.041, 24.44349
1264.523, 25.43517
1265.005, 26.47188
1265.487, 25.99832
1265.970, 26.40889
1266.452, 26.26635
1266.934, 25.63964
1267.416, 25.68725
1267.898, 24.58760
1268.380, 24.17437
1268.862, 24.66848
1269.344, 24.93012
1269.827, 24.58624
1270.309, 24.25497
1270.791, 24.39199
1271.273, 24.33391
1271.755, 24.77624
1272.237, 24.77466
1272.719, 25.18519
1273.201, 25.71148
1273.683, 25.82028
1274.166, 25.58427
1274.648, 25.21957
1275.130, 24.81994
1275.612, 24.49043
1276.094, 24.21572
1276.576, 24.25555
1277.058, 25.21475
1277.540, 25.81221
1278.022, 25.02813
1278.505, 24.29876
1278.987, 24.82137
1279.469, 25.72765
1279.951, 26.10879
1280.433, 25.98296
1280.915, 25.24201
1281.397, 23.61882
1281.879, 23.91088
1282.362, 26.42871
1282.844, 27.01369
1283.326, 24.96376
1283.808, 23.37400
1284.290, 23.53650
1284.772, 24.23195
1285.254, 24.47314
1285.736, 24.26245
##END=



