##NAMES=Creedite
##RRUFFID=R050141
##IDEAL CHEMISTRY=Ca_3_Al_2_(S^6+^O_4_)(OH)_2_F_8_&#183;2H_2_O
##LOCALITY=Mina de Navidad, Rodeo, Durango, Mexico
##OWNER=RRUFF
##SOURCE=Dave Bunk Minerals
##DESCRIPTION=Radiating group of bladed crystals
##STATUS=The identification of this mineral has been confirmed by X-ray diffraction and chemical analysis
##URL=rruff.info/R050141
##MEASURED CHEMISTRY=Ca_3.00_Al_2.00_(S_1.00_O_4_)(OH)_2_(F_7.31_(OH)_0.69_)_Σ=8_·2H_2_O ; OH estimated by stoichiometry and charge balance OH=10-F
93.56738, 97.69029
94.04950, 99.22999
94.53162, 100.6876
95.01373, 100.6696
95.49585, 99.80132
95.97797, 98.84801
96.46008, 98.52183
96.94220, 99.22335
97.42432, 99.59642
97.90643, 99.35963
98.38855, 98.91966
98.87067, 98.47339
99.35278, 98.10535
99.83490, 97.83693
100.3170, 97.66901
100.7991, 97.15028
101.2813, 97.09347
101.7634, 97.60909
102.2455, 98.54067
102.7276, 99.77232
103.2097, 101.2733
103.6918, 102.9563
104.1740, 104.3581
104.6561, 105.2635
105.1382, 106.1853
105.6203, 107.2016
106.1024, 108.3500
106.5845, 109.6898
107.0667, 110.8363
107.5488, 112.3129
108.0309, 115.8734
108.5130, 121.7013
108.9951, 129.6143
109.4772, 140.0786
109.9594, 153.9950
110.4415, 167.7552
110.9236, 181.0486
111.4057, 192.6458
111.8878, 199.2165
112.3699, 198.3647
112.8521, 190.5976
113.3342, 179.5917
113.8163, 161.7389
114.2984, 144.1252
114.7805, 129.1307
115.2626, 116.8469
115.7447, 107.1551
116.2269, 99.99159
116.7090, 95.72251
117.1911, 93.02733
117.6732, 92.31273
118.1553, 92.58814
118.6374, 93.39459
119.1196, 94.61755
119.6017, 96.42237
120.0838, 99.08799
120.5659, 103.2300
121.0480, 107.4136
121.5301, 111.2586
122.0123, 115.2643
122.4944, 120.0367
122.9765, 125.8317
123.4586, 132.3629
123.9407, 139.1142
124.4228, 147.4541
124.9050, 153.7031
125.3871, 156.6108
125.8692, 156.4225
126.3513, 153.7328
126.8334, 147.8578
127.3155, 140.0596
127.7977, 133.0745
128.2798, 126.9745
128.7619, 121.6502
129.2440, 117.0569
129.7261, 113.2445
130.2083, 109.9725
130.6904, 107.4046
131.1725, 105.2505
131.6546, 103.3098
132.1367, 101.6110
132.6188, 99.99837
133.1010, 98.00124
133.5831, 95.04462
134.0652, 92.69342
134.5473, 91.43832
135.0294, 90.94260
135.5115, 90.74635
135.9936, 90.56454
136.4758, 90.41084
136.9579, 90.52510
137.4400, 90.72229
137.9221, 91.39176
138.4042, 92.81564
138.8863, 94.82872
139.3685, 97.06940
139.8506, 99.22649
140.3327, 101.2704
140.8148, 103.4774
141.2969, 106.0710
141.7790, 108.6123
142.2612, 110.6256
142.7433, 112.1605
143.2254, 113.9176
143.7075, 116.8988
144.1896, 121.4414
144.6717, 124.7530
145.1539, 126.1841
145.6360, 126.5263
146.1181, 126.3277
146.6002, 125.4965
147.0823, 124.9689
147.5644, 126.0858
148.0466, 128.6014
148.5287, 131.4947
149.0108, 134.4290
149.4929, 137.4322
149.9750, 140.7541
150.4571, 145.0804
150.9393, 148.8024
151.4214, 151.0320
151.9035, 151.7475
152.3856, 150.9560
152.8677, 148.1515
153.3498, 143.1973
153.8320, 138.5369
154.3141, 134.8509
154.7962, 131.3585
155.2783, 127.5505
155.7604, 123.3972
156.2425, 119.4657
156.7247, 116.3692
157.2068, 113.8366
157.6889, 112.9438
158.1710, 114.3549
158.6531, 116.7092
159.1352, 119.0539
159.6174, 121.1069
160.0995, 123.2808
160.5816, 126.4075
161.0637, 131.3515
161.5458, 136.1942
162.0279, 140.3844
162.5101, 144.6581
162.9922, 149.7923
163.4743, 156.1451
163.9564, 163.3990
164.4385, 170.7731
164.9206, 178.6389
165.4028, 186.1585
165.8849, 192.5344
166.3670, 198.4909
166.8491, 205.4287
167.3312, 214.0112
167.8133, 223.9920
168.2955, 234.4195
168.7776, 244.7311
169.2597, 256.0663
169.7418, 269.4617
170.2239, 284.5741
170.7060, 299.8745
171.1882, 316.3223
171.6703, 331.3952
172.1524, 341.3924
172.6345, 345.7322
173.1166, 345.5451
173.5987, 340.7512
174.0809, 330.9132
174.5630, 320.3520
175.0451, 310.8587
175.5272, 301.8568
176.0093, 292.6118
176.4914, 282.5612
176.9736, 272.8839
177.4557, 265.5882
177.9378, 261.3700
178.4199, 257.9440
178.9020, 254.5796
179.3841, 251.4478
179.8663, 248.6468
180.3484, 246.1903
180.8305, 244.1993
181.3126, 243.0732
181.7947, 242.9248
182.2768, 243.6496
182.7590, 244.7370
183.2411, 246.6883
183.7232, 250.0654
184.2053, 255.1605
184.6874, 261.9794
185.1695, 270.4384
185.6517, 281.2236
186.1338, 293.1626
186.6159, 305.6450
187.0980, 319.2423
187.5801, 334.8366
188.0622, 353.1124
188.5444, 373.8749
189.0265, 395.7109
189.5086, 424.7841
189.9907, 448.5663
190.4728, 464.3966
190.9549, 471.9111
191.4371, 470.8196
191.9192, 460.6043
192.4013, 441.0833
192.8834, 415.3582
193.3655, 379.1384
193.8476, 341.6272
194.3298, 306.1605
194.8119, 273.0140
195.2940, 243.1632
195.7761, 217.0421
196.2582, 195.3078
196.7403, 176.9425
197.2225, 163.0092
197.7046, 151.6871
198.1867, 141.7653
198.6688, 133.1801
199.1509, 126.0502
199.6330, 120.8445
200.1152, 117.2039
200.5973, 114.3384
201.0794, 112.4971
201.5615, 111.1389
202.0436, 109.6104
202.5257, 107.8753
203.0079, 106.1590
203.4900, 105.0009
203.9721, 103.8607
204.4542, 101.9292
204.9363, 98.66462
205.4184, 94.66322
205.9006, 90.91493
206.3827, 87.28466
206.8648, 84.32566
207.3469, 82.33714
207.8290, 81.03735
208.3111, 80.17262
208.7933, 79.73449
209.2754, 79.54601
209.7575, 79.01933
210.2396, 77.71220
210.7217, 76.80405
211.2038, 76.60023
211.6860, 76.92812
212.1681, 77.61982
212.6502, 78.62348
213.1323, 79.86440
213.6144, 80.98529
214.0965, 81.80765
214.5787, 82.73792
215.0608, 84.14406
215.5429, 85.63678
216.0250, 86.70729
216.5071, 87.06694
216.9892, 86.77029
217.4713, 86.13348
217.9535, 84.96871
218.4356, 83.61736
218.9177, 81.98508
219.3998, 80.21876
219.8819, 78.48238
220.3640, 76.84981
220.8462, 75.35442
221.3283, 74.26001
221.8104, 73.48019
222.2925, 73.16361
222.7746, 73.72579
223.2567, 74.74944
223.7389, 75.57213
224.2210, 75.84816
224.7031, 75.58223
225.1852, 74.73139
225.6673, 73.48736
226.1494, 71.60374
226.6316, 68.45731
227.1137, 64.60468
227.5958, 61.23032
228.0779, 59.02292
228.5600, 57.71010
229.0421, 56.26650
229.5243, 54.44002
230.0064, 52.80831
230.4885, 51.63306
230.9706, 50.83228
231.4527, 50.19186
231.9348, 49.68509
232.4170, 49.20099
232.8991, 48.40605
233.3812, 46.95049
233.8633, 45.83432
234.3454, 45.84545
234.8275, 46.72966
235.3097, 47.39647
235.7918, 47.31132
236.2739, 46.85514
236.7560, 46.76147
237.2381, 47.16459
237.7202, 47.52109
238.2024, 47.37157
238.6845, 46.80173
239.1666, 46.38832
239.6487, 46.30006
240.1308, 46.50202
240.6129, 46.95293
241.0951, 47.68934
241.5772, 48.42513
242.0593, 48.94313
242.5414, 49.25517
243.0235, 49.53933
243.5056, 49.81498
243.9878, 50.09600
244.4699, 50.33001
244.9520, 50.52072
245.4341, 50.86628
245.9162, 51.53234
246.3983, 52.51805
246.8805, 53.70412
247.3626, 55.15748
247.8447, 56.75317
248.3268, 58.59434
248.8089, 60.60219
249.2910, 62.31011
249.7732, 63.07975
250.2553, 62.86042
250.7374, 63.09711
251.2195, 64.32838
251.7016, 65.67744
252.1837, 66.81167
252.6659, 67.70141
253.1480, 68.42422
253.6301, 69.10332
254.1122, 69.76845
254.5943, 69.96969
255.0764, 69.51142
255.5586, 68.70692
256.0407, 67.55831
256.5228, 66.13433
257.0049, 64.57207
257.4870, 62.94747
257.9691, 61.25687
258.4513, 59.67762
258.9334, 58.39030
259.4155, 57.04206
259.8976, 55.43153
260.3797, 53.67927
260.8618, 52.02317
261.3440, 50.62048
261.8261, 49.46783
262.3082, 48.62521
262.7903, 48.23841
263.2724, 48.05546
263.7545, 48.11554
264.2367, 48.33823
264.7188, 48.59563
265.2009, 48.79547
265.6830, 48.96324
266.1651, 49.30144
266.6472, 50.27746
267.1294, 50.92161
267.6115, 50.83907
268.0936, 50.36711
268.5757, 49.99509
269.0578, 49.99214
269.5399, 50.29457
270.0221, 50.62827
270.5042, 50.94017
270.9863, 51.35064
271.4684, 51.99158
271.9505, 52.70316
272.4326, 53.22152
272.9148, 53.42305
273.3969, 53.50298
273.8790, 54.00229
274.3611, 55.83798
274.8432, 56.99302
275.3253, 56.69910
275.8075, 55.97980
276.2896, 56.01442
276.7717, 57.22315
277.2538, 59.08207
277.7359, 60.60955
278.2180, 61.46014
278.7002, 62.49526
279.1823, 64.00436
279.6644, 65.54694
280.1465, 66.54855
280.6286, 66.89636
281.1107, 67.22655
281.5929, 68.52829
282.0750, 71.67400
282.5571, 73.55434
283.0392, 73.15739
283.5213, 72.16005
284.0034, 72.15113
284.4856, 73.29504
284.9677, 74.34059
285.4498, 73.82503
285.9319, 71.27580
286.4140, 69.52279
286.8961, 69.14958
287.3783, 69.09123
287.8604, 68.60282
288.3425, 67.66805
288.8246, 66.74136
289.3067, 66.28580
289.7888, 66.30085
290.2710, 65.74291
290.7531, 64.01686
291.2352, 62.30033
291.7173, 61.37064
292.1994, 61.09544
292.6815, 60.74349
293.1637, 59.78387
293.6458, 58.36019
294.1279, 57.40549
294.6100, 57.04228
295.0921, 56.94985
295.5742, 57.18024
296.0564, 57.59823
296.5385, 57.81582
297.0206, 57.58689
297.5027, 57.10527
297.9848, 56.98183
298.4669, 57.38617
298.9491, 57.77309
299.4312, 57.65272
299.9133, 57.42936
300.3954, 58.03767
300.8775, 59.95057
301.3596, 62.39459
301.8418, 63.79386
302.3239, 63.88998
302.8060, 64.24792
303.2881, 65.61451
303.7702, 67.33227
304.2523, 68.24675
304.7345, 67.99673
305.2166, 67.71516
305.6987, 69.06007
306.1808, 72.18320
306.6629, 74.81034
307.1451, 76.60643
307.6272, 77.78230
308.1093, 78.30140
308.5914, 78.16937
309.0735, 78.12172
309.5556, 78.91740
310.0378, 80.51819
310.5199, 81.75133
311.0020, 82.61696
311.4841, 83.05505
311.9662, 82.91377
312.4483, 82.23218
312.9305, 81.34789
313.4126, 80.38866
313.8947, 79.41148
314.3768, 78.62479
314.8589, 78.76555
315.3410, 78.33907
315.8232, 76.01001
316.3053, 72.31639
316.7874, 69.19126
317.2695, 67.58788
317.7516, 67.01727
318.2337, 66.29176
318.7159, 65.41850
319.1980, 64.41560
319.6801, 63.23431
320.1622, 61.93270
320.6443, 60.57160
321.1264, 59.12649
321.6086, 57.77290
322.0907, 56.88573
322.5728, 56.49860
323.0549, 56.09151
323.5370, 55.57658
324.0191, 54.97015
324.5013, 54.20142
324.9834, 53.23783
325.4655, 52.44915
325.9476, 52.40166
326.4297, 53.09341
326.9118, 53.10957
327.3940, 51.52848
327.8761, 49.79385
328.3582, 49.26250
328.8403, 49.91241
329.3224, 50.65775
329.8045, 50.71098
330.2867, 50.19389
330.7688, 50.01680
331.2509, 50.35589
331.7330, 50.84121
332.2151, 51.41097
332.6972, 51.99771
333.1794, 52.37916
333.6615, 52.41395
334.1436, 52.22121
334.6257, 52.13982
335.1078, 52.29520
335.5899, 52.29769
336.0721, 51.61011
336.5542, 50.78554
337.0363, 50.94841
337.5184, 52.54789
338.0005, 54.52370
338.4826, 55.10095
338.9648, 53.75289
339.4469, 53.40125
339.9290, 55.09100
340.4111, 57.51930
340.8932, 59.57853
341.3753, 61.07664
341.8574, 62.06788
342.3395, 62.42569
342.8217, 62.08771
343.3038, 62.56624
343.7859, 64.68996
344.2680, 66.86735
344.7501, 67.92863
345.2322, 68.12971
345.7144, 68.64894
346.1965, 70.30379
346.6786, 72.84326
347.1607, 74.77975
347.6428, 76.18855
348.1249, 77.07014
348.6071, 77.31138
349.0892, 77.04614
349.5713, 76.47980
350.0534, 75.68804
350.5355, 74.65929
351.0176, 73.31270
351.4998, 71.33286
351.9819, 69.65298
352.4640, 68.14104
352.9461, 67.04732
353.4282, 66.81097
353.9103, 67.43570
354.3925, 68.22003
354.8746, 68.33217
355.3567, 67.55269
355.8388, 67.23053
356.3209, 67.53305
356.8030, 68.07358
357.2852, 68.83937
357.7673, 69.69292
358.2494, 70.25333
358.7315, 70.17545
359.2136, 69.58254
359.6957, 69.75581
360.1779, 71.61690
360.6600, 73.12419
361.1421, 73.56213
361.6242, 73.49152
362.1063, 73.70831
362.5884, 74.55260
363.0706, 75.78783
363.5527, 76.88699
364.0348, 77.70824
364.5169, 78.61284
364.9990, 79.45967
365.4811, 80.47218
365.9633, 81.87798
366.4454, 83.67918
366.9275, 85.68837
367.4096, 87.79606
367.8917, 90.16146
368.3738, 91.70375
368.8560, 91.75804
369.3381, 91.71585
369.8202, 92.35384
370.3023, 93.32558
370.7844, 93.72836
371.2665, 92.89745
371.7487, 91.08059
372.2308, 89.71460
372.7129, 89.30328
373.1950, 88.67890
373.6771, 87.66826
374.1592, 86.35767
374.6414, 84.84699
375.1235, 83.16900
375.6056, 81.30564
376.0877, 79.12682
376.5698, 76.30686
377.0519, 74.09487
377.5341, 72.74509
378.0162, 71.86869
378.4983, 71.42101
378.9804, 71.31105
379.4625, 71.28570
379.9446, 71.05952
380.4268, 70.64610
380.9089, 70.62970
381.3910, 71.57271
381.8731, 72.18415
382.3552, 71.63337
382.8373, 70.51521
383.3195, 69.75026
383.8016, 69.74699
384.2837, 70.41735
384.7658, 71.70895
385.2479, 73.81828
385.7300, 75.86985
386.2122, 77.54265
386.6943, 79.04985
387.1764, 80.47527
387.6585, 81.83593
388.1406, 83.28667
388.6227, 84.98546
389.1049, 86.92511
389.5870, 88.92487
390.0691, 91.02632
390.5512, 93.08630
391.0333, 95.04921
391.5154, 96.90529
391.9976, 98.62888
392.4797, 100.3414
392.9618, 101.8736
393.4439, 102.9640
393.9260, 103.6376
394.4081, 103.7193
394.8903, 102.6739
395.3724, 101.0877
395.8545, 99.99644
396.3366, 99.78056
396.8187, 99.57730
397.3008, 98.76228
397.7830, 97.41038
398.2651, 95.79443
398.7472, 93.92570
399.2293, 91.96364
399.7114, 89.99402
400.1935, 87.94682
400.6757, 86.57972
401.1578, 86.86892
401.6399, 87.60973
402.1220, 87.16570
402.6041, 85.34940
403.0862, 83.24059
403.5684, 81.64714
404.0505, 80.55962
404.5326, 79.48524
405.0147, 78.59953
405.4968, 77.55792
405.9789, 75.94743
406.4611, 74.04418
406.9432, 72.56856
407.4253, 71.86256
407.9074, 71.61167
408.3895, 71.10117
408.8716, 70.08505
409.3538, 69.27629
409.8359, 68.56860
410.3180, 68.18099
410.8001, 68.37354
411.2822, 69.14768
411.7643, 70.28765
412.2465, 71.64125
412.7286, 73.27460
413.2107, 74.41605
413.6928, 74.21426
414.1749, 74.50475
414.6570, 76.07290
415.1392, 78.54403
415.6213, 81.15230
416.1034, 83.49401
416.5855, 85.88425
417.0676, 89.20329
417.5497, 94.00125
418.0319, 98.82807
418.5140, 103.0983
418.9961, 107.6973
419.4782, 113.0823
419.9603, 119.4002
420.4424, 126.8575
420.9246, 136.0134
421.4067, 147.0067
421.8888, 156.9449
422.3709, 165.0209
422.8530, 172.9637
423.3351, 181.5518
423.8173, 190.4194
424.2994, 199.0667
424.7815, 207.3146
425.2636, 215.0621
425.7457, 221.7681
426.2278, 227.0888
426.7100, 232.9845
427.1921, 239.5170
427.6742, 247.2266
428.1563, 256.5811
428.6384, 267.6376
429.1205, 279.9355
429.6027, 293.7773
430.0848, 308.6536
430.5669, 322.3786
431.0490, 333.6403
431.5311, 346.6724
432.0132, 365.8685
432.4954, 389.0131
432.9775, 411.9334
433.4596, 431.4461
433.9417, 453.1026
434.4238, 481.5663
434.9059, 516.5751
435.3881, 555.8523
435.8702, 598.4950
436.3523, 645.0186
436.8344, 696.8757
437.3165, 753.9602
437.7986, 813.5306
438.2808, 879.1752
438.7629, 944.7443
439.2450, 1006.854
439.7271, 1063.997
440.2092, 1107.079
440.6913, 1129.856
441.1735, 1131.532
441.6556, 1108.194
442.1377, 1052.105
442.6198, 983.9442
443.1019, 903.5721
443.5840, 817.1030
444.0662, 732.9352
444.5483, 653.5222
445.0304, 580.2357
445.5125, 514.2567
445.9946, 455.2637
446.4767, 406.3386
446.9589, 369.7151
447.4410, 339.2204
447.9231, 312.1854
448.4052, 287.9629
448.8873, 266.7811
449.3694, 248.9224
449.8516, 234.0714
450.3337, 220.8367
450.8158, 209.6948
451.2979, 199.5913
451.7800, 190.1701
452.2621, 181.6191
452.7443, 174.2857
453.2264, 168.2114
453.7085, 162.9555
454.1906, 157.8611
454.6727, 152.8987
455.1548, 149.1234
455.6370, 147.1309
456.1191, 145.7362
456.6012, 144.2388
457.0833, 142.7749
457.5654, 141.7023
458.0475, 141.4133
458.5297, 141.3324
459.0118, 140.7656
459.4939, 139.7207
459.9760, 137.9879
460.4581, 135.2987
460.9402, 131.9995
461.4224, 128.5542
461.9045, 124.9374
462.3866, 121.4224
462.8687, 118.3126
463.3508, 115.2854
463.8329, 111.7376
464.3151, 107.5939
464.7972, 103.4336
465.2793, 99.61958
465.7614, 96.19145
466.2435, 93.35651
466.7256, 91.17563
467.2078, 89.48242
467.6899, 88.53197
468.1720, 87.95296
468.6541, 87.04216
469.1362, 85.57237
469.6183, 84.10698
470.1005, 83.52438
470.5826, 84.27440
471.0647, 84.43319
471.5468, 83.51369
472.0289, 82.55437
472.5110, 81.98848
472.9932, 81.80443
473.4753, 81.80155
473.9574, 81.83531
474.4395, 82.07640
474.9216, 83.15424
475.4037, 85.70866
475.8859, 87.81065
476.3680, 89.10892
476.8501, 90.01840
477.3322, 90.52197
477.8143, 90.79328
478.2964, 91.49931
478.7786, 93.32671
479.2607, 96.13273
479.7428, 99.02700
480.2249, 102.3110
480.7070, 105.0380
481.1891, 106.6605
481.6713, 107.5205
482.1534, 107.9422
482.6355, 107.9724
483.1176, 107.6610
483.5997, 107.1461
484.0818, 106.3487
484.5640, 105.0324
485.0461, 103.2754
485.5282, 100.6173
486.0103, 95.87385
486.4924, 89.38533
486.9745, 84.24117
487.4567, 82.01248
487.9388, 80.24504
488.4209, 77.17142
488.9030, 73.12671
489.3851, 69.15662
489.8672, 65.71666
490.3494, 62.73037
490.8315, 60.00785
491.3136, 57.50761
491.7957, 55.42511
492.2778, 53.91585
492.7599, 52.69994
493.2421, 51.67075
493.7242, 50.76078
494.2063, 49.87569
494.6884, 48.93989
495.1705, 47.97092
495.6526, 47.04874
496.1348, 46.13390
496.6169, 45.33409
497.0990, 44.59114
497.5811, 43.99704
498.0632, 43.74415
498.5453, 43.80369
499.0275, 43.79311
499.5096, 43.21783
499.9917, 42.15841
500.4738, 41.53926
500.9559, 41.61056
501.4380, 41.63270
501.9202, 41.05273
502.4023, 40.25322
502.8844, 39.79796
503.3665, 39.92667
503.8486, 40.07983
504.3307, 39.65322
504.8129, 38.85313
505.2950, 38.43566
505.7771, 38.61340
506.2592, 39.03040
506.7413, 39.41697
507.2234, 39.75948
507.7055, 39.89944
508.1877, 39.63727
508.6698, 39.34887
509.1519, 39.28823
509.6340, 39.36742
510.1161, 39.36784
510.5982, 39.19778
511.0804, 38.93953
511.5625, 38.73116
512.0446, 38.58133
512.5267, 38.46603
513.0089, 38.24600
513.4910, 38.18447
513.9731, 38.69827
514.4552, 39.47625
514.9373, 39.71560
515.4194, 38.86577
515.9016, 37.51128
516.3837, 37.30958
516.8658, 38.79935
517.3479, 39.96959
517.8300, 40.17474
518.3121, 40.21488
518.7943, 40.65823
519.2764, 41.43388
519.7585, 41.97591
520.2406, 41.64075
520.7227, 40.93048
521.2048, 41.04725
521.6870, 42.09729
522.1691, 43.09597
522.6512, 43.48339
523.1333, 43.66162
523.6154, 44.40232
524.0975, 45.89834
524.5797, 47.05060
525.0618, 47.09887
525.5439, 46.75922
526.0260, 46.88207
526.5081, 47.56017
526.9902, 48.63071
527.4724, 50.11288
527.9545, 51.83804
528.4366, 52.72266
528.9187, 51.89263
529.4008, 51.42279
529.8829, 51.70190
530.3651, 52.38232
530.8472, 53.21255
531.3293, 54.10653
531.8114, 55.01122
532.2935, 55.92874
532.7756, 56.83849
533.2578, 57.28436
533.7399, 57.00598
534.2220, 56.63717
534.7041, 56.06581
535.1862, 55.64807
535.6683, 55.91408
536.1505, 56.96424
536.6326, 57.99829
537.1147, 58.19998
537.5968, 57.73356
538.0789, 57.30042
538.5610, 56.87863
539.0432, 56.73120
539.5253, 57.22655
540.0074, 58.09727
540.4895, 58.71477
540.9716, 58.87747
541.4537, 59.04494
541.9359, 59.39691
542.4180, 59.92603
542.9001, 60.69892
543.3822, 61.72178
543.8643, 62.69387
544.3464, 63.26336
544.8286, 63.40660
545.3107, 64.04384
545.7928, 65.53544
546.2749, 67.01765
546.7570, 68.47995
547.2391, 69.72386
547.7213, 70.47636
548.2034, 70.69231
548.6855, 70.66631
549.1676, 70.79848
549.6497, 71.12276
550.1318, 71.00163
550.6140, 70.06870
551.0961, 69.20078
551.5782, 68.95484
552.0603, 68.87678
552.5424, 68.28103
553.0245, 66.90012
553.5067, 65.49720
553.9888, 64.86346
554.4709, 64.80245
554.9530, 64.56737
555.4351, 64.03635
555.9172, 63.36938
556.3994, 62.56581
556.8815, 61.71929
557.3636, 61.25848
557.8457, 61.51238
558.3278, 61.78525
558.8099, 61.81548
559.2921, 61.68880
559.7742, 61.37853
560.2563, 60.92992
560.7384, 60.79735
561.2205, 61.52673
561.7026, 63.16570
562.1848, 64.53665
562.6669, 65.10967
563.1490, 66.03877
563.6311, 68.23535
564.1132, 70.54622
564.5953, 71.39528
565.0775, 70.51564
565.5596, 69.51395
566.0417, 70.43187
566.5238, 73.01097
567.0059, 74.41233
567.4880, 74.18614
567.9702, 73.70634
568.4523, 73.65697
568.9344, 73.82279
569.4165, 73.92702
569.8986, 73.92908
570.3807, 73.89082
570.8629, 73.88703
571.3450, 73.85194
571.8271, 73.64003
572.3092, 73.23602
572.7913, 72.79376
573.2734, 72.38403
573.7556, 72.03934
574.2377, 71.98900
574.7198, 72.68398
575.2019, 73.05629
575.6840, 72.32967
576.1661, 71.63924
576.6483, 72.28079
577.1304, 74.18815
577.6125, 76.06216
578.0946, 76.65534
578.5767, 76.35048
579.0588, 77.39752
579.5410, 80.43063
580.0231, 83.37127
580.5052, 85.24825
580.9873, 87.07795
581.4694, 89.71211
581.9515, 93.18105
582.4337, 96.83324
582.9158, 100.1774
583.3979, 103.5233
583.8800, 107.3949
584.3621, 111.7966
584.8442, 116.1896
585.3264, 120.3403
585.8085, 124.2983
586.2906, 128.1360
586.7727, 131.5981
587.2548, 135.6801
587.7369, 140.7833
588.2190, 146.2563
588.7011, 151.4446
589.1832, 156.6354
589.6653, 162.7187
590.1475, 170.1926
590.6296, 178.5686
591.1117, 186.8519
591.5938, 194.8399
592.0759, 203.1928
592.5580, 211.6269
593.0402, 220.7789
593.5223, 230.9334
594.0044, 242.1053
594.4865, 254.4418
594.9686, 268.6485
595.4507, 282.8493
595.9329, 294.4298
596.4150, 304.0106
596.8971, 314.3712
597.3792, 326.1333
597.8613, 338.8232
598.3434, 352.3831
598.8256, 366.7817
599.3077, 380.2709
599.7898, 395.1202
600.2719, 406.4599
600.7540, 412.6591
601.2361, 414.2114
601.7183, 411.9003
602.2004, 405.8612
602.6825, 395.3040
603.1646, 378.9990
603.6467, 357.0738
604.1288, 333.9446
604.6110, 308.7813
605.0931, 283.6803
605.5752, 257.5730
606.0573, 232.6803
606.5394, 210.7570
607.0215, 192.2049
607.5037, 175.9334
607.9858, 161.4334
608.4679, 148.7206
608.9500, 138.2031
609.4321, 129.8240
609.9142, 122.0561
610.3964, 114.0156
610.8785, 106.3150
611.3606, 100.2721
611.8427, 95.96564
612.3248, 92.66772
612.8069, 90.88441
613.2891, 89.57265
613.7712, 88.09472
614.2533, 86.48997
614.7354, 85.04800
615.2175, 83.91973
615.6996, 82.93556
616.1818, 81.69321
616.6639, 80.01591
617.1460, 78.90491
617.6281, 78.64437
618.1102, 78.71761
618.5923, 78.86269
619.0745, 79.15553
619.5566, 79.72295
620.0387, 80.58086
620.5208, 81.79331
621.0029, 83.57539
621.4850, 85.73933
621.9672, 87.69627
622.4493, 89.33665
622.9314, 91.23158
623.4135, 93.70937
623.8956, 96.82562
624.3777, 100.9741
624.8599, 106.6024
625.3420, 112.5720
625.8241, 118.1776
626.3062, 124.5101
626.7883, 133.1077
627.2704, 143.5226
627.7526, 153.6255
628.2347, 162.1954
628.7168, 169.0452
629.1989, 173.7833
629.6810, 176.3974
630.1631, 176.9481
630.6453, 176.1833
631.1274, 172.3216
631.6095, 162.9570
632.0916, 149.3438
632.5737, 136.5458
633.0558, 126.0632
633.5380, 117.0727
634.0201, 109.0275
634.5022, 101.9711
634.9843, 96.05321
635.4664, 91.27000
635.9485, 87.69621
636.4307, 85.53756
636.9128, 84.81120
637.3949, 83.95190
637.8770, 82.67979
638.3591, 81.60831
638.8412, 80.20392
639.3234, 79.44769
639.8055, 80.74039
640.2876, 83.92924
640.7697, 86.99184
641.2518, 88.12105
641.7339, 88.12264
642.2161, 89.00006
642.6982, 90.79030
643.1803, 93.08543
643.6624, 96.08546
644.1445, 99.09320
644.6266, 100.9376
645.1088, 101.6298
645.5909, 102.7898
646.0730, 104.3601
646.5551, 106.7281
647.0372, 111.2105
647.5193, 116.3716
648.0015, 119.2409
648.4836, 119.0526
648.9657, 118.2160
649.4478, 119.7915
649.9299, 123.8239
650.4120, 126.9365
650.8942, 128.3951
651.3763, 130.1766
651.8584, 132.9331
652.3405, 136.2704
652.8226, 139.9754
653.3047, 144.0095
653.7869, 147.9801
654.2690, 151.5051
654.7511, 154.9463
655.2332, 158.7098
655.7153, 162.8289
656.1974, 167.4015
656.6796, 172.5508
657.1617, 177.8050
657.6438, 182.3305
658.1259, 185.7713
658.6080, 190.0344
659.0901, 195.5111
659.5723, 201.2212
660.0544, 207.3947
660.5365, 213.3489
661.0186, 218.4701
661.5007, 222.5083
661.9828, 225.1409
662.4650, 225.5796
662.9471, 224.2804
663.4292, 223.5557
663.9113, 223.8525
664.3934, 221.9029
664.8755, 215.4511
665.3577, 206.6630
665.8398, 199.1300
666.3219, 193.0494
666.8040, 186.7053
667.2861, 179.6393
667.7682, 172.4175
668.2504, 165.5842
668.7325, 158.8065
669.2146, 150.9712
669.6967, 141.8000
670.1788, 132.9187
670.6609, 126.7410
671.1431, 123.3486
671.6252, 119.4933
672.1073, 114.8415
672.5894, 110.3285
673.0715, 106.2281
673.5536, 102.4842
674.0358, 99.15767
674.5179, 96.25341
675.0000, 93.41267
675.4821, 90.21371
675.9642, 87.18227
676.4464, 85.12765
676.9285, 83.81195
677.4106, 82.22078
677.8927, 79.91832
678.3748, 77.58389
678.8569, 76.36786
679.3391, 76.66640
679.8212, 75.69334
680.3033, 72.01588
680.7854, 68.75591
681.2675, 66.77788
681.7496, 65.51668
682.2318, 64.48180
682.7139, 63.53967
683.1960, 62.43124
683.6781, 60.83555
684.1602, 59.01269
684.6423, 57.30070
685.1245, 55.74340
685.6066, 54.75487
686.0887, 54.61895
686.5708, 54.74161
687.0529, 54.25989
687.5350, 53.03905
688.0172, 51.92497
688.4993, 50.92441
688.9814, 50.01124
689.4635, 49.25273
689.9456, 48.54152
690.4277, 47.67010
690.9099, 46.64251
691.3920, 45.81035
691.8741, 45.50147
692.3562, 45.59557
692.8383, 45.95733
693.3204, 46.63227
693.8026, 46.53147
694.2847, 44.91684
694.7668, 43.01557
695.2489, 42.49304
695.7310, 43.42983
696.2131, 43.83773
696.6953, 43.27546
697.1774, 42.59083
697.6595, 41.97634
698.1416, 41.49973
698.6237, 41.32293
699.1058, 41.40771
699.5880, 41.42148
700.0701, 41.08403
700.5522, 40.44756
701.0343, 39.54953
701.5164, 38.24133
701.9985, 37.62306
702.4807, 38.37580
702.9628, 39.39187
703.4449, 39.34020
703.9270, 38.50524
704.4091, 38.32719
704.8912, 40.00100
705.3734, 41.20870
705.8555, 40.49680
706.3376, 38.97803
706.8197, 37.97583
707.3018, 37.69631
707.7839, 37.73842
708.2661, 37.81334
708.7482, 37.94714
709.2303, 38.35857
709.7124, 39.27734
710.1945, 39.38319
710.6766, 37.80033
711.1588, 36.20579
711.6409, 35.84019
712.1230, 36.35307
712.6051, 36.89730
713.0872, 37.44558
713.5693, 37.77739
714.0515, 37.58643
714.5336, 37.23858
715.0157, 37.19947
715.4978, 37.47657
715.9799, 37.87269
716.4620, 38.29610
716.9442, 38.57426
717.4263, 38.14081
717.9084, 36.65337
718.3905, 35.96447
718.8726, 36.64041
719.3547, 37.49120
719.8369, 38.03175
720.3190, 38.31089
720.8011, 38.31455
721.2832, 37.93876
721.7653, 37.78484
722.2474, 38.52436
722.7296, 39.37315
723.2117, 39.27213
723.6938, 38.44497
724.1759, 37.90012
724.6580, 38.09722
725.1401, 38.64991
725.6223, 38.94785
726.1044, 38.94792
726.5865, 39.05761
727.0686, 39.34388
727.5507, 39.63442
728.0328, 39.92031
728.5150, 40.15157
728.9971, 40.16097
729.4792, 39.94804
729.9613, 40.07068
730.4434, 41.12007
730.9255, 42.29972
731.4077, 42.86034
731.8898, 42.97819
732.3719, 43.04980
732.8540, 43.20658
733.3361, 43.53295
733.8182, 44.16837
734.3004, 45.05972
734.7825, 45.62801
735.2646, 45.79186
735.7467, 45.80089
736.2288, 45.53219
736.7109, 45.27122
737.1931, 45.28703
737.6752, 45.49871
738.1573, 45.51374
738.6394, 44.67737
739.1215, 44.37067
739.6036, 46.09547
740.0858, 48.70567
740.5679, 50.53848
741.0500, 51.32454
741.5321, 51.30309
742.0142, 50.51540
742.4963, 49.47544
742.9785, 49.79730
743.4606, 51.99903
743.9427, 53.63137
744.4248, 54.20894
744.9069, 54.59649
745.3890, 55.17394
745.8712, 55.89672
746.3533, 56.77383
746.8354, 57.93148
747.3175, 58.72290
747.7996, 58.53175
748.2817, 58.07327
748.7639, 57.79869
749.2460, 57.90359
749.7281, 58.95545
750.2102, 61.17397
750.6923, 63.61469
751.1744, 64.91309
751.6566, 65.05230
752.1387, 65.45368
752.6208, 66.05480
753.1029, 67.08669
753.5850, 69.12517
754.0671, 71.24522
754.5493, 72.41547
755.0314, 72.66344
755.5135, 72.89400
755.9956, 73.15096
756.4777, 73.63679
756.9598, 74.53890
757.4420, 75.70837
757.9241, 77.00901
758.4062, 78.37034
758.8883, 79.64671
759.3704, 80.73388
759.8525, 81.65528
760.3347, 82.38554
760.8168, 82.85850
761.2989, 83.78124
761.7810, 85.59262
762.2631, 87.23093
762.7452, 87.74226
763.2274, 87.48681
763.7095, 87.64299
764.1916, 88.58217
764.6737, 89.18156
765.1558, 88.85106
765.6379, 88.37856
766.1201, 88.39100
766.6022, 88.73666
767.0843, 89.11774
767.5664, 89.39966
768.0485, 89.22905
768.5306, 87.89398
769.0128, 85.67756
769.4949, 84.16125
769.9770, 83.47267
770.4591, 82.44786
770.9412, 80.53497
771.4233, 78.23920
771.9055, 76.23291
772.3876, 74.56757
772.8697, 72.68838
773.3518, 70.23653
773.8339, 68.02055
774.3160, 66.28773
774.7982, 64.86980
775.2803, 63.72676
775.7624, 62.76209
776.2445, 61.70840
776.7266, 60.35994
777.2087, 58.95861
777.6909, 57.99855
778.1730, 57.29034
778.6551, 55.93345
779.1372, 53.76195
779.6193, 51.86559
780.1014, 51.02801
780.5836, 50.86991
781.0657, 50.29503
781.5478, 49.11435
782.0299, 47.93781
782.5120, 46.42285
782.9941, 45.28104
783.4763, 45.05039
783.9584, 45.22261
784.4405, 45.12454
784.9226, 44.62638
785.4047, 43.98366
785.8868, 43.29681
786.3690, 42.58032
786.8511, 41.71830
787.3332, 40.84339
787.8153, 40.41164
788.2974, 40.52884
788.7795, 40.66681
789.2617, 40.25642
789.7438, 39.42550
790.2259, 38.99189
790.7080, 39.02517
791.1901, 39.28141
791.6722, 40.13056
792.1544, 40.70726
792.6365, 40.04043
793.1186, 38.66644
793.6007, 38.01844
794.0828, 38.64703
794.5649, 39.19767
795.0471, 38.96030
795.5292, 38.61644
796.0113, 38.76800
796.4934, 39.33086
796.9755, 40.02344
797.4576, 40.72541
797.9398, 41.35272
798.4219, 41.88340
798.9040, 42.26718
799.3861, 42.07745
799.8682, 41.22590
800.3503, 40.71503
800.8325, 40.94504
801.3146, 41.53944
801.7967, 42.07071
802.2788, 42.53608
802.7609, 43.20681
803.2430, 44.42061
803.7252, 45.36320
804.2073, 45.73734
804.6894, 45.92974
805.1715, 46.17595
805.6536, 46.51109
806.1357, 46.85415
806.6179, 47.07444
807.1000, 47.67674
807.5821, 49.74681
808.0642, 52.32388
808.5463, 53.25127
809.0284, 52.55895
809.5106, 51.79659
809.9927, 51.67720
810.4748, 51.94931
810.9569, 52.14608
811.4390, 52.19514
811.9211, 53.21303
812.4033, 55.94463
812.8854, 58.25343
813.3675, 59.38790
813.8496, 59.93349
814.3317, 60.29232
814.8138, 60.48700
815.2960, 60.54891
815.7781, 60.35567
816.2602, 60.19613
816.7423, 60.18453
817.2244, 60.28355
817.7065, 60.58129
818.1887, 60.96011
818.6708, 61.05431
819.1529, 60.66336
819.6350, 60.06159
820.1171, 59.79896
820.5992, 59.72875
821.0814, 58.69825
821.5635, 56.53779
822.0456, 54.78071
822.5277, 54.13066
823.0098, 54.09539
823.4919, 54.04591
823.9741, 54.01024
824.4562, 53.68223
824.9383, 53.13660
825.4204, 52.19614
825.9025, 50.46473
826.3846, 48.62223
826.8668, 47.16777
827.3489, 46.09646
827.8310, 45.22892
828.3131, 44.53677
828.7952, 43.94316
829.2773, 43.51802
829.7595, 43.08621
830.2416, 42.30441
830.7237, 41.24407
831.2058, 40.26656
831.6879, 39.53918
832.1700, 39.07854
832.6522, 38.99641
833.1343, 39.26910
833.6164, 39.21593
834.0985, 38.73833
834.5806, 38.34892
835.0627, 38.34980
835.5449, 38.30138
836.0270, 37.70127
836.5091, 36.57764
836.9912, 35.48589
837.4733, 33.95413
837.9554, 33.11842
838.4376, 33.70833
838.9197, 34.60567
839.4018, 35.26708
839.8839, 35.51574
840.3660, 35.02477
840.8481, 33.62243
841.3303, 32.32035
841.8124, 32.19758
842.2945, 32.62193
842.7766, 32.35859
843.2587, 31.59347
843.7408, 31.57908
844.2230, 32.71879
844.7051, 33.69418
845.1872, 32.95350
845.6693, 30.82807
846.1514, 29.56021
846.6335, 29.23445
847.1157, 29.53856
847.5978, 31.04820
848.0799, 32.29046
848.5620, 31.94023
849.0441, 30.61594
849.5262, 29.81816
850.0084, 29.78130
850.4905, 29.76154
850.9726, 29.46488
851.4547, 29.30700
851.9368, 29.74033
852.4189, 30.37160
852.9011, 30.60416
853.3832, 30.33354
853.8653, 29.91821
854.3474, 29.55658
854.8295, 29.24913
855.3116, 29.02288
855.7938, 28.85092
856.2759, 28.57042
856.7580, 28.17712
857.2401, 28.08847
857.7222, 28.64396
858.2043, 29.49423
858.6865, 29.81510
859.1686, 29.55108
859.6507, 28.98480
860.1328, 27.80183
860.6149, 26.97094
861.0970, 27.07133
861.5792, 27.58249
862.0613, 27.82514
862.5434, 27.80244
863.0255, 27.95182
863.5076, 28.60171
863.9897, 29.06919
864.4719, 29.18730
864.9540, 28.99163
865.4361, 28.28861
865.9182, 27.31869
866.4003, 26.69804
866.8824, 26.70187
867.3646, 26.96120
867.8467, 27.12118
868.3288, 27.30141
868.8109, 27.91418
869.2930, 28.79938
869.7751, 29.05437
870.2573, 28.36513
870.7394, 27.61915
871.2215, 27.89716
871.7036, 28.91807
872.1857, 28.86524
872.6678, 27.38970
873.1500, 26.47407
873.6321, 26.61061
874.1142, 27.04783
874.5963, 27.40392
875.0784, 27.64505
875.5605, 27.61983
876.0427, 27.11740
876.5248, 26.97178
877.0069, 27.75451
877.4890, 28.30823
877.9711, 27.94752
878.4532, 27.20259
878.9354, 26.63995
879.4175, 26.34820
879.8996, 26.22085
880.3817, 26.16706
880.8638, 26.31024
881.3459, 27.01722
881.8281, 27.87011
882.3102, 28.12544
882.7923, 27.80252
883.2744, 27.36737
883.7565, 27.05101
884.2386, 26.83379
884.7208, 26.68264
885.2029, 26.60269
885.6850, 26.63779
886.1671, 26.78959
886.6492, 27.10566
887.1313, 27.72239
887.6135, 28.11982
888.0956, 27.69396
888.5777, 26.60651
889.0598, 25.91522
889.5419, 25.71926
890.0240, 25.75795
890.5062, 26.39432
890.9883, 26.85102
891.4704, 26.61865
891.9525, 26.08081
892.4346, 25.81540
892.9167, 25.90108
893.3989, 25.94400
893.8810, 25.81862
894.3631, 25.60220
894.8452, 25.08809
895.3273, 24.66284
895.8094, 25.02100
896.2916, 25.98899
896.7737, 26.61354
897.2558, 26.34952
897.7379, 25.79318
898.2200, 25.61867
898.7021, 25.72510
899.1843, 25.97849
899.6664, 26.31276
900.1485, 26.30768
900.6306, 25.80027
901.1127, 25.16935
901.5948, 24.83946
902.0770, 24.76466
902.5591, 24.61165
903.0412, 24.30833
903.5233, 24.28028
904.0054, 24.71456
904.4875, 25.18475
904.9697, 25.44790
905.4518, 25.55042
905.9339, 25.57146
906.4160, 25.44663
906.8981, 25.46982
907.3802, 25.95864
907.8624, 26.20705
908.3445, 25.92530
908.8266, 25.35095
909.3087, 24.51522
909.7908, 23.57889
910.2729, 23.03808
910.7551, 23.06626
911.2372, 23.51788
911.7193, 24.80783
912.2014, 26.09049
912.6835, 26.34284
913.1656, 25.83927
913.6478, 25.29997
914.1299, 24.98375
914.6120, 24.83031
915.0941, 24.80693
915.5762, 24.88749
916.0583, 25.11796
916.5404, 25.42652
917.0225, 25.38411
917.5046, 24.92558
917.9868, 24.43236
918.4689, 24.12074
918.9510, 24.00998
919.4331, 24.18603
919.9152, 24.68863
920.3973, 25.02310
920.8795, 25.13835
921.3616, 25.23678
921.8437, 25.40606
922.3258, 25.53563
922.8079, 25.40013
923.2900, 25.08998
923.7722, 25.27811
924.2543, 26.75600
924.7364, 27.44746
925.2185, 26.66487
925.7006, 25.74164
926.1827, 25.12809
926.6649, 24.85398
927.1470, 25.09195
927.6291, 25.80559
928.1112, 26.14984
928.5933, 25.21243
929.0754, 24.48474
929.5576, 25.01385
930.0397, 26.12455
930.5218, 27.31363
931.0039, 28.32271
931.4860, 28.73378
931.9681, 28.36329
932.4503, 27.71282
932.9324, 27.03230
933.4145, 26.53904
933.8966, 26.94459
934.3787, 27.93522
934.8608, 28.14091
935.3430, 27.30775
935.8251, 26.57407
936.3072, 26.84647
936.7893, 27.65402
937.2714, 27.79934
937.7535, 27.27050
938.2357, 27.34619
938.7178, 28.22976
939.1999, 28.88662
939.6820, 28.84899
940.1641, 28.57738
940.6462, 28.58140
941.1284, 28.85063
941.6105, 29.26246
942.0926, 30.11073
942.5747, 30.50879
943.0568, 29.91447
943.5389, 29.40724
944.0211, 29.66619
944.5032, 30.27488
944.9853, 30.55989
945.4674, 30.44379
945.9495, 30.58527
946.4316, 31.53234
946.9138, 32.19165
947.3959, 31.58293
947.8780, 31.01526
948.3601, 32.05573
948.8422, 34.08147
949.3243, 35.15401
949.8065, 34.53899
950.2886, 33.96847
950.7707, 34.72889
951.2528, 35.86410
951.7349, 36.49844
952.2170, 36.81368
952.6992, 37.15788
953.1813, 37.61966
953.6634, 38.21745
954.1455, 38.99999
954.6276, 39.75378
955.1097, 39.98547
955.5919, 40.00840
956.0740, 40.68417
956.5561, 41.99943
957.0382, 43.61827
957.5203, 45.41500
958.0024, 47.06733
958.4846, 48.18356
958.9667, 48.99199
959.4488, 50.36101
959.9309, 52.32117
960.4130, 54.00251
960.8951, 55.19668
961.3773, 56.80281
961.8594, 59.38859
962.3415, 62.33504
962.8236, 64.67616
963.3057, 66.39883
963.7878, 68.86341
964.2700, 71.96193
964.7521, 76.11104
965.2342, 82.56818
965.7163, 88.55370
966.1984, 91.37311
966.6805, 92.89794
967.1627, 96.94234
967.6448, 103.8775
968.1269, 111.4866
968.6090, 118.8405
969.0911, 127.8725
969.5732, 139.2474
970.0554, 152.4719
970.5375, 165.8165
971.0196, 180.7350
971.5017, 201.1364
971.9838, 228.6107
972.4659, 258.7141
972.9481, 291.3417
973.4302, 324.0102
973.9123, 356.6392
974.3944, 387.0783
974.8765, 411.7972
975.3586, 431.4740
975.8408, 450.5594
976.3229, 470.6856
976.8050, 492.8318
977.2871, 516.7907
977.7692, 544.1598
978.2513, 576.8215
978.7335, 614.8000
979.2156, 657.7816
979.6977, 705.6413
980.1798, 759.5114
980.6619, 819.7772
981.1440, 887.9282
981.6262, 965.4344
982.1083, 1053.586
982.5904, 1152.678
983.0725, 1264.805
983.5546, 1400.326
984.0367, 1562.626
984.5189, 1755.852
985.0010, 1988.358
985.4831, 2246.118
985.9652, 2496.335
986.4473, 2739.445
986.9294, 2890.505
987.4116, 2941.732
987.8937, 2876.295
988.3758, 2674.226
988.8579, 2384.422
989.3400, 2059.367
989.8221, 1702.773
990.3043, 1399.080
990.7864, 1152.111
991.2685, 943.6232
991.7506, 774.5320
992.2327, 637.3108
992.7148, 532.9094
993.1970, 454.1944
993.6791, 389.7142
994.1612, 340.3044
994.6433, 298.2972
995.1254, 266.0845
995.6075, 237.7219
996.0897, 212.6803
996.5718, 190.9693
997.0539, 173.4693
997.5360, 159.1409
998.0181, 146.1220
998.5002, 134.2522
998.9824, 123.8509
999.4645, 115.2454
999.9466, 107.7980
1000.429, 101.6545
1000.911, 96.32050
1001.393, 91.63559
1001.875, 87.39228
1002.357, 83.29103
1002.839, 79.28897
1003.321, 75.16380
1003.804, 70.15195
1004.286, 65.70563
1004.768, 62.90755
1005.250, 60.99202
1005.732, 59.29592
1006.214, 57.61727
1006.696, 55.74407
1007.178, 53.56710
1007.660, 51.50465
1008.143, 49.84612
1008.625, 48.42823
1009.107, 47.11727
1009.589, 45.93458
1010.071, 44.97263
1010.553, 44.20106
1011.035, 43.50553
1011.517, 42.86177
1012.000, 42.06003
1012.482, 40.66438
1012.964, 39.12943
1013.446, 38.27544
1013.928, 37.85573
1014.410, 37.08385
1014.892, 35.88820
1015.374, 34.95937
1015.856, 34.77505
1016.339, 34.76229
1016.821, 33.95586
1017.303, 32.72942
1017.785, 32.20747
1018.267, 32.25057
1018.749, 31.90882
1019.231, 30.98882
1019.713, 30.32615
1020.195, 30.59929
1020.678, 31.18023
1021.160, 30.73706
1021.642, 29.47845
1022.124, 28.73605
1022.606, 28.54276
1023.088, 28.67242
1023.570, 29.07368
1024.052, 29.50864
1024.535, 29.79531
1025.017, 29.94748
1025.499, 30.01006
1025.981, 29.98358
1026.463, 29.72238
1026.945, 29.16924
1027.427, 28.87914
1027.909, 29.04624
1028.391, 29.42590
1028.874, 29.84936
1029.356, 30.25469
1029.838, 30.41774
1030.320, 30.27608
1030.802, 30.25246
1031.284, 30.34975
1031.766, 30.62046
1032.248, 31.24296
1032.731, 31.63249
1033.213, 31.10061
1033.695, 30.01316
1034.177, 29.73784
1034.659, 30.58750
1035.141, 31.21793
1035.623, 31.76310
1036.105, 31.73868
1036.588, 30.59929
1037.070, 29.40949
1037.552, 29.14669
1038.034, 29.61472
1038.516, 30.05570
1038.998, 30.55124
1039.480, 30.79414
1039.962, 30.59328
1040.444, 30.44280
1040.927, 30.55992
1041.409, 30.70936
1041.891, 30.85761
1042.373, 30.87402
1042.855, 30.14938
1043.337, 27.86286
1043.819, 26.77862
1044.301, 28.22977
1044.783, 29.12765
1045.266, 28.03105
1045.748, 26.57763
1046.230, 26.29346
1046.712, 26.77041
1047.194, 26.58273
1047.676, 25.29738
1048.158, 24.37498
1048.640, 24.12919
1049.123, 24.03769
1049.605, 24.33695
1050.087, 24.37843
1050.569, 23.18033
1051.051, 21.32856
1051.533, 20.57458
1052.015, 21.42183
1052.497, 22.19215
1052.979, 22.77259
1053.462, 22.99052
1053.944, 22.68441
1054.426, 22.07383
1054.908, 20.94044
1055.390, 19.73158
1055.872, 19.65079
1056.354, 21.16425
1056.836, 22.18029
1057.318, 21.69038
1057.801, 21.21993
1058.283, 21.38429
1058.765, 21.81322
1059.247, 22.42382
1059.729, 22.97018
1060.211, 22.92327
1060.693, 22.12865
1061.175, 21.37754
1061.658, 20.66256
1062.140, 20.36579
1062.622, 21.04488
1063.104, 21.85148
1063.586, 21.96206
1064.068, 21.67389
1064.550, 21.68633
1065.032, 22.14058
1065.515, 22.69774
1065.997, 23.54750
1066.479, 24.06388
1066.961, 23.49696
1067.443, 22.91226
1067.925, 23.39272
1068.407, 24.44104
1068.889, 25.02548
1069.371, 24.97293
1069.854, 24.98120
1070.336, 25.21586
1070.818, 25.72211
1071.300, 26.85044
1071.782, 27.94491
1072.264, 28.33448
1072.746, 28.38654
1073.228, 28.79941
1073.710, 29.63653
1074.193, 30.31653
1074.675, 30.32405
1075.157, 30.61635
1075.639, 31.96624
1076.121, 33.44907
1076.603, 34.17235
1077.085, 34.64802
1077.567, 35.69834
1078.050, 37.37205
1078.532, 39.15413
1079.014, 40.93018
1079.496, 42.60913
1079.978, 43.89619
1080.460, 45.34801
1080.942, 47.60423
1081.424, 50.10401
1081.906, 52.02256
1082.389, 53.43807
1082.871, 55.24625
1083.353, 58.01884
1083.835, 60.11719
1084.317, 60.63725
1084.799, 60.39037
1085.281, 59.70163
1085.763, 58.66936
1086.245, 57.47822
1086.728, 56.00630
1087.210, 53.71783
1087.692, 50.28420
1088.174, 47.28392
1088.656, 46.00961
1089.138, 44.61206
1089.620, 41.69396
1090.102, 38.47766
1090.584, 36.01019
1091.067, 34.29788
1091.549, 33.21787
1092.031, 32.75837
1092.513, 32.09359
1092.995, 30.53253
1093.477, 29.18464
1093.959, 28.77841
1094.441, 28.56206
1094.924, 27.86129
1095.406, 26.91978
1095.888, 26.15747
1096.370, 25.66344
1096.852, 25.58059
1097.334, 26.65906
1097.816, 27.14248
1098.298, 25.75367
1098.781, 24.29409
1099.263, 23.99590
1099.745, 24.34501
1100.227, 24.60736
1100.709, 24.72252
1101.191, 24.98151
1101.673, 25.76774
1102.155, 26.03362
1102.637, 24.66655
1103.120, 23.68016
1103.602, 24.68136
1104.084, 26.14586
1104.566, 26.20687
1105.048, 25.25101
1105.530, 25.22748
1106.012, 26.87375
1106.494, 27.96563
1106.976, 27.57729
1107.459, 27.24554
1107.941, 27.52604
1108.423, 28.06989
1108.905, 28.60172
1109.387, 29.16802
1109.869, 29.94400
1110.351, 30.99743
1110.833, 31.88928
1111.316, 32.37621
1111.798, 32.98683
1112.280, 33.66897
1112.762, 34.66652
1113.244, 36.37860
1113.726, 38.35208
1114.208, 39.91428
1114.690, 41.03925
1115.172, 42.18113
1115.655, 43.09081
1116.137, 44.42675
1116.619, 46.35147
1117.101, 48.52776
1117.583, 50.53274
1118.065, 52.98899
1118.547, 56.72170
1119.029, 61.51484
1119.511, 66.32523
1119.994, 71.29244
1120.476, 75.86176
1120.958, 79.39746
1121.440, 83.76221
1121.922, 89.61542
1122.404, 96.26419
1122.886, 103.3926
1123.368, 110.8242
1123.851, 118.1861
1124.333, 125.6499
1124.815, 131.6262
1125.297, 135.1637
1125.779, 140.3694
1126.261, 148.5788
1126.743, 156.7173
1127.225, 162.7635
1127.708, 168.3725
1128.190, 175.9856
1128.672, 185.4938
1129.154, 195.9043
1129.636, 207.2262
1130.118, 219.4095
1130.600, 232.4721
1131.082, 246.3360
1131.564, 260.9704
1132.047, 276.1533
1132.529, 291.6358
1133.011, 307.2863
1133.493, 322.8813
1133.975, 338.3773
1134.457, 350.9688
1134.939, 360.5386
1135.421, 364.8381
1135.903, 363.2763
1136.386, 356.4372
1136.868, 344.6532
1137.350, 328.2900
1137.832, 306.7451
1138.314, 281.3355
1138.796, 255.9810
1139.278, 231.1465
1139.760, 209.6443
1140.243, 191.4720
1140.725, 174.1293
1141.207, 156.4511
1141.689, 140.0454
1142.171, 126.3100
1142.653, 114.9989
1143.135, 106.4823
1143.617, 99.72279
1144.099, 91.84383
1144.582, 83.42155
1145.064, 77.70374
1145.546, 75.03090
1146.028, 71.80271
1146.510, 65.55564
1146.992, 59.12702
1147.474, 55.60090
1147.956, 53.57907
1148.438, 51.54190
1148.921, 49.55803
1149.403, 47.97569
1149.885, 46.69239
1150.367, 45.18769
1150.849, 43.27013
1151.331, 41.40520
1151.813, 39.60785
1152.295, 38.28939
1152.778, 38.25359
1153.260, 38.37711
1153.742, 37.40513
1154.224, 35.79839
1154.706, 34.49361
1155.188, 33.63855
1155.670, 32.87701
1156.152, 32.01135
1156.635, 31.38444
1157.117, 31.13231
1157.599, 31.14195
1158.081, 31.77985
1158.563, 32.30396
1159.045, 31.66194
1159.527, 30.28816
1160.009, 29.72895
1160.491, 30.44790
1160.974, 30.62050
1161.456, 29.34240
1161.938, 28.52568
1162.420, 29.14659
1162.902, 29.65742
1163.384, 28.81264
1163.866, 27.64410
1164.348, 27.74776
1164.830, 29.02012
1165.313, 29.71344
1165.795, 29.56058
1166.277, 29.51212
1166.759, 29.49800
1167.241, 29.92666
1167.723, 31.15917
1168.205, 32.28159
1168.687, 32.39680
1169.170, 32.02444
1169.652, 32.48949
1170.134, 33.80566
1170.616, 34.86329
1171.098, 35.65534
1171.580, 36.09006
1172.062, 36.11278
1172.544, 36.45841
1173.026, 37.49365
1173.509, 39.07308
1173.991, 41.15740
1174.473, 43.45085
1174.955, 44.96431
1175.437, 45.98606
1175.919, 47.80520
1176.401, 50.35522
1176.883, 52.83881
1177.365, 55.05815
1177.848, 57.21223
1178.330, 59.35667
1178.812, 62.09858
1179.294, 66.41801
1179.776, 71.59285
1180.258, 76.39587
1180.740, 81.27303
1181.222, 87.27269
1181.705, 94.07994
1182.187, 100.8174
1182.669, 107.1325
1183.151, 112.4906
1183.633, 117.4100
1184.115, 119.8014
1184.597, 117.9410
1185.079, 113.3083
1185.562, 106.0400
1186.044, 97.51745
1186.526, 89.14125
1187.008, 81.10081
1187.490, 73.19962
1187.972, 65.09468
1188.454, 58.45362
1188.936, 54.62634
1189.418, 50.94193
1189.901, 46.05546
1190.383, 41.65410
1190.865, 39.18568
1191.347, 37.74150
1191.829, 35.94238
1192.311, 33.81670
1192.793, 31.86010
1193.275, 29.82165
1193.757, 28.63489
1194.240, 28.63763
1194.722, 28.76723
1195.204, 28.90455
1195.686, 28.48534
1196.168, 26.85349
1196.650, 24.86680
1197.132, 24.40730
1197.614, 25.32085
1198.097, 25.35938
1198.579, 24.53687
1199.061, 23.77814
1199.543, 23.21115
1200.025, 22.86425
1200.507, 22.75081
1200.989, 22.93968
1201.471, 23.55783
1201.953, 24.28097
1202.436, 24.50188
1202.918, 24.41384
1203.400, 24.48709
1203.882, 24.62253
1204.364, 24.51172
1204.846, 24.13237
1205.328, 23.55175
1205.810, 22.80651
1206.292, 22.32058
1206.775, 22.66925
1207.257, 23.06579
1207.739, 22.83621
1208.221, 22.38356
1208.703, 22.07143
1209.185, 21.83002
1209.667, 21.41419
1210.149, 20.89014
1210.632, 20.67873
1211.114, 20.91237
1211.596, 21.35846
1212.078, 22.43108
1212.560, 23.05701
1213.042, 22.59096
1213.524, 21.88158
1214.006, 21.25388
1214.489, 20.90325
1214.971, 21.26521
1215.453, 22.24640
1215.935, 22.67656
1216.417, 22.44856
1216.899, 21.96176
1217.381, 21.07970
1217.863, 20.46710
1218.345, 20.31957
1218.828, 20.45763
1219.310, 20.79734
1219.792, 21.17614
1220.274, 21.29821
1220.756, 21.22923
1221.238, 21.22926
1221.720, 21.31345
1222.202, 21.71259
1222.684, 22.33380
1223.167, 22.47678
1223.649, 21.97694
1224.131, 21.34491
1224.613, 20.87374
1225.095, 20.73811
1225.577, 21.49154
1226.059, 22.35999
1226.541, 22.23005
1227.024, 21.68915
1227.506, 21.66344
1227.988, 22.02440
1228.470, 22.18061
1228.952, 22.01377
1229.434, 21.91540
1229.916, 22.24771
1230.398, 22.28112
1230.880, 21.51468
1231.363, 20.69202
1231.845, 20.16953
1232.327, 19.78378
1232.809, 19.23983
1233.291, 18.74864
1233.773, 18.87422
1234.255, 19.67702
1234.737, 20.28833
1235.219, 20.76109
1235.702, 20.82522
1236.184, 20.27356
1236.666, 19.93677
1237.148, 20.11908
1237.630, 20.68089
1238.112, 21.61617
1238.594, 22.47554
1239.076, 22.04570
1239.559, 20.70941
1240.041, 20.85330
1240.523, 22.05976
1241.005, 22.15199
1241.487, 21.12159
1241.969, 20.62596
1242.451, 21.16547
1242.933, 21.64308
1243.416, 21.22717
1243.898, 20.64344
1244.380, 20.45586
1244.862, 20.63117
1245.344, 21.56496
1245.826, 22.52259
1246.308, 22.39459
1246.790, 21.52225
1247.272, 20.85846
1247.755, 20.59530
1248.237, 20.73469
1248.719, 21.63823
1249.201, 22.37433
1249.683, 23.03119
1250.165, 23.15443
1250.647, 21.97734
1251.129, 20.91853
1251.611, 21.23225
1252.094, 22.26849
1252.576, 22.74933
1253.058, 22.68048
1253.540, 22.28349
1254.022, 21.49513
1254.504, 21.08421
1254.986, 21.13408
1255.468, 21.28833
1255.951, 21.43187
1256.433, 21.35634
1256.915, 20.87196
1257.397, 20.42281
1257.879, 20.78416
1258.361, 21.53276
1258.843, 22.03984
1259.325, 22.23023
1259.807, 21.67499
1260.290, 20.76005
1260.772, 20.54027
1261.254, 21.11008
1261.736, 21.48674
1262.218, 21.20343
1262.700, 20.84910
1263.182, 20.49021
1263.664, 20.39757
1264.146, 21.19315
1264.629, 21.80758
1265.111, 21.09639
1265.593, 19.84943
1266.075, 19.33357
1266.557, 19.48911
1267.039, 19.79342
1267.521, 20.31164
1268.003, 20.77999
1268.486, 21.23597
1268.968, 21.42541
1269.450, 21.24545
1269.932, 21.17516
1270.414, 21.49322
1270.896, 21.84927
1271.378, 21.84464
1271.860, 21.56407
1272.343, 20.96980
1272.825, 20.35002
1273.307, 20.60310
1273.789, 21.40539
1274.271, 21.89398
1274.753, 21.94914
1275.235, 21.74109
1275.717, 21.33984
1276.199, 21.01531
1276.682, 20.98100
1277.164, 20.96902
1277.646, 20.84720
1278.128, 20.70528
1278.610, 20.50828
1279.092, 20.39627
1279.574, 20.71860
1280.056, 21.18020
1280.538, 20.87436
1281.021, 19.72073
1281.503, 19.42557
1281.985, 20.36771
1282.467, 20.67451
1282.949, 20.05056
1283.431, 19.59153
1283.913, 19.63426
1284.395, 20.09034
1284.878, 20.96062
1285.360, 21.72542
1285.842, 21.51864
1286.324, 20.74338
1286.806, 20.17910
1287.288, 19.83006
##END=



