##NAMES=Crichtonite
##RRUFFID=R090006
##IDEAL CHEMISTRY=Sr(Mn^2+^,Y^3+^,U^6+^)Fe^2+^_2_(Ti^4+^,Fe^3+^,Cr^3+^,V^5+^)_18_(O,OH)_38_
##LOCALITY=Presidente Kubitschek, Minas Gerias, Brazil
##OWNER=RRUFF
##SOURCE=Luiz Menezes
##DESCRIPTION=Black poorly shaped, rounded crystals associated with quartz and rutile
##STATUS=The identification of this mineral has been confirmed only by single crystal X-ray diffraction.
##URL=rruff.info/R090006
91.72394, 0.0000000E+00
92.20605, 170.1963
92.68817, 169.2269
93.17029, 169.9502
93.65240, 171.1462
94.13452, 172.7407
94.61664, 173.9582
95.09875, 174.7484
95.58087, 175.1516
96.06299, 174.7086
96.54510, 172.3718
97.02721, 170.7292
97.50933, 170.9499
97.99145, 172.0617
98.47356, 172.6692
98.95568, 171.6308
99.43780, 168.6552
99.91991, 166.7987
100.4020, 166.2819
100.8841, 166.3541
101.3663, 167.2071
101.8484, 168.5567
102.3305, 169.4722
102.8126, 168.8887
103.2947, 166.2684
103.7768, 164.4913
104.2590, 163.9344
104.7411, 163.9985
105.2232, 164.1558
105.7053, 164.3284
106.1874, 164.4125
106.6695, 164.2229
107.1517, 163.7860
107.6338, 163.1978
108.1159, 162.2395
108.5980, 161.0499
109.0801, 160.3934
109.5622, 160.7975
110.0444, 161.5180
110.5265, 162.0567
111.0086, 162.3760
111.4907, 162.3616
111.9728, 161.6580
112.4549, 159.8677
112.9371, 158.7972
113.4192, 159.4803
113.9013, 160.5446
114.3834, 160.9660
114.8655, 160.3510
115.3476, 159.0994
115.8298, 158.2744
116.3119, 158.1131
116.7940, 158.1483
117.2761, 158.5896
117.7582, 159.1339
118.2403, 159.3694
118.7225, 159.0285
119.2046, 158.1763
119.6867, 157.5817
120.1688, 157.0869
120.6509, 156.9270
121.1330, 157.6286
121.6152, 158.8975
122.0973, 159.6553
122.5794, 158.8918
123.0615, 156.6056
123.5436, 154.9543
124.0257, 154.1672
124.5079, 153.8763
124.9900, 153.9387
125.4721, 154.4230
125.9542, 154.7468
126.4363, 154.1554
126.9184, 152.9605
127.4006, 151.8232
127.8827, 150.8690
128.3648, 150.1503
128.8469, 149.8904
129.3290, 150.3637
129.8111, 150.9798
130.2932, 151.5008
130.7754, 151.8851
131.2575, 152.0093
131.7396, 151.7160
132.2217, 150.9644
132.7038, 150.1716
133.1859, 148.9990
133.6681, 148.0586
134.1502, 147.9140
134.6323, 148.4750
135.1144, 149.0171
135.5965, 148.4251
136.0786, 145.5180
136.5608, 143.9102
137.0429, 144.2845
137.5250, 145.2866
138.0071, 146.0273
138.4892, 146.2069
138.9713, 145.9533
139.4535, 145.5037
139.9356, 144.2887
140.4177, 143.6834
140.8998, 144.4197
141.3819, 145.6600
141.8640, 146.1745
142.3462, 145.3427
142.8283, 143.6826
143.3104, 142.6824
143.7925, 142.5855
144.2746, 142.5496
144.7567, 142.2465
145.2388, 141.7207
145.7210, 141.1356
146.2031, 140.4660
146.6852, 139.8645
147.1673, 139.6112
147.6494, 139.9465
148.1315, 140.2943
148.6137, 140.1187
149.0958, 139.3782
149.5779, 138.3991
150.0600, 136.9257
150.5421, 135.4225
151.0242, 134.3757
151.5064, 134.0202
151.9885, 134.1117
152.4706, 134.2146
152.9527, 134.4541
153.4348, 134.4422
153.9169, 134.0592
154.3991, 133.4121
154.8812, 132.6082
155.3633, 131.6940
155.8454, 130.6850
156.3275, 129.6793
156.8096, 128.5183
157.2918, 127.5491
157.7739, 126.9186
158.2560, 126.5248
158.7381, 126.1896
159.2202, 125.7722
159.7023, 125.2656
160.1845, 124.9507
160.6666, 125.1601
161.1487, 125.2190
161.6308, 124.7253
162.1129, 123.8044
162.5950, 122.9454
163.0772, 122.6301
163.5593, 122.9611
164.0414, 122.8364
164.5235, 121.8496
165.0056, 120.7557
165.4877, 120.0754
165.9698, 119.8544
166.4520, 119.8079
166.9341, 119.6874
167.4162, 119.4915
167.8983, 119.2697
168.3804, 119.0565
168.8625, 118.8075
169.3447, 118.3836
169.8268, 117.6921
170.3089, 117.1272
170.7910, 117.3627
171.2731, 118.1621
171.7552, 118.6040
172.2374, 118.1157
172.7195, 116.9818
173.2016, 115.9736
173.6837, 115.1057
174.1658, 114.5071
174.6479, 114.2806
175.1301, 114.3640
175.6122, 114.5229
176.0943, 114.6459
176.5764, 114.7303
177.0585, 114.7087
177.5406, 114.6912
178.0228, 114.4269
178.5049, 113.5205
178.9870, 112.1473
179.4691, 110.9911
179.9512, 110.9671
180.4333, 112.5238
180.9155, 113.1215
181.3976, 111.6703
181.8797, 110.1598
182.3618, 109.5867
182.8439, 109.9725
183.3260, 110.6546
183.8082, 110.8375
184.2903, 110.3968
184.7724, 109.7217
185.2545, 108.2868
185.7366, 107.0350
186.2187, 106.7247
186.7009, 107.4243
187.1830, 108.5135
187.6651, 109.1176
188.1472, 109.0580
188.6293, 108.7838
189.1114, 108.2273
189.5936, 107.5086
190.0757, 106.6507
190.5578, 105.6730
191.0399, 104.7355
191.5220, 104.1229
192.0041, 103.9710
192.4863, 103.7757
192.9684, 103.3759
193.4505, 102.9418
193.9326, 102.6283
194.4147, 102.4488
194.8968, 102.5355
195.3790, 103.3865
195.8611, 105.1478
196.3432, 106.3779
196.8253, 106.4970
197.3074, 105.7811
197.7895, 104.6874
198.2717, 103.0658
198.7538, 101.5952
199.2359, 101.2426
199.7180, 102.0069
200.2001, 102.8242
200.6822, 103.2241
201.1644, 103.2299
201.6465, 102.8909
202.1286, 101.8903
202.6107, 100.9176
203.0928, 100.6546
203.5749, 101.0938
204.0571, 101.6276
204.5392, 101.7876
205.0213, 101.5797
205.5034, 101.3636
205.9855, 101.1068
206.4676, 100.9451
206.9497, 101.0713
207.4319, 101.4551
207.9140, 101.7573
208.3961, 101.5156
208.8782, 100.5903
209.3603, 100.0087
209.8424, 100.1976
210.3246, 100.5207
210.8067, 100.7353
211.2888, 100.7910
211.7709, 100.7219
212.2530, 100.5311
212.7351, 100.1433
213.2173, 99.87764
213.6994, 99.66808
214.1815, 99.61931
214.6636, 99.95626
215.1457, 100.6200
215.6278, 101.2253
216.1100, 101.2132
216.5921, 100.1758
217.0742, 99.53203
217.5563, 99.41326
218.0384, 99.49796
218.5205, 99.70677
219.0027, 99.96627
219.4848, 100.1002
219.9669, 99.84634
220.4490, 98.96725
220.9311, 98.27706
221.4132, 97.68730
221.8954, 97.31457
222.3775, 97.26566
222.8596, 97.55054
223.3417, 98.09772
223.8238, 98.89015
224.3059, 100.2450
224.7881, 100.8265
225.2702, 100.0986
225.7523, 98.93388
226.2344, 97.98754
226.7165, 97.39497
227.1986, 97.08002
227.6807, 97.01930
228.1629, 97.29723
228.6450, 97.38794
229.1271, 96.97639
229.6092, 96.50514
230.0913, 96.49691
230.5734, 97.05499
231.0556, 97.76241
231.5377, 98.18520
232.0198, 98.32774
232.5019, 98.33765
232.9840, 98.17045
233.4661, 97.90809
233.9483, 97.62605
234.4304, 97.32458
234.9125, 97.06227
235.3946, 96.89468
235.8767, 96.81189
236.3588, 96.81186
236.8410, 97.01102
237.3231, 97.25384
237.8052, 97.25203
238.2873, 96.90563
238.7694, 96.59436
239.2515, 96.69971
239.7337, 97.07606
240.2158, 97.42854
240.6979, 97.73886
241.1800, 97.94353
241.6621, 97.90854
242.1442, 97.59490
242.6264, 97.13474
243.1085, 96.33660
243.5906, 95.47771
244.0727, 95.08498
244.5548, 95.68694
245.0369, 96.75497
245.5191, 97.06494
246.0012, 96.26641
246.4833, 95.53600
246.9654, 95.52419
247.4475, 95.89744
247.9296, 96.26812
248.4117, 96.56264
248.8939, 96.66649
249.3760, 96.21461
249.8581, 94.83114
250.3402, 93.69749
250.8223, 93.23669
251.3044, 93.21091
251.7866, 93.43565
252.2687, 93.88641
252.7508, 94.41609
253.2329, 94.66675
253.7150, 94.46487
254.1971, 94.33060
254.6793, 94.36309
255.1614, 94.52452
255.6435, 94.78513
256.1256, 95.13349
256.6077, 95.56866
257.0898, 96.21384
257.5720, 97.63831
258.0541, 98.06490
258.5362, 96.40135
259.0183, 94.26966
259.5004, 93.13305
259.9825, 93.48370
260.4647, 94.57199
260.9468, 94.94384
261.4289, 93.98798
261.9110, 93.51823
262.3931, 93.99334
262.8752, 94.71101
263.3574, 95.14604
263.8395, 95.15615
264.3216, 94.92886
264.8037, 94.72472
265.2858, 94.40992
265.7679, 94.42033
266.2501, 95.09483
266.7322, 95.80276
267.2143, 96.12709
267.6964, 95.98965
268.1785, 95.55558
268.6606, 94.97398
269.1428, 93.96286
269.6249, 93.60368
270.1070, 94.27946
270.5891, 95.16976
271.0712, 95.94640
271.5533, 96.48592
272.0355, 96.65397
272.5176, 96.21653
272.9997, 94.88802
273.4818, 94.22587
273.9639, 94.62702
274.4460, 95.20454
274.9282, 95.54255
275.4103, 95.61977
275.8924, 95.59992
276.3745, 95.62698
276.8566, 95.70937
277.3387, 95.76018
277.8208, 95.80692
278.3029, 95.80645
278.7851, 95.78553
279.2672, 95.70981
279.7493, 95.45848
280.2314, 94.89874
280.7135, 94.05314
281.1956, 93.61959
281.6778, 93.64671
282.1599, 93.93492
282.6420, 94.73782
283.1241, 95.75722
283.6062, 96.32090
284.0883, 95.97129
284.5705, 94.91344
285.0526, 94.36677
285.5347, 94.73026
286.0168, 95.05077
286.4989, 95.05209
286.9810, 94.86932
287.4632, 94.70550
287.9453, 94.63996
288.4274, 94.70875
288.9095, 95.04940
289.3916, 96.07005
289.8737, 96.74171
290.3559, 96.78286
290.8380, 96.41614
291.3201, 95.80021
291.8022, 94.96327
292.2843, 94.23201
292.7664, 94.30489
293.2486, 95.80085
293.7307, 96.60181
294.2128, 95.99120
294.6949, 94.82334
295.1770, 93.97673
295.6591, 93.65681
296.1413, 93.62444
296.6234, 93.59943
297.1055, 93.57873
297.5876, 93.58938
298.0697, 93.71101
298.5518, 93.81576
299.0340, 93.76125
299.5161, 93.54142
299.9982, 93.30753
300.4803, 93.21529
300.9624, 93.28221
301.4445, 93.23360
301.9267, 92.89377
302.4088, 92.58292
302.8909, 92.55258
303.3730, 92.77605
303.8551, 93.00802
304.3372, 93.06429
304.8194, 92.97318
305.3015, 93.00521
305.7836, 93.24786
306.2657, 93.51219
306.7478, 93.89720
307.2299, 94.26436
307.7121, 94.10113
308.1942, 92.97177
308.6763, 91.31474
309.1584, 90.71642
309.6405, 91.88232
310.1227, 92.81398
310.6048, 92.65743
311.0869, 91.85247
311.5690, 91.21446
312.0511, 91.05274
312.5332, 91.17036
313.0154, 91.24032
313.4975, 91.34892
313.9796, 91.18952
314.4617, 90.29195
314.9438, 89.24503
315.4259, 88.87234
315.9081, 89.39104
316.3902, 90.30099
316.8723, 91.11699
317.3544, 91.90041
317.8365, 92.07649
318.3186, 90.97205
318.8007, 89.62842
319.2828, 88.99435
319.7650, 89.15614
320.2471, 89.65462
320.7292, 90.21569
321.2113, 90.80885
321.6934, 90.93159
322.1755, 90.09856
322.6577, 89.23136
323.1398, 88.89176
323.6219, 89.03370
324.1040, 89.37254
324.5861, 89.80928
325.0682, 90.26665
325.5504, 90.35977
326.0325, 89.62141
326.5146, 89.09314
326.9967, 89.40916
327.4788, 88.99716
327.9609, 90.41916
328.4431, 91.19255
328.9252, 91.35223
329.4073, 89.05996
329.8894, 89.93386
330.3715, 89.53891
330.8536, 89.09192
331.3358, 90.41145
331.8179, 88.47580
332.3000, 89.76732
332.7821, 89.77061
333.2642, 90.36349
333.7463, 89.67968
334.2285, 89.39018
334.7106, 90.37781
335.1927, 90.65829
335.6748, 89.82750
336.1569, 90.45786
336.6390, 88.47762
337.1212, 88.78821
337.6033, 90.08720
338.0854, 89.32061
338.5675, 89.97431
339.0496, 90.08709
339.5317, 87.74158
340.0139, 89.67126
340.4960, 89.75207
340.9781, 87.93448
341.4602, 89.71769
341.9423, 88.16181
342.4244, 87.79778
342.9066, 88.33069
343.3887, 87.92857
343.8708, 89.00064
344.3529, 88.65253
344.8350, 88.17752
345.3171, 88.25626
345.7993, 87.82428
346.2814, 88.18651
346.7635, 87.61867
347.2456, 88.03927
347.7277, 88.68391
348.2098, 87.61307
348.6920, 88.35837
349.1741, 86.28725
349.6562, 86.57274
350.1383, 86.60446
350.6204, 88.14248
351.1025, 86.08508
351.5847, 86.30509
352.0668, 87.49479
352.5489, 87.32767
353.0310, 87.72784
353.5131, 86.44861
353.9952, 86.74705
354.4774, 86.61061
354.9595, 87.97691
355.4416, 88.15687
355.9237, 86.90612
356.4058, 85.66144
356.8879, 87.13588
357.3701, 86.03310
357.8522, 86.32069
358.3343, 85.17233
358.8164, 85.26382
359.2985, 85.33565
359.7806, 86.04305
360.2627, 85.85439
360.7448, 86.10331
361.2270, 85.93850
361.7091, 86.19933
362.1912, 86.41280
362.6733, 86.52524
363.1554, 86.17482
363.6375, 86.68970
364.1197, 85.35956
364.6018, 84.72948
365.0839, 84.59705
365.5660, 86.81329
366.0481, 86.84647
366.5302, 84.27023
367.0124, 86.38297
367.4945, 85.61095
367.9766, 85.69620
368.4587, 85.46868
368.9408, 85.33375
369.4229, 85.39240
369.9051, 84.26048
370.3872, 85.76168
370.8693, 85.11159
371.3514, 85.92329
371.8335, 84.07095
372.3156, 83.79993
372.7978, 83.94865
373.2799, 84.25047
373.7620, 83.32912
374.2441, 83.58184
374.7262, 83.43278
375.2083, 83.23468
375.6905, 83.25043
376.1726, 83.01197
376.6547, 82.61728
377.1368, 84.18944
377.6189, 82.70119
378.1010, 84.09750
378.5832, 84.56924
379.0653, 83.79104
379.5474, 83.67702
380.0295, 82.30293
380.5116, 82.86123
380.9937, 82.75492
381.4759, 83.74363
381.9580, 82.37460
382.4401, 83.71983
382.9222, 82.41404
383.4043, 83.86916
383.8864, 82.50732
384.3686, 83.65483
384.8507, 81.80707
385.3328, 82.12728
385.8149, 82.61933
386.2970, 83.66643
386.7791, 82.57960
387.2613, 83.75834
387.7434, 82.94888
388.2255, 83.52379
388.7076, 83.78749
389.1897, 83.81332
389.6718, 83.59251
390.1540, 83.27430
390.6361, 83.18813
391.1182, 83.61850
391.6003, 84.07475
392.0824, 84.11307
392.5645, 83.76260
393.0467, 83.23613
393.5288, 82.49516
394.0109, 81.75722
394.4930, 81.41325
394.9751, 81.51010
395.4572, 81.74676
395.9394, 82.17642
396.4215, 82.62625
396.9036, 82.74609
397.3857, 82.44026
397.8678, 82.03831
398.3499, 81.88205
398.8321, 81.99048
399.3142, 82.08569
399.7963, 82.07661
400.2784, 82.11530
400.7605, 81.23280
401.2426, 82.67667
401.7247, 83.47196
402.2068, 83.65351
402.6890, 81.38311
403.1711, 82.27889
403.6532, 81.90582
404.1353, 81.48071
404.6174, 82.82213
405.0995, 80.90836
405.5817, 82.22176
406.0638, 82.24693
406.5459, 82.86169
407.0280, 82.19975
407.5101, 81.93214
407.9922, 82.94165
408.4744, 83.24400
408.9565, 82.43510
409.4386, 83.08733
409.9207, 81.12897
410.4028, 81.46145
410.8849, 82.78232
411.3671, 82.03760
411.8492, 82.71318
412.3313, 82.84784
412.8134, 80.52421
413.2955, 82.47578
413.7776, 82.57848
414.2598, 80.78275
414.7419, 82.58784
415.2240, 81.05384
415.7061, 80.71170
416.1882, 81.26649
416.6703, 80.88625
417.1525, 81.98019
417.6346, 81.65395
418.1167, 81.20083
418.5988, 81.30145
419.0809, 80.89137
419.5630, 81.27547
420.0452, 80.72950
420.5273, 81.17198
421.0094, 81.83851
421.4915, 80.78954
421.9736, 81.55672
422.4557, 79.50748
422.9379, 79.81485
423.4200, 79.86845
423.9021, 81.42835
424.3842, 79.39284
424.8663, 79.63473
425.3484, 80.84631
425.8306, 80.70107
426.3127, 81.12312
426.7948, 79.86575
427.2769, 80.18608
427.7590, 80.07153
428.2411, 81.45970
428.7233, 81.66154
429.2054, 80.43267
429.6875, 79.20987
430.1696, 80.70619
430.6517, 79.62529
431.1339, 79.93477
431.6160, 78.80828
432.0981, 78.92165
432.5802, 79.01536
433.0623, 79.74464
433.5444, 79.57785
434.0266, 79.84865
434.5087, 79.70573
434.9908, 79.98843
435.4729, 80.22379
435.9550, 80.35810
436.4371, 80.02958
436.9193, 80.56633
437.4014, 79.25807
437.8835, 78.64986
438.3656, 78.53932
438.8477, 80.77744
439.3298, 80.83250
439.8120, 78.27814
440.2941, 80.41276
440.7762, 79.66263
441.2583, 79.76974
441.7404, 79.56411
442.2225, 79.45106
442.7046, 79.53159
443.1867, 78.42156
443.6689, 79.94463
444.1510, 79.31642
444.6331, 80.15000
445.1152, 78.31954
445.5973, 78.07040
446.0794, 78.24101
446.5616, 78.56470
447.0437, 77.66523
447.5258, 77.93983
448.0079, 77.80487
448.4900, 77.63643
448.9721, 77.67406
449.4543, 77.45748
449.9364, 77.14354
450.4185, 78.67871
450.9006, 77.21233
451.3827, 78.63053
451.8648, 78.67915
452.3470, 78.75961
452.8291, 78.20419
453.3112, 77.23666
453.7933, 76.96644
454.2754, 77.74046
454.7575, 78.51979
455.2397, 78.62807
455.7218, 78.27009
456.2039, 77.69421
456.6860, 76.75475
457.1681, 75.90076
457.6502, 75.51865
458.1324, 75.55248
458.6145, 75.78224
459.0966, 76.20716
459.5787, 76.66177
460.0608, 76.88779
460.5429, 76.88339
461.0251, 76.82214
461.5072, 76.67268
461.9893, 76.52193
462.4714, 76.40820
462.9535, 76.35356
463.4356, 76.45943
463.9178, 76.83909
464.3999, 77.40629
464.8820, 77.68925
465.3641, 77.37772
465.8462, 77.19814
466.3283, 77.38320
466.8105, 77.68067
467.2926, 77.80737
467.7747, 77.70481
468.2568, 77.51137
468.7389, 77.35972
469.2210, 77.21476
469.7032, 77.34350
470.1853, 78.41853
470.6674, 79.06274
471.1495, 78.54226
471.6316, 77.37913
472.1137, 76.40200
472.5959, 75.99564
473.0780, 75.98948
473.5601, 76.12746
474.0422, 76.47202
474.5243, 76.69434
475.0064, 76.71731
475.4886, 76.60564
475.9707, 76.36602
476.4528, 76.01629
476.9349, 75.62022
477.4170, 75.10688
477.8991, 74.59851
478.3813, 74.41900
478.8634, 74.62106
479.3455, 74.84917
479.8276, 74.99391
480.3097, 75.01162
480.7918, 74.79953
481.2740, 74.23194
481.7561, 73.78306
482.2382, 73.79803
482.7203, 74.07082
483.2024, 74.23021
483.6845, 74.20275
484.1666, 74.07498
484.6487, 73.91151
485.1309, 73.71115
485.6130, 73.52856
486.0951, 73.24007
486.5772, 73.09763
487.0593, 73.38025
487.5414, 73.85154
488.0236, 74.05726
488.5057, 73.81779
488.9878, 73.35880
489.4699, 73.06373
489.9520, 72.91531
490.4341, 72.98750
490.9163, 73.48563
491.3984, 73.97435
491.8805, 74.22704
492.3626, 74.28379
492.8447, 74.27901
493.3268, 74.28335
493.8090, 74.31292
494.2911, 74.45999
494.7732, 74.85578
495.2553, 75.01208
495.7374, 74.50201
496.2195, 73.92922
496.7017, 73.68275
497.1838, 73.80035
497.6659, 74.14522
498.1480, 74.93407
498.6301, 75.85615
499.1122, 75.93921
499.5944, 75.00403
500.0765, 73.89702
500.5586, 72.87842
501.0407, 72.08866
501.5228, 71.83188
502.0049, 72.37740
502.4871, 72.89552
502.9692, 72.84949
503.4513, 72.52841
503.9334, 72.51807
504.4155, 72.95016
504.8976, 73.38396
505.3798, 73.33826
505.8619, 72.77178
506.3440, 72.54002
506.8261, 73.00048
507.3082, 73.36156
507.7903, 73.20401
508.2725, 72.79642
508.7546, 72.62743
509.2367, 72.86776
509.7188, 73.18251
510.2009, 72.96043
510.6830, 71.87852
511.1652, 71.35593
511.6473, 72.14590
512.1294, 72.75124
512.6115, 72.28039
513.0936, 71.22102
513.5757, 70.62899
514.0579, 71.11367
514.5400, 72.11537
515.0221, 72.58295
515.5042, 72.43759
515.9863, 72.38982
516.4684, 72.82829
516.9506, 73.17712
517.4327, 72.89157
517.9148, 72.04227
518.3969, 71.18592
518.8790, 70.30930
519.3611, 69.68954
519.8433, 69.85852
520.3254, 70.76086
520.8075, 71.61001
521.2896, 72.08618
521.7717, 72.21671
522.2538, 71.95778
522.7360, 71.08895
523.2181, 70.52193
523.7002, 70.81889
524.1823, 71.19738
524.6644, 70.74646
525.1465, 69.59606
525.6287, 68.73230
526.1108, 68.92013
526.5929, 69.93332
527.0750, 70.57827
527.5571, 70.43002
528.0392, 70.50798
528.5214, 71.28474
529.0035, 72.05138
529.4856, 72.15420
529.9677, 71.57384
530.4498, 70.82851
530.9319, 70.37283
531.4141, 70.14976
531.8962, 69.76112
532.3783, 69.05654
532.8604, 68.53910
533.3425, 68.53014
533.8246, 68.77215
534.3068, 69.02010
534.7889, 69.23174
535.2710, 69.49911
535.7531, 70.11415
536.2352, 70.78433
536.7173, 70.77355
537.1995, 69.94626
537.6816, 68.98534
538.1637, 68.28144
538.6458, 67.88528
539.1279, 67.99162
539.6100, 69.36994
540.0922, 70.26507
540.5743, 69.70125
541.0564, 68.61076
541.5385, 68.16355
542.0206, 68.58434
542.5027, 69.33920
542.9849, 69.89668
543.4670, 70.25346
543.9491, 70.56543
544.4312, 70.97446
544.9133, 71.15034
545.3954, 70.90002
545.8775, 70.44686
546.3596, 69.95679
546.8417, 69.49424
547.3239, 69.22535
547.8060, 69.49796
548.2881, 70.23933
548.7702, 70.56176
549.2523, 70.31804
549.7344, 69.88419
550.2166, 69.09078
550.6987, 68.35143
551.1808, 68.53805
551.6629, 70.41578
552.1450, 71.78882
552.6271, 70.63148
553.1093, 68.10850
553.5914, 66.56700
554.0735, 66.47792
554.5556, 67.32067
555.0377, 68.92044
555.5198, 71.24333
556.0020, 72.09168
556.4841, 70.02097
556.9662, 68.45285
557.4483, 68.67019
557.9304, 69.69926
558.4125, 70.47079
558.8947, 70.66966
559.3768, 70.41691
559.8589, 69.71974
560.3410, 68.56015
560.8231, 67.95844
561.3052, 68.39181
561.7874, 68.70432
562.2695, 68.24692
562.7516, 67.61550
563.2337, 67.54922
563.7158, 68.24868
564.1979, 69.15427
564.6801, 69.95775
565.1622, 70.58907
565.6443, 70.69630
566.1264, 70.13311
566.6085, 69.64516
567.0906, 69.88842
567.5728, 70.59722
568.0549, 70.73621
568.5370, 69.91875
569.0191, 69.14560
569.5012, 68.67258
569.9833, 68.47105
570.4655, 68.59991
570.9476, 69.01696
571.4297, 69.45660
571.9118, 69.68440
572.3939, 69.71102
572.8760, 69.65418
573.3582, 69.21408
573.8403, 69.11559
574.3224, 69.78097
574.8045, 70.60108
575.2866, 71.10071
575.7687, 71.18948
576.2509, 70.96243
576.7330, 70.30424
577.2151, 69.39614
577.6972, 69.01599
578.1793, 69.29708
578.6614, 69.52535
579.1436, 69.29831
579.6257, 68.90231
580.1078, 68.74489
580.5899, 68.84882
581.0720, 69.09436
581.5541, 69.71912
582.0363, 70.28875
582.5184, 70.08311
583.0005, 69.23216
583.4826, 68.73945
583.9647, 69.25649
584.4468, 70.40645
584.9290, 71.09439
585.4111, 71.18881
585.8932, 70.98643
586.3753, 69.91317
586.8574, 69.05793
587.3395, 69.41580
587.8217, 70.60831
588.3038, 71.45175
588.7859, 71.18849
589.2680, 70.31187
589.7501, 69.83778
590.2322, 69.79274
590.7144, 69.98861
591.1965, 70.58950
591.6786, 71.18822
592.1607, 71.46176
592.6428, 71.44438
593.1249, 71.27660
593.6071, 70.94612
594.0892, 70.52918
594.5713, 69.96396
595.0534, 69.36211
595.5355, 69.04815
596.0176, 69.13578
596.4998, 69.48495
596.9819, 69.98124
597.4640, 70.71941
597.9461, 71.00190
598.4282, 70.48803
598.9103, 69.98008
599.3925, 69.61701
599.8746, 69.46062
600.3567, 69.66541
600.8388, 70.24557
601.3209, 70.83492
601.8030, 70.98644
602.2852, 70.71732
602.7673, 70.37167
603.2494, 69.72497
603.7315, 69.50800
604.2136, 70.76431
604.6957, 72.41679
605.1779, 72.88256
605.6600, 71.71643
606.1421, 70.54335
606.6242, 70.11416
607.1063, 70.19386
607.5884, 70.62122
608.0706, 71.30882
608.5527, 71.81977
609.0348, 71.84344
609.5169, 71.51375
609.9990, 71.29060
610.4811, 71.23695
610.9633, 71.20814
611.4454, 70.99184
611.9275, 70.97945
612.4096, 71.77023
612.8917, 73.00700
613.3738, 73.64622
613.8560, 72.97368
614.3381, 71.64571
614.8202, 70.86901
615.3023, 70.66137
615.7844, 70.78090
616.2665, 71.40567
616.7487, 72.02773
617.2308, 72.12035
617.7129, 71.81435
618.1950, 71.60437
618.6771, 71.73095
619.1592, 71.83682
619.6414, 71.59756
620.1235, 71.21021
620.6056, 71.08433
621.0877, 71.31548
621.5698, 71.63472
622.0519, 71.75712
622.5341, 71.68176
623.0162, 71.66551
623.4983, 71.90803
623.9804, 71.94821
624.4625, 71.42284
624.9446, 70.84836
625.4268, 70.83859
625.9089, 71.40102
626.3910, 71.85720
626.8730, 71.46084
627.3552, 70.62381
627.8373, 70.49978
628.3194, 71.14796
628.8015, 71.73587
629.2836, 71.99055
629.7657, 71.96414
630.2479, 71.66215
630.7300, 71.06493
631.2121, 70.51485
631.6942, 70.02757
632.1763, 69.63226
632.6584, 69.20026
633.1406, 68.89475
633.6227, 69.17027
634.1048, 70.18742
634.5869, 71.38329
635.0690, 71.89880
635.5511, 71.63444
636.0333, 71.38879
636.5154, 71.05622
636.9975, 70.89969
637.4796, 71.28117
637.9617, 71.75615
638.4438, 71.65195
638.9260, 70.77015
639.4081, 69.96748
639.8902, 70.09743
640.3723, 70.61660
640.8544, 70.37862
641.3365, 69.33887
641.8187, 68.55061
642.3008, 68.68155
642.7829, 69.33212
643.2650, 69.49949
643.7471, 68.82571
644.2292, 68.33286
644.7114, 67.89381
645.1935, 67.75433
645.6756, 68.33196
646.1577, 69.27734
646.6398, 69.89316
647.1219, 69.85251
647.6041, 69.41785
648.0862, 68.79436
648.5683, 67.99333
649.0504, 67.78419
649.5325, 68.48373
650.0146, 69.23587
650.4968, 69.49763
650.9789, 69.40839
651.4610, 69.26053
651.9431, 69.07604
652.4252, 68.82895
652.9073, 68.49908
653.3895, 68.10828
653.8716, 67.55817
654.3537, 66.93399
654.8358, 66.67058
655.3179, 67.10453
655.8000, 67.85304
656.2822, 67.73734
656.7643, 66.18320
657.2464, 65.23270
657.7285, 65.66308
658.2106, 66.14261
658.6927, 66.00811
659.1749, 65.47419
659.6570, 65.08224
660.1391, 65.07340
660.6212, 65.09819
661.1033, 64.63558
661.5854, 63.97651
662.0676, 64.06401
662.5497, 65.06756
663.0318, 65.92982
663.5139, 65.80335
663.9960, 64.92181
664.4781, 64.44009
664.9603, 64.72604
665.4424, 64.91080
665.9245, 64.85992
666.4066, 64.78802
666.8887, 64.87136
667.3708, 65.06815
667.8530, 65.23766
668.3351, 65.31873
668.8172, 65.28471
669.2993, 65.01359
669.7814, 64.52168
670.2635, 64.22533
670.7457, 64.22184
671.2278, 64.34675
671.7099, 64.53419
672.1920, 64.74995
672.6741, 64.87057
673.1563, 65.07204
673.6384, 64.90014
674.1205, 63.73407
674.6026, 62.45779
675.0847, 61.97150
675.5668, 62.27222
676.0490, 62.89290
676.5311, 63.58313
677.0132, 64.19086
677.4953, 64.26594
677.9774, 63.67397
678.4595, 63.19602
678.9417, 63.00220
679.4238, 62.84062
679.9059, 62.46215
680.3880, 62.00493
680.8701, 61.81885
681.3522, 62.15407
681.8344, 62.39856
682.3165, 62.00687
682.7986, 61.39407
683.2807, 61.29645
683.7628, 61.70942
684.2449, 61.87217
684.7271, 61.19820
685.2092, 60.08525
685.6913, 59.88039
686.1734, 61.24672
686.6555, 61.98661
687.1376, 61.34693
687.6198, 60.66653
688.1019, 60.66420
688.5840, 61.06157
689.0661, 61.19861
689.5482, 60.75979
690.0303, 60.36277
690.5125, 60.65574
690.9946, 61.34845
691.4767, 61.87673
691.9588, 62.16493
692.4409, 62.11243
692.9230, 61.56371
693.4052, 60.77473
693.8873, 60.52832
694.3694, 61.52106
694.8515, 61.77181
695.3336, 60.52134
695.8157, 59.35116
696.2979, 59.14831
696.7800, 59.58041
697.2621, 59.94991
697.7442, 59.99520
698.2263, 59.97968
698.7084, 60.31275
699.1906, 60.80546
699.6727, 60.71337
700.1548, 59.93191
700.6369, 59.27957
701.1190, 59.24783
701.6011, 59.59895
702.0833, 59.77359
702.5654, 59.64612
703.0475, 59.63482
703.5296, 59.82286
704.0117, 60.04854
704.4938, 60.29061
704.9760, 60.49204
705.4581, 60.60212
705.9402, 60.59952
706.4223, 60.42426
706.9044, 59.93477
707.3865, 59.20557
707.8687, 58.46077
708.3508, 57.64491
708.8329, 57.35583
709.3149, 58.07904
709.7971, 59.23854
710.2792, 59.82887
710.7613, 59.73757
711.2434, 59.73466
711.7255, 60.15780
712.2076, 60.37553
712.6898, 59.82372
713.1719, 58.96832
713.6540, 58.55361
714.1361, 58.74232
714.6182, 59.02353
715.1003, 58.83246
715.5825, 58.31382
716.0646, 58.08047
716.5467, 58.14694
717.0288, 58.43748
717.5109, 59.09478
717.9930, 59.74600
718.4752, 59.89360
718.9573, 59.55318
719.4394, 59.19407
719.9215, 58.85315
720.4036, 58.50295
720.8857, 58.03023
721.3679, 57.59716
721.8500, 57.49587
722.3321, 57.69970
722.8142, 57.77369
723.2963, 57.26583
723.7784, 56.51439
724.2606, 56.67336
724.7427, 57.88621
725.2248, 58.56389
725.7069, 58.17715
726.1890, 57.49797
726.6711, 57.21026
727.1533, 57.21470
727.6354, 57.03302
728.1175, 56.23515
728.5996, 55.79859
729.0817, 56.24466
729.5638, 57.01999
730.0460, 57.78247
730.5281, 58.36731
731.0102, 58.44476
731.4923, 57.75880
731.9744, 56.83201
732.4565, 56.79726
732.9387, 57.68152
733.4208, 57.84356
733.9029, 56.79822
734.3850, 55.85537
734.8671, 55.96663
735.3492, 56.70618
735.8314, 56.96940
736.3135, 56.56026
736.7956, 56.23587
737.2777, 56.20111
737.7598, 56.25377
738.2419, 56.31301
738.7241, 56.33189
739.2062, 56.21515
739.6883, 55.93240
740.1704, 55.63960
740.6525, 55.53637
741.1346, 55.60378
741.6168, 55.72496
742.0989, 55.94253
742.5810, 55.98959
743.0631, 55.70439
743.5452, 55.25190
744.0273, 54.79538
744.5095, 54.30942
744.9916, 54.12526
745.4737, 54.44152
745.9558, 54.86868
746.4379, 55.45235
746.9200, 55.94084
747.4022, 55.98192
747.8843, 55.56153
748.3664, 54.97359
748.8485, 54.34657
749.3306, 53.83569
749.8127, 53.94942
750.2949, 54.69117
750.7770, 55.12249
751.2591, 54.89437
751.7412, 54.74579
752.2233, 55.54608
752.7054, 57.05540
753.1876, 57.52599
753.6697, 55.92980
754.1518, 54.83624
754.6339, 55.01006
755.1160, 55.42569
755.5981, 55.19738
756.0803, 54.56716
756.5624, 54.41098
757.0445, 55.18987
757.5266, 56.00966
758.0087, 55.47102
758.4908, 54.02257
758.9730, 53.52974
759.4551, 54.18040
759.9372, 54.94826
760.4193, 55.32320
760.9014, 55.47424
761.3835, 55.74810
761.8657, 56.27962
762.3478, 56.47076
762.8299, 56.12800
763.3120, 55.69812
763.7941, 55.16588
764.2762, 54.72232
764.7584, 54.66671
765.2405, 54.99918
765.7226, 55.26675
766.2047, 55.09142
766.6868, 54.72136
767.1689, 54.52532
767.6511, 54.45790
768.1332, 54.31577
768.6153, 54.04161
769.0974, 53.73882
769.5795, 53.47375
770.0616, 53.27404
770.5438, 53.42276
771.0259, 54.47792
771.5080, 54.87626
771.9901, 53.80400
772.4722, 52.69392
772.9543, 52.37112
773.4365, 52.65319
773.9186, 53.02339
774.4007, 53.33966
774.8828, 53.69805
775.3649, 54.45460
775.8470, 55.12639
776.3292, 54.73763
776.8113, 53.52346
777.2934, 52.81557
777.7755, 53.26790
778.2576, 54.19642
778.7397, 54.44361
779.2219, 53.92797
779.7040, 53.81688
780.1861, 54.40978
780.6682, 54.79033
781.1503, 54.49697
781.6324, 53.92430
782.1146, 53.40666
782.5967, 52.95607
783.0788, 52.75161
783.5609, 53.21218
784.0430, 53.50807
784.5251, 52.85993
785.0073, 51.95843
785.4894, 51.81707
785.9715, 52.48185
786.4536, 53.26266
786.9357, 53.70684
787.4178, 53.86512
787.9000, 53.75630
788.3821, 53.38362
788.8642, 53.19860
789.3463, 53.32634
789.8284, 53.42305
790.3105, 53.27559
790.7927, 52.93059
791.2747, 52.46494
791.7568, 51.60387
792.2390, 51.30682
792.7211, 52.26593
793.2032, 53.11924
793.6853, 52.98606
794.1674, 52.40652
794.6495, 52.35484
795.1317, 52.99668
795.6138, 53.34740
796.0959, 52.18857
796.5780, 50.48434
797.0601, 49.95605
797.5422, 50.42011
798.0244, 50.95576
798.5065, 51.31292
798.9886, 51.69323
799.4707, 52.33252
799.9528, 53.15413
800.4349, 53.56044
800.9171, 53.31615
801.3992, 53.12962
801.8813, 53.25468
802.3634, 53.27572
802.8455, 52.65302
803.3276, 51.83690
803.8098, 51.92619
804.2919, 53.50972
804.7740, 54.59856
805.2561, 53.73104
805.7382, 52.22742
806.2203, 51.29576
806.7025, 50.91784
807.1846, 50.84340
807.6667, 50.95816
808.1488, 51.00305
808.6309, 50.49909
809.1130, 49.65002
809.5952, 50.02357
810.0773, 51.94623
810.5594, 53.08465
811.0415, 52.54474
811.5236, 51.45270
812.0057, 50.80916
812.4879, 50.58673
812.9700, 50.40777
813.4521, 50.17710
813.9342, 50.12221
814.4163, 50.50605
814.8984, 50.87561
815.3806, 50.79070
815.8627, 50.44058
816.3448, 50.40320
816.8269, 50.93895
817.3090, 51.24357
817.7911, 50.11521
818.2733, 48.40388
818.7554, 47.92663
819.2375, 48.59428
819.7196, 49.28631
820.2017, 49.58806
820.6838, 49.56599
821.1660, 49.20625
821.6481, 48.53487
822.1302, 48.60630
822.6123, 50.04459
823.0944, 50.88696
823.5765, 50.24365
824.0587, 49.34381
824.5408, 49.12439
825.0229, 49.37233
825.5050, 49.36056
825.9871, 48.73728
826.4692, 48.30076
826.9514, 48.40680
827.4335, 48.79247
827.9156, 49.40705
828.3977, 50.06887
828.8798, 50.43302
829.3619, 50.37091
829.8441, 50.06169
830.3262, 49.58792
830.8083, 49.03947
831.2904, 48.79583
831.7725, 48.85477
832.2546, 48.89885
832.7368, 48.85659
833.2189, 48.62110
833.7010, 47.93677
834.1831, 46.91142
834.6652, 46.79858
835.1473, 48.61200
835.6295, 49.70375
836.1116, 49.31178
836.5937, 48.75475
837.0758, 48.77443
837.5579, 49.16833
838.0400, 49.52421
838.5222, 49.80637
839.0043, 49.72300
839.4864, 48.72222
839.9685, 47.61027
840.4506, 47.18095
840.9327, 47.29743
841.4149, 47.69951
841.8970, 48.23846
842.3791, 48.46706
842.8612, 47.79905
843.3433, 46.61160
843.8254, 46.26022
844.3076, 46.77949
844.7897, 47.08614
845.2718, 46.89527
845.7539, 46.71944
846.2360, 47.01058
846.7181, 47.57949
847.2003, 47.75101
847.6824, 47.07849
848.1645, 46.89116
848.6466, 47.56290
849.1287, 48.27863
849.6108, 48.89912
850.0930, 49.26496
850.5751, 49.08258
851.0572, 48.34684
851.5393, 47.67256
852.0214, 47.36360
852.5035, 47.25182
852.9857, 47.31743
853.4678, 47.42523
853.9499, 47.34838
854.4320, 47.05284
854.9141, 46.57253
855.3962, 45.90165
855.8784, 45.22399
856.3605, 44.97213
856.8426, 45.13124
857.3247, 45.18774
857.8068, 45.11015
858.2889, 44.89410
858.7711, 44.46601
859.2532, 43.99975
859.7353, 43.70760
860.2174, 43.54493
860.6995, 43.90465
861.1816, 45.67008
861.6638, 46.76287
862.1459, 46.21555
862.6280, 45.33746
863.1101, 45.09919
863.5922, 45.46922
864.0743, 46.10965
864.5565, 47.16183
865.0386, 47.79932
865.5207, 47.24247
866.0028, 46.17136
866.4849, 45.27003
866.9670, 44.57304
867.4492, 43.86357
867.9313, 43.09378
868.4134, 42.76397
868.8955, 43.70766
869.3776, 45.44435
869.8597, 46.13736
870.3419, 45.77903
870.8240, 45.18806
871.3061, 44.47919
871.7882, 43.91698
872.2703, 43.75405
872.7524, 43.89510
873.2346, 43.98407
873.7166, 44.13813
874.1987, 44.00580
874.6808, 43.19158
875.1630, 42.53638
875.6451, 42.46372
876.1272, 42.65252
876.6093, 42.66498
877.0914, 42.46102
877.5735, 42.41022
878.0557, 42.80132
878.5378, 43.19524
879.0199, 43.38526
879.5020, 43.40327
879.9841, 43.17066
880.4662, 42.79898
880.9484, 42.69963
881.4305, 43.14321
881.9126, 43.59583
882.3947, 43.19368
882.8768, 42.25794
883.3589, 41.78757
883.8411, 41.81213
884.3232, 42.05475
884.8053, 42.43821
885.2874, 42.72760
885.7695, 42.61855
886.2516, 42.14875
886.7338, 41.71808
887.2159, 41.24137
887.6980, 41.05805
888.1801, 41.33506
888.6622, 41.76263
889.1443, 42.34547
889.6265, 42.88353
890.1086, 42.81498
890.5907, 41.78463
891.0728, 41.26777
891.5549, 41.91065
892.0370, 42.61403
892.5192, 42.99154
893.0013, 43.04354
893.4834, 42.63704
893.9655, 41.88541
894.4476, 41.39081
894.9297, 41.67103
895.4119, 41.97639
895.8940, 41.33404
896.3761, 40.37068
896.8582, 40.29576
897.3403, 41.00690
897.8224, 41.53474
898.3046, 41.42437
898.7867, 40.91434
899.2688, 40.11226
899.7509, 39.16723
900.2330, 39.17149
900.7151, 40.19511
901.1973, 40.92939
901.6794, 41.00747
902.1615, 40.79924
902.6436, 40.57093
903.1257, 40.34909
903.6078, 40.27351
904.0900, 40.59957
904.5721, 40.52097
905.0542, 39.43962
905.5363, 38.67308
906.0184, 39.13844
906.5005, 39.94422
906.9827, 39.85033
907.4648, 38.80759
907.9469, 38.29671
908.4290, 39.25507
908.9111, 40.08648
909.3932, 40.17370
909.8754, 39.76942
910.3575, 38.67702
910.8396, 37.36853
911.3217, 37.07960
911.8038, 37.12300
912.2859, 39.74649
912.7681, 38.24271
913.2502, 39.70207
913.7323, 40.51284
914.2144, 40.70987
914.6965, 38.45495
915.1786, 39.36621
915.6608, 39.00861
916.1429, 38.59898
916.6250, 39.95587
917.1071, 38.05758
917.5892, 39.38646
918.0714, 39.42710
918.5535, 40.05733
919.0356, 39.41088
919.5177, 39.15875
919.9998, 40.18373
920.4819, 40.50156
920.9641, 39.70813
921.4462, 40.37585
921.9283, 38.43296
922.4104, 38.78092
922.8925, 40.11726
923.3746, 39.38803
923.8568, 40.07908
924.3389, 40.22921
924.8210, 37.92107
925.3031, 39.88811
925.7852, 40.00628
926.2673, 38.22605
926.7495, 40.04660
927.2316, 38.52808
927.7137, 38.20142
928.1958, 38.77169
928.6779, 38.40693
929.1600, 39.51635
929.6422, 39.20558
930.1243, 38.76793
930.6064, 38.88403
931.0885, 38.48944
931.5706, 38.88900
932.0527, 38.35852
932.5349, 38.81647
933.0170, 39.49847
933.4991, 38.46498
933.9812, 39.24765
934.4633, 37.21388
934.9454, 37.53673
935.4276, 37.60580
935.9097, 39.18118
936.3918, 37.16114
936.8739, 37.41851
937.3560, 38.64557
937.8381, 38.51581
938.3203, 38.95333
938.8024, 37.71145
939.2845, 38.04725
939.7666, 37.94818
940.2487, 39.35183
940.7308, 39.56915
941.2130, 38.35575
941.6951, 37.14842
942.1772, 38.66022
942.6593, 37.59480
943.1414, 37.91976
943.6235, 36.80875
944.1057, 36.93759
944.5878, 37.04677
945.0699, 37.79153
945.5520, 37.64022
946.0341, 37.92651
946.5162, 37.79906
946.9984, 38.09724
947.4805, 38.34807
947.9626, 38.49788
948.4447, 38.18481
948.9268, 38.73705
949.4089, 37.44426
949.8911, 36.85153
950.3732, 36.75646
950.8553, 39.01006
951.3374, 39.08060
951.8195, 36.54171
952.3016, 38.69181
952.7838, 37.95715
953.2659, 38.07975
953.7480, 37.88959
954.2301, 37.79201
954.7122, 37.88804
955.1943, 36.79347
955.6764, 38.33202
956.1585, 37.71929
956.6406, 38.56835
957.1227, 36.75336
957.6049, 36.51970
958.0870, 36.70578
958.5691, 37.04495
959.0512, 36.16096
959.5333, 37.72312
960.0154, 37.65656
960.4976, 36.17858
960.9797, 36.30799
961.4618, 35.82973
961.9439, 35.98904
962.4260, 36.35513
962.9081, 36.86036
963.3903, 37.34831
963.8724, 37.59944
964.3545, 37.62832
964.8366, 37.78957
965.3187, 38.53382
965.8008, 38.68631
966.2830, 37.50960
966.7651, 36.48894
967.2472, 36.48436
967.7293, 36.98541
968.2114, 37.28859
968.6935, 37.33681
969.1757, 37.17245
969.6578, 36.61107
970.1399, 36.08931
970.6220, 35.63856
971.1041, 35.40178
971.5862, 35.68042
972.0684, 36.22813
972.5505, 36.49162
973.0326, 36.30177
973.5147, 36.05087
973.9968, 35.81441
974.4789, 35.75939
974.9611, 36.26984
975.4432, 36.92295
975.9253, 37.02779
976.4074, 36.62251
976.8895, 36.19635
977.3716, 35.97128
977.8538, 36.02542
978.3359, 36.78907
978.8180, 37.69651
979.3001, 37.43202
979.7822, 36.42359
980.2643, 36.33557
980.7465, 37.44304
981.2286, 38.43971
981.7107, 38.36710
982.1928, 37.65077
982.6749, 36.90031
983.1570, 36.18872
983.6392, 36.06721
984.1213, 36.53747
984.6034, 36.80414
985.0855, 36.57784
985.5676, 36.24989
986.0497, 36.21278
986.5319, 36.37172
987.0140, 36.40041
987.4961, 36.31122
987.9782, 35.83384
988.4603, 34.66558
988.9424, 34.32531
989.4246, 35.83794
989.9067, 37.73030
990.3888, 38.13493
990.8709, 37.14537
991.3530, 36.19303
991.8351, 34.87495
992.3173, 34.58034
992.7994, 36.31802
993.2815, 37.78433
993.7636, 37.65950
994.2457, 36.70164
994.7278, 35.95836
995.2100, 35.42870
995.6921, 35.13711
996.1742, 35.35956
996.6563, 35.42212
997.1384, 35.00655
997.6205, 34.62558
998.1027, 34.59480
998.5848, 34.80602
999.0669, 35.13120
999.5490, 35.57532
1000.031, 35.76143
1000.513, 35.35658
1000.995, 34.98553
1001.477, 34.84601
1001.960, 34.88441
1002.442, 35.17868
1002.924, 35.57739
1003.406, 35.74953
1003.888, 35.59516
1004.370, 35.46068
1004.852, 35.37313
1005.334, 35.52735
1005.817, 36.47424
1006.299, 37.46470
1006.781, 37.41785
1007.263, 36.55060
1007.745, 35.85403
1008.227, 35.71763
1008.709, 35.71473
1009.191, 35.38257
1009.673, 35.11058
1010.156, 35.59285
1010.638, 36.35898
1011.120, 36.37594
1011.602, 35.69820
1012.084, 35.34628
1012.566, 35.87808
1013.048, 36.50272
1013.530, 36.21294
1014.013, 35.45922
1014.495, 34.96159
1014.977, 34.76642
1015.459, 35.13155
1015.941, 35.98378
1016.423, 36.49266
1016.905, 36.10175
1017.387, 35.40886
1017.869, 35.33422
1018.352, 35.72045
1018.834, 36.10860
1019.316, 36.44235
1019.798, 36.27296
1020.280, 35.51942
1020.762, 35.05338
1021.244, 35.55299
1021.726, 36.53300
1022.208, 37.19194
1022.691, 37.49541
1023.173, 36.72423
1023.655, 34.82732
1024.137, 33.80022
1024.619, 34.25608
1025.101, 35.16631
1025.583, 35.76205
1026.065, 36.08870
1026.547, 36.28175
1027.030, 36.35644
1027.512, 35.94863
1027.994, 34.86004
1028.476, 34.45882
1028.958, 35.34625
1029.440, 36.38107
1029.922, 36.56191
1030.404, 36.13628
1030.887, 35.87750
1031.369, 35.79669
1031.851, 35.85413
1032.333, 36.13419
1032.815, 36.29804
1033.297, 36.17164
1033.779, 36.04247
1034.261, 36.25585
1034.744, 36.63255
1035.226, 36.44983
1035.708, 35.29107
1036.190, 34.86961
1036.672, 35.75330
1037.154, 36.29076
1037.636, 35.71482
1038.118, 34.93828
1038.600, 34.74493
1039.083, 35.03065
1039.565, 35.40388
1040.047, 36.04813
1040.529, 36.32124
1041.011, 35.96849
1041.493, 35.60111
1041.975, 35.34399
1042.457, 35.18017
1042.939, 35.14781
1043.422, 35.20020
1043.904, 35.14795
1044.386, 34.86979
1044.868, 34.77803
1045.350, 35.11238
1045.832, 35.34735
1046.314, 35.24056
1046.796, 35.03889
1047.279, 34.98282
1047.761, 35.01581
1048.243, 34.88887
1048.725, 34.43124
1049.207, 34.24934
1049.689, 34.69513
1050.171, 35.08228
1050.653, 35.20038
1051.135, 35.12870
1051.618, 34.75864
1052.100, 34.27892
1052.582, 34.30560
1053.064, 35.20337
1053.546, 35.58852
1054.028, 34.57213
1054.510, 33.73985
1054.992, 33.97223
1055.474, 34.47511
1055.957, 34.44092
1056.439, 34.06489
1056.921, 34.08166
1057.403, 34.75230
1057.885, 35.16744
1058.367, 34.77796
1058.849, 34.44587
1059.331, 34.78037
1059.814, 35.15192
1060.296, 34.84764
1060.778, 34.12023
1061.260, 33.65864
1061.742, 33.60750
1062.224, 33.82639
1062.706, 34.60154
1063.188, 35.21605
1063.671, 35.38305
1064.153, 35.19884
1064.635, 34.42506
1065.117, 33.46947
1065.599, 33.22465
1066.081, 33.91376
1066.563, 34.66486
1067.045, 35.43562
1067.527, 35.81203
1068.010, 35.26234
1068.492, 34.52140
1068.974, 34.26434
1069.456, 34.33137
1069.938, 34.19004
1070.420, 33.74109
1070.902, 33.69537
1071.384, 34.86407
1071.866, 35.84265
1072.349, 35.79245
1072.831, 35.41072
1073.313, 35.26743
1073.795, 35.26029
1074.277, 35.00694
1074.759, 34.48182
1075.241, 34.29876
1075.723, 35.10559
1076.206, 35.76078
1076.688, 35.68101
1077.170, 35.25908
1077.652, 34.51360
1078.134, 33.79703
1078.616, 33.76339
1079.098, 34.39024
1079.580, 34.75696
1080.062, 34.47135
1080.545, 33.91993
1081.027, 32.78984
1081.509, 31.97189
1081.991, 32.49398
1082.473, 33.55120
1082.955, 33.84819
1083.437, 33.41323
1083.919, 33.48954
1084.401, 34.93208
1084.884, 35.82961
1085.366, 34.59007
1085.848, 33.27834
1086.330, 33.57744
1086.812, 34.43073
1087.294, 34.42169
1087.776, 33.62666
1088.258, 32.97805
1088.740, 32.70759
1089.223, 32.79546
1089.705, 33.54668
1090.187, 34.28629
1090.669, 34.76002
1091.151, 34.90487
1091.633, 34.53293
1092.115, 33.80935
1092.597, 33.12250
1093.080, 32.53465
1093.562, 32.21639
1094.044, 32.15137
1094.526, 32.46955
1095.008, 33.69514
1095.490, 34.92263
1095.972, 35.46861
1096.454, 35.35516
1096.937, 34.56654
1097.419, 33.07597
1097.901, 32.09005
1098.383, 32.21590
1098.865, 32.59347
1099.347, 33.00899
1099.829, 33.47611
1100.311, 34.25298
1100.793, 34.96780
1101.276, 34.87727
1101.758, 33.97884
1102.240, 33.48574
1102.722, 34.21356
1103.204, 34.59623
1103.686, 33.76985
1104.168, 33.06237
1104.650, 33.41722
1105.132, 34.17284
1105.615, 34.52219
1106.097, 34.46503
1106.579, 34.39727
1107.061, 34.44926
1107.543, 34.33906
1108.025, 33.79439
1108.507, 33.36768
1108.989, 33.29639
1109.472, 33.42019
1109.954, 33.67821
1110.436, 33.99669
1110.918, 34.15948
1111.400, 34.11490
1111.882, 34.04225
1112.364, 34.11330
1112.846, 33.93828
1113.328, 32.81887
1113.811, 32.02256
1114.293, 33.00698
1114.775, 34.72456
1115.257, 34.89908
1115.739, 33.22306
1116.221, 32.35380
1116.703, 32.88483
1117.185, 33.22355
1117.667, 33.06767
1118.150, 32.84420
1118.632, 32.59410
1119.114, 32.56031
1119.596, 33.27638
1120.078, 34.64475
1120.560, 35.04393
1121.042, 33.74442
1121.524, 33.33510
1122.007, 34.53355
1122.489, 35.31661
1122.971, 34.69127
1123.453, 33.79628
1123.935, 33.77743
1124.417, 34.39611
1124.899, 34.78278
1125.381, 34.94184
1125.864, 34.80161
1126.346, 34.23413
1126.828, 33.83945
1127.310, 33.75496
1127.792, 33.98206
1128.274, 34.65730
1128.756, 35.34243
1129.238, 35.06253
1129.720, 33.85611
1130.203, 33.23668
1130.685, 33.25829
1131.167, 33.27995
1131.649, 33.18596
1132.131, 33.29108
1132.613, 33.80239
1133.095, 34.25054
1133.577, 33.95305
1134.059, 33.19714
1134.542, 33.10128
1135.024, 33.62044
1135.506, 34.43272
1135.988, 35.44759
1136.470, 35.38560
1136.952, 33.83900
1137.434, 32.60414
1137.916, 33.28477
1138.399, 34.80936
1138.881, 35.16886
1139.363, 34.68124
1139.845, 34.26159
1140.327, 34.00088
1140.809, 34.39036
1141.291, 35.32700
1141.773, 35.40764
1142.255, 33.83221
1142.738, 32.00232
1143.220, 31.52049
1143.702, 31.88369
1144.184, 32.55342
1144.666, 33.27618
1145.148, 33.46972
1145.630, 33.20506
1146.112, 32.83343
1146.594, 32.51690
1147.077, 32.55689
1147.559, 33.34218
1148.041, 34.24732
1148.523, 34.70811
1149.005, 34.91142
1149.487, 35.17886
1149.969, 35.31423
1150.451, 34.74895
1150.934, 33.60003
1151.416, 32.76432
1151.898, 32.63381
1152.380, 32.79126
1152.862, 33.29213
1153.344, 33.65837
1153.826, 33.30824
1154.308, 32.86161
1154.791, 33.09999
1155.273, 33.78158
1155.755, 34.16011
1156.237, 34.07400
1156.719, 34.07185
1157.201, 34.43604
1157.683, 34.72955
1158.165, 34.88255
1158.647, 34.86256
1159.130, 34.62402
1159.612, 34.21943
1160.094, 33.52013
1160.576, 32.62207
1161.058, 32.44068
1161.540, 33.74848
1162.022, 34.39470
1162.504, 33.83813
1162.986, 33.40551
1163.469, 33.46780
1163.951, 33.78460
1164.433, 34.33480
1164.915, 34.89225
1165.397, 34.88988
1165.879, 34.26537
1166.361, 33.71416
1166.843, 33.18252
1167.325, 32.98633
1167.808, 33.30674
1168.290, 33.43489
1168.772, 32.95183
1169.254, 32.37605
1169.736, 32.35236
1170.218, 32.71612
1170.700, 32.71922
1171.182, 33.13842
1171.665, 32.76372
1172.147, 33.88834
1172.629, 34.69871
1173.111, 34.90532
1173.593, 34.85713
1174.075, 34.78923
1174.557, 34.64548
1175.039, 34.26278
1175.521, 33.76390
1176.004, 33.47929
1176.486, 33.37836
1176.968, 33.38082
1177.450, 33.47047
1177.932, 33.66482
1178.414, 33.96006
1178.896, 34.27068
1179.378, 34.64739
1179.860, 34.76475
1180.343, 33.94474
1180.825, 32.91052
1181.307, 32.56722
1181.789, 32.72010
1182.271, 33.08497
1182.753, 33.48115
1183.235, 33.49591
1183.717, 32.88694
1184.200, 32.46061
1184.682, 32.79913
1185.164, 33.24137
1185.646, 33.34512
1186.128, 33.45418
1186.610, 34.17503
1187.092, 35.00201
1187.574, 34.72596
1188.057, 33.29168
1188.539, 32.72694
1189.021, 34.31627
1189.503, 35.26299
1189.985, 34.85713
1190.467, 34.29269
1190.949, 33.81374
1191.431, 33.55075
1191.913, 33.79302
1192.396, 34.25320
1192.878, 34.06898
1193.360, 34.21056
1193.842, 34.37014
1194.324, 33.92775
1194.806, 34.42639
1195.288, 34.00336
1195.770, 33.64078
1196.252, 33.88652
1196.735, 34.08070
1197.217, 33.35698
1197.699, 32.14587
1198.181, 31.86519
1198.663, 32.42832
1199.145, 33.21125
1199.627, 34.09768
1200.109, 34.36017
1200.592, 33.88073
1201.074, 33.20486
1201.556, 32.63221
1202.038, 32.47203
1202.520, 33.42015
1203.002, 34.72435
1203.484, 35.15211
1203.966, 35.03597
1204.448, 34.91435
1204.931, 34.80268
1205.413, 34.46059
1205.895, 33.90746
1206.377, 33.65131
1206.859, 34.06505
1207.341, 34.48713
1207.823, 34.39445
1208.305, 34.29330
1208.787, 34.80512
1209.270, 35.27491
1209.752, 34.71292
1210.234, 33.60756
1210.716, 33.31020
1211.198, 34.07807
1211.680, 34.52108
1212.162, 34.17120
1212.644, 33.89502
1213.127, 33.94971
1213.609, 33.90590
1214.091, 33.50233
1214.573, 33.04810
1215.055, 32.80989
1215.537, 32.77397
1216.019, 32.90007
1216.501, 33.18907
1216.984, 33.72091
1217.466, 34.60822
1217.948, 34.87243
1218.430, 34.26051
1218.912, 33.96119
1219.394, 34.60422
1219.876, 35.14771
1220.358, 34.29793
1220.840, 32.85696
1221.323, 32.86990
1221.805, 33.84617
1222.287, 34.06520
1222.769, 33.71598
1223.251, 33.84777
1223.733, 34.54958
1224.215, 35.12471
1224.697, 35.24626
1225.179, 35.10752
1225.662, 34.66280
1226.144, 34.26834
1226.626, 34.28962
1227.108, 34.49835
1227.590, 34.69259
1228.072, 34.87352
1228.554, 35.23602
1229.036, 35.66346
1229.519, 35.42708
1230.001, 33.90811
1230.483, 33.15139
1230.965, 34.60224
1231.447, 35.52922
1231.929, 34.55530
1232.411, 33.37372
1232.893, 32.81918
1233.375, 32.88074
1233.858, 33.80573
1234.340, 33.50213
1234.822, 33.84582
1235.304, 34.32246
1235.786, 34.10267
1236.268, 35.48631
1236.750, 35.83042
1237.232, 34.32488
1237.714, 33.00870
1238.197, 33.21403
1238.679, 33.98354
1239.161, 33.93697
1239.643, 33.46183
1240.125, 33.64716
1240.607, 34.27626
1241.089, 34.79293
1241.571, 35.13007
1242.054, 35.25227
1242.536, 35.18145
1243.018, 35.06597
1243.500, 34.98799
1243.982, 34.84632
1244.464, 34.45284
1244.946, 34.09623
1245.428, 34.13566
1245.910, 34.19175
1246.393, 33.67746
1246.875, 33.01113
1247.357, 33.09375
1247.839, 33.90275
1248.321, 34.24973
1248.803, 33.59728
1249.285, 33.27071
1249.767, 33.62919
1250.250, 33.83766
1250.732, 33.52446
1251.214, 33.38349
1251.696, 34.01810
1252.178, 34.74207
1252.660, 34.44622
1253.142, 33.38774
1253.624, 33.00999
1254.106, 33.29980
1254.589, 33.71663
1255.071, 34.20762
1255.553, 34.47945
1256.035, 34.46413
1256.517, 34.19922
1256.999, 33.69627
1257.481, 33.36835
1257.963, 33.75816
1258.445, 34.47369
1258.928, 35.29249
1259.410, 35.85892
1259.892, 35.25397
1260.374, 34.21907
1260.856, 34.49907
1261.338, 35.87941
1261.820, 36.11068
1262.302, 34.16637
1262.785, 32.90608
1263.267, 34.00261
1263.749, 34.80597
1264.231, 33.98878
1264.713, 33.22029
1265.195, 33.68359
1265.677, 34.47475
1266.159, 34.48900
1266.641, 34.00167
1267.124, 34.24632
1267.606, 33.68940
1268.088, 35.22213
1268.570, 33.30136
1269.052, 32.55339
1269.534, 33.48303
1270.016, 34.46931
1270.498, 34.78989
1270.980, 34.77485
1271.463, 34.72272
1271.945, 34.58136
1272.427, 34.41428
1272.909, 33.52123
1273.391, 34.00254
1273.873, 33.58224
1274.355, 33.45054
1274.837, 33.70622
1275.320, 33.27624
1275.802, 33.70581
1276.284, 34.18429
1276.766, 34.48195
1277.248, 34.59655
1277.730, 34.26388
1278.212, 34.08346
1278.694, 34.59608
1279.177, 35.12634
1279.659, 35.11726
1280.141, 34.72377
1280.623, 34.11337
1281.105, 33.32636
1281.587, 33.39317
1282.069, 34.47504
1282.551, 35.15948
1283.033, 35.34660
1283.516, 35.25464
1283.998, 34.94689
1284.480, 34.55904
1284.962, 34.16871
1285.444, 33.87744
1285.926, 33.79063
##END=



