##NAMES=Crichtonite
##RRUFFID=R090006
##IDEAL CHEMISTRY=Sr(Mn^2+^,Y^3+^,U^6+^)Fe^2+^_2_(Ti^4+^,Fe^3+^,Cr^3+^,V^5+^)_18_(O,OH)_38_
##LOCALITY=Presidente Kubitschek, Minas Gerias, Brazil
##OWNER=RRUFF
##SOURCE=Luiz Menezes
##DESCRIPTION=Black poorly shaped, rounded crystals associated with quartz and rutile
##STATUS=The identification of this mineral has been confirmed only by single crystal X-ray diffraction.
##URL=rruff.info/R090006
91.62726, 0.0000000E+00
92.10938, 6.349343
92.59149, 6.679107
93.07361, 6.481648
93.55573, 5.808625
94.03784, 5.315727
94.51996, 6.075821
95.00208, 7.611215
95.48419, 8.200761
95.96631, 6.719114
96.44843, 4.028755
96.93054, 2.692392
97.41266, 2.863842
97.89478, 3.629239
98.37689, 3.857666
98.85901, 3.535290
99.34113, 3.454862
99.82324, 3.943200
100.3054, 4.995439
100.7875, 6.404106
101.2696, 8.448789
101.7517, 10.48846
102.2338, 11.27264
102.7159, 10.50225
103.1981, 9.307235
103.6802, 8.071807
104.1623, 6.574646
104.6444, 5.747054
105.1265, 5.773707
105.6086, 6.476750
106.0908, 7.222555
106.5729, 8.122479
107.0550, 8.926609
107.5371, 9.430929
108.0192, 8.932510
108.5013, 9.198592
108.9835, 10.62242
109.4656, 13.16341
109.9477, 15.55043
110.4298, 18.14955
110.9119, 20.39422
111.3940, 21.95520
111.8762, 21.24114
112.3583, 21.42130
112.8404, 23.56715
113.3225, 27.96899
113.8046, 31.37076
114.2867, 32.35815
114.7689, 32.45046
115.2510, 33.29813
115.7331, 35.93473
116.2152, 38.84090
116.6973, 41.45753
117.1794, 43.69023
117.6616, 45.80963
118.1437, 48.20046
118.6258, 50.53493
119.1079, 52.19122
119.5900, 51.57641
120.0721, 51.05789
120.5543, 52.51062
121.0364, 57.04392
121.5185, 61.52584
122.0006, 63.49950
122.4827, 63.76953
122.9648, 64.67374
123.4470, 68.29128
123.9291, 72.98254
124.4112, 76.91801
124.8933, 79.63383
125.3754, 81.54946
125.8575, 82.76341
126.3397, 83.38213
126.8218, 84.06332
127.3039, 85.28444
127.7860, 86.91136
128.2681, 88.63895
128.7502, 90.21542
129.2324, 91.97789
129.7145, 94.77116
130.1966, 98.60982
130.6787, 102.3381
131.1608, 104.9881
131.6429, 106.6046
132.1251, 107.4805
132.6072, 107.1644
133.0893, 106.1958
133.5714, 106.8054
134.0535, 109.3120
134.5356, 111.9311
135.0178, 111.6291
135.4999, 108.3106
135.9820, 106.5537
136.4641, 108.8877
136.9462, 115.1805
137.4283, 119.8112
137.9105, 122.4115
138.3926, 124.0773
138.8747, 126.5640
139.3568, 130.0435
139.8389, 133.7394
140.3210, 137.7449
140.8032, 142.5433
141.2853, 145.0104
141.7674, 144.2933
142.2495, 141.7253
142.7316, 140.3950
143.2137, 140.1564
143.6959, 139.7983
144.1780, 139.6089
144.6601, 139.5640
145.1422, 139.7335
145.6243, 140.1493
146.1064, 140.7749
146.5886, 141.5400
147.0707, 142.7654
147.5528, 143.7746
148.0349, 144.2054
148.5170, 144.0737
148.9991, 143.3774
149.4813, 141.7445
149.9634, 139.3237
150.4455, 137.6550
150.9276, 137.0441
151.4097, 136.9381
151.8918, 137.0041
152.3740, 137.5131
152.8561, 137.8792
153.3382, 138.2090
153.8203, 138.4921
154.3024, 138.1307
154.7845, 136.3400
155.2667, 134.2934
155.7488, 132.8443
156.2309, 132.7567
156.7130, 132.6485
157.1951, 132.3769
157.6772, 131.9561
158.1594, 130.9398
158.6415, 128.1990
159.1236, 125.2319
159.6057, 123.4958
160.0878, 124.6136
160.5699, 125.8937
161.0521, 126.3649
161.5342, 125.8783
162.0163, 125.3268
162.4984, 125.0159
162.9805, 124.8204
163.4626, 124.5820
163.9448, 124.3880
164.4269, 124.0320
164.9090, 123.3736
165.3911, 122.3686
165.8732, 121.2545
166.3553, 119.8637
166.8375, 118.4690
167.3196, 117.5224
167.8017, 117.7087
168.2838, 118.1135
168.7659, 117.9285
169.2480, 116.8520
169.7302, 116.0050
170.2123, 116.3756
170.6944, 117.5558
171.1765, 118.6222
171.6586, 119.3478
172.1407, 119.6197
172.6229, 119.2236
173.1050, 117.9555
173.5871, 116.5231
174.0692, 115.3350
174.5513, 114.4407
175.0334, 114.0159
175.5156, 114.3075
175.9977, 115.0938
176.4798, 116.2417
176.9619, 118.0928
177.4440, 119.5265
177.9261, 118.6552
178.4083, 115.9956
178.8904, 113.7883
179.3725, 114.0415
179.8546, 115.7269
180.3367, 116.9069
180.8188, 117.1895
181.3010, 116.9100
181.7831, 116.3341
182.2652, 115.5059
182.7473, 114.7312
183.2294, 114.3390
183.7115, 114.1865
184.1937, 113.8547
184.6758, 113.1416
185.1579, 112.3503
185.6400, 111.8403
186.1221, 111.6228
186.6042, 111.9309
187.0864, 113.6462
187.5685, 116.2860
188.0506, 117.5768
188.5327, 116.7876
189.0148, 114.6182
189.4969, 112.2112
189.9791, 109.5452
190.4612, 107.3797
190.9433, 106.6903
191.4254, 107.2891
191.9075, 107.4805
192.3896, 106.7132
192.8718, 105.3765
193.3539, 104.4290
193.8360, 103.8328
194.3181, 103.8446
194.8002, 105.1538
195.2823, 107.7236
195.7645, 109.4827
196.2466, 109.8843
196.7287, 109.1331
197.2108, 107.8138
197.6929, 105.7735
198.1750, 103.8541
198.6572, 102.9442
199.1393, 103.0874
199.6214, 103.3180
200.1035, 103.4499
200.5856, 103.4871
201.0677, 103.4915
201.5499, 103.5049
202.0320, 103.3558
202.5141, 102.7228
202.9962, 101.5021
203.4783, 100.6610
203.9604, 100.5625
204.4426, 101.0885
204.9247, 101.1638
205.4068, 100.6423
205.8889, 100.0398
206.3710, 99.96318
206.8531, 100.5626
207.3353, 100.8945
207.8174, 100.5648
208.2995, 99.66653
208.7816, 99.57140
209.2637, 100.5458
209.7458, 101.8016
210.2280, 102.5237
210.7101, 102.5958
211.1922, 102.5384
211.6743, 102.3493
212.1564, 102.0477
212.6385, 102.3287
213.1207, 103.4882
213.6028, 104.7449
214.0849, 105.2308
214.5670, 104.7036
215.0491, 104.1238
215.5313, 103.6416
216.0134, 103.2572
216.4955, 103.1293
216.9776, 103.3177
217.4597, 103.6782
217.9418, 104.1201
218.4240, 104.7558
218.9061, 105.1660
219.3882, 105.2254
219.8703, 104.9318
220.3524, 104.5604
220.8345, 103.9812
221.3167, 103.4883
221.7988, 103.3763
222.2809, 103.7118
222.7630, 104.3034
223.2451, 105.2939
223.7272, 106.7063
224.2094, 107.3421
224.6915, 106.9022
225.1736, 106.0310
225.6557, 105.3523
226.1378, 104.8571
226.6199, 104.5712
227.1021, 104.6519
227.5842, 105.1036
228.0663, 104.8978
228.5484, 103.5040
229.0305, 102.0242
229.5126, 101.5243
229.9948, 102.4199
230.4769, 103.4728
230.9590, 104.6799
231.4411, 106.0325
231.9232, 106.5147
232.4053, 105.7439
232.8875, 104.5151
233.3696, 103.4944
233.8517, 102.6887
234.3338, 102.0658
234.8159, 101.5334
235.2980, 101.0980
235.7802, 101.3574
236.2623, 102.8538
236.7444, 104.4591
237.2265, 105.2351
237.7086, 104.9044
238.1907, 104.2477
238.6729, 103.0849
239.1550, 101.4965
239.6371, 100.9467
240.1192, 101.9030
240.6013, 103.3690
241.0834, 104.6570
241.5656, 106.0469
242.0477, 106.6211
242.5298, 105.8217
243.0119, 103.8671
243.4940, 103.1085
243.9761, 104.2189
244.4583, 105.7280
244.9404, 106.6248
245.4225, 106.8067
245.9046, 106.5238
246.3867, 105.4295
246.8688, 103.7646
247.3510, 103.3550
247.8331, 105.1875
248.3152, 107.0114
248.7973, 107.2322
249.2794, 104.7220
249.7615, 103.0110
250.2437, 102.5656
250.7258, 103.1529
251.2079, 103.7476
251.6900, 104.4691
252.1721, 105.0305
252.6542, 105.2343
253.1364, 104.9080
253.6185, 104.5999
254.1006, 104.2115
254.5827, 103.8754
255.0648, 104.1255
255.5469, 105.1964
256.0291, 106.4697
256.5112, 107.7745
256.9933, 109.5674
257.4754, 110.1352
257.9575, 108.8904
258.4396, 106.5517
258.9218, 105.2207
259.4039, 105.2289
259.8860, 105.6160
260.3681, 105.9108
260.8502, 105.9407
261.3323, 106.4761
261.8145, 107.8794
262.2966, 109.5764
262.7787, 110.2701
263.2608, 109.6211
263.7429, 108.6728
264.2250, 107.6828
264.7072, 106.4349
265.1893, 106.1347
265.6714, 107.1306
266.1535, 108.7771
266.6356, 109.9390
267.1177, 110.5372
267.5999, 110.8727
268.0820, 110.9215
268.5641, 110.5741
269.0462, 110.8456
269.5283, 111.9971
270.0104, 113.4529
270.4926, 114.4466
270.9747, 114.9949
271.4568, 115.0354
271.9389, 114.2742
272.4210, 112.6580
272.9031, 112.1112
273.3853, 112.8396
273.8674, 114.2687
274.3495, 115.8531
274.8316, 117.7362
275.3137, 119.0409
275.7958, 119.3171
276.2780, 118.6700
276.7601, 118.6279
277.2422, 119.3165
277.7243, 120.2814
278.2064, 121.2252
278.6885, 122.2156
279.1707, 122.5074
279.6528, 121.5940
280.1349, 119.8408
280.6170, 119.1457
281.0991, 119.5833
281.5812, 120.7842
282.0634, 122.9011
282.5455, 126.0159
283.0276, 127.8454
283.5097, 127.5646
283.9918, 125.9498
284.4739, 125.5176
284.9561, 126.3971
285.4382, 127.5054
285.9203, 128.0066
286.4024, 127.9339
286.8845, 127.8966
287.3666, 127.9328
287.8488, 128.1073
288.3309, 128.7340
288.8130, 129.8281
289.2951, 130.6945
289.7772, 130.7417
290.2593, 130.1041
290.7415, 129.5134
291.2236, 128.9811
291.7057, 128.6714
292.1878, 129.1325
292.6699, 130.2811
293.1520, 131.0826
293.6342, 130.5848
294.1163, 129.2364
294.5984, 128.6239
295.0805, 128.9238
295.5626, 129.5316
296.0447, 129.6670
296.5269, 129.4265
297.0090, 129.2778
297.4911, 129.6631
297.9732, 130.2632
298.4553, 130.3010
298.9374, 129.7321
299.4196, 128.9939
299.9017, 128.3757
300.3838, 127.9250
300.8659, 127.7883
301.3480, 128.1347
301.8301, 128.7740
302.3123, 129.6813
302.7944, 130.8372
303.2765, 131.4928
303.7586, 130.5797
304.2407, 128.8046
304.7228, 127.4203
305.2050, 126.8673
305.6871, 126.8351
306.1692, 127.3141
306.6513, 128.1838
307.1334, 128.7001
307.6155, 127.8879
308.0977, 126.5991
308.5798, 125.9897
309.0619, 126.6516
309.5440, 127.4630
310.0261, 127.3224
310.5082, 126.5412
310.9904, 126.0681
311.4725, 127.1399
311.9546, 128.3548
312.4367, 128.2979
312.9188, 126.3770
313.4009, 124.3571
313.8831, 123.0243
314.3652, 122.3805
314.8473, 122.3986
315.3294, 123.8328
315.8115, 125.3734
316.2936, 126.2224
316.7758, 126.2565
317.2579, 125.9260
317.7400, 125.1315
318.2221, 124.1701
318.7042, 123.4036
319.1863, 122.7449
319.6685, 122.4851
320.1506, 123.0684
320.6327, 124.5219
321.1148, 125.3741
321.5969, 124.5508
322.0790, 123.2616
322.5612, 122.5006
323.0433, 123.3607
323.5254, 123.8533
324.0075, 123.0827
324.4896, 121.2864
324.9717, 120.3362
325.4539, 121.4046
325.9360, 122.7991
326.4181, 123.5672
326.9002, 123.4012
327.3823, 122.9049
327.8644, 121.6388
328.3466, 120.0000
328.8287, 119.2072
329.3108, 119.9923
329.7929, 121.0113
330.2750, 121.8117
330.7571, 122.4038
331.2393, 122.7824
331.7214, 122.9646
332.2035, 122.9252
332.6856, 122.5963
333.1677, 121.6922
333.6498, 120.9150
334.1320, 120.5638
334.6141, 120.7650
335.0962, 120.3576
335.5783, 118.8103
336.0604, 117.2070
336.5425, 116.8032
337.0247, 118.2222
337.5068, 119.2495
337.9889, 119.3171
338.4710, 118.5723
338.9531, 118.3386
339.4352, 118.7708
339.9174, 119.3588
340.3995, 119.7461
340.8816, 119.9361
341.3637, 119.8706
341.8458, 119.3744
342.3279, 118.7553
342.8101, 119.0593
343.2922, 120.4765
343.7743, 121.5331
344.2564, 121.0921
344.7385, 119.2437
345.2206, 117.8496
345.7028, 117.0158
346.1849, 116.5998
346.6670, 116.5625
347.1491, 116.8676
347.6312, 116.9596
348.1133, 116.2710
348.5955, 115.1616
349.0776, 114.9818
349.5597, 115.8004
350.0418, 116.7974
350.5239, 116.9474
351.0060, 116.5492
351.4882, 116.5973
351.9703, 117.9232
352.4524, 119.4320
352.9345, 119.0722
353.4166, 117.0483
353.8987, 115.1847
354.3809, 115.1839
354.8630, 116.1199
355.3451, 116.5710
355.8272, 116.0508
356.3093, 115.3694
356.7914, 115.2384
357.2736, 115.5286
357.7557, 115.8936
358.2378, 116.3773
358.7199, 116.7129
359.2020, 116.5630
359.6841, 115.7925
360.1663, 115.1103
360.6484, 115.2427
361.1305, 115.6365
361.6126, 115.5154
362.0947, 113.6677
362.5768, 112.0495
363.0590, 111.7353
363.5411, 112.7392
364.0232, 113.7140
364.5053, 114.4206
364.9874, 114.8114
365.4695, 114.8494
365.9517, 113.9926
366.4338, 113.3736
366.9159, 113.3954
367.3980, 113.8770
367.8801, 114.0968
368.3622, 113.7731
368.8444, 113.3165
369.3265, 112.8764
369.8086, 112.3142
370.2907, 112.0319
370.7728, 112.1550
371.2549, 112.5155
371.7371, 112.8557
372.2192, 113.2694
372.7013, 113.5345
373.1834, 113.6085
373.6655, 113.4989
374.1476, 113.1412
374.6298, 112.5427
375.1119, 111.7040
375.5940, 110.4292
376.0761, 108.3043
376.5582, 107.1797
377.0403, 107.6971
377.5225, 109.4077
378.0046, 110.3216
378.4867, 110.2934
378.9688, 109.9559
379.4509, 109.6700
379.9330, 109.4394
380.4152, 109.1272
380.8973, 108.6388
381.3794, 108.2393
381.8615, 108.6010
382.3436, 109.7017
382.8257, 110.5046
383.3079, 110.3800
383.7900, 109.5846
384.2721, 108.9781
384.7542, 108.5749
385.2363, 108.2369
385.7184, 107.7915
386.2006, 107.3004
386.6827, 106.8908
387.1648, 106.5081
387.6469, 106.3331
388.1290, 106.8502
388.6111, 107.9128
389.0933, 108.6961
389.5754, 108.3344
390.0575, 107.5373
390.5396, 107.1950
391.0217, 107.5953
391.5038, 108.0417
391.9860, 108.1677
392.4681, 107.9873
392.9502, 107.5229
393.4323, 106.2372
393.9144, 105.0949
394.3965, 104.7903
394.8787, 105.3955
395.3608, 105.9802
395.8429, 106.1940
396.3250, 106.2485
396.8071, 106.3341
397.2892, 106.8008
397.7714, 106.9692
398.2535, 106.3972
398.7356, 105.2949
399.2177, 104.6948
399.6998, 105.0779
400.1819, 105.6793
400.6641, 106.2103
401.1462, 106.8126
401.6283, 107.0318
402.1104, 106.5519
402.5925, 105.8342
403.0746, 105.6421
403.5568, 106.4655
404.0389, 106.9037
404.5210, 106.3980
405.0031, 104.9455
405.4852, 104.2457
405.9673, 104.5062
406.4495, 105.1304
406.9316, 105.7836
407.4137, 106.5608
407.8958, 106.5613
408.3779, 105.3703
408.8600, 103.6123
409.3422, 102.9816
409.8243, 103.5515
410.3064, 104.1520
410.7885, 103.8072
411.2706, 102.8488
411.7527, 103.1328
412.2349, 104.9145
412.7170, 106.8548
413.1991, 107.2006
413.6812, 106.3565
414.1633, 105.6544
414.6454, 105.7311
415.1276, 106.0915
415.6097, 106.0673
416.0918, 105.7009
416.5739, 105.3052
417.0560, 105.0109
417.5381, 104.8396
418.0203, 104.8667
418.5024, 105.2237
418.9845, 105.4751
419.4666, 105.2177
419.9487, 104.6690
420.4308, 104.2436
420.9130, 104.0140
421.3951, 104.0199
421.8772, 104.4280
422.3593, 105.2835
422.8414, 105.8583
423.3235, 105.7931
423.8057, 105.4517
424.2878, 105.1253
424.7699, 104.8597
425.2520, 104.6068
425.7341, 104.2785
426.2162, 103.9457
426.6984, 103.8736
427.1805, 104.3956
427.6626, 104.7941
428.1447, 104.7386
428.6268, 104.0305
429.1089, 103.5673
429.5911, 103.2628
430.0732, 103.2900
430.5553, 104.0287
431.0374, 105.7669
431.5195, 107.0818
432.0016, 107.6799
432.4838, 107.6005
432.9659, 106.8312
433.4480, 105.2326
433.9301, 103.8129
434.4122, 103.4316
434.8943, 103.9487
435.3765, 104.4195
435.8586, 104.8026
436.3407, 104.9578
436.8228, 104.2999
437.3049, 103.1081
437.7870, 102.5829
438.2692, 104.0453
438.7513, 106.1313
439.2334, 106.8810
439.7155, 106.3393
440.1976, 105.3119
440.6797, 103.9330
441.1619, 102.5707
441.6440, 101.6961
442.1261, 101.5929
442.6082, 101.7000
443.0903, 101.8237
443.5724, 101.9194
444.0546, 101.8904
444.5367, 101.3605
445.0188, 100.9816
445.5009, 101.1698
445.9830, 102.0434
446.4651, 102.7243
446.9473, 102.9826
447.4294, 103.0127
447.9115, 102.9739
448.3936, 102.5987
448.8757, 102.5094
449.3578, 103.0039
449.8400, 103.8257
450.3221, 104.0944
450.8042, 103.5186
451.2863, 102.8561
451.7684, 102.4194
452.2505, 102.2611
452.7327, 101.9538
453.2148, 101.3791
453.6969, 100.8805
454.1790, 101.0173
454.6611, 101.8415
455.1432, 102.3938
455.6254, 102.4268
456.1075, 102.0602
456.5896, 101.4743
457.0717, 100.6720
457.5538, 100.0307
458.0359, 99.76889
458.5181, 99.85130
459.0002, 100.4181
459.4823, 101.5913
459.9644, 102.4329
460.4465, 101.4923
460.9286, 99.58870
461.4108, 98.30096
461.8929, 98.58042
462.3750, 99.40686
462.8571, 100.1990
463.3392, 100.9430
463.8214, 101.5330
464.3035, 102.0840
464.7856, 102.3636
465.2677, 102.0567
465.7498, 100.6847
466.2319, 99.95409
466.7141, 100.8282
467.1962, 102.3941
467.6783, 103.4927
468.1604, 104.0294
468.6425, 104.0075
469.1246, 102.9714
469.6068, 101.0894
470.0889, 100.5187
470.5710, 102.2598
471.0531, 103.9446
471.5352, 104.1391
472.0173, 102.2587
472.4995, 101.0338
472.9816, 100.6252
473.4637, 100.7131
473.9458, 100.8862
474.4279, 101.1567
474.9100, 101.3570
475.3922, 101.4943
475.8743, 101.4995
476.3564, 101.0266
476.8385, 100.0818
477.3206, 99.20964
477.8027, 98.90727
478.2849, 98.96922
478.7670, 98.97441
479.2491, 98.85612
479.7312, 98.71933
480.2133, 98.62521
480.6954, 98.58640
481.1776, 98.62752
481.6597, 98.86298
482.1418, 99.09215
482.6239, 99.11012
483.1060, 98.96346
483.5881, 98.98109
484.0703, 99.47835
484.5524, 100.0483
485.0345, 100.4877
485.5166, 100.8987
485.9987, 100.8766
486.4808, 99.88516
486.9630, 98.58999
487.4451, 97.91038
487.9272, 98.35695
488.4093, 98.69874
488.8914, 98.64449
489.3735, 98.26357
489.8557, 98.20512
490.3378, 98.60806
490.8199, 99.02132
491.3020, 99.23180
491.7841, 99.25291
492.2662, 98.83314
492.7484, 97.82431
493.2305, 96.75698
493.7126, 96.38964
494.1947, 96.65964
494.6768, 97.17531
495.1589, 97.93172
495.6411, 98.74625
496.1232, 99.32097
496.6053, 99.66399
497.0874, 99.79000
497.5695, 99.34248
498.0516, 98.86478
498.5338, 99.16636
499.0159, 100.4945
499.4980, 101.5735
499.9801, 101.6158
500.4622, 100.9817
500.9443, 100.0941
501.4265, 98.46745
501.9086, 97.28068
502.3907, 97.07703
502.8728, 97.65328
503.3549, 98.14133
503.8370, 98.06800
504.3192, 98.23543
504.8013, 99.15565
505.2834, 101.2753
505.7655, 102.0547
506.2476, 100.6635
506.7297, 98.87115
507.2119, 98.52475
507.6940, 100.0609
508.1761, 101.2646
508.6582, 101.7937
509.1403, 101.8289
509.6224, 101.7647
510.1046, 101.6006
510.5867, 101.3363
511.0688, 100.6871
511.5509, 99.94424
512.0330, 100.2886
512.5151, 101.7536
512.9973, 102.9727
513.4794, 102.3415
513.9615, 100.8218
514.4436, 99.94861
514.9257, 100.1925
515.4078, 100.8680
515.8900, 101.7275
516.3721, 102.6434
516.8542, 103.3752
517.3363, 103.8943
517.8184, 104.1641
518.3005, 104.0806
518.7827, 103.6535
519.2648, 103.2689
519.7469, 102.7525
520.2290, 102.4816
520.7111, 102.7262
521.1932, 104.0556
521.6754, 104.6692
522.1575, 104.1988
522.6396, 103.3179
523.1217, 103.0546
523.6038, 103.6267
524.0859, 103.9885
524.5681, 103.8151
525.0502, 103.2772
525.5323, 102.9002
526.0144, 102.6774
526.4965, 102.7293
526.9786, 103.2449
527.4608, 104.0958
527.9429, 104.9070
528.4250, 105.6644
528.9071, 106.3842
529.3892, 107.2047
529.8713, 107.9781
530.3535, 108.4488
530.8356, 108.5371
531.3177, 108.3216
531.7998, 107.6626
532.2819, 106.7273
532.7640, 105.9468
533.2462, 105.3091
533.7283, 104.9850
534.2104, 105.1148
534.6925, 105.7400
535.1746, 106.3892
535.6567, 107.0952
536.1389, 107.7533
536.6210, 108.2719
537.1031, 108.5525
537.5852, 108.9783
538.0673, 109.7579
538.5494, 110.4961
539.0316, 110.3379
539.5137, 109.0780
539.9958, 108.3880
540.4779, 109.0770
540.9600, 110.5141
541.4421, 110.5959
541.9243, 109.3817
542.4064, 108.1897
542.8885, 107.9311
543.3706, 108.3085
543.8527, 108.8190
544.3348, 109.4241
544.8170, 110.1142
545.2991, 111.2264
545.7812, 112.2942
546.2633, 112.7258
546.7454, 111.9864
547.2275, 111.0497
547.7097, 109.9177
548.1918, 108.8825
548.6739, 108.6362
549.1560, 110.4169
549.6381, 111.9046
550.1202, 112.2871
550.6024, 111.5342
551.0845, 110.7590
551.5666, 109.7332
552.0487, 108.9908
552.5308, 109.0948
553.0129, 110.3639
553.4951, 110.6019
553.9772, 109.4434
554.4593, 107.8405
554.9414, 107.0090
555.4235, 106.9275
555.9056, 107.4662
556.3878, 109.0257
556.8699, 110.6596
557.3520, 110.4331
557.8341, 108.7301
558.3162, 107.2097
558.7983, 106.8340
559.2805, 107.1062
559.7626, 107.8698
560.2447, 109.1190
560.7268, 109.7434
561.2089, 108.4733
561.6910, 106.8068
562.1732, 105.9850
562.6553, 107.1872
563.1374, 107.7537
563.6195, 106.6842
564.1016, 105.0011
564.5837, 104.2058
565.0659, 104.5452
565.5480, 105.3665
566.0301, 106.8585
566.5122, 108.7271
566.9943, 109.3155
567.4764, 108.4134
567.9586, 107.2242
568.4407, 106.2810
568.9228, 105.6137
569.4049, 105.5331
569.8870, 106.0973
570.3691, 106.6559
570.8513, 106.4061
571.3334, 105.7185
571.8155, 105.3577
572.2976, 105.6103
572.7797, 105.9337
573.2618, 105.9566
573.7440, 105.7597
574.2261, 105.4893
574.7082, 104.9249
575.1903, 104.5668
575.6724, 104.8027
576.1545, 105.5383
576.6367, 105.9254
577.1188, 105.7250
577.6009, 105.3262
578.0830, 104.8529
578.5651, 104.2968
579.0472, 103.7041
579.5294, 102.9981
580.0115, 102.3829
580.4936, 102.0447
580.9757, 101.9832
581.4578, 102.1329
581.9399, 102.5489
582.4221, 103.0186
582.9042, 103.1039
583.3863, 102.9229
583.8684, 102.9663
584.3505, 103.7028
584.8326, 104.5662
585.3148, 104.8765
585.7969, 104.7454
586.2790, 104.6736
586.7611, 105.1579
587.2432, 105.6128
587.7253, 105.5663
588.2075, 104.8657
588.6896, 104.3606
589.1717, 104.4973
589.6538, 104.7052
590.1359, 104.5391
590.6180, 103.7028
591.1002, 103.0544
591.5823, 102.6450
592.0644, 102.4245
592.5465, 102.2734
593.0286, 102.1596
593.5107, 102.4215
593.9929, 103.3783
594.4750, 104.5988
594.9571, 104.8316
595.4392, 104.1622
595.9213, 103.4884
596.4034, 103.6896
596.8856, 104.0438
597.3677, 103.2760
597.8498, 101.3570
598.3319, 99.84465
598.8140, 100.1093
599.2961, 101.0074
599.7783, 101.5570
600.2604, 101.4193
600.7425, 101.2732
601.2246, 101.2133
601.7067, 101.2441
602.1888, 101.3879
602.6710, 101.8895
603.1531, 102.0627
603.6352, 101.6525
604.1173, 100.9157
604.5994, 100.6638
605.0815, 100.9825
605.5637, 101.3261
606.0458, 101.5315
606.5279, 101.5747
607.0100, 101.2811
607.4921, 100.6649
607.9742, 100.0456
608.4564, 99.48097
608.9385, 99.14409
609.4206, 99.47548
609.9027, 100.6407
610.3848, 101.5960
610.8669, 101.5332
611.3491, 100.9823
611.8312, 100.4898
612.3133, 100.2727
612.7954, 100.0176
613.2775, 99.45818
613.7596, 98.86745
614.2418, 98.78872
614.7239, 99.71424
615.2060, 100.2762
615.6881, 100.0191
616.1702, 99.17630
616.6523, 98.92760
617.1345, 99.34520
617.6166, 99.89895
618.0987, 100.3178
618.5808, 100.6334
619.0629, 101.0369
619.5450, 101.5320
620.0272, 101.8219
620.5093, 101.2662
620.9914, 100.5094
621.4735, 100.6190
621.9556, 102.1000
622.4377, 103.2182
622.9199, 102.5518
623.4020, 101.2114
623.8841, 100.4844
624.3662, 101.2468
624.8483, 101.9121
625.3304, 102.2882
625.8126, 102.4130
626.2947, 102.3127
626.7768, 101.8074
627.2589, 101.5071
627.7410, 101.6753
628.2231, 102.1875
628.7053, 102.3137
629.1874, 102.0210
629.6695, 101.8515
630.1516, 102.1791
630.6337, 102.8814
631.1158, 103.9169
631.5980, 105.2725
632.0801, 106.1137
632.5622, 105.3963
633.0443, 104.0220
633.5264, 102.9177
634.0085, 102.2353
634.4907, 101.9233
634.9728, 102.2372
635.4549, 102.7951
635.9370, 103.1428
636.4191, 102.8291
636.9012, 102.8946
637.3834, 103.6872
637.8655, 104.8024
638.3476, 105.1874
638.8297, 104.6658
639.3118, 104.2518
639.7939, 104.3796
640.2761, 104.8159
640.7582, 104.6364
641.2403, 103.8900
641.7224, 103.3963
642.2045, 104.1483
642.6866, 105.2258
643.1688, 105.1740
643.6509, 103.9444
644.1330, 102.8326
644.6151, 102.8097
645.0972, 103.0662
645.5793, 102.8841
646.0615, 101.7800
646.5436, 101.1868
647.0257, 101.5346
647.5078, 102.3571
647.9899, 103.3543
648.4720, 104.9484
648.9542, 105.5753
649.4363, 104.7631
649.9184, 103.2997
650.4005, 102.6549
650.8826, 102.8178
651.3647, 102.9556
651.8469, 102.6224
652.3290, 102.2792
652.8111, 103.1100
653.2932, 104.7636
653.7753, 105.7438
654.2574, 104.3717
654.7396, 102.6849
655.2217, 102.4818
655.7038, 103.7146
656.1859, 104.3578
656.6680, 103.1576
657.1501, 101.7163
657.6323, 100.9329
658.1144, 100.9620
658.5965, 100.9775
659.0786, 100.9361
659.5607, 100.9494
660.0428, 101.2282
660.5250, 101.8124
661.0071, 101.8998
661.4892, 101.3513
661.9713, 100.5335
662.4534, 99.78308
662.9355, 99.13946
663.4177, 98.70950
663.8998, 98.51852
664.3819, 98.56126
664.8640, 99.06751
665.3461, 99.77805
665.8282, 100.1938
666.3104, 99.62525
666.7925, 99.27177
667.2746, 99.84916
667.7567, 101.1046
668.2388, 101.5094
668.7209, 100.3652
669.2031, 99.49147
669.6852, 99.63715
670.1673, 100.7124
670.6494, 101.4115
671.1315, 101.7231
671.6136, 101.7811
672.0958, 101.4182
672.5779, 100.8917
673.0600, 101.0486
673.5421, 101.9529
674.0242, 102.8809
674.5063, 103.2776
674.9885, 103.3818
675.4706, 103.4507
675.9527, 103.5589
676.4348, 103.5663
676.9169, 103.2619
677.3990, 102.9095
677.8812, 102.8199
678.3633, 103.2459
678.8454, 103.4988
679.3275, 103.5234
679.8096, 103.3595
680.2917, 103.0564
680.7739, 102.6168
681.2560, 102.0540
681.7381, 101.2068
682.2202, 100.4569
682.7023, 100.8233
683.1844, 102.0261
683.6666, 102.9314
684.1487, 102.6911
684.6308, 102.1286
685.1129, 101.8183
685.5950, 101.7579
686.0771, 101.8274
686.5593, 102.3210
687.0414, 102.6367
687.5235, 102.2895
688.0056, 101.1879
688.4877, 100.8439
688.9698, 101.6612
689.4520, 102.5142
689.9341, 102.5329
690.4162, 101.7007
690.8983, 101.6328
691.3804, 102.4740
691.8625, 103.3091
692.3447, 103.0940
692.8268, 102.2341
693.3089, 101.4633
693.7910, 100.8841
694.2731, 100.5631
694.7552, 100.5589
695.2374, 100.8342
695.7195, 101.3501
696.2016, 102.6047
696.6837, 103.4476
697.1658, 103.7197
697.6479, 103.4935
698.1301, 102.6854
698.6122, 100.8026
699.0943, 99.86674
699.5764, 100.6816
700.0585, 102.2538
700.5406, 101.8482
701.0228, 99.69793
701.5049, 98.32642
701.9870, 99.53160
702.4691, 101.5731
702.9512, 102.1424
703.4333, 101.5158
703.9155, 100.7482
704.3976, 100.0685
704.8797, 99.64485
705.3618, 99.73470
705.8439, 100.3337
706.3260, 100.5718
706.8082, 100.0314
707.2903, 99.54449
707.7724, 99.51443
708.2545, 99.96571
708.7366, 100.3206
709.2188, 100.6132
709.7009, 100.6478
710.1830, 100.0900
710.6651, 99.14091
711.1472, 98.40015
711.6293, 97.91810
712.1115, 97.68993
712.5936, 97.84206
713.0757, 98.18011
713.5578, 98.49590
714.0399, 98.75954
714.5220, 98.97684
715.0042, 99.21204
715.4863, 99.36573
715.9684, 99.35597
716.4505, 99.24561
716.9326, 98.77674
717.4147, 97.72815
717.8969, 96.59345
718.3790, 96.26773
718.8611, 96.70967
719.3432, 97.06736
719.8253, 97.08266
720.3074, 97.01337
720.7896, 97.37108
721.2717, 97.91014
721.7538, 98.07329
722.2359, 97.23318
722.7180, 96.32928
723.2001, 95.85816
723.6823, 95.70142
724.1644, 95.52246
724.6465, 95.09741
725.1286, 94.89429
725.6107, 95.22341
726.0928, 95.87055
726.5750, 95.60549
727.0571, 94.24509
727.5392, 93.17231
728.0213, 93.25069
728.5034, 94.02792
728.9855, 94.28719
729.4677, 94.07732
729.9498, 93.76226
730.4319, 93.42272
730.9140, 93.19274
731.3961, 93.25416
731.8782, 93.61118
732.3604, 93.87029
732.8425, 93.78399
733.3246, 93.68494
733.8067, 93.81174
734.2888, 94.26814
734.7709, 94.18752
735.2531, 93.34534
735.7352, 92.54581
736.2173, 92.60186
736.6994, 93.33487
737.1815, 93.49953
737.6636, 92.97701
738.1458, 92.42067
738.6279, 92.60873
739.1100, 93.04944
739.5921, 93.07722
740.0742, 92.45792
740.5563, 91.84341
741.0385, 91.50557
741.5206, 91.28365
742.0027, 91.00195
742.4848, 90.40313
742.9669, 90.27705
743.4490, 90.89134
743.9312, 91.64774
744.4133, 91.70627
744.8954, 91.08660
745.3775, 90.56660
745.8596, 90.31760
746.3417, 90.11889
746.8239, 89.65609
747.3060, 89.03985
747.7881, 88.46931
748.2702, 87.87642
748.7523, 87.55692
749.2344, 87.73543
749.7166, 88.27065
750.1987, 88.92392
750.6808, 90.35220
751.1629, 90.84961
751.6450, 89.86487
752.1271, 88.00375
752.6093, 86.55995
753.0914, 85.50510
753.5735, 85.25267
754.0556, 86.25334
754.5377, 87.72839
755.0198, 88.16656
755.5020, 87.90408
755.9841, 87.98296
756.4662, 89.79590
756.9483, 91.26321
757.4304, 90.76854
757.9125, 88.82173
758.3947, 87.45691
758.8768, 87.43361
759.3589, 87.53380
759.8410, 87.49411
760.3231, 87.34274
760.8052, 87.24349
761.2874, 87.21389
761.7695, 87.10617
762.2516, 86.63016
762.7337, 86.12316
763.2158, 86.61589
763.6979, 87.91164
764.1801, 88.87675
764.6622, 88.54198
765.1443, 87.87698
765.6264, 87.44264
766.1085, 87.27560
766.5906, 87.38511
767.0728, 88.29293
767.5549, 88.89222
768.0370, 88.61492
768.5191, 87.48683
769.0012, 86.99919
769.4833, 87.27117
769.9655, 87.48925
770.4476, 86.92918
770.9297, 85.94582
771.4118, 85.48779
771.8939, 85.55181
772.3760, 85.67876
772.8582, 85.63279
773.3403, 85.47570
773.8224, 85.12855
774.3045, 84.51969
774.7866, 84.41267
775.2687, 85.60389
775.7509, 86.59739
776.2330, 86.52738
776.7151, 85.25089
777.1972, 84.28566
777.6793, 83.63229
778.1614, 83.24622
778.6436, 83.04683
779.1257, 83.09632
779.6078, 83.84267
780.0899, 85.34594
780.5720, 86.24716
781.0541, 84.62002
781.5363, 82.67504
782.0184, 82.55915
782.5005, 85.37580
782.9826, 86.73991
783.4647, 85.16552
783.9468, 83.31376
784.4290, 83.15543
784.9111, 84.97268
785.3932, 86.02635
785.8753, 86.20993
786.3574, 85.90916
786.8395, 85.18165
787.3217, 84.31230
787.8038, 84.04429
788.2859, 84.57996
788.7680, 84.78539
789.2501, 83.19099
789.7322, 81.43099
790.2144, 81.00512
790.6965, 83.03123
791.1786, 84.28378
791.6607, 84.41949
792.1428, 84.09850
792.6249, 83.76643
793.1071, 83.41074
793.5892, 83.46288
794.0713, 84.01334
794.5534, 84.58243
795.0355, 84.81042
795.5176, 84.67958
795.9998, 83.93050
796.4819, 82.25490
796.9640, 81.28468
797.4461, 82.67070
797.9282, 84.62668
798.4103, 85.45634
798.8925, 84.37786
799.3746, 83.69964
799.8567, 83.61353
800.3388, 83.62614
800.8209, 83.14547
801.3030, 82.23227
801.7852, 81.63638
802.2673, 81.43456
802.7494, 81.53703
803.2315, 81.94898
803.7136, 82.56518
804.1957, 83.31125
804.6779, 84.30868
805.1600, 84.99113
805.6421, 84.94289
806.1242, 84.62753
806.6063, 84.48711
807.0884, 84.72591
807.5706, 84.47620
808.0527, 83.49322
808.5348, 82.60513
809.0169, 83.11018
809.4990, 84.55183
809.9811, 84.78899
810.4633, 83.40158
810.9454, 81.82977
811.4275, 81.04362
811.9096, 80.83108
812.3917, 81.08807
812.8738, 82.17944
813.3560, 82.67657
813.8381, 81.68965
814.3202, 80.60697
814.8023, 80.64803
815.2844, 82.10629
815.7665, 82.86993
816.2487, 82.79380
816.7308, 82.32162
817.2129, 81.82883
817.6950, 81.29922
818.1771, 80.62929
818.6592, 79.76725
819.1414, 79.10165
819.6235, 79.00184
820.1056, 79.10987
820.5877, 79.13802
821.0698, 79.05299
821.5519, 78.87809
822.0341, 78.65379
822.5162, 78.27988
822.9983, 77.52225
823.4804, 76.41075
823.9625, 75.86402
824.4446, 75.95963
824.9268, 76.17024
825.4089, 76.00706
825.8910, 75.66682
826.3731, 75.34246
826.8552, 75.02326
827.3373, 74.98668
827.8195, 75.78767
828.3016, 76.53136
828.7837, 76.65359
829.2658, 76.07815
829.7479, 75.18649
830.2300, 73.85262
830.7122, 72.67761
831.1943, 72.31417
831.6764, 72.50952
832.1585, 72.44351
832.6406, 72.08057
833.1227, 71.72704
833.6049, 71.78325
834.0870, 71.81040
834.5691, 71.34741
835.0512, 70.25197
835.5333, 69.57407
836.0154, 69.66386
836.4976, 69.79302
836.9797, 69.54495
837.4618, 68.93116
837.9439, 68.70683
838.4260, 68.89267
838.9081, 68.87894
839.3903, 67.79715
839.8724, 66.48325
840.3545, 66.39938
840.8366, 67.44051
841.3187, 67.97092
841.8008, 66.66608
842.2830, 65.23856
842.7651, 64.48553
843.2472, 64.37224
843.7293, 64.54028
844.2114, 65.19493
844.6935, 65.43771
845.1757, 64.60215
845.6578, 63.12045
846.1399, 62.22691
846.6220, 61.85781
847.1041, 61.64850
847.5862, 61.49530
848.0684, 61.33198
848.5505, 61.02925
849.0326, 60.64841
849.5147, 60.51795
849.9968, 60.98982
850.4789, 61.21814
850.9611, 60.85538
851.4432, 60.14783
851.9253, 60.11318
852.4074, 60.72049
852.8895, 60.87185
853.3716, 59.64466
853.8538, 58.27098
854.3359, 58.57480
854.8180, 59.89497
855.3001, 60.66015
855.7822, 59.66416
856.2643, 58.78413
856.7465, 58.78694
857.2286, 59.16331
857.7107, 58.87822
858.1928, 57.72696
858.6749, 56.95026
859.1570, 56.92424
859.6392, 57.12376
860.1213, 56.56678
860.6034, 55.55248
861.0855, 54.84956
861.5676, 54.83924
862.0497, 54.91678
862.5319, 54.77599
863.0140, 54.52465
863.4961, 54.32774
863.9782, 54.37978
864.4603, 54.08554
864.9424, 53.30021
865.4246, 52.35803
865.9067, 51.42867
866.3888, 50.64350
866.8709, 50.91083
867.3530, 52.56435
867.8351, 54.07112
868.3173, 53.86179
868.7994, 52.99929
869.2815, 52.62281
869.7636, 53.11835
870.2457, 53.54499
870.7278, 53.93396
871.2100, 54.08538
871.6921, 53.78742
872.1742, 53.03017
872.6563, 52.30001
873.1384, 51.60474
873.6205, 50.96853
874.1027, 50.10508
874.5848, 49.47474
875.0669, 49.96377
875.5490, 51.61072
876.0311, 52.87127
876.5132, 53.06024
876.9954, 52.82704
877.4775, 52.44305
877.9596, 51.91307
878.4417, 51.31842
878.9238, 50.63502
879.4059, 50.02680
879.8881, 49.57818
880.3702, 49.27492
880.8523, 49.07691
881.3344, 48.99813
881.8165, 49.09846
882.2986, 49.73381
882.7808, 50.22810
883.2629, 50.10383
883.7450, 49.55027
884.2271, 49.33254
884.7092, 49.62923
885.1913, 49.74500
885.6735, 49.47616
886.1556, 48.95558
886.6377, 48.27875
887.1198, 47.57323
887.6019, 47.29263
888.0840, 47.98146
888.5662, 48.54496
889.0483, 48.09943
889.5304, 47.13834
890.0125, 46.44231
890.4946, 46.10670
890.9767, 46.04805
891.4589, 46.40028
891.9410, 46.80928
892.4231, 46.79285
892.9052, 46.40739
893.3873, 45.95388
893.8694, 45.44573
894.3516, 45.06760
894.8337, 44.90907
895.3158, 44.99667
895.7979, 45.49635
896.2800, 46.78568
896.7621, 47.19165
897.2443, 45.93929
897.7264, 44.72625
898.2085, 44.84935
898.6906, 46.25126
899.1727, 47.22583
899.6548, 47.76628
900.1370, 47.71429
900.6191, 46.26712
901.1012, 44.62624
901.5833, 44.27909
902.0654, 45.15580
902.5475, 45.64691
903.0297, 44.62233
903.5118, 43.97995
903.9939, 44.51189
904.4760, 45.86593
904.9581, 46.41282
905.4402, 46.13924
905.9224, 45.66815
906.4045, 45.21010
906.8866, 44.74407
907.3687, 44.10003
907.8508, 43.43432
908.3329, 43.10944
908.8151, 43.67260
909.2972, 44.05762
909.7793, 43.94926
910.2614, 43.61563
910.7435, 43.51533
911.2256, 43.69239
911.7078, 43.45446
912.1899, 42.55944
912.6720, 41.72706
913.1541, 42.13242
913.6362, 43.06598
914.1183, 43.33268
914.6005, 42.37418
915.0826, 41.87098
915.5647, 43.03669
916.0468, 44.28418
916.5289, 44.52808
917.0110, 43.63485
917.4932, 42.54569
917.9753, 41.16035
918.4574, 40.34739
918.9395, 41.44628
919.4216, 43.21881
919.9037, 43.53691
920.3859, 42.49639
920.8680, 41.78005
921.3501, 42.66545
921.8322, 43.40541
922.3143, 43.07837
922.7964, 41.99418
923.2786, 41.68377
923.7607, 42.24821
924.2428, 42.80425
924.7249, 43.01127
925.2070, 43.04113
925.6891, 43.29009
926.1713, 43.56498
926.6534, 43.43035
927.1355, 42.35482
927.6176, 41.27995
928.0997, 40.24604
928.5818, 39.47022
929.0640, 39.29843
929.5461, 39.83923
930.0282, 40.29635
930.5103, 40.55394
930.9924, 40.84742
931.4745, 41.63969
931.9567, 42.56716
932.4388, 43.02312
932.9209, 42.87022
933.4030, 42.56945
933.8851, 42.13989
934.3672, 41.75694
934.8494, 41.46978
935.3315, 41.26826
935.8136, 41.67807
936.2957, 42.82479
936.7778, 43.47040
937.2599, 42.21455
937.7421, 40.34406
938.2242, 40.06289
938.7063, 40.99679
939.1884, 41.62543
939.6705, 41.03186
940.1526, 40.37396
940.6348, 39.85250
941.1169, 39.56142
941.5990, 39.88943
942.0811, 40.92019
942.5632, 41.46928
943.0453, 41.12670
943.5275, 40.55357
944.0096, 40.57977
944.4917, 40.93800
944.9738, 41.22645
945.4559, 41.42299
945.9380, 41.35061
946.4202, 40.76210
946.9023, 40.05419
947.3844, 39.42388
947.8665, 38.83461
948.3486, 38.86329
948.8307, 39.55334
949.3129, 40.25213
949.7950, 40.51782
950.2771, 40.45819
950.7592, 39.96976
951.2413, 39.15041
951.7234, 38.79180
952.2056, 39.73010
952.6877, 40.43198
953.1698, 40.30572
953.6519, 39.69384
954.1340, 39.90387
954.6161, 40.89320
955.0983, 41.62372
955.5804, 41.74269
956.0625, 41.43937
956.5446, 40.48577
957.0267, 39.36767
957.5089, 38.82402
957.9910, 39.47989
958.4731, 40.10681
958.9552, 40.81420
959.4373, 41.25067
959.9194, 40.95038
960.4016, 40.00178
960.8837, 39.10014
961.3658, 38.29611
961.8479, 37.72790
962.3300, 37.44004
962.8121, 37.49245
963.2943, 38.15887
963.7764, 39.44752
964.2585, 40.13874
964.7406, 40.11377
965.2227, 39.59506
965.7048, 38.39425
966.1870, 36.96109
966.6691, 36.54675
967.1512, 36.98924
967.6333, 37.62383
968.1154, 38.48800
968.5975, 39.04116
969.0797, 38.65606
969.5618, 37.88565
970.0439, 37.57161
970.5260, 37.77568
971.0081, 38.43328
971.4902, 39.71136
971.9724, 40.91599
972.4545, 41.13433
972.9366, 40.71919
973.4187, 40.53152
973.9008, 40.66003
974.3829, 40.55656
974.8651, 39.53416
975.3472, 38.58331
975.8293, 38.33110
976.3114, 38.69789
976.7935, 38.81604
977.2756, 38.65264
977.7578, 38.51600
978.2399, 38.63517
978.7220, 38.74138
979.2041, 38.23089
979.6862, 37.40726
980.1683, 36.92793
980.6505, 37.49118
981.1326, 37.78683
981.6147, 37.32916
982.0968, 36.73406
982.5789, 36.71008
983.0610, 37.25884
983.5432, 38.05864
984.0253, 39.15158
984.5074, 39.79192
984.9895, 38.81968
985.4716, 37.41343
985.9537, 36.72336
986.4359, 36.87307
986.9180, 37.34588
987.4001, 38.61027
987.8822, 39.18644
988.3643, 38.10041
988.8464, 36.18931
989.3286, 36.46774
989.8107, 38.48663
990.2928, 40.03884
990.7749, 40.07667
991.2570, 39.56999
991.7391, 38.61404
992.2213, 37.71090
992.7034, 37.67378
993.1855, 39.16290
993.6676, 39.68182
994.1497, 38.93554
994.6318, 37.85511
995.1140, 37.29095
995.5961, 37.12412
996.0782, 37.28686
996.5603, 37.73700
997.0424, 37.79779
997.5245, 36.19545
998.0067, 35.15607
998.4888, 36.07804
998.9709, 38.38200
999.4530, 39.52497
999.9351, 39.46479
1000.417, 38.73453
1000.899, 37.09628
1001.381, 35.67710
1001.864, 36.23445
1002.346, 37.79287
1002.828, 38.80565
1003.310, 38.66375
1003.792, 38.30606
1004.274, 37.70739
1004.756, 37.08078
1005.238, 36.54268
1005.721, 36.11604
1006.203, 36.05433
1006.685, 36.33861
1007.167, 36.49779
1007.649, 35.82555
1008.131, 35.26710
1008.613, 35.73676
1009.095, 36.98542
1009.577, 37.44976
1010.060, 36.81348
1010.542, 36.30982
1011.024, 36.23044
1011.506, 36.40067
1011.988, 36.59985
1012.470, 36.82434
1012.952, 37.06601
1013.434, 37.32832
1013.917, 37.58751
1014.399, 37.79735
1014.881, 38.03446
1015.363, 38.46637
1015.845, 39.10735
1016.327, 38.84980
1016.809, 37.67643
1017.291, 36.62245
1017.773, 36.54411
1018.256, 36.74489
1018.738, 36.40450
1019.220, 35.77275
1019.702, 35.62659
1020.184, 36.73168
1020.666, 37.19648
1021.148, 36.50016
1021.630, 35.56875
1022.112, 36.04297
1022.595, 37.43834
1023.077, 38.04931
1023.559, 37.55861
1024.041, 36.98416
1024.523, 36.86113
1025.005, 36.94149
1025.487, 37.15585
1025.969, 37.47235
1026.452, 37.35306
1026.934, 36.72207
1027.416, 36.28852
1027.898, 36.43176
1028.380, 36.85485
1028.862, 37.32852
1029.344, 37.72495
1029.826, 37.80542
1030.308, 36.96202
1030.791, 36.59971
1031.273, 37.02900
1031.755, 37.67144
1032.237, 38.06659
1032.719, 38.19674
1033.201, 37.76660
1033.683, 36.79808
1034.165, 36.01686
1034.647, 36.04736
1035.130, 36.31522
1035.612, 36.40622
1036.094, 36.40088
1036.576, 36.93980
1037.058, 38.35941
1037.540, 38.59470
1038.022, 36.69967
1038.504, 34.55290
1038.987, 35.29700
1039.469, 37.49571
1039.951, 38.70470
1040.433, 38.07660
1040.915, 37.48079
1041.397, 37.39982
1041.879, 37.36753
1042.361, 37.10997
1042.844, 36.66865
1043.326, 36.31047
1043.808, 36.04301
1044.290, 35.92390
1044.772, 36.25964
1045.254, 36.46610
1045.736, 35.93788
1046.218, 35.08822
1046.700, 34.76945
1047.183, 35.22134
1047.665, 35.41370
1048.147, 35.18570
1048.629, 34.98527
1049.111, 35.27702
1049.593, 35.91261
1050.075, 36.91255
1050.557, 38.22990
1051.040, 38.80707
1051.522, 37.42794
1052.004, 36.28814
1052.486, 36.13018
1052.968, 36.58431
1053.450, 36.57288
1053.932, 36.18069
1054.414, 35.92758
1054.896, 36.01557
1055.379, 36.14911
1055.861, 36.07223
1056.343, 35.97446
1056.825, 36.08858
1057.307, 36.49399
1057.789, 36.61406
1058.271, 36.40247
1058.753, 36.17902
1059.235, 36.14457
1059.718, 36.23177
1060.200, 36.47054
1060.682, 36.75175
1061.164, 36.77277
1061.646, 36.10500
1062.128, 35.62936
1062.610, 35.48066
1063.092, 35.52623
1063.574, 35.77742
1064.057, 36.10130
1064.539, 35.72340
1065.021, 34.56227
1065.503, 33.66142
1065.985, 33.83522
1066.467, 34.31397
1066.949, 34.79419
1067.431, 35.19756
1067.914, 35.20034
1068.396, 34.77546
1068.878, 34.14732
1069.360, 33.17732
1069.842, 32.55082
1070.324, 33.63495
1070.806, 35.28172
1071.288, 35.92072
1071.771, 34.82885
1072.253, 34.04294
1072.735, 33.60807
1073.217, 33.57381
1073.699, 34.22466
1074.181, 35.20390
1074.663, 35.41821
1075.145, 35.03876
1075.627, 34.66404
1076.110, 34.34937
1076.592, 34.35209
1077.074, 35.01878
1077.556, 35.83606
1078.038, 36.25312
1078.520, 36.27500
1079.002, 36.01582
1079.484, 35.48021
1079.967, 34.97756
1080.449, 34.87658
1080.931, 34.80296
1081.413, 34.25562
1081.895, 34.49686
1082.377, 33.41697
1082.859, 34.62690
1083.341, 35.41487
1083.823, 35.32296
1084.306, 34.88285
1084.788, 34.76061
1085.270, 34.81156
1085.752, 34.74765
1086.234, 34.42002
1086.716, 34.60868
1087.198, 35.99760
1087.680, 37.01452
1088.162, 36.86197
1088.645, 35.83988
1089.127, 34.59615
1089.609, 33.30590
1090.091, 32.66585
1090.573, 33.44736
1091.055, 34.15383
1091.537, 34.04110
1092.019, 33.58877
1092.501, 33.19901
1092.984, 32.84486
1093.466, 32.95016
1093.948, 33.52905
1094.430, 34.02518
1094.912, 33.70000
1095.394, 33.44164
1095.876, 34.54536
1096.358, 36.30881
1096.841, 36.35352
1097.323, 33.57502
1097.805, 32.36878
1098.287, 33.61065
1098.769, 35.38846
1099.251, 35.57520
1099.733, 34.80420
1100.215, 33.77180
1100.698, 32.57426
1101.180, 32.18029
1101.662, 33.46309
1102.144, 34.67223
1102.626, 35.40317
1103.108, 35.68474
1103.590, 35.43393
1104.072, 34.78551
1104.554, 34.12832
1105.037, 33.52649
1105.519, 33.08493
1106.001, 32.73046
1106.483, 32.70156
1106.965, 33.20186
1107.447, 34.18743
1107.929, 35.35877
1108.411, 36.64661
1108.894, 36.99179
1109.376, 35.06594
1109.858, 33.05488
1110.340, 32.78151
1110.822, 33.41391
1111.304, 33.73051
1111.786, 33.52148
1112.268, 33.58599
1112.750, 33.98087
1113.233, 34.33586
1113.715, 34.26997
1114.197, 34.06918
1114.679, 34.22885
1115.161, 34.58075
1115.643, 34.43805
1116.125, 33.04190
1116.607, 32.43144
1117.089, 33.06101
1117.572, 34.07487
1118.054, 34.41065
1118.536, 34.31746
1119.018, 34.37307
1119.500, 34.62207
1119.982, 34.59892
1120.464, 33.57408
1120.946, 32.94749
1121.428, 33.27384
1121.911, 34.15406
1122.393, 34.81635
1122.875, 35.21727
1123.357, 35.07019
1123.839, 34.18384
1124.321, 33.36706
1124.803, 33.24621
1125.285, 33.20676
1125.768, 32.67133
1126.250, 31.77164
1126.732, 32.08614
1127.214, 33.55284
1127.696, 34.49606
1128.178, 33.92039
1128.660, 33.11317
1129.142, 33.30400
1129.625, 33.80046
1130.107, 33.66726
1130.589, 32.63576
1131.071, 32.10162
1131.553, 32.08369
1132.035, 32.38204
1132.517, 33.21349
1132.999, 34.01384
1133.481, 33.82495
1133.964, 33.11287
1134.446, 32.98753
1134.928, 34.25092
1135.410, 34.77820
1135.892, 34.27296
1136.374, 33.60591
1136.856, 33.67603
1137.338, 34.15676
1137.821, 34.62592
1138.303, 35.00782
1138.785, 35.05990
1139.267, 34.33868
1139.749, 33.75367
1140.231, 33.42264
1140.713, 33.34871
1141.195, 33.82143
1141.677, 34.51806
1142.160, 34.35054
1142.642, 33.16336
1143.124, 32.29241
1143.606, 32.74004
1144.088, 33.18694
1144.570, 33.07194
1145.052, 32.64933
1145.534, 32.67076
1146.016, 33.04330
1146.499, 33.21094
1146.981, 32.96170
1147.463, 32.86526
1147.945, 33.46041
1148.427, 34.16402
1148.909, 34.70428
1149.391, 35.03085
1149.873, 34.36290
1150.355, 32.77889
1150.838, 32.10238
1151.320, 33.53090
1151.802, 35.03017
1152.284, 34.93770
1152.766, 34.11541
1153.248, 33.40880
1153.730, 32.79578
1154.212, 33.05364
1154.695, 34.29019
1155.177, 34.86375
1155.659, 33.04530
1156.141, 30.93686
1156.623, 30.57651
1157.105, 31.35880
1157.587, 32.30526
1158.069, 33.70381
1158.552, 33.94051
1159.034, 32.77967
1159.516, 31.66317
1159.998, 31.83953
1160.480, 32.63619
1160.962, 33.43615
1161.444, 34.14961
1161.926, 34.52305
1162.408, 34.37574
1162.891, 34.28287
1163.373, 34.35778
1163.855, 34.30115
1164.337, 33.66421
1164.819, 32.74862
1165.301, 31.87127
1165.783, 31.13138
1166.265, 30.95974
1166.748, 32.11245
1167.230, 32.63877
1167.712, 31.95745
1168.194, 30.99434
1168.676, 31.18279
1169.158, 32.06765
1169.640, 32.71642
1170.122, 33.01723
1170.604, 33.33201
1171.087, 33.88586
1171.569, 34.32835
1172.051, 34.60063
1172.533, 34.66836
1173.015, 34.46331
1173.497, 33.99743
1173.979, 33.11256
1174.461, 31.59042
1174.943, 30.86209
1175.426, 32.34155
1175.908, 33.75697
1176.390, 34.19215
1176.872, 33.91623
1177.354, 33.66442
1177.836, 33.47153
1178.318, 33.51876
1178.800, 34.02674
1179.282, 34.26719
1179.765, 33.81991
1180.247, 33.06280
1180.729, 32.01008
1181.211, 30.84068
1181.693, 30.79618
1182.175, 31.65880
1182.657, 32.26345
1183.139, 32.04450
1183.622, 31.64683
1184.104, 31.29307
1184.586, 30.95425
1185.068, 30.46791
1185.550, 29.88121
1186.032, 30.41325
1186.514, 31.92486
1186.996, 33.22727
1187.479, 33.51978
1187.961, 33.60656
1188.443, 33.87912
1188.925, 34.13073
1189.407, 34.19695
1189.889, 34.08157
1190.371, 33.36305
1190.853, 32.07751
1191.335, 31.13085
1191.818, 31.20614
1192.300, 31.64563
1192.782, 32.37250
1193.264, 33.07682
1193.746, 33.28832
1194.228, 32.98677
1194.710, 32.64436
1195.192, 32.29243
1195.675, 32.05659
1196.157, 32.09960
1196.639, 32.21621
1197.121, 32.46572
1197.603, 32.62227
1198.085, 32.03434
1198.567, 30.62155
1199.049, 30.29412
1199.531, 31.28287
1200.014, 32.36225
1200.496, 32.38378
1200.978, 32.31422
1201.460, 33.23556
1201.942, 34.55470
1202.424, 34.23948
1202.906, 32.18901
1203.388, 31.27539
1203.870, 32.03373
1204.353, 33.06895
1204.835, 33.49960
1205.317, 33.46337
1205.799, 32.69756
1206.281, 31.54106
1206.763, 31.41132
1207.245, 32.36867
1207.727, 32.62971
1208.209, 31.69178
1208.692, 30.76198
1209.174, 31.07544
1209.656, 31.69662
1210.138, 31.75934
1210.620, 31.39021
1211.102, 31.60011
1211.584, 32.41750
1212.066, 32.64024
1212.549, 31.76981
1213.031, 30.88417
1213.513, 30.86278
1213.995, 31.26544
1214.477, 31.86469
1214.959, 32.57962
1215.441, 32.93751
1215.923, 32.94184
1216.406, 32.32541
1216.888, 30.64156
1217.370, 29.45051
1217.852, 30.68292
1218.334, 32.58298
1218.816, 33.50508
1219.298, 33.47779
1219.780, 33.67422
1220.262, 34.08729
1220.745, 34.07866
1221.227, 33.17607
1221.709, 32.32088
1222.191, 32.33366
1222.673, 32.70065
1223.155, 32.94183
1223.637, 33.04774
1224.119, 33.19088
1224.602, 33.35412
1225.084, 33.13583
1225.566, 32.02037
1226.048, 31.09558
1226.530, 31.29522
1227.012, 31.96065
1227.494, 32.45335
1227.976, 32.76571
1228.458, 32.89815
1228.941, 32.85460
1229.423, 32.68980
1229.905, 32.39278
1230.387, 32.03869
1230.869, 31.40528
1231.351, 30.95721
1231.833, 31.21090
1232.315, 32.15800
1232.797, 32.76490
1233.280, 33.04174
1233.762, 33.12123
1234.244, 32.90503
1234.726, 32.72201
1235.208, 32.92700
1235.690, 33.08754
1236.172, 32.66149
1236.654, 31.69288
1237.136, 31.56229
1237.619, 32.16017
1238.101, 32.68123
1238.583, 32.45090
1239.065, 32.35610
1239.547, 32.97110
1240.029, 33.66907
1240.511, 33.86651
1240.993, 33.62192
1241.476, 33.28817
1241.958, 32.92849
1242.440, 32.86427
1242.922, 33.65030
1243.404, 34.22618
1243.886, 34.25824
1244.368, 34.00850
1244.850, 33.66624
1245.333, 33.25037
1245.815, 32.70835
1246.297, 32.13360
1246.779, 31.97440
1247.261, 33.12930
1247.743, 33.72190
1248.225, 33.27250
1248.707, 32.42591
1249.189, 31.50900
1249.672, 30.79333
1250.154, 31.50223
1250.636, 33.24193
1251.118, 34.09388
1251.600, 31.79131
1252.082, 31.03295
1252.564, 33.07844
1253.046, 35.24728
1253.529, 34.03026
1254.011, 31.27993
1254.493, 30.88447
1254.975, 32.40619
1255.457, 33.21598
1255.939, 31.59275
1256.421, 31.12933
1256.903, 32.41957
1257.385, 33.99067
1257.868, 34.44622
1258.350, 34.24098
1258.832, 33.88485
1259.314, 33.46341
1259.796, 33.20953
1260.278, 33.21361
1260.760, 33.21119
1261.242, 33.18672
1261.724, 33.10983
1262.207, 32.98658
1262.689, 32.76858
1263.171, 32.17089
1263.653, 31.44070
1264.135, 31.49776
1264.617, 32.67071
1265.099, 33.03573
1265.581, 32.33941
1266.063, 31.58239
1266.546, 31.80213
1267.028, 32.16427
1267.510, 31.77500
1267.992, 31.02894
1268.474, 31.03241
1268.956, 31.86511
1269.438, 32.43371
1269.920, 32.64449
1270.403, 32.65869
1270.885, 32.39257
1271.367, 32.17929
1271.849, 32.33320
1272.331, 32.61791
1272.813, 32.64896
1273.295, 32.44473
1273.777, 32.22505
1274.260, 32.01536
1274.742, 31.97436
1275.224, 32.18270
1275.706, 32.63893
1276.188, 33.65663
1276.670, 34.56430
1277.152, 34.00255
1277.634, 32.47154
1278.116, 32.40647
1278.599, 33.75039
1279.081, 34.39396
1279.563, 32.31465
1280.045, 30.99361
1280.527, 31.35322
1281.009, 32.31719
1281.491, 32.53400
1281.973, 32.32763
1282.456, 32.44407
1282.938, 32.85001
1283.420, 33.03522
1283.902, 32.37106
1284.384, 32.60458
1284.866, 34.31507
1285.348, 35.73189
1285.830, 34.11734
1286.313, 31.54813
1286.795, 30.88568
1287.277, 31.85248
1287.759, 32.62735
1288.241, 33.09356
1288.723, 33.17213
1289.205, 32.82142
1289.687, 32.32113
1290.169, 31.54285
1290.651, 31.05235
1291.134, 31.75920
1291.616, 33.08819
1292.098, 33.34908
1292.580, 32.40333
1293.062, 32.08292
1293.544, 32.53469
1294.026, 32.91106
1294.508, 32.43816
1294.990, 31.88857
1295.473, 31.59274
1295.955, 31.57156
1296.437, 32.01091
1296.919, 32.82659
1297.401, 33.37824
1297.883, 33.60957
1298.365, 33.39769
1298.847, 31.90374
1299.330, 31.04440
1299.812, 31.44404
1300.294, 32.38414
1300.776, 33.25034
1301.258, 33.95463
1301.740, 34.33831
1302.222, 34.36405
1302.704, 33.90916
1303.187, 31.93335
1303.669, 31.00404
1304.151, 31.26846
##END=



