##NAMES=Cristobalite
##RRUFFID=R061107
##IDEAL CHEMISTRY=SiO_2_
##LOCALITY=Vechec, Slovakia
##OWNER=RRUFF
##SOURCE=Michael Scott
##DESCRIPTION=White distorted octahedra associated with colorless labradorite
##STATUS=The identification of this mineral is confirmed by single-crystal X-ray diffraction and chemical analysis.
##URL=rruff.info/R061107
##MEASURED CHEMISTRY=([box]_0.99_Na_0.01_)_Σ=1_(Si_0.99_Al_0.01_)_Σ=1_O_2_
141.8137, 7199.421
142.2958, 7236.684
142.7779, 7276.461
143.2600, 7313.213
143.7421, 7342.367
144.2243, 7376.143
144.7064, 7421.127
145.1885, 7493.315
145.6706, 7541.692
146.1527, 7556.946
146.6348, 7548.424
147.1170, 7544.991
147.5991, 7540.636
148.0812, 7545.706
148.5633, 7565.722
149.0454, 7627.113
149.5275, 7669.223
150.0097, 7680.375
150.4918, 7662.354
150.9739, 7649.797
151.4560, 7643.542
151.9381, 7641.808
152.4202, 7643.303
152.9024, 7659.980
153.3845, 7667.533
153.8666, 7658.488
154.3487, 7630.522
154.8308, 7605.066
155.3129, 7582.297
155.7950, 7564.544
156.2772, 7554.794
156.7593, 7552.550
157.2414, 7559.583
157.7235, 7581.103
158.2056, 7625.589
158.6877, 7658.471
159.1699, 7665.326
159.6520, 7654.882
160.1341, 7642.848
160.6162, 7622.388
161.0983, 7609.752
161.5804, 7615.796
162.0626, 7652.069
162.5447, 7690.908
163.0268, 7724.392
163.5089, 7752.245
163.9910, 7773.482
164.4731, 7727.286
164.9553, 7811.680
165.4374, 7869.078
165.9195, 7900.937
166.4016, 7830.759
166.8837, 7892.340
167.3658, 7901.119
167.8480, 7907.737
168.3301, 7987.862
168.8122, 7932.525
169.2943, 8011.485
169.7764, 8036.837
170.2585, 8086.724
170.7407, 8083.486
171.2228, 8096.653
171.7049, 8162.967
172.1870, 8199.854
172.6691, 8190.495
173.1512, 8241.941
173.6334, 8184.755
174.1155, 8225.143
174.5976, 8240.736
175.0797, 8255.579
175.5618, 8268.689
176.0439, 8273.817
176.5260, 8274.945
177.0082, 8285.021
177.4903, 8320.339
177.9724, 8368.418
178.4545, 8405.163
178.9366, 8425.904
179.4187, 8439.394
179.9009, 8450.163
180.3830, 8460.136
180.8651, 8481.736
181.3472, 8531.552
181.8293, 8600.586
182.3114, 8663.973
182.7936, 8719.094
183.2757, 8763.979
183.7578, 8791.707
184.2399, 8802.246
184.7220, 8814.554
185.2041, 8845.183
185.6863, 8891.773
186.1684, 8942.658
186.6505, 8998.805
187.1326, 9055.920
187.6147, 9100.198
188.0968, 9130.229
188.5790, 9163.823
189.0611, 9225.663
189.5432, 9313.099
190.0253, 9396.821
190.5074, 9470.275
190.9895, 9532.525
191.4717, 9577.438
191.9538, 9600.511
192.4359, 9624.581
192.9180, 9681.113
193.4001, 9770.931
193.8822, 9870.652
194.3644, 9974.906
194.8465, 10082.91
195.3286, 10181.12
195.8107, 10265.98
196.2928, 10347.08
196.7749, 10443.42
197.2570, 10556.36
197.7392, 10667.02
198.2213, 10759.76
198.7034, 10833.61
199.1855, 10922.93
199.6676, 11033.38
200.1497, 11156.46
200.6319, 11271.64
201.1140, 11376.21
201.5961, 11484.24
202.0782, 11604.13
202.5603, 11737.24
203.0424, 11874.44
203.5246, 12014.84
204.0067, 12158.22
204.4888, 12296.63
204.9709, 12423.18
205.4530, 12565.13
205.9352, 12745.81
206.4173, 12972.00
206.8994, 13206.83
207.3815, 13441.24
207.8636, 13677.81
208.3457, 13920.42
208.8279, 14169.91
209.3100, 14423.28
209.7921, 14668.81
210.2742, 14890.32
210.7563, 15164.46
211.2384, 15514.46
211.7206, 15937.02
212.2027, 16328.70
212.6848, 16674.50
213.1669, 17012.51
213.6490, 17375.72
214.1311, 17766.83
214.6133, 18179.72
215.0954, 18614.11
215.5775, 19061.57
216.0596, 19549.31
216.5417, 20098.15
217.0238, 20663.93
217.5059, 21197.84
217.9881, 21687.02
218.4702, 22176.72
218.9523, 22686.45
219.4344, 23217.59
219.9165, 23742.96
220.3986, 24267.70
220.8808, 24787.14
221.3629, 25305.21
221.8450, 25832.29
222.3271, 26341.64
222.8092, 26836.28
223.2913, 27324.53
223.7735, 27755.54
224.2556, 28123.74
224.7377, 28438.78
225.2198, 28708.86
225.7019, 28930.55
226.1840, 29116.26
226.6662, 29279.31
227.1483, 29442.93
227.6304, 29515.11
228.1125, 29489.76
228.5946, 29376.32
229.0767, 29189.40
229.5589, 28905.81
230.0410, 28586.60
230.5231, 28260.83
231.0052, 27966.70
231.4873, 27580.79
231.9694, 27063.51
232.4516, 26457.16
232.9337, 25885.59
233.4158, 25384.26
233.8979, 24869.57
234.3800, 24299.98
234.8621, 23636.41
235.3443, 23003.40
235.8264, 22413.10
236.3085, 21857.08
236.7906, 21301.20
237.2727, 20736.31
237.7548, 20185.36
238.2369, 19653.52
238.7191, 19139.46
239.2012, 18650.83
239.6833, 18193.97
240.1654, 17764.37
240.6475, 17353.69
241.1296, 16969.65
241.6118, 16593.23
242.0939, 16209.85
242.5760, 15802.45
243.0581, 15421.96
243.5402, 15074.04
244.0223, 14759.18
244.5045, 14459.94
244.9866, 14176.64
245.4687, 13909.59
245.9508, 13660.79
246.4329, 13438.14
246.9150, 13219.64
247.3972, 13002.58
247.8793, 12789.34
248.3614, 12578.51
248.8435, 12358.58
249.3256, 12154.64
249.8077, 11990.56
250.2899, 11883.66
250.7720, 11777.12
251.2541, 11663.65
251.7362, 11544.29
252.2183, 11419.52
252.7004, 11278.85
253.1826, 11146.67
253.6647, 11045.50
254.1468, 10989.47
254.6289, 10932.52
255.1110, 10867.75
255.5931, 10794.75
256.0753, 10718.15
256.5574, 10628.49
257.0395, 10546.19
257.5216, 10490.87
258.0037, 10469.38
258.4858, 10459.48
258.9680, 10466.94
259.4501, 10489.93
259.9322, 10475.17
260.4143, 10406.80
260.8964, 10324.27
261.3785, 10263.24
261.8607, 10227.34
262.3428, 10202.59
262.8249, 10189.31
263.3070, 10186.94
263.7891, 10178.69
264.2712, 10160.22
264.7534, 10142.79
265.2355, 10137.48
265.7176, 10146.35
266.1997, 10160.46
266.6818, 10179.26
267.1639, 10202.31
267.6461, 10225.98
268.1282, 10252.88
268.6103, 10275.39
269.0924, 10283.03
269.5745, 10269.78
270.0566, 10264.67
270.5387, 10277.44
271.0208, 10305.91
271.5030, 10320.08
271.9851, 10314.23
272.4672, 10305.97
272.9493, 10318.07
273.4314, 10357.28
273.9135, 10378.68
274.3957, 10366.48
274.8778, 10325.19
275.3599, 10297.25
275.8420, 10287.35
276.3241, 10278.43
276.8062, 10252.12
277.2884, 10206.57
277.7705, 10159.63
278.2526, 10112.25
278.7347, 10066.77
279.2168, 10039.79
279.6989, 10035.25
280.1811, 10035.80
280.6632, 10025.69
281.1453, 10004.85
281.6274, 9976.892
282.1095, 9937.490
282.5916, 9892.182
283.0738, 9867.119
283.5559, 9864.413
284.0380, 9871.309
284.5201, 9887.098
285.0022, 9910.401
285.4843, 9900.163
285.9665, 9836.184
286.4486, 9734.362
286.9307, 9647.599
287.4128, 9577.714
287.8949, 9511.756
288.3770, 9437.768
288.8592, 9356.879
289.3413, 9281.564
289.8234, 9218.745
290.3055, 9160.842
290.7876, 9081.490
291.2697, 8979.225
291.7519, 8889.158
292.2340, 8848.646
292.7161, 8849.291
293.1982, 8852.541
293.6803, 8851.397
294.1624, 8846.108
294.6446, 8835.122
295.1267, 8818.727
295.6088, 8803.395
296.0909, 8796.802
296.5730, 8795.737
297.0551, 8791.468
297.5373, 8784.272
298.0194, 8770.280
298.5015, 8735.818
298.9836, 8683.911
299.4657, 8639.268
299.9478, 8628.214
300.4300, 8637.104
300.9121, 8639.845
301.3942, 8626.945
301.8763, 8611.380
302.3584, 8612.145
302.8405, 8625.941
303.3227, 8635.986
303.8048, 8625.372
304.2869, 8605.796
304.7690, 8593.841
305.2511, 8594.646
305.7332, 8601.015
306.2154, 8612.267
306.6975, 8625.231
307.1796, 8629.093
307.6617, 8609.847
308.1438, 8581.614
308.6259, 8556.847
309.1081, 8535.027
309.5901, 8524.465
310.0723, 8537.713
310.5544, 8567.813
311.0365, 8596.238
311.5186, 8618.672
312.0007, 8633.109
312.4828, 8636.191
312.9650, 8624.152
313.4471, 8610.416
313.9292, 8604.492
314.4113, 8601.873
314.8934, 8593.582
315.3755, 8560.521
315.8577, 8531.110
316.3398, 8527.101
316.8219, 8559.397
317.3040, 8585.932
317.7861, 8582.558
318.2682, 8564.638
318.7504, 8556.327
319.2325, 8575.335
319.7146, 8596.946
320.1967, 8609.778
320.6788, 8611.205
321.1609, 8612.344
321.6431, 8615.230
322.1252, 8619.625
322.6073, 8625.197
323.0894, 8640.330
323.5715, 8648.888
324.0536, 8640.971
324.5358, 8611.154
325.0179, 8596.143
325.5000, 8611.878
325.9821, 8638.824
326.4642, 8657.735
326.9464, 8657.277
327.4285, 8659.428
327.9106, 8673.901
328.3927, 8702.841
328.8748, 8710.126
329.3569, 8676.688
329.8391, 8634.777
330.3212, 8610.347
330.8033, 8615.978
331.2854, 8620.723
331.7675, 8617.654
332.2496, 8607.973
332.7318, 8611.797
333.2139, 8639.229
333.6960, 8668.416
334.1781, 8682.133
334.6602, 8668.483
335.1423, 8668.398
335.6245, 8693.195
336.1066, 8735.006
336.5887, 8752.670
337.0708, 8736.140
337.5529, 8717.783
338.0350, 8719.308
338.5172, 8745.152
338.9993, 8769.628
339.4814, 8793.539
339.9635, 8813.234
340.4456, 8816.411
340.9277, 8799.772
341.4099, 8783.834
341.8920, 8779.973
342.3741, 8788.262
342.8562, 8800.148
343.3383, 8816.346
343.8204, 8833.591
344.3026, 8842.853
344.7847, 8844.013
345.2668, 8853.667
345.7489, 8887.701
346.2310, 8939.036
346.7131, 8972.905
347.1953, 8986.567
347.6774, 8990.366
348.1595, 8996.912
348.6416, 9004.628
349.1237, 9007.014
349.6058, 8993.884
350.0880, 8975.361
350.5700, 8972.672
351.0522, 8986.602
351.5343, 9005.057
352.0164, 9017.414
352.4985, 9026.206
352.9806, 9036.628
353.4627, 9051.018
353.9449, 9067.938
354.4270, 9085.793
354.9091, 9104.705
355.3912, 9125.740
355.8733, 9153.644
356.3554, 9182.525
356.8376, 9204.950
357.3197, 9212.425
357.8018, 9220.537
358.2839, 9243.812
358.7660, 9277.697
359.2481, 9304.571
359.7303, 9297.874
360.2124, 9291.159
360.6945, 9311.932
361.1766, 9381.809
361.6587, 9449.513
362.1408, 9500.184
362.6230, 9534.193
363.1051, 9551.787
363.5872, 9524.356
364.0693, 9502.939
364.5514, 9514.576
365.0335, 9576.047
365.5157, 9631.832
365.9978, 9673.860
366.4799, 9704.966
366.9620, 9729.444
367.4441, 9739.081
367.9262, 9750.340
368.4084, 9769.027
368.8905, 9797.829
369.3726, 9819.384
369.8547, 9823.506
370.3368, 9826.884
370.8189, 9848.102
371.3011, 9914.404
371.7832, 9953.880
372.2653, 9940.798
372.7474, 9880.098
373.2295, 9863.934
373.7116, 9913.453
374.1938, 9975.703
374.6759, 10008.80
375.1580, 10002.98
375.6401, 10002.00
376.1222, 10005.91
376.6043, 10020.37
377.0865, 10073.23
377.5686, 10173.94
378.0507, 10269.88
378.5328, 10320.07
379.0149, 10325.43
379.4970, 10351.18
379.9792, 10405.76
380.4613, 10474.31
380.9434, 10525.39
381.4255, 10560.87
381.9076, 10605.82
382.3897, 10680.46
382.8719, 10774.85
383.3540, 10854.55
383.8361, 10918.07
384.3182, 10975.63
384.8003, 11032.26
385.2824, 11091.29
385.7646, 11162.15
386.2467, 11251.68
386.7288, 11354.00
387.2109, 11466.70
387.6930, 11590.39
388.1751, 11709.38
388.6573, 11813.30
389.1394, 11907.56
389.6215, 11994.97
390.1036, 12056.45
390.5857, 12136.86
391.0678, 12275.59
391.5499, 12461.38
392.0320, 12654.65
392.5142, 12837.44
392.9963, 13017.48
393.4784, 13201.40
393.9605, 13389.90
394.4426, 13580.01
394.9247, 13752.88
395.4069, 13928.57
395.8890, 14144.41
396.3711, 14430.78
396.8532, 14736.32
397.3353, 15042.25
397.8174, 15341.79
398.2996, 15661.33
398.7817, 16019.14
399.2638, 16388.92
399.7459, 16740.46
400.2280, 17008.41
400.7101, 17347.02
401.1923, 17803.90
401.6744, 18368.83
402.1565, 18913.30
402.6386, 19411.30
403.1207, 19924.38
403.6028, 20499.93
404.0850, 21157.24
404.5671, 21820.79
405.0492, 22490.50
405.5313, 23163.21
406.0134, 23825.55
406.4955, 24464.79
406.9777, 25125.43
407.4598, 25851.65
407.9419, 26642.19
408.4240, 27363.03
408.9061, 27991.89
409.3882, 28594.70
409.8704, 29288.12
410.3525, 30057.79
410.8346, 30756.14
411.3167, 31307.10
411.7988, 31758.97
412.2809, 32216.64
412.7631, 32684.54
413.2452, 33090.12
413.7273, 33376.88
414.2094, 33553.85
414.6915, 33636.58
415.1736, 33646.70
415.6558, 33542.37
416.1379, 33263.98
416.6200, 32831.11
417.1021, 32328.51
417.5842, 31797.65
418.0663, 31213.02
418.5485, 30547.72
419.0306, 29759.17
419.5127, 28974.33
419.9948, 28195.08
420.4769, 27459.06
420.9590, 26812.92
421.4412, 26355.57
421.9233, 25905.68
422.4054, 25408.78
422.8875, 24870.94
423.3696, 24239.65
423.8517, 23424.69
424.3339, 22564.97
424.8160, 21760.56
425.2981, 21005.88
425.7802, 20327.51
426.2623, 19728.46
426.7444, 19207.70
427.2266, 18745.84
427.7087, 18353.82
428.1908, 17997.40
428.6729, 17651.69
429.1550, 17311.05
429.6371, 17014.82
430.1193, 16779.80
430.6014, 16575.49
431.0835, 16338.77
431.5656, 16063.58
432.0477, 15808.56
432.5298, 15600.88
433.0119, 15434.79
433.4940, 15282.06
433.9762, 15144.94
434.4583, 15004.34
434.9404, 14822.66
435.4225, 14616.63
435.9046, 14451.25
436.3867, 14362.90
436.8689, 14304.15
437.3510, 14209.07
437.8331, 14083.75
438.3152, 13962.00
438.7973, 13867.64
439.2794, 13787.65
439.7616, 13707.92
440.2437, 13627.31
440.7258, 13545.12
441.2079, 13455.16
441.6900, 13364.08
442.1721, 13283.20
442.6543, 13240.60
443.1364, 13188.51
443.6185, 13096.16
444.1006, 12960.21
444.5827, 12837.45
445.0648, 12739.26
445.5470, 12659.75
446.0291, 12594.51
446.5112, 12565.59
446.9933, 12524.71
447.4754, 12467.78
447.9576, 12396.76
448.4397, 12313.75
448.9218, 12205.32
449.4039, 12105.51
449.8860, 12032.04
450.3681, 11994.96
450.8503, 11944.69
451.3324, 11873.63
451.8145, 11798.82
452.2966, 11745.91
452.7787, 11716.89
453.2608, 11689.63
453.7430, 11655.84
454.2251, 11618.68
454.7072, 11592.63
455.1893, 11578.40
455.6714, 11562.50
456.1535, 11529.14
456.6357, 11484.53
457.1178, 11448.50
457.5999, 11426.84
458.0820, 11410.26
458.5641, 11392.38
459.0462, 11371.37
459.5284, 11341.59
460.0105, 11289.12
460.4926, 11233.76
460.9747, 11194.06
461.4568, 11171.21
461.9389, 11159.22
462.4211, 11170.92
462.9032, 11185.14
463.3853, 11179.29
463.8674, 11122.33
464.3495, 11069.62
464.8316, 11037.41
465.3138, 11023.08
465.7959, 11013.92
466.2780, 11017.40
466.7601, 11017.70
467.2422, 11006.62
467.7243, 10975.46
468.2065, 10951.76
468.6886, 10934.17
469.1707, 10924.78
469.6528, 10928.25
470.1349, 10951.25
470.6170, 10972.45
471.0992, 10989.25
471.5813, 11000.83
472.0634, 10997.34
472.5455, 10976.76
473.0276, 10949.72
473.5097, 10920.73
473.9918, 10890.35
474.4739, 10869.98
474.9561, 10861.99
475.4382, 10862.07
475.9203, 10865.74
476.4024, 10872.24
476.8845, 10878.37
477.3666, 10880.43
477.8488, 10881.82
478.3309, 10891.25
478.8130, 10908.91
479.2951, 10918.30
479.7772, 10902.97
480.2593, 10874.50
480.7415, 10845.46
481.2236, 10812.67
481.7057, 10789.23
482.1878, 10787.95
482.6699, 10801.58
483.1520, 10809.71
483.6342, 10801.47
484.1163, 10790.92
484.5984, 10783.59
485.0805, 10780.28
485.5626, 10779.59
486.0447, 10789.09
486.5269, 10796.78
487.0090, 10790.17
487.4911, 10761.08
487.9732, 10732.97
488.4553, 10705.88
488.9374, 10682.39
489.4196, 10675.77
489.9017, 10690.73
490.3838, 10707.12
490.8659, 10713.13
491.3480, 10708.84
491.8301, 10703.58
492.3123, 10696.88
492.7944, 10691.33
493.2765, 10691.72
493.7586, 10696.61
494.2407, 10699.68
494.7228, 10697.84
495.2050, 10693.65
495.6871, 10689.18
496.1692, 10685.01
496.6513, 10684.45
497.1334, 10690.78
497.6155, 10701.43
498.0977, 10716.48
498.5798, 10740.50
499.0619, 10754.88
499.5440, 10739.17
500.0261, 10710.67
500.5082, 10694.00
500.9904, 10710.96
501.4725, 10725.11
501.9546, 10718.53
502.4367, 10690.87
502.9188, 10686.75
503.4009, 10735.18
503.8831, 10780.48
504.3652, 10788.21
504.8473, 10731.08
505.3294, 10704.97
505.8115, 10722.68
506.2936, 10762.45
506.7758, 10787.93
507.2579, 10798.34
507.7400, 10801.07
508.2221, 10799.51
508.7042, 10792.56
509.1863, 10770.78
509.6685, 10733.51
510.1506, 10698.14
510.6327, 10681.63
511.1148, 10677.72
511.5969, 10669.37
512.0790, 10650.25
512.5612, 10636.26
513.0433, 10648.28
513.5254, 10677.05
514.0075, 10702.87
514.4896, 10720.11
514.9717, 10728.57
515.4539, 10725.86
515.9360, 10712.43
516.4181, 10697.67
516.9002, 10678.91
517.3823, 10664.06
517.8644, 10658.68
518.3466, 10671.97
518.8287, 10682.76
519.3108, 10692.84
519.7929, 10699.21
520.2750, 10694.81
520.7571, 10670.05
521.2393, 10651.42
521.7214, 10643.09
522.2035, 10645.38
522.6856, 10672.36
523.1677, 10732.01
523.6498, 10786.79
524.1320, 10804.29
524.6141, 10787.21
525.0962, 10768.59
525.5783, 10752.98
526.0604, 10733.75
526.5425, 10692.04
527.0247, 10637.39
527.5068, 10599.03
527.9889, 10599.62
528.4710, 10617.87
528.9531, 10640.13
529.4352, 10664.50
529.9174, 10673.98
530.3995, 10649.07
530.8816, 10611.85
531.3637, 10578.95
531.8458, 10554.48
532.3279, 10533.27
532.8101, 10505.30
533.2922, 10482.02
533.7743, 10481.52
534.2564, 10537.16
534.7385, 10577.10
535.2206, 10583.24
535.7027, 10559.33
536.1848, 10546.67
536.6669, 10544.40
537.1490, 10554.27
537.6312, 10586.28
538.1133, 10644.64
538.5954, 10667.88
539.0775, 10646.50
539.5596, 10609.94
540.0417, 10598.22
540.5239, 10607.67
541.0060, 10616.64
541.4881, 10616.91
541.9702, 10614.03
542.4523, 10615.77
542.9344, 10621.59
543.4166, 10628.71
543.8987, 10632.07
544.3808, 10637.68
544.8629, 10651.14
545.3450, 10673.63
545.8271, 10699.73
546.3093, 10741.96
546.7914, 10779.67
547.2735, 10792.43
547.7556, 10742.95
548.2377, 10706.26
548.7198, 10698.36
549.2020, 10711.87
549.6841, 10723.47
550.1662, 10734.75
550.6483, 10741.76
551.1304, 10741.85
551.6125, 10734.75
552.0947, 10733.35
552.5768, 10740.49
553.0589, 10745.67
553.5410, 10734.06
554.0231, 10708.55
554.5052, 10693.99
554.9874, 10698.73
555.4695, 10708.32
555.9516, 10692.92
556.4337, 10662.89
556.9158, 10653.02
557.3979, 10706.12
557.8801, 10769.46
558.3622, 10792.52
558.8443, 10776.45
559.3264, 10756.99
559.8085, 10748.48
560.2906, 10744.55
560.7728, 10740.54
561.2549, 10733.46
561.7370, 10730.09
562.2191, 10734.62
562.7012, 10741.99
563.1833, 10745.93
563.6655, 10748.18
564.1476, 10742.33
564.6297, 10719.83
565.1118, 10687.34
565.5939, 10687.20
566.0760, 10727.24
566.5582, 10766.23
567.0403, 10777.60
567.5224, 10765.66
568.0045, 10757.87
568.4866, 10756.36
568.9688, 10753.31
569.4509, 10734.61
569.9330, 10709.04
570.4151, 10694.77
570.8972, 10702.93
571.3793, 10716.07
571.8615, 10718.90
572.3436, 10715.96
572.8257, 10718.58
573.3078, 10738.25
573.7899, 10758.49
574.2720, 10770.64
574.7542, 10773.67
575.2363, 10777.40
575.7184, 10782.56
576.2005, 10788.66
576.6826, 10794.12
577.1647, 10793.08
577.6469, 10809.21
578.1290, 10855.04
578.6111, 10903.89
579.0932, 10902.99
579.5753, 10847.59
580.0574, 10812.03
580.5396, 10828.42
581.0217, 10873.65
581.5038, 10889.66
581.9859, 10878.97
582.4680, 10866.93
582.9501, 10873.06
583.4323, 10886.16
583.9144, 10892.77
584.3965, 10891.57
584.8786, 10885.28
585.3607, 10863.86
585.8428, 10843.78
586.3250, 10841.49
586.8071, 10877.65
587.2892, 10912.10
587.7713, 10941.20
588.2534, 10963.50
588.7355, 10975.86
589.2177, 10975.06
589.6998, 10968.86
590.1819, 10957.21
590.6640, 10940.59
591.1461, 10926.61
591.6282, 10913.04
592.1104, 10909.23
592.5925, 10931.11
593.0746, 10972.44
593.5567, 10993.40
594.0388, 10990.14
594.5209, 10969.07
595.0031, 10917.64
595.4852, 10855.47
595.9673, 10824.21
596.4494, 10859.13
596.9315, 10903.20
597.4136, 10917.48
597.8958, 10909.18
598.3779, 10897.60
598.8600, 10886.23
599.3421, 10876.36
599.8242, 10868.39
600.3063, 10862.36
600.7885, 10860.08
601.2706, 10862.45
601.7527, 10867.73
602.2348, 10875.89
602.7169, 10888.79
603.1990, 10895.29
603.6812, 10891.63
604.1633, 10887.41
604.6454, 10899.54
605.1275, 10926.38
605.6096, 10948.95
606.0917, 10962.45
606.5739, 10967.68
607.0560, 10959.63
607.5381, 10942.45
608.0202, 10933.34
608.5023, 10950.46
608.9844, 10973.65
609.4666, 10986.23
609.9487, 10986.90
610.4308, 10987.07
610.9129, 10981.39
611.3950, 10982.85
611.8771, 11002.36
612.3593, 11074.26
612.8414, 11107.46
613.3235, 11078.88
613.8056, 11028.81
614.2877, 11018.26
614.7698, 11061.03
615.2520, 11086.64
615.7341, 11073.90
616.2162, 11038.94
616.6983, 11025.13
617.1804, 11031.77
617.6625, 11042.92
618.1446, 11047.85
618.6267, 11052.22
619.1088, 11066.18
619.5909, 11089.69
620.0731, 11115.67
620.5552, 11149.75
621.0373, 11177.53
621.5194, 11182.71
622.0015, 11149.69
622.4836, 11123.91
622.9658, 11122.26
623.4479, 11131.98
623.9300, 11136.76
624.4121, 11132.64
624.8942, 11128.15
625.3763, 11121.93
625.8585, 11116.74
626.3406, 11123.14
626.8227, 11143.66
627.3048, 11162.53
627.7869, 11175.03
628.2690, 11180.88
628.7512, 11175.10
629.2333, 11158.49
629.7154, 11142.72
630.1975, 11139.80
630.6796, 11142.82
631.1617, 11141.46
631.6439, 11133.63
632.1260, 11127.82
632.6081, 11144.10
633.0902, 11158.88
633.5723, 11146.42
634.0544, 11056.47
634.5366, 10992.21
635.0187, 10981.91
635.5008, 11002.47
635.9829, 11004.92
636.4650, 10979.74
636.9471, 10955.55
637.4293, 10938.83
637.9114, 10929.08
638.3935, 10924.53
638.8756, 10924.71
639.3577, 10930.98
639.8398, 10950.12
640.3220, 10974.63
640.8041, 10984.01
641.2862, 10976.19
641.7683, 10972.14
642.2504, 10992.30
642.7325, 11023.53
643.2147, 11051.41
643.6968, 11073.95
644.1789, 11090.75
644.6610, 11096.80
645.1431, 11098.78
645.6252, 11108.12
646.1074, 11139.86
646.5895, 11155.80
647.0716, 11138.88
647.5537, 11104.00
648.0358, 11112.37
648.5179, 11173.46
649.0001, 11225.01
649.4822, 11233.21
649.9643, 11208.84
650.4464, 11187.29
650.9285, 11168.96
651.4106, 11161.04
651.8928, 11185.73
652.3749, 11216.89
652.8570, 11217.77
653.3391, 11177.95
653.8212, 11140.03
654.3033, 11120.20
654.7855, 11115.78
655.2676, 11124.48
655.7497, 11162.99
656.2318, 11192.53
656.7139, 11205.68
657.1960, 11211.12
657.6782, 11227.19
658.1603, 11261.97
658.6424, 11278.76
659.1245, 11259.22
659.6066, 11220.07
660.0887, 11216.87
660.5709, 11247.64
661.0530, 11283.60
661.5351, 11314.93
662.0172, 11337.42
662.4993, 11341.65
662.9814, 11327.84
663.4636, 11309.85
663.9457, 11283.85
664.4278, 11264.45
664.9099, 11265.99
665.3920, 11300.14
665.8741, 11326.71
666.3563, 11333.61
666.8384, 11332.86
667.3205, 11335.13
667.8026, 11344.63
668.2847, 11344.33
668.7668, 11327.60
669.2490, 11307.37
669.7311, 11311.44
670.2132, 11338.68
670.6953, 11362.21
671.1774, 11376.10
671.6595, 11378.41
672.1417, 11356.38
672.6238, 11317.83
673.1059, 11290.85
673.5880, 11297.47
674.0701, 11315.46
674.5522, 11331.66
675.0344, 11345.11
675.5165, 11359.08
675.9986, 11387.50
676.4807, 11404.46
676.9628, 11391.53
677.4449, 11333.43
677.9271, 11309.37
678.4092, 11330.02
678.8913, 11364.77
679.3734, 11383.13
679.8555, 11386.25
680.3376, 11395.58
680.8198, 11417.00
681.3019, 11434.99
681.7840, 11413.99
682.2661, 11375.30
682.7482, 11368.56
683.2303, 11443.17
683.7125, 11514.54
684.1946, 11519.29
684.6767, 11483.15
685.1588, 11469.31
685.6409, 11534.87
686.1230, 11577.96
686.6052, 11559.54
687.0873, 11489.88
687.5694, 11450.89
688.0515, 11446.23
688.5336, 11462.18
689.0157, 11505.04
689.4979, 11567.51
689.9800, 11584.39
690.4621, 11553.42
690.9442, 11522.73
691.4263, 11539.24
691.9084, 11578.31
692.3906, 11599.64
692.8727, 11593.98
693.3548, 11593.76
693.8369, 11630.09
694.3190, 11674.36
694.8011, 11698.68
695.2833, 11679.16
695.7654, 11664.62
696.2475, 11661.60
696.7296, 11662.00
697.2117, 11650.03
697.6938, 11617.60
698.1760, 11606.79
698.6581, 11633.03
699.1402, 11678.04
699.6223, 11704.40
700.1044, 11713.43
700.5865, 11713.30
701.0686, 11706.26
701.5507, 11693.53
702.0328, 11670.78
702.5150, 11641.66
702.9971, 11623.54
703.4792, 11630.59
703.9613, 11645.05
704.4434, 11659.98
704.9255, 11675.37
705.4077, 11687.59
705.8898, 11697.61
706.3719, 11703.12
706.8540, 11699.76
707.3361, 11685.54
707.8182, 11687.41
708.3004, 11710.27
708.7825, 11725.65
709.2646, 11680.27
709.7467, 11605.83
710.2288, 11589.83
710.7109, 11661.27
711.1931, 11740.40
711.6752, 11769.06
712.1573, 11766.87
712.6394, 11759.24
713.1215, 11742.25
713.6036, 11733.73
714.0858, 11741.25
714.5679, 11758.42
715.0500, 11776.71
715.5321, 11802.75
716.0142, 11812.49
716.4963, 11794.94
716.9785, 11761.93
717.4606, 11746.19
717.9427, 11747.26
718.4248, 11756.83
718.9069, 11778.03
719.3890, 11801.30
719.8712, 11813.65
720.3533, 11816.16
720.8354, 11815.24
721.3175, 11804.51
721.7996, 11799.22
722.2817, 11815.30
722.7639, 11857.86
723.2460, 11872.43
723.7281, 11833.91
724.2102, 11794.82
724.6923, 11788.13
725.1744, 11820.19
725.6566, 11830.60
726.1387, 11816.10
726.6208, 11795.70
727.1029, 11783.91
727.5850, 11781.14
728.0671, 11789.18
728.5493, 11809.38
729.0314, 11835.76
729.5135, 11866.54
729.9956, 11899.60
730.4777, 11933.83
730.9598, 11988.48
731.4420, 12015.63
731.9241, 11982.01
732.4062, 11925.87
732.8883, 11898.38
733.3704, 11908.64
733.8525, 11918.19
734.3347, 11919.67
734.8168, 11917.69
735.2989, 11919.67
735.7810, 11926.24
736.2631, 11943.37
736.7452, 11988.88
737.2274, 12030.93
737.7095, 12023.75
738.1916, 11981.59
738.6737, 11948.05
739.1558, 11954.38
739.6379, 11961.42
740.1201, 11944.22
740.6022, 11905.82
741.0843, 11896.54
741.5664, 11931.01
742.0485, 11968.87
742.5306, 11993.21
743.0128, 12005.23
743.4949, 12019.39
743.9770, 12036.02
744.4591, 12049.76
744.9412, 12054.45
745.4233, 12054.42
745.9055, 12054.81
746.3876, 12056.01
746.8697, 12063.23
747.3518, 12087.08
747.8339, 12014.53
748.3160, 12106.53
748.7982, 12163.86
749.2803, 12188.39
749.7624, 12081.86
750.2445, 12144.57
750.7266, 12139.45
751.2087, 12131.55
751.6909, 12218.08
752.1730, 12130.61
752.6551, 12215.63
753.1372, 12231.80
753.6193, 12279.49
754.1014, 12258.93
754.5836, 12259.45
755.0657, 12328.23
755.5478, 12359.22
756.0299, 12330.80
756.5120, 12348.00
756.9941, 12382.53
757.4763, 12392.34
757.9584, 12346.89
758.4405, 12288.74
758.9226, 12303.80
759.4047, 12409.83
759.8868, 12495.23
760.3690, 12530.21
760.8511, 12536.70
761.3332, 12555.17
761.8153, 12582.77
762.2974, 12607.81
762.7795, 12618.08
763.2617, 12629.74
763.7438, 12657.05
764.2259, 12695.88
764.7080, 12732.83
765.1901, 12756.04
765.6722, 12786.98
766.1544, 12833.46
766.6365, 12893.06
767.1186, 12951.21
767.6007, 13006.46
768.0828, 13062.79
768.5649, 13122.83
769.0471, 13184.27
769.5292, 13239.64
770.0113, 13289.26
770.4934, 13337.42
770.9755, 13393.83
771.4576, 13444.21
771.9398, 13467.14
772.4219, 13462.69
772.9040, 13479.35
773.3861, 13542.88
773.8682, 13619.25
774.3503, 13695.26
774.8325, 13771.89
775.3146, 13841.83
775.7967, 13905.21
776.2788, 13963.72
776.7609, 14023.50
777.2430, 14079.91
777.7252, 14111.03
778.2073, 14114.83
778.6894, 14118.48
779.1715, 14150.84
779.6536, 14188.62
780.1357, 14211.15
780.6179, 14215.73
781.1000, 14203.79
781.5821, 14161.88
782.0642, 14113.99
782.5463, 14077.06
783.0284, 14056.24
783.5105, 14024.22
783.9926, 13974.73
784.4747, 13930.52
784.9568, 13926.83
785.4390, 13948.83
785.9211, 13948.33
786.4032, 13914.78
786.8853, 13869.60
787.3674, 13819.11
787.8495, 13771.23
788.3317, 13737.10
788.8138, 13736.93
789.2959, 13719.53
789.7780, 13670.17
790.2601, 13608.59
790.7422, 13558.55
791.2244, 13524.04
791.7065, 13477.15
792.1886, 13412.14
792.6707, 13339.82
793.1528, 13266.65
793.6349, 13197.36
794.1171, 13148.49
794.5992, 13135.97
795.0813, 13118.78
795.5634, 13061.12
796.0455, 12983.01
796.5276, 12914.65
797.0098, 12865.89
797.4919, 12820.48
797.9740, 12775.94
798.4561, 12734.45
798.9382, 12703.54
799.4203, 12684.29
799.9025, 12659.99
800.3846, 12624.89
800.8667, 12586.51
801.3488, 12555.88
801.8309, 12531.57
802.3130, 12508.69
802.7952, 12485.52
803.2773, 12464.06
803.7594, 12451.82
804.2415, 12441.56
804.7236, 12415.05
805.2057, 12350.31
805.6879, 12305.46
806.1700, 12291.49
806.6521, 12301.48
807.1342, 12330.66
807.6163, 12377.28
808.0984, 12394.52
808.5806, 12347.68
809.0627, 12286.92
809.5448, 12282.02
810.0269, 12314.20
810.5090, 12338.38
810.9911, 12325.23
811.4733, 12312.89
811.9554, 12324.36
812.4375, 12347.57
812.9196, 12341.58
813.4017, 12288.94
813.8839, 12255.21
814.3660, 12260.49
814.8481, 12293.17
815.3302, 12328.54
815.8123, 12365.92
816.2944, 12399.39
816.7766, 12424.58
817.2587, 12446.33
817.7408, 12466.15
818.2229, 12485.62
818.7050, 12509.65
819.1871, 12542.10
819.6693, 12577.01
820.1514, 12615.29
820.6335, 12586.76
821.1156, 12634.26
821.5977, 12666.64
822.0798, 12684.71
822.5620, 12645.63
823.0441, 12680.35
823.5262, 12685.49
824.0083, 12689.42
824.4904, 12734.54
824.9725, 12703.76
825.4547, 12748.22
825.9368, 12762.65
826.4189, 12790.82
826.9010, 12789.23
827.3831, 12796.83
827.8652, 12834.20
828.3474, 12824.67
828.8295, 12776.06
829.3116, 12762.28
829.7937, 12781.96
830.2758, 12806.89
830.7579, 12826.41
831.2401, 12841.65
831.7222, 12852.09
832.2043, 12858.73
832.6864, 12865.49
833.1685, 12872.18
833.6506, 12880.47
834.1328, 12896.59
834.6149, 12914.72
835.0970, 12915.12
835.5791, 12891.77
836.0612, 12869.80
836.5433, 12854.10
837.0255, 12847.62
837.5076, 12866.87
837.9897, 12904.49
838.4718, 12927.88
838.9539, 12907.96
839.4360, 12880.91
839.9182, 12867.49
840.4003, 12866.50
840.8824, 12874.65
841.3645, 12902.83
841.8466, 12925.58
842.3287, 12938.57
842.8109, 12943.21
843.2930, 12940.82
843.7751, 12931.30
844.2572, 12924.50
844.7393, 12924.01
845.2214, 12927.20
845.7036, 12933.47
846.1857, 12940.23
846.6678, 12941.77
847.1499, 12922.54
847.6320, 12911.82
848.1141, 12927.96
848.5963, 12957.19
849.0784, 12969.86
849.5605, 12960.79
850.0426, 12949.47
850.5247, 12935.66
851.0068, 12928.57
851.4890, 12961.72
851.9711, 13019.74
852.4532, 13044.69
852.9353, 12991.87
853.4174, 12937.41
853.8995, 12938.95
854.3817, 12972.88
854.8638, 12997.17
855.3459, 12994.01
855.8280, 12999.19
856.3101, 13022.98
856.7922, 13049.35
857.2744, 13045.29
857.7565, 13012.72
858.2386, 12992.29
858.7207, 12995.05
859.2028, 13008.00
859.6849, 13025.58
860.1671, 13040.60
860.6492, 13040.65
861.1313, 12996.67
861.6134, 12976.00
862.0955, 13026.20
862.5776, 13088.66
863.0598, 13096.60
863.5419, 13033.40
864.0240, 12998.46
864.5061, 13004.45
864.9882, 13030.87
865.4703, 13066.49
865.9524, 13101.25
866.4345, 13107.27
866.9166, 13068.70
867.3987, 13042.26
867.8809, 13075.37
868.3630, 13126.03
868.8451, 13152.43
869.3272, 13144.25
869.8093, 13131.61
870.2914, 13108.87
870.7736, 13093.75
871.2557, 13115.38
871.7378, 13162.30
872.2199, 13174.69
872.7020, 13144.84
873.1841, 13114.71
873.6663, 13119.79
874.1484, 13139.18
874.6305, 13153.75
875.1126, 13158.69
875.5947, 13169.05
876.0768, 13186.54
876.5590, 13208.62
877.0411, 13237.69
877.5232, 13273.84
878.0053, 13292.98
878.4874, 13295.18
878.9695, 13288.92
879.4517, 13277.23
879.9338, 13263.07
880.4159, 13250.18
880.8980, 13238.75
881.3801, 13226.07
881.8622, 13205.54
882.3444, 13189.56
882.8265, 13179.45
883.3086, 13176.43
883.7907, 13204.73
884.2728, 13270.08
884.7549, 13322.04
885.2371, 13322.33
885.7192, 13297.22
886.2013, 13297.04
886.6834, 13314.89
887.1655, 13322.70
887.6476, 13283.46
888.1298, 13255.09
888.6119, 13268.56
889.0940, 13313.88
889.5761, 13357.83
890.0582, 13401.96
890.5403, 13437.05
891.0225, 13457.75
891.5046, 13469.95
891.9867, 13490.78
892.4688, 13513.86
892.9509, 13519.77
893.4330, 13487.83
893.9152, 13452.76
894.3973, 13433.37
894.8794, 13423.51
895.3615, 13411.63
895.8436, 13397.51
896.3257, 13381.60
896.8079, 13363.69
897.2900, 13345.85
897.7721, 13325.32
898.2542, 13306.52
898.7363, 13309.88
899.2184, 13344.90
899.7006, 13383.95
900.1827, 13411.83
900.6648, 13427.78
901.1469, 13428.57
901.6290, 13396.84
902.1111, 13384.18
902.5933, 13397.00
903.0754, 13419.57
903.5575, 13443.87
904.0396, 13467.59
904.5217, 13461.81
905.0038, 13423.09
905.4860, 13392.87
905.9681, 13412.29
906.4502, 13451.69
906.9323, 13489.55
907.4144, 13525.34
907.8965, 13530.65
908.3787, 13473.05
908.8608, 13424.05
909.3429, 13422.38
909.8250, 13461.65
910.3071, 13475.10
910.7892, 13463.15
911.2714, 13452.29
911.7535, 13468.03
912.2356, 13486.58
912.7177, 13478.09
913.1998, 13449.15
913.6819, 13429.27
914.1641, 13425.42
914.6462, 13435.45
915.1283, 13467.57
915.6104, 13509.34
916.0925, 13517.26
916.5746, 13491.02
917.0568, 13485.92
917.5389, 13534.51
918.0210, 13586.95
918.5031, 13566.63
918.9852, 13510.40
919.4673, 13483.47
919.9495, 13544.15
920.4316, 13586.03
920.9137, 13576.91
921.3958, 13554.40
921.8779, 13570.37
922.3600, 13628.55
922.8422, 13660.22
923.3243, 13654.17
923.8064, 13637.25
924.2885, 13631.11
924.7706, 13634.91
925.2527, 13654.47
925.7349, 13699.40
926.2170, 13715.69
926.6991, 13638.60
927.1812, 13572.28
927.6633, 13586.14
928.1454, 13686.17
928.6276, 13725.90
929.1097, 13700.82
929.5918, 13670.43
930.0739, 13686.07
930.5560, 13716.42
931.0381, 13716.68
931.5203, 13690.33
932.0024, 13671.48
932.4845, 13687.80
932.9666, 13695.64
933.4487, 13670.83
933.9308, 13627.72
934.4130, 13627.03
934.8951, 13670.61
935.3772, 13714.28
935.8593, 13743.90
936.3414, 13762.11
936.8235, 13768.84
937.3057, 13767.41
937.7878, 13764.62
938.2699, 13747.87
938.7520, 13750.17
939.2341, 13794.41
939.7162, 13846.44
940.1984, 13860.09
940.6805, 13832.31
941.1626, 13814.88
941.6447, 13813.36
942.1268, 13825.00
942.6089, 13859.08
943.0911, 13898.60
943.5732, 13919.59
944.0553, 13914.77
944.5374, 13911.04
945.0195, 13906.82
945.5016, 13914.55
945.9838, 13947.90
946.4659, 14005.48
946.9480, 14034.94
947.4301, 14036.44
947.9122, 14020.35
948.3943, 13972.17
948.8764, 13925.36
949.3585, 13930.58
949.8406, 13974.64
950.3228, 13996.16
950.8049, 13946.49
951.2870, 13912.60
951.7691, 13919.86
952.2512, 13950.72
952.7333, 13953.55
953.2155, 13931.64
953.6976, 13939.23
954.1797, 14009.15
954.6618, 14074.22
955.1439, 14048.27
955.6260, 13981.88
956.1082, 13945.33
956.5903, 13976.13
957.0724, 14001.91
957.5545, 14020.37
958.0366, 14031.57
958.5187, 14035.72
959.0009, 14032.77
959.4830, 14015.16
959.9651, 13981.87
960.4472, 13962.91
960.9293, 14003.24
961.4114, 14050.33
961.8936, 14052.64
962.3757, 14005.38
962.8578, 13990.22
963.3399, 14024.88
963.8220, 14064.83
964.3041, 14100.50
964.7863, 14124.27
965.2684, 14095.33
965.7505, 14026.88
966.2326, 13982.73
966.7147, 14021.99
967.1968, 14059.86
967.6790, 14030.63
968.1611, 13971.10
968.6432, 13955.71
969.1253, 14023.05
969.6074, 14036.22
970.0895, 13968.43
970.5717, 13881.66
971.0538, 13855.56
971.5359, 13873.35
972.0180, 13898.83
972.5001, 13928.94
972.9822, 13948.29
973.4644, 13925.44
973.9465, 13908.78
974.4286, 13942.97
974.9107, 14031.48
975.3928, 14057.29
975.8749, 14008.98
976.3571, 13960.87
976.8392, 13953.94
977.3213, 13975.30
977.8034, 14012.87
978.2855, 14060.23
978.7676, 14097.40
979.2498, 14117.24
979.7319, 14122.78
980.2140, 14113.23
980.6961, 14092.60
981.1782, 14060.38
981.6603, 14015.25
982.1425, 14000.62
982.6246, 14030.03
983.1067, 14071.35
983.5888, 14097.08
984.0709, 14110.66
984.5530, 14110.32
985.0352, 14082.75
985.5173, 14091.18
985.9994, 14167.98
986.4815, 14242.96
986.9636, 14272.08
987.4457, 14259.20
987.9279, 14231.80
988.4100, 14191.62
988.8921, 14163.04
989.3742, 14174.52
989.8563, 14191.62
990.3384, 14184.06
990.8206, 14160.39
991.3027, 14155.28
991.7848, 14180.59
992.2669, 14203.00
992.7490, 14218.67
993.2311, 14225.59
993.7133, 14212.43
994.1954, 14188.08
994.6775, 14172.71
995.1596, 14166.63
995.6417, 14186.79
996.1238, 14277.96
996.6060, 14372.32
997.0881, 14416.18
997.5702, 14405.69
998.0523, 14360.23
998.5344, 14273.23
999.0165, 14192.75
999.4987, 14149.88
999.9808, 14134.29
1000.463, 14136.63
1000.945, 14153.80
1001.427, 14173.59
1001.909, 14198.84
1002.391, 14216.06
1002.873, 14213.20
1003.356, 14206.20
1003.838, 14241.15
1004.320, 14313.79
1004.802, 14342.09
1005.284, 14298.85
1005.766, 14242.81
1006.248, 14220.20
1006.730, 14218.64
1007.213, 14226.46
1007.695, 14244.38
1008.177, 14267.59
1008.659, 14302.24
1009.141, 14329.68
1009.623, 14337.96
1010.105, 14329.87
1010.587, 14302.25
1011.069, 14261.90
1011.552, 14245.39
1012.034, 14295.78
1012.516, 14349.94
1012.998, 14383.95
1013.480, 14396.78
1013.962, 14380.26
1014.444, 14324.85
1014.926, 14293.86
1015.409, 14301.99
1015.891, 14323.54
1016.373, 14326.43
1016.855, 14322.44
1017.337, 14329.98
1017.819, 14355.50
1018.301, 14376.81
1018.783, 14380.02
1019.265, 14390.24
1019.748, 14428.13
1020.230, 14486.42
1020.712, 14503.22
1021.194, 14483.43
1021.676, 14472.02
1022.158, 14499.75
1022.640, 14539.69
1023.122, 14581.22
1023.604, 14619.54
1024.087, 14644.41
1024.569, 14658.12
1025.051, 14645.21
1025.533, 14591.89
1026.015, 14544.44
1026.497, 14577.92
1026.979, 14654.37
1027.461, 14690.35
1027.943, 14672.88
1028.426, 14658.77
1028.908, 14683.74
1029.390, 14706.31
1029.872, 14706.38
1030.354, 14687.24
1030.836, 14666.60
1031.318, 14644.97
1031.800, 14632.76
1032.283, 14642.06
1032.765, 14653.00
1033.247, 14638.64
1033.729, 14614.73
1034.211, 14607.91
1034.693, 14641.31
1035.175, 14659.60
1035.657, 14656.99
1036.140, 14648.72
1036.622, 14646.22
1037.104, 14650.24
1037.586, 14670.47
1038.068, 14705.29
1038.550, 14724.93
1039.032, 14691.60
1039.514, 14661.20
1039.996, 14661.81
1040.479, 14686.87
1040.961, 14721.55
1041.443, 14768.38
1041.925, 14784.06
1042.407, 14743.48
1042.889, 14700.93
1043.371, 14736.33
1043.853, 14800.17
1044.335, 14825.30
1044.818, 14778.04
1045.300, 14739.85
1045.782, 14709.73
1046.264, 14697.32
1046.746, 14719.52
1047.228, 14764.31
1047.710, 14779.79
1048.192, 14770.92
1048.675, 14766.52
1049.157, 14782.18
1049.639, 14804.76
1050.121, 14835.53
1050.603, 14866.00
1051.085, 14881.72
1051.567, 14882.34
1052.049, 14866.01
1052.531, 14827.87
1053.014, 14799.30
1053.496, 14829.74
1053.978, 14878.08
1054.460, 14897.92
1054.942, 14881.21
1055.424, 14857.66
1055.906, 14821.55
1056.388, 14797.49
1056.870, 14796.93
1057.353, 14814.30
1057.835, 14837.59
1058.317, 14865.76
1058.799, 14896.63
1059.281, 14930.71
1059.763, 14964.36
1060.245, 14994.42
1060.727, 15024.15
1061.210, 15059.70
1061.692, 15103.77
1062.174, 15122.30
1062.656, 15113.40
1063.138, 15107.27
1063.620, 15125.95
1064.102, 15160.74
1064.584, 15212.56
1065.067, 15275.89
1065.549, 15318.39
1066.031, 15329.94
1066.513, 15336.88
1066.995, 15471.07
1067.477, 15570.59
1067.959, 15637.29
1068.441, 15572.95
1068.923, 15677.83
1069.406, 15715.01
1069.888, 15749.29
1070.370, 15878.00
1070.852, 15832.72
1071.334, 15959.92
1071.816, 16018.28
1072.298, 16108.14
1072.780, 16129.78
1073.262, 16172.48
1073.745, 16144.58
1074.227, 16184.66
1074.709, 16208.23
1075.191, 16218.28
1075.673, 16221.90
1076.155, 16229.26
1076.637, 16197.97
1077.119, 16119.13
1077.601, 16035.10
1078.084, 15992.51
1078.566, 15964.68
1079.048, 15901.88
1079.530, 15808.74
1080.012, 15736.23
1080.494, 15721.82
1080.976, 15702.59
1081.458, 15663.68
1081.941, 15615.49
1082.423, 15575.86
1082.905, 15544.61
1083.387, 15528.61
1083.869, 15537.08
1084.351, 15516.36
1084.833, 15393.85
1085.315, 15265.62
1085.797, 15199.98
1086.280, 15194.83
1086.762, 15192.15
1087.244, 15102.54
1087.726, 15216.15
1088.208, 15281.23
1088.690, 15300.38
1089.172, 15136.05
1089.654, 15208.64
1090.136, 15186.29
1090.619, 15160.05
1091.101, 15265.99
1091.583, 15128.35
1092.065, 15232.19
1092.547, 15239.64
1093.029, 15291.21
1093.511, 15247.24
1093.993, 15232.78
1094.476, 15313.89
1094.958, 15342.08
1095.440, 15287.11
1095.922, 15341.48
1096.404, 15200.50
1096.886, 15230.94
1097.368, 15335.35
1097.850, 15285.19
1098.333, 15341.31
1098.815, 15356.95
1099.297, 15188.64
1099.779, 15340.24
1100.261, 15353.49
1100.743, 15224.68
1101.225, 15365.31
1101.707, 15256.09
1102.189, 15236.05
1102.672, 15283.13
1103.154, 15260.25
1103.636, 15347.67
1104.118, 15328.82
1104.600, 15300.48
1105.082, 15313.57
1105.564, 15209.24
1106.046, 15322.75
1106.528, 15287.46
1107.011, 15326.14
1107.493, 15381.59
1107.975, 15308.65
1108.457, 15371.63
1108.939, 15223.85
1109.421, 15252.41
1109.903, 15261.99
1110.385, 15384.28
1110.868, 15237.53
1111.350, 15261.19
1111.832, 15357.42
1112.314, 15352.12
1112.796, 15389.26
1113.278, 15300.74
1113.760, 15332.28
1114.242, 15330.74
1114.724, 15320.53
1115.207, 15311.86
1115.689, 15347.82
1116.171, 15426.64
1116.653, 15467.75
1117.135, 15446.18
1117.617, 15407.67
1118.099, 15378.45
1118.581, 15361.06
1119.063, 15359.31
1119.546, 15373.75
1120.028, 15399.20
1120.510, 15439.32
1120.992, 15468.83
1121.474, 15474.46
1121.956, 15466.34
1122.438, 15446.92
1122.920, 15426.89
1123.403, 15424.93
1123.885, 15464.43
1124.367, 15487.07
1124.849, 15488.93
1125.331, 15482.44
1125.813, 15474.11
1126.295, 15465.70
1126.777, 15461.78
1127.260, 15461.81
1127.742, 15462.80
1128.224, 15463.37
1128.706, 15465.56
1129.188, 15470.24
1129.670, 15476.09
1130.152, 15483.28
1130.634, 15490.34
1131.116, 15483.08
1131.599, 15461.29
1132.081, 15458.43
1132.563, 15519.88
1133.045, 15577.70
1133.527, 15597.99
1134.009, 15590.90
1134.491, 15579.05
1134.973, 15562.76
1135.455, 15550.69
1135.938, 15546.00
1136.420, 15539.16
1136.902, 15507.59
1137.384, 15481.59
1137.866, 15493.74
1138.348, 15542.12
1138.830, 15580.96
1139.312, 15610.54
1139.795, 15631.00
1140.277, 15643.30
1140.759, 15645.36
1141.241, 15619.62
1141.723, 15589.21
1142.205, 15589.94
1142.687, 15643.36
1143.169, 15672.04
1143.651, 15672.32
1144.134, 15660.93
1144.616, 15642.46
1145.098, 15623.33
1145.580, 15605.17
1146.062, 15595.69
1146.544, 15613.07
1147.026, 15725.43
1147.508, 15759.72
1147.990, 15678.15
1148.473, 15582.48
1148.955, 15582.41
1149.437, 15640.94
1149.919, 15675.83
1150.401, 15685.39
1150.883, 15685.24
1151.365, 15657.91
1151.847, 15656.08
1152.330, 15703.17
1152.812, 15764.49
1153.294, 15782.55
1153.776, 15768.48
1154.258, 15762.93
1154.740, 15770.41
1155.222, 15778.19
1155.704, 15780.99
1156.186, 15780.42
1156.669, 15777.94
1157.151, 15772.60
1157.633, 15758.45
1158.115, 15737.79
1158.597, 15727.53
1159.079, 15733.02
1159.561, 15742.93
1160.043, 15745.88
1160.526, 15755.08
1161.008, 15787.07
1161.490, 15835.53
1161.972, 15848.23
1162.454, 15826.55
1162.936, 15803.67
1163.418, 15784.52
1163.900, 15784.49
1164.382, 15847.71
1164.865, 15914.88
1165.347, 15911.53
1165.829, 15824.72
1166.311, 15805.84
1166.793, 15859.58
1167.275, 15906.52
1167.757, 15896.02
1168.239, 15866.11
1168.721, 15838.70
1169.204, 15821.54
1169.686, 15833.02
1170.168, 15893.34
1170.650, 15910.63
1171.132, 15876.83
1171.614, 15845.87
1172.096, 15861.09
1172.578, 15898.96
1173.061, 15946.37
1173.543, 15993.68
1174.025, 16008.97
1174.507, 15968.86
1174.989, 15953.34
1175.471, 15971.59
1175.953, 16002.45
1176.435, 16033.34
1176.917, 16058.46
1177.400, 16062.99
1177.882, 16051.04
1178.364, 16056.68
1178.846, 16093.92
1179.328, 16127.52
1179.810, 16151.90
1180.292, 16170.40
1180.774, 16193.49
1181.256, 16211.32
1181.739, 16199.09
1182.221, 16155.45
1182.703, 16131.94
1183.185, 16137.60
1183.667, 16168.71
1184.149, 16234.44
1184.631, 16307.13
1185.113, 16340.38
1185.596, 16342.80
1186.078, 16321.96
1186.560, 16272.56
1187.042, 16258.60
1187.524, 16325.41
1188.006, 16374.02
1188.488, 16358.85
1188.970, 16311.15
1189.453, 16300.92
1189.935, 16316.92
1190.417, 16335.09
1190.899, 16352.78
1191.381, 16360.85
1191.863, 16352.59
1192.345, 16343.57
1192.827, 16343.41
1193.309, 16348.01
1193.792, 16345.38
1194.274, 16335.91
1194.756, 16319.58
1195.238, 16291.18
1195.720, 16265.58
1196.202, 16234.33
1196.684, 16222.55
1197.166, 16267.26
1197.648, 16342.62
1198.131, 16323.11
1198.613, 16235.31
1199.095, 16180.18
1199.577, 16234.34
1200.059, 16283.14
1200.541, 16301.89
1201.023, 16305.40
1201.505, 16304.65
1201.988, 16299.25
1202.470, 16282.66
1202.952, 16257.83
1203.434, 16240.94
1203.916, 16248.09
1204.398, 16253.46
1204.880, 16248.43
1205.362, 16241.29
1205.844, 16241.12
1206.327, 16247.11
1206.809, 16259.02
1207.291, 16275.09
1207.773, 16280.94
1208.255, 16248.24
1208.737, 16233.85
1209.219, 16271.34
1209.701, 16314.98
1210.183, 16285.01
1210.666, 16202.31
1211.148, 16161.48
1211.630, 16169.49
1212.112, 16195.75
1212.594, 16249.30
1213.076, 16286.72
1213.558, 16290.39
1214.040, 16275.22
1214.523, 16258.39
1215.005, 16245.12
1215.487, 16267.07
1215.969, 16328.48
1216.451, 16370.88
1216.933, 16343.63
1217.415, 16318.46
1217.897, 16325.56
1218.380, 16347.15
1218.862, 16336.70
1219.344, 16307.84
1219.826, 16315.71
1220.308, 16373.66
1220.790, 16419.24
1221.272, 16423.50
1221.754, 16406.15
1222.236, 16363.15
1222.719, 16314.19
1223.201, 16309.93
1223.683, 16340.48
1224.165, 16379.49
1224.647, 16424.93
1225.129, 16451.77
1225.611, 16427.38
1226.093, 16407.55
1226.575, 16417.85
1227.058, 16443.35
1227.540, 16441.67
1228.022, 16421.27
1228.504, 16403.91
1228.986, 16391.56
1229.468, 16399.91
1229.950, 16458.38
1230.432, 16504.54
1230.915, 16507.03
1231.397, 16482.50
1231.879, 16477.29
1232.361, 16482.84
1232.843, 16472.31
1233.325, 16425.53
1233.807, 16406.10
1234.289, 16448.01
1234.771, 16481.37
1235.254, 16463.00
1235.736, 16417.45
1236.218, 16411.53
1236.700, 16429.71
1237.182, 16432.84
1237.664, 16391.06
1238.146, 16381.35
1238.628, 16424.89
1239.110, 16469.88
1239.593, 16484.19
1240.075, 16481.39
1240.557, 16492.60
1241.039, 16511.51
1241.521, 16523.76
1242.003, 16521.46
1242.485, 16520.18
1242.967, 16517.21
1243.449, 16526.47
1243.932, 16571.93
1244.414, 16623.90
1244.896, 16621.75
1245.378, 16586.74
1245.860, 16563.42
1246.342, 16568.10
1246.824, 16576.51
1247.306, 16591.08
1247.789, 16600.04
1248.271, 16582.64
1248.753, 16563.72
1249.235, 16592.72
1249.717, 16644.44
1250.199, 16664.74
1250.681, 16626.40
1251.163, 16608.75
1251.646, 16615.62
1252.128, 16623.81
1252.610, 16611.65
1253.092, 16596.69
1253.574, 16598.01
1254.056, 16610.98
1254.538, 16625.79
1255.020, 16639.72
1255.502, 16668.78
1255.984, 16716.28
1256.467, 16741.53
1256.949, 16702.17
1257.431, 16641.05
1257.913, 16569.94
1258.395, 16513.32
1258.877, 16514.31
1259.359, 16580.87
1259.841, 16647.62
1260.324, 16712.25
1260.806, 16754.55
1261.288, 16746.42
1261.770, 16726.04
1262.252, 16709.61
1262.734, 16700.77
1263.216, 16706.57
1263.698, 16726.73
1264.181, 16742.00
1264.663, 16751.34
1265.145, 16752.69
1265.627, 16725.43
1266.109, 16713.59
1266.591, 16757.83
1267.073, 16810.94
1267.555, 16807.07
1268.037, 16759.15
1268.520, 16769.48
1269.002, 16834.13
1269.484, 16884.91
1269.966, 16886.95
1270.448, 16865.39
1270.930, 16805.43
1271.412, 16757.59
1271.894, 16802.84
1272.376, 16902.62
1272.859, 16918.00
1273.341, 16860.77
1273.823, 16829.61
1274.305, 16895.95
1274.787, 16939.66
1275.269, 16937.25
1275.751, 16925.96
1276.233, 16950.96
1276.716, 16992.67
1277.198, 17018.65
1277.680, 17027.96
1278.162, 17023.49
1278.644, 17001.74
1279.126, 16973.60
1279.608, 16936.73
1280.090, 16907.96
1280.573, 16912.53
1281.055, 16927.70
1281.537, 16919.44
1282.019, 16898.32
1282.501, 16906.32
1282.983, 16956.95
1283.465, 16986.77
1283.947, 16989.46
1284.429, 16980.78
1284.911, 16963.71
1285.394, 16950.19
1285.876, 16950.32
1286.358, 16961.98
1286.840, 16982.85
1287.322, 17014.75
1287.804, 17015.78
1288.286, 16983.52
1288.768, 16961.11
1289.251, 16988.53
1289.733, 17023.11
1290.215, 17044.58
1290.697, 17058.20
1291.179, 17069.63
1291.661, 17079.12
1292.143, 17085.37
1292.625, 17089.61
1293.108, 17101.63
1293.590, 17112.34
1294.072, 17158.24
1294.554, 17279.58
1295.036, 17384.85
1295.518, 17343.86
1296.000, 17213.26
1296.482, 17135.34
1296.964, 17110.07
1297.447, 17103.75
##END=



