##NAMES=Cristobalite
##RRUFFID=R061107
##IDEAL CHEMISTRY=SiO_2_
##LOCALITY=Vechec, Slovakia
##OWNER=RRUFF
##SOURCE=Michael Scott
##DESCRIPTION=White distorted octahedra associated with colorless labradorite
##STATUS=The identification of this mineral is confirmed by single-crystal X-ray diffraction and chemical analysis.
##URL=rruff.info/R061107
##MEASURED CHEMISTRY=([box]_0.99_Na_0.01_)_Σ=1_(Si_0.99_Al_0.01_)_Σ=1_O_2_
119.2188, 477.4299
119.7009, 473.6371
120.1830, 472.5365
120.6651, 475.1737
121.1473, 481.6629
121.6294, 490.5321
122.1115, 498.8663
122.5936, 502.6274
123.0757, 512.3182
123.5578, 531.4685
124.0400, 554.5342
124.5221, 577.1806
125.0042, 597.4631
125.4863, 615.5989
125.9684, 632.0029
126.4505, 639.5648
126.9327, 653.7437
127.4148, 679.2791
127.8969, 710.9296
128.3790, 741.1401
128.8611, 766.0891
129.3432, 788.7515
129.8254, 819.6154
130.3075, 868.9609
130.7896, 913.9675
131.2717, 949.5977
131.7538, 977.6305
132.2359, 1001.741
132.7181, 1024.080
133.2002, 1043.504
133.6823, 1054.379
134.1644, 1055.119
134.6465, 1051.145
135.1286, 1039.985
135.6108, 1024.743
136.0929, 1015.583
136.5750, 1021.080
137.0571, 1036.120
137.5392, 1038.427
138.0213, 1012.510
138.5035, 988.7873
138.9856, 983.8712
139.4677, 996.5339
139.9498, 1019.518
140.4319, 1052.584
140.9140, 1092.484
141.3961, 1126.201
141.8783, 1143.698
142.3604, 1162.390
142.8425, 1196.679
143.3246, 1246.558
143.8067, 1302.836
144.2888, 1361.241
144.7710, 1422.553
145.2531, 1488.039
145.7352, 1552.978
146.2173, 1599.659
146.6994, 1621.046
147.1815, 1629.033
147.6637, 1631.967
148.1458, 1627.482
148.6279, 1622.634
149.1100, 1629.465
149.5921, 1659.718
150.0742, 1697.483
150.5564, 1718.810
151.0385, 1721.055
151.5206, 1717.512
152.0027, 1715.978
152.4848, 1713.281
152.9669, 1703.895
153.4491, 1681.466
153.9312, 1652.520
154.4133, 1631.211
154.8954, 1620.089
155.3775, 1609.486
155.8596, 1590.620
156.3418, 1569.097
156.8239, 1554.491
157.3060, 1555.238
157.7881, 1564.290
158.2702, 1560.783
158.7523, 1537.021
159.2345, 1514.988
159.7166, 1506.379
160.1987, 1505.151
160.6808, 1501.340
161.1629, 1486.036
161.6451, 1465.158
162.1272, 1462.885
162.6093, 1493.052
163.0914, 1520.064
163.5735, 1532.614
164.0556, 1534.036
164.5378, 1528.325
165.0199, 1514.100
165.5020, 1495.246
165.9841, 1492.602
166.4662, 1520.112
166.9483, 1545.510
167.4305, 1558.451
167.9126, 1562.606
168.3947, 1564.027
168.8768, 1565.598
169.3589, 1567.634
169.8410, 1572.748
170.3232, 1584.645
170.8053, 1595.076
171.2874, 1602.540
171.7695, 1606.836
172.2516, 1607.372
172.7337, 1602.433
173.2159, 1593.136
173.6980, 1590.784
174.1801, 1605.526
174.6622, 1616.012
175.1443, 1610.842
175.6264, 1597.960
176.1085, 1591.590
176.5907, 1602.300
177.0728, 1628.318
177.5549, 1649.481
178.0370, 1666.457
178.5191, 1676.812
179.0012, 1672.952
179.4834, 1662.592
179.9655, 1645.965
180.4476, 1670.413
180.9297, 1687.721
181.4118, 1698.272
181.8939, 1681.826
182.3761, 1700.241
182.8582, 1704.685
183.3403, 1708.556
183.8224, 1731.877
184.3045, 1719.357
184.7866, 1742.370
185.2688, 1751.200
185.7509, 1766.520
186.2330, 1767.783
186.7151, 1773.389
187.1972, 1793.055
187.6793, 1804.935
188.1615, 1804.582
188.6436, 1820.315
189.1257, 1807.305
189.6078, 1819.517
190.0899, 1842.611
190.5720, 1842.963
191.0542, 1842.708
191.5363, 1852.258
192.0184, 1874.140
192.5005, 1905.718
192.9826, 1930.870
193.4647, 1939.483
193.9469, 1952.542
194.4290, 1976.282
194.9111, 2005.940
195.3932, 2034.764
195.8753, 2059.268
196.3574, 2079.696
196.8396, 2096.597
197.3217, 2094.270
197.8038, 2106.285
198.2859, 2146.898
198.7680, 2201.711
199.2501, 2251.273
199.7323, 2285.223
200.2144, 2307.958
200.6965, 2335.205
201.1786, 2380.316
201.6607, 2414.919
202.1428, 2421.692
202.6250, 2421.348
203.1071, 2442.866
203.5892, 2500.039
204.0713, 2578.528
204.5534, 2634.873
205.0355, 2640.054
205.5177, 2656.418
205.9998, 2690.297
206.4819, 2735.520
206.9640, 2786.000
207.4461, 2839.198
207.9282, 2894.680
208.4104, 2951.333
208.8925, 3004.782
209.3746, 3065.732
209.8567, 3137.100
210.3388, 3214.143
210.8209, 3293.934
211.3030, 3375.331
211.7852, 3456.373
212.2673, 3534.551
212.7494, 3603.322
213.2315, 3678.340
213.7136, 3753.463
214.1957, 3837.344
214.6779, 3940.806
215.1600, 4065.067
215.6421, 4199.389
216.1242, 4325.669
216.6063, 4437.202
217.0884, 4553.479
217.5706, 4676.390
218.0527, 4802.766
218.5348, 4926.541
219.0169, 5048.295
219.4990, 5177.590
219.9811, 5329.212
220.4633, 5517.977
220.9454, 5689.488
221.4275, 5843.282
221.9096, 5983.915
222.3917, 6106.618
222.8738, 6215.366
223.3560, 6326.576
223.8381, 6462.441
224.3202, 6636.845
224.8023, 6773.565
225.2844, 6863.430
225.7665, 6930.603
226.2487, 6980.071
226.7308, 7015.309
227.2129, 7042.416
227.6950, 7068.666
228.1771, 7096.677
228.6592, 7095.388
229.1414, 7054.308
229.6235, 6996.266
230.1056, 6928.167
230.5877, 6849.598
231.0698, 6757.441
231.5519, 6648.626
232.0341, 6523.498
232.5162, 6386.818
232.9983, 6225.045
233.4804, 6065.541
233.9625, 5914.870
234.4446, 5770.141
234.9268, 5625.670
235.4089, 5479.340
235.8910, 5329.989
236.3731, 5171.506
236.8552, 4986.800
237.3373, 4813.140
237.8195, 4663.595
238.3016, 4527.191
238.7837, 4386.485
239.2658, 4232.822
239.7479, 4075.473
240.2300, 3944.121
240.7122, 3857.870
241.1943, 3770.416
241.6764, 3676.979
242.1585, 3578.668
242.6406, 3474.393
243.1227, 3363.829
243.6049, 3254.056
244.0870, 3159.088
244.5691, 3084.165
245.0512, 3013.576
245.5333, 2946.208
246.0154, 2881.385
246.4975, 2819.301
246.9797, 2759.687
247.4618, 2701.829
247.9439, 2644.272
248.4260, 2585.899
248.9081, 2531.783
249.3902, 2482.427
249.8724, 2437.446
250.3545, 2397.595
250.8366, 2362.692
251.3187, 2330.717
251.8008, 2300.558
252.2829, 2272.490
252.7651, 2243.670
253.2472, 2206.692
253.7293, 2176.326
254.2114, 2165.933
254.6935, 2169.302
255.1756, 2166.670
255.6578, 2138.091
256.1399, 2087.599
256.6220, 2052.869
257.1041, 2041.950
257.5862, 2036.810
258.0684, 2031.846
258.5505, 2025.964
259.0326, 2017.028
259.5147, 2002.654
259.9968, 1985.149
260.4789, 1970.122
260.9611, 1956.084
261.4432, 1948.035
261.9253, 1951.162
262.4074, 1960.055
262.8895, 1968.782
263.3716, 1975.945
263.8537, 1981.116
264.3358, 1982.714
264.8180, 1979.887
265.3001, 1978.524
265.7822, 1981.378
266.2643, 1986.673
266.7464, 1991.887
267.2285, 1995.642
267.7107, 2003.139
268.1928, 2021.282
268.6749, 2049.274
269.1570, 2076.108
269.6391, 2100.879
270.1212, 2120.454
270.6034, 2132.339
271.0855, 2136.287
271.5676, 2135.493
272.0497, 2129.241
272.5318, 2119.360
273.0139, 2112.723
273.4961, 2113.009
273.9782, 2111.516
274.4603, 2095.006
274.9424, 2065.670
275.4245, 2042.426
275.9066, 2037.940
276.3888, 2040.324
276.8709, 2033.086
277.3530, 2014.239
277.8351, 1988.273
278.3172, 1954.436
278.7993, 1914.845
279.2815, 1885.515
279.7636, 1876.491
280.2457, 1871.710
280.7278, 1856.339
281.2099, 1831.707
281.6920, 1811.176
282.1742, 1804.117
282.6563, 1807.693
283.1384, 1806.572
283.6205, 1798.618
284.1026, 1788.882
284.5847, 1781.359
285.0669, 1773.544
285.5490, 1758.730
286.0311, 1733.239
286.5132, 1701.493
286.9953, 1675.236
287.4774, 1660.259
287.9596, 1640.669
288.4417, 1606.079
288.9238, 1569.386
289.4059, 1547.632
289.8880, 1544.958
290.3701, 1549.388
290.8523, 1544.058
291.3344, 1525.660
291.8165, 1504.186
292.2986, 1473.846
292.7807, 1445.123
293.2628, 1423.029
293.7450, 1408.811
294.2271, 1403.310
294.7092, 1408.975
295.1913, 1427.508
295.6734, 1436.187
296.1555, 1427.922
296.6377, 1417.685
297.1198, 1409.965
297.6019, 1403.948
298.0840, 1396.432
298.5661, 1384.762
299.0482, 1371.183
299.5304, 1367.210
300.0125, 1388.085
300.4946, 1396.781
300.9767, 1378.574
301.4588, 1350.197
301.9409, 1328.378
302.4231, 1319.312
302.9052, 1319.402
303.3873, 1324.539
303.8694, 1338.330
304.3515, 1346.010
304.8336, 1341.495
305.3158, 1333.348
305.7979, 1325.656
306.2800, 1319.240
306.7621, 1314.009
307.2442, 1309.547
307.7263, 1305.907
308.2085, 1305.084
308.6906, 1310.608
309.1727, 1314.613
309.6548, 1310.777
310.1369, 1301.588
310.6190, 1294.544
311.1012, 1295.422
311.5833, 1300.644
312.0654, 1300.786
312.5475, 1293.463
313.0296, 1289.572
313.5117, 1302.649
313.9939, 1321.627
314.4760, 1328.723
314.9581, 1315.012
315.4402, 1295.828
315.9223, 1284.332
316.4044, 1279.857
316.8866, 1276.475
317.3687, 1271.420
317.8508, 1266.875
318.3329, 1267.783
318.8150, 1276.995
319.2971, 1281.708
319.7793, 1270.869
320.2614, 1253.771
320.7435, 1248.234
321.2256, 1259.324
321.7077, 1274.332
322.1898, 1277.413
322.6720, 1265.605
323.1541, 1259.537
323.6362, 1266.192
324.1183, 1274.387
324.6004, 1274.631
325.0826, 1267.692
325.5647, 1261.279
326.0468, 1261.177
326.5289, 1267.077
327.0110, 1273.307
327.4931, 1283.605
327.9753, 1290.059
328.4574, 1287.572
328.9395, 1280.502
329.4216, 1275.650
329.9037, 1276.078
330.3858, 1279.732
330.8680, 1281.794
331.3501, 1281.323
331.8322, 1280.719
332.3143, 1280.056
332.7964, 1279.336
333.2785, 1278.655
333.7606, 1277.970
334.2427, 1276.987
334.7249, 1274.738
335.2070, 1270.617
335.6891, 1269.949
336.1712, 1276.767
336.6533, 1283.162
337.1354, 1287.359
337.6176, 1288.807
338.0997, 1286.042
338.5818, 1275.238
339.0639, 1261.667
339.5460, 1262.548
340.0281, 1284.007
340.5103, 1303.084
340.9924, 1310.738
341.4745, 1311.235
341.9566, 1306.991
342.4387, 1297.108
342.9208, 1287.953
343.4030, 1285.956
343.8851, 1290.505
344.3672, 1296.677
344.8493, 1304.267
345.3314, 1311.678
345.8135, 1317.827
346.2957, 1322.872
346.7778, 1324.830
347.2599, 1319.656
347.7420, 1312.394
348.2241, 1309.586
348.7062, 1311.957
349.1884, 1318.726
349.6705, 1331.383
350.1526, 1349.019
350.6347, 1359.648
351.1168, 1360.772
351.5989, 1357.664
352.0811, 1350.158
352.5632, 1340.406
353.0453, 1332.462
353.5274, 1327.996
354.0095, 1327.489
354.4916, 1332.226
354.9738, 1352.492
355.4559, 1364.216
355.9380, 1357.262
356.4201, 1347.966
356.9022, 1352.663
357.3843, 1372.651
357.8665, 1394.416
358.3486, 1401.977
358.8307, 1392.128
359.3128, 1390.848
359.7949, 1408.902
360.2770, 1425.080
360.7592, 1431.413
361.2413, 1430.975
361.7234, 1430.053
362.2055, 1431.757
362.6876, 1435.980
363.1697, 1443.448
363.6519, 1456.721
364.1340, 1466.342
364.6161, 1464.640
365.0982, 1461.046
365.5803, 1463.620
366.0624, 1474.006
366.5446, 1486.576
367.0267, 1498.769
367.5088, 1509.761
367.9909, 1513.779
368.4730, 1506.308
368.9551, 1498.433
369.4373, 1500.674
369.9194, 1511.004
370.4015, 1522.516
370.8836, 1534.106
371.3657, 1545.455
371.8478, 1558.162
372.3300, 1571.641
372.8121, 1578.642
373.2942, 1572.738
373.7763, 1558.793
374.2584, 1554.409
374.7405, 1563.316
375.2227, 1574.502
375.7048, 1587.294
376.1869, 1600.023
376.6690, 1609.109
377.1511, 1613.868
377.6332, 1619.545
378.1154, 1633.966
378.5975, 1662.321
379.0796, 1680.681
379.5617, 1678.838
380.0438, 1678.469
380.5259, 1690.525
381.0081, 1712.716
381.4902, 1737.713
381.9723, 1761.439
382.4544, 1783.500
382.9365, 1801.929
383.4186, 1812.844
383.9008, 1827.281
384.3829, 1846.330
384.8650, 1870.005
385.3471, 1900.681
385.8292, 1938.730
386.3113, 1975.923
386.7935, 2001.356
387.2756, 2016.171
387.7577, 2036.176
388.2398, 2063.507
388.7219, 2095.916
389.2040, 2133.337
389.6862, 2174.275
390.1683, 2213.997
390.6504, 2246.540
391.1325, 2279.772
391.6146, 2321.255
392.0967, 2371.092
392.5789, 2429.113
393.0610, 2498.570
393.5431, 2573.285
394.0252, 2636.256
394.5073, 2680.298
394.9894, 2729.146
395.4716, 2785.749
395.9537, 2851.967
396.4358, 2932.269
396.9179, 3027.083
397.4000, 3128.387
397.8821, 3227.683
398.3643, 3324.103
398.8464, 3426.977
399.3285, 3532.827
399.8106, 3648.866
400.2927, 3778.556
400.7748, 3920.400
401.2570, 4070.439
401.7391, 4227.159
402.2212, 4392.096
402.7033, 4570.002
403.1854, 4763.485
403.6675, 4960.981
404.1497, 5145.842
404.6317, 5345.177
405.1139, 5581.714
405.5960, 5852.923
406.0781, 6128.675
406.5602, 6381.000
407.0423, 6620.440
407.5244, 6889.974
408.0066, 7196.561
408.4887, 7511.759
408.9708, 7825.376
409.4529, 8134.067
409.9350, 8432.501
410.4171, 8716.398
410.8993, 8994.277
411.3814, 9282.754
411.8635, 9568.534
412.3456, 9818.086
412.8277, 10021.68
413.3098, 10185.11
413.7920, 10317.27
414.2741, 10417.74
414.7562, 10471.16
415.2383, 10475.67
415.7204, 10435.07
416.2025, 10347.75
416.6847, 10217.07
417.1668, 10050.32
417.6489, 9851.217
418.1310, 9619.800
418.6131, 9356.924
419.0952, 9047.740
419.5774, 8729.354
420.0595, 8395.992
420.5416, 8063.055
421.0237, 7743.248
421.5058, 7438.841
421.9879, 7146.030
422.4701, 6861.085
422.9522, 6584.285
423.4343, 6319.041
423.9164, 6066.485
424.3985, 5823.351
424.8806, 5584.718
425.3628, 5354.881
425.8449, 5143.827
426.3270, 4955.956
426.8091, 4784.167
427.2912, 4624.161
427.7733, 4474.980
428.2555, 4331.642
428.7376, 4190.608
429.2197, 4056.688
429.7018, 3937.521
430.1839, 3836.195
430.6660, 3735.115
431.1482, 3626.011
431.6303, 3522.623
432.1124, 3436.219
432.5945, 3364.491
433.0766, 3297.644
433.5587, 3229.776
434.0409, 3161.298
434.5230, 3092.736
435.0051, 3017.483
435.4872, 2953.385
435.9693, 2906.252
436.4514, 2866.083
436.9336, 2826.213
437.4157, 2785.143
437.8978, 2744.380
438.3799, 2705.685
438.8620, 2668.552
439.3441, 2629.143
439.8263, 2585.927
440.3084, 2543.302
440.7905, 2503.184
441.2726, 2465.143
441.7547, 2428.499
442.2368, 2392.119
442.7190, 2359.621
443.2011, 2336.818
443.6832, 2320.126
444.1653, 2298.805
444.6474, 2269.697
445.1295, 2238.340
445.6117, 2211.488
446.0938, 2190.577
446.5759, 2162.880
447.0580, 2119.713
447.5401, 2078.485
448.0222, 2048.329
448.5044, 2027.077
448.9865, 2010.184
449.4686, 1995.716
449.9507, 1980.918
450.4328, 1958.521
450.9149, 1921.610
451.3971, 1893.270
451.8792, 1882.168
452.3613, 1872.952
452.8434, 1856.523
453.3255, 1833.921
453.8076, 1812.169
454.2898, 1796.792
454.7719, 1784.683
455.2540, 1766.915
455.7361, 1741.990
456.2182, 1720.168
456.7003, 1706.589
457.1825, 1697.777
457.6646, 1688.735
458.1467, 1679.684
458.6288, 1669.110
459.1109, 1654.482
459.5930, 1638.802
460.0752, 1626.349
460.5573, 1617.508
461.0394, 1610.400
461.5215, 1603.848
462.0036, 1597.738
462.4857, 1590.857
462.9679, 1583.594
463.4500, 1575.118
463.9321, 1562.564
464.4142, 1550.163
464.8963, 1543.183
465.3784, 1542.459
465.8606, 1543.302
466.3427, 1540.498
466.8248, 1533.950
467.3069, 1526.515
467.7890, 1515.724
468.2711, 1507.815
468.7533, 1507.486
469.2354, 1510.937
469.7175, 1512.763
470.1996, 1512.131
470.6817, 1507.851
471.1638, 1496.934
471.6460, 1481.100
472.1281, 1466.096
472.6102, 1452.409
473.0923, 1442.978
473.5744, 1442.356
474.0565, 1451.642
474.5387, 1457.303
475.0208, 1461.258
475.5029, 1459.577
475.9850, 1445.860
476.4671, 1425.858
476.9492, 1409.700
477.4313, 1401.609
477.9135, 1399.313
478.3956, 1399.938
478.8777, 1406.146
479.3598, 1407.479
479.8419, 1400.969
480.3240, 1392.100
480.8062, 1379.844
481.2883, 1367.057
481.7704, 1360.233
482.2525, 1364.538
482.7346, 1373.003
483.2167, 1374.826
483.6989, 1370.157
484.1810, 1366.959
484.6631, 1368.886
485.1452, 1371.302
485.6273, 1366.792
486.1094, 1355.313
486.5916, 1346.648
487.0737, 1343.343
487.5558, 1342.801
488.0379, 1346.564
488.5200, 1351.728
489.0021, 1348.764
489.4843, 1331.947
489.9664, 1308.728
490.4485, 1297.766
490.9306, 1307.699
491.4127, 1313.469
491.8948, 1312.289
492.3770, 1309.425
492.8591, 1307.530
493.3412, 1306.592
493.8233, 1305.595
494.3054, 1304.134
494.7875, 1302.004
495.2697, 1297.850
495.7518, 1291.216
496.2339, 1287.965
496.7160, 1292.855
497.1981, 1299.047
497.6802, 1296.001
498.1624, 1282.980
498.6445, 1274.858
499.1266, 1280.459
499.6087, 1289.181
500.0908, 1291.153
500.5729, 1287.105
501.0551, 1282.536
501.5372, 1280.367
502.0193, 1279.943
502.5014, 1279.515
502.9835, 1279.356
503.4656, 1278.686
503.9478, 1277.289
504.4299, 1275.627
504.9120, 1273.065
505.3941, 1270.385
505.8762, 1270.321
506.3583, 1276.963
506.8405, 1284.656
507.3226, 1277.290
507.8047, 1252.554
508.2868, 1237.851
508.7689, 1249.714
509.2510, 1267.260
509.7332, 1260.140
510.2153, 1227.000
510.6974, 1205.146
511.1795, 1212.724
511.6616, 1229.061
512.1437, 1238.699
512.6259, 1241.246
513.1080, 1239.559
513.5901, 1234.882
514.0722, 1228.137
514.5543, 1221.318
515.0364, 1213.912
515.5186, 1207.498
516.0007, 1202.702
516.4828, 1198.191
516.9649, 1194.453
517.4470, 1190.420
517.9291, 1183.114
518.4113, 1169.032
518.8934, 1153.860
519.3755, 1146.002
519.8576, 1145.471
520.3397, 1154.958
520.8218, 1183.187
521.3040, 1209.869
521.7861, 1203.293
522.2682, 1165.062
522.7503, 1140.273
523.2324, 1145.411
523.7145, 1156.916
524.1967, 1161.729
524.6788, 1160.822
525.1609, 1157.629
525.6430, 1153.559
526.1251, 1149.861
526.6072, 1149.234
527.0894, 1153.775
527.5715, 1154.398
528.0536, 1147.430
528.5357, 1140.070
529.0178, 1137.464
529.4999, 1135.943
529.9821, 1127.021
530.4642, 1104.175
530.9463, 1082.507
531.4284, 1082.966
531.9105, 1099.945
532.3926, 1105.270
532.8748, 1090.412
533.3569, 1075.025
533.8390, 1078.347
534.3211, 1100.400
534.8032, 1118.388
535.2853, 1135.963
535.7675, 1145.401
536.2496, 1136.739
536.7317, 1121.653
537.2138, 1116.742
537.6959, 1125.389
538.1780, 1135.473
538.6602, 1132.121
539.1423, 1115.678
539.6244, 1106.082
540.1065, 1107.287
540.5886, 1108.169
541.0707, 1102.749
541.5529, 1095.211
542.0350, 1090.249
542.5171, 1088.735
542.9992, 1088.705
543.4813, 1090.273
543.9634, 1092.088
544.4456, 1091.949
544.9277, 1089.705
545.4098, 1086.274
545.8919, 1081.883
546.3740, 1077.175
546.8561, 1074.853
547.3383, 1078.904
547.8204, 1079.626
548.3025, 1073.542
548.7846, 1066.617
549.2667, 1063.145
549.7488, 1062.920
550.2310, 1063.361
550.7131, 1062.951
551.1952, 1061.965
551.6773, 1060.817
552.1594, 1059.485
552.6415, 1058.401
553.1237, 1056.798
553.6058, 1056.693
554.0879, 1063.772
554.5700, 1077.917
555.0521, 1082.707
555.5342, 1064.534
556.0164, 1047.136
556.4985, 1048.058
556.9806, 1060.156
557.4627, 1068.400
557.9448, 1067.141
558.4269, 1060.988
558.9091, 1055.938
559.3912, 1051.605
559.8733, 1051.072
560.3554, 1058.360
560.8375, 1064.045
561.3196, 1064.319
561.8018, 1060.749
562.2839, 1055.220
562.7660, 1047.672
563.2481, 1040.109
563.7302, 1032.683
564.2123, 1026.567
564.6945, 1025.646
565.1766, 1030.139
565.6587, 1033.155
566.1408, 1029.162
566.6229, 1019.859
567.1050, 1013.858
567.5872, 1011.204
568.0693, 1012.166
568.5514, 1021.866
569.0335, 1031.233
569.5156, 1032.184
569.9977, 1025.957
570.4799, 1020.387
570.9620, 1021.605
571.4441, 1025.383
571.9262, 1021.677
572.4083, 1010.300
572.8904, 1002.365
573.3726, 1000.465
573.8547, 1003.991
574.3368, 1016.053
574.8189, 1037.010
575.3010, 1046.332
575.7831, 1031.532
576.2653, 1016.153
576.7474, 1013.338
577.2295, 1017.308
577.7116, 1017.411
578.1937, 1010.666
578.6758, 1003.675
579.1580, 1006.201
579.6401, 1018.309
580.1222, 1021.846
580.6042, 1011.224
581.0864, 1002.985
581.5685, 1008.884
582.0506, 1019.134
582.5327, 1021.426
583.0148, 1012.851
583.4969, 1006.082
583.9791, 1008.653
584.4612, 1014.928
584.9433, 1018.281
585.4254, 1018.865
585.9075, 1020.809
586.3896, 1026.832
586.8718, 1033.851
587.3539, 1033.756
587.8360, 1022.154
588.3181, 1014.053
588.8002, 1012.287
589.2823, 1011.686
589.7645, 1012.615
590.2466, 1012.656
590.7287, 1005.800
591.2108, 986.2247
591.6929, 968.4162
592.1750, 968.3883
592.6572, 980.7078
593.1393, 990.8172
593.6214, 996.0955
594.1035, 999.1217
594.5856, 1001.313
595.0677, 1003.059
595.5499, 1007.700
596.0320, 1023.013
596.5141, 1030.878
596.9962, 1025.517
597.4783, 1015.301
597.9604, 1004.377
598.4426, 994.6118
598.9247, 988.8687
599.4068, 989.7238
599.8889, 994.9313
600.3710, 1003.349
600.8531, 1014.442
601.3353, 1015.877
601.8174, 1001.084
602.2995, 983.4081
602.7816, 978.2744
603.2637, 986.9939
603.7458, 991.6710
604.2280, 986.7626
604.7101, 984.4252
605.1922, 991.7441
605.6743, 1002.528
606.1564, 1009.969
606.6385, 1012.252
607.1207, 1010.376
607.6028, 1003.841
608.0849, 994.0057
608.5670, 986.4492
609.0491, 980.9630
609.5313, 978.9789
610.0134, 983.2017
610.4955, 989.1154
610.9776, 988.9050
611.4597, 981.6889
611.9418, 978.6717
612.4240, 983.7565
612.9061, 991.3610
613.3882, 1001.205
613.8703, 1010.388
614.3524, 1013.266
614.8345, 1008.073
615.3167, 999.9830
615.7988, 996.1195
616.2809, 996.3971
616.7630, 992.5906
617.2451, 982.5806
617.7272, 973.5547
618.2094, 967.1515
618.6915, 964.6217
619.1736, 969.0188
619.6557, 982.7885
620.1378, 992.4732
620.6199, 992.1943
621.1021, 987.7596
621.5842, 982.2950
622.0663, 976.9764
622.5484, 973.8965
623.0305, 974.0566
623.5126, 975.4714
623.9948, 973.9677
624.4769, 968.5865
624.9590, 968.6132
625.4411, 977.2911
625.9232, 986.4313
626.4053, 993.4129
626.8875, 997.7416
627.3696, 997.6475
627.8517, 991.5198
628.3338, 985.9537
628.8159, 983.0168
629.2980, 982.4641
629.7802, 986.6786
630.2623, 993.4926
630.7444, 994.4720
631.2265, 984.5096
631.7086, 970.6850
632.1907, 968.9525
632.6729, 983.2648
633.1550, 990.1083
633.6371, 984.7254
634.1192, 976.5217
634.6013, 967.6380
635.0834, 960.1017
635.5656, 958.3892
636.0477, 965.4734
636.5298, 971.9860
637.0119, 974.5607
637.4940, 973.4818
637.9761, 966.4732
638.4583, 955.4327
638.9404, 947.8389
639.4225, 948.0306
639.9046, 954.3337
640.3867, 964.6354
640.8688, 981.7365
641.3510, 990.3333
641.8331, 983.8923
642.3152, 975.7665
642.7973, 973.9966
643.2794, 975.7200
643.7615, 975.3282
644.2437, 971.0909
644.7258, 966.5682
645.2079, 962.1370
645.6900, 959.1979
646.1721, 960.7006
646.6542, 965.7715
647.1364, 969.7087
647.6185, 969.5590
648.1006, 967.2195
648.5827, 967.7858
649.0648, 972.7535
649.5469, 972.9781
650.0291, 962.7870
650.5112, 954.6006
650.9933, 958.8610
651.4754, 969.5175
651.9575, 975.1403
652.4396, 973.7447
652.9218, 968.0054
653.4039, 951.6370
653.8860, 936.4464
654.3681, 938.9557
654.8502, 956.1163
655.3323, 970.5800
655.8145, 972.2497
656.2966, 966.5496
656.7787, 966.6460
657.2608, 975.1503
657.7429, 968.4717
658.2250, 931.7347
658.7072, 901.4672
659.1893, 906.2351
659.6714, 931.5688
660.1535, 951.0364
660.6356, 962.5350
661.1177, 968.1480
661.5999, 965.6423
662.0820, 959.7925
662.5641, 954.3226
663.0462, 949.5184
663.5283, 943.6413
664.0104, 935.5153
664.4926, 929.4205
664.9747, 936.2771
665.4568, 956.5908
665.9389, 961.5373
666.4210, 942.3528
666.9031, 925.9070
667.3853, 930.2005
667.8674, 946.6030
668.3495, 954.3928
668.8316, 950.2662
669.3137, 946.9102
669.7958, 948.6838
670.2780, 950.3137
670.7601, 945.3536
671.2422, 937.7677
671.7243, 937.7166
672.2064, 949.4632
672.6885, 962.7475
673.1707, 962.0187
673.6528, 950.1692
674.1349, 947.3472
674.6170, 956.0024
675.0991, 963.6970
675.5812, 963.6958
676.0634, 959.5816
676.5455, 958.6674
677.0276, 963.3444
677.5097, 963.9144
677.9918, 954.7064
678.4739, 947.0907
678.9561, 949.8769
679.4382, 956.2833
679.9203, 954.0952
680.4024, 940.2746
680.8845, 928.0970
681.3666, 932.5108
681.8488, 946.4290
682.3309, 952.8860
682.8130, 951.8607
683.2951, 950.5659
683.7772, 952.2901
684.2593, 953.3339
684.7415, 947.1397
685.2236, 930.9644
685.7057, 924.3849
686.1878, 938.8267
686.6699, 949.0963
687.1520, 947.0704
687.6342, 939.6771
688.1163, 933.2789
688.5984, 928.9567
689.0805, 925.8750
689.5626, 922.7599
690.0447, 921.2322
690.5269, 925.5718
691.0090, 933.0765
691.4911, 934.9861
691.9732, 928.9226
692.4553, 920.5634
692.9374, 915.3683
693.4196, 913.3196
693.9017, 914.6215
694.3838, 921.3007
694.8659, 926.9787
695.3480, 932.4257
695.8301, 934.4607
696.3123, 927.2632
696.7944, 913.5155
697.2765, 906.2618
697.7586, 913.7407
698.2407, 922.9830
698.7228, 931.4222
699.2050, 935.2657
699.6871, 923.7667
700.1692, 900.0548
700.6513, 885.4781
701.1334, 897.0468
701.6155, 921.5602
702.0977, 926.1382
702.5798, 909.1995
703.0619, 896.8343
703.5440, 892.1200
704.0261, 894.4945
704.5082, 908.6523
704.9904, 929.2414
705.4725, 935.0190
705.9546, 915.3777
706.4367, 901.0389
706.9188, 898.6736
707.4009, 900.6357
707.8831, 904.3403
708.3652, 907.8052
708.8473, 907.8246
709.3294, 902.9282
709.8115, 896.7814
710.2936, 891.6715
710.7758, 888.5982
711.2579, 891.9997
711.7400, 901.8003
712.2221, 909.5965
712.7042, 911.1685
713.1863, 909.2885
713.6685, 909.1548
714.1506, 912.1884
714.6327, 910.7246
715.1148, 900.0801
715.5969, 890.6516
716.0790, 884.9482
716.5612, 882.0851
717.0433, 880.8061
717.5254, 881.0036
718.0075, 884.1161
718.4896, 894.1573
718.9717, 904.3875
719.4539, 909.1306
719.9360, 909.5579
720.4181, 907.1275
720.9002, 902.7415
721.3823, 899.8029
721.8644, 902.1626
722.3465, 908.1641
722.8286, 910.3071
723.3107, 907.9430
723.7928, 905.1966
724.2750, 902.9791
724.7571, 900.5180
725.2392, 896.0978
725.7213, 890.4446
726.2034, 888.6815
726.6855, 898.9701
727.1677, 902.0563
727.6498, 885.6296
728.1319, 867.7865
728.6140, 864.9166
729.0961, 873.3381
729.5782, 879.1202
730.0604, 875.3776
730.5425, 869.6363
731.0246, 870.1639
731.5067, 875.2558
731.9888, 881.8400
732.4709, 889.2934
732.9531, 892.4245
733.4352, 887.7488
733.9173, 879.8372
734.3994, 877.6188
734.8815, 882.1961
735.3636, 888.0081
735.8458, 899.8468
736.3279, 899.2828
736.8100, 906.5186
737.2921, 910.3718
737.7742, 911.0242
738.2563, 898.8886
738.7385, 903.2658
739.2206, 901.0256
739.7027, 898.5139
740.1848, 905.2153
740.6669, 894.9398
741.1490, 901.4951
741.6312, 901.3317
742.1133, 904.2435
742.5954, 900.4966
743.0775, 898.8064
743.5596, 903.7769
744.0417, 905.0592
744.5239, 900.5458
745.0060, 903.6529
745.4881, 893.1448
745.9702, 894.5842
746.4523, 901.1785
746.9344, 897.0000
747.4166, 900.2287
747.8987, 900.6365
748.3808, 888.2233
748.8629, 898.1069
749.3450, 898.3480
749.8271, 888.6881
750.3093, 897.8076
750.7914, 889.5127
751.2735, 887.4337
751.7556, 890.0326
752.2377, 887.7550
752.7198, 893.1658
753.2020, 891.1696
753.6841, 888.5119
754.1662, 888.7421
754.6483, 880.7886
755.1304, 888.0175
755.6125, 888.4957
756.0947, 888.6793
756.5768, 887.0745
757.0589, 886.2524
757.5410, 887.2184
758.0231, 888.8118
758.5052, 889.5114
758.9874, 889.3383
759.4695, 891.1871
759.9516, 897.3342
760.4337, 902.2266
760.9158, 906.3587
761.3979, 907.8008
761.8801, 904.0594
762.3622, 896.3705
762.8443, 887.6084
763.3264, 877.0060
763.8085, 871.1003
764.2906, 882.1783
764.7728, 897.5278
765.2549, 892.9661
765.7370, 872.0461
766.2191, 859.3066
766.7012, 866.5804
767.1833, 884.4243
767.6655, 900.1432
768.1476, 913.7480
768.6297, 921.8568
769.1118, 922.8624
769.5939, 925.3922
770.0760, 934.0145
770.5582, 943.8716
771.0403, 948.5060
771.5224, 947.3997
772.0045, 947.0453
772.4866, 943.7596
772.9688, 945.9911
773.4509, 962.8000
773.9330, 980.2638
774.4151, 982.7734
774.8972, 974.3357
775.3793, 974.4051
775.8615, 995.0214
776.3436, 1018.229
776.8257, 1029.348
777.3078, 1033.920
777.7899, 1042.303
778.2720, 1053.588
778.7542, 1056.895
779.2363, 1046.187
779.7184, 1032.188
780.2005, 1034.562
780.6826, 1052.463
781.1647, 1061.059
781.6469, 1058.188
782.1290, 1054.764
782.6111, 1055.216
783.0932, 1056.780
783.5753, 1053.746
784.0574, 1044.219
784.5396, 1049.307
785.0217, 1086.177
785.5038, 1114.358
785.9859, 1122.162
786.4680, 1121.967
786.9501, 1121.511
787.4323, 1122.218
787.9144, 1125.769
788.3965, 1135.524
788.8786, 1142.827
789.3607, 1137.286
789.8428, 1129.373
790.3250, 1137.145
790.8071, 1155.375
791.2892, 1161.172
791.7713, 1143.561
792.2534, 1118.235
792.7355, 1108.874
793.2177, 1110.886
793.6998, 1098.332
794.1819, 1070.193
794.6640, 1045.240
795.1461, 1030.865
795.6282, 1020.735
796.1104, 1006.475
796.5925, 988.1320
797.0746, 978.3415
797.5567, 988.1541
798.0388, 987.4969
798.5209, 960.4968
799.0031, 931.1962
799.4852, 914.0975
799.9673, 907.1806
800.4494, 903.2937
800.9315, 902.5560
801.4136, 901.8516
801.8958, 901.2570
802.3779, 899.2488
802.8600, 894.4471
803.3421, 887.2709
803.8242, 876.3265
804.3063, 861.5040
804.7885, 853.3077
805.2706, 869.5910
805.7527, 894.8664
806.2348, 897.6994
806.7169, 882.7662
807.1990, 871.8029
807.6812, 870.9369
808.1633, 874.5883
808.6454, 878.3552
809.1275, 875.9351
809.6096, 882.7684
810.0917, 886.2193
810.5739, 886.4689
811.0560, 873.9310
811.5381, 877.9059
812.0202, 875.2632
812.5023, 872.3491
812.9844, 878.6483
813.4666, 867.9700
813.9487, 874.1229
814.4308, 873.5573
814.9129, 876.0666
815.3950, 871.9174
815.8771, 869.8248
816.3593, 874.3925
816.8414, 875.2726
817.3235, 870.3569
817.8056, 873.0616
818.2877, 862.1510
818.7698, 863.1881
819.2520, 869.3798
819.7341, 864.7990
820.2162, 867.6254
820.6983, 867.6307
821.1804, 854.8151
821.6625, 864.2965
822.1447, 864.1349
822.6268, 854.0727
823.1089, 862.7900
823.5910, 854.0927
824.0731, 851.6113
824.5552, 853.8079
825.0374, 851.1276
825.5195, 856.1361
826.0016, 847.9330
826.4837, 846.1668
826.9658, 847.0897
827.4479, 845.4199
827.9301, 837.4291
828.4122, 829.4020
828.8943, 826.5963
829.3764, 828.4569
829.8585, 832.1819
830.3406, 843.5992
830.8228, 847.4093
831.3049, 834.1032
831.7870, 820.3719
832.2691, 815.6975
832.7512, 817.6326
833.2333, 822.7947
833.7155, 830.5037
834.1976, 833.3709
834.6797, 822.0939
835.1618, 808.9793
835.6439, 805.7482
836.1260, 808.5240
836.6082, 811.2892
837.0903, 812.1662
837.5724, 809.3522
838.0545, 800.2255
838.5366, 790.4688
839.0187, 790.7812
839.5009, 799.2261
839.9830, 807.1951
840.4651, 813.7519
840.9472, 819.8097
841.4293, 826.0673
841.9114, 830.9194
842.3936, 831.9042
842.8757, 829.0261
843.3578, 820.6157
843.8399, 802.0742
844.3220, 791.8792
844.8041, 799.2595
845.2863, 810.9786
845.7684, 813.1888
846.2505, 807.5522
846.7326, 809.3585
847.2147, 831.0945
847.6968, 841.3177
848.1790, 826.8881
848.6611, 812.0576
849.1432, 811.6473
849.6253, 819.3715
850.1074, 823.9781
850.5895, 823.3339
851.0717, 821.0952
851.5538, 820.3903
852.0359, 816.9008
852.5180, 801.6017
853.0001, 784.9121
853.4822, 783.9374
853.9644, 798.0809
854.4465, 810.4506
854.9286, 810.8824
855.4107, 805.7057
855.8928, 800.0815
856.3749, 795.3467
856.8571, 795.5198
857.3392, 799.9636
857.8213, 802.9753
858.3034, 801.9619
858.7855, 801.1988
859.2676, 808.3681
859.7498, 820.9753
860.2319, 820.2120
860.7140, 804.8706
861.1961, 797.2177
861.6782, 804.2582
862.1603, 813.7778
862.6425, 815.6337
863.1245, 811.6027
863.6066, 808.8415
864.0887, 808.0146
864.5709, 806.5704
865.0530, 803.3464
865.5351, 801.1286
866.0172, 801.1881
866.4993, 802.9795
866.9814, 805.4786
867.4636, 808.5618
867.9457, 813.8603
868.4278, 832.5515
868.9099, 838.9833
869.3920, 811.6610
869.8741, 781.4174
870.3563, 773.4071
870.8384, 784.4637
871.3205, 800.5133
871.8026, 820.3820
872.2847, 834.0082
872.7668, 832.8912
873.2490, 826.2112
873.7311, 819.5379
874.2132, 814.4152
874.6953, 813.7013
875.1774, 817.2219
875.6595, 818.8575
876.1417, 811.5742
876.6238, 803.3414
877.1059, 808.1228
877.5880, 819.6631
878.0701, 821.0219
878.5522, 812.1998
879.0344, 809.2598
879.5165, 821.2708
879.9986, 835.7874
880.4807, 831.2361
880.9628, 811.3456
881.4449, 800.9508
881.9271, 800.2217
882.4092, 805.4114
882.8913, 816.6852
883.3734, 824.9626
883.8555, 820.7272
884.3376, 807.3502
884.8198, 799.7161
885.3019, 798.5444
885.7840, 800.5150
886.2661, 807.2546
886.7482, 812.8417
887.2303, 813.0899
887.7125, 811.7762
888.1946, 816.2856
888.6767, 828.5876
889.1588, 832.4541
889.6409, 821.3937
890.1230, 810.5724
890.6052, 799.1649
891.0873, 791.6052
891.5694, 793.6836
892.0515, 801.9231
892.5336, 805.8301
893.0157, 800.6428
893.4979, 799.9989
893.9800, 815.9450
894.4621, 828.0387
894.9442, 819.8860
895.4263, 803.5056
895.9084, 795.3986
896.3906, 797.2300
896.8727, 799.5252
897.3548, 797.1764
897.8369, 794.9133
898.3190, 797.2811
898.8011, 800.6561
899.2833, 799.7104
899.7654, 796.0193
900.2475, 795.6188
900.7296, 800.6631
901.2117, 805.3337
901.6938, 802.1842
902.1760, 796.7373
902.6581, 798.5121
903.1402, 805.0356
903.6223, 810.2906
904.1044, 812.8209
904.5865, 811.9320
905.0687, 806.6158
905.5508, 800.7269
906.0329, 804.0113
906.5150, 812.9506
906.9971, 805.6644
907.4792, 782.5802
907.9614, 773.4210
908.4435, 789.5867
908.9256, 809.2516
909.4077, 808.5744
909.8898, 793.0321
910.3719, 789.4086
910.8541, 799.3484
911.3362, 805.7333
911.8183, 807.0978
912.3004, 800.9863
912.7825, 782.0615
913.2646, 762.3943
913.7468, 765.0475
914.2289, 793.2414
914.7110, 807.0720
915.1931, 798.5211
915.6752, 793.9144
916.1573, 802.5991
916.6395, 811.6415
917.1216, 811.0903
917.6037, 803.0497
918.0858, 794.1654
918.5679, 780.8204
919.0500, 774.8212
919.5322, 781.7482
920.0143, 789.1280
920.4964, 795.1932
920.9785, 798.2028
921.4606, 794.2507
921.9427, 784.6122
922.4249, 779.5655
922.9070, 786.0931
923.3891, 789.3967
923.8712, 780.8525
924.3533, 773.5125
924.8354, 779.0270
925.3176, 790.0098
925.7997, 785.6130
926.2818, 792.3904
926.7639, 795.7852
927.2460, 795.9792
927.7281, 783.3853
928.2103, 787.3040
928.6924, 784.6053
929.1745, 781.6353
929.6566, 787.8783
930.1387, 777.1445
930.6208, 783.2413
931.1030, 782.6194
931.5851, 785.0728
932.0672, 780.8676
932.5493, 778.7190
933.0314, 783.2311
933.5135, 784.0550
933.9957, 779.0831
934.4778, 781.7319
934.9599, 770.7653
935.4420, 771.7463
935.9241, 777.8823
936.4063, 773.2452
936.8884, 781.4218
937.3705, 797.8181
937.8526, 799.9955
938.3347, 784.2794
938.8168, 772.0874
939.2990, 783.0847
939.7811, 804.1618
940.2632, 813.3340
940.7453, 812.6161
941.2274, 805.4068
941.7095, 793.7729
942.1917, 789.4810
942.6738, 797.4739
943.1559, 806.2757
943.6380, 800.6843
944.1201, 786.4480
944.6022, 783.6035
945.0844, 791.3600
945.5665, 804.0935
946.0486, 820.9058
946.5307, 828.1368
947.0128, 816.4069
947.4949, 799.6402
947.9771, 802.8555
948.4592, 824.3259
948.9413, 832.8231
949.4234, 827.1904
949.9055, 823.5936
950.3876, 826.4792
950.8698, 826.8207
951.3519, 815.8060
951.8340, 801.5795
952.3161, 807.2926
952.7982, 837.4386
953.2803, 855.6268
953.7625, 860.9564
954.2446, 855.9694
954.7267, 836.7916
955.2088, 819.1905
955.6909, 820.3002
956.1730, 834.3106
956.6552, 834.0966
957.1373, 812.5197
957.6194, 799.3311
958.1015, 796.2602
958.5836, 800.2604
959.0657, 813.9164
959.5479, 829.4327
960.0300, 839.1249
960.5121, 842.7833
960.9942, 836.9393
961.4763, 810.7092
961.9584, 797.6776
962.4406, 809.2424
962.9227, 821.1486
963.4048, 822.4125
963.8869, 817.2230
964.3690, 810.2654
964.8511, 801.1087
965.3333, 796.4676
965.8154, 798.1052
966.2975, 801.6514
966.7796, 810.5154
967.2617, 817.1387
967.7438, 816.9659
968.2260, 811.9691
968.7081, 803.9691
969.1902, 791.4907
969.6723, 786.5665
970.1544, 797.2495
970.6365, 805.5172
971.1187, 805.5674
971.6008, 803.8248
972.0829, 803.0337
972.5650, 804.2573
973.0471, 810.9432
973.5292, 826.3707
974.0114, 833.6442
974.4935, 821.7946
974.9756, 812.3894
975.4577, 814.6996
975.9398, 820.6249
976.4219, 824.0999
976.9041, 825.1550
977.3862, 824.9257
977.8683, 822.7809
978.3504, 822.2021
978.8325, 825.2061
979.3146, 828.4713
979.7968, 831.7790
980.2789, 833.6597
980.7610, 831.7355
981.2431, 827.0255
981.7252, 823.5323
982.2073, 821.9975
982.6895, 822.1864
983.1716, 824.4541
983.6537, 827.9285
984.1358, 834.5308
984.6179, 840.4498
985.1000, 841.3124
985.5822, 837.2070
986.0643, 830.4688
986.5464, 818.1080
987.0285, 811.4827
987.5106, 820.7585
987.9927, 830.7598
988.4749, 833.0885
988.9570, 829.4178
989.4391, 820.8099
989.9212, 808.6800
990.4033, 798.4631
990.8854, 788.6906
991.3676, 787.3220
991.8497, 806.5477
992.3318, 826.4288
992.8139, 829.8531
993.2960, 825.9207
993.7781, 828.4296
994.2603, 839.2138
994.7424, 852.9874
995.2245, 875.0696
995.7066, 887.5367
996.1887, 873.5571
996.6708, 854.9161
997.1530, 846.4004
997.6351, 846.2923
998.1172, 850.7387
998.5993, 858.6495
999.0814, 868.1489
999.5635, 884.3444
1000.046, 893.3338
1000.528, 883.0912
1001.010, 868.0856
1001.492, 856.7737
1001.974, 850.9423
1002.456, 852.8790
1002.938, 862.4457
1003.420, 873.2455
1003.903, 884.5523
1004.385, 893.8145
1004.867, 901.4979
1005.349, 905.0020
1005.831, 897.4211
1006.313, 885.8208
1006.795, 884.7850
1007.277, 896.1297
1007.759, 902.4959
1008.242, 891.1836
1008.724, 879.9018
1009.206, 876.0008
1009.688, 876.6592
1010.170, 880.5259
1010.652, 886.7657
1011.134, 895.7129
1011.616, 907.0580
1012.099, 914.7028
1012.581, 914.5450
1013.063, 912.3428
1013.545, 910.4689
1014.027, 907.8689
1014.509, 898.1189
1014.991, 889.1835
1015.473, 899.7903
1015.955, 932.2712
1016.438, 953.4203
1016.920, 943.8727
1017.402, 929.7900
1017.884, 918.4738
1018.366, 910.2239
1018.848, 905.0018
1019.330, 903.0358
1019.812, 906.0829
1020.294, 914.2238
1020.777, 919.6914
1021.259, 920.9484
1021.741, 917.7623
1022.223, 903.9412
1022.705, 891.6406
1023.187, 888.2914
1023.669, 893.3463
1024.151, 907.0190
1024.634, 929.1159
1025.116, 948.1481
1025.598, 964.8052
1026.080, 972.9562
1026.562, 962.6884
1027.044, 951.7817
1027.526, 952.7336
1028.008, 960.6572
1028.490, 967.0356
1028.973, 970.9902
1029.455, 976.4200
1029.937, 991.8428
1030.419, 997.5282
1030.901, 975.8292
1031.383, 957.6320
1031.865, 963.7320
1032.347, 983.1971
1032.830, 1002.306
1033.312, 1019.826
1033.794, 1028.584
1034.276, 1019.084
1034.758, 1013.776
1035.240, 1022.434
1035.722, 1028.194
1036.204, 1014.424
1036.687, 997.8102
1037.169, 1004.465
1037.651, 1034.182
1038.133, 1052.995
1038.615, 1054.546
1039.097, 1054.166
1039.579, 1049.643
1040.061, 1046.870
1040.543, 1048.170
1041.026, 1052.613
1041.508, 1061.369
1041.990, 1073.391
1042.472, 1076.416
1042.954, 1066.269
1043.436, 1055.364
1043.918, 1038.917
1044.400, 1031.471
1044.882, 1043.365
1045.365, 1060.359
1045.847, 1066.644
1046.329, 1064.553
1046.811, 1068.567
1047.293, 1082.405
1047.775, 1090.072
1048.257, 1089.280
1048.739, 1087.471
1049.222, 1087.116
1049.704, 1086.172
1050.186, 1080.548
1050.668, 1074.636
1051.150, 1088.049
1051.632, 1126.937
1052.114, 1143.516
1052.596, 1132.646
1053.078, 1122.133
1053.561, 1119.551
1054.043, 1122.957
1054.525, 1132.013
1055.007, 1143.094
1055.489, 1146.748
1055.971, 1142.970
1056.453, 1137.758
1056.935, 1130.962
1057.417, 1133.106
1057.900, 1147.258
1058.382, 1159.666
1058.864, 1160.184
1059.346, 1156.786
1059.828, 1164.588
1060.310, 1181.372
1060.792, 1194.907
1061.274, 1205.291
1061.757, 1213.441
1062.239, 1219.513
1062.721, 1221.739
1063.203, 1218.886
1063.685, 1216.781
1064.167, 1224.595
1064.649, 1238.165
1065.131, 1246.628
1065.614, 1252.053
1066.096, 1259.742
1066.578, 1270.740
1067.060, 1285.440
1067.542, 1303.955
1068.024, 1325.350
1068.506, 1351.763
1068.988, 1377.461
1069.470, 1391.944
1069.953, 1401.188
1070.435, 1414.639
1070.917, 1432.627
1071.399, 1453.083
1071.881, 1475.047
1072.363, 1497.946
1072.845, 1526.313
1073.327, 1547.655
1073.809, 1543.082
1074.292, 1532.801
1074.774, 1543.143
1075.256, 1563.246
1075.738, 1569.460
1076.220, 1558.893
1076.702, 1547.110
1077.184, 1541.292
1077.666, 1534.641
1078.148, 1518.078
1078.631, 1505.684
1079.113, 1515.894
1079.595, 1530.463
1080.077, 1524.348
1080.559, 1499.308
1081.041, 1475.613
1081.523, 1458.367
1082.005, 1441.083
1082.488, 1411.019
1082.970, 1395.093
1083.452, 1416.717
1083.934, 1445.894
1084.416, 1460.968
1084.898, 1461.143
1085.380, 1442.696
1085.862, 1393.518
1086.344, 1370.971
1086.827, 1396.282
1087.309, 1411.500
1087.791, 1400.163
1088.273, 1385.008
1088.755, 1378.664
1089.237, 1378.965
1089.719, 1382.365
1090.201, 1388.868
1090.683, 1398.788
1091.166, 1415.458
1091.648, 1419.576
1092.130, 1404.576
1092.612, 1394.411
1093.094, 1400.882
1093.576, 1415.728
1094.058, 1430.160
1094.540, 1443.240
1095.023, 1450.120
1095.505, 1451.155
1095.987, 1457.381
1096.469, 1469.027
1096.951, 1467.607
1097.433, 1447.388
1097.915, 1428.287
1098.397, 1426.893
1098.880, 1437.852
1099.362, 1455.153
1099.844, 1475.827
1100.326, 1492.945
1100.808, 1505.964
1101.290, 1514.468
1101.772, 1518.605
1102.254, 1518.554
1102.736, 1513.997
1103.219, 1509.996
1103.701, 1511.539
1104.183, 1516.401
1104.665, 1521.898
1105.147, 1528.953
1105.629, 1542.121
1106.111, 1557.818
1106.593, 1565.791
1107.075, 1562.854
1107.558, 1555.804
1108.040, 1535.759
1108.522, 1528.856
1109.004, 1564.279
1109.486, 1603.661
1109.968, 1614.889
1110.450, 1608.521
1110.932, 1602.703
1111.415, 1599.822
1111.897, 1598.281
1112.379, 1599.384
1112.861, 1599.167
1113.343, 1594.226
1113.825, 1591.445
1114.307, 1592.935
1114.789, 1598.682
1115.271, 1613.498
1115.754, 1631.755
1116.236, 1630.745
1116.718, 1599.990
1117.200, 1594.863
1117.682, 1625.950
1118.164, 1650.674
1118.646, 1659.518
1119.128, 1661.020
1119.610, 1659.761
1120.093, 1656.635
1120.575, 1652.966
1121.057, 1648.813
1121.539, 1643.451
1122.021, 1637.225
1122.503, 1638.606
1122.985, 1648.137
1123.467, 1657.126
1123.950, 1661.990
1124.432, 1665.565
1124.914, 1671.100
1125.396, 1675.589
1125.878, 1670.370
1126.360, 1661.611
1126.842, 1665.141
1127.324, 1676.587
1127.807, 1683.073
1128.289, 1681.631
1128.771, 1673.289
1129.253, 1656.269
1129.735, 1646.125
1130.217, 1661.964
1130.699, 1682.289
1131.181, 1689.804
1131.663, 1690.355
1132.146, 1693.057
1132.628, 1695.275
1133.110, 1683.635
1133.592, 1653.715
1134.074, 1643.180
1134.556, 1685.025
1135.038, 1715.206
1135.520, 1704.027
1136.002, 1690.602
1136.485, 1704.114
1136.967, 1723.327
1137.449, 1714.626
1137.931, 1684.312
1138.413, 1681.940
1138.895, 1726.170
1139.377, 1744.288
1139.859, 1726.531
1140.342, 1710.354
1140.824, 1706.212
1141.306, 1706.334
1141.788, 1705.423
1142.270, 1703.605
1142.752, 1699.861
1143.234, 1695.233
1143.716, 1700.761
1144.198, 1714.929
1144.681, 1723.458
1145.163, 1724.463
1145.645, 1718.462
1146.127, 1706.260
1146.609, 1702.772
1147.091, 1727.079
1147.573, 1758.080
1148.055, 1765.042
1148.537, 1758.929
1149.020, 1755.017
1149.502, 1752.953
1149.984, 1748.091
1150.466, 1740.731
1150.948, 1736.662
1151.430, 1739.166
1151.912, 1741.592
1152.394, 1742.815
1152.877, 1740.104
1153.359, 1722.982
1153.841, 1709.334
1154.323, 1720.131
1154.805, 1745.116
1155.287, 1761.305
1155.769, 1766.225
1156.251, 1771.264
1156.734, 1774.510
1157.216, 1783.287
1157.698, 1806.877
1158.180, 1817.464
1158.662, 1798.172
1159.144, 1773.149
1159.626, 1765.279
1160.108, 1771.568
1160.590, 1785.992
1161.073, 1808.473
1161.555, 1821.578
1162.037, 1825.339
1162.519, 1822.544
1163.001, 1814.617
1163.483, 1814.543
1163.965, 1829.314
1164.447, 1847.613
1164.929, 1856.492
1165.412, 1861.550
1165.894, 1872.399
1166.376, 1885.464
1166.858, 1894.954
1167.340, 1901.317
1167.822, 1905.547
1168.304, 1908.849
1168.786, 1916.505
1169.269, 1934.614
1169.751, 1945.863
1170.233, 1933.180
1170.715, 1921.896
1171.197, 1926.958
1171.679, 1938.858
1172.161, 1950.580
1172.643, 1961.301
1173.125, 1969.523
1173.608, 1974.490
1174.090, 1985.313
1174.572, 2004.826
1175.054, 2023.896
1175.536, 2042.447
1176.018, 2057.672
1176.500, 2066.814
1176.982, 2078.996
1177.464, 2105.752
1177.947, 2135.504
1178.429, 2132.127
1178.911, 2103.095
1179.393, 2100.796
1179.875, 2122.541
1180.357, 2154.233
1180.839, 2189.122
1181.321, 2204.222
1181.804, 2189.831
1182.286, 2176.935
1182.768, 2196.826
1183.250, 2225.087
1183.732, 2239.036
1184.214, 2245.758
1184.696, 2247.437
1185.178, 2250.737
1185.661, 2268.835
1186.143, 2299.042
1186.625, 2319.690
1187.107, 2319.343
1187.589, 2329.203
1188.071, 2367.641
1188.553, 2399.397
1189.035, 2410.908
1189.517, 2418.768
1190.000, 2431.946
1190.482, 2447.491
1190.964, 2460.942
1191.446, 2472.591
1191.928, 2484.523
1192.410, 2496.716
1192.892, 2508.377
1193.374, 2519.416
1193.856, 2532.427
1194.339, 2547.991
1194.821, 2561.602
1195.303, 2570.229
1195.785, 2576.915
1196.267, 2586.795
1196.749, 2596.332
1197.231, 2597.018
1197.713, 2595.382
1198.196, 2604.219
1198.678, 2619.536
1199.160, 2631.332
1199.642, 2636.597
1200.124, 2631.950
1200.606, 2605.733
1201.088, 2591.865
1201.570, 2608.366
1202.052, 2630.638
1202.535, 2647.120
1203.017, 2665.897
1203.499, 2698.944
1203.981, 2735.188
1204.463, 2751.584
1204.945, 2748.111
1205.427, 2751.415
1205.909, 2760.114
1206.391, 2791.280
1206.874, 2848.786
1207.356, 2889.352
1207.838, 2898.243
1208.320, 2898.908
1208.802, 2909.333
1209.284, 2922.222
1209.766, 2922.153
1210.248, 2920.195
1210.731, 2938.519
1211.213, 2968.105
1211.695, 2997.446
1212.177, 3021.248
1212.659, 3027.107
1213.141, 3014.651
1213.623, 3016.178
1214.105, 3054.046
1214.588, 3090.895
1215.070, 3116.890
1215.552, 3136.829
1216.034, 3150.392
1216.516, 3161.250
1216.998, 3171.585
1217.480, 3181.916
1217.962, 3193.484
1218.444, 3206.291
1218.927, 3218.931
1219.409, 3231.116
1219.891, 3249.422
1220.373, 3274.646
1220.855, 3289.505
1221.337, 3288.618
1221.819, 3286.907
1222.301, 3295.472
1222.783, 3308.168
1223.266, 3316.669
1223.748, 3324.549
1224.230, 3342.562
1224.712, 3359.401
1225.194, 3351.016
1225.676, 3329.074
1226.158, 3322.890
1226.640, 3337.829
1227.122, 3362.222
1227.605, 3410.510
1228.087, 3434.605
1228.569, 3404.559
1229.051, 3379.871
1229.533, 3380.528
1230.015, 3387.164
1230.497, 3387.310
1230.979, 3384.159
1231.462, 3382.609
1231.944, 3382.884
1232.426, 3389.304
1232.908, 3400.252
1233.390, 3395.420
1233.872, 3376.225
1234.354, 3359.784
1234.836, 3351.305
1235.318, 3351.996
1235.801, 3363.334
1236.283, 3375.161
1236.765, 3372.682
1237.247, 3373.657
1237.729, 3397.860
1238.211, 3427.838
1238.693, 3450.144
1239.175, 3464.251
1239.657, 3466.636
1240.140, 3460.282
1240.622, 3470.278
1241.104, 3505.610
1241.586, 3533.572
1242.068, 3555.915
1242.550, 3562.967
1243.032, 3547.945
1243.514, 3541.573
1243.997, 3560.230
1244.479, 3591.024
1244.961, 3622.838
1245.443, 3649.362
1245.925, 3645.634
1246.407, 3632.828
1246.889, 3668.439
1247.371, 3729.900
1247.854, 3759.363
1248.336, 3760.233
1248.818, 3777.747
1249.300, 3825.889
1249.782, 3874.789
1250.264, 3929.808
1250.746, 3957.573
1251.228, 3912.221
1251.710, 3884.495
1252.193, 3929.156
1252.675, 3989.216
1253.157, 4019.815
1253.639, 4031.694
1254.121, 4046.643
1254.603, 4064.481
1255.085, 4083.308
1255.567, 4103.434
1256.049, 4130.824
1256.532, 4164.128
1257.014, 4189.982
1257.496, 4205.500
1257.978, 4219.503
1258.460, 4236.349
1258.942, 4259.438
1259.424, 4297.586
1259.906, 4335.723
1260.389, 4368.348
1260.871, 4389.960
1261.353, 4384.745
1261.835, 4372.117
1262.317, 4388.413
1262.799, 4428.294
1263.281, 4445.225
1263.763, 4429.385
1264.245, 4433.354
1264.728, 4459.857
1265.210, 4493.521
1265.692, 4532.626
1266.174, 4557.303
1266.656, 4558.750
1267.138, 4553.996
1267.620, 4558.850
1268.102, 4567.472
1268.584, 4572.531
1269.067, 4575.668
1269.549, 4578.266
1270.031, 4581.520
##END=



