##NAMES=Crocoite
##RRUFFID=R040053
##IDEAL CHEMISTRY=Pb^2+^Cr^6+^O_4_
##LOCALITY=Dundas, Tasmania
##OWNER=RRUFF
##SOURCE=Bob Downs
##DESCRIPTION=Reddish-orange prismatic crystal
##STATUS=The identification of this mineral has been confirmed by X-ray diffraction and chemical analysis
##URL=rruff.info/R040053
##MEASURED CHEMISTRY=(Pb_.995_Mn_.005_)CrO_4_
128.7539, 6100.726
129.2360, 6164.010
129.7182, 6245.671
130.2003, 6334.501
130.6824, 6408.998
131.1645, 6469.300
131.6466, 6518.695
132.1287, 6554.238
132.6109, 6577.549
133.0930, 6607.062
133.5751, 6650.279
134.0572, 6705.509
134.5393, 6758.500
135.0215, 6807.656
135.5036, 6859.847
135.9857, 6929.650
136.4678, 7020.104
136.9499, 7107.782
137.4320, 7184.025
137.9142, 7248.863
138.3963, 7304.991
138.8784, 7350.701
139.3605, 7389.567
139.8426, 7429.549
140.3247, 7472.744
140.8069, 7513.245
141.2890, 7545.019
141.7711, 7562.819
142.2532, 7590.275
142.7353, 7635.887
143.2174, 7695.452
143.6996, 7733.453
144.1817, 7738.255
144.6638, 7734.477
145.1459, 7742.704
145.6280, 7774.072
146.1101, 7798.050
146.5923, 7808.317
147.0744, 7803.823
147.5565, 7795.795
148.0386, 7777.420
148.5207, 7758.873
149.0028, 7752.694
149.4850, 7778.300
149.9671, 7796.718
150.4492, 7797.364
150.9313, 7771.185
151.4134, 7751.376
151.8955, 7740.356
152.3777, 7736.084
152.8598, 7735.036
153.3419, 7725.407
153.8240, 7729.062
154.3061, 7757.524
154.7882, 7845.176
155.2704, 7904.653
155.7525, 7900.867
156.2346, 7856.364
156.7167, 7839.699
157.1988, 7886.805
157.6809, 7951.329
158.1631, 8006.965
158.6452, 8048.497
159.1273, 8079.462
159.6094, 8092.582
160.0915, 8090.606
160.5736, 8096.615
161.0558, 8128.636
161.5379, 8166.934
162.0200, 8194.672
162.5021, 8201.648
162.9842, 8200.789
163.4663, 8191.729
163.9485, 8174.329
164.4306, 8167.400
164.9127, 8190.086
165.3948, 8226.552
165.8769, 8256.257
166.3591, 8271.940
166.8412, 8278.091
167.3233, 8274.567
167.8054, 8259.579
168.2875, 8247.857
168.7696, 8252.883
169.2518, 8268.013
169.7339, 8280.212
170.2160, 8282.122
170.6981, 8278.668
171.1802, 8272.581
171.6623, 8261.615
172.1445, 8255.460
172.6266, 8264.244
173.1087, 8285.025
173.5908, 8308.586
174.0729, 8333.204
174.5550, 8355.944
175.0372, 8372.091
175.5193, 8379.604
176.0014, 8382.007
176.4835, 8382.481
176.9656, 8381.025
177.4477, 8377.806
177.9299, 8366.541
178.4120, 8353.789
178.8941, 8354.751
179.3762, 8384.688
179.8583, 8421.567
180.3404, 8425.587
180.8226, 8397.606
181.3047, 8369.959
181.7868, 8376.343
182.2689, 8408.009
182.7510, 8436.853
183.2331, 8449.611
183.7153, 8453.838
184.1974, 8471.437
184.6795, 8504.340
185.1616, 8529.533
185.6437, 8506.074
186.1258, 8444.013
186.6080, 8403.015
187.0901, 8423.226
187.5722, 8486.244
188.0543, 8526.832
188.5364, 8541.710
189.0185, 8543.571
189.5007, 8549.758
189.9828, 8559.753
190.4649, 8564.072
190.9470, 8551.698
191.4291, 8526.848
191.9112, 8517.602
192.3934, 8529.544
192.8755, 8549.116
193.3576, 8551.163
193.8397, 8534.790
194.3218, 8518.184
194.8039, 8510.856
195.2861, 8512.711
195.7682, 8522.055
196.2503, 8542.884
196.7324, 8566.537
197.2145, 8568.779
197.6967, 8546.126
198.1788, 8524.552
198.6609, 8524.165
199.1430, 8546.183
199.6251, 8564.791
200.1072, 8575.862
200.5894, 8581.709
201.0715, 8590.049
201.5536, 8600.915
202.0357, 8613.128
202.5178, 8627.679
202.9999, 8645.659
203.4821, 8654.552
203.9642, 8646.863
204.4463, 8627.710
204.9284, 8629.150
205.4105, 8656.084
205.8926, 8691.133
206.3748, 8721.905
206.8569, 8750.559
207.3390, 8764.012
207.8211, 8753.225
208.3032, 8721.163
208.7853, 8712.360
209.2675, 8738.040
209.7496, 8767.422
210.2317, 8761.305
210.7138, 8705.492
211.1959, 8663.993
211.6780, 8656.622
212.1602, 8684.024
212.6423, 8709.040
213.1244, 8734.087
213.6065, 8753.551
214.0886, 8756.271
214.5707, 8732.104
215.0529, 8717.673
215.5350, 8726.088
216.0171, 8760.481
216.4992, 8791.492
216.9813, 8822.636
217.4634, 8846.658
217.9456, 8848.176
218.4277, 8813.309
218.9098, 8786.542
219.3919, 8785.881
219.8740, 8818.772
220.3561, 8843.873
220.8383, 8862.626
221.3204, 8873.286
221.8025, 8869.591
222.2846, 8840.962
222.7667, 8818.852
223.2488, 8817.812
223.7310, 8847.907
224.2131, 8866.022
224.6952, 8867.521
225.1773, 8859.212
225.6594, 8855.099
226.1415, 8854.279
226.6237, 8858.726
227.1058, 8869.363
227.5879, 8886.780
228.0700, 8909.787
228.5521, 8946.835
229.0343, 8986.741
229.5164, 8995.845
229.9985, 8949.122
230.4806, 8909.259
230.9627, 8910.829
231.4448, 8984.921
231.9270, 9029.210
232.4091, 9032.211
232.8912, 9005.061
233.3733, 8983.436
233.8554, 8966.710
234.3375, 8956.336
234.8197, 8953.322
235.3018, 8959.214
235.7839, 8969.903
236.2660, 8988.214
236.7481, 9011.344
237.2302, 9026.966
237.7124, 9029.748
238.1945, 9032.396
238.6766, 9043.543
239.1587, 9072.852
239.6408, 9090.119
240.1229, 9087.636
240.6051, 9070.708
241.0872, 9065.714
241.5693, 9079.611
242.0514, 9096.217
242.5335, 9104.369
243.0156, 9094.825
243.4978, 9095.425
243.9799, 9111.990
244.4620, 9141.153
244.9441, 9164.785
245.4262, 9182.568
245.9083, 9194.428
246.3905, 9199.004
246.8726, 9189.737
247.3547, 9187.268
247.8368, 9198.422
248.3189, 9219.743
248.8010, 9226.377
249.2832, 9211.338
249.7653, 9191.389
250.2474, 9177.470
250.7295, 9169.526
251.2116, 9169.763
251.6937, 9182.070
252.1759, 9204.600
252.6580, 9222.878
253.1401, 9241.167
253.6222, 9249.928
254.1043, 9237.961
254.5864, 9188.051
255.0686, 9158.166
255.5507, 9161.051
256.0328, 9192.638
256.5149, 9217.677
256.9970, 9232.994
257.4792, 9245.634
257.9613, 9261.392
258.4434, 9282.515
258.9255, 9299.040
259.4076, 9306.493
259.8897, 9306.605
260.3719, 9316.955
260.8540, 9342.142
261.3361, 9369.725
261.8182, 9391.321
262.3003, 9409.392
262.7824, 9412.899
263.2646, 9393.163
263.7467, 9354.858
264.2288, 9338.840
264.7109, 9353.035
265.1930, 9375.452
265.6751, 9388.101
266.1573, 9386.419
266.6394, 9391.604
267.1215, 9410.129
267.6036, 9438.908
268.0857, 9458.099
268.5678, 9465.501
269.0500, 9467.835
269.5321, 9470.016
270.0142, 9472.348
270.4963, 9473.908
270.9784, 9474.693
271.4605, 9474.761
271.9427, 9472.132
272.4248, 9463.782
272.9069, 9460.738
273.3890, 9475.926
273.8711, 9514.138
274.3532, 9540.362
274.8354, 9542.875
275.3175, 9530.038
275.7996, 9544.618
276.2817, 9596.039
276.7638, 9644.701
277.2459, 9654.530
277.7281, 9621.110
278.2102, 9597.726
278.6923, 9595.446
279.1744, 9607.664
279.6565, 9607.506
280.1386, 9590.840
280.6208, 9580.136
281.1029, 9601.434
281.5850, 9655.489
282.0671, 9686.086
282.5492, 9678.825
283.0313, 9647.072
283.5135, 9623.609
283.9956, 9607.754
284.4777, 9606.581
284.9598, 9637.058
285.4419, 9695.854
285.9240, 9728.721
286.4062, 9716.951
286.8883, 9686.631
287.3704, 9706.934
287.8525, 9780.214
288.3346, 9851.542
288.8167, 9874.340
289.2989, 9857.038
289.7810, 9846.515
290.2631, 9851.381
290.7452, 9862.753
291.2273, 9863.201
291.7094, 9853.084
292.1916, 9841.684
292.6737, 9831.472
293.1558, 9824.499
293.6379, 9831.916
294.1200, 9861.236
294.6021, 9893.097
295.0843, 9891.753
295.5664, 9861.550
296.0485, 9834.081
296.5306, 9828.642
297.0127, 9841.000
297.4948, 9862.149
297.9770, 9892.967
298.4591, 9927.486
298.9412, 9964.969
299.4233, 10002.42
299.9054, 10026.10
300.3875, 10008.19
300.8697, 9975.707
301.3518, 9977.327
301.8339, 10023.66
302.3160, 10082.05
302.7981, 10121.52
303.2803, 10145.32
303.7624, 10162.32
304.2445, 10166.50
304.7266, 10170.93
305.2087, 10196.29
305.6909, 10247.78
306.1730, 10299.14
306.6551, 10325.70
307.1372, 10335.58
307.6193, 10345.45
308.1014, 10365.32
308.5836, 10387.96
309.0657, 10404.88
309.5478, 10414.61
310.0299, 10429.01
310.5120, 10460.25
310.9941, 10500.46
311.4763, 10538.07
311.9584, 10563.76
312.4405, 10588.07
312.9226, 10616.60
313.4047, 10649.80
313.8868, 10689.46
314.3690, 10744.40
314.8511, 10803.64
315.3332, 10855.19
315.8153, 10890.41
316.2974, 10920.47
316.7795, 10951.52
317.2617, 10983.83
317.7438, 11009.48
318.2259, 11003.13
318.7080, 10999.16
319.1901, 11028.22
319.6722, 11137.17
320.1544, 11242.47
320.6365, 11311.95
321.1186, 11349.30
321.6007, 11393.57
322.0828, 11457.95
322.5649, 11529.89
323.0471, 11600.79
323.5292, 11681.01
324.0113, 11746.85
324.4934, 11788.15
324.9755, 11808.46
325.4576, 11831.79
325.9398, 11870.79
326.4219, 11905.99
326.9040, 11927.61
327.3861, 11911.48
327.8682, 11910.12
328.3503, 11939.29
328.8325, 11986.03
329.3146, 12007.72
329.7967, 11980.49
330.2788, 11951.82
330.7609, 11941.81
331.2430, 11964.68
331.7252, 11977.50
332.2073, 11966.74
332.6894, 11950.20
333.1715, 11967.43
333.6536, 12039.13
334.1357, 12112.88
334.6179, 12169.82
335.1000, 12207.83
335.5821, 12238.03
336.0642, 12256.55
336.5463, 12270.13
337.0284, 12289.51
337.5106, 12316.66
337.9927, 12342.97
338.4748, 12369.39
338.9569, 12396.65
339.4390, 12395.67
339.9211, 12356.75
340.4033, 12308.60
340.8854, 12288.68
341.3675, 12299.76
341.8496, 12312.86
342.3317, 12320.39
342.8138, 12323.76
343.2960, 12329.87
343.7781, 12339.29
344.2602, 12350.56
344.7423, 12361.82
345.2244, 12373.42
345.7065, 12387.54
346.1887, 12403.79
346.6708, 12423.36
347.1529, 12451.50
347.6350, 12487.66
348.1171, 12521.66
348.5992, 12541.79
349.0814, 12552.04
349.5635, 12566.77
350.0456, 12590.91
350.5277, 12615.21
351.0098, 12629.84
351.4919, 12634.26
351.9741, 12627.00
352.4562, 12591.14
352.9383, 12547.81
353.4204, 12532.25
353.9025, 12553.66
354.3846, 12588.40
354.8668, 12624.95
355.3489, 12659.40
355.8310, 12680.97
356.3131, 12677.38
356.7952, 12663.06
357.2773, 12650.12
357.7595, 12639.81
358.2416, 12629.09
358.7237, 12619.29
359.2058, 12607.08
359.6879, 12587.94
360.1700, 12552.33
360.6522, 12515.43
361.1343, 12485.79
361.6164, 12463.58
362.0985, 12439.20
362.5806, 12408.85
363.0627, 12374.49
363.5449, 12337.86
364.0270, 12292.21
364.5091, 12251.66
364.9912, 12218.69
365.4734, 12193.51
365.9555, 12177.85
366.4376, 12182.78
366.9197, 12190.34
367.4018, 12190.63
367.8839, 12152.57
368.3661, 12145.02
368.8482, 12195.63
369.3303, 12280.19
369.8124, 12328.61
370.2945, 12304.99
370.7766, 12283.47
371.2588, 12294.96
371.7409, 12360.47
372.2230, 12401.77
372.7051, 12403.40
373.1872, 12389.15
373.6693, 12399.70
374.1515, 12444.84
374.6336, 12492.07
375.1157, 12535.13
375.5978, 12574.26
376.0799, 12593.08
376.5620, 12587.38
377.0442, 12569.32
377.5263, 12556.89
378.0084, 12553.95
378.4905, 12525.28
378.9726, 12454.36
379.4547, 12353.49
379.9369, 12265.02
380.4190, 12189.02
380.9011, 12131.23
381.3832, 12115.58
381.8653, 12131.25
382.3474, 12100.12
382.8296, 11987.63
383.3117, 11856.10
383.7938, 11820.33
384.2759, 11871.62
384.7580, 11931.70
385.2401, 11948.37
385.7223, 11941.33
386.2044, 11951.34
386.6865, 11986.21
387.1686, 12021.35
387.6507, 12029.89
388.1328, 12019.42
388.6150, 12009.12
389.0971, 12006.00
389.5792, 12008.28
390.0613, 12020.29
390.5434, 12042.77
391.0255, 12053.88
391.5077, 12022.29
391.9898, 11978.91
392.4719, 11959.36
392.9540, 11990.61
393.4361, 12034.96
393.9182, 12087.88
394.4004, 12145.52
394.8825, 12182.20
395.3646, 12163.99
395.8467, 12138.48
396.3288, 12136.51
396.8109, 12189.06
397.2931, 12228.12
397.7752, 12242.66
398.2573, 12236.34
398.7394, 12218.92
399.2215, 12188.68
399.7036, 12149.12
400.1858, 12096.40
400.6679, 12018.20
401.1500, 11968.95
401.6321, 11972.25
402.1142, 11989.65
402.5963, 11967.71
403.0785, 11879.66
403.5606, 11807.13
404.0427, 11773.69
404.5248, 11777.39
405.0069, 11765.91
405.4890, 11731.78
405.9712, 11699.07
406.4533, 11693.37
406.9354, 11718.59
407.4175, 11731.12
407.8996, 11720.43
408.3817, 11696.26
408.8639, 11683.13
409.3460, 11681.14
409.8281, 11685.61
410.3102, 11698.85
410.7923, 11717.32
411.2744, 11721.80
411.7566, 11706.54
412.2387, 11693.99
412.7208, 11728.87
413.2029, 11793.96
413.6850, 11833.05
414.1671, 11792.21
414.6493, 11723.33
415.1314, 11692.64
415.6135, 11701.32
416.0956, 11723.57
416.5777, 11749.13
417.0598, 11773.99
417.5420, 11793.19
418.0241, 11801.28
418.5062, 11807.38
418.9883, 11818.75
419.4704, 11833.29
419.9525, 11842.22
420.4347, 11835.95
420.9168, 11827.72
421.3989, 11827.09
421.8810, 11843.41
422.3631, 11850.58
422.8452, 11830.06
423.3274, 11799.65
423.8095, 11787.79
424.2916, 11819.56
424.7737, 11848.94
425.2558, 11864.19
425.7379, 11863.44
426.2201, 11861.65
426.7022, 11851.33
427.1843, 11846.11
427.6664, 11859.84
428.1486, 11905.48
428.6307, 11941.08
429.1128, 11961.88
429.5949, 11968.61
430.0770, 11960.56
430.5591, 11931.53
431.0413, 11907.08
431.5234, 11906.57
432.0055, 11930.63
432.4876, 11943.80
432.9697, 11941.65
433.4518, 11934.44
433.9340, 11938.89
434.4161, 11954.01
434.8982, 11967.87
435.3803, 11975.51
435.8624, 11978.49
436.3445, 11977.18
436.8267, 11971.52
437.3088, 11971.53
437.7909, 11992.31
438.2730, 12023.58
438.7551, 12046.32
439.2372, 12050.79
439.7194, 12051.61
440.2015, 12058.66
440.6836, 12071.95
441.1657, 12091.51
441.6478, 12126.85
442.1299, 12162.06
442.6121, 12186.94
443.0942, 12200.29
443.5763, 12202.81
444.0584, 12187.04
444.5405, 12163.19
445.0226, 12143.91
445.5048, 12131.00
445.9869, 12124.53
446.4690, 12123.42
446.9511, 12127.73
447.4332, 12143.96
447.9153, 12189.49
448.3975, 12232.04
448.8796, 12250.72
449.3617, 12222.68
449.8438, 12218.65
450.3259, 12257.03
450.8080, 12313.75
451.2902, 12324.92
451.7723, 12273.77
452.2544, 12227.52
452.7365, 12218.85
453.2186, 12246.61
453.7007, 12254.43
454.1829, 12237.25
454.6650, 12218.86
455.1471, 12230.60
455.6292, 12268.97
456.1113, 12303.17
456.5934, 12326.95
457.0756, 12340.54
457.5577, 12342.18
458.0398, 12332.86
458.5219, 12319.33
459.0040, 12293.74
459.4861, 12271.07
459.9683, 12278.02
460.4504, 12323.68
460.9325, 12373.60
461.4146, 12411.12
461.8967, 12434.02
462.3788, 12437.92
462.8610, 12392.77
463.3431, 12352.94
463.8252, 12353.44
464.3073, 12392.77
464.7894, 12423.91
465.2715, 12424.49
465.7537, 12417.43
466.2358, 12417.49
466.7179, 12428.54
467.2000, 12444.01
467.6821, 12473.35
468.1642, 12505.42
468.6464, 12515.39
469.1285, 12481.57
469.6106, 12457.57
470.0927, 12464.32
470.5748, 12505.94
471.0569, 12529.74
471.5391, 12529.79
472.0212, 12522.55
472.5033, 12526.77
472.9854, 12544.02
473.4675, 12551.77
473.9496, 12544.11
474.4318, 12526.70
474.9139, 12511.93
475.3960, 12500.07
475.8781, 12489.56
476.3602, 12474.31
476.8423, 12460.97
477.3245, 12470.82
477.8066, 12508.82
478.2887, 12543.61
478.7708, 12534.10
479.2529, 12501.62
479.7350, 12485.31
480.2172, 12508.98
480.6993, 12545.16
481.1814, 12581.32
481.6635, 12615.64
482.1456, 12640.58
482.6277, 12646.53
483.1099, 12645.27
483.5920, 12642.63
484.0741, 12634.87
484.5562, 12635.38
485.0383, 12654.25
485.5204, 12680.40
486.0026, 12697.80
486.4847, 12704.49
486.9668, 12704.54
487.4489, 12693.96
487.9310, 12674.54
488.4131, 12674.85
488.8953, 12710.21
489.3774, 12740.21
489.8595, 12733.83
490.3416, 12684.47
490.8238, 12642.64
491.3059, 12608.30
491.7880, 12588.77
492.2701, 12607.32
492.7522, 12661.96
493.2343, 12706.91
493.7165, 12719.79
494.1986, 12710.27
494.6807, 12697.65
495.1628, 12681.79
495.6449, 12670.91
496.1270, 12673.57
496.6092, 12684.51
497.0913, 12696.26
497.5734, 12707.39
498.0555, 12718.68
498.5376, 12732.67
499.0197, 12747.47
499.5019, 12759.10
499.9840, 12765.21
500.4661, 12768.80
500.9482, 12771.40
501.4303, 12773.19
501.9124, 12772.78
502.3946, 12757.70
502.8767, 12747.66
503.3588, 12757.64
503.8409, 12806.60
504.3230, 12845.97
504.8051, 12873.67
505.2873, 12890.20
505.7694, 12893.61
506.2515, 12876.57
506.7336, 12865.24
507.2157, 12872.27
507.6978, 12896.69
508.1800, 12913.13
508.6621, 12921.12
509.1442, 12924.27
509.6263, 12924.29
510.1084, 12922.09
510.5905, 12921.88
511.0727, 12924.77
511.5548, 12930.03
512.0369, 12936.59
512.5190, 12944.67
513.0011, 12954.87
513.4832, 12968.46
513.9653, 12983.48
514.4474, 12997.03
514.9296, 13008.80
515.4117, 13023.62
515.8938, 13053.93
516.3759, 13083.13
516.8580, 13095.71
517.3401, 13062.44
517.8223, 13045.24
518.3044, 13072.12
518.7865, 13124.53
519.2687, 13154.38
519.7508, 13155.83
520.2329, 13139.79
520.7150, 13099.87
521.1971, 13031.42
521.6793, 13000.95
522.1614, 13018.41
522.6435, 13057.37
523.1256, 13101.69
523.6077, 13153.12
524.0898, 13186.69
524.5720, 13195.59
525.0541, 13192.00
525.5362, 13200.73
526.0183, 13219.71
526.5004, 13231.41
526.9825, 13219.12
527.4647, 13196.76
527.9468, 13187.95
528.4289, 13192.54
528.9110, 13201.91
529.3931, 13218.19
529.8752, 13232.29
530.3574, 13232.00
530.8395, 13206.68
531.3216, 13183.57
531.8037, 13175.80
532.2858, 13178.53
532.7679, 13182.92
533.2501, 13191.99
533.7322, 13197.76
534.2143, 13192.96
534.6964, 13177.27
535.1785, 13178.44
535.6606, 13206.15
536.1428, 13239.83
536.6249, 13268.49
537.1070, 13291.95
537.5891, 13311.27
538.0712, 13328.89
538.5533, 13338.91
539.0355, 13322.88
539.5176, 13279.90
539.9997, 13257.03
540.4818, 13280.25
540.9639, 13327.74
541.4460, 13340.14
541.9282, 13321.05
542.4103, 13312.30
542.8924, 13365.68
543.3745, 13438.65
543.8566, 13469.58
544.3387, 13444.15
544.8209, 13410.77
545.3030, 13392.24
545.7851, 13387.57
546.2672, 13395.56
546.7493, 13438.37
547.2314, 13470.34
547.7136, 13470.96
548.1957, 13446.56
548.6778, 13430.23
549.1599, 13426.24
549.6420, 13429.22
550.1241, 13437.90
550.6063, 13452.99
551.0884, 13471.29
551.5705, 13494.69
552.0526, 13518.45
552.5347, 13540.54
553.0168, 13561.78
553.4990, 13566.36
553.9811, 13545.03
554.4632, 13515.38
554.9453, 13515.72
555.4274, 13542.27
555.9095, 13568.88
556.3917, 13582.32
556.8738, 13587.54
557.3559, 13592.16
557.8380, 13596.27
558.3201, 13595.23
558.8022, 13574.47
559.2844, 13552.93
559.7665, 13549.94
560.2486, 13578.88
560.7307, 13608.09
561.2128, 13625.81
561.6949, 13637.67
562.1771, 13653.09
562.6592, 13678.08
563.1413, 13700.20
563.6234, 13713.98
564.1055, 13720.86
564.5876, 13740.70
565.0698, 13784.55
565.5519, 13819.06
566.0340, 13817.24
566.5161, 13775.97
566.9982, 13762.35
567.4803, 13782.60
567.9625, 13813.04
568.4446, 13824.75
568.9267, 13821.33
569.4088, 13817.82
569.8909, 13820.76
570.3730, 13822.27
570.8552, 13802.62
571.3373, 13771.62
571.8194, 13759.73
572.3015, 13814.03
572.7836, 13869.70
573.2657, 13870.23
573.7479, 13808.51
574.2300, 13772.14
574.7121, 13809.63
575.1942, 13867.93
575.6763, 13908.87
576.1584, 13919.15
576.6406, 13928.69
577.1227, 13937.57
577.6048, 13946.13
578.0869, 13955.76
578.5690, 13968.63
579.0511, 13975.19
579.5333, 13972.43
580.0154, 13961.52
580.4975, 13942.73
580.9796, 13915.25
581.4617, 13896.29
581.9438, 13895.18
582.4260, 13911.23
582.9081, 13948.77
583.3902, 14010.35
583.8723, 14069.77
584.3544, 14092.50
584.8365, 14103.61
585.3187, 14139.30
585.8008, 14250.34
586.2829, 14333.44
586.7650, 14334.47
587.2471, 14277.90
587.7292, 14218.92
588.2114, 14139.07
588.6935, 14089.13
589.1756, 14094.39
589.6577, 14155.64
590.1398, 14188.12
590.6219, 14181.34
591.1041, 14165.36
591.5862, 14155.70
592.0683, 14151.86
592.5504, 14165.30
593.0325, 14197.91
593.5146, 14244.04
593.9968, 14308.50
594.4789, 14382.97
594.9610, 14432.17
595.4431, 14436.88
595.9252, 14422.67
596.4073, 14420.85
596.8895, 14425.23
597.3716, 14416.87
597.8537, 14359.00
598.3358, 14307.25
598.8179, 14301.35
599.3000, 14345.42
599.7822, 14387.23
600.2643, 14409.90
600.7464, 14429.52
601.2285, 14457.17
601.7106, 14503.17
602.1927, 14534.38
602.6749, 14541.07
603.1570, 14542.91
603.6391, 14574.78
604.1212, 14643.54
604.6033, 14691.50
605.0854, 14701.29
605.5676, 14684.87
606.0497, 14659.08
606.5318, 14626.99
607.0139, 14616.77
607.4960, 14665.86
607.9781, 14735.64
608.4603, 14777.70
608.9424, 14789.56
609.4245, 14788.23
609.9066, 14765.30
610.3887, 14744.27
610.8708, 14747.54
611.3530, 14796.34
611.8351, 14836.07
612.3172, 14845.29
612.7993, 14844.42
613.2814, 14861.90
613.7635, 14914.96
614.2457, 14953.99
614.7278, 14967.41
615.2099, 14962.21
615.6920, 14959.62
616.1741, 14959.15
616.6563, 14965.70
617.1384, 14982.31
617.6205, 15007.85
618.1026, 15044.89
618.5847, 15092.99
619.0668, 15131.48
619.5490, 15135.32
620.0311, 15121.52
620.5132, 15110.96
620.9953, 15105.54
621.4774, 15109.84
621.9595, 15130.03
622.4417, 15159.87
622.9238, 15191.52
623.4059, 15235.86
623.8880, 15266.66
624.3701, 15269.74
624.8522, 15256.86
625.3344, 15264.19
625.8165, 15308.99
626.2986, 15335.11
626.7807, 15312.69
627.2628, 15250.36
627.7449, 15231.08
628.2271, 15259.36
628.7092, 15289.07
629.1913, 15277.87
629.6734, 15241.77
630.1555, 15220.27
630.6376, 15218.37
631.1198, 15224.65
631.6019, 15239.18
632.0840, 15252.96
632.5661, 15253.16
633.0482, 15228.83
633.5303, 15200.89
634.0125, 15175.83
634.4946, 15152.01
634.9767, 15126.34
635.4588, 15100.29
635.9409, 15069.43
636.4230, 15031.51
636.9052, 14987.66
637.3873, 14943.04
637.8694, 14898.93
638.3515, 14848.87
638.8336, 14777.33
639.3157, 14691.59
639.7979, 14658.75
640.2800, 14684.90
640.7621, 14707.18
641.2442, 14648.52
641.7263, 14552.48
642.2084, 14492.86
642.6906, 14495.30
643.1727, 14508.98
643.6548, 14507.60
644.1370, 14496.32
644.6191, 14482.38
645.1012, 14460.31
645.5833, 14443.66
646.0654, 14435.50
646.5475, 14434.31
647.0297, 14436.67
647.5118, 14443.23
647.9939, 14450.45
648.4760, 14457.22
648.9581, 14463.04
649.4402, 14464.48
649.9224, 14460.85
650.4045, 14457.92
650.8866, 14464.62
651.3687, 14474.89
651.8508, 14476.10
652.3329, 14467.67
652.8151, 14446.94
653.2972, 14391.55
653.7793, 14331.29
654.2614, 14301.80
654.7435, 14322.95
655.2256, 14357.99
655.7078, 14415.58
656.1899, 14475.50
656.6720, 14502.93
657.1541, 14479.13
657.6362, 14450.45
658.1183, 14418.74
658.6005, 14388.97
659.0826, 14386.82
659.5647, 14417.76
660.0468, 14440.81
660.5289, 14426.71
661.0110, 14390.62
661.4932, 14388.59
661.9753, 14419.30
662.4574, 14445.56
662.9395, 14427.73
663.4216, 14396.71
663.9037, 14392.79
664.3859, 14428.73
664.8680, 14450.15
665.3501, 14408.52
665.8322, 14353.73
666.3143, 14331.88
666.7964, 14371.46
667.2786, 14415.63
667.7607, 14468.94
668.2428, 14520.28
668.7249, 14551.71
669.2070, 14562.17
669.6891, 14552.63
670.1713, 14515.93
670.6534, 14466.17
671.1355, 14434.96
671.6176, 14422.20
672.0997, 14425.26
672.5818, 14462.50
673.0640, 14503.77
673.5461, 14513.40
674.0282, 14493.90
674.5103, 14470.30
674.9924, 14439.13
675.4745, 14421.12
675.9567, 14433.92
676.4388, 14491.49
676.9209, 14534.48
677.4030, 14553.98
677.8851, 14564.52
678.3672, 14575.00
678.8494, 14582.63
679.3315, 14602.73
679.8136, 14639.93
680.2957, 14679.63
680.7778, 14700.05
681.2599, 14704.30
681.7421, 14709.13
682.2242, 14718.20
682.7063, 14731.27
683.1884, 14752.77
683.6705, 14778.24
684.1526, 14796.93
684.6348, 14794.28
685.1169, 14794.64
685.5990, 14815.63
686.0811, 14853.77
686.5632, 14873.65
687.0453, 14852.96
687.5275, 14842.92
688.0096, 14869.76
688.4917, 14934.16
688.9738, 14959.43
689.4559, 14936.35
689.9380, 14917.07
690.4202, 14957.31
690.9023, 15035.14
691.3844, 15073.44
691.8665, 15062.73
692.3486, 15048.03
692.8307, 15065.23
693.3129, 15102.21
693.7950, 15147.43
694.2771, 15210.42
694.7592, 15256.01
695.2413, 15267.48
695.7234, 15257.10
696.2056, 15241.75
696.6877, 15219.60
697.1698, 15197.81
697.6519, 15174.69
698.1340, 15154.96
698.6161, 15150.77
699.0983, 15162.69
699.5804, 15184.06
700.0625, 15220.37
700.5446, 15258.60
701.0267, 15262.91
701.5089, 15240.74
701.9910, 15230.89
702.4731, 15271.70
702.9552, 15322.31
703.4373, 15351.25
703.9194, 15356.91
704.4016, 15359.20
704.8837, 15353.56
705.3658, 15354.45
705.8479, 15370.96
706.3300, 15407.69
706.8121, 15438.79
707.2943, 15464.77
707.7764, 15484.59
708.2585, 15501.09
708.7406, 15513.29
709.2227, 15497.14
709.7048, 15441.23
710.1870, 15397.62
710.6691, 15443.79
711.1512, 15538.19
711.6333, 15603.61
712.1154, 15604.07
712.5975, 15596.23
713.0797, 15603.18
713.5618, 15622.04
714.0439, 15648.03
714.5260, 15685.01
715.0081, 15723.32
715.4902, 15766.51
715.9724, 15808.55
716.4545, 15828.53
716.9366, 15820.51
717.4187, 15822.49
717.9008, 15855.18
718.3829, 15904.35
718.8651, 15929.41
719.3472, 15933.74
719.8293, 15938.83
720.3114, 15961.98
720.7935, 15989.41
721.2756, 16008.80
721.7578, 16019.38
722.2399, 16028.91
722.7220, 16036.31
723.2041, 16046.11
723.6862, 16056.30
724.1683, 16059.07
724.6505, 16105.00
725.1326, 16223.94
725.6147, 16332.68
726.0968, 16345.17
726.5789, 16268.96
727.0610, 16247.96
727.5432, 16300.82
728.0253, 16366.19
728.5074, 16367.15
728.9895, 16337.07
729.4716, 16335.47
729.9537, 16388.44
730.4359, 16446.09
730.9180, 16481.78
731.4001, 16506.74
731.8822, 16536.32
732.3643, 16582.60
732.8464, 16620.26
733.3286, 16644.66
733.8107, 16660.10
734.2928, 16674.49
734.7749, 16687.75
735.2570, 16698.60
735.7391, 16703.27
736.2213, 16709.12
736.7034, 16737.42
737.1855, 16782.13
737.6676, 16818.41
738.1497, 16819.49
738.6318, 16819.50
739.1140, 16845.82
739.5961, 16895.27
740.0782, 16945.83
740.5603, 17002.98
741.0424, 17048.14
741.5245, 17067.01
742.0067, 17060.26
742.4888, 17090.67
742.9709, 17170.75
743.4530, 17246.87
743.9351, 17272.16
744.4172, 17260.46
744.8994, 17292.98
745.3815, 17370.71
745.8636, 17445.81
746.3457, 17472.03
746.8278, 17478.33
747.3099, 17496.59
747.7921, 17533.93
748.2742, 17570.70
748.7563, 17627.12
749.2384, 17664.04
749.7205, 17647.22
750.2026, 17540.28
750.6848, 17462.48
751.1669, 17406.58
751.6490, 17394.42
752.1311, 17474.47
752.6132, 17635.71
753.0953, 17767.46
753.5775, 17846.36
754.0596, 17904.41
754.5417, 17974.48
755.0238, 18048.22
755.5059, 18110.29
755.9880, 18152.64
756.4702, 18185.68
756.9523, 18203.94
757.4344, 18217.36
757.9165, 18246.44
758.3986, 18310.80
758.8807, 18355.69
759.3629, 18365.02
759.8450, 18358.33
760.3271, 18385.26
760.8092, 18446.16
761.2913, 18506.54
761.7734, 18549.03
762.2556, 18591.79
762.7377, 18671.16
763.2198, 18775.38
763.7019, 18867.39
764.1840, 18918.82
764.6661, 18963.14
765.1483, 19010.05
765.6304, 19061.55
766.1125, 19128.82
766.5947, 19226.80
767.0768, 19315.22
767.5589, 19376.09
768.0410, 19414.09
768.5231, 19454.82
769.0052, 19497.15
769.4874, 19557.08
769.9695, 19666.36
770.4516, 19790.85
770.9337, 19860.82
771.4158, 19880.94
771.8979, 19915.23
772.3801, 20022.62
772.8622, 20137.85
773.3443, 20215.31
773.8264, 20244.32
774.3085, 20293.94
774.7906, 20379.49
775.2728, 20469.59
775.7549, 20547.84
776.2370, 20614.12
776.7191, 20672.72
777.2012, 20720.78
777.6833, 20784.85
778.1655, 20904.77
778.6476, 21052.89
779.1297, 21175.20
779.6118, 21265.19
780.0939, 21345.05
780.5760, 21405.91
781.0582, 21475.01
781.5403, 21577.61
782.0224, 21744.54
782.5045, 21884.36
782.9866, 21987.70
783.4688, 22073.59
783.9509, 22155.68
784.4330, 22233.90
784.9151, 22326.69
785.3972, 22436.73
785.8793, 22555.55
786.3615, 22671.75
786.8436, 22788.87
787.3257, 22915.92
787.8078, 23057.89
788.2899, 23198.49
788.7720, 23323.70
789.2542, 23445.05
789.7363, 23578.43
790.2184, 23723.06
790.7005, 23881.96
791.1826, 24061.08
791.6647, 24245.59
792.1469, 24408.09
792.6290, 24550.51
793.1111, 24698.04
793.5932, 24860.40
794.0753, 25022.00
794.5574, 25167.26
795.0396, 25302.32
795.5217, 25438.84
796.0038, 25582.73
796.4859, 25729.61
796.9680, 25856.92
797.4501, 25993.86
797.9323, 26194.53
798.4144, 26501.19
798.8965, 26768.01
799.3786, 26959.51
799.8607, 27113.66
800.3428, 27307.87
800.8250, 27537.16
801.3071, 27764.48
801.7892, 27961.39
802.2713, 28171.09
802.7534, 28456.20
803.2355, 28787.34
803.7177, 29106.60
804.1998, 29368.19
804.6819, 29643.66
805.1640, 29955.79
805.6461, 30295.26
806.1282, 30642.57
806.6104, 30994.06
807.0925, 31369.94
807.5746, 31786.73
808.0567, 32217.99
808.5388, 32585.80
809.0209, 32909.95
809.5031, 33271.30
809.9852, 33670.59
810.4673, 34160.35
810.9494, 34882.52
811.4315, 35729.76
811.9136, 36419.29
812.3958, 36683.34
812.8779, 37011.70
813.3600, 37522.64
813.8421, 38164.72
814.3242, 38783.56
814.8063, 39372.15
815.2885, 39995.61
815.7706, 40687.34
816.2527, 41421.27
816.7348, 42127.31
817.2169, 42820.11
817.6990, 43560.37
818.1812, 44396.45
818.6633, 45273.36
819.1454, 46186.68
819.6275, 47118.67
820.1096, 47982.64
820.5917, 48701.61
821.0739, 49466.63
821.5560, 50346.37
822.0381, 51300.71
822.5202, 52230.61
823.0023, 53139.33
823.4844, 54016.27
823.9666, 54845.18
824.4487, 55661.91
824.9308, 56511.55
825.4129, 57392.61
825.8950, 58274.72
826.3771, 59171.81
826.8593, 60048.95
827.3414, 60914.80
827.8235, 61753.66
828.3056, 62528.93
828.7877, 63211.39
829.2698, 63888.17
829.7520, 64596.49
830.2341, 65305.95
830.7162, 65907.96
831.1983, 66415.81
831.6804, 66906.02
832.1625, 67413.69
832.6447, 67910.95
833.1268, 68406.73
833.6089, 68873.98
834.0910, 69230.68
834.5731, 69419.98
835.0552, 69533.53
835.5374, 69601.22
836.0195, 69601.89
836.5016, 69459.37
836.9837, 69172.16
837.4658, 68774.58
837.9479, 68285.55
838.4301, 67681.96
838.9122, 66905.91
839.3943, 65977.79
839.8764, 64975.21
840.3585, 63896.22
840.8406, 62776.68
841.3228, 61641.78
841.8049, 60482.12
842.2870, 59267.59
842.7691, 57966.43
843.2512, 56685.46
843.7333, 55433.40
844.2155, 54236.79
844.6976, 53146.62
845.1797, 52149.23
845.6618, 51177.58
846.1439, 50198.71
846.6260, 49238.30
847.1082, 48323.02
847.5903, 47445.18
848.0724, 46566.52
848.5545, 45653.82
849.0366, 44770.99
849.5187, 43905.27
850.0009, 43086.49
850.4830, 42421.59
850.9651, 41912.42
851.4472, 41391.61
851.9293, 40799.13
852.4114, 40187.47
852.8936, 39627.97
853.3757, 39108.40
853.8578, 38590.65
854.3399, 38055.11
854.8220, 37521.06
855.3041, 36990.45
855.7863, 36474.64
856.2684, 35998.55
856.7505, 35568.79
857.2326, 35173.23
857.7147, 34817.32
858.1968, 34478.75
858.6790, 34102.05
859.1611, 33703.61
859.6432, 33342.20
860.1253, 33047.48
860.6074, 32757.62
861.0895, 32411.38
861.5717, 32044.77
862.0538, 31711.29
862.5359, 31422.44
863.0180, 31165.26
863.5001, 30948.52
863.9822, 30748.29
864.4644, 30530.96
864.9465, 30299.06
865.4286, 30059.46
865.9107, 29811.59
866.3928, 29570.04
866.8749, 29342.07
867.3571, 29128.21
867.8392, 28924.15
868.3213, 28727.47
868.8034, 28550.16
869.2855, 28412.88
869.7676, 28281.85
870.2498, 28127.64
870.7319, 27942.56
871.2140, 27783.65
871.6961, 27658.25
872.1782, 27539.69
872.6603, 27386.16
873.1425, 27221.73
873.6246, 27098.16
874.1067, 27027.76
874.5888, 26953.33
875.0709, 26830.68
875.5530, 26702.19
876.0352, 26602.74
876.5173, 26540.37
876.9994, 26466.61
877.4815, 26376.92
877.9636, 26287.73
878.4457, 26219.52
878.9279, 26161.89
879.4100, 26068.75
879.8921, 25940.58
880.3742, 25813.99
880.8563, 25702.34
881.3384, 25611.25
881.8206, 25561.52
882.3027, 25556.09
882.7848, 25499.25
883.2669, 25340.04
883.7490, 25209.23
884.2311, 25184.31
884.7133, 25238.34
885.1954, 25198.60
885.6775, 25071.20
886.1596, 24940.87
886.6417, 24861.97
887.1238, 24802.09
887.6060, 24729.59
888.0881, 24647.92
888.5702, 24574.94
889.0523, 24513.28
889.5344, 24466.88
890.0166, 24444.55
890.4987, 24435.37
890.9808, 24390.72
891.4630, 24309.11
891.9451, 24260.09
892.4272, 24293.19
892.9093, 24338.68
893.3914, 24298.90
893.8735, 24200.30
894.3557, 24103.17
894.8378, 24003.67
895.3199, 23938.33
895.8020, 23955.41
896.2841, 23995.22
896.7662, 23954.14
897.2484, 23815.39
897.7305, 23710.85
898.2126, 23671.18
898.6947, 23649.62
899.1768, 23574.94
899.6589, 23473.21
900.1411, 23395.31
900.6232, 23368.87
901.1053, 23336.31
901.5874, 23251.43
902.0695, 23163.89
902.5516, 23125.91
903.0338, 23159.71
903.5159, 23167.02
903.9980, 23138.57
904.4801, 23105.92
904.9622, 23111.98
905.4443, 23134.66
905.9265, 23117.80
906.4086, 23054.10
906.8907, 22982.74
907.3728, 22903.91
907.8549, 22843.54
908.3370, 22834.04
908.8192, 22885.75
909.3013, 22884.99
909.7834, 22814.72
910.2655, 22740.96
910.7476, 22706.81
911.2297, 22700.47
911.7119, 22678.08
912.1940, 22642.87
912.6761, 22618.31
913.1582, 22640.40
913.6403, 22656.77
914.1224, 22626.74
914.6046, 22558.03
915.0867, 22512.93
915.5688, 22506.22
916.0509, 22494.96
916.5330, 22463.77
917.0151, 22424.66
917.4973, 22410.05
917.9794, 22415.27
918.4615, 22417.64
918.9436, 22398.03
919.4257, 22386.43
919.9078, 22426.21
920.3900, 22480.92
920.8721, 22482.35
921.3542, 22367.94
921.8363, 22305.97
922.3184, 22323.49
922.8005, 22374.17
923.2827, 22391.54
923.7648, 22382.78
924.2469, 22384.83
924.7290, 22408.03
925.2111, 22419.50
925.6932, 22382.14
926.1754, 22327.52
926.6575, 22283.81
927.1396, 22251.63
927.6217, 22250.39
928.1038, 22301.07
928.5859, 22346.71
929.0681, 22341.39
929.5502, 22293.86
930.0323, 22260.22
930.5144, 22240.90
930.9965, 22220.64
931.4786, 22177.24
931.9608, 22138.05
932.4429, 22130.63
932.9250, 22153.26
933.4071, 22162.03
933.8892, 22154.98
934.3713, 22129.73
934.8535, 22070.96
935.3356, 22002.06
935.8177, 22012.47
936.2998, 22086.28
936.7819, 22134.20
937.2640, 22093.77
937.7462, 22039.15
938.2283, 22019.55
938.7104, 22024.20
939.1925, 22033.73
939.6746, 22060.63
940.1567, 22062.65
940.6389, 22026.54
941.1210, 21979.26
941.6031, 21964.02
942.0852, 21972.60
942.5673, 21967.49
943.0494, 21940.27
943.5316, 21909.61
944.0137, 21870.99
944.4958, 21847.38
944.9779, 21871.31
945.4600, 21977.98
945.9421, 22014.79
946.4243, 21959.91
946.9064, 21883.93
947.3885, 21822.65
947.8706, 21779.46
948.3527, 21779.11
948.8348, 21817.41
949.3170, 21847.82
949.7991, 21822.56
950.2812, 21797.30
950.7633, 21819.36
951.2454, 21878.84
951.7275, 21895.42
952.2097, 21848.85
952.6918, 21807.30
953.1739, 21788.24
953.6560, 21788.22
954.1381, 21809.97
954.6202, 21845.90
955.1024, 21871.16
955.5845, 21870.53
956.0666, 21867.94
956.5487, 21885.47
957.0308, 21904.20
957.5129, 21896.54
957.9951, 21845.56
958.4772, 21821.35
958.9593, 21834.35
959.4414, 21852.07
959.9235, 21837.17
960.4056, 21801.40
960.8878, 21761.47
961.3699, 21718.68
961.8520, 21704.69
962.3341, 21756.48
962.8162, 21824.17
963.2983, 21889.14
963.7805, 21950.47
964.2626, 21956.79
964.7447, 21901.77
965.2268, 21836.11
965.7089, 21775.00
966.1910, 21728.15
966.6732, 21721.34
967.1553, 21744.54
967.6374, 21768.37
968.1195, 21777.99
968.6016, 21789.60
969.0837, 21809.89
969.5659, 21833.46
970.0480, 21851.68
970.5301, 21864.61
971.0122, 21873.94
971.4943, 21880.48
971.9764, 21882.07
972.4586, 21873.03
972.9407, 21859.19
973.4228, 21848.63
973.9049, 21843.76
974.3870, 21837.40
974.8691, 21814.05
975.3513, 21805.35
975.8334, 21841.72
976.3155, 21918.03
976.7976, 21938.80
977.2797, 21905.78
977.7618, 21872.68
978.2440, 21875.46
978.7261, 21892.80
979.2082, 21919.35
979.6903, 21947.09
980.1724, 21940.98
980.6545, 21866.17
981.1367, 21814.77
981.6188, 21811.78
982.1009, 21833.78
982.5830, 21827.76
983.0651, 21803.11
983.5472, 21805.37
984.0294, 21859.74
984.5115, 21902.47
984.9936, 21866.81
985.4757, 21811.49
985.9578, 21804.18
986.4399, 21872.71
986.9221, 21899.79
987.4042, 21875.95
987.8863, 21842.88
988.3684, 21833.46
988.8505, 21838.91
989.3326, 21842.36
989.8148, 21842.74
990.2969, 21836.90
990.7790, 21811.63
991.2611, 21792.30
991.7432, 21793.40
992.2253, 21808.76
992.7075, 21817.95
993.1896, 21819.07
993.6717, 21834.93
994.1538, 21878.29
994.6359, 21925.39
995.1180, 21946.72
995.6002, 21949.89
996.0823, 21945.13
996.5644, 21925.18
997.0465, 21918.82
997.5286, 21942.60
998.0107, 21965.96
998.4929, 21962.06
998.9750, 21932.21
999.4571, 21898.11
999.9392, 21860.85
1000.421, 21846.51
1000.903, 21895.99
1001.386, 21958.97
1001.868, 22000.96
1002.350, 22019.25
1002.832, 22011.77
1003.314, 21963.12
1003.796, 21925.82
1004.278, 21913.63
1004.760, 21922.02
1005.242, 21955.06
1005.725, 22001.46
1006.207, 22025.16
1006.689, 22007.42
1007.171, 21984.41
1007.653, 21956.51
1008.135, 21944.62
1008.617, 21973.25
1009.099, 22057.61
1009.582, 22110.16
1010.064, 22128.44
1010.546, 22127.79
1011.028, 22107.86
1011.510, 22083.31
1011.992, 22075.05
1012.474, 22082.17
1012.956, 22093.75
1013.439, 22123.37
1013.921, 22134.15
1014.403, 22110.13
1014.885, 22066.48
1015.367, 22040.38
1015.849, 22030.77
1016.331, 22025.42
1016.813, 22018.23
1017.295, 22023.63
1017.778, 22079.85
1018.260, 22141.73
1018.742, 22150.76
1019.224, 22062.75
1019.706, 22045.25
1020.188, 22122.04
1020.670, 22204.90
1021.152, 22225.22
1021.635, 22205.43
1022.117, 22193.08
1022.599, 22191.01
1023.081, 22210.38
1023.563, 22291.36
1024.045, 22355.07
1024.527, 22363.73
1025.009, 22336.71
1025.491, 22308.28
1025.974, 22277.16
1026.456, 22263.97
1026.938, 22275.13
1027.420, 22296.02
1027.902, 22313.26
1028.384, 22330.64
1028.866, 22355.31
1029.348, 22394.98
1029.830, 22416.47
1030.313, 22408.73
1030.795, 22401.73
1031.277, 22421.02
1031.759, 22454.48
1032.241, 22441.28
1032.723, 22391.38
1033.205, 22355.94
1033.687, 22364.88
1034.170, 22391.45
1034.652, 22438.74
1035.134, 22488.54
1035.616, 22503.61
1036.098, 22472.85
1036.580, 22462.32
1037.062, 22481.00
1037.544, 22511.37
1038.026, 22552.15
1038.509, 22583.83
1038.991, 22568.23
1039.473, 22496.04
1039.955, 22457.55
1040.437, 22489.50
1040.919, 22535.86
1041.401, 22588.96
1041.883, 22636.35
1042.365, 22606.49
1042.848, 22516.75
1043.330, 22461.26
1043.812, 22514.83
1044.294, 22561.75
1044.776, 22502.84
1045.258, 22409.95
1045.740, 22384.44
1046.222, 22452.44
1046.705, 22500.36
1047.187, 22523.29
1047.669, 22532.18
1048.151, 22525.87
1048.633, 22517.34
1049.115, 22521.63
1049.597, 22540.76
1050.079, 22580.44
1050.562, 22685.59
1051.044, 22755.71
1051.526, 22757.48
1052.008, 22716.53
1052.490, 22685.15
1052.972, 22663.63
1053.454, 22658.13
1053.936, 22671.77
1054.418, 22693.65
1054.901, 22718.21
1055.383, 22745.56
1055.865, 22781.49
1056.347, 22832.25
1056.829, 22840.27
1057.311, 22799.89
1057.793, 22750.93
1058.275, 22703.57
1058.757, 22672.69
1059.240, 22698.85
1059.722, 22760.91
1060.204, 22797.60
1060.686, 22761.14
1061.168, 22740.51
1061.650, 22756.57
1062.132, 22779.66
1062.614, 22763.76
1063.097, 22718.54
1063.579, 22681.05
1064.061, 22655.02
1064.543, 22656.70
1065.025, 22744.19
1065.507, 22819.36
1065.989, 22798.14
1066.471, 22700.25
1066.953, 22664.72
1067.436, 22697.16
1067.918, 22729.46
1068.400, 22728.90
1068.882, 22732.13
1069.364, 22801.23
1069.846, 22897.50
1070.328, 22963.41
1070.810, 22974.07
1071.292, 22971.15
1071.775, 22953.56
1072.257, 22926.89
1072.739, 22882.37
1073.221, 22833.26
1073.703, 22830.68
1074.185, 22868.59
1074.667, 22906.75
1075.150, 22935.58
1075.632, 22949.63
1076.114, 22942.21
1076.596, 22923.03
1077.078, 22904.18
1077.560, 22886.27
1078.042, 22880.13
1078.524, 22888.68
1079.006, 22901.90
1079.489, 22908.23
1079.971, 22916.60
1080.453, 22938.60
1080.935, 22976.48
1081.417, 22996.53
1081.899, 22989.13
1082.381, 22993.18
1082.863, 23030.81
1083.345, 23077.97
1083.828, 23075.95
1084.310, 23052.40
1084.792, 23071.58
1085.274, 23214.29
1085.756, 23273.95
1086.238, 23156.32
1086.720, 23026.34
1087.202, 23028.54
1087.685, 23141.33
1088.167, 23199.39
1088.649, 23203.97
1089.131, 23180.43
1089.613, 23096.40
1090.095, 23038.67
1090.577, 23084.78
1091.059, 23182.98
1091.542, 23225.99
1092.024, 23205.53
1092.506, 23196.14
1092.988, 23208.08
1093.470, 23230.54
1093.952, 23266.46
1094.434, 23297.39
1094.916, 23295.21
1095.398, 23255.44
1095.880, 23246.75
1096.363, 23285.65
1096.845, 23321.44
1097.327, 23334.88
1097.809, 23337.71
1098.291, 23359.40
1098.773, 23387.97
1099.255, 23395.31
1099.737, 23363.79
1100.220, 23333.78
1100.702, 23297.83
1101.184, 23286.94
1101.666, 23339.28
1102.148, 23442.44
1102.630, 23481.68
1103.112, 23461.89
1103.594, 23425.31
1104.077, 23366.19
1104.559, 23328.13
1105.041, 23351.14
1105.523, 23403.34
1106.005, 23431.99
1106.487, 23433.81
1106.969, 23437.57
1107.451, 23446.88
1107.933, 23450.37
1108.416, 23428.21
1108.898, 23402.72
1109.380, 23401.50
1109.862, 23423.09
1110.344, 23425.19
1110.826, 23392.54
1111.308, 23381.95
1111.790, 23416.84
1112.272, 23459.22
1112.755, 23427.93
1113.237, 23366.98
1113.719, 23361.87
1114.201, 23444.77
1114.683, 23509.89
1115.165, 23527.64
1115.647, 23531.37
1116.129, 23538.18
1116.612, 23542.22
1117.094, 23516.62
1117.576, 23467.86
1118.058, 23421.54
1118.540, 23381.14
1119.022, 23356.98
1119.504, 23356.37
1119.986, 23374.46
1120.469, 23415.52
1120.951, 23482.19
1121.433, 23504.03
1121.915, 23481.21
1122.397, 23462.95
1122.879, 23489.47
1123.361, 23527.17
1123.843, 23561.20
1124.325, 23585.10
1124.807, 23580.81
1125.290, 23535.78
1125.772, 23519.14
1126.254, 23541.53
1126.736, 23581.29
1127.218, 23623.03
1127.700, 23663.78
1128.182, 23699.16
1128.664, 23728.30
1129.147, 23758.31
1129.629, 23798.07
1130.111, 23815.52
1130.593, 23795.97
1131.075, 23759.09
1131.557, 23728.03
1132.039, 23708.39
1132.521, 23714.43
1133.004, 23757.17
1133.486, 23797.92
1133.968, 23845.14
1134.450, 23866.51
1134.932, 23833.90
1135.414, 23768.39
1135.896, 23749.02
1136.378, 23764.02
1136.860, 23766.96
1137.343, 23721.38
1137.825, 23685.94
1138.307, 23685.40
1138.789, 23700.73
1139.271, 23716.85
1139.753, 23733.28
1140.235, 23758.62
1140.717, 23792.10
1141.199, 23825.10
1141.682, 23863.63
1142.164, 23888.48
1142.646, 23875.86
1143.128, 23847.23
1143.610, 23847.67
1144.092, 23883.32
1144.574, 23900.21
1145.056, 23893.36
1145.539, 23870.97
1146.021, 23806.96
1146.503, 23758.12
1146.985, 23796.48
1147.467, 23909.84
1147.949, 23956.85
1148.431, 23917.67
1148.913, 23885.05
1149.396, 23877.50
1149.878, 23888.93
1150.360, 23924.92
1150.842, 23967.35
1151.324, 23986.17
1151.806, 23970.62
1152.288, 23990.22
1152.770, 24061.45
1153.252, 24134.62
1153.734, 24200.00
1154.217, 24243.70
1154.699, 24221.63
1155.181, 24163.77
1155.663, 24128.01
1156.145, 24139.77
1156.627, 24154.00
1157.109, 24174.49
1157.591, 24179.35
1158.074, 24138.76
1158.556, 24077.25
1159.038, 24088.17
1159.520, 24149.30
1160.002, 24186.42
1160.484, 24138.75
1160.966, 24101.86
1161.448, 24097.79
1161.931, 24107.51
1162.413, 24118.59
1162.895, 24129.35
1163.377, 24123.26
1163.859, 24103.50
1164.341, 24094.98
1164.823, 24136.69
1165.305, 24162.91
1165.787, 24126.26
1166.270, 24076.51
1166.752, 24099.77
1167.234, 24188.38
1167.716, 24232.57
1168.198, 24220.88
1168.680, 24201.50
1169.162, 24205.02
1169.644, 24211.91
1170.126, 24195.91
1170.609, 24176.17
1171.091, 24220.35
1171.573, 24326.88
1172.055, 24404.73
1172.537, 24435.62
1173.019, 24437.26
1173.501, 24394.27
1173.983, 24351.93
1174.466, 24355.49
1174.948, 24399.43
1175.430, 24431.78
1175.912, 24452.59
1176.394, 24477.19
1176.876, 24514.46
1177.358, 24548.25
1177.840, 24561.79
1178.323, 24564.48
1178.805, 24567.86
1179.287, 24574.24
1179.769, 24559.49
1180.251, 24517.64
1180.733, 24503.65
1181.215, 24566.07
1181.697, 24636.93
1182.179, 24626.44
1182.661, 24575.96
1183.144, 24548.07
1183.626, 24560.40
1184.108, 24560.54
1184.590, 24545.96
1185.072, 24532.64
1185.554, 24538.98
1186.036, 24547.48
1186.518, 24528.71
1187.001, 24496.24
1187.483, 24480.59
1187.965, 24491.61
1188.447, 24510.67
1188.929, 24538.99
1189.411, 24570.68
1189.893, 24610.50
1190.375, 24644.14
1190.858, 24643.57
1191.340, 24617.18
1191.822, 24599.58
1192.304, 24591.90
1192.786, 24608.52
1193.268, 24662.10
1193.750, 24705.69
1194.232, 24661.50
1194.714, 24587.72
1195.197, 24587.54
1195.679, 24656.17
1196.161, 24687.37
1196.643, 24623.49
1197.125, 24600.27
1197.607, 24654.40
1198.089, 24728.82
1198.571, 24748.38
1199.054, 24729.81
1199.536, 24686.74
1200.018, 24621.04
1200.500, 24596.72
1200.982, 24636.22
1201.464, 24697.68
1201.946, 24785.30
1202.428, 24860.82
1202.911, 24837.13
1203.393, 24762.56
1203.875, 24726.21
1204.357, 24747.77
1204.839, 24785.64
1205.321, 24842.54
1205.803, 24893.68
1206.285, 24934.97
1206.767, 24957.79
1207.250, 24927.16
1207.732, 24869.63
1208.214, 24840.62
1208.696, 24863.21
1209.178, 24878.65
1209.660, 24864.95
1210.142, 24871.63
1210.624, 24942.47
1211.106, 25032.33
1211.589, 25014.75
1212.071, 24932.81
1212.553, 24885.02
1213.035, 24922.20
1213.517, 24941.26
1213.999, 24924.59
1214.481, 24901.05
1214.963, 24887.06
1215.446, 24881.30
1215.928, 24886.34
1216.410, 24896.18
1216.892, 24894.33
1217.374, 24855.04
1217.856, 24838.25
1218.338, 24848.94
1218.820, 24881.15
1219.302, 24953.63
1219.785, 25036.36
1220.267, 25049.08
1220.749, 25006.77
1221.231, 24958.41
1221.713, 24885.62
1222.195, 24869.32
1222.677, 24938.03
1223.159, 25013.01
1223.641, 25005.69
1224.124, 24958.00
1224.606, 24972.35
1225.088, 25032.30
1225.570, 25060.78
1226.052, 24983.56
1226.534, 24948.75
1227.016, 24979.43
1227.498, 25030.56
1227.981, 25059.07
1228.463, 25071.61
1228.945, 25077.04
1229.427, 25077.58
1229.909, 25081.12
1230.391, 25095.28
1230.873, 25099.40
1231.355, 25082.66
1231.838, 25077.74
1232.320, 25135.69
1232.802, 25225.80
1233.284, 25305.71
1233.766, 25369.99
1234.248, 25396.66
1234.730, 25358.83
1235.212, 25339.36
1235.694, 25356.90
1236.177, 25383.04
1236.659, 25381.44
1237.141, 25365.64
1237.623, 25353.89
1238.105, 25347.84
1238.587, 25339.74
1239.069, 25322.19
1239.551, 25327.53
1240.033, 25370.49
1240.516, 25416.95
1240.998, 25422.14
1241.480, 25404.92
1241.962, 25381.36
1242.444, 25354.45
1242.926, 25348.86
1243.408, 25368.96
1243.890, 25393.05
1244.373, 25415.31
1244.855, 25437.09
1245.337, 25460.07
1245.819, 25482.52
1246.301, 25500.97
1246.783, 25514.67
1247.265, 25541.49
1247.747, 25588.25
1248.229, 25605.75
1248.712, 25575.37
1249.194, 25528.28
1249.676, 25488.78
1250.158, 25458.05
1250.640, 25437.67
1251.122, 25428.36
1251.604, 25432.79
1252.086, 25452.14
1252.568, 25472.08
1253.051, 25488.74
##END=



