##NAMES=Crocoite
##RRUFFID=R040053
##IDEAL CHEMISTRY=Pb^2+^Cr^6+^O_4_
##LOCALITY=Dundas, Tasmania
##OWNER=RRUFF
##SOURCE=Bob Downs
##DESCRIPTION=Reddish-orange prismatic crystal
##STATUS=The identification of this mineral has been confirmed by X-ray diffraction and chemical analysis
##URL=rruff.info/R040053
##MEASURED CHEMISTRY=(Pb_.995_Mn_.005_)CrO_4_
87.29785, 13.77183
87.77997, 18.01521
88.26208, 21.00835
88.74420, 22.43390
89.22632, 22.73115
89.70844, 22.37314
90.19055, 21.54882
90.67267, 20.29395
91.15479, 20.06515
91.63690, 22.61056
92.11902, 24.48907
92.60114, 24.37774
93.08325, 22.63540
93.56537, 20.44288
94.04749, 18.88399
94.52960, 18.14273
95.01172, 17.00694
95.49384, 14.68162
95.97595, 12.64909
96.45807, 11.81504
96.94019, 12.24751
97.42230, 13.43687
97.90442, 14.99876
98.38654, 17.69345
98.86865, 18.24868
99.35077, 13.95370
99.83289, 8.847350
100.3150, 7.225468
100.7971, 10.31729
101.2792, 15.40691
101.7614, 18.10926
102.2435, 17.95748
102.7256, 17.35368
103.2077, 15.48622
103.6898, 13.61571
104.1719, 14.41241
104.6541, 19.49870
105.1362, 26.35422
105.6183, 30.31701
106.1004, 31.09002
106.5825, 30.66714
107.0646, 28.82435
107.5468, 26.14712
108.0289, 25.44209
108.5110, 28.87798
108.9931, 34.28200
109.4752, 37.42603
109.9573, 37.03313
110.4394, 36.48857
110.9216, 38.69978
111.4037, 43.73822
111.8858, 49.39177
112.3679, 55.55389
112.8500, 61.34176
113.3321, 65.33796
113.8143, 66.12930
114.2964, 66.32635
114.7785, 70.28653
115.2606, 79.55968
115.7427, 87.53455
116.2248, 89.57621
116.7070, 89.04958
117.1891, 89.84336
117.6712, 93.60912
118.1533, 99.72645
118.6354, 106.3264
119.1175, 112.0329
119.5997, 120.9383
120.0818, 133.4330
120.5639, 149.5828
121.0460, 169.0861
121.5281, 189.9737
122.0102, 213.5695
122.4924, 250.1065
122.9745, 302.7163
123.4566, 366.4539
123.9387, 435.4140
124.4208, 513.0488
124.9029, 606.1078
125.3851, 718.4028
125.8672, 849.9460
126.3493, 1006.496
126.8314, 1199.802
127.3135, 1410.273
127.7956, 1642.206
128.2778, 1889.118
128.7599, 2141.194
129.2420, 2391.839
129.7241, 2647.457
130.2062, 2866.708
130.6883, 3056.562
131.1705, 3210.270
131.6526, 3323.189
132.1347, 3395.309
132.6168, 3430.026
133.0989, 3429.340
133.5810, 3385.863
134.0632, 3320.846
134.5453, 3234.304
135.0274, 3130.922
135.5095, 3005.300
135.9916, 2860.208
136.4737, 2711.212
136.9559, 2581.792
137.4380, 2483.525
137.9201, 2386.144
138.4022, 2279.569
138.8843, 2179.223
139.3664, 2096.870
139.8486, 2036.339
140.3307, 1994.670
140.8128, 1967.810
141.2949, 1960.998
141.7770, 1963.307
142.2591, 1973.651
142.7413, 1993.384
143.2234, 2027.542
143.7055, 2078.219
144.1876, 2136.152
144.6697, 2183.212
145.1518, 2222.548
145.6340, 2246.367
146.1161, 2245.908
146.5982, 2231.103
147.0803, 2217.413
147.5624, 2211.736
148.0445, 2206.643
148.5267, 2182.066
149.0088, 2134.311
149.4909, 2079.587
149.9730, 2019.051
150.4551, 1954.180
150.9372, 1887.088
151.4194, 1817.006
151.9015, 1747.264
152.3836, 1686.224
152.8657, 1638.301
153.3478, 1589.576
153.8299, 1533.568
154.3121, 1472.619
154.7942, 1411.516
155.2763, 1350.372
155.7584, 1293.200
156.2405, 1249.464
156.7226, 1223.619
157.2048, 1202.405
157.6869, 1179.031
158.1690, 1154.523
158.6511, 1133.315
159.1332, 1119.175
159.6153, 1108.864
160.0975, 1093.663
160.5796, 1066.861
161.0617, 1044.721
161.5438, 1042.145
162.0259, 1056.623
162.5080, 1067.589
162.9902, 1062.700
163.4723, 1049.215
163.9544, 1043.218
164.4365, 1048.558
164.9186, 1056.907
165.4007, 1062.096
165.8829, 1064.264
166.3650, 1066.513
166.8471, 1072.281
167.3292, 1077.967
167.8113, 1077.396
168.2934, 1066.958
168.7756, 1054.291
169.2577, 1046.876
169.7398, 1044.892
170.2219, 1042.120
170.7040, 1032.979
171.1861, 1022.474
171.6683, 1018.422
172.1504, 1025.679
172.6325, 1034.664
173.1146, 1034.332
173.5967, 1023.776
174.0788, 1013.600
174.5610, 1008.985
175.0431, 1007.565
175.5252, 1007.035
176.0073, 1008.578
176.4894, 1008.534
176.9715, 1000.742
177.4537, 983.6914
177.9358, 969.1564
178.4179, 964.1635
178.9000, 964.3976
179.3821, 966.1067
179.8642, 970.0581
180.3464, 972.7166
180.8285, 967.9922
181.3106, 954.1800
181.7927, 942.2537
182.2748, 939.5501
182.7569, 940.5392
183.2391, 940.4409
183.7212, 938.7502
184.2033, 934.2229
184.6854, 923.6180
185.1675, 905.2781
185.6496, 888.8987
186.1318, 878.9223
186.6139, 873.0804
187.0960, 870.1865
187.5781, 870.8195
188.0602, 872.5215
188.5423, 873.2515
189.0245, 874.0369
189.5066, 869.2344
189.9887, 849.7305
190.4708, 826.3087
190.9529, 807.8799
191.4350, 796.6512
191.9172, 792.2213
192.3993, 797.5491
192.8814, 816.4086
193.3635, 828.2020
193.8456, 816.1489
194.3277, 797.3400
194.8099, 787.4496
195.2920, 792.4595
195.7741, 802.0235
196.2562, 801.3259
196.7383, 787.7223
197.2204, 776.2006
197.7026, 774.4808
198.1847, 776.0609
198.6668, 775.5973
199.1489, 771.3529
199.6310, 766.3947
200.1131, 765.3997
200.5953, 769.4677
201.0774, 771.5780
201.5595, 766.3411
202.0416, 759.6693
202.5237, 756.4869
203.0058, 758.2903
203.4880, 761.4416
203.9701, 760.9934
204.4522, 756.1262
204.9343, 753.1634
205.4164, 758.4529
205.8985, 763.7932
206.3807, 761.6521
206.8628, 749.9356
207.3449, 736.7147
207.8270, 731.6509
208.3091, 735.7242
208.7912, 738.3385
209.2734, 734.0435
209.7555, 729.1188
210.2376, 728.4297
210.7197, 732.7745
211.2018, 739.2051
211.6839, 746.0884
212.1660, 753.5987
212.6482, 757.6584
213.1303, 754.3629
213.6124, 749.4030
214.0945, 747.3542
214.5766, 748.6481
215.0587, 749.9553
215.5409, 748.4031
216.0230, 744.0508
216.5051, 738.6600
216.9872, 730.2892
217.4693, 723.2449
217.9514, 721.0766
218.4336, 723.7923
218.9157, 727.6984
219.3978, 730.0987
219.8799, 731.1680
220.3620, 732.7537
220.8441, 735.9672
221.3263, 738.7529
221.8084, 739.4484
222.2905, 738.2085
222.7726, 736.6202
223.2547, 736.5880
223.7368, 737.3923
224.2190, 734.5490
224.7011, 724.2324
225.1832, 715.0728
225.6653, 714.8082
226.1474, 721.6364
226.6295, 727.3520
227.1117, 725.7520
227.5938, 719.4559
228.0759, 716.7072
228.5580, 719.0697
229.0401, 723.2614
229.5222, 728.0306
230.0044, 732.8423
230.4865, 735.7574
230.9686, 734.4620
231.4507, 730.9614
231.9328, 729.6864
232.4149, 731.5489
232.8971, 733.5429
233.3792, 732.5632
233.8613, 730.0890
234.3434, 729.3469
234.8255, 734.4612
235.3076, 740.6584
235.7898, 739.6090
236.2719, 729.7958
236.7540, 720.6649
237.2361, 718.7825
237.7182, 721.8134
238.2003, 725.5272
238.6825, 730.8456
239.1646, 735.1774
239.6467, 735.5525
240.1288, 731.9120
240.6109, 726.1602
241.0930, 715.9891
241.5752, 705.5428
242.0573, 703.7992
242.5394, 717.9034
243.0215, 733.1354
243.5036, 737.5791
243.9857, 732.3097
244.4679, 725.6836
244.9500, 720.1820
245.4321, 716.6815
245.9142, 716.5852
246.3963, 721.3644
246.8784, 726.7685
247.3606, 730.6254
247.8427, 733.2601
248.3248, 735.7870
248.8069, 738.5814
249.2890, 741.4913
249.7711, 744.3913
250.2533, 747.5701
250.7354, 749.9370
251.2175, 750.2761
251.6996, 749.6151
252.1817, 749.9794
252.6638, 752.0761
253.1460, 754.9431
253.6281, 756.9657
254.1102, 757.7328
254.5923, 759.4302
255.0744, 764.6228
255.5565, 770.0745
256.0387, 770.5656
256.5208, 764.9189
257.0029, 758.8717
257.4850, 759.8506
257.9671, 770.4609
258.4492, 776.7468
258.9314, 773.4505
259.4135, 768.8823
259.8956, 770.6526
260.3777, 779.0461
260.8598, 788.1987
261.3419, 792.8735
261.8241, 792.4563
262.3062, 792.0499
262.7883, 790.0730
263.2704, 789.4964
263.7525, 792.9731
264.2346, 799.5432
264.7168, 805.9570
265.1989, 810.0826
265.6810, 811.9389
266.1631, 811.3533
266.6452, 803.1545
267.1273, 798.4352
267.6095, 803.3073
268.0916, 813.6789
268.5737, 821.9216
269.0558, 823.7197
269.5379, 820.8979
270.0201, 820.8152
270.5022, 825.8094
270.9843, 831.1362
271.4664, 838.4951
271.9485, 845.2122
272.4306, 847.0558
272.9128, 842.5057
273.3949, 835.7982
273.8770, 836.2366
274.3591, 850.9668
274.8412, 860.3223
275.3233, 858.6467
275.8055, 855.1817
276.2876, 857.4196
276.7697, 866.6194
277.2518, 878.1971
277.7339, 886.3511
278.2160, 890.0847
278.6982, 893.4803
279.1803, 895.7292
279.6624, 898.3354
280.1445, 903.1499
280.6266, 909.4111
281.1087, 914.1302
281.5909, 914.3338
282.0730, 910.0013
282.5551, 905.1748
283.0372, 895.2524
283.5193, 890.4865
284.0014, 901.0261
284.4836, 919.2688
284.9657, 928.9542
285.4478, 915.9541
285.9299, 889.4041
286.4120, 880.8036
286.8941, 897.9375
287.3763, 916.7477
287.8584, 927.9734
288.3405, 934.8417
288.8226, 940.8096
289.3047, 946.6611
289.7868, 952.8138
290.2690, 961.5358
290.7511, 973.8071
291.2332, 980.2075
291.7153, 969.8195
292.1974, 956.2182
292.6795, 955.3633
293.1617, 971.4015
293.6438, 989.1381
294.1259, 993.9709
294.6080, 988.9383
295.0901, 992.1777
295.5722, 1011.726
296.0544, 1036.357
296.5365, 1051.947
297.0186, 1058.178
297.5007, 1066.298
297.9828, 1082.610
298.4649, 1103.180
298.9471, 1121.758
299.4292, 1137.606
299.9113, 1150.901
300.3934, 1160.623
300.8755, 1166.984
301.3576, 1175.681
301.8398, 1187.366
302.3219, 1201.547
302.8040, 1219.259
303.2861, 1239.897
303.7682, 1259.114
304.2503, 1273.071
304.7325, 1282.854
305.2146, 1298.889
305.6967, 1327.427
306.1788, 1354.505
306.6609, 1372.932
307.1430, 1386.511
307.6252, 1403.826
308.1073, 1429.249
308.5894, 1459.004
309.0715, 1482.369
309.5536, 1490.243
310.0357, 1503.201
310.5179, 1523.801
311.0000, 1548.825
311.4821, 1574.527
311.9642, 1600.240
312.4463, 1628.937
312.9284, 1665.508
313.4106, 1714.403
313.8927, 1758.660
314.3748, 1792.802
314.8569, 1828.048
315.3390, 1870.326
315.8211, 1919.485
316.3033, 1971.482
316.7854, 2022.628
317.2675, 2073.035
317.7496, 2130.554
318.2317, 2204.280
318.7138, 2274.424
319.1960, 2322.090
319.6781, 2364.709
320.1602, 2432.336
320.6423, 2545.444
321.1244, 2681.751
321.6065, 2785.440
322.0887, 2841.021
322.5708, 2909.159
323.0529, 3012.136
323.5350, 3134.720
324.0171, 3268.767
324.4992, 3413.901
324.9814, 3559.067
325.4635, 3686.746
325.9456, 3800.186
326.4277, 3930.362
326.9098, 4078.671
327.3919, 4254.199
327.8741, 4462.252
328.3562, 4701.573
328.8383, 4964.955
329.3204, 5248.244
329.8025, 5553.833
330.2846, 5886.317
330.7668, 6244.075
331.2489, 6629.009
331.7310, 7046.084
332.2131, 7492.491
332.6952, 7950.458
333.1773, 8398.200
333.6595, 8873.552
334.1415, 9412.013
334.6237, 10002.05
335.1058, 10603.10
335.5879, 11211.08
336.0700, 11794.86
336.5521, 12233.78
337.0342, 12606.11
337.5164, 12756.39
337.9985, 12606.34
338.4806, 12241.21
338.9627, 11706.42
339.4448, 11026.72
339.9269, 10312.37
340.4091, 9714.455
340.8912, 9221.282
341.3733, 8899.540
341.8554, 8742.015
342.3375, 8731.951
342.8196, 8873.371
343.3018, 9156.321
343.7839, 9557.325
344.2660, 10056.19
344.7481, 10654.63
345.2302, 11380.66
345.7123, 12223.22
346.1945, 13221.32
346.6766, 14372.27
347.1587, 15682.61
347.6408, 17155.75
348.1229, 18796.40
348.6050, 20619.84
349.0872, 22644.66
349.5693, 24871.27
350.0514, 27336.77
350.5335, 30103.04
351.0156, 33097.04
351.4977, 36273.63
351.9799, 39640.28
352.4620, 43175.09
352.9441, 46898.69
353.4262, 50793.77
353.9083, 54777.00
354.3904, 58881.18
354.8726, 62996.09
355.3547, 67228.62
355.8368, 71448.57
356.3189, 74958.64
356.8010, 77904.33
357.2831, 79883.82
357.7653, 80586.68
358.2474, 79996.51
358.7295, 78042.46
359.2116, 74518.30
359.6937, 69685.48
360.1758, 64370.39
360.6580, 58221.21
361.1401, 52203.33
361.6222, 46367.20
362.1043, 40892.58
362.5864, 36037.93
363.0685, 31856.37
363.5507, 28246.12
364.0328, 25087.10
364.5149, 22426.07
364.9970, 20124.09
365.4791, 18175.68
365.9612, 16519.30
366.4434, 15169.86
366.9255, 14088.52
367.4076, 13210.30
367.8897, 12486.84
368.3718, 11918.43
368.8539, 11511.31
369.3361, 11322.99
369.8182, 11230.06
370.3003, 11179.23
370.7824, 11207.98
371.2645, 11357.94
371.7466, 11643.41
372.2288, 12047.27
372.7109, 12547.19
373.1930, 13141.00
373.6751, 13853.73
374.1572, 14771.63
374.6393, 15728.27
375.1215, 16713.38
375.6036, 17682.25
376.0857, 18319.25
376.5678, 18486.86
377.0499, 18209.17
377.5320, 17459.46
378.0142, 16206.48
378.4963, 14752.91
378.9784, 13215.32
379.4605, 11629.90
379.9426, 10152.82
380.4247, 8721.823
380.9069, 7465.550
381.3890, 6440.602
381.8711, 5627.837
382.3532, 4994.359
382.8353, 4532.246
383.3174, 4196.787
383.7996, 3913.458
384.2817, 3690.896
384.7638, 3510.595
385.2459, 3386.683
385.7280, 3293.015
386.2101, 3216.001
386.6923, 3152.477
387.1744, 3102.685
387.6565, 3066.452
388.1386, 3043.939
388.6207, 3037.484
389.1028, 3044.576
389.5850, 3073.444
390.0671, 3126.656
390.5492, 3200.826
391.0313, 3290.191
391.5134, 3391.846
391.9955, 3515.650
392.4777, 3679.447
392.9598, 3886.585
393.4419, 4103.152
393.9240, 4323.363
394.4061, 4553.011
394.8882, 4784.411
395.3704, 5021.586
395.8525, 5290.021
396.3346, 5606.186
396.8167, 5959.859
397.2988, 6339.832
397.7809, 6747.004
398.2631, 7163.454
398.7452, 7623.954
399.2273, 8068.250
399.7094, 8327.931
400.1915, 8439.289
400.6736, 8325.112
401.1558, 7888.058
401.6379, 7223.413
402.1200, 6447.041
402.6021, 5588.308
403.0842, 4733.666
403.5663, 3999.343
404.0485, 3389.955
404.5306, 2897.163
405.0127, 2545.435
405.4948, 2267.269
405.9769, 2046.279
406.4590, 1871.614
406.9412, 1731.174
407.4233, 1619.459
407.9054, 1532.170
408.3875, 1457.913
408.8696, 1398.526
409.3517, 1349.223
409.8339, 1314.444
410.3160, 1284.812
410.7981, 1252.289
411.2802, 1215.507
411.7623, 1181.271
412.2444, 1156.233
412.7266, 1139.238
413.2087, 1123.370
413.6908, 1107.574
414.1729, 1093.906
414.6550, 1086.875
415.1371, 1083.456
415.6193, 1075.317
416.1014, 1057.027
416.5835, 1036.793
417.0656, 1020.143
417.5477, 1006.622
418.0298, 994.5833
418.5120, 983.1271
418.9941, 973.2230
419.4762, 966.9399
419.9583, 966.9385
420.4404, 964.9943
420.9225, 959.3405
421.4047, 952.7776
421.8868, 947.6857
422.3689, 943.8774
422.8510, 939.6263
423.3331, 933.8129
423.8152, 926.2884
424.2974, 915.5330
424.7795, 896.0663
425.2616, 881.5584
425.7437, 876.4196
426.2258, 876.2324
426.7079, 877.7798
427.1901, 880.1154
427.6722, 880.4333
428.1543, 873.4119
428.6364, 859.8645
429.1185, 852.4160
429.6006, 855.4661
430.0828, 860.0085
430.5649, 858.7580
431.0470, 853.3565
431.5291, 848.5425
432.0112, 845.2679
432.4933, 843.3417
432.9755, 842.8649
433.4576, 843.6744
433.9397, 845.1970
434.4218, 847.3412
434.9039, 849.7488
435.3860, 851.6777
435.8682, 852.9771
436.3503, 854.1306
436.8324, 852.7665
437.3145, 853.0346
437.7966, 861.5016
438.2787, 875.8447
438.7609, 885.2084
439.2430, 880.0903
439.7251, 862.9344
440.2072, 853.2670
440.6893, 856.4731
441.1714, 859.1171
441.6536, 858.0160
442.1357, 855.3351
442.6178, 853.2172
443.0999, 852.1625
443.5820, 851.0982
444.0641, 849.6241
444.5463, 847.4754
445.0284, 842.7194
445.5105, 834.6132
445.9926, 825.0993
446.4747, 814.2261
446.9568, 802.9697
447.4390, 794.3257
447.9211, 792.0521
448.4032, 789.4727
448.8853, 782.0115
449.3674, 770.8464
449.8495, 758.0981
450.3317, 744.3610
450.8138, 731.3223
451.2959, 722.2302
451.7780, 720.3477
452.2601, 713.4117
452.7422, 696.5606
453.2244, 679.4712
453.7065, 667.0851
454.1886, 659.0114
454.6707, 653.0358
455.1528, 648.0212
455.6349, 643.7144
456.1171, 638.9438
456.5992, 632.3545
457.0813, 628.9607
457.5634, 635.4769
458.0455, 641.6799
458.5276, 639.3035
459.0098, 628.2109
459.4919, 616.4203
459.9740, 608.0947
460.4561, 602.6669
460.9382, 599.3422
461.4203, 598.1429
461.9025, 598.2028
462.3846, 599.9329
462.8667, 602.2381
463.3488, 601.3160
463.8309, 593.9190
464.3130, 588.6226
464.7952, 589.4122
465.2773, 592.8360
465.7594, 595.0917
466.2415, 595.3648
466.7236, 594.2875
467.2057, 591.7391
467.6879, 587.4422
468.1700, 589.6410
468.6521, 608.0562
469.1342, 621.8864
469.6163, 624.1360
470.0984, 620.3575
470.5806, 616.9113
471.0627, 615.8552
471.5448, 616.5187
472.0269, 619.2051
472.5090, 623.6110
472.9911, 624.7330
473.4733, 619.3531
473.9554, 615.4561
474.4375, 623.0068
474.9196, 637.8185
475.4017, 647.0851
475.8839, 645.7917
476.3660, 640.8611
476.8481, 635.6027
477.3302, 630.2615
477.8123, 625.4323
478.2944, 621.3379
478.7766, 617.7427
479.2587, 614.4254
479.7408, 611.6890
480.2229, 608.2194
480.7050, 603.6845
481.1871, 598.8619
481.6693, 592.9766
482.1514, 587.2480
482.6335, 584.4351
483.1156, 586.3856
483.5977, 589.9734
484.0798, 588.5652
484.5620, 581.0911
485.0441, 575.5341
485.5262, 574.8506
486.0083, 575.0424
486.4904, 573.6073
486.9725, 570.4143
487.4547, 564.7535
487.9368, 554.2527
488.4189, 542.6136
488.9010, 533.2983
489.3831, 526.3386
489.8652, 522.0023
490.3474, 521.1083
490.8295, 521.0685
491.3116, 516.3671
491.7937, 503.1986
492.2758, 492.5171
492.7579, 485.8661
493.2401, 480.3806
493.7222, 473.6553
494.2043, 466.3877
494.6864, 460.9718
495.1685, 459.0736
495.6506, 459.7780
496.1328, 461.2771
496.6149, 464.8397
497.0970, 464.7525
497.5791, 457.9055
498.0612, 448.1843
498.5433, 437.4023
499.0254, 425.9198
499.5075, 416.9150
499.9897, 413.1179
500.4718, 411.8512
500.9539, 410.4742
501.4360, 408.7232
501.9181, 405.1412
502.4002, 398.3053
502.8824, 390.3612
503.3645, 386.5443
503.8466, 388.3227
504.3287, 392.0178
504.8108, 402.7789
505.2929, 411.2511
505.7751, 408.3824
506.2572, 396.7808
506.7393, 386.5319
507.2214, 384.9368
507.7035, 388.9176
508.1856, 388.7091
508.6678, 382.6729
509.1499, 378.2024
509.6320, 379.6493
510.1141, 381.3926
510.5962, 377.1656
511.0783, 367.2653
511.5605, 360.8847
512.0426, 365.5808
512.5247, 373.7550
513.0068, 375.9843
513.4890, 372.6498
513.9711, 368.9900
514.4532, 367.6985
514.9353, 367.4772
515.4174, 365.3468
515.8995, 360.9401
516.3817, 354.9949
516.8638, 344.3433
517.3459, 334.9059
517.8280, 330.9635
518.3101, 331.6734
518.7922, 333.9022
519.2744, 336.0093
519.7565, 337.8004
520.2386, 338.8726
520.7207, 339.2216
521.2028, 338.8793
521.6849, 338.1457
522.1671, 336.3470
522.6492, 332.7226
523.1313, 327.4022
523.6134, 321.8403
524.0955, 316.4613
524.5776, 311.0752
525.0598, 304.2683
525.5419, 297.0839
526.0240, 293.1938
526.5061, 294.2542
526.9882, 298.7476
527.4703, 304.4740
527.9525, 314.5315
528.4346, 317.6565
528.9167, 308.8910
529.3988, 299.0564
529.8809, 293.6863
530.3630, 290.8856
530.8452, 285.1870
531.3273, 272.9771
531.8094, 261.0607
532.2915, 262.0098
532.7736, 275.1930
533.2557, 281.3258
533.7379, 273.8759
534.2200, 264.1833
534.7021, 263.2351
535.1842, 269.7831
535.6663, 275.5943
536.1484, 280.9143
536.6306, 284.1437
537.1127, 283.8882
537.5948, 281.1265
538.0769, 276.8759
538.5590, 271.5929
539.0411, 266.6887
539.5233, 263.9936
540.0054, 263.7134
540.4875, 263.5712
540.9696, 263.4376
541.4517, 263.6422
541.9338, 266.1423
542.4160, 268.2446
542.8981, 265.7760
543.3802, 257.1242
543.8623, 248.2637
544.3444, 243.9789
544.8265, 243.0842
545.3087, 243.1436
545.7908, 243.9338
546.2729, 244.4051
546.7550, 243.9443
547.2371, 242.5351
547.7192, 240.0322
548.2014, 235.7830
548.6835, 231.3996
549.1656, 224.3895
549.6477, 219.1886
550.1298, 222.0144
550.6119, 231.4873
551.0941, 238.9660
551.5762, 236.8510
552.0583, 228.2588
552.5404, 224.6876
553.0225, 227.7775
553.5046, 228.5147
553.9868, 221.2444
554.4689, 212.9743
554.9510, 212.6635
555.4331, 220.4493
555.9152, 225.2262
556.3973, 220.6090
556.8795, 213.9635
557.3616, 212.1789
557.8437, 213.9201
558.3258, 214.0446
558.8079, 210.1789
559.2900, 204.6006
559.7722, 201.5520
560.2543, 202.3716
560.7364, 201.5677
561.2185, 197.3851
561.7006, 193.2830
562.1827, 190.4178
562.6649, 188.5322
563.1470, 187.1024
563.6291, 185.9368
564.1112, 185.1574
564.5933, 185.7193
565.0754, 186.8228
565.5576, 185.1851
566.0397, 179.9690
566.5218, 174.7810
567.0039, 172.6665
567.4860, 173.3045
567.9681, 173.2396
568.4503, 169.3442
568.9324, 168.8758
569.4145, 178.4566
569.8966, 188.6019
570.3787, 188.8502
570.8608, 179.3506
571.3430, 169.1885
571.8251, 165.8080
572.3072, 167.4836
572.7893, 168.7349
573.2714, 169.5303
573.7535, 170.0227
574.2357, 170.0446
574.7178, 169.9803
575.1999, 170.8088
575.6820, 172.6506
576.1641, 172.5787
576.6462, 167.9401
577.1284, 162.9350
577.6105, 160.2587
578.0926, 159.6581
578.5747, 160.5311
579.0568, 162.6234
579.5389, 164.9249
580.0211, 165.5810
580.5032, 164.0494
580.9852, 164.2793
581.4673, 169.7524
581.9495, 172.2104
582.4316, 165.6289
582.9137, 155.0787
583.3958, 148.3233
583.8779, 147.6588
584.3600, 148.3770
584.8422, 148.0731
585.3243, 146.9109
585.8064, 144.1524
586.2885, 140.1010
586.7706, 138.6926
587.2527, 143.2670
587.7349, 151.6613
588.2170, 155.1340
588.6991, 148.8862
589.1812, 145.7062
589.6633, 149.8380
590.1454, 153.7584
590.6276, 152.2511
591.1097, 146.3658
591.5918, 140.2510
592.0739, 135.5582
592.5560, 132.3904
593.0381, 130.6654
593.5203, 130.5145
594.0024, 133.3768
594.4845, 140.3123
594.9666, 147.2034
595.4487, 150.1016
595.9308, 148.9444
596.4130, 146.2914
596.8951, 139.0114
597.3772, 134.2880
597.8593, 136.2449
598.3414, 140.2396
598.8235, 141.2514
599.3057, 138.6547
599.7878, 135.5140
600.2699, 134.1298
600.7520, 134.2864
601.2341, 135.9509
601.7162, 139.4263
602.1984, 141.3752
602.6805, 140.7023
603.1626, 137.7745
603.6447, 131.3742
604.1268, 120.3332
604.6089, 115.9344
605.0911, 126.4866
605.5732, 136.7514
606.0553, 137.7701
606.5374, 132.7896
607.0195, 127.3936
607.5016, 123.6481
607.9838, 121.2878
608.4659, 119.9612
608.9480, 119.6801
609.4301, 121.0565
609.9122, 125.1438
610.3943, 128.0006
610.8765, 126.0870
611.3586, 122.6000
611.8407, 123.4158
612.3228, 130.1837
612.8049, 135.1987
613.2870, 134.7926
613.7692, 132.8570
614.2513, 132.9550
614.7334, 134.4973
615.2155, 134.5473
615.6976, 131.5626
616.1797, 127.9897
616.6619, 128.9636
617.1440, 135.4606
617.6261, 139.3676
618.1082, 139.2292
618.5903, 138.0160
619.0724, 136.3772
619.5546, 135.0489
620.0367, 135.7329
620.5188, 139.8871
621.0009, 142.9329
621.4830, 141.3196
621.9651, 138.3371
622.4473, 137.5993
622.9294, 139.4038
623.4115, 143.2389
623.8936, 149.1698
624.3757, 155.2944
624.8578, 155.7975
625.3400, 148.0651
625.8221, 143.9825
626.3042, 145.9396
626.7863, 150.4149
627.2684, 157.5340
627.7505, 165.2788
628.2327, 168.4563
628.7148, 162.9942
629.1969, 158.1118
629.6790, 160.5221
630.1611, 166.3844
630.6432, 169.3216
631.1254, 168.9749
631.6075, 170.4751
632.0896, 178.3058
632.5717, 189.3554
633.0538, 190.8110
633.5359, 177.0965
634.0181, 168.7770
634.5002, 174.7264
634.9823, 180.7035
635.4644, 175.0704
635.9465, 162.2369
636.4286, 156.5836
636.9108, 166.2841
637.3929, 178.2698
637.8750, 184.4117
638.3571, 186.6677
638.8392, 188.3028
639.3214, 189.8436
639.8035, 190.0117
640.2856, 187.6910
640.7677, 183.2632
641.2498, 177.7755
641.7319, 168.6502
642.2141, 164.8452
642.6962, 171.4782
643.1783, 180.6634
643.6604, 189.5670
644.1425, 197.1123
644.6246, 200.0610
645.1068, 195.3049
645.5889, 188.4774
646.0710, 180.5733
646.5531, 174.1717
647.0352, 175.2073
647.5173, 183.9295
647.9995, 193.5797
648.4816, 198.5837
648.9637, 199.6982
649.4458, 200.4596
649.9279, 200.4577
650.4100, 201.1869
650.8922, 203.6373
651.3743, 206.2186
651.8564, 208.6994
652.3385, 210.5434
652.8206, 209.6607
653.3027, 201.0104
653.7849, 195.0302
654.2670, 202.9066
654.7491, 215.7115
655.2312, 216.9929
655.7133, 205.7275
656.1954, 197.2292
656.6776, 204.8327
657.1597, 223.5090
657.6418, 232.4197
658.1239, 227.8777
658.6060, 226.3395
659.0881, 234.0145
659.5703, 241.7943
660.0524, 241.3998
660.5345, 235.1823
661.0166, 232.0047
661.4987, 237.6808
661.9808, 241.4964
662.4630, 234.6015
662.9451, 224.8489
663.4272, 223.7086
663.9093, 231.3376
664.3914, 238.6041
664.8735, 238.7302
665.3557, 234.1870
665.8378, 232.0455
666.3199, 232.7426
666.8020, 232.7756
667.2841, 230.0448
667.7662, 228.8683
668.2484, 234.8064
668.7305, 245.3782
669.2126, 251.8003
669.6947, 249.6930
670.1768, 248.5602
670.6589, 252.7266
671.1411, 258.3243
671.6232, 261.5699
672.1053, 262.4590
672.5874, 263.1954
673.0695, 265.3259
673.5516, 267.3099
674.0338, 264.8105
674.5159, 257.9522
674.9980, 255.9599
675.4801, 260.6571
675.9622, 268.8188
676.4443, 279.5475
676.9265, 291.7919
677.4086, 301.1921
677.8907, 307.1867
678.3728, 311.6491
678.8549, 316.1858
679.3370, 318.0797
679.8192, 312.2832
680.3013, 302.4724
680.7834, 297.8669
681.2655, 303.1094
681.7476, 311.8978
682.2297, 315.6583
682.7119, 316.2445
683.1940, 321.8850
683.6761, 333.7420
684.1582, 345.5154
684.6403, 354.0535
685.1224, 359.3504
685.6046, 361.0621
686.0867, 354.7381
686.5688, 354.3157
687.0509, 365.6733
687.5330, 376.1813
688.0151, 379.5656
688.4973, 378.6767
688.9794, 378.1315
689.4615, 379.1368
689.9436, 381.7639
690.4257, 386.4029
690.9078, 392.5379
691.3900, 399.7983
691.8721, 407.9212
692.3542, 415.7959
692.8363, 422.9969
693.3184, 429.3405
693.8005, 434.7416
694.2827, 439.6539
694.7648, 440.4289
695.2469, 433.8719
695.7290, 427.9502
696.2111, 423.4238
696.6932, 421.9575
697.1754, 427.0900
697.6575, 439.2131
698.1396, 448.9677
698.6217, 452.2544
699.1038, 452.4090
699.5859, 447.9129
700.0681, 443.3175
700.5502, 449.7486
701.0323, 469.0937
701.5144, 488.4998
701.9965, 494.8031
702.4786, 489.7939
702.9608, 480.9303
703.4429, 465.6350
703.9250, 460.5302
704.4071, 475.0032
704.8892, 494.6563
705.3713, 505.3076
705.8535, 507.2617
706.3356, 507.4810
706.8177, 503.3971
707.2998, 501.2031
707.7819, 503.4431
708.2640, 507.8761
708.7462, 513.4597
709.2283, 519.2068
709.7104, 523.1826
710.1925, 524.6016
710.6746, 522.8799
711.1567, 514.1849
711.6389, 500.8792
712.1210, 495.1457
712.6031, 499.3156
713.0852, 506.7134
713.5673, 513.1127
714.0494, 518.4486
714.5316, 522.6480
715.0137, 528.1247
715.4958, 527.8582
715.9779, 513.0856
716.4600, 501.5531
716.9421, 504.2256
717.4243, 515.3757
717.9064, 524.5801
718.3885, 529.2680
718.8706, 531.5370
719.3527, 530.0857
719.8348, 528.5684
720.3170, 533.6783
720.7991, 543.0754
721.2812, 546.9445
721.7633, 540.9950
722.2454, 532.0115
722.7275, 529.6406
723.2097, 533.9005
723.6918, 540.0632
724.1739, 549.5267
724.6560, 556.4740
725.1381, 557.4081
725.6202, 555.8860
726.1024, 556.5850
726.5845, 559.5116
727.0666, 563.0670
727.5487, 570.1338
728.0308, 574.2839
728.5129, 569.6893
728.9951, 562.7480
729.4772, 560.7263
729.9593, 564.4269
730.4414, 570.4948
730.9235, 578.2261
731.4056, 584.9886
731.8878, 583.8135
732.3699, 577.4102
732.8520, 580.0458
733.3341, 595.0646
733.8162, 608.4763
734.2983, 608.5051
734.7805, 598.5035
735.2626, 592.8217
735.7447, 591.3351
736.2268, 594.5432
736.7089, 609.0323
737.1910, 621.4597
737.6732, 621.5723
738.1553, 615.8463
738.6374, 617.7207
739.1195, 631.7379
739.6016, 646.1652
740.0837, 656.3292
740.5659, 664.2945
741.0480, 672.1153
741.5301, 679.2565
742.0122, 683.3136
742.4943, 683.4882
742.9764, 683.3726
743.4586, 688.2625
743.9407, 696.9505
744.4228, 701.5052
744.9049, 701.3502
745.3870, 703.7667
745.8691, 711.1042
746.3513, 722.8714
746.8334, 739.7166
747.3155, 762.3991
747.7976, 779.0680
748.2797, 788.2454
748.7618, 793.5850
749.2440, 789.8271
749.7261, 787.0647
750.2082, 795.7699
750.6903, 813.6566
751.1724, 828.4464
751.6545, 833.5303
752.1367, 836.7909
752.6188, 842.2142
753.1009, 850.7004
753.5830, 866.0834
754.0651, 886.8434
754.5472, 903.9185
755.0294, 911.5594
755.5115, 915.5992
755.9936, 929.7418
756.4757, 954.4272
756.9578, 965.0530
757.4399, 955.2831
757.9221, 949.1522
758.4042, 959.9205
758.8863, 979.9177
759.3684, 995.5366
759.8505, 1004.563
760.3326, 1017.397
760.8148, 1040.115
761.2969, 1059.534
761.7790, 1066.792
762.2611, 1070.890
762.7432, 1083.444
763.2253, 1104.730
763.7075, 1123.461
764.1896, 1130.754
764.6717, 1135.185
765.1538, 1145.784
765.6359, 1160.009
766.1180, 1171.833
766.6002, 1180.619
767.0823, 1190.556
767.5644, 1204.312
768.0465, 1222.369
768.5286, 1247.744
769.0107, 1281.615
769.4929, 1308.842
769.9750, 1324.758
770.4571, 1342.266
770.9392, 1370.823
771.4213, 1405.015
771.9034, 1431.830
772.3856, 1447.976
772.8677, 1466.860
773.3498, 1489.007
773.8319, 1513.898
774.3140, 1544.466
774.7961, 1575.934
775.2783, 1600.358
775.7604, 1617.329
776.2425, 1639.047
776.7246, 1676.755
777.2067, 1719.151
777.6888, 1754.728
778.1710, 1786.446
778.6531, 1820.032
779.1352, 1857.040
779.6173, 1897.952
780.0994, 1943.380
780.5815, 1991.740
781.0637, 2037.580
781.5458, 2080.231
782.0279, 2130.449
782.5100, 2192.523
782.9921, 2251.281
783.4742, 2292.828
783.9564, 2327.315
784.4385, 2380.482
784.9206, 2461.040
785.4027, 2538.815
785.8848, 2610.943
786.3669, 2683.201
786.8491, 2757.633
787.3312, 2833.261
787.8133, 2908.486
788.2954, 2982.923
788.7775, 3061.062
789.2596, 3148.069
789.7418, 3236.452
790.2239, 3322.073
790.7060, 3404.968
791.1881, 3483.532
791.6702, 3559.266
792.1523, 3641.905
792.6345, 3739.317
793.1166, 3844.669
793.5987, 3946.806
794.0808, 4045.300
794.5629, 4134.261
795.0450, 4211.347
795.5272, 4296.046
796.0093, 4403.491
796.4914, 4517.973
796.9735, 4605.442
797.4556, 4655.151
797.9377, 4719.965
798.4199, 4804.741
798.9020, 4898.499
799.3841, 5008.470
799.8662, 5117.854
800.3483, 5203.932
800.8304, 5267.749
801.3126, 5343.761
801.7947, 5452.818
802.2768, 5561.379
802.7589, 5652.168
803.2410, 5735.545
803.7231, 5821.487
804.2053, 5911.148
804.6874, 6002.554
805.1695, 6092.972
805.6516, 6189.873
806.1337, 6306.426
806.6158, 6435.252
807.0980, 6556.048
807.5801, 6669.531
808.0622, 6787.881
808.5443, 6916.665
809.0264, 7055.439
809.5085, 7203.172
809.9907, 7359.922
810.4728, 7527.667
810.9549, 7701.563
811.4370, 7904.645
811.9191, 8151.217
812.4012, 8418.438
812.8834, 8678.617
813.3655, 8937.335
813.8476, 9234.927
814.3297, 9580.506
814.8118, 9948.810
815.2939, 10328.58
815.7761, 10739.73
816.2582, 11195.16
816.7403, 11690.36
817.2224, 12220.03
817.7045, 12782.19
818.1866, 13373.31
818.6688, 13985.79
819.1509, 14626.61
819.6330, 15311.91
820.1151, 16031.40
820.5972, 16757.96
821.0793, 17490.52
821.5615, 18249.42
822.0436, 19059.73
822.5257, 19903.26
823.0078, 20753.19
823.4899, 21604.11
823.9720, 22411.71
824.4542, 23167.57
824.9363, 23960.93
825.4184, 24849.52
825.9005, 25805.69
826.3826, 26751.75
826.8647, 27649.48
827.3469, 28694.79
827.8290, 29861.15
828.3111, 31220.30
828.7932, 32777.49
829.2753, 34555.73
829.7574, 36592.28
830.2396, 38871.59
830.7217, 41419.34
831.2038, 44173.25
831.6859, 47276.75
832.1680, 50789.48
832.6501, 54672.59
833.1323, 58954.04
833.6144, 63576.77
834.0965, 68509.66
834.5786, 73739.75
835.0607, 79160.92
835.5428, 84889.07
836.0250, 90623.66
836.5071, 96249.79
836.9892, 101546.6
837.4713, 106269.9
837.9534, 110274.2
838.4355, 113079.3
838.9177, 114315.5
839.3998, 113946.8
839.8819, 111719.6
840.3640, 107733.0
840.8461, 102517.1
841.3282, 96183.95
841.8104, 89359.18
842.2925, 82422.92
842.7746, 75554.81
843.2567, 69176.56
843.7388, 63236.47
844.2209, 57974.61
844.7031, 53469.20
845.1852, 49468.70
845.6673, 45886.42
846.1494, 42743.63
846.6315, 40076.04
847.1136, 37929.76
847.5958, 35985.76
848.0779, 34235.08
848.5600, 32702.76
849.0421, 31434.48
849.5242, 30344.08
850.0063, 29376.54
850.4885, 28523.03
850.9706, 27787.34
851.4527, 27194.51
851.9348, 26641.87
852.4169, 26101.34
852.8990, 25561.36
853.3812, 25022.39
853.8633, 24470.08
854.3454, 23888.09
854.8275, 23269.38
855.3096, 22594.36
855.7917, 21840.40
856.2739, 21023.96
856.7560, 20159.93
857.2381, 19258.60
857.7202, 18339.15
858.2023, 17409.19
858.6844, 16490.31
859.1666, 15588.41
859.6487, 14724.93
860.1308, 13936.99
860.6129, 13222.47
861.0950, 12563.41
861.5771, 11957.56
862.0593, 11389.49
862.5414, 10855.55
863.0235, 10358.46
863.5056, 9904.149
863.9877, 9490.795
864.4698, 9101.604
864.9520, 8728.857
865.4341, 8394.639
865.9162, 8118.978
866.3983, 7861.145
866.8804, 7598.212
867.3625, 7337.926
867.8447, 7097.638
868.3268, 6883.033
868.8089, 6669.591
869.2910, 6445.389
869.7731, 6233.501
870.2552, 6045.425
870.7374, 5873.207
871.2195, 5710.527
871.7016, 5555.436
872.1837, 5399.518
872.6658, 5232.784
873.1479, 5076.510
873.6301, 4947.227
874.1122, 4830.133
874.5943, 4706.427
875.0764, 4580.431
875.5585, 4468.257
876.0406, 4374.117
876.5228, 4283.591
877.0049, 4186.062
877.4870, 4081.844
877.9691, 3961.655
878.4512, 3835.205
878.9333, 3736.556
879.4155, 3669.807
879.8976, 3606.058
880.3797, 3524.905
880.8618, 3438.391
881.3439, 3374.210
881.8260, 3329.813
882.3082, 3275.598
882.7903, 3209.838
883.2724, 3144.551
883.7545, 3085.572
884.2366, 3026.314
884.7188, 2957.423
885.2009, 2880.652
885.6830, 2820.733
886.1651, 2785.135
886.6472, 2741.157
887.1293, 2677.636
887.6115, 2616.966
888.0936, 2576.689
888.5757, 2547.064
889.0578, 2504.565
889.5399, 2443.560
890.0220, 2387.775
890.5042, 2337.287
890.9863, 2291.293
891.4684, 2250.757
891.9505, 2213.692
892.4326, 2180.385
892.9147, 2149.421
893.3969, 2114.229
893.8790, 2069.400
894.3611, 2027.836
894.8432, 1999.270
895.3253, 1969.561
895.8074, 1927.764
896.2896, 1878.699
896.7717, 1828.969
897.2538, 1780.802
897.7359, 1741.021
898.2180, 1719.341
898.7001, 1701.501
899.1823, 1677.225
899.6644, 1649.530
900.1465, 1623.555
900.6286, 1598.343
901.1107, 1566.903
901.5928, 1525.219
902.0750, 1485.497
902.5571, 1462.439
903.0392, 1448.641
903.5213, 1432.188
904.0034, 1412.760
904.4855, 1388.923
904.9677, 1361.412
905.4498, 1340.502
905.9319, 1336.248
906.4140, 1338.557
906.8961, 1326.606
907.3782, 1301.822
907.8604, 1270.631
908.3425, 1233.900
908.8246, 1202.303
909.3067, 1180.545
909.7888, 1165.237
910.2709, 1152.803
910.7530, 1142.747
911.2351, 1130.784
911.7172, 1116.828
912.1993, 1101.387
912.6815, 1084.182
913.1636, 1066.557
913.6457, 1048.694
914.1278, 1031.913
914.6099, 1019.450
915.0920, 1012.688
915.5742, 1002.889
916.0563, 988.2350
916.5384, 974.3145
917.0205, 963.3960
917.5026, 952.9397
917.9847, 940.8421
918.4669, 927.2771
918.9490, 913.3346
919.4311, 895.1118
919.9132, 883.1654
920.3953, 883.3268
920.8774, 883.1552
921.3596, 877.6308
921.8417, 869.1005
922.3238, 859.1840
922.8059, 848.3483
923.2880, 841.3275
923.7701, 846.8246
924.2523, 845.5613
924.7344, 822.1489
925.2165, 799.6694
925.6986, 798.4451
926.1807, 809.3438
926.6628, 814.6243
927.1450, 810.4618
927.6271, 799.6531
928.1092, 777.1446
928.5913, 755.5859
929.0734, 739.9698
929.5555, 731.2932
930.0377, 736.4405
930.5198, 749.1857
931.0019, 749.6288
931.4840, 727.9789
931.9661, 705.3635
932.4482, 699.2767
932.9304, 698.7260
933.4125, 692.0026
933.8946, 681.7426
934.3767, 673.4590
934.8588, 668.3146
935.3409, 665.5139
935.8231, 665.4930
936.3052, 664.4197
936.7873, 655.8038
937.2694, 643.8875
937.7515, 636.6507
938.2336, 633.5776
938.7158, 631.6921
939.1979, 629.6878
939.6800, 625.2898
940.1621, 615.7125
940.6442, 603.6578
941.1263, 593.3324
941.6085, 585.1080
942.0906, 581.8840
942.5727, 583.1697
943.0548, 582.6451
943.5369, 577.3962
944.0190, 571.5730
944.5012, 571.4981
944.9833, 574.6294
945.4654, 569.6416
945.9475, 557.1685
946.4296, 545.3148
946.9117, 535.4554
947.3939, 530.0114
947.8760, 531.0474
948.3581, 534.6436
948.8402, 535.0153
949.3223, 532.0178
949.8044, 519.0216
950.2866, 494.2125
950.7687, 478.2988
951.2508, 477.1949
951.7329, 481.7503
952.2150, 486.0503
952.6971, 488.9071
953.1793, 486.8008
953.6614, 478.9553
954.1435, 470.2141
954.6256, 459.6603
955.1077, 451.5274
955.5898, 447.5159
956.0720, 445.5842
956.5541, 443.7511
957.0362, 442.4217
957.5183, 444.2249
958.0004, 452.6277
958.4825, 453.1346
958.9647, 441.6867
959.4468, 429.7086
959.9289, 419.9093
960.4110, 414.0435
960.8931, 417.0219
961.3752, 427.4601
961.8574, 424.6562
962.3395, 394.4799
962.8216, 379.8675
963.3037, 395.0977
963.7858, 410.0087
964.2679, 410.6718
964.7501, 403.1590
965.2322, 393.4260
965.7143, 380.9898
966.1964, 377.4543
966.6785, 395.3790
967.1606, 403.6001
967.6428, 392.6215
968.1249, 378.6646
968.6070, 369.1458
969.0891, 362.8168
969.5712, 356.9473
970.0533, 350.9839
970.5355, 349.6391
971.0176, 358.0772
971.4997, 364.4232
971.9818, 365.4681
972.4639, 364.4511
972.9460, 363.3089
973.4282, 361.7778
973.9103, 358.5572
974.3924, 352.8067
974.8745, 349.8137
975.3566, 354.0615
975.8387, 356.3873
976.3209, 352.4828
976.8030, 346.8112
977.2851, 343.4179
977.7672, 341.1439
978.2493, 335.4460
978.7314, 323.4152
979.2136, 317.8373
979.6957, 327.5954
980.1778, 336.9719
980.6599, 340.3755
981.1420, 339.5274
981.6241, 333.3907
982.1063, 324.8044
982.5884, 322.5157
983.0705, 331.6636
983.5526, 335.3396
984.0347, 320.9706
984.5168, 308.5497
984.9990, 312.1552
985.4811, 320.2148
985.9632, 320.1651
986.4453, 312.5602
986.9274, 304.2552
987.4095, 295.8735
987.8917, 290.7236
988.3738, 294.4522
988.8559, 296.7766
989.3380, 288.4431
989.8201, 277.3311
990.3022, 273.8354
990.7844, 277.2703
991.2665, 279.1497
991.7486, 276.3367
992.2307, 273.0583
992.7128, 270.8965
993.1949, 269.0532
993.6771, 265.6591
994.1592, 263.0904
994.6413, 265.9021
995.1234, 273.0837
995.6055, 277.3076
996.0876, 275.0955
996.5698, 271.8320
997.0519, 269.7634
997.5340, 267.7228
998.0161, 264.3424
998.4982, 260.7890
998.9803, 259.1758
999.4625, 259.2675
999.9446, 257.8548
1000.427, 251.6270
1000.909, 248.3200
1001.391, 255.3094
1001.873, 262.7506
1002.355, 264.4514
1002.837, 261.1914
1003.319, 252.3331
1003.802, 239.6036
1004.284, 231.4966
1004.766, 232.1496
1005.248, 236.2038
1005.730, 245.9615
1006.212, 253.3323
1006.694, 250.6487
1007.176, 242.4170
1007.658, 234.3498
1008.141, 227.7731
1008.623, 223.6361
1009.105, 223.5098
1009.587, 223.5486
1010.069, 222.2637
1010.551, 220.2243
1011.033, 216.1317
1011.515, 212.5183
1011.997, 213.5040
1012.480, 218.9510
1012.962, 224.3608
1013.444, 229.0614
1013.926, 231.6364
1014.408, 231.4975
1014.890, 229.0343
1015.372, 222.7322
1015.854, 215.2928
1016.337, 210.5230
1016.819, 208.5457
1017.301, 206.6391
1017.783, 203.9657
1018.265, 201.1401
1018.747, 196.7211
1019.229, 193.9988
1019.711, 198.7025
1020.193, 204.2091
1020.676, 200.9523
1021.158, 189.1893
1021.640, 177.3127
1022.122, 164.6878
1022.604, 158.1099
1023.086, 163.8022
1023.568, 171.6877
1024.050, 176.7949
1024.533, 180.1299
1025.015, 183.3317
1025.497, 186.4112
1025.979, 188.4199
1026.461, 189.6552
1026.943, 188.7740
1027.425, 182.6167
1027.907, 177.5550
1028.390, 177.3949
1028.872, 179.6133
1029.354, 181.3493
1029.836, 182.6716
1030.318, 185.3317
1030.800, 191.4810
1031.282, 194.8707
1031.764, 192.3799
1032.246, 189.5049
1032.729, 190.2159
1033.211, 190.3407
1033.693, 184.4857
1034.175, 174.1010
1034.657, 165.9331
1035.139, 159.2779
1035.621, 157.7914
1036.103, 168.0154
1036.585, 175.3298
1037.068, 172.6154
1037.550, 167.2546
1038.032, 165.6965
1038.514, 166.9622
1038.996, 166.9221
1039.478, 163.6147
1039.960, 164.3858
1040.442, 174.7891
1040.925, 180.9078
1041.407, 177.7877
1041.889, 171.0516
1042.371, 162.9491
1042.853, 155.1781
1043.335, 152.4152
1043.817, 155.6862
1044.299, 159.7999
1044.781, 166.4908
1045.264, 170.1653
1045.746, 167.9413
1046.228, 165.5057
1046.710, 167.9994
1047.192, 171.7153
1047.674, 168.2067
1048.156, 156.4447
1048.638, 148.5018
1049.120, 144.6465
1049.603, 144.2135
1050.085, 148.2653
1050.567, 152.5424
1051.049, 154.8723
1051.531, 155.2554
1052.013, 153.4701
1052.495, 149.6173
1052.977, 145.7169
1053.460, 141.4629
1053.942, 139.6625
1054.424, 141.1400
1054.906, 141.8420
1055.388, 139.2153
1055.870, 137.6441
1056.352, 144.5238
1056.834, 156.4617
1057.317, 153.1387
1057.799, 135.2621
1058.281, 132.4589
1058.763, 147.8330
1059.245, 160.3445
1059.727, 161.4499
1060.209, 156.7284
1060.691, 151.1941
1061.173, 145.4945
1061.656, 140.3671
1062.138, 136.4665
1062.620, 139.2605
1063.102, 147.4576
1063.584, 149.3713
1064.066, 141.8060
1064.548, 133.4686
1065.030, 131.4016
1065.512, 131.9095
1065.995, 127.9677
1066.477, 122.5262
1066.959, 122.0039
1067.441, 126.1885
1067.923, 135.5354
1068.405, 148.4301
1068.887, 156.8602
1069.369, 156.0670
1069.852, 149.4998
1070.334, 136.4688
1070.816, 123.3400
1071.298, 119.1253
1071.780, 120.9140
1072.262, 124.5930
1072.744, 128.4312
1073.226, 129.6721
1073.708, 126.9896
1074.191, 124.7374
1074.673, 127.2874
1075.155, 130.0452
1075.637, 129.3644
1076.119, 126.7617
1076.601, 122.5587
1077.083, 118.4244
1077.565, 118.4206
1078.047, 123.5522
1078.530, 126.6353
1079.012, 119.9975
1079.494, 116.9274
1079.976, 129.8151
1080.458, 141.7482
1080.940, 136.6384
1081.422, 123.7465
1081.904, 118.9335
1082.386, 123.4588
1082.869, 126.2856
1083.351, 124.9717
1083.833, 122.5222
1084.315, 116.6121
1084.797, 112.9308
1085.279, 116.3673
1085.761, 121.5641
1086.243, 122.4196
1086.726, 119.7448
1087.208, 117.9365
1087.690, 116.8550
1088.172, 117.1451
1088.654, 120.3386
1089.136, 121.8772
1089.618, 120.6074
1090.100, 116.8490
1090.583, 109.3855
1091.065, 101.2330
1091.547, 100.5000
1092.029, 107.9528
1092.511, 111.2107
1092.993, 109.5704
1093.475, 108.4079
1093.957, 108.9946
1094.439, 107.8419
1094.922, 102.5301
1095.404, 96.79265
1095.886, 95.77682
1096.368, 98.87205
1096.850, 105.0404
1097.332, 113.3496
1097.814, 115.2418
1098.296, 110.4175
1098.778, 104.8744
1099.261, 100.9765
1099.743, 99.35268
1100.225, 100.8344
1100.707, 104.2194
1101.189, 109.1594
1101.671, 113.6845
1102.153, 112.8601
1102.635, 107.9791
1103.118, 102.1754
1103.600, 96.90396
1104.082, 95.04395
1104.564, 98.73367
1105.046, 102.9232
1105.528, 103.3642
1106.010, 102.0195
1106.492, 99.97939
1106.974, 97.98631
1107.457, 97.60229
1107.939, 97.99516
1108.421, 96.08232
1108.903, 90.79077
1109.385, 86.93631
1109.867, 86.07122
1110.349, 87.69726
1110.831, 94.24369
1111.313, 100.5408
1111.796, 101.8492
1112.278, 100.7861
1112.760, 102.8245
1113.242, 108.0654
1113.724, 108.0860
1114.206, 96.07962
1114.688, 88.64405
1115.170, 88.57989
1115.653, 90.16167
1116.135, 93.25674
1116.617, 94.85142
1117.099, 91.15038
1117.581, 84.25256
1118.063, 80.79106
1118.545, 80.70260
1119.027, 85.97439
1119.510, 99.31946
1119.992, 102.9865
1120.474, 91.32172
1120.956, 80.69579
1121.438, 81.24942
1121.920, 86.80727
1122.402, 88.25266
1122.884, 86.73991
1123.366, 87.52288
1123.849, 90.04164
1124.331, 90.47984
1124.813, 88.82849
1125.295, 88.44408
1125.777, 90.34483
1126.259, 91.63062
1126.741, 89.85600
1127.223, 86.38521
1127.705, 82.28733
1128.188, 78.24348
1128.670, 74.38836
1129.152, 71.85929
1129.634, 74.38250
1130.116, 80.65251
1130.598, 83.43999
1131.080, 79.34260
1131.562, 74.69912
1132.045, 72.23486
1132.527, 71.61509
1133.009, 74.84863
1133.491, 77.83539
1133.973, 75.27015
1134.455, 70.17194
1134.937, 69.52104
1135.419, 74.18262
1135.901, 76.11633
1136.384, 70.38541
1136.866, 67.67107
1137.348, 70.04323
1137.830, 74.62844
1138.312, 83.59322
1138.794, 90.47874
1139.276, 87.81414
1139.758, 78.64574
1140.240, 73.36975
1140.723, 72.46659
1141.205, 72.35561
1141.687, 72.74088
1142.169, 76.98028
1142.651, 86.69117
1143.133, 91.72622
1143.615, 85.62932
1144.097, 76.42815
1144.580, 75.07664
1145.062, 79.18735
1145.544, 82.69050
1146.026, 85.13010
1146.508, 83.70410
1146.990, 79.43516
1147.472, 77.43811
1147.954, 78.97226
1148.437, 80.99995
1148.919, 81.52316
1149.401, 81.87191
1149.883, 83.53218
1150.365, 85.49283
1150.847, 87.02612
1151.329, 87.93568
1151.811, 86.95003
1152.293, 85.33637
1152.776, 87.39265
1153.258, 94.57169
1153.740, 99.06217
1154.222, 97.27586
1154.704, 93.96967
1155.186, 87.66692
1155.668, 83.49253
1156.150, 84.76994
1156.632, 89.69875
1157.115, 98.06715
1157.597, 108.2371
1158.079, 109.9118
1158.561, 98.00804
1159.043, 95.61603
1159.525, 107.1151
1160.007, 110.5003
1160.489, 98.15712
1160.972, 87.90137
1161.454, 91.34070
1161.936, 101.6188
1162.418, 109.2489
1162.900, 113.9464
1163.382, 112.7736
1163.864, 107.5317
1164.346, 107.0636
1164.828, 110.9229
1165.311, 111.9879
1165.793, 108.5514
1166.275, 106.0551
1166.757, 108.7212
1167.239, 111.5187
1167.721, 107.6211
1168.203, 103.2157
1168.685, 106.6184
1169.167, 112.3438
1169.650, 111.5060
1170.132, 106.3801
1170.614, 106.0604
1171.096, 112.8303
1171.578, 117.4261
1172.060, 115.8560
1172.542, 114.0036
1173.024, 112.9510
1173.507, 112.2045
1173.989, 111.7122
1174.471, 111.1362
1174.953, 109.3172
1175.435, 107.4509
1175.917, 110.3469
1176.399, 119.0631
1176.881, 125.1915
1177.364, 128.5927
1177.846, 130.3613
1178.328, 130.5977
1178.810, 130.9689
1179.292, 132.3603
1179.774, 133.6517
1180.256, 133.2114
1180.738, 132.3367
1181.220, 134.8765
1181.703, 138.5507
1182.185, 136.9016
1182.667, 132.0848
1183.149, 130.7119
1183.631, 133.5191
1184.113, 136.8484
1184.595, 139.1345
1185.077, 141.1996
1185.559, 142.5485
1186.042, 145.0793
1186.524, 152.5522
1187.006, 159.0683
1187.488, 158.1638
1187.970, 153.7095
1188.452, 151.1120
1188.934, 151.0435
1189.416, 157.2619
1189.899, 176.4700
1190.381, 186.4763
1190.863, 185.0847
1191.345, 179.1629
1191.827, 168.4614
1192.309, 160.5306
1192.791, 160.5331
1193.273, 165.9461
1193.755, 173.9305
1194.238, 183.1728
1194.720, 187.9946
1195.202, 189.2001
1195.684, 190.3914
1196.166, 191.5149
1196.648, 190.4814
1197.130, 186.9713
1197.612, 182.9056
1198.094, 179.3652
1198.577, 175.7990
1199.059, 170.4345
1199.541, 166.3424
1200.023, 168.0694
1200.505, 170.5730
1200.987, 167.0407
1201.469, 160.7515
1201.951, 159.4643
1202.434, 163.8985
1202.916, 166.1892
1203.398, 162.1781
1203.880, 161.9920
1204.362, 169.6797
1204.844, 172.8968
1205.326, 166.5942
1205.808, 158.8103
1206.291, 155.2120
1206.773, 153.5547
1207.255, 149.0323
1207.737, 143.4760
1208.219, 149.3919
1208.701, 163.5023
1209.183, 165.5175
1209.665, 156.6278
1210.147, 152.8736
1210.630, 157.9957
1211.112, 162.7432
1211.594, 161.2361
1212.076, 160.0918
1212.558, 169.2505
1213.040, 176.2708
1213.522, 165.9942
1214.004, 152.5884
1214.486, 152.5514
1214.969, 159.8732
1215.451, 161.7677
1215.933, 157.0200
1216.415, 150.5031
1216.897, 137.2159
1217.379, 133.9364
1217.861, 148.0848
1218.343, 154.1962
1218.826, 143.2616
1219.308, 131.0274
1219.790, 127.2753
1220.272, 128.6138
1220.754, 130.7404
1221.236, 133.2067
1221.718, 134.7974
1222.200, 135.2854
1222.682, 133.2289
1223.165, 129.3245
1223.647, 126.3159
1224.129, 124.5248
1224.611, 121.4678
1225.093, 115.6141
1225.575, 112.3689
1226.057, 116.8209
1226.539, 123.0497
1227.021, 130.2317
1227.504, 135.0266
1227.986, 135.0490
1228.468, 130.9969
1228.950, 120.5253
1229.432, 106.6071
1229.914, 104.9333
1230.396, 120.5923
1230.878, 125.2355
1231.361, 115.9621
1231.843, 109.3377
1232.325, 108.4308
1232.807, 107.6959
1233.289, 104.4145
1233.771, 102.7694
1234.253, 107.7867
1234.735, 114.5040
1235.218, 112.9235
1235.700, 107.9202
1236.182, 108.5474
1236.664, 112.5557
1237.146, 116.5969
1237.628, 118.9633
1238.110, 115.3492
1238.592, 104.8956
1239.074, 100.1252
1239.557, 114.2244
1240.039, 121.0719
1240.521, 106.7137
1241.003, 94.72906
1241.485, 93.37819
1241.967, 98.60806
1242.449, 110.3749
1242.931, 122.5506
1243.413, 122.2353
1243.896, 111.6494
1244.378, 109.7912
1244.860, 115.6742
1245.342, 117.9918
1245.824, 115.9539
1246.306, 110.0674
1246.788, 101.4370
1247.270, 95.99178
1247.753, 97.25314
1248.235, 99.96085
1248.717, 99.49137
1249.199, 98.88123
1249.681, 99.65556
1250.163, 102.1465
1250.645, 109.1694
1251.127, 116.4558
1251.609, 117.1553
1252.092, 112.1460
1252.574, 108.3481
1253.056, 105.1199
1253.538, 107.5646
1254.020, 118.6053
1254.502, 122.1104
1254.984, 114.5906
1255.466, 109.3735
1255.948, 112.2089
1256.431, 115.4939
1256.913, 112.1028
1257.395, 107.1748
1257.877, 110.4963
1258.359, 115.9799
1258.841, 111.8808
1259.323, 104.2424
1259.805, 102.2993
1260.288, 105.6243
1260.770, 112.3554
1261.252, 121.0766
1261.734, 123.2639
1262.216, 110.5123
1262.698, 104.9533
1263.180, 115.1424
1263.662, 122.8770
1264.145, 124.3069
1264.627, 122.4988
1265.109, 118.2489
1265.591, 114.3810
1266.073, 114.6626
1266.555, 117.4217
1267.037, 118.8850
1267.519, 118.6895
1268.001, 113.5366
1268.484, 106.1904
1268.966, 106.0660
1269.448, 111.6541
1269.930, 111.8038
1270.412, 103.4642
1270.894, 96.93414
1271.376, 95.67097
1271.858, 99.70212
##END=



