##NAMES=Cronstedtite
##RRUFFID=R061026
##IDEAL CHEMISTRY=(Fe^2+^,Fe^3+^)_3_(Si,Fe^3+^)_2_O_5_(OH)_4_
##LOCALITY=Kisbanya, Hungary
##OWNER=RRUFF
##SOURCE=Michael Scott
##DESCRIPTION=Black elongated prismatic crystals with triangular cross-sections, polytype 3T
##STATUS=The identification of this mineral is confirmed by single-crystal X-ray diffraction and chemical analysis.
##URL=rruff.info/R061026
##MEASURED CHEMISTRY=(Fe^2+^_2.13_Fe^3+^_0.87_)_Σ=3_(Si_1.13_Fe^3+^_0.87_)_Σ=2_O_5_(OH)_4_ ; Fe2 and Fe3 splitted by stoichiometry (sum of cations = 5) and charge balance
137.9141, 851.0491
138.3962, 873.2620
138.8783, 873.0289
139.3604, 852.9418
139.8426, 838.8594
140.3247, 831.5695
140.8068, 829.1115
141.2889, 830.1187
141.7710, 836.5089
142.2531, 841.5093
142.7353, 842.2491
143.2174, 836.9296
143.6995, 836.7916
144.1816, 844.3279
144.6637, 855.8023
145.1458, 864.0469
145.6280, 868.3232
146.1101, 870.3326
146.5922, 870.6911
147.0743, 869.3946
147.5564, 866.2951
148.0385, 859.4022
148.5207, 850.2122
149.0028, 845.1667
149.4849, 845.3919
149.9670, 849.0431
150.4491, 855.0726
150.9312, 869.1629
151.4134, 879.5056
151.8955, 884.1773
152.3776, 883.2206
152.8597, 882.2059
153.3418, 882.8170
153.8239, 882.9429
154.3061, 880.7904
154.7882, 870.2366
155.2703, 862.9791
155.7524, 863.6956
156.2345, 874.8240
156.7166, 882.4314
157.1988, 881.6945
157.6809, 876.2269
158.1630, 871.0970
158.6451, 864.8644
159.1272, 861.2800
159.6093, 862.2344
160.0915, 869.3192
160.5736, 877.9273
161.0557, 889.0501
161.5378, 900.7942
162.0199, 908.6635
162.5020, 908.8765
162.9841, 905.7305
163.4663, 901.9235
163.9484, 896.1723
164.4305, 892.3255
164.9126, 894.0693
165.3947, 900.2371
165.8768, 904.5912
166.3590, 901.9663
166.8411, 896.6816
167.3232, 893.1116
167.8053, 891.5146
168.2874, 893.0309
168.7695, 901.0856
169.2517, 915.5955
169.7338, 927.0276
170.2159, 927.7570
170.6980, 921.3367
171.1801, 913.4545
171.6622, 903.0090
172.1444, 894.0330
172.6265, 890.7061
173.1086, 893.6205
173.5907, 899.9211
174.0728, 908.8738
174.5549, 919.6082
175.0371, 929.7286
175.5192, 937.1231
176.0013, 943.3991
176.4834, 951.1907
176.9655, 961.4714
177.4476, 971.3591
177.9298, 977.0910
178.4119, 979.2794
178.8940, 980.8696
179.3761, 984.3175
179.8582, 988.5381
180.3403, 990.8908
180.8225, 989.3620
181.3046, 987.6222
181.7867, 991.7341
182.2688, 1001.443
182.7509, 1012.965
183.2330, 1023.613
183.7152, 1033.494
184.1973, 1044.135
184.6794, 1058.168
185.1615, 1072.025
185.6436, 1074.410
186.1257, 1064.386
186.6079, 1054.763
187.0900, 1062.137
187.5721, 1083.676
188.0542, 1100.710
188.5363, 1102.838
189.0184, 1094.943
189.5006, 1096.648
189.9827, 1109.233
190.4648, 1126.398
190.9469, 1142.938
191.4290, 1158.494
191.9111, 1168.209
192.3932, 1166.622
192.8754, 1155.338
193.3575, 1150.280
193.8396, 1153.644
194.3217, 1159.462
194.8038, 1156.897
195.2859, 1145.389
195.7681, 1132.367
196.2502, 1118.618
196.7323, 1104.325
197.2144, 1102.387
197.6965, 1119.368
198.1786, 1143.066
198.6608, 1141.659
199.1429, 1110.571
199.6250, 1076.083
200.1071, 1055.239
200.5892, 1048.968
201.0714, 1043.623
201.5535, 1037.407
202.0356, 1030.935
202.5177, 1026.700
202.9998, 1025.050
203.4819, 1024.418
203.9641, 1024.134
204.4462, 1024.532
204.9283, 1022.974
205.4104, 1018.636
205.8925, 1011.796
206.3746, 1004.399
206.8568, 995.6181
207.3389, 987.9529
207.8210, 984.8729
208.3031, 987.9333
208.7852, 989.0967
209.2673, 985.9058
209.7495, 978.4567
210.2316, 972.8663
210.7137, 969.8795
211.1958, 967.7448
211.6779, 964.5875
212.1600, 960.6133
212.6422, 954.9246
213.1243, 946.1873
213.6064, 933.7720
214.0885, 925.6053
214.5706, 923.0146
215.0527, 923.2941
215.5349, 922.1654
216.0170, 918.7792
216.4991, 915.9371
216.9812, 915.3157
217.4633, 918.2471
217.9454, 916.9713
218.4276, 909.3322
218.9097, 898.8257
219.3918, 892.3510
219.8739, 891.2549
220.3560, 891.7690
220.8381, 892.4724
221.3203, 893.2625
221.8024, 894.6432
222.2845, 896.8549
222.7666, 899.6131
223.2487, 901.7245
223.7308, 901.5002
224.2129, 903.3757
224.6951, 910.7554
225.1772, 929.1062
225.6593, 939.5743
226.1414, 938.9373
226.6235, 929.9811
227.1056, 923.2722
227.5878, 919.2427
228.0699, 916.7170
228.5520, 914.1948
229.0341, 908.2682
229.5162, 910.4161
229.9983, 925.6107
230.4805, 950.6520
230.9626, 966.6645
231.4447, 969.7841
231.9268, 968.3927
232.4089, 968.1801
232.8910, 970.9088
233.3732, 971.1796
233.8553, 967.9285
234.3374, 961.3946
234.8195, 954.4696
235.3016, 945.7020
235.7837, 938.1750
236.2659, 934.3104
236.7480, 934.8629
237.2301, 937.7430
237.7122, 943.3480
238.1943, 951.6219
238.6764, 959.3534
239.1586, 968.2180
239.6407, 974.9948
240.1228, 976.2891
240.6049, 968.8001
241.0870, 962.0225
241.5691, 957.6252
242.0513, 955.6733
242.5334, 954.0486
243.0155, 951.9894
243.4976, 950.9037
243.9797, 952.5394
244.4618, 958.5784
244.9440, 964.1689
245.4261, 968.8317
245.9082, 972.7561
246.3903, 972.9037
246.8724, 966.9999
247.3545, 959.2617
247.8367, 954.8076
248.3188, 956.0439
248.8009, 956.1766
249.2830, 953.0005
249.7651, 945.9050
250.2472, 940.9970
250.7294, 938.3015
251.2115, 937.8470
251.6936, 940.6014
252.1757, 950.8356
252.6578, 956.3578
253.1399, 952.5738
253.6220, 937.3542
254.1042, 926.3611
254.5863, 920.0291
255.0684, 917.6569
255.5505, 919.5373
256.0326, 930.3048
256.5147, 936.1385
256.9969, 930.7562
257.4790, 910.3475
257.9611, 899.7712
258.4432, 903.3519
258.9253, 913.0424
259.4074, 915.6734
259.8896, 907.4805
260.3717, 900.1470
260.8538, 897.6608
261.3359, 901.0768
261.8180, 903.5898
262.3001, 904.2478
262.7823, 904.8340
263.2644, 909.9816
263.7465, 924.2744
264.2286, 931.9452
264.7107, 924.6803
265.1928, 898.3183
265.6750, 880.1987
266.1571, 871.2676
266.6392, 869.5029
267.1213, 872.6970
267.6034, 883.2820
268.0855, 892.1960
268.5677, 895.4995
269.0498, 892.2566
269.5319, 889.3706
270.0140, 886.9289
270.4961, 884.7444
270.9782, 882.6650
271.4604, 880.9471
271.9425, 878.4324
272.4246, 874.0226
272.9067, 867.1888
273.3888, 863.1160
273.8709, 863.0690
274.3531, 864.1194
274.8352, 859.5808
275.3173, 847.3439
275.7994, 838.7184
276.2815, 841.2184
276.7636, 856.0214
277.2458, 863.7922
277.7279, 863.4965
278.2100, 857.4962
278.6921, 847.5605
279.1742, 832.4556
279.6563, 821.6661
280.1385, 821.8474
280.6206, 832.9547
281.1027, 840.3008
281.5848, 843.9835
282.0669, 843.1143
282.5490, 833.4117
283.0312, 813.9821
283.5133, 797.7148
283.9954, 792.0891
284.4775, 796.4059
284.9596, 799.4803
285.4417, 801.0210
285.9239, 801.5036
286.4060, 800.6760
286.8881, 798.5681
287.3702, 798.4755
287.8523, 802.8792
288.3344, 811.0748
288.8166, 819.7787
289.2987, 830.0825
289.7808, 837.1791
290.2629, 831.0034
290.7450, 812.8620
291.2271, 796.9705
291.7093, 790.5750
292.1914, 791.9343
292.6735, 795.8451
293.1556, 802.7651
293.6377, 809.2776
294.1198, 810.1043
294.6020, 806.1467
295.0841, 802.5669
295.5662, 801.0448
296.0483, 801.7192
296.5304, 806.8301
297.0125, 817.4185
297.4947, 825.9671
297.9768, 821.0231
298.4589, 806.1016
298.9410, 793.1609
299.4231, 788.8597
299.9052, 789.8577
300.3873, 791.2241
300.8694, 792.9118
301.3516, 793.7542
301.8337, 790.1771
302.3158, 784.5917
302.7979, 783.0723
303.2800, 794.4714
303.7621, 808.5753
304.2443, 811.1794
304.7264, 801.3052
305.2085, 789.4619
305.6906, 782.5968
306.1727, 779.8266
306.6548, 779.4024
307.1370, 783.7484
307.6191, 788.2919
308.1012, 787.0179
308.5833, 779.8303
309.0654, 774.9700
309.5475, 782.4869
310.0297, 794.8416
310.5118, 801.8644
310.9939, 793.9363
311.4760, 783.5590
311.9581, 779.0485
312.4402, 780.3984
312.9224, 782.8828
313.4045, 787.8204
313.8866, 791.1450
314.3687, 788.4075
314.8508, 768.0803
315.3329, 750.1368
315.8151, 746.7849
316.2972, 756.7734
316.7793, 765.1197
317.2614, 764.3680
317.7435, 759.8872
318.2256, 756.1918
318.7078, 752.8224
319.1899, 752.0750
319.6720, 757.5470
320.1541, 767.7821
320.6362, 773.2480
321.1183, 764.4506
321.6005, 753.7679
322.0826, 749.3392
322.5647, 759.9507
323.0468, 769.0017
323.5289, 773.8669
324.0110, 774.8306
324.4932, 773.3599
324.9753, 763.6955
325.4574, 755.8998
325.9395, 755.0916
326.4216, 770.8093
326.9037, 782.1464
327.3859, 788.6225
327.8680, 790.0882
328.3501, 785.8215
328.8322, 762.9622
329.3143, 745.8813
329.7964, 745.2845
330.2786, 778.1770
330.7607, 798.1451
331.2428, 799.8099
331.7249, 789.3640
332.2070, 781.3519
332.6891, 776.9037
333.1713, 773.3773
333.6534, 769.6838
334.1355, 765.2147
334.6176, 762.4977
335.0997, 762.2809
335.5818, 763.3259
336.0640, 763.2403
336.5461, 761.1083
337.0282, 759.8675
337.5103, 760.6776
337.9924, 763.7488
338.4745, 766.8002
338.9567, 769.8699
339.4388, 772.8413
339.9209, 775.3671
340.4030, 777.1802
340.8851, 780.0721
341.3672, 786.3708
341.8494, 795.3464
342.3315, 795.5027
342.8136, 785.0895
343.2957, 771.7581
343.7778, 762.8604
344.2599, 758.4729
344.7421, 758.1383
345.2242, 762.5266
345.7063, 770.7141
346.1884, 780.6043
346.6705, 792.3873
347.1526, 802.8552
347.6348, 808.7808
348.1169, 810.6276
348.5990, 810.2291
349.0811, 806.8281
349.5632, 802.5776
350.0453, 802.0368
350.5275, 804.8713
351.0096, 806.8884
351.4917, 804.2670
351.9738, 798.6630
352.4559, 793.2048
352.9380, 788.2488
353.4202, 784.3671
353.9023, 781.7474
354.3844, 780.6736
354.8665, 782.1873
355.3486, 792.2842
355.8307, 802.9612
356.3129, 804.1551
356.7950, 791.4509
357.2771, 777.3245
357.7592, 767.9532
358.2413, 763.6520
358.7234, 765.0994
359.2056, 779.6678
359.6877, 795.2596
360.1698, 802.9064
360.6519, 800.1919
361.1340, 796.7885
361.6161, 797.5350
362.0982, 799.9495
362.5804, 800.6401
363.0625, 794.9166
363.5446, 790.5043
364.0267, 791.1227
364.5088, 797.4539
364.9909, 803.4159
365.4731, 807.5412
365.9552, 810.8321
366.4373, 814.2092
366.9194, 821.1801
367.4015, 824.6843
367.8836, 822.1675
368.3658, 813.7239
368.8479, 806.3532
369.3300, 799.1047
369.8121, 793.7897
370.2942, 791.5903
370.7763, 792.9395
371.2585, 796.9113
371.7406, 806.0110
372.2227, 818.0087
372.7048, 823.1321
373.1869, 817.9222
373.6690, 810.8909
374.1512, 806.0655
374.6333, 803.6893
375.1154, 802.6647
375.5975, 802.7798
376.0796, 804.3666
376.5617, 808.6742
377.0439, 816.4341
377.5260, 823.9687
378.0081, 830.1597
378.4902, 835.1077
378.9723, 836.7952
379.4544, 834.7952
379.9366, 830.7819
380.4187, 825.9224
380.9008, 820.3290
381.3829, 817.0079
381.8650, 817.9980
382.3471, 821.9696
382.8293, 824.6499
383.3114, 825.9988
383.7935, 826.8107
384.2756, 827.8386
384.7577, 828.9396
385.2398, 829.6771
385.7220, 829.8134
386.2041, 829.5980
386.6862, 829.3329
387.1683, 828.9938
387.6504, 828.5634
388.1325, 827.7725
388.6147, 826.9449
389.0968, 826.3292
389.5789, 825.4157
390.0610, 825.9053
390.5431, 831.0609
391.0252, 838.8783
391.5074, 844.2095
391.9895, 845.2195
392.4716, 842.5467
392.9537, 834.0416
393.4358, 816.0142
393.9179, 806.3228
394.4001, 819.6243
394.8822, 843.5151
395.3643, 860.6570
395.8464, 863.3009
396.3285, 861.2778
396.8106, 855.9327
397.2928, 846.7110
397.7749, 841.4224
398.2570, 845.0223
398.7391, 850.8348
399.2212, 853.3287
399.7033, 851.2394
400.1855, 847.0451
400.6676, 837.7444
401.1497, 825.1356
401.6318, 822.4258
402.1139, 836.9828
402.5960, 852.3596
403.0782, 859.1745
403.5603, 854.5581
404.0424, 848.6223
404.5245, 839.8897
405.0066, 831.3038
405.4887, 830.4622
405.9709, 839.4462
406.4530, 848.7188
406.9351, 853.4406
407.4172, 853.5073
407.8993, 857.1224
408.3814, 865.6068
408.8636, 873.9918
409.3457, 874.6177
409.8278, 868.1151
410.3099, 862.4877
410.7920, 861.6723
411.2741, 863.2427
411.7563, 860.4773
412.2384, 853.2794
412.7205, 846.2329
413.2026, 843.4433
413.6847, 843.5042
414.1668, 843.1709
414.6490, 840.6204
415.1311, 838.9643
415.6132, 844.2425
416.0953, 854.1619
416.5774, 859.6260
417.0595, 850.1860
417.5417, 837.0140
418.0238, 829.6262
418.5059, 829.7808
418.9880, 834.9305
419.4701, 849.0821
419.9522, 866.5030
420.4344, 877.9737
420.9165, 877.2280
421.3986, 872.8502
421.8807, 867.0234
422.3628, 859.7053
422.8449, 854.3464
423.3270, 850.5109
423.8091, 849.5565
424.2913, 852.5851
424.7734, 865.8669
425.2555, 875.8850
425.7376, 880.2847
426.2197, 880.0505
426.7018, 880.5853
427.1840, 883.0460
427.6661, 884.8051
428.1482, 884.6485
428.6303, 882.4847
429.1124, 878.1783
429.5945, 870.4822
430.0767, 861.8048
430.5588, 856.1848
431.0409, 853.6874
431.5230, 854.3040
432.0051, 859.8431
432.4872, 869.4608
432.9694, 853.3814
433.4515, 878.4694
433.9336, 892.5156
434.4157, 896.1133
434.8978, 857.9682
435.3799, 873.7253
435.8621, 867.8808
436.3442, 861.1506
436.8263, 884.4942
437.3084, 852.4205
437.7905, 875.2872
438.2726, 876.2227
438.7548, 887.1955
439.2369, 876.4334
439.7190, 872.3845
440.2011, 890.0776
440.6832, 895.7320
441.1653, 882.4678
441.6475, 894.0787
442.1296, 861.2458
442.6117, 867.4130
443.0938, 890.4069
443.5759, 878.2356
444.0580, 890.2439
444.5402, 893.0433
445.0223, 853.9919
445.5044, 887.7232
445.9865, 887.4121
446.4686, 896.2441
446.9507, 887.4984
447.4329, 865.3589
447.9150, 851.1514
448.3971, 848.8966
448.8792, 850.3844
449.3613, 852.0871
449.8434, 853.0897
450.3256, 857.2365
450.8077, 866.3547
451.2898, 876.8668
451.7719, 883.3314
452.2540, 885.3990
452.7361, 884.1362
453.2183, 877.0171
453.7004, 866.0994
454.1825, 869.0511
454.6646, 888.3215
455.1467, 906.7301
455.6288, 904.5956
456.1110, 876.6822
456.5931, 888.9606
457.0752, 895.9226
457.5573, 897.8539
458.0394, 879.6867
458.5215, 887.4725
459.0037, 884.8575
459.4858, 881.8161
459.9679, 893.2546
460.4500, 878.0107
460.9321, 889.2197
461.4142, 889.8691
461.8964, 895.3514
462.3785, 890.3687
462.8606, 888.6183
463.3427, 897.3362
463.8248, 900.2577
464.3069, 894.0703
464.7891, 899.8598
465.2712, 884.2504
465.7533, 887.1381
466.2354, 886.3299
466.7175, 890.3187
467.1996, 906.3500
467.6818, 916.2170
468.1639, 917.2701
468.6460, 912.6335
469.1281, 907.4905
469.6102, 900.7906
470.0923, 895.3428
470.5745, 891.8791
471.0566, 890.4345
471.5387, 890.2390
472.0208, 891.2615
472.5029, 893.6060
472.9850, 898.5533
473.4672, 906.2914
473.9493, 910.7350
474.4314, 910.4670
474.9135, 906.9672
475.3956, 901.1533
475.8777, 893.4482
476.3599, 889.7811
476.8420, 897.9063
477.3241, 911.6296
477.8062, 917.2449
478.2883, 913.0403
478.7704, 908.9737
479.2526, 917.5405
479.7347, 931.4412
480.2168, 938.6444
480.6989, 926.6997
481.1810, 914.0594
481.6631, 913.4415
482.1453, 922.5161
482.6274, 929.6896
483.1095, 927.4052
483.5916, 923.6921
484.0737, 923.8395
484.5558, 931.7922
485.0379, 936.5178
485.5201, 934.8110
486.0022, 929.4357
486.4843, 924.2863
486.9664, 915.3069
487.4485, 912.3589
487.9306, 920.1161
488.4128, 938.0124
488.8949, 949.0665
489.3770, 952.2259
489.8591, 950.9539
490.3412, 946.3115
490.8233, 937.6567
491.3055, 932.4211
491.7876, 931.7097
492.2697, 934.0540
492.7518, 938.3389
493.2339, 944.2350
493.7160, 947.8283
494.1982, 945.6821
494.6803, 940.1876
495.1624, 935.5801
495.6445, 931.8232
496.1266, 931.1647
496.6087, 939.6672
497.0909, 951.0790
497.5730, 956.0223
498.0551, 948.2780
498.5372, 939.6603
499.0193, 937.4097
499.5014, 940.0904
499.9836, 944.1803
500.4657, 950.6606
500.9478, 956.2978
501.4299, 959.3075
501.9120, 958.9914
502.3941, 959.0366
502.8763, 962.5065
503.3584, 965.0118
503.8405, 962.6757
504.3226, 951.6043
504.8047, 941.9670
505.2868, 934.6772
505.7690, 929.4667
506.2511, 925.1588
506.7332, 921.3057
507.2153, 919.7504
507.6974, 923.9408
508.1795, 933.6938
508.6617, 932.3260
509.1438, 917.4233
509.6259, 901.2236
510.1080, 900.4096
510.5901, 911.3807
511.0722, 917.3025
511.5544, 912.3820
512.0365, 901.7132
512.5186, 889.6672
513.0007, 876.9989
513.4828, 867.3508
513.9650, 864.5892
514.4471, 864.8090
514.9292, 864.5663
515.4113, 863.3683
515.8934, 862.2839
516.3755, 863.8671
516.8576, 864.9848
517.3397, 862.2527
517.8218, 848.7943
518.3040, 838.0851
518.7861, 833.7607
519.2682, 834.9866
519.7503, 836.5473
520.2324, 841.3070
520.7145, 842.9230
521.1967, 837.4385
521.6788, 822.0356
522.1609, 812.8987
522.6430, 811.3622
523.1251, 814.0172
523.6072, 817.2667
524.0894, 821.1305
524.5715, 825.2465
525.0536, 830.4966
525.5357, 835.0085
526.0178, 833.6928
526.4999, 826.8904
526.9821, 819.2652
527.4642, 814.0943
527.9463, 809.9101
528.4284, 803.1312
528.9105, 792.8233
529.3926, 785.9285
529.8748, 793.8900
530.3569, 806.7057
530.8390, 811.2375
531.3211, 794.4957
531.8032, 777.4995
532.2853, 769.6424
532.7675, 768.2786
533.2496, 763.5375
533.7317, 745.9023
534.2138, 731.0684
534.6959, 726.2473
535.1780, 734.4476
535.6602, 740.9903
536.1423, 745.1203
536.6244, 748.4980
537.1065, 753.5763
537.5886, 761.8408
538.0707, 765.4274
538.5529, 761.6485
539.0350, 753.6855
539.5171, 749.1241
539.9992, 747.9567
540.4813, 750.1764
540.9634, 758.5795
541.4456, 770.1400
541.9277, 776.4564
542.4098, 777.1977
542.8919, 775.4758
543.3740, 772.6227
543.8561, 769.4299
544.3383, 767.2131
544.8204, 767.2535
545.3025, 766.8718
545.7846, 763.5892
546.2667, 758.7097
546.7488, 755.2299
547.2310, 751.6989
547.7131, 752.0335
548.1952, 760.8727
548.6773, 780.5266
549.1594, 789.8541
549.6415, 780.8735
550.1237, 768.2323
550.6058, 762.0983
551.0879, 765.2507
551.5700, 767.1207
552.0521, 766.5510
552.5342, 764.9440
553.0164, 765.4626
553.4985, 768.3314
553.9806, 769.8594
554.4627, 767.8201
554.9448, 763.6447
555.4269, 761.0829
555.9091, 760.1330
556.3912, 761.1647
556.8733, 766.8605
557.3554, 773.9020
557.8375, 777.0762
558.3196, 774.7949
558.8018, 771.4432
559.2839, 768.7230
559.7660, 767.0601
560.2481, 767.0220
560.7302, 769.9191
561.2123, 773.3069
561.6945, 777.1360
562.1766, 781.0985
562.6587, 783.2431
563.1408, 783.2271
563.6229, 781.5401
564.1050, 777.0031
564.5872, 767.0394
565.0693, 766.9466
565.5514, 781.2896
566.0335, 797.8653
566.5156, 800.8350
566.9977, 789.7394
567.4799, 782.1541
567.9620, 782.4035
568.4441, 786.9517
568.9262, 788.7768
569.4083, 788.5694
569.8904, 790.2266
570.3726, 799.2277
570.8547, 809.5052
571.3368, 812.1852
571.8189, 807.1027
572.3010, 804.3055
572.7831, 813.6793
573.2653, 826.0267
573.7474, 833.2045
574.2295, 832.9847
574.7116, 828.5156
575.1937, 814.7264
575.6758, 798.3232
576.1580, 791.4905
576.6401, 801.9059
577.1222, 811.2863
577.6043, 816.2700
578.0864, 817.0877
578.5685, 814.3732
579.0507, 806.3624
579.5328, 800.4478
580.0149, 803.1497
580.4970, 813.5372
580.9791, 818.8638
581.4612, 817.8924
581.9434, 815.3560
582.4255, 817.1356
582.9076, 821.5827
583.3897, 824.7691
583.8718, 825.9606
584.3539, 824.7636
584.8361, 819.1106
585.3182, 810.5884
585.8003, 803.5181
586.2824, 800.7339
586.7645, 799.1307
587.2466, 797.1095
587.7288, 794.4426
588.2109, 792.8812
588.6930, 794.9499
589.1751, 796.4157
589.6572, 794.0547
590.1393, 783.4429
590.6215, 780.2346
591.1036, 787.7801
591.5857, 799.3286
592.0678, 803.7388
592.5499, 800.6432
593.0320, 796.1367
593.5142, 791.3217
593.9963, 786.8464
594.4784, 785.3163
594.9605, 786.2568
595.4426, 785.8335
595.9247, 779.8275
596.4069, 771.9778
596.8890, 767.6005
597.3711, 767.5060
597.8532, 765.5948
598.3353, 754.6877
598.8174, 742.2740
599.2996, 735.3729
599.7817, 742.5479
600.2638, 746.2803
600.7459, 740.0232
601.2280, 729.4139
601.7101, 725.6603
602.1923, 732.2333
602.6744, 739.4104
603.1565, 745.5063
603.6386, 750.2392
604.1207, 750.1020
604.6028, 744.1442
605.0850, 738.8270
605.5671, 738.2906
606.0492, 742.0764
606.5313, 749.7430
607.0134, 761.9086
607.4955, 772.7372
607.9777, 778.7371
608.4598, 779.2437
608.9419, 772.1824
609.4240, 748.7924
609.9061, 730.0892
610.3882, 732.0344
610.8704, 746.8181
611.3525, 757.6960
611.8346, 754.9294
612.3167, 753.2782
612.7988, 759.8256
613.2809, 774.1679
613.7631, 780.1257
614.2452, 774.8195
614.7273, 766.0317
615.2094, 755.9703
615.6915, 743.5776
616.1736, 743.6003
616.6558, 759.5734
617.1379, 777.2026
617.6200, 777.9239
618.1021, 765.2960
618.5842, 752.7857
619.0663, 742.1013
619.5485, 736.0244
620.0306, 739.2578
620.5127, 749.5632
620.9948, 761.3367
621.4769, 778.7982
621.9590, 790.8146
622.4412, 786.0984
622.9233, 765.8612
623.4054, 756.1211
623.8875, 773.5248
624.3696, 792.8854
624.8517, 802.4465
625.3339, 800.2928
625.8160, 794.1111
626.2981, 781.8390
626.7802, 768.8011
627.2623, 760.5965
627.7444, 757.2725
628.2266, 757.0807
628.7087, 760.4167
629.1908, 765.3876
629.6729, 769.6271
630.1550, 772.9877
630.6371, 774.8381
631.1193, 772.2317
631.6014, 769.9216
632.0835, 772.7488
632.5656, 780.0489
633.0477, 787.5056
633.5298, 796.5761
634.0120, 802.7540
634.4941, 801.8920
634.9762, 790.1993
635.4583, 785.1024
635.9404, 792.5057
636.4225, 801.6714
636.9047, 803.3110
637.3868, 794.7419
637.8689, 789.1582
638.3510, 787.9919
638.8331, 789.7968
639.3152, 793.0983
639.7973, 797.6517
640.2794, 801.2330
640.7615, 801.3746
641.2437, 801.7820
641.7258, 810.6766
642.2079, 825.3193
642.6900, 835.1559
643.1721, 829.7032
643.6542, 821.0505
644.1364, 816.9530
644.6185, 818.2598
645.1006, 820.9976
645.5827, 826.0531
646.0648, 830.8960
646.5469, 833.8619
647.0291, 833.9721
647.5112, 834.6309
647.9933, 836.6242
648.4754, 838.0372
648.9575, 834.1315
649.4396, 824.4820
649.9218, 823.7230
650.4039, 838.7198
650.8860, 857.5871
651.3681, 854.6603
651.8502, 836.3649
652.3323, 826.7026
652.8145, 846.6147
653.2966, 873.3246
653.7787, 889.9379
654.2608, 896.6340
654.7429, 898.1988
655.2250, 889.8312
655.7072, 882.2299
656.1893, 882.7068
656.6714, 895.4703
657.1535, 900.7589
657.6356, 894.5441
658.1177, 885.5645
658.5999, 880.2536
659.0820, 878.4440
659.5641, 882.3813
660.0462, 893.9119
660.5283, 907.2507
661.0104, 914.5726
661.4926, 916.6565
661.9747, 916.4268
662.4568, 913.6870
662.9389, 910.6277
663.4210, 908.8361
663.9031, 908.5780
664.3853, 910.5148
664.8674, 919.3636
665.3495, 926.3832
665.8316, 925.7037
666.3137, 917.1912
666.7958, 912.7035
667.2780, 915.5217
667.7601, 919.3432
668.2422, 921.4730
668.7243, 921.8900
669.2064, 919.4194
669.6885, 912.3652
670.1707, 907.4031
670.6528, 914.8467
671.1349, 931.3106
671.6170, 940.0160
672.0991, 937.6889
672.5812, 928.8928
673.0634, 912.3129
673.5455, 893.6858
674.0276, 882.9279
674.5097, 892.1097
674.9918, 901.4174
675.4739, 902.1368
675.9561, 896.6584
676.4382, 891.9981
676.9203, 891.6199
677.4024, 888.8432
677.8845, 879.4948
678.3666, 864.8436
678.8488, 862.7465
679.3309, 877.3329
679.8130, 889.0847
680.2951, 882.7706
680.7772, 862.9142
681.2593, 851.5635
681.7415, 849.4159
682.2236, 850.0627
682.7057, 848.6758
683.1878, 846.3894
683.6699, 844.4196
684.1520, 842.5517
684.6342, 842.5262
685.1163, 847.5059
685.5984, 853.7956
686.0805, 857.2117
686.5626, 856.4352
687.0447, 853.3830
687.5269, 847.2104
688.0090, 839.3333
688.4911, 832.8314
688.9732, 828.0138
689.4553, 822.4550
689.9374, 814.6896
690.4196, 806.1721
690.9017, 800.3257
691.3838, 797.2221
691.8659, 797.0781
692.3480, 805.1611
692.8301, 813.0074
693.3123, 809.0659
693.7944, 793.8638
694.2765, 782.4996
694.7586, 785.8964
695.2407, 791.7158
695.7228, 792.4459
696.2050, 786.2210
696.6871, 778.5811
697.1692, 766.9110
697.6513, 757.0489
698.1334, 755.6722
698.6155, 764.0438
699.0977, 767.4904
699.5798, 763.8298
700.0619, 757.7950
700.5440, 756.2574
701.0261, 757.6805
701.5082, 757.1440
701.9904, 751.3041
702.4725, 745.9707
702.9546, 747.2709
703.4367, 752.4377
703.9188, 755.9007
704.4009, 755.9683
704.8831, 753.9332
705.3652, 748.7704
705.8473, 741.4583
706.3294, 736.6675
706.8115, 736.2056
707.2936, 734.3488
707.7758, 727.0889
708.2579, 715.9763
708.7400, 715.2728
709.2221, 725.4409
709.7042, 733.1201
710.1863, 721.6828
710.6685, 703.6050
711.1506, 702.6710
711.6327, 721.3373
712.1148, 737.2532
712.5969, 735.0378
713.0790, 724.9617
713.5612, 714.7552
714.0433, 703.3976
714.5254, 697.2114
715.0075, 698.4802
715.4896, 703.3381
715.9717, 708.6807
716.4539, 715.2649
716.9360, 718.6456
717.4181, 717.8846
717.9002, 714.4171
718.3823, 707.8361
718.8644, 699.8392
719.3466, 698.6555
719.8287, 711.5347
720.3108, 726.6913
720.7929, 732.2964
721.2750, 730.7680
721.7571, 728.0226
722.2393, 725.8677
722.7214, 723.4551
723.2035, 720.5998
723.6856, 717.2627
724.1677, 712.8691
724.6498, 705.4376
725.1320, 700.6164
725.6141, 700.9515
726.0962, 706.0842
726.5783, 714.4592
727.0604, 726.6003
727.5425, 733.9457
728.0247, 726.3652
728.5068, 711.1221
728.9889, 700.0018
729.4710, 694.1667
729.9531, 690.6534
730.4352, 684.4712
730.9174, 681.9078
731.3995, 690.1832
731.8816, 720.9345
732.3637, 735.9896
732.8458, 721.6174
733.3279, 700.9873
733.8101, 697.5112
734.2922, 715.4682
734.7743, 726.0550
735.2564, 725.2805
735.7385, 719.3469
736.2206, 715.8029
736.7028, 714.5695
737.1849, 716.0730
737.6670, 723.2758
738.1491, 728.1299
738.6312, 721.7529
739.1133, 708.3831
739.5955, 695.7751
740.0776, 681.9066
740.5597, 674.1127
741.0418, 677.6888
741.5239, 688.7183
742.0060, 696.8205
742.4882, 700.9166
742.9703, 705.0760
743.4524, 711.5156
743.9345, 718.6035
744.4166, 719.8690
744.8987, 715.5433
745.3809, 709.8049
745.8630, 703.3138
746.3451, 697.9135
746.8272, 696.4114
747.3093, 698.5541
747.7914, 700.9993
748.2736, 681.0975
748.7557, 706.7219
749.2378, 721.3046
749.7199, 725.4388
750.2020, 687.8301
750.6841, 704.1237
751.1663, 698.8157
751.6484, 692.6219
752.1305, 716.5019
752.6126, 684.9647
753.0947, 708.3678
753.5768, 709.8396
754.0590, 721.3490
754.5411, 711.1232
755.0232, 707.6108
755.5053, 725.8402
755.9874, 732.0310
756.4695, 715.6033
756.9517, 725.2615
757.4338, 728.4999
757.9159, 719.0592
758.3980, 710.0163
758.8801, 699.7325
759.3622, 691.7056
759.8444, 691.7920
760.3265, 700.5398
760.8086, 708.7440
761.2907, 715.2369
761.7728, 719.2391
762.2549, 718.2097
762.7370, 713.8316
763.2191, 710.2563
763.7012, 709.9046
764.1833, 709.7421
764.6655, 707.3230
765.1476, 703.9073
765.6297, 702.2946
766.1118, 702.7880
766.5939, 705.5474
767.0760, 712.5110
767.5582, 721.2071
768.0403, 721.2650
768.5224, 711.2973
769.0045, 707.7449
769.4866, 722.3006
769.9688, 743.9924
770.4509, 750.8581
770.9330, 744.8955
771.4151, 735.0994
771.8972, 721.2223
772.3793, 709.8645
772.8615, 707.0122
773.3436, 711.9660
773.8257, 714.6402
774.3078, 710.9817
774.7899, 708.0123
775.2720, 708.5472
775.7542, 712.4159
776.2363, 714.8134
776.7184, 715.4070
777.2005, 716.9423
777.6826, 722.3036
778.1647, 729.6982
778.6469, 736.5353
779.1290, 742.5437
779.6111, 744.1635
780.0932, 732.8220
780.5753, 720.6631
781.0574, 717.8985
781.5396, 727.7425
782.0217, 736.0523
782.5038, 743.3063
782.9859, 746.9094
783.4680, 744.2961
783.9501, 734.5488
784.4323, 725.3253
784.9144, 715.9772
785.3965, 711.6129
785.8786, 721.3577
786.3607, 738.9174
786.8428, 752.0966
787.3250, 759.1364
787.8071, 760.9521
788.2892, 754.6655
788.7713, 745.4182
789.2534, 737.4628
789.7355, 728.8102
790.2177, 727.6357
790.6998, 740.2700
791.1819, 753.7566
791.6640, 752.6594
792.1461, 735.8617
792.6282, 725.4147
793.1104, 724.1714
793.5925, 727.9653
794.0746, 732.1838
794.5567, 737.6225
795.0388, 746.8396
795.5209, 763.6534
796.0031, 777.0665
796.4852, 781.6154
796.9673, 779.7194
797.4494, 774.3029
797.9315, 762.5660
798.4136, 752.5779
798.8958, 744.4557
799.3779, 738.8416
799.8600, 736.0518
800.3421, 736.2090
800.8242, 744.2545
801.3063, 764.4708
801.7885, 785.5476
802.2706, 793.6542
802.7527, 792.0582
803.2348, 786.5558
803.7169, 774.4545
804.1990, 764.4928
804.6812, 760.8056
805.1633, 761.0287
805.6454, 759.4576
806.1275, 751.2416
806.6096, 753.9979
807.0917, 776.0018
807.5739, 804.2560
808.0560, 808.7212
808.5381, 792.5781
809.0202, 777.9545
809.5023, 773.0711
809.9844, 772.6963
810.4666, 772.1310
810.9487, 771.9468
811.4308, 773.3752
811.9129, 780.9761
812.3950, 785.3403
812.8771, 780.3655
813.3593, 771.3416
813.8414, 772.7229
814.3235, 788.3530
814.8056, 797.1597
815.2877, 789.9380
815.7698, 776.3328
816.2520, 780.4136
816.7341, 797.2628
817.2162, 808.1658
817.6983, 796.8746
818.1804, 783.2156
818.6625, 781.1039
819.1447, 787.1958
819.6268, 792.2132
820.1089, 795.4812
820.5910, 795.6579
821.0731, 790.5110
821.5552, 782.7168
822.0374, 781.0288
822.5195, 785.7626
823.0016, 790.9577
823.4837, 793.8522
823.9658, 796.3928
824.4479, 803.0118
824.9301, 812.1664
825.4122, 818.7176
825.8943, 818.5392
826.3764, 817.2222
826.8585, 816.7504
827.3406, 817.1294
827.8228, 817.9752
828.3049, 819.3431
828.7870, 821.2200
829.2691, 824.2847
829.7512, 827.3958
830.2333, 824.5789
830.7155, 817.0566
831.1976, 814.9557
831.6797, 831.1212
832.1618, 848.3772
832.6439, 847.7890
833.1260, 834.2617
833.6082, 822.6562
834.0903, 815.4330
834.5724, 813.7236
835.0545, 821.3320
835.5366, 834.0516
836.0187, 835.8894
836.5009, 824.4981
836.9830, 815.7595
837.4651, 815.1547
837.9472, 820.6275
838.4293, 832.3021
838.9114, 847.4067
839.3936, 856.3916
839.8757, 848.6368
840.3578, 839.3344
840.8399, 836.1853
841.3220, 837.9346
841.8041, 839.8038
842.2863, 842.1334
842.7684, 843.2255
843.2505, 842.1323
843.7326, 839.8906
844.2147, 840.2853
844.6968, 842.9233
845.1790, 843.2357
845.6611, 836.4318
846.1432, 829.6931
846.6253, 833.3265
847.1074, 843.0323
847.5895, 848.5597
848.0717, 838.0793
848.5538, 832.9549
849.0359, 844.6364
849.5180, 863.3670
850.0001, 863.8335
850.4822, 841.8267
850.9644, 826.7582
851.4465, 829.0812
851.9286, 839.0090
852.4107, 837.3029
852.8928, 828.3690
853.3749, 824.0655
853.8571, 837.2673
854.3392, 847.4852
854.8213, 838.8003
855.3034, 820.8149
855.7855, 815.0769
856.2676, 832.4753
856.7498, 840.6011
857.2319, 830.7875
857.7140, 814.0480
858.1961, 813.5434
858.6782, 826.6420
859.1603, 834.3251
859.6425, 829.8162
860.1246, 820.9230
860.6067, 808.3765
861.0888, 798.2405
861.5709, 800.2695
862.0530, 837.6049
862.5352, 859.7679
863.0173, 854.9752
863.4994, 837.8696
863.9815, 826.7878
864.4636, 821.8254
864.9457, 824.0025
865.4279, 835.1522
865.9100, 847.9800
866.3921, 855.0200
866.8742, 856.4653
867.3563, 851.6467
867.8384, 835.7891
868.3206, 824.2613
868.8027, 822.5436
869.2848, 828.8672
869.7669, 842.6832
870.2490, 871.9579
870.7311, 883.5986
871.2133, 872.1394
871.6954, 853.6740
872.1775, 845.5545
872.6596, 845.8501
873.1417, 850.8389
873.6238, 861.2272
874.1060, 867.3882
874.5881, 855.7628
875.0702, 840.8410
875.5523, 836.9144
876.0344, 854.3607
876.5165, 859.9475
876.9987, 846.5614
877.4808, 832.7045
877.9629, 835.7299
878.4450, 853.3536
878.9271, 864.2679
879.4092, 867.3983
879.8914, 866.8135
880.3735, 863.3409
880.8556, 859.4211
881.3377, 854.8279
881.8198, 848.4326
882.3019, 855.3347
882.7841, 900.8960
883.2662, 935.1960
883.7483, 927.7852
884.2304, 879.6660
884.7125, 864.3380
885.1946, 883.7354
885.6768, 904.8448
886.1588, 899.7339
886.6409, 885.3514
887.1230, 886.6927
887.6052, 901.9976
888.0873, 912.9842
888.5694, 906.7477
889.0515, 900.2880
889.5336, 902.4157
890.0157, 911.0044
890.4979, 910.6049
890.9800, 899.1536
891.4621, 890.8044
891.9442, 893.7131
892.4263, 901.8924
892.9084, 900.9745
893.3906, 894.7596
893.8727, 896.1295
894.3548, 923.2627
894.8369, 946.4603
895.3190, 951.4196
895.8011, 942.2079
896.2833, 930.4624
896.7654, 912.9016
897.2475, 902.9772
897.7296, 905.8205
898.2117, 914.3807
898.6938, 914.1142
899.1760, 908.3219
899.6581, 908.1192
900.1402, 921.3646
900.6223, 933.5930
901.1044, 935.4708
901.5865, 931.0084
902.0687, 925.0723
902.5508, 912.1724
903.0329, 911.4503
903.5150, 929.8870
903.9971, 949.7316
904.4792, 941.9100
904.9614, 914.1526
905.4435, 904.4653
905.9256, 921.0981
906.4077, 939.5370
906.8898, 942.6314
907.3719, 936.9678
907.8541, 927.3530
908.3362, 910.0873
908.8183, 903.6017
909.3004, 913.6675
909.7825, 925.9516
910.2646, 927.2912
910.7468, 919.8425
911.2289, 928.3389
911.7110, 953.2071
912.1931, 974.5915
912.6752, 976.0477
913.1573, 968.9012
913.6395, 961.3101
914.1216, 954.0120
914.6037, 949.0263
915.0858, 945.2733
915.5679, 946.1611
916.0500, 956.5972
916.5322, 972.5063
917.0143, 969.1445
917.4964, 947.9922
917.9785, 931.8253
918.4606, 939.5148
918.9427, 952.2440
919.4249, 948.8465
919.9070, 935.5229
920.3891, 929.1221
920.8712, 940.4211
921.3533, 951.5011
921.8354, 960.8471
922.3176, 967.0403
922.7997, 965.2892
923.2818, 955.8890
923.7639, 950.9899
924.2460, 955.5769
924.7281, 960.1646
925.2103, 948.7842
925.6924, 932.8826
926.1745, 929.8601
926.6566, 957.8351
927.1387, 974.4559
927.6208, 970.3919
928.1030, 958.3160
928.5851, 947.1668
929.0672, 936.8203
929.5493, 939.4419
930.0314, 957.2585
930.5135, 971.2788
930.9957, 957.8385
931.4778, 934.2921
931.9599, 919.0743
932.4420, 914.3539
932.9241, 916.6960
933.4063, 934.6201
933.8884, 949.1739
934.3705, 952.0919
934.8526, 944.0047
935.3347, 929.2805
935.8168, 908.1037
936.2990, 896.3538
936.7811, 914.8873
937.2632, 939.7619
937.7453, 942.0673
938.2274, 927.5984
938.7095, 917.6265
939.1917, 924.8053
939.6738, 928.9235
940.1559, 924.4451
940.6380, 915.2998
941.1201, 909.8464
941.6022, 908.1049
942.0844, 910.8441
942.5665, 921.1826
943.0486, 928.5311
943.5307, 915.6721
944.0128, 894.5612
944.4949, 882.3402
944.9771, 886.4401
945.4592, 895.0430
945.9413, 912.5590
946.4234, 927.4060
946.9055, 925.0509
947.3876, 906.7478
947.8698, 901.8344
948.3519, 912.7386
948.8340, 923.7208
949.3161, 918.9565
949.7982, 909.0618
950.2803, 904.0217
950.7625, 905.0446
951.2446, 907.1602
951.7267, 908.1492
952.2088, 912.6523
952.6909, 925.8044
953.1730, 943.8367
953.6552, 945.4940
954.1373, 932.1997
954.6194, 917.4525
955.1015, 905.1353
955.5836, 897.5303
956.0657, 898.2131
956.5479, 904.9990
957.0300, 912.5452
957.5121, 923.1560
957.9942, 928.8577
958.4763, 927.8493
958.9584, 922.4774
959.4406, 913.3300
959.9227, 902.4420
960.4048, 901.6608
960.8869, 916.8060
961.3690, 928.6355
961.8511, 917.1154
962.3333, 898.8154
962.8154, 890.0414
963.2975, 894.8208
963.7796, 902.3565
964.2617, 913.8738
964.7438, 925.3596
965.2260, 936.1356
965.7081, 944.2307
966.1902, 940.3875
966.6723, 925.6473
967.1544, 910.6738
967.6365, 896.7846
968.1187, 889.3635
968.6008, 896.8194
969.0829, 914.9490
969.5650, 922.1732
970.0471, 915.9466
970.5292, 907.7284
971.0114, 899.2208
971.4935, 893.0562
971.9756, 895.8401
972.4577, 904.4832
972.9398, 911.4224
973.4219, 912.5859
973.9041, 914.5164
974.3862, 922.5862
974.8683, 930.7198
975.3504, 932.4433
975.8325, 926.5220
976.3146, 919.7432
976.7968, 911.8842
977.2789, 906.1675
977.7610, 907.3572
978.2431, 911.6213
978.7252, 913.2903
979.2073, 911.9001
979.6895, 911.1519
980.1716, 912.8214
980.6537, 914.8680
981.1358, 916.5834
981.6179, 918.0544
982.1000, 919.9238
982.5822, 922.1884
983.0643, 923.9710
983.5464, 927.3765
984.0285, 926.9675
984.5106, 911.1608
984.9927, 888.7602
985.4749, 876.1854
985.9570, 887.6031
986.4391, 894.3096
986.9212, 891.6104
987.4033, 887.9467
987.8854, 895.5723
988.3676, 912.0192
988.8497, 924.1674
989.3318, 930.3727
989.8139, 933.5142
990.2960, 936.5232
990.7781, 936.7648
991.2603, 930.8066
991.7424, 917.8652
992.2245, 907.3660
992.7066, 898.4853
993.1887, 894.8428
993.6708, 901.3274
994.1530, 912.1252
994.6351, 911.1736
995.1172, 902.1299
995.5993, 896.8868
996.0814, 905.3428
996.5635, 913.5881
997.0457, 916.5849
997.5278, 916.2163
998.0099, 914.5730
998.4920, 911.0358
998.9741, 910.5610
999.4562, 914.1400
999.9384, 918.7094
1000.420, 922.0696
1000.903, 923.7609
1001.385, 923.5565
1001.867, 921.5884
1002.349, 915.6936
1002.831, 899.2693
1003.313, 886.3181
1003.795, 884.0626
1004.277, 890.8487
1004.760, 898.4578
1005.242, 906.3472
1005.724, 907.3787
1006.206, 888.1088
1006.688, 870.1546
1007.170, 871.5282
1007.652, 885.9029
1008.134, 899.6606
1008.616, 913.0673
1009.099, 922.9736
1009.581, 930.0906
1010.063, 931.6219
1010.545, 917.2382
1011.027, 895.3501
1011.509, 892.6987
1011.991, 914.8007
1012.473, 930.0125
1012.955, 910.8540
1013.438, 889.1323
1013.920, 885.5961
1014.402, 899.2540
1014.884, 909.3715
1015.366, 916.1492
1015.848, 918.0117
1016.330, 912.1736
1016.812, 903.1290
1017.294, 893.1843
1017.777, 885.2463
1018.259, 885.7064
1018.741, 910.7626
1019.223, 923.9135
1019.705, 916.7314
1020.187, 901.9810
1020.669, 895.1776
1021.151, 895.1896
1021.634, 893.1600
1022.116, 888.0449
1022.598, 883.7858
1023.080, 882.6032
1023.562, 883.9952
1024.044, 888.4111
1024.526, 895.8920
1025.008, 902.7166
1025.490, 910.1259
1025.973, 912.0895
1026.455, 903.2442
1026.937, 891.0974
1027.419, 892.5748
1027.901, 902.1661
1028.383, 906.1596
1028.865, 895.2042
1029.347, 884.9943
1029.830, 877.6138
1030.312, 874.2313
1030.794, 878.3826
1031.276, 890.4176
1031.758, 893.2884
1032.240, 885.8027
1032.722, 877.5846
1033.204, 877.0303
1033.687, 878.6990
1034.169, 877.5668
1034.651, 873.6080
1035.133, 871.1581
1035.615, 872.1892
1036.097, 870.3819
1036.579, 862.5656
1037.061, 852.8888
1037.543, 850.9335
1038.026, 854.0767
1038.508, 854.9993
1038.990, 849.8848
1039.472, 846.3714
1039.954, 849.2896
1040.436, 853.8952
1040.918, 856.3448
1041.400, 856.3383
1041.882, 857.9959
1042.365, 861.5092
1042.847, 863.4172
1043.329, 858.1198
1043.811, 852.4932
1044.293, 856.6391
1044.775, 867.1349
1045.257, 869.1236
1045.739, 851.2935
1046.222, 842.3148
1046.704, 850.1071
1047.186, 863.3953
1047.668, 864.2123
1048.150, 855.9592
1048.632, 847.8585
1049.114, 841.3675
1049.596, 836.8632
1050.078, 835.8622
1050.561, 835.7758
1051.043, 834.0237
1051.525, 830.8045
1052.007, 834.7874
1052.489, 846.3558
1052.971, 854.9871
1053.453, 853.0477
1053.935, 847.9489
1054.417, 846.8774
1054.900, 848.7996
1055.382, 851.9281
1055.864, 860.7800
1056.346, 862.2314
1056.828, 853.9352
1057.310, 841.6467
1057.792, 828.6436
1058.274, 816.9863
1058.757, 813.0522
1059.239, 817.1076
1059.721, 823.4076
1060.203, 832.2094
1060.685, 839.1696
1061.167, 842.9772
1061.649, 843.3737
1062.131, 836.7520
1062.614, 823.0491
1063.096, 815.8967
1063.578, 820.4583
1064.060, 829.6261
1064.542, 842.2593
1065.024, 852.1127
1065.506, 849.4791
1065.988, 823.3043
1066.470, 814.4366
1066.953, 829.9158
1067.435, 843.8484
1067.917, 833.8462
1068.399, 810.9792
1068.881, 803.2333
1069.363, 808.0291
1069.845, 815.5037
1070.327, 827.3441
1070.809, 833.1327
1071.292, 823.4958
1071.774, 811.6986
1072.256, 822.9152
1072.738, 855.1158
1073.220, 862.7109
1073.702, 838.6752
1074.184, 813.1131
1074.666, 812.3716
1075.148, 819.0562
1075.631, 819.9403
1076.113, 814.1726
1076.595, 807.9982
1077.077, 800.7063
1077.559, 795.9903
1078.041, 794.9216
1078.523, 797.6047
1079.005, 808.2396
1079.488, 821.7048
1079.970, 827.9980
1080.452, 818.3765
1080.934, 815.7952
1081.416, 827.2164
1081.898, 839.4966
1082.380, 843.0724
1082.862, 839.0300
1083.344, 831.9084
1083.827, 822.6791
1084.309, 817.2023
1084.791, 823.9204
1085.273, 829.7357
1085.755, 828.2159
1086.237, 821.5438
1086.719, 811.2333
1087.201, 796.0245
1087.683, 792.9064
1088.166, 805.4995
1088.648, 820.3239
1089.130, 827.3065
1089.612, 827.9860
1090.094, 819.3422
1090.576, 801.2784
1091.058, 800.6237
1091.540, 826.8551
1092.023, 847.6300
1092.505, 851.8864
1092.987, 845.2441
1093.469, 832.3179
1093.951, 817.7947
1094.433, 812.2908
1094.915, 823.0176
1095.397, 832.5071
1095.880, 837.2049
1096.362, 838.6793
1096.844, 836.3046
1097.326, 830.9805
1097.808, 831.6116
1098.290, 837.4332
1098.772, 842.0629
1099.254, 840.3309
1099.736, 838.1833
1100.219, 839.2502
1100.701, 841.8199
1101.183, 843.3660
1101.665, 844.2658
1102.147, 840.4010
1102.629, 830.7894
1103.111, 822.1619
1103.593, 821.0357
1104.075, 823.8397
1104.558, 829.0290
1105.040, 835.7137
1105.522, 836.1325
1106.004, 826.8732
1106.486, 818.7360
1106.968, 813.1318
1107.450, 812.3550
1107.932, 824.7556
1108.415, 843.3485
1108.897, 855.4117
1109.379, 857.9276
1109.861, 854.1647
1110.343, 838.1785
1110.825, 825.2374
1111.307, 823.8640
1111.789, 831.3937
1112.271, 837.9783
1112.754, 842.9611
1113.236, 843.1236
1113.718, 834.3135
1114.200, 824.0868
1114.682, 811.6696
1115.164, 802.4843
1115.646, 803.9103
1116.128, 817.2206
1116.610, 825.7239
1117.093, 829.0054
1117.575, 830.0779
1118.057, 833.7697
1118.539, 833.9553
1119.021, 818.8864
1119.503, 796.1023
1119.985, 792.7617
1120.467, 817.3282
1120.950, 832.9510
1121.432, 833.3483
1121.914, 827.5569
1122.396, 826.1655
1122.878, 824.9081
1123.360, 815.4467
1123.842, 796.5057
1124.324, 787.1755
1124.807, 792.8260
1125.289, 801.3038
1125.771, 808.7803
1126.253, 816.7917
1126.735, 833.6973
1127.217, 852.9913
1127.699, 857.2827
1128.181, 835.7263
1128.663, 818.0890
1129.146, 814.7915
1129.628, 816.5724
1130.110, 819.5269
1130.592, 823.3928
1131.074, 827.6002
1131.556, 831.5910
1132.038, 832.4473
1132.520, 827.3114
1133.002, 820.5424
1133.485, 810.1401
1133.967, 801.8646
1134.449, 803.4992
1134.931, 816.0298
1135.413, 823.4470
1135.895, 825.1932
1136.377, 826.4407
1136.859, 833.4424
1137.342, 839.0884
1137.824, 835.3698
1138.306, 825.7999
1138.788, 823.0796
1139.270, 829.7378
1139.752, 830.4208
1140.234, 821.8379
1140.716, 812.9334
1141.198, 814.0324
1141.681, 819.5502
1142.163, 822.5679
1142.645, 822.7120
1143.127, 828.2725
1143.609, 844.3651
1144.091, 852.7900
1144.573, 846.8531
1145.055, 834.4014
1145.537, 826.4354
1146.020, 821.5165
1146.502, 816.7426
1146.984, 810.3235
1147.466, 810.2336
1147.948, 821.0934
1148.430, 831.5674
1148.912, 836.2788
1149.394, 836.8494
1149.877, 835.8620
1150.359, 834.7054
1150.841, 837.9829
1151.323, 853.9421
1151.805, 862.0498
1152.287, 851.5428
1152.769, 837.7736
1153.251, 832.1606
1153.734, 833.5521
1154.216, 832.0558
1154.698, 827.9186
1155.180, 822.6188
1155.662, 813.1721
1156.144, 807.1650
1156.626, 811.7070
1157.108, 819.0947
1157.590, 819.2211
1158.073, 812.3395
1158.555, 811.7065
1159.037, 818.1276
1159.519, 825.8463
1160.001, 835.6643
1160.483, 840.6011
1160.965, 828.9313
1161.447, 810.6335
1161.929, 813.0516
1162.412, 838.2225
1162.894, 851.4122
1163.376, 846.1625
1163.858, 835.7206
1164.340, 827.8669
1164.822, 823.7096
1165.304, 825.9521
1165.786, 833.7614
1166.269, 837.4191
1166.751, 836.1895
1167.233, 836.1367
1167.715, 840.1673
1168.197, 842.4080
1168.679, 830.1138
1169.161, 815.4188
1169.643, 814.6418
1170.125, 833.9883
1170.608, 840.4286
1171.090, 830.5471
1171.572, 821.6270
1172.054, 821.6854
1172.536, 826.3076
1173.018, 831.6777
1173.500, 836.1688
1173.982, 836.3864
1174.464, 826.2310
1174.947, 826.7621
1175.429, 842.9580
1175.911, 856.2270
1176.393, 850.3458
1176.875, 836.5371
1177.357, 838.7761
1177.839, 850.3211
1178.321, 854.9525
1178.804, 840.6885
1179.286, 828.8302
1179.768, 819.2011
1180.250, 815.2986
1180.732, 826.4871
1181.214, 843.3623
1181.696, 840.1050
1182.178, 821.5354
1182.661, 811.8019
1183.143, 830.3431
1183.625, 843.6680
1184.107, 845.6284
1184.589, 843.1663
1185.071, 845.5845
1185.553, 850.1016
1186.035, 847.7713
1186.517, 838.6852
1187.000, 831.7996
1187.482, 830.4685
1187.964, 832.7449
1188.446, 839.5029
1188.928, 847.6729
1189.410, 852.7419
1189.892, 854.8474
1190.374, 852.6940
1190.856, 845.9724
1191.339, 843.3406
1191.821, 855.7687
1192.303, 864.3473
1192.785, 862.0541
1193.267, 852.0989
1193.749, 837.4669
1194.231, 821.6697
1194.713, 819.7445
1195.195, 837.8865
1195.678, 851.1632
1196.160, 842.8209
1196.642, 831.7526
1197.124, 826.4089
1197.606, 825.7042
1198.088, 826.4055
1198.570, 828.1865
1199.052, 828.8311
1199.535, 825.3195
1200.017, 827.6569
1200.499, 851.8351
1200.981, 871.8359
1201.463, 868.3043
1201.945, 846.8917
1202.427, 844.8159
1202.909, 857.7137
1203.391, 863.2499
1203.874, 847.5411
1204.356, 831.7054
1204.838, 822.0948
1205.320, 819.3743
1205.802, 825.8328
1206.284, 840.4125
1206.766, 851.4785
1207.248, 859.2074
1207.730, 864.5378
1208.213, 866.9962
1208.695, 868.4622
1209.177, 870.9463
1209.659, 871.7771
1210.141, 866.5847
1210.623, 856.1004
1211.105, 854.0899
1211.587, 859.9874
1212.070, 866.7112
1212.552, 873.2961
1213.034, 875.8728
1213.516, 867.8257
1213.998, 858.4641
1214.480, 859.2949
1214.962, 869.3367
1215.444, 878.1572
1215.927, 884.6379
1216.409, 883.2048
1216.891, 857.1406
1217.373, 838.1563
1217.855, 847.5319
1218.337, 866.4141
1218.819, 863.8290
1219.301, 843.4357
1219.783, 840.9274
1220.266, 858.5543
1220.748, 875.1414
1221.230, 877.1939
1221.712, 875.6467
1222.194, 873.7145
1222.676, 872.6600
1223.158, 876.7186
1223.640, 884.3476
1224.122, 883.4719
1224.605, 872.3649
1225.087, 865.1195
1225.569, 877.8775
1226.051, 887.2419
1226.533, 881.6865
1227.015, 867.3946
1227.497, 855.1373
1227.979, 845.8750
1228.462, 846.3306
1228.944, 858.4766
1229.426, 868.7936
1229.908, 870.6846
1230.390, 867.6238
1230.872, 857.4929
1231.354, 846.8800
1231.836, 858.2808
1232.318, 884.8333
1232.801, 898.2481
1233.283, 891.5040
1233.765, 880.8088
1234.247, 865.4112
1234.729, 858.1794
1235.211, 867.0099
1235.693, 885.3741
1236.175, 898.2249
1236.657, 905.2219
1237.140, 904.1740
1237.622, 892.2246
1238.104, 883.2314
1238.586, 886.3481
1239.068, 887.5468
1239.550, 877.9053
1240.032, 865.0661
1240.514, 875.8547
1240.997, 900.4855
1241.479, 910.5199
1241.961, 891.8488
1242.443, 882.9126
1242.925, 900.2772
1243.407, 915.6101
1243.889, 913.0995
1244.371, 901.0614
1244.854, 901.3563
1245.336, 908.9087
1245.818, 912.2265
1246.300, 906.1683
1246.782, 901.1704
1247.264, 899.1564
1247.746, 896.8361
1248.228, 891.4390
1248.710, 885.5069
1249.193, 885.3812
1249.675, 888.6747
1250.157, 891.0624
1250.639, 893.8498
1251.121, 887.3853
1251.603, 866.2344
1252.085, 851.3349
1252.567, 858.7462
1253.049, 876.4412
1253.532, 887.4777
1254.014, 893.6475
1254.496, 898.8308
1254.978, 907.5871
1255.460, 902.6349
1255.942, 880.0855
1256.424, 862.0717
1256.906, 865.3034
1257.389, 878.5016
1257.871, 891.9846
1258.353, 903.5961
1258.835, 908.8143
1259.317, 905.8439
1259.799, 900.5316
1260.281, 891.9199
1260.763, 889.8144
1261.245, 911.4532
1261.728, 932.1186
1262.210, 921.0041
1262.692, 896.5842
1263.174, 890.1716
1263.656, 906.8075
1264.138, 918.6035
1264.620, 925.4964
1265.102, 923.4778
1265.584, 895.8436
1266.067, 873.3253
1266.549, 886.2472
1267.031, 912.4250
1267.513, 919.7827
1267.995, 906.7312
1268.477, 908.4890
1268.959, 924.2447
1269.441, 936.0462
1269.924, 926.0521
1270.406, 917.5535
1270.888, 926.0892
1271.370, 938.5953
1271.852, 941.8792
1272.334, 936.8846
1272.816, 933.1959
1273.298, 930.5495
1273.781, 925.8123
1274.263, 913.2831
1274.745, 904.1912
1275.227, 901.4670
1275.709, 903.2814
1276.191, 912.0715
1276.673, 923.6570
1277.155, 917.5380
1277.637, 898.3855
1278.120, 888.6731
1278.602, 906.3972
1279.084, 921.2677
1279.566, 930.0024
1280.048, 934.0849
1280.530, 934.7540
1281.012, 931.8976
1281.494, 923.0421
1281.976, 910.3640
1282.459, 900.7553
1282.941, 893.9810
1283.423, 896.1987
1283.905, 910.6455
1284.387, 923.0405
1284.869, 913.0151
1285.351, 899.7109
1285.833, 911.2712
1286.316, 938.5015
1286.798, 953.9279
1287.280, 952.6500
1287.762, 953.6804
1288.244, 958.8122
1288.726, 957.4112
1289.208, 929.0218
1289.690, 902.4481
1290.172, 907.6638
1290.655, 929.4492
1291.137, 934.9064
1291.619, 922.2692
1292.101, 921.6556
1292.583, 933.7656
1293.065, 942.8828
1293.547, 932.9381
1294.029, 923.9731
##END=



