##NAMES=Crookesite
##RRUFFID=R061025
##IDEAL CHEMISTRY=Cu_7_TlSe_4_
##LOCALITY=Skrikerum mine, Ostergotland, Sweden
##OWNER=RRUFF
##SOURCE=Michael Scott
##DESCRIPTION=Lead gray metallic massive associated with umangite
##STATUS=The identification of this mineral is confirmed by single-crystal X-ray diffraction and chemical analysis.
##URL=rruff.info/R061025
##MEASURED CHEMISTRY=Cu_7.01_Tl_0.99_Se_4.00_ ; (light phase) Tl not measured but estimated by difference and stoichiometry ; the dark phase is Cu_3.00_Se_2.00_ (umangite, with trace amounts of S)
154.7938, 3249.502
155.2759, 3271.324
155.7580, 3292.207
156.2401, 3314.774
156.7223, 3345.707
157.2044, 3390.723
157.6865, 3442.163
158.1686, 3486.948
158.6507, 3522.138
159.1328, 3570.655
159.6150, 3661.002
160.0971, 3775.028
160.5792, 3880.019
161.0613, 3958.872
161.5434, 4028.530
162.0255, 4116.398
162.5077, 4227.150
162.9898, 4339.048
163.4719, 4439.843
163.9540, 4532.796
164.4361, 4622.265
164.9182, 4715.006
165.4004, 4802.669
165.8825, 4867.113
166.3646, 4902.854
166.8467, 4930.885
167.3288, 4968.090
167.8109, 5005.541
168.2931, 5027.779
168.7752, 5023.966
169.2573, 5002.897
169.7394, 4983.507
170.2215, 4968.802
170.7036, 4949.043
171.1858, 4923.580
171.6679, 4890.184
172.1500, 4843.204
172.6321, 4775.406
173.1142, 4694.423
173.5963, 4618.759
174.0785, 4550.380
174.5606, 4483.738
175.0427, 4415.002
175.5248, 4346.050
176.0069, 4280.481
176.4890, 4220.696
176.9712, 4164.899
177.4533, 4105.943
177.9354, 4038.257
178.4175, 3977.754
178.8996, 3934.258
179.3817, 3900.376
179.8639, 3864.315
180.3460, 3816.964
180.8281, 3764.734
181.3102, 3729.424
181.7923, 3720.120
182.2744, 3713.256
182.7566, 3705.261
183.2387, 3692.834
183.7208, 3669.850
184.2029, 3629.571
184.6850, 3579.090
185.1671, 3542.801
185.6493, 3529.517
186.1314, 3516.752
186.6135, 3499.221
187.0956, 3477.177
187.5777, 3449.400
188.0598, 3412.209
188.5419, 3372.098
189.0241, 3351.781
189.5062, 3370.565
189.9883, 3377.903
190.4704, 3350.840
190.9525, 3308.147
191.4346, 3274.575
191.9168, 3264.083
192.3989, 3268.161
192.8810, 3260.302
193.3631, 3231.708
193.8452, 3205.485
194.3273, 3187.435
194.8095, 3174.782
195.2916, 3165.707
195.7737, 3160.501
196.2558, 3155.409
196.7379, 3137.802
197.2200, 3094.081
197.7022, 3062.060
198.1843, 3057.099
198.6664, 3063.521
199.1485, 3065.978
199.6306, 3058.168
200.1127, 3040.632
200.5949, 3012.625
201.0770, 2962.610
201.5591, 2923.632
202.0412, 2904.933
202.5233, 2896.610
203.0054, 2890.311
203.4876, 2882.948
203.9697, 2873.286
204.4518, 2857.443
204.9339, 2829.078
205.4160, 2807.426
205.8981, 2796.739
206.3803, 2792.395
206.8624, 2793.882
207.3445, 2801.060
207.8266, 2805.710
208.3087, 2789.261
208.7908, 2735.565
209.2730, 2697.737
209.7551, 2691.589
210.2372, 2696.717
210.7193, 2697.633
211.2014, 2689.878
211.6835, 2680.544
212.1657, 2681.825
212.6478, 2699.045
213.1299, 2712.361
213.6120, 2711.809
214.0941, 2712.003
214.5762, 2725.496
215.0584, 2754.100
215.5405, 2785.809
216.0226, 2802.953
216.5047, 2798.914
216.9868, 2803.103
217.4689, 2824.215
217.9511, 2849.287
218.4332, 2870.832
218.9153, 2888.129
219.3974, 2906.306
219.8795, 2932.152
220.3616, 2967.694
220.8438, 3000.987
221.3259, 3032.222
221.8080, 3060.632
222.2901, 3083.148
222.7722, 3101.115
223.2543, 3120.481
223.7365, 3150.986
224.2186, 3195.804
224.7007, 3224.489
225.1828, 3217.732
225.6649, 3210.561
226.1470, 3219.076
226.6292, 3240.555
227.1113, 3262.641
227.5934, 3277.169
228.0755, 3284.079
228.5576, 3280.612
229.0397, 3257.711
229.5219, 3233.485
230.0040, 3214.919
230.4861, 3200.765
230.9682, 3187.952
231.4503, 3177.950
231.9324, 3168.178
232.4146, 3140.077
232.8967, 3074.823
233.3788, 3017.924
233.8609, 2988.337
234.3430, 2977.551
234.8251, 2973.061
235.3073, 2972.717
235.7894, 2970.854
236.2715, 2946.152
236.7536, 2881.655
237.2357, 2827.188
237.7178, 2801.253
238.2000, 2794.274
238.6821, 2796.648
239.1642, 2807.626
239.6463, 2820.485
240.1284, 2819.445
240.6105, 2797.242
241.0927, 2782.602
241.5748, 2791.237
242.0569, 2809.468
242.5390, 2825.643
243.0211, 2836.498
243.5032, 2843.832
243.9854, 2845.430
244.4675, 2837.874
244.9496, 2845.898
245.4317, 2888.853
245.9138, 2944.630
246.3959, 2996.113
246.8781, 3040.045
247.3602, 3084.468
247.8423, 3136.230
248.3244, 3195.722
248.8065, 3259.640
249.2886, 3329.664
249.7708, 3402.360
250.2529, 3475.567
250.7350, 3549.149
251.2171, 3621.774
251.6992, 3690.729
252.1813, 3756.922
252.6635, 3826.330
253.1456, 3899.879
253.6277, 3976.561
254.1098, 4058.284
254.5919, 4143.687
255.0740, 4222.091
255.5562, 4290.557
256.0383, 4348.074
256.5204, 4390.713
257.0025, 4414.671
257.4846, 4432.314
257.9667, 4466.732
258.4489, 4506.851
258.9310, 4511.599
259.4131, 4455.641
259.8952, 4363.356
260.3773, 4266.700
260.8594, 4167.154
261.3416, 4057.298
261.8237, 3926.638
262.3058, 3780.510
262.7879, 3633.453
263.2700, 3487.878
263.7521, 3342.185
264.2343, 3191.597
264.7164, 3036.856
265.1985, 2887.119
265.6806, 2741.653
266.1627, 2608.568
266.6448, 2507.688
267.1270, 2457.728
267.6091, 2412.200
268.0912, 2343.471
268.5733, 2259.940
269.0554, 2185.491
269.5375, 2128.286
270.0197, 2086.241
270.5018, 2057.625
270.9839, 2047.357
271.4660, 2034.905
271.9481, 2010.652
272.4302, 1982.049
272.9124, 1961.890
273.3945, 1954.205
273.8766, 1949.826
274.3587, 1934.066
274.8408, 1899.296
275.3229, 1876.091
275.8051, 1873.167
276.2872, 1878.084
276.7693, 1882.173
277.2514, 1883.450
277.7335, 1880.307
278.2156, 1869.696
278.6978, 1848.999
279.1799, 1838.587
279.6620, 1844.682
280.1441, 1854.071
280.6262, 1863.023
281.1083, 1869.655
281.5905, 1870.329
282.0726, 1861.573
282.5547, 1844.140
283.0368, 1831.265
283.5189, 1823.422
284.0010, 1819.358
284.4832, 1823.998
284.9653, 1831.234
285.4474, 1831.048
285.9295, 1817.982
286.4116, 1796.438
286.8937, 1780.320
287.3759, 1768.922
287.8580, 1764.977
288.3401, 1776.990
288.8222, 1791.660
289.3043, 1794.160
289.7864, 1780.674
290.2685, 1763.169
290.7506, 1762.665
291.2328, 1790.319
291.7149, 1805.379
292.1970, 1795.638
292.6791, 1782.076
293.1612, 1776.379
293.6433, 1779.215
294.1255, 1784.083
294.6076, 1783.119
295.0897, 1775.558
295.5718, 1776.873
296.0539, 1801.510
296.5360, 1819.090
297.0182, 1811.591
297.5003, 1787.022
297.9824, 1764.530
298.4645, 1755.346
298.9466, 1756.698
299.4287, 1759.923
299.9109, 1765.331
300.3930, 1771.998
300.8751, 1781.771
301.3572, 1791.761
301.8393, 1798.888
302.3214, 1803.055
302.8036, 1802.121
303.2857, 1788.163
303.7678, 1759.665
304.2499, 1743.393
304.7320, 1756.992
305.2141, 1782.214
305.6963, 1798.189
306.1784, 1803.338
306.6605, 1802.147
307.1426, 1796.292
307.6247, 1786.233
308.1068, 1770.817
308.5890, 1745.223
309.0711, 1723.918
309.5532, 1730.891
310.0353, 1763.995
310.5174, 1788.524
310.9995, 1789.357
311.4817, 1779.529
311.9638, 1775.437
312.4459, 1778.849
312.9280, 1780.988
313.4101, 1774.101
313.8922, 1758.297
314.3744, 1745.178
314.8565, 1733.935
315.3386, 1725.991
315.8207, 1723.369
316.3028, 1724.908
316.7849, 1727.458
317.2671, 1729.550
317.7492, 1731.044
318.2313, 1731.279
318.7134, 1729.781
319.1955, 1727.708
319.6776, 1724.286
320.1598, 1720.706
320.6419, 1717.894
321.1240, 1716.232
321.6061, 1716.533
322.0882, 1720.646
322.5703, 1732.623
323.0525, 1738.894
323.5346, 1734.750
324.0167, 1729.465
324.4988, 1729.351
324.9809, 1734.000
325.4630, 1738.383
325.9452, 1737.365
326.4273, 1730.785
326.9094, 1728.759
327.3915, 1734.532
327.8736, 1741.734
328.3557, 1750.409
328.8379, 1759.052
329.3200, 1765.508
329.8021, 1768.543
330.2842, 1769.101
330.7663, 1768.650
331.2484, 1765.476
331.7306, 1766.005
332.2127, 1778.260
332.6948, 1791.269
333.1769, 1795.438
333.6590, 1788.696
334.1411, 1777.492
334.6233, 1766.303
335.1054, 1755.311
335.5875, 1747.673
336.0696, 1743.843
336.5517, 1743.926
337.0338, 1750.958
337.5160, 1763.280
337.9981, 1769.662
338.4802, 1757.536
338.9623, 1739.295
339.4444, 1736.895
339.9265, 1753.151
340.4087, 1771.372
340.8908, 1781.792
341.3729, 1784.542
341.8550, 1782.979
342.3371, 1775.066
342.8192, 1764.787
343.3014, 1753.341
343.7835, 1741.207
344.2656, 1729.326
344.7477, 1717.379
345.2298, 1707.335
345.7119, 1704.012
346.1941, 1710.683
346.6762, 1717.276
347.1583, 1721.137
347.6404, 1725.297
348.1225, 1734.223
348.6046, 1748.081
349.0868, 1761.381
349.5689, 1768.034
350.0510, 1766.845
350.5331, 1765.601
351.0152, 1766.471
351.4973, 1765.174
351.9795, 1759.472
352.4616, 1750.310
352.9437, 1739.207
353.4258, 1726.694
353.9079, 1714.058
354.3900, 1706.378
354.8722, 1706.058
355.3543, 1706.865
355.8364, 1709.077
356.3185, 1710.952
356.8006, 1711.570
357.2827, 1710.598
357.7649, 1706.744
358.2470, 1696.386
358.7291, 1679.033
359.2112, 1667.054
359.6933, 1664.182
360.1754, 1664.615
360.6576, 1665.146
361.1397, 1665.617
361.6218, 1665.683
362.1039, 1665.733
362.5860, 1665.101
363.0681, 1662.043
363.5503, 1656.182
364.0324, 1650.439
364.5145, 1646.046
364.9966, 1643.149
365.4787, 1641.629
365.9608, 1640.721
366.4430, 1642.361
366.9251, 1650.490
367.4072, 1661.971
367.8893, 1668.646
368.3714, 1667.352
368.8535, 1662.510
369.3357, 1661.113
369.8178, 1665.131
370.2999, 1666.328
370.7820, 1661.378
371.2641, 1655.561
371.7462, 1652.259
372.2283, 1651.942
372.7104, 1654.757
373.1926, 1661.812
373.6747, 1672.530
374.1568, 1674.507
374.6389, 1654.836
375.1210, 1640.986
375.6031, 1642.394
376.0853, 1650.813
376.5674, 1655.458
377.0495, 1652.104
377.5316, 1645.483
378.0137, 1644.713
378.4958, 1653.107
378.9780, 1655.785
379.4601, 1642.556
379.9422, 1630.068
380.4243, 1628.594
380.9064, 1636.800
381.3885, 1645.046
381.8707, 1647.483
382.3528, 1644.733
382.8349, 1637.899
383.3170, 1625.164
383.7991, 1613.660
384.2813, 1606.739
384.7634, 1603.841
385.2455, 1604.845
385.7276, 1611.024
386.2097, 1618.905
386.6918, 1628.572
387.1740, 1638.293
387.6561, 1640.690
388.1382, 1631.844
388.6203, 1619.029
389.1024, 1612.582
389.5845, 1613.270
390.0667, 1615.576
390.5488, 1621.724
391.0309, 1627.200
391.5130, 1627.418
391.9951, 1622.855
392.4772, 1617.646
392.9594, 1614.639
393.4415, 1613.752
393.9236, 1614.371
394.4057, 1618.530
394.8878, 1621.796
395.3699, 1622.859
395.8521, 1622.965
396.3342, 1624.181
396.8163, 1626.975
397.2984, 1628.922
397.7805, 1625.256
398.2626, 1613.694
398.7448, 1607.069
399.2269, 1609.051
399.7090, 1613.395
400.1911, 1620.422
400.6732, 1627.764
401.1553, 1629.396
401.6375, 1618.062
402.1196, 1601.356
402.6017, 1595.802
403.0838, 1603.148
403.5659, 1611.600
404.0480, 1620.556
404.5302, 1624.831
405.0123, 1615.138
405.4944, 1585.750
405.9765, 1560.356
406.4586, 1552.468
406.9407, 1556.563
407.4229, 1563.914
407.9050, 1573.077
408.3871, 1581.910
408.8692, 1588.605
409.3513, 1593.030
409.8334, 1594.481
410.3156, 1591.428
410.7977, 1587.115
411.2798, 1583.015
411.7619, 1578.771
412.2440, 1571.938
412.7261, 1560.993
413.2083, 1550.622
413.6904, 1553.671
414.1725, 1583.468
414.6546, 1601.136
415.1367, 1598.475
415.6188, 1590.222
416.1010, 1583.912
416.5831, 1580.932
417.0652, 1580.597
417.5473, 1583.466
418.0294, 1588.649
418.5115, 1591.203
418.9937, 1590.194
419.4758, 1588.638
419.9579, 1587.067
420.4400, 1586.082
420.9221, 1587.456
421.4042, 1593.345
421.8864, 1596.316
422.3685, 1585.876
422.8506, 1567.207
423.3327, 1558.881
423.8148, 1567.094
424.2969, 1579.721
424.7791, 1583.257
425.2612, 1576.979
425.7433, 1572.382
426.2254, 1569.078
426.7075, 1568.598
427.1896, 1573.595
427.6718, 1582.314
428.1539, 1590.751
428.6360, 1597.017
429.1181, 1600.550
429.6002, 1599.597
430.0823, 1590.000
430.5645, 1582.432
431.0466, 1577.649
431.5287, 1574.455
432.0108, 1571.833
432.4929, 1569.841
432.9750, 1569.551
433.4572, 1573.132
433.9393, 1579.479
434.4214, 1580.689
434.9035, 1575.639
435.3856, 1567.736
435.8677, 1551.422
436.3499, 1535.922
436.8320, 1534.113
437.3141, 1551.614
437.7962, 1572.166
438.2783, 1585.566
438.7604, 1592.029
439.2426, 1590.628
439.7247, 1579.468
440.2068, 1567.289
440.6889, 1563.185
441.1710, 1567.574
441.6531, 1570.796
442.1353, 1572.320
442.6174, 1572.794
443.0995, 1571.082
443.5816, 1568.678
444.0637, 1568.864
444.5458, 1573.187
445.0280, 1580.058
445.5101, 1586.529
445.9922, 1594.648
446.4743, 1598.020
446.9564, 1593.375
447.4385, 1587.531
447.9207, 1583.813
448.4028, 1582.384
448.8849, 1582.658
449.3670, 1585.866
449.8491, 1589.345
450.3312, 1583.124
450.8134, 1563.600
451.2955, 1548.192
451.7776, 1543.689
452.2597, 1546.581
452.7418, 1554.848
453.2239, 1569.433
453.7060, 1581.428
454.1881, 1586.010
454.6703, 1585.074
455.1524, 1579.837
455.6345, 1570.504
456.1166, 1563.741
456.5987, 1566.733
457.0808, 1577.654
457.5630, 1575.963
458.0451, 1542.882
458.5272, 1521.756
459.0093, 1533.681
459.4914, 1558.886
459.9735, 1573.076
460.4557, 1569.870
460.9378, 1560.633
461.4199, 1560.104
461.9020, 1570.099
462.3841, 1574.196
462.8662, 1568.276
463.3484, 1560.935
463.8305, 1552.088
464.3126, 1544.718
464.7947, 1544.482
465.2768, 1555.655
465.7589, 1568.390
466.2411, 1569.417
466.7232, 1560.053
467.2053, 1553.948
467.6874, 1556.069
468.1695, 1558.830
468.6516, 1551.320
469.1338, 1534.516
469.6159, 1524.098
470.0980, 1527.868
470.5801, 1533.871
471.0622, 1533.273
471.5443, 1527.925
472.0265, 1523.336
472.5086, 1521.887
472.9907, 1523.966
473.4728, 1531.200
473.9549, 1551.217
474.4370, 1561.395
474.9192, 1555.624
475.4013, 1547.004
475.8834, 1542.335
476.3655, 1541.302
476.8476, 1540.274
477.3297, 1536.190
477.8119, 1531.678
478.2940, 1535.073
478.7761, 1548.924
479.2582, 1556.258
479.7403, 1546.340
480.2224, 1531.993
480.7046, 1528.181
481.1867, 1535.711
481.6688, 1542.922
482.1509, 1546.797
482.6330, 1547.112
483.1151, 1539.525
483.5973, 1525.866
484.0794, 1521.061
484.5615, 1536.669
485.0436, 1564.627
485.5257, 1575.646
486.0078, 1549.100
486.4900, 1532.094
486.9721, 1531.322
487.4542, 1536.720
487.9363, 1541.845
488.4184, 1545.341
488.9005, 1547.799
489.3827, 1550.089
489.8648, 1551.631
490.3469, 1548.404
490.8290, 1536.938
491.3111, 1529.690
491.7932, 1536.075
492.2754, 1546.304
492.7575, 1550.946
493.2396, 1548.687
493.7217, 1544.844
494.2038, 1540.990
494.6859, 1537.951
495.1681, 1537.303
495.6502, 1539.150
496.1323, 1542.477
496.6144, 1547.386
497.0965, 1552.976
497.5786, 1554.433
498.0608, 1546.815
498.5429, 1541.880
499.0250, 1543.887
499.5071, 1547.332
499.9892, 1546.011
500.4713, 1539.947
500.9535, 1535.011
501.4356, 1537.314
501.9177, 1545.571
502.3998, 1549.260
502.8819, 1545.924
503.3640, 1543.306
503.8462, 1546.018
504.3283, 1549.849
504.8104, 1550.405
505.2925, 1546.828
505.7746, 1542.564
506.2567, 1540.005
506.7389, 1537.971
507.2210, 1531.932
507.7031, 1521.731
508.1852, 1518.880
508.6673, 1533.883
509.1494, 1561.715
509.6316, 1575.948
510.1137, 1567.382
510.5958, 1558.192
511.0779, 1548.252
511.5600, 1540.365
512.0421, 1538.588
512.5242, 1542.252
513.0063, 1545.989
513.4885, 1545.663
513.9706, 1541.398
514.4527, 1531.881
514.9348, 1511.756
515.4169, 1500.232
515.8990, 1512.816
516.3812, 1532.562
516.8633, 1543.189
517.3454, 1542.636
517.8275, 1539.778
518.3096, 1539.943
518.7917, 1539.998
519.2739, 1533.273
519.7560, 1520.279
520.2381, 1511.619
520.7202, 1514.903
521.2023, 1525.902
521.6844, 1530.034
522.1666, 1515.743
522.6487, 1509.939
523.1308, 1520.012
523.6129, 1533.171
524.0950, 1541.993
524.5771, 1545.171
525.0593, 1542.693
525.5414, 1532.731
526.0235, 1519.036
526.5056, 1513.371
526.9877, 1517.767
527.4698, 1519.270
527.9520, 1511.532
528.4341, 1501.367
528.9162, 1497.681
529.3983, 1500.709
529.8804, 1500.082
530.3625, 1488.271
530.8447, 1474.703
531.3268, 1467.569
531.8089, 1466.452
532.2910, 1469.683
532.7731, 1477.246
533.2552, 1484.059
533.7374, 1477.729
534.2195, 1444.694
534.7016, 1428.802
535.1837, 1444.771
535.6658, 1462.120
536.1479, 1464.356
536.6301, 1456.552
537.1122, 1451.984
537.5943, 1456.722
538.0764, 1467.653
538.5585, 1483.442
539.0406, 1503.214
539.5228, 1516.506
540.0049, 1520.895
540.4870, 1518.295
540.9691, 1507.631
541.4512, 1489.375
541.9333, 1477.548
542.4155, 1476.319
542.8976, 1477.891
543.3797, 1479.884
543.8618, 1481.993
544.3439, 1484.534
544.8260, 1487.421
545.3082, 1489.043
545.7903, 1487.202
546.2724, 1481.747
546.7545, 1475.418
547.2366, 1466.024
547.7188, 1459.222
548.2009, 1458.342
548.6830, 1460.522
549.1651, 1461.553
549.6472, 1459.919
550.1293, 1461.256
550.6115, 1473.965
551.0936, 1490.667
551.5757, 1496.208
552.0578, 1489.368
552.5399, 1482.715
553.0220, 1485.804
553.5042, 1495.242
553.9863, 1495.817
554.4684, 1478.417
554.9505, 1463.863
555.4326, 1449.993
555.9147, 1441.242
556.3969, 1444.437
556.8790, 1456.778
557.3611, 1467.153
557.8432, 1467.505
558.3253, 1461.766
558.8074, 1458.053
559.2896, 1456.326
559.7717, 1457.586
560.2538, 1464.151
560.7359, 1471.242
561.2180, 1471.914
561.7001, 1466.439
562.1823, 1463.335
562.6644, 1466.463
563.1465, 1469.872
563.6286, 1473.400
564.1107, 1473.818
564.5928, 1462.222
565.0750, 1435.805
565.5571, 1407.443
566.0392, 1395.933
566.5213, 1403.509
567.0034, 1411.845
567.4855, 1422.696
567.9677, 1431.768
568.4498, 1436.389
568.9319, 1438.817
569.4140, 1442.794
569.8961, 1449.929
570.3782, 1454.858
570.8604, 1452.918
571.3425, 1446.816
571.8246, 1439.657
572.3067, 1432.217
572.7888, 1429.273
573.2709, 1434.872
573.7531, 1446.617
574.2352, 1454.551
574.7173, 1454.174
575.1994, 1456.609
575.6815, 1466.890
576.1636, 1476.088
576.6458, 1476.484
577.1279, 1470.026
577.6100, 1465.190
578.0921, 1467.967
578.5742, 1473.302
579.0563, 1471.497
579.5385, 1463.146
580.0206, 1458.717
580.5027, 1462.125
580.9848, 1467.153
581.4669, 1466.840
581.9490, 1460.711
582.4312, 1456.370
582.9133, 1456.936
583.3954, 1455.747
583.8775, 1446.873
584.3596, 1436.226
584.8417, 1431.961
585.3239, 1435.821
585.8060, 1443.396
586.2881, 1452.428
586.7702, 1461.821
587.2523, 1459.651
587.7344, 1439.759
588.2166, 1427.471
588.6987, 1439.804
589.1808, 1461.097
589.6629, 1469.111
590.1450, 1461.452
590.6271, 1454.801
591.1093, 1456.756
591.5914, 1459.837
592.0735, 1457.014
592.5556, 1449.488
593.0377, 1441.406
593.5198, 1434.595
594.0020, 1430.199
594.4841, 1431.279
594.9662, 1439.835
595.4483, 1445.598
595.9304, 1450.000
596.4125, 1449.311
596.8947, 1436.730
597.3768, 1419.789
597.8589, 1411.457
598.3410, 1416.329
598.8231, 1425.061
599.3052, 1433.380
599.7874, 1440.942
600.2695, 1447.587
600.7516, 1453.144
601.2337, 1456.290
601.7158, 1455.845
602.1979, 1452.759
602.6801, 1450.514
603.1622, 1448.840
603.6443, 1448.593
604.1264, 1451.543
604.6085, 1454.261
605.0906, 1454.341
605.5728, 1452.450
606.0549, 1450.814
606.5370, 1450.142
607.0191, 1450.547
607.5012, 1452.518
607.9833, 1455.695
608.4655, 1459.154
608.9476, 1462.788
609.4297, 1465.574
609.9118, 1466.661
610.3939, 1466.045
610.8760, 1463.685
611.3582, 1457.968
611.8403, 1452.561
612.3224, 1447.506
612.8045, 1443.233
613.2866, 1439.441
613.7687, 1436.569
614.2509, 1436.452
614.7330, 1441.324
615.2151, 1448.786
615.6972, 1455.242
616.1793, 1460.649
616.6614, 1464.543
617.1436, 1467.031
617.6257, 1467.050
618.1078, 1462.102
618.5899, 1451.265
619.0720, 1447.046
619.5541, 1455.586
620.0363, 1462.863
620.5184, 1466.294
621.0005, 1465.511
621.4826, 1458.064
621.9647, 1444.779
622.4468, 1433.147
622.9290, 1429.600
623.4111, 1432.440
623.8932, 1437.833
624.3753, 1445.949
624.8574, 1452.932
625.3395, 1457.273
625.8217, 1460.099
626.3038, 1463.543
626.7859, 1468.490
627.2680, 1468.489
627.7501, 1456.823
628.2322, 1447.450
628.7144, 1448.958
629.1965, 1455.283
629.6786, 1457.825
630.1607, 1454.270
630.6428, 1448.324
631.1249, 1443.430
631.6071, 1439.316
632.0892, 1432.767
632.5713, 1422.382
633.0534, 1421.220
633.5355, 1439.880
634.0176, 1464.876
634.4998, 1472.077
634.9819, 1456.432
635.4640, 1448.867
635.9461, 1458.047
636.4282, 1469.123
636.9103, 1477.685
637.3925, 1481.872
637.8746, 1477.181
638.3567, 1462.825
638.8388, 1449.165
639.3209, 1450.896
639.8030, 1464.270
640.2852, 1467.047
640.7673, 1457.218
641.2494, 1445.957
641.7315, 1436.202
642.2136, 1429.899
642.6957, 1432.906
643.1779, 1449.380
643.6600, 1457.130
644.1421, 1447.245
644.6242, 1435.368
645.1063, 1430.512
645.5884, 1429.479
646.0706, 1423.751
646.5527, 1410.931
647.0348, 1402.308
647.5169, 1416.875
647.9990, 1448.333
648.4811, 1460.103
648.9633, 1448.453
649.4454, 1436.289
649.9275, 1432.877
650.4096, 1436.484
650.8917, 1445.887
651.3738, 1465.607
651.8560, 1474.753
652.3381, 1463.565
652.8202, 1450.292
653.3023, 1444.279
653.7844, 1442.600
654.2665, 1438.609
654.7487, 1430.334
655.2308, 1424.168
655.7129, 1428.983
656.1950, 1441.600
656.6771, 1449.462
657.1592, 1451.815
657.6414, 1454.891
658.1235, 1462.735
658.6056, 1471.123
659.0876, 1472.448
659.5698, 1464.564
660.0519, 1455.925
660.5340, 1441.424
661.0161, 1431.806
661.4982, 1436.278
661.9803, 1446.569
662.4625, 1450.189
662.9446, 1443.925
663.4267, 1436.690
663.9088, 1436.370
664.3909, 1441.005
664.8730, 1447.641
665.3552, 1455.954
665.8373, 1458.371
666.3194, 1450.193
666.8015, 1438.720
667.2836, 1435.736
667.7657, 1444.298
668.2479, 1447.854
668.7300, 1443.006
669.2121, 1437.566
669.6942, 1436.107
670.1763, 1434.046
670.6584, 1422.664
671.1406, 1401.526
671.6227, 1386.301
672.1048, 1391.479
672.5869, 1407.324
673.0690, 1422.514
673.5511, 1435.478
674.0333, 1437.139
674.5154, 1423.313
674.9975, 1405.931
675.4796, 1400.808
675.9617, 1408.972
676.4438, 1415.089
676.9260, 1419.308
677.4081, 1421.094
677.8902, 1416.912
678.3723, 1412.718
678.8544, 1414.661
679.3365, 1422.758
679.8187, 1431.114
680.3008, 1439.709
680.7829, 1444.888
681.2650, 1440.685
681.7471, 1430.633
682.2292, 1422.106
682.7114, 1417.256
683.1935, 1417.865
683.6756, 1427.553
684.1577, 1444.046
684.6398, 1446.281
685.1219, 1424.902
685.6041, 1413.239
686.0862, 1429.873
686.5683, 1448.456
687.0504, 1442.974
687.5325, 1418.631
688.0146, 1405.090
688.4968, 1419.020
688.9789, 1433.960
689.4610, 1437.571
689.9431, 1434.214
690.4252, 1426.757
690.9073, 1417.527
691.3895, 1412.580
691.8716, 1416.747
692.3537, 1427.198
692.8358, 1439.051
693.3179, 1453.037
693.8000, 1456.805
694.2822, 1443.937
694.7643, 1430.394
695.2464, 1430.262
695.7285, 1439.991
696.2106, 1441.718
696.6927, 1425.507
697.1749, 1416.715
697.6570, 1426.919
698.1391, 1439.711
698.6212, 1442.955
699.1033, 1438.153
699.5854, 1431.869
700.0676, 1426.906
700.5497, 1422.944
701.0318, 1418.909
701.5139, 1415.540
701.9960, 1417.929
702.4781, 1426.850
702.9603, 1427.625
703.4424, 1408.528
703.9245, 1382.506
704.4066, 1380.540
704.8887, 1417.419
705.3708, 1440.251
705.8530, 1442.541
706.3351, 1438.511
706.8172, 1428.856
707.2993, 1417.802
707.7814, 1410.936
708.2635, 1409.521
708.7457, 1409.742
709.2278, 1408.997
709.7099, 1408.982
710.1920, 1412.340
710.6741, 1418.224
711.1563, 1423.973
711.6384, 1428.608
712.1205, 1432.422
712.6026, 1436.283
713.0847, 1440.011
713.5668, 1438.651
714.0490, 1430.645
714.5311, 1421.444
715.0132, 1409.267
715.4953, 1399.602
715.9774, 1399.719
716.4595, 1408.885
716.9417, 1416.044
717.4238, 1419.311
717.9059, 1420.569
718.3880, 1418.332
718.8701, 1415.861
719.3522, 1417.577
719.8344, 1423.254
720.3165, 1428.779
720.7986, 1431.465
721.2807, 1432.255
721.7628, 1433.561
722.2449, 1434.905
722.7271, 1431.397
723.2092, 1421.374
723.6913, 1412.203
724.1734, 1409.539
724.6555, 1411.970
725.1376, 1413.836
725.6198, 1414.596
726.1019, 1415.716
726.5840, 1417.497
727.0661, 1419.358
727.5482, 1422.169
728.0303, 1424.563
728.5125, 1422.888
728.9946, 1414.821
729.4767, 1410.372
729.9588, 1421.696
730.4409, 1436.359
730.9230, 1438.009
731.4052, 1428.562
731.8873, 1416.846
732.3694, 1406.508
732.8515, 1400.313
733.3336, 1403.864
733.8157, 1416.754
734.2979, 1422.579
734.7800, 1419.176
735.2621, 1415.688
735.7442, 1414.055
736.2263, 1415.024
736.7084, 1422.123
737.1906, 1435.759
737.6727, 1440.425
738.1548, 1428.229
738.6369, 1415.601
739.1190, 1403.665
739.6011, 1396.742
740.0833, 1403.094
740.5654, 1419.869
741.0475, 1432.136
741.5296, 1429.664
742.0117, 1421.443
742.4938, 1420.932
742.9760, 1424.315
743.4581, 1416.802
743.9402, 1396.566
744.4223, 1380.418
744.9044, 1380.569
745.3865, 1391.021
745.8687, 1393.260
746.3508, 1381.633
746.8329, 1380.267
747.3150, 1397.227
747.7971, 1414.985
748.2792, 1429.070
748.7614, 1437.024
749.2435, 1432.707
749.7256, 1412.381
750.2077, 1395.955
750.6898, 1388.822
751.1719, 1387.849
751.6541, 1393.448
752.1362, 1402.851
752.6183, 1413.693
753.1004, 1424.490
753.5825, 1430.307
754.0646, 1424.382
754.5468, 1411.517
755.0289, 1402.933
755.5110, 1398.302
755.9931, 1392.498
756.4752, 1383.280
756.9573, 1379.456
757.4395, 1391.509
757.9216, 1416.544
758.4037, 1429.666
758.8858, 1423.387
759.3679, 1419.407
759.8500, 1423.260
760.3322, 1426.897
760.8143, 1424.748
761.2964, 1419.142
761.7785, 1415.984
762.2606, 1417.355
762.7427, 1418.823
763.2249, 1416.583
763.7070, 1415.058
764.1891, 1421.758
764.6712, 1432.210
765.1533, 1434.392
765.6354, 1423.826
766.1176, 1409.488
766.5997, 1400.835
767.0818, 1397.002
767.5639, 1393.106
768.0460, 1389.172
768.5281, 1397.398
769.0103, 1425.521
769.4924, 1452.423
769.9745, 1450.892
770.4566, 1421.335
770.9387, 1406.495
771.4208, 1412.520
771.9030, 1423.478
772.3851, 1444.953
772.8672, 1463.370
773.3493, 1467.326
773.8314, 1460.361
774.3135, 1455.013
774.7957, 1455.776
775.2778, 1455.578
775.7599, 1447.409
776.2420, 1439.566
776.7241, 1443.444
777.2062, 1454.860
777.6884, 1460.517
778.1705, 1454.628
778.6526, 1444.680
779.1347, 1436.452
779.6168, 1431.617
780.0989, 1439.164
780.5811, 1458.741
781.0632, 1474.124
781.5453, 1479.385
782.0274, 1477.007
782.5095, 1468.353
782.9916, 1453.408
783.4738, 1447.867
783.9559, 1458.419
784.4380, 1465.775
784.9201, 1463.287
785.4022, 1458.903
785.8843, 1458.250
786.3665, 1460.418
786.8486, 1461.772
787.3307, 1461.404
787.8128, 1460.627
788.2949, 1462.237
788.7770, 1461.683
789.2592, 1452.439
789.7413, 1438.170
790.2234, 1426.598
790.7055, 1420.719
791.1876, 1421.626
791.6697, 1437.953
792.1519, 1459.145
792.6340, 1457.868
793.1161, 1437.651
793.5982, 1426.463
794.0803, 1434.081
794.5624, 1447.747
795.0446, 1453.881
795.5267, 1452.756
796.0088, 1445.979
796.4909, 1431.628
796.9730, 1417.929
797.4551, 1405.106
797.9373, 1395.288
798.4194, 1391.229
798.9015, 1391.722
799.3836, 1391.530
799.8657, 1391.002
800.3478, 1389.081
800.8300, 1381.165
801.3121, 1376.261
801.7942, 1382.934
802.2763, 1395.274
802.7584, 1403.059
803.2405, 1403.537
803.7227, 1402.132
804.2048, 1400.869
804.6869, 1400.807
805.1690, 1404.105
805.6511, 1409.431
806.1332, 1414.214
806.6154, 1417.562
807.0975, 1418.076
807.5796, 1413.703
808.0617, 1407.077
808.5438, 1405.993
809.0259, 1410.436
809.5081, 1415.507
809.9902, 1421.740
810.4723, 1421.051
810.9544, 1404.619
811.4365, 1381.648
811.9186, 1377.614
812.4008, 1403.377
812.8829, 1417.615
813.3650, 1412.237
813.8471, 1405.179
814.3292, 1400.514
814.8113, 1398.191
815.2935, 1399.770
815.7756, 1405.047
816.2577, 1405.982
816.7398, 1396.363
817.2219, 1386.567
817.7040, 1380.134
818.1862, 1377.307
818.6683, 1381.116
819.1504, 1389.024
819.6325, 1391.570
820.1146, 1382.297
820.5967, 1372.283
821.0789, 1376.170
821.5610, 1387.714
822.0431, 1393.738
822.5252, 1393.599
823.0073, 1390.526
823.4894, 1385.851
823.9715, 1380.956
824.4536, 1377.532
824.9357, 1375.600
825.4178, 1375.910
825.9000, 1379.133
826.3821, 1380.424
826.8642, 1377.095
827.3463, 1374.508
827.8284, 1377.995
828.3105, 1386.617
828.7927, 1394.245
829.2748, 1407.911
829.7569, 1409.258
830.2390, 1382.747
830.7211, 1360.071
831.2032, 1360.690
831.6854, 1373.962
832.1675, 1381.956
832.6496, 1381.481
833.1317, 1378.720
833.6138, 1373.278
834.0959, 1369.032
834.5781, 1369.627
835.0602, 1372.470
835.5423, 1374.032
836.0244, 1373.716
836.5065, 1372.573
836.9886, 1370.566
837.4708, 1369.486
837.9529, 1373.806
838.4350, 1380.383
838.9171, 1381.112
839.3992, 1375.585
839.8813, 1367.392
840.3635, 1358.116
840.8456, 1350.504
841.3277, 1350.063
841.8098, 1356.484
842.2919, 1359.317
842.7740, 1357.752
843.2562, 1358.325
843.7383, 1364.460
844.2204, 1370.210
844.7025, 1369.352
845.1846, 1362.349
845.6667, 1353.742
846.1489, 1336.185
846.6310, 1330.046
847.1131, 1349.090
847.5952, 1367.400
848.0773, 1372.793
848.5594, 1368.511
849.0416, 1359.040
849.5237, 1342.510
850.0058, 1332.531
850.4879, 1333.638
850.9700, 1340.768
851.4521, 1359.400
851.9343, 1377.642
852.4164, 1378.400
852.8985, 1362.416
853.3806, 1346.916
853.8627, 1340.215
854.3448, 1339.294
854.8270, 1344.273
855.3091, 1351.739
855.7912, 1357.083
856.2733, 1359.587
856.7554, 1358.446
857.2375, 1353.283
857.7197, 1347.620
858.2018, 1346.479
858.6839, 1348.563
859.1660, 1349.892
859.6481, 1350.208
860.1302, 1343.832
860.6124, 1328.279
861.0945, 1316.856
861.5766, 1323.364
862.0587, 1341.955
862.5408, 1347.060
863.0229, 1335.148
863.5051, 1325.147
863.9872, 1317.886
864.4693, 1314.284
864.9514, 1315.721
865.4335, 1320.423
865.9156, 1326.062
866.3978, 1333.825
866.8799, 1336.532
867.3620, 1327.934
867.8441, 1322.774
868.3262, 1326.306
868.8083, 1332.839
869.2905, 1339.874
869.7726, 1345.955
870.2547, 1346.810
870.7368, 1339.576
871.2189, 1331.105
871.7010, 1318.126
872.1832, 1310.210
872.6653, 1322.266
873.1474, 1341.989
873.6295, 1344.691
874.1116, 1325.793
874.5938, 1310.141
875.0759, 1318.167
875.5580, 1334.545
876.0401, 1346.628
876.5222, 1353.902
877.0043, 1354.851
877.4865, 1349.865
877.9686, 1341.122
878.4507, 1329.603
878.9328, 1317.223
879.4149, 1302.375
879.8970, 1289.189
880.3792, 1297.661
880.8613, 1326.070
881.3434, 1348.809
881.8255, 1357.333
882.3076, 1354.547
882.7897, 1341.509
883.2719, 1321.442
883.7540, 1310.527
884.2361, 1309.806
884.7182, 1310.589
885.2003, 1312.763
885.6824, 1312.542
886.1646, 1305.660
886.6467, 1297.675
887.1288, 1300.843
887.6109, 1318.871
888.0930, 1328.600
888.5751, 1327.568
889.0573, 1322.001
889.5394, 1302.016
890.0215, 1288.088
890.5036, 1306.914
890.9857, 1348.500
891.4678, 1366.255
891.9500, 1337.456
892.4321, 1319.498
892.9142, 1330.074
893.3963, 1343.184
893.8784, 1346.627
894.3605, 1342.799
894.8427, 1333.754
895.3248, 1320.424
895.8069, 1312.069
896.2890, 1313.882
896.7711, 1319.908
897.2532, 1330.987
897.7354, 1341.524
898.2175, 1344.958
898.6996, 1342.254
899.1817, 1337.641
899.6638, 1332.575
900.1459, 1328.542
900.6281, 1327.937
901.1102, 1328.215
901.5923, 1324.708
902.0744, 1319.686
902.5565, 1321.366
903.0386, 1329.691
903.5208, 1331.098
904.0029, 1313.124
904.4850, 1290.036
904.9671, 1288.788
905.4492, 1302.286
905.9313, 1304.186
906.4135, 1294.090
906.8956, 1290.694
907.3777, 1302.080
907.8598, 1316.949
908.3419, 1320.747
908.8240, 1316.168
909.3062, 1317.720
909.7883, 1325.609
910.2704, 1333.675
910.7525, 1341.847
911.2346, 1341.702
911.7167, 1324.639
912.1989, 1302.013
912.6810, 1300.818
913.1631, 1326.034
913.6452, 1336.799
914.1273, 1328.399
914.6094, 1318.203
915.0916, 1308.738
915.5737, 1303.751
916.0558, 1309.437
916.5379, 1323.040
917.0200, 1327.759
917.5021, 1320.146
917.9843, 1309.877
918.4664, 1286.584
918.9485, 1273.599
919.4306, 1290.297
919.9127, 1316.898
920.3948, 1329.289
920.8770, 1326.794
921.3591, 1319.011
921.8412, 1294.765
922.3233, 1282.055
922.8054, 1298.938
923.2875, 1317.847
923.7697, 1316.318
924.2518, 1303.164
924.7339, 1299.719
925.2160, 1311.683
925.6981, 1318.956
926.1802, 1310.213
926.6624, 1300.323
927.1445, 1296.690
927.6266, 1296.559
928.1087, 1298.763
928.5908, 1301.260
929.0729, 1297.466
929.5551, 1280.987
930.0372, 1271.362
930.5193, 1287.644
931.0014, 1310.664
931.4835, 1325.701
931.9656, 1332.331
932.4478, 1329.280
932.9299, 1318.336
933.4120, 1309.845
933.8941, 1311.445
934.3762, 1316.055
934.8583, 1315.685
935.3405, 1313.660
935.8226, 1317.377
936.3047, 1324.462
936.7868, 1324.499
937.2689, 1314.351
937.7510, 1304.148
938.2332, 1305.192
938.7153, 1311.060
939.1974, 1309.221
939.6795, 1302.570
940.1616, 1299.895
940.6437, 1301.877
941.1259, 1302.907
941.6080, 1299.850
942.0901, 1298.075
942.5722, 1308.908
943.0543, 1327.147
943.5364, 1329.772
944.0186, 1318.859
944.5007, 1311.377
944.9828, 1311.151
945.4649, 1311.500
945.9470, 1307.723
946.4291, 1300.805
946.9113, 1291.380
947.3934, 1279.822
947.8755, 1273.524
948.3576, 1263.388
948.8397, 1275.098
949.3218, 1282.207
949.8040, 1284.962
950.2861, 1270.323
950.7682, 1278.144
951.2503, 1276.965
951.7324, 1275.416
952.2145, 1286.399
952.6967, 1274.290
953.1788, 1285.074
953.6609, 1286.719
954.1430, 1292.547
954.6251, 1289.319
955.1072, 1288.887
955.5894, 1297.516
956.0715, 1301.127
956.5536, 1296.856
957.0357, 1302.950
957.5178, 1290.524
957.9999, 1294.350
958.4821, 1305.187
958.9642, 1301.371
959.4463, 1289.742
959.9284, 1287.385
960.4105, 1298.507
960.8926, 1302.920
961.3748, 1292.178
961.8569, 1281.348
962.3390, 1280.436
962.8211, 1286.003
963.3032, 1290.390
963.7853, 1292.710
964.2675, 1297.584
964.7496, 1309.548
965.2317, 1317.274
965.7138, 1315.026
966.1959, 1310.917
966.6780, 1311.710
967.1602, 1315.463
967.6423, 1316.709
968.1244, 1317.212
968.6065, 1310.463
969.0886, 1283.575
969.5707, 1265.611
970.0529, 1271.760
970.5350, 1285.352
971.0171, 1292.208
971.4992, 1293.087
971.9813, 1293.596
972.4634, 1293.811
972.9456, 1294.591
973.4277, 1294.241
973.9098, 1296.593
974.3919, 1309.569
974.8740, 1321.786
975.3561, 1318.937
975.8383, 1302.272
976.3204, 1286.454
976.8025, 1269.704
977.2846, 1261.183
977.7667, 1271.141
978.2488, 1280.582
978.7310, 1272.594
979.2131, 1261.402
979.6952, 1272.334
980.1773, 1304.268
980.6594, 1318.635
981.1415, 1288.084
981.6237, 1263.345
982.1058, 1261.276
982.5879, 1267.271
983.0700, 1276.514
983.5521, 1284.930
984.0342, 1285.653
984.5164, 1278.288
984.9985, 1275.018
985.4806, 1286.076
985.9627, 1293.438
986.4448, 1286.475
986.9269, 1276.708
987.4091, 1273.995
987.8912, 1274.814
988.3732, 1272.331
988.8553, 1265.193
989.3375, 1253.984
989.8196, 1228.332
990.3017, 1212.208
990.7838, 1225.632
991.2659, 1245.511
991.7480, 1251.766
992.2302, 1248.318
992.7123, 1247.057
993.1944, 1250.825
993.6765, 1253.279
994.1586, 1246.860
994.6407, 1244.517
995.1229, 1257.990
995.6050, 1274.613
996.0871, 1281.930
996.5692, 1282.068
997.0513, 1282.481
997.5334, 1285.064
998.0156, 1287.825
998.4977, 1291.637
998.9798, 1280.074
999.4619, 1288.573
999.9440, 1292.471
1000.426, 1292.015
1000.908, 1274.165
1001.390, 1278.776
1001.872, 1274.385
1002.355, 1269.622
1002.837, 1277.394
1003.319, 1262.074
1003.801, 1269.647
1004.283, 1268.082
1004.765, 1270.700
1005.247, 1264.260
1005.729, 1261.251
1006.212, 1260.518
1006.694, 1262.933
1007.176, 1270.244
1007.658, 1277.373
1008.140, 1281.403
1008.622, 1283.551
1009.104, 1286.299
1009.586, 1288.343
1010.068, 1284.574
1010.551, 1272.139
1011.033, 1262.304
1011.515, 1261.401
1011.997, 1262.819
1012.479, 1260.837
1012.961, 1260.478
1013.443, 1270.031
1013.925, 1286.009
1014.408, 1297.422
1014.890, 1301.664
1015.372, 1298.747
1015.854, 1280.400
1016.336, 1264.627
1016.818, 1264.692
1017.300, 1270.021
1017.782, 1270.054
1018.264, 1265.154
1018.747, 1260.294
1019.229, 1257.185
1019.711, 1252.010
1020.193, 1238.251
1020.675, 1228.341
1021.157, 1231.411
1021.639, 1239.034
1022.121, 1243.658
1022.604, 1245.207
1023.086, 1246.181
1023.568, 1247.454
1024.050, 1246.669
1024.532, 1240.678
1025.014, 1235.541
1025.496, 1233.248
1025.978, 1233.575
1026.460, 1237.369
1026.943, 1243.382
1027.425, 1247.413
1027.907, 1246.693
1028.389, 1253.185
1028.871, 1283.225
1029.353, 1303.263
1029.835, 1292.634
1030.317, 1274.316
1030.800, 1269.814
1031.282, 1273.169
1031.764, 1263.155
1032.246, 1230.432
1032.728, 1214.904
1033.210, 1236.783
1033.692, 1256.656
1034.174, 1262.262
1034.656, 1262.509
1035.139, 1261.379
1035.621, 1260.765
1036.103, 1265.384
1036.585, 1277.685
1037.067, 1285.484
1037.549, 1285.688
1038.031, 1284.858
1038.513, 1287.234
1038.995, 1285.973
1039.478, 1270.295
1039.960, 1250.010
1040.442, 1247.048
1040.924, 1265.647
1041.406, 1277.543
1041.888, 1281.401
1042.370, 1280.617
1042.852, 1272.663
1043.335, 1264.279
1043.817, 1258.688
1044.299, 1255.767
1044.781, 1254.823
1045.263, 1255.538
1045.745, 1263.205
1046.227, 1282.902
1046.709, 1297.631
1047.192, 1306.928
1047.674, 1306.327
1048.156, 1288.970
1048.638, 1266.454
1049.120, 1256.261
1049.602, 1258.162
1050.084, 1266.592
1050.566, 1286.192
1051.048, 1290.964
1051.531, 1273.553
1052.013, 1256.956
1052.495, 1252.391
1052.977, 1253.425
1053.459, 1251.132
1053.941, 1247.082
1054.423, 1253.896
1054.905, 1273.082
1055.387, 1283.105
1055.870, 1281.567
1056.352, 1272.780
1056.834, 1257.513
1057.316, 1241.778
1057.798, 1230.593
1058.280, 1226.685
1058.762, 1246.132
1059.244, 1285.510
1059.727, 1296.916
1060.209, 1278.502
1060.691, 1261.103
1061.173, 1255.096
1061.655, 1256.527
1062.137, 1263.406
1062.619, 1270.892
1063.101, 1267.607
1063.583, 1256.712
1064.066, 1248.380
1064.548, 1243.323
1065.030, 1242.930
1065.512, 1246.902
1065.994, 1250.167
1066.476, 1249.246
1066.958, 1246.130
1067.440, 1242.576
1067.922, 1239.311
1068.405, 1236.405
1068.887, 1235.296
1069.369, 1242.558
1069.851, 1256.276
1070.333, 1261.329
1070.815, 1248.756
1071.297, 1237.331
1071.779, 1249.710
1072.261, 1267.726
1072.744, 1270.705
1073.226, 1265.283
1073.708, 1260.753
1074.190, 1258.812
1074.672, 1259.528
1075.154, 1263.049
1075.636, 1266.030
1076.118, 1267.245
1076.601, 1266.261
1077.083, 1260.158
1077.565, 1253.924
1078.047, 1252.049
1078.529, 1254.323
1079.011, 1260.523
1079.493, 1270.512
1079.975, 1277.221
1080.458, 1280.229
1080.940, 1276.841
1081.422, 1256.051
1081.904, 1239.188
1082.386, 1246.766
1082.868, 1263.773
1083.350, 1265.329
1083.832, 1250.733
1084.314, 1243.568
1084.797, 1255.190
1085.279, 1260.415
1085.761, 1251.738
1086.243, 1243.283
1086.725, 1238.918
1087.207, 1238.531
1087.689, 1242.951
1088.171, 1251.291
1088.653, 1260.102
1089.136, 1274.526
1089.618, 1272.683
1090.100, 1244.485
1090.582, 1226.304
1091.064, 1231.475
1091.546, 1241.569
1092.028, 1242.544
1092.510, 1238.097
1092.993, 1236.826
1093.475, 1238.812
1093.957, 1241.024
1094.439, 1243.379
1094.921, 1247.521
1095.403, 1253.936
1095.885, 1260.361
1096.367, 1266.018
1096.849, 1266.587
1097.332, 1252.671
1097.814, 1230.650
1098.296, 1224.168
1098.778, 1230.779
1099.260, 1241.522
1099.742, 1253.785
1100.224, 1259.271
1100.706, 1255.202
1101.188, 1250.720
1101.671, 1255.375
1102.153, 1261.462
1102.635, 1257.042
1103.117, 1246.609
1103.599, 1234.310
1104.081, 1223.777
1104.563, 1224.769
1105.045, 1236.771
1105.528, 1243.895
1106.010, 1235.563
1106.492, 1227.647
1106.974, 1232.322
1107.456, 1242.160
1107.938, 1253.483
1108.420, 1264.155
1108.902, 1274.969
1109.385, 1282.787
1109.867, 1277.014
1110.349, 1251.796
1110.831, 1231.453
1111.313, 1223.335
1111.795, 1222.145
1112.277, 1228.270
1112.759, 1238.178
1113.241, 1256.238
1113.724, 1273.510
1114.206, 1269.719
1114.688, 1241.512
1115.170, 1228.212
1115.652, 1241.754
1116.134, 1247.509
1116.616, 1237.892
1117.098, 1229.362
1117.580, 1229.503
1118.063, 1232.812
1118.545, 1233.446
1119.027, 1231.925
1119.509, 1230.196
1119.991, 1227.987
1120.473, 1227.503
1120.955, 1228.616
1121.437, 1235.191
1121.920, 1249.046
1122.402, 1257.650
1122.884, 1251.286
1123.366, 1237.701
1123.848, 1230.118
1124.330, 1226.768
1124.812, 1218.553
1125.294, 1208.498
1125.776, 1212.796
1126.259, 1229.614
1126.741, 1236.056
1127.223, 1222.758
1127.705, 1209.024
1128.187, 1214.483
1128.669, 1225.054
1129.151, 1224.811
1129.633, 1219.243
1130.115, 1212.374
1130.598, 1207.567
1131.080, 1212.825
1131.562, 1227.073
1132.044, 1235.222
1132.526, 1230.088
1133.008, 1220.004
1133.490, 1199.879
1133.972, 1186.317
1134.455, 1194.705
1134.937, 1209.845
1135.419, 1215.437
1135.901, 1214.253
1136.383, 1218.164
1136.865, 1229.927
1137.347, 1239.213
1137.829, 1247.341
1138.312, 1250.102
1138.794, 1245.784
1139.276, 1237.470
1139.758, 1224.852
1140.240, 1211.807
1140.722, 1203.164
1141.204, 1198.997
1141.686, 1200.895
1142.168, 1209.627
1142.651, 1215.658
1143.133, 1218.421
1143.615, 1217.197
1144.097, 1211.562
1144.579, 1208.387
1145.061, 1213.256
1145.543, 1222.127
1146.025, 1230.729
1146.507, 1236.904
1146.990, 1233.312
1147.472, 1222.817
1147.954, 1210.925
1148.436, 1200.445
1148.918, 1198.301
1149.400, 1206.918
1149.882, 1215.006
1150.364, 1213.770
1150.847, 1208.802
1151.329, 1199.175
1151.811, 1193.016
1152.293, 1203.684
1152.775, 1220.761
1153.257, 1225.564
1153.739, 1217.687
1154.221, 1212.449
1154.703, 1214.769
1155.186, 1216.709
1155.668, 1219.405
1156.150, 1217.970
1156.632, 1203.003
1157.114, 1191.583
1157.596, 1199.357
1158.078, 1216.672
1158.560, 1223.939
1159.042, 1220.876
1159.525, 1215.946
1160.007, 1208.796
1160.489, 1200.628
1160.971, 1190.701
1161.453, 1188.081
1161.935, 1197.467
1162.417, 1206.313
1162.899, 1201.320
1163.382, 1189.786
1163.864, 1186.764
1164.346, 1190.799
1164.828, 1200.402
1165.310, 1212.497
1165.792, 1217.542
1166.274, 1214.644
1166.756, 1207.891
1167.239, 1198.910
1167.721, 1194.331
1168.203, 1203.880
1168.685, 1214.905
1169.167, 1218.391
1169.649, 1216.932
1170.131, 1208.494
1170.613, 1199.518
1171.095, 1203.671
1171.578, 1220.450
1172.060, 1227.247
1172.542, 1214.772
1173.024, 1201.213
1173.506, 1181.478
1173.988, 1171.264
1174.470, 1179.029
1174.952, 1192.518
1175.434, 1204.858
1175.917, 1214.522
1176.399, 1217.776
1176.881, 1214.752
1177.363, 1211.736
1177.845, 1208.631
1178.327, 1207.677
1178.809, 1209.145
1179.291, 1210.572
1179.774, 1210.996
1180.256, 1207.451
1180.738, 1196.503
1181.220, 1183.001
1181.702, 1170.847
1182.184, 1163.927
1182.666, 1174.129
1183.148, 1192.970
1183.630, 1204.438
1184.113, 1206.497
1184.595, 1199.041
1185.077, 1181.413
1185.559, 1177.535
1186.041, 1220.205
1186.523, 1251.155
1187.005, 1230.878
1187.487, 1204.880
1187.969, 1209.180
1188.452, 1222.723
1188.934, 1211.026
1189.416, 1180.155
1189.898, 1169.509
1190.380, 1186.255
1190.862, 1199.211
1191.344, 1209.829
1191.826, 1210.251
1192.309, 1196.306
1192.791, 1183.968
1193.273, 1182.610
1193.755, 1186.039
1194.237, 1186.311
1194.719, 1184.778
1195.201, 1184.507
1195.683, 1185.987
1196.166, 1192.539
1196.648, 1192.695
1197.130, 1203.211
1197.612, 1209.127
1198.094, 1210.688
1198.576, 1194.856
1199.058, 1201.484
1199.540, 1199.111
1200.022, 1196.369
1200.505, 1206.159
1200.987, 1192.856
1201.469, 1202.447
1201.951, 1202.899
1202.433, 1207.534
1202.915, 1203.112
1203.397, 1201.487
1203.879, 1208.922
1204.361, 1211.341
1204.844, 1205.876
1205.326, 1210.777
1205.808, 1197.158
1206.290, 1199.790
1206.772, 1209.434
1207.254, 1204.425
1207.736, 1209.491
1208.218, 1210.720
1208.701, 1194.510
1209.183, 1208.628
1209.665, 1209.630
1210.147, 1197.165
1210.629, 1210.244
1211.111, 1199.635
1211.593, 1197.482
1212.075, 1201.691
1212.557, 1199.267
1213.040, 1207.302
1213.522, 1205.261
1214.004, 1202.320
1214.486, 1203.307
1214.968, 1193.163
1215.450, 1203.671
1215.932, 1200.071
1216.414, 1203.484
1216.896, 1208.486
1217.379, 1201.318
1217.861, 1207.034
1218.343, 1192.770
1218.825, 1195.224
1219.307, 1195.878
1219.789, 1207.218
1220.271, 1193.052
1220.753, 1195.041
1221.236, 1203.910
1221.718, 1185.126
1222.200, 1172.711
1222.682, 1166.120
1223.164, 1172.013
1223.646, 1185.199
1224.128, 1186.497
1224.610, 1173.846
1225.093, 1164.589
1225.575, 1167.042
1226.057, 1175.587
1226.539, 1196.008
1227.021, 1209.932
1227.503, 1197.628
1227.985, 1183.706
1228.467, 1192.532
1228.949, 1211.327
1229.432, 1217.179
1229.914, 1210.996
1230.396, 1202.841
1230.878, 1191.269
1231.360, 1182.906
1231.842, 1177.752
1232.324, 1178.748
1232.806, 1187.412
1233.288, 1186.757
1233.771, 1166.091
1234.253, 1144.247
1234.735, 1144.911
1235.217, 1157.712
1235.699, 1169.829
1236.181, 1177.613
1236.663, 1169.939
1237.145, 1155.257
1237.627, 1151.349
1238.110, 1158.542
1238.592, 1164.772
1239.074, 1166.611
1239.556, 1165.892
1240.038, 1159.417
1240.520, 1155.924
1241.002, 1157.205
1241.484, 1163.199
1241.967, 1176.873
1242.449, 1191.198
1242.931, 1199.482
1243.413, 1201.734
1243.895, 1195.265
1244.377, 1180.859
1244.859, 1180.999
1245.341, 1193.064
1245.823, 1193.545
1246.306, 1181.088
1246.788, 1169.564
1247.270, 1164.502
1247.752, 1164.089
1248.234, 1168.540
1248.716, 1173.302
1249.198, 1174.689
1249.680, 1174.794
1250.162, 1175.577
1250.645, 1175.732
1251.127, 1170.318
1251.609, 1164.164
1252.091, 1170.779
1252.573, 1191.042
1253.055, 1204.396
1253.537, 1212.506
1254.019, 1205.978
1254.502, 1179.960
1254.984, 1162.816
1255.466, 1162.922
1255.948, 1168.712
1256.430, 1173.144
1256.912, 1175.191
1257.394, 1170.719
1257.876, 1166.150
1258.359, 1175.740
1258.841, 1191.135
1259.323, 1201.832
1259.805, 1206.066
1260.287, 1200.310
1260.769, 1186.850
1261.251, 1176.031
1261.733, 1170.646
1262.215, 1167.567
1262.698, 1169.565
1263.180, 1168.083
1263.662, 1157.442
1264.144, 1151.264
1264.626, 1156.004
1265.108, 1166.311
1265.590, 1178.394
1266.072, 1188.927
1266.554, 1188.494
1267.037, 1179.693
1267.519, 1172.498
1268.001, 1168.267
1268.483, 1175.885
##END=



