##NAMES=Crookesite
##RRUFFID=R061025
##IDEAL CHEMISTRY=Cu_7_TlSe_4_
##LOCALITY=Skrikerum mine, Ostergotland, Sweden
##OWNER=RRUFF
##SOURCE=Michael Scott
##DESCRIPTION=Lead gray metallic massive associated with umangite
##STATUS=The identification of this mineral is confirmed by single-crystal X-ray diffraction and chemical analysis.
##URL=rruff.info/R061025
##MEASURED CHEMISTRY=Cu_7.01_Tl_0.99_Se_4.00_ ; (light phase) Tl not measured but estimated by difference and stoichiometry ; the dark phase is Cu_3.00_Se_2.00_ (umangite, with trace amounts of S)
175.5192, 2617.517
176.0013, 2607.601
176.4834, 2606.982
176.9655, 2618.542
177.4476, 2635.365
177.9298, 2655.069
178.4119, 2675.818
178.8940, 2687.435
179.3761, 2672.955
179.8582, 2645.555
180.3403, 2633.159
180.8225, 2645.403
181.3046, 2669.926
181.7867, 2693.506
182.2688, 2715.462
182.7509, 2727.903
183.2330, 2715.655
183.7152, 2686.548
184.1973, 2667.271
184.6794, 2671.342
185.1615, 2686.947
185.6436, 2684.532
186.1257, 2662.665
186.6079, 2640.111
187.0900, 2640.533
187.5721, 2660.081
188.0542, 2673.496
188.5363, 2668.931
189.0184, 2651.020
189.5006, 2637.386
189.9827, 2628.800
190.4648, 2621.914
190.9469, 2611.885
191.4290, 2598.966
191.9111, 2586.848
192.3932, 2578.178
192.8754, 2572.413
193.3575, 2564.631
193.8396, 2555.480
194.3217, 2542.847
194.8038, 2520.104
195.2859, 2486.082
195.7681, 2455.830
196.2502, 2439.760
196.7323, 2437.802
197.2144, 2429.704
197.6965, 2412.141
198.1786, 2389.791
198.6608, 2373.486
199.1429, 2364.106
199.6250, 2356.794
200.1071, 2348.899
200.5892, 2340.448
201.0714, 2330.322
201.5535, 2317.638
202.0356, 2303.342
202.5177, 2289.916
202.9998, 2276.213
203.4819, 2266.745
203.9641, 2268.799
204.4462, 2285.612
204.9283, 2293.079
205.4104, 2283.863
205.8925, 2260.673
206.3746, 2244.807
206.8568, 2236.981
207.3389, 2234.711
207.8210, 2237.250
208.3031, 2246.533
208.7852, 2252.910
209.2673, 2253.651
209.7495, 2248.895
210.2316, 2243.859
210.7137, 2236.935
211.1958, 2232.245
211.6779, 2235.013
212.1600, 2246.533
212.6422, 2261.844
213.1243, 2281.258
213.6064, 2305.545
214.0885, 2323.627
214.5706, 2332.845
215.0527, 2338.393
215.5349, 2348.020
216.0170, 2362.105
216.4991, 2378.871
216.9812, 2397.314
217.4633, 2416.418
217.9454, 2441.298
218.4276, 2475.456
218.9097, 2513.068
219.3918, 2542.754
219.8739, 2560.744
220.3560, 2577.588
220.8381, 2597.877
221.3203, 2622.854
221.8024, 2647.578
222.2845, 2671.881
222.7666, 2695.940
223.2487, 2719.441
223.7308, 2740.313
224.2129, 2763.859
224.6951, 2793.978
225.1772, 2837.092
225.6593, 2872.277
226.1414, 2900.389
226.6235, 2920.011
227.1056, 2924.809
227.5878, 2905.993
228.0699, 2884.520
228.5520, 2871.827
229.0341, 2871.050
229.5162, 2872.950
229.9983, 2880.746
230.4805, 2891.706
230.9626, 2888.521
231.4447, 2864.041
231.9268, 2834.040
232.4089, 2809.258
232.8910, 2791.011
233.3732, 2774.493
233.8553, 2759.169
234.3374, 2745.018
234.8195, 2732.947
235.3016, 2722.025
235.7837, 2714.281
236.2659, 2711.338
236.7480, 2713.823
237.2301, 2719.917
237.7122, 2728.930
238.1943, 2740.930
238.6764, 2758.613
239.1586, 2782.388
239.6407, 2811.910
240.1228, 2846.308
240.6049, 2884.426
241.0870, 2930.095
241.5691, 2985.140
242.0513, 3049.841
242.5334, 3114.876
243.0155, 3171.840
243.4976, 3236.725
243.9797, 3327.438
244.4618, 3451.571
244.9440, 3585.353
245.4261, 3724.230
245.9082, 3867.911
246.3903, 4017.020
246.8724, 4164.467
247.3545, 4323.154
247.8367, 4509.456
248.3188, 4727.970
248.8009, 4961.894
249.2830, 5212.639
249.7651, 5481.293
250.2472, 5739.307
250.7294, 5982.635
251.2115, 6219.230
251.6936, 6458.937
252.1757, 6704.149
252.6578, 6951.140
253.1399, 7206.140
253.6220, 7473.692
254.1042, 7725.775
254.5863, 7969.573
255.0684, 8189.868
255.5505, 8375.150
256.0326, 8568.560
256.5147, 8639.233
256.9969, 8506.721
257.4790, 8104.839
257.9611, 7864.316
258.4432, 7855.580
258.9253, 7947.201
259.4074, 7934.473
259.8896, 7785.607
260.3717, 7597.322
260.8538, 7397.728
261.3359, 7189.308
261.8180, 6953.806
262.3001, 6696.581
262.7823, 6405.900
263.2644, 6046.571
263.7465, 5594.497
264.2286, 5136.478
264.7107, 4706.996
265.1928, 4298.163
265.6750, 3929.605
266.1571, 3598.340
266.6392, 3307.216
267.1213, 3056.200
267.6034, 2851.007
268.0855, 2675.101
268.5677, 2524.206
269.0498, 2399.633
269.5319, 2293.198
270.0140, 2206.269
270.4961, 2134.640
270.9782, 2071.137
271.4604, 2015.750
271.9425, 1966.516
272.4246, 1923.004
272.9067, 1885.486
273.3888, 1851.393
273.8709, 1820.436
274.3531, 1793.323
274.8352, 1771.230
275.3173, 1754.693
275.7994, 1741.337
276.2815, 1731.684
276.7636, 1726.372
277.2458, 1717.030
277.7279, 1703.528
278.2100, 1686.139
278.6921, 1662.718
279.1742, 1631.601
279.6563, 1605.508
280.1385, 1591.879
280.6206, 1590.822
281.1027, 1590.354
281.5848, 1592.312
282.0669, 1590.959
282.5490, 1572.190
283.0312, 1534.291
283.5133, 1501.987
283.9954, 1489.123
284.4775, 1494.486
284.9596, 1499.533
285.4417, 1504.697
285.9239, 1507.572
286.4060, 1502.092
286.8881, 1488.380
287.3702, 1476.951
287.8523, 1472.904
288.3344, 1475.566
288.8166, 1482.687
289.2987, 1495.999
289.7808, 1507.872
290.2629, 1504.878
290.7450, 1488.308
291.2271, 1472.514
291.7093, 1463.655
292.1914, 1460.943
292.6735, 1462.745
293.1556, 1469.818
293.6377, 1477.754
294.1198, 1481.604
294.6020, 1481.627
295.0841, 1479.167
295.5662, 1472.876
296.0483, 1464.728
296.5304, 1459.993
297.0125, 1459.174
297.4947, 1459.713
297.9768, 1459.885
298.4589, 1459.335
298.9410, 1456.775
299.4231, 1446.781
299.9052, 1435.593
300.3873, 1436.879
300.8694, 1452.255
301.3516, 1467.881
301.8337, 1468.152
302.3158, 1458.048
302.7979, 1450.136
303.2800, 1451.422
303.7621, 1457.158
304.2443, 1461.885
304.7264, 1465.350
305.2085, 1468.005
305.6906, 1472.159
306.1727, 1475.630
306.6548, 1474.564
307.1370, 1461.298
307.6191, 1446.437
308.1012, 1440.662
308.5833, 1444.294
309.0654, 1450.142
309.5475, 1456.427
310.0297, 1461.185
310.5118, 1461.772
310.9939, 1453.964
311.4760, 1444.042
311.9581, 1434.763
312.4402, 1426.307
312.9224, 1421.168
313.4045, 1423.649
313.8866, 1429.016
314.3687, 1432.155
314.8508, 1430.644
315.3329, 1427.131
315.8151, 1421.109
316.2972, 1412.997
316.7793, 1408.159
317.2614, 1415.743
317.7435, 1424.175
318.2256, 1423.724
318.7078, 1393.515
319.1899, 1372.154
319.6720, 1381.081
320.1541, 1414.591
320.6362, 1434.634
321.1183, 1415.631
321.6005, 1387.544
322.0826, 1370.045
322.5647, 1376.562
323.0468, 1383.289
323.5289, 1385.784
324.0110, 1384.868
324.4932, 1384.699
324.9753, 1384.384
325.4574, 1386.036
325.9395, 1390.857
326.4216, 1409.648
326.9037, 1418.274
327.3859, 1409.140
327.8680, 1387.553
328.3501, 1372.541
328.8322, 1366.818
329.3143, 1365.579
329.7964, 1367.286
330.2786, 1374.783
330.7607, 1380.455
331.2428, 1384.942
331.7249, 1387.512
332.2070, 1386.109
332.6891, 1377.303
333.1713, 1369.133
333.6534, 1364.814
334.1355, 1365.732
334.6176, 1366.342
335.0997, 1366.909
335.5818, 1366.988
336.0640, 1365.364
336.5461, 1360.596
337.0282, 1357.318
337.5103, 1357.913
337.9924, 1363.148
338.4745, 1364.643
338.9567, 1361.066
339.4388, 1355.647
339.9209, 1352.699
340.4030, 1352.515
340.8851, 1353.635
341.3672, 1357.581
341.8494, 1363.604
342.3315, 1359.239
342.8136, 1341.627
343.2957, 1323.107
343.7778, 1318.902
344.2599, 1328.897
344.7421, 1338.583
345.2242, 1343.763
345.7063, 1345.448
346.1884, 1345.022
346.6705, 1342.088
347.1526, 1341.849
347.6348, 1352.990
348.1169, 1372.130
348.5990, 1384.473
349.0811, 1383.261
349.5632, 1375.797
350.0453, 1374.634
350.5275, 1379.356
351.0096, 1384.652
351.4917, 1388.759
351.9738, 1390.402
352.4559, 1385.892
352.9380, 1371.427
353.4202, 1356.451
353.9023, 1351.334
354.3844, 1354.839
354.8665, 1362.145
355.3486, 1378.098
355.8307, 1392.947
356.3129, 1393.904
356.7950, 1374.625
357.2771, 1353.947
357.7592, 1344.870
358.2413, 1344.271
358.7234, 1345.507
359.2056, 1345.726
359.6877, 1346.526
360.1698, 1349.505
360.6519, 1355.428
361.1340, 1360.458
361.6161, 1364.905
362.0982, 1366.993
362.5804, 1364.297
363.0625, 1348.294
363.5446, 1334.268
364.0267, 1329.404
364.5088, 1334.952
364.9909, 1339.802
365.4731, 1342.790
365.9552, 1343.489
366.4373, 1341.508
366.9194, 1330.946
367.4015, 1323.959
367.8836, 1325.313
368.3658, 1334.839
368.8479, 1338.903
369.3300, 1335.093
369.8121, 1327.344
370.2942, 1317.593
370.7763, 1298.637
371.2585, 1288.875
371.7406, 1293.273
372.2227, 1308.310
372.7048, 1319.165
373.1869, 1324.867
373.6690, 1327.583
374.1512, 1329.021
374.6333, 1330.889
375.1154, 1323.907
375.5975, 1300.925
376.0796, 1274.334
376.5617, 1276.445
377.0439, 1316.052
377.5260, 1349.032
378.0081, 1350.352
378.4902, 1319.065
378.9723, 1304.458
379.4544, 1310.326
379.9366, 1322.810
380.4187, 1321.056
380.9008, 1305.528
381.3829, 1294.790
381.8650, 1299.556
382.3471, 1313.686
382.8293, 1315.607
383.3114, 1304.581
383.7935, 1291.511
384.2756, 1284.910
384.7577, 1284.419
385.2398, 1289.692
385.7220, 1305.984
386.2041, 1322.447
386.6862, 1321.203
387.1683, 1304.400
387.6504, 1287.324
388.1325, 1280.564
388.6147, 1279.850
389.0968, 1279.303
389.5789, 1276.242
390.0610, 1276.149
390.5431, 1288.965
391.0252, 1308.693
391.5074, 1319.990
391.9895, 1309.411
392.4716, 1291.996
392.9537, 1276.174
393.4358, 1260.958
393.9179, 1255.507
394.4001, 1275.299
394.8822, 1304.102
395.3643, 1319.284
395.8464, 1297.500
396.3285, 1277.000
396.8106, 1272.611
397.2928, 1286.538
397.7749, 1298.927
398.2570, 1311.170
398.7391, 1318.807
399.2212, 1317.964
399.7033, 1299.401
400.1855, 1283.583
400.6676, 1271.839
401.1497, 1264.308
401.6318, 1261.669
402.1139, 1266.707
402.5960, 1273.228
403.0782, 1278.460
403.5603, 1283.879
404.0424, 1283.143
404.5245, 1272.263
405.0066, 1257.507
405.4887, 1254.418
405.9709, 1266.282
406.4530, 1278.001
406.9351, 1281.443
407.4172, 1276.407
407.8993, 1277.755
408.3814, 1286.887
408.8636, 1298.579
409.3457, 1308.190
409.8278, 1315.460
410.3099, 1315.555
410.7920, 1301.891
411.2741, 1281.737
411.7563, 1274.446
412.2384, 1280.155
412.7205, 1288.638
413.2026, 1291.650
413.6847, 1291.101
414.1668, 1291.063
414.6490, 1292.572
415.1311, 1294.832
415.6132, 1297.318
416.0953, 1299.942
416.5774, 1302.292
417.0595, 1305.294
417.5417, 1307.310
418.0238, 1305.795
418.5059, 1298.586
418.9880, 1294.184
419.4701, 1300.529
419.9522, 1312.043
420.4344, 1319.893
420.9165, 1318.449
421.3986, 1315.226
421.8807, 1313.012
422.3628, 1312.106
422.8449, 1311.116
423.3270, 1307.083
423.8091, 1304.326
424.2913, 1306.348
424.7734, 1321.135
425.2555, 1331.702
425.7376, 1334.968
426.2197, 1332.256
426.7018, 1330.564
427.1840, 1329.252
427.6661, 1329.697
428.1482, 1332.972
428.6303, 1340.705
429.1124, 1346.793
429.5945, 1351.084
430.0767, 1353.781
430.5588, 1354.946
431.0409, 1354.221
431.5230, 1353.570
432.0051, 1353.469
432.4872, 1353.998
432.9694, 1356.224
433.4515, 1360.458
433.9336, 1364.986
434.4157, 1369.090
434.8978, 1372.356
435.3799, 1371.995
435.8621, 1365.560
436.3442, 1356.918
436.8263, 1352.388
437.3084, 1351.663
437.7905, 1352.902
438.2726, 1355.790
438.7548, 1359.542
439.2369, 1363.719
439.7190, 1369.099
440.2011, 1371.950
440.6832, 1363.079
441.1653, 1350.045
441.6475, 1347.063
442.1296, 1373.806
442.6117, 1401.445
443.0938, 1412.539
443.5759, 1405.256
444.0580, 1396.300
444.5402, 1387.135
445.0223, 1380.965
445.5044, 1380.604
445.9865, 1399.143
446.4686, 1409.388
446.9507, 1401.303
447.4329, 1379.375
447.9150, 1366.536
448.3971, 1368.809
448.8792, 1373.866
449.3613, 1375.933
449.8434, 1371.598
450.3256, 1374.743
450.8077, 1390.435
451.2898, 1408.886
451.7719, 1413.118
452.2540, 1399.280
452.7361, 1386.233
453.2183, 1379.748
453.7004, 1379.081
454.1825, 1379.651
454.6646, 1381.986
455.1467, 1382.403
455.6288, 1373.746
456.1110, 1358.745
456.5931, 1353.862
457.0752, 1366.479
457.5573, 1383.302
458.0394, 1381.444
458.5215, 1364.734
459.0037, 1350.642
459.4858, 1350.068
459.9679, 1357.510
460.4500, 1368.516
460.9321, 1383.698
461.4142, 1394.629
461.8964, 1394.546
462.3785, 1387.116
462.8606, 1377.385
463.3427, 1355.222
463.8248, 1342.168
464.3069, 1356.875
464.7891, 1394.266
465.2712, 1416.974
465.7533, 1403.276
466.2354, 1380.828
466.7175, 1364.824
467.1996, 1359.856
467.6818, 1356.387
468.1639, 1353.211
468.6460, 1351.613
469.1281, 1354.732
469.6102, 1368.934
470.0923, 1376.611
470.5745, 1369.515
471.0566, 1346.935
471.5387, 1337.869
472.0208, 1346.885
472.5029, 1359.300
472.9850, 1360.192
473.4672, 1349.074
473.9493, 1343.094
474.4314, 1346.453
474.9135, 1354.749
475.3956, 1359.924
475.8777, 1362.091
476.3599, 1361.627
476.8420, 1356.353
477.3241, 1349.187
477.8062, 1345.709
478.2883, 1346.377
478.7704, 1350.140
479.2526, 1359.783
479.7347, 1371.281
480.2168, 1377.926
480.6989, 1370.892
481.1810, 1364.045
481.6631, 1366.842
482.1453, 1377.563
482.6274, 1387.747
483.1095, 1392.688
483.5916, 1396.786
484.0737, 1403.272
484.5558, 1416.273
485.0379, 1423.673
485.5201, 1421.643
486.0022, 1413.549
486.4843, 1404.066
486.9664, 1385.879
487.4485, 1376.520
487.9306, 1382.050
488.4128, 1401.911
488.8949, 1419.214
489.3770, 1435.288
489.8591, 1446.654
490.3412, 1449.121
490.8233, 1441.734
491.3055, 1435.854
491.7876, 1432.315
492.2697, 1431.183
492.7518, 1432.700
493.2339, 1436.793
493.7160, 1442.956
494.1982, 1453.221
494.6803, 1464.877
495.1624, 1471.149
495.6445, 1472.051
496.1266, 1471.706
496.6087, 1472.089
497.0909, 1473.764
497.5730, 1477.822
498.0551, 1485.879
498.5372, 1494.168
499.0193, 1499.420
499.5014, 1502.992
499.9836, 1508.171
500.4657, 1517.788
500.9478, 1527.923
501.4299, 1536.938
501.9120, 1544.466
502.3941, 1551.725
502.8763, 1558.837
503.3584, 1565.651
503.8405, 1572.025
504.3226, 1577.841
504.8047, 1583.283
505.2868, 1588.139
505.7690, 1592.605
506.2511, 1597.963
506.7332, 1605.211
507.2153, 1610.438
507.6974, 1610.882
508.1795, 1606.640
508.6617, 1604.009
509.1438, 1603.028
509.6259, 1603.717
510.1080, 1607.407
510.5901, 1613.238
511.0722, 1617.388
511.5544, 1619.528
512.0365, 1618.526
512.5186, 1609.806
513.0007, 1595.435
513.4828, 1584.426
513.9650, 1583.430
514.4471, 1587.475
514.9292, 1593.975
515.4113, 1603.802
515.8934, 1608.115
516.3755, 1601.503
516.8576, 1587.690
517.3397, 1570.694
517.8218, 1539.998
518.3040, 1518.739
518.7861, 1518.116
519.2682, 1533.734
519.7503, 1539.281
520.2324, 1528.982
520.7145, 1515.311
521.1967, 1502.958
521.6788, 1491.769
522.1609, 1482.400
522.6430, 1474.902
523.1251, 1469.165
523.6072, 1465.698
524.0894, 1464.667
524.5715, 1462.908
525.0536, 1459.106
525.5357, 1454.652
526.0178, 1453.625
526.4999, 1455.668
526.9821, 1456.361
527.4642, 1454.654
527.9463, 1449.191
528.4284, 1434.700
528.9105, 1409.352
529.3926, 1388.391
529.8748, 1387.577
530.3569, 1397.156
530.8390, 1404.483
531.3211, 1409.323
531.8032, 1407.049
532.2853, 1390.478
532.7675, 1363.990
533.2496, 1344.525
533.7317, 1337.223
534.2138, 1336.033
534.6959, 1340.956
535.1780, 1356.276
535.6602, 1359.378
536.1423, 1340.645
536.6244, 1319.595
537.1065, 1317.826
537.5886, 1342.104
538.0707, 1358.777
538.5529, 1360.186
539.0350, 1353.007
539.5171, 1355.127
539.9992, 1366.668
540.4813, 1379.921
540.9634, 1394.443
541.4456, 1407.242
541.9277, 1407.469
542.4098, 1394.437
542.8919, 1380.362
543.3740, 1376.836
543.8561, 1379.127
544.3383, 1380.515
544.8204, 1379.231
545.3025, 1376.533
545.7846, 1372.407
546.2667, 1367.430
546.7488, 1362.900
547.2310, 1359.697
547.7131, 1356.707
548.1952, 1352.546
548.6773, 1346.563
549.1594, 1345.128
549.6415, 1350.841
550.1237, 1358.877
550.6058, 1366.126
551.0879, 1372.363
551.5700, 1378.983
552.0521, 1388.245
552.5342, 1395.567
553.0164, 1388.347
553.4985, 1365.148
553.9806, 1349.115
554.4627, 1351.994
554.9448, 1367.686
555.4269, 1380.807
555.9091, 1391.307
556.3912, 1395.663
556.8733, 1384.677
557.3554, 1368.032
557.8375, 1361.667
558.3196, 1371.391
558.8018, 1379.234
559.2839, 1366.188
559.7660, 1345.596
560.2481, 1336.614
560.7302, 1358.550
561.2123, 1379.475
561.6945, 1389.075
562.1766, 1388.160
562.6587, 1385.849
563.1408, 1380.481
563.6229, 1376.201
564.1050, 1374.309
564.5872, 1374.482
565.0693, 1379.909
565.5514, 1394.567
566.0335, 1407.891
566.5156, 1405.069
566.9977, 1385.583
567.4799, 1369.999
567.9620, 1362.886
568.4441, 1361.420
568.9262, 1361.820
569.4083, 1363.745
569.8904, 1365.172
570.3726, 1365.675
570.8547, 1364.716
571.3368, 1359.248
571.8189, 1349.422
572.3010, 1344.694
572.7831, 1356.882
573.2653, 1373.525
573.7474, 1383.034
574.2295, 1377.671
574.7116, 1374.238
575.1937, 1378.142
575.6758, 1386.010
576.1580, 1391.947
576.6401, 1396.120
577.1222, 1397.993
577.6043, 1396.753
578.0864, 1392.811
578.5685, 1390.417
579.0507, 1390.117
579.5328, 1389.591
580.0149, 1386.204
580.4970, 1380.453
580.9791, 1379.124
581.4612, 1382.933
581.9434, 1388.822
582.4255, 1393.798
582.9076, 1398.021
583.3897, 1401.894
583.8718, 1405.766
584.3539, 1408.948
584.8361, 1412.380
585.3182, 1414.813
585.8003, 1412.893
586.2824, 1397.220
586.7645, 1383.703
587.2466, 1382.400
587.7288, 1395.314
588.2109, 1403.722
588.6930, 1400.255
589.1751, 1395.524
589.6572, 1396.153
590.1393, 1405.936
590.6215, 1411.797
591.1036, 1411.904
591.5857, 1409.853
592.0678, 1412.422
592.5499, 1420.081
593.0320, 1424.943
593.5142, 1423.657
593.9963, 1418.726
594.4784, 1415.017
594.9605, 1412.653
595.4426, 1412.899
595.9247, 1418.451
596.4069, 1426.092
596.8890, 1433.684
597.3711, 1441.470
597.8532, 1443.074
598.3353, 1426.374
598.8174, 1406.348
599.2996, 1397.016
599.7817, 1413.905
600.2638, 1425.587
600.7459, 1422.024
601.2280, 1411.354
601.7101, 1409.842
602.1923, 1423.456
602.6744, 1435.254
603.1565, 1440.915
603.6386, 1440.967
604.1207, 1437.946
604.6028, 1431.168
605.0850, 1425.145
605.5671, 1423.730
606.0492, 1425.796
606.5313, 1426.683
607.0134, 1425.923
607.4955, 1425.468
607.9777, 1430.800
608.4598, 1436.851
608.9419, 1434.257
609.4240, 1410.334
609.9061, 1392.098
610.3882, 1400.738
610.8704, 1425.539
611.3525, 1443.376
611.8346, 1444.597
612.3167, 1441.962
612.7988, 1436.124
613.2809, 1427.500
613.7631, 1430.484
614.2452, 1453.517
614.7273, 1474.370
615.2094, 1478.169
615.6915, 1462.886
616.1736, 1452.131
616.6558, 1446.996
617.1379, 1444.516
617.6200, 1440.000
618.1021, 1434.821
618.5842, 1434.737
619.0663, 1442.178
619.5485, 1453.382
620.0306, 1468.902
620.5127, 1485.232
620.9948, 1493.838
621.4769, 1481.552
621.9590, 1468.526
622.4412, 1467.331
622.9233, 1477.475
623.4054, 1483.122
623.8875, 1473.537
624.3696, 1465.304
624.8517, 1468.350
625.3339, 1489.768
625.8160, 1496.251
626.2981, 1482.457
626.7802, 1462.171
627.2623, 1449.819
627.7444, 1445.514
628.2266, 1444.582
628.7087, 1447.013
629.1908, 1450.915
629.6729, 1453.282
630.1550, 1454.462
630.6371, 1455.622
631.1193, 1455.650
631.6014, 1457.133
632.0835, 1465.130
632.5656, 1478.001
633.0477, 1485.710
633.5298, 1478.625
634.0120, 1469.496
634.4941, 1466.433
634.9762, 1473.207
635.4583, 1473.522
635.9404, 1458.233
636.4225, 1444.238
636.9047, 1448.162
637.3868, 1478.085
637.8689, 1492.299
638.3510, 1483.261
638.8331, 1463.793
639.3152, 1453.955
639.7973, 1453.177
640.2794, 1455.589
640.7615, 1459.890
641.2437, 1465.577
641.7258, 1475.104
642.2079, 1486.353
642.6900, 1491.217
643.1721, 1477.419
643.6542, 1461.734
644.1364, 1456.592
644.6185, 1463.633
645.1006, 1468.689
645.5827, 1467.469
646.0648, 1463.823
646.5469, 1459.911
647.0291, 1454.547
647.5112, 1451.501
647.9933, 1451.032
648.4754, 1452.413
648.9575, 1455.122
649.4396, 1459.210
649.9218, 1463.858
650.4039, 1471.062
650.8860, 1474.999
651.3681, 1457.404
651.8502, 1425.654
652.3323, 1407.264
652.8145, 1433.101
653.2966, 1465.031
653.7787, 1468.306
654.2608, 1446.322
654.7429, 1428.080
655.2250, 1425.607
655.7072, 1429.282
656.1893, 1435.652
656.6714, 1446.445
657.1535, 1451.269
657.6356, 1448.801
658.1177, 1441.892
658.5999, 1431.301
659.0820, 1415.666
659.5641, 1405.172
660.0462, 1400.390
660.5283, 1401.733
661.0104, 1415.248
661.4926, 1436.848
661.9747, 1448.796
662.4568, 1439.812
662.9389, 1426.056
663.4210, 1425.223
663.9031, 1433.655
664.3853, 1441.143
664.8674, 1443.890
665.3495, 1443.912
665.8316, 1440.055
666.3137, 1432.383
666.7958, 1429.877
667.2780, 1435.382
667.7601, 1443.155
668.2422, 1451.486
668.7243, 1461.283
669.2064, 1463.998
669.6885, 1457.314
670.1707, 1450.299
670.6528, 1456.524
671.1349, 1471.731
671.6170, 1472.415
672.0991, 1451.215
672.5812, 1427.703
673.0634, 1422.599
673.5455, 1429.400
674.0276, 1436.812
674.5097, 1443.160
674.9918, 1446.581
675.4739, 1446.400
675.9561, 1442.742
676.4382, 1435.822
676.9203, 1417.253
677.4024, 1405.540
677.8845, 1407.271
678.3666, 1421.023
678.8488, 1430.301
679.3309, 1434.793
679.8130, 1435.950
680.2951, 1432.897
680.7772, 1426.873
681.2593, 1423.596
681.7415, 1423.175
682.2236, 1425.360
682.7057, 1433.277
683.1878, 1442.334
683.6699, 1445.461
684.1520, 1439.000
684.6342, 1434.675
685.1163, 1441.253
685.5984, 1451.475
686.0805, 1457.067
686.5626, 1451.580
687.0447, 1448.081
687.5269, 1447.815
688.0090, 1449.829
688.4911, 1452.578
688.9732, 1456.446
689.4553, 1459.317
689.9374, 1461.379
690.4196, 1461.350
690.9017, 1451.801
691.3838, 1434.793
691.8659, 1424.627
692.3480, 1440.452
692.8301, 1460.381
693.3123, 1456.375
693.7944, 1429.357
694.2765, 1411.196
694.7586, 1422.798
695.2407, 1441.966
695.7228, 1456.035
696.2050, 1463.797
696.6871, 1466.401
697.1692, 1460.432
697.6513, 1453.551
698.1334, 1453.407
698.6155, 1461.012
699.0977, 1464.998
699.5798, 1463.898
700.0619, 1460.567
700.5440, 1459.879
701.0261, 1460.251
701.5082, 1456.049
701.9904, 1440.936
702.4725, 1428.218
702.9546, 1430.192
703.4367, 1442.418
703.9188, 1456.021
704.4009, 1474.263
704.8831, 1486.941
705.3652, 1488.085
705.8473, 1480.297
706.3294, 1474.906
706.8115, 1472.719
707.2936, 1471.384
707.7758, 1469.879
708.2579, 1468.420
708.7400, 1470.795
709.2221, 1477.329
709.7042, 1478.357
710.1863, 1455.655
710.6685, 1426.670
711.1506, 1425.072
711.6327, 1454.347
712.1148, 1481.922
712.5969, 1485.508
713.0790, 1479.819
713.5612, 1476.752
714.0433, 1479.517
714.5254, 1482.350
715.0075, 1484.827
715.4896, 1487.098
715.9717, 1490.261
716.4539, 1495.828
716.9360, 1493.994
717.4181, 1480.303
717.9002, 1464.853
718.3823, 1466.134
718.8644, 1481.040
719.3466, 1496.329
719.8287, 1510.889
720.3108, 1519.031
720.7929, 1508.678
721.2750, 1487.198
721.7571, 1472.301
722.2393, 1476.212
722.7214, 1483.039
723.2035, 1489.629
723.6856, 1494.937
724.1677, 1492.467
724.6498, 1475.769
725.1320, 1463.124
725.6141, 1463.474
726.0962, 1475.255
726.5783, 1483.102
727.0604, 1487.027
727.5425, 1488.036
728.0247, 1485.776
728.5068, 1481.546
728.9889, 1475.786
729.4710, 1468.464
729.9531, 1466.277
730.4352, 1477.940
730.9174, 1493.495
731.3995, 1505.988
731.8816, 1516.582
732.3637, 1517.437
732.8458, 1498.077
733.3279, 1477.960
733.8101, 1478.134
734.2922, 1503.950
734.7743, 1519.455
735.2564, 1519.585
735.7385, 1512.363
736.2206, 1508.349
736.7028, 1506.767
737.1849, 1504.302
737.6670, 1497.496
738.1491, 1494.025
738.6312, 1505.204
739.1133, 1523.791
739.5955, 1536.422
740.0776, 1537.625
740.5597, 1533.760
741.0418, 1522.328
741.5239, 1507.171
742.0060, 1498.724
742.4882, 1498.377
742.9703, 1501.066
743.4524, 1505.906
743.9345, 1512.120
744.4166, 1516.291
744.8987, 1518.617
745.3809, 1522.574
745.8630, 1531.450
746.3451, 1542.304
746.8272, 1552.835
747.3093, 1562.726
747.7914, 1569.639
748.2736, 1571.545
748.7557, 1565.055
749.2378, 1577.417
749.7199, 1584.737
750.2020, 1587.286
750.6841, 1570.772
751.1663, 1578.874
751.6484, 1577.111
752.1305, 1574.943
752.6126, 1586.509
753.0947, 1572.769
753.5768, 1584.117
754.0590, 1585.450
754.5411, 1591.366
755.0232, 1587.358
755.5053, 1586.415
755.9874, 1595.400
756.4695, 1598.888
756.9517, 1593.737
757.4338, 1580.452
757.9159, 1590.856
758.3980, 1596.470
758.8801, 1595.735
759.3622, 1591.681
759.8444, 1586.541
760.3265, 1579.978
760.8086, 1581.551
761.2907, 1596.011
761.7728, 1612.338
762.2549, 1611.594
762.7370, 1600.228
763.2191, 1594.335
763.7012, 1606.467
764.1833, 1617.899
764.6655, 1614.782
765.1476, 1603.664
765.6297, 1599.045
766.1118, 1606.424
766.5939, 1616.594
767.0760, 1629.153
767.5582, 1643.045
768.0403, 1655.126
768.5224, 1665.180
769.0045, 1673.960
769.4866, 1683.156
769.9688, 1690.076
770.4509, 1687.821
770.9330, 1677.895
771.4151, 1667.020
771.8972, 1653.539
772.3793, 1645.218
772.8615, 1649.354
773.3436, 1665.050
773.8257, 1679.714
774.3078, 1696.159
774.7899, 1705.632
775.2720, 1701.168
775.7542, 1683.894
776.2363, 1683.790
776.7184, 1703.333
777.2005, 1722.494
777.6826, 1723.833
778.1647, 1715.756
778.6469, 1719.350
779.1290, 1734.782
779.6111, 1746.106
780.0932, 1733.442
780.5753, 1719.535
781.0574, 1725.284
781.5396, 1759.295
782.0217, 1779.267
782.5038, 1774.248
782.9859, 1763.172
783.4680, 1757.853
783.9501, 1759.172
784.4323, 1757.656
784.9144, 1752.490
785.3965, 1748.723
785.8786, 1751.606
786.3607, 1759.452
786.8428, 1770.939
787.3250, 1787.263
787.8071, 1797.327
788.2892, 1788.609
788.7713, 1773.604
789.2534, 1763.175
789.7355, 1756.804
790.2177, 1760.992
790.6998, 1784.441
791.1819, 1809.140
791.6640, 1814.777
792.1461, 1800.040
792.6282, 1789.174
793.1104, 1784.886
793.5925, 1784.680
794.0746, 1785.152
794.5567, 1787.521
795.0388, 1795.341
795.5209, 1814.027
796.0031, 1828.112
796.4852, 1828.811
796.9673, 1821.044
797.4494, 1810.852
797.9315, 1794.077
798.4136, 1783.502
798.8958, 1781.728
799.3779, 1784.524
799.8600, 1785.550
800.3421, 1784.898
800.8242, 1784.530
801.3063, 1784.388
801.7885, 1785.930
802.2706, 1794.881
802.7527, 1806.143
803.2348, 1810.296
803.7169, 1792.726
804.1990, 1780.523
804.6812, 1790.942
805.1633, 1810.974
805.6454, 1813.840
806.1275, 1787.779
806.6096, 1772.374
807.0917, 1777.318
807.5739, 1792.443
808.0560, 1796.625
808.5381, 1791.066
809.0202, 1783.632
809.5023, 1774.297
809.9844, 1768.287
810.4666, 1774.824
810.9487, 1788.256
811.4308, 1796.454
811.9129, 1789.922
812.3950, 1783.797
812.8771, 1782.279
813.3593, 1783.720
813.8414, 1785.138
814.3235, 1787.672
814.8056, 1784.269
815.2877, 1768.988
815.7698, 1751.308
816.2520, 1757.557
816.7341, 1780.911
817.2162, 1795.364
817.6983, 1775.331
818.1804, 1754.184
818.6625, 1759.098
819.1447, 1780.914
819.6268, 1794.074
820.1089, 1790.436
820.5910, 1780.143
821.0731, 1759.370
821.5552, 1735.108
822.0374, 1730.951
822.5195, 1748.019
823.0016, 1765.551
823.4837, 1776.834
823.9658, 1782.820
824.4479, 1781.201
824.9301, 1774.964
825.4122, 1773.580
825.8943, 1791.105
826.3764, 1804.332
826.8585, 1798.889
827.3406, 1779.684
827.8228, 1768.897
828.3049, 1769.818
828.7870, 1772.816
829.2691, 1776.426
829.7512, 1779.524
830.2333, 1775.906
830.7155, 1766.906
831.1976, 1763.523
831.6797, 1778.073
832.1618, 1794.925
832.6439, 1798.744
833.1260, 1792.316
833.6082, 1784.054
834.0903, 1772.352
834.5724, 1764.194
835.0545, 1762.495
835.5366, 1765.461
836.0187, 1767.818
836.5009, 1770.109
836.9830, 1767.747
837.4651, 1754.767
837.9472, 1740.624
838.4293, 1748.708
838.9114, 1772.641
839.3936, 1790.010
839.8757, 1782.950
840.3578, 1773.083
840.8399, 1772.408
841.3220, 1778.230
841.8041, 1780.314
842.2863, 1775.737
842.7684, 1771.760
843.2505, 1770.597
843.7326, 1770.760
844.2147, 1767.201
844.6968, 1760.360
845.1790, 1754.997
845.6611, 1753.577
846.1432, 1753.998
846.6253, 1729.461
847.1074, 1740.969
847.5895, 1747.434
848.0717, 1749.127
848.5538, 1731.758
849.0359, 1739.005
849.5180, 1736.386
850.0001, 1733.363
850.4822, 1744.074
850.9644, 1729.478
851.4465, 1739.970
851.9286, 1740.448
852.4107, 1745.510
852.8928, 1740.645
853.3749, 1738.847
853.8571, 1746.977
854.3392, 1749.610
854.8213, 1742.744
855.3034, 1728.830
855.7855, 1723.302
856.2676, 1730.824
856.7498, 1737.477
857.2319, 1740.246
857.7140, 1742.257
858.1961, 1752.867
858.6782, 1769.929
859.1603, 1776.937
859.6425, 1765.520
860.1246, 1750.352
860.6067, 1743.495
861.0888, 1742.838
861.5709, 1745.192
862.0530, 1756.950
862.5352, 1761.594
863.0173, 1752.265
863.4994, 1739.190
863.9815, 1736.289
864.4636, 1744.146
864.9457, 1756.473
865.4279, 1774.243
865.9100, 1789.324
866.3921, 1787.997
866.8742, 1777.185
867.3563, 1769.372
867.8384, 1770.241
868.3206, 1769.348
868.8027, 1758.213
869.2848, 1745.879
869.7669, 1742.616
870.2490, 1753.149
870.7311, 1759.325
871.2133, 1759.794
871.6954, 1757.211
872.1775, 1752.185
872.6596, 1746.614
873.1417, 1746.921
873.6238, 1754.750
874.1060, 1763.714
874.5881, 1772.377
875.0702, 1778.083
875.5523, 1778.024
876.0344, 1769.366
876.5165, 1760.150
876.9987, 1748.183
877.4808, 1739.204
877.9629, 1738.665
878.4450, 1745.849
878.9271, 1755.358
879.4092, 1767.120
879.8914, 1776.015
880.3735, 1775.128
880.8556, 1771.007
881.3377, 1770.393
881.8198, 1774.453
882.3019, 1777.612
882.7841, 1778.509
883.2662, 1778.446
883.7483, 1776.634
884.2304, 1773.193
884.7125, 1780.478
885.1946, 1799.578
885.6768, 1811.758
886.1588, 1794.893
886.6409, 1768.454
887.1230, 1759.034
887.6052, 1765.631
888.0873, 1774.291
888.5694, 1781.545
889.0515, 1787.545
889.5336, 1793.518
890.0157, 1798.717
890.4979, 1796.481
890.9800, 1784.851
891.4621, 1777.193
891.9442, 1780.708
892.4263, 1790.626
892.9084, 1799.500
893.3906, 1807.015
893.8727, 1812.373
894.3548, 1814.637
894.8369, 1815.263
895.3190, 1814.001
895.8011, 1811.579
896.2833, 1809.893
896.7654, 1808.672
897.2475, 1809.769
897.7296, 1815.442
898.2117, 1820.705
898.6938, 1812.713
899.1760, 1796.014
899.6581, 1785.397
900.1402, 1787.265
900.6223, 1793.586
901.1044, 1806.272
901.5865, 1817.881
902.0687, 1815.890
902.5508, 1783.772
903.0329, 1771.809
903.5150, 1789.456
903.9971, 1815.115
904.4792, 1819.321
904.9614, 1806.896
905.4435, 1800.507
905.9256, 1804.341
906.4077, 1809.390
906.8898, 1807.241
907.3719, 1803.652
907.8541, 1805.302
908.3362, 1817.609
908.8183, 1820.866
909.3004, 1809.611
909.7825, 1797.265
910.2646, 1793.230
910.7468, 1796.917
911.2289, 1805.076
911.7110, 1817.569
912.1931, 1826.005
912.6752, 1819.916
913.1573, 1810.192
913.6395, 1804.745
914.1216, 1804.278
914.6037, 1811.184
915.0858, 1835.665
915.5679, 1853.359
916.0500, 1853.964
916.5322, 1840.695
917.0143, 1826.431
917.4964, 1811.753
917.9785, 1805.296
918.4606, 1818.976
918.9427, 1837.019
919.4249, 1842.329
919.9070, 1839.435
920.3891, 1840.848
920.8712, 1858.771
921.3533, 1869.312
921.8354, 1864.761
922.3176, 1853.166
922.7997, 1852.164
923.2818, 1861.319
923.7639, 1867.267
924.2460, 1866.311
924.7281, 1861.966
925.2103, 1852.270
925.6924, 1843.665
926.1745, 1846.662
926.6566, 1879.922
927.1387, 1895.482
927.6208, 1876.409
928.1030, 1850.460
928.5851, 1845.904
929.0672, 1863.293
929.5493, 1866.726
930.0314, 1852.996
930.5135, 1837.630
930.9957, 1834.606
931.4778, 1838.282
931.9599, 1843.291
932.4420, 1849.161
932.9241, 1854.225
933.4063, 1860.736
933.8884, 1863.269
934.3705, 1857.689
934.8526, 1845.023
935.3347, 1837.508
935.8168, 1835.130
936.2990, 1837.561
936.7811, 1848.704
937.2632, 1861.566
937.7453, 1867.879
938.2274, 1869.135
938.7095, 1870.853
939.1917, 1879.215
939.6738, 1882.047
940.1559, 1874.703
940.6380, 1861.802
941.1201, 1852.925
941.6022, 1848.136
942.0844, 1848.780
942.5665, 1857.446
943.0486, 1865.926
943.5307, 1864.317
944.0128, 1857.221
944.4949, 1850.860
944.9771, 1842.735
945.4592, 1843.519
945.9413, 1860.318
946.4234, 1878.372
946.9055, 1881.346
947.3876, 1870.299
947.8698, 1870.128
948.3519, 1882.943
948.8340, 1894.256
949.3161, 1887.828
949.7982, 1876.162
950.2803, 1871.563
950.7625, 1875.641
951.2446, 1879.260
951.7267, 1879.560
952.2088, 1881.741
952.6909, 1889.155
953.1730, 1900.124
953.6552, 1906.560
954.1373, 1908.545
954.6194, 1907.311
955.1015, 1895.563
955.5836, 1888.114
956.0657, 1905.461
956.5479, 1935.888
957.0300, 1947.923
957.5121, 1918.239
957.9942, 1903.896
958.4763, 1918.394
958.9584, 1942.976
959.4406, 1945.589
959.9227, 1930.367
960.4048, 1915.966
960.8869, 1905.920
961.3690, 1899.762
961.8511, 1898.262
962.3333, 1899.710
962.8154, 1903.425
963.2975, 1912.219
963.7796, 1911.240
964.2617, 1894.063
964.7438, 1882.679
965.2260, 1903.447
965.7081, 1942.446
966.1902, 1949.951
966.6723, 1927.993
967.1544, 1905.372
967.6365, 1893.596
968.1187, 1891.568
968.6008, 1904.679
969.0829, 1928.695
969.5650, 1942.925
970.0471, 1946.457
970.5292, 1942.882
971.0114, 1930.079
971.4935, 1915.852
971.9756, 1916.190
972.4577, 1925.953
972.9398, 1932.444
973.4219, 1928.814
973.9041, 1926.014
974.3862, 1929.015
974.8683, 1934.254
975.3504, 1938.509
975.8325, 1942.216
976.3146, 1941.454
976.7968, 1935.183
977.2789, 1929.961
977.7610, 1936.810
978.2431, 1945.996
978.7252, 1938.308
979.2073, 1912.683
979.6895, 1901.048
980.1716, 1930.839
980.6537, 1959.324
981.1358, 1969.655
981.6179, 1965.467
982.1000, 1966.639
982.5822, 1973.003
983.0643, 1976.716
983.5464, 1974.249
984.0285, 1967.662
984.5106, 1952.882
984.9927, 1936.717
985.4749, 1931.857
985.9570, 1959.047
986.4391, 1971.059
986.9212, 1957.401
987.4033, 1938.700
987.8854, 1943.701
988.3676, 1967.186
988.8497, 1981.340
989.3318, 1982.649
989.8139, 1977.644
990.2960, 1965.292
990.7781, 1952.956
991.2603, 1948.626
991.7424, 1953.631
992.2245, 1949.332
992.7066, 1929.414
993.1887, 1919.604
993.6708, 1939.169
994.1530, 1972.639
994.6351, 1981.516
995.1172, 1971.855
995.5993, 1963.118
996.0814, 1967.173
996.5635, 1970.545
997.0457, 1966.970
997.5278, 1960.251
998.0099, 1955.718
998.4920, 1953.267
998.9741, 1953.775
999.4562, 1957.712
999.9384, 1962.651
1000.420, 1962.148
1000.903, 1962.803
1001.385, 1979.001
1001.867, 2016.412
1002.349, 2034.436
1002.831, 2006.242
1003.313, 1977.804
1003.795, 1971.525
1004.277, 1982.783
1004.760, 1978.950
1005.242, 1961.621
1005.724, 1949.579
1006.206, 1957.737
1006.688, 1969.787
1007.170, 1972.610
1007.652, 1970.422
1008.134, 1972.767
1008.616, 1982.474
1009.099, 1992.740
1009.581, 2004.161
1010.063, 2013.545
1010.545, 2014.870
1011.027, 2011.360
1011.509, 2012.635
1011.991, 2020.547
1012.473, 2025.641
1012.955, 2017.534
1013.438, 2009.901
1013.920, 2012.047
1014.402, 2023.379
1014.884, 2032.752
1015.366, 2040.519
1015.848, 2043.241
1016.330, 2035.160
1016.812, 2025.425
1017.294, 2030.462
1017.777, 2043.040
1018.259, 2047.521
1018.741, 2026.658
1019.223, 2015.250
1019.705, 2020.199
1020.187, 2032.023
1020.669, 2040.968
1021.151, 2046.759
1021.634, 2046.365
1022.116, 2039.125
1022.598, 2033.378
1023.080, 2032.521
1023.562, 2037.816
1024.044, 2055.319
1024.526, 2085.054
1025.008, 2095.919
1025.490, 2082.843
1025.973, 2069.757
1026.455, 2066.449
1026.937, 2068.365
1027.419, 2066.830
1027.901, 2063.540
1028.383, 2062.845
1028.865, 2071.149
1029.347, 2074.863
1029.830, 2063.825
1030.312, 2052.416
1030.794, 2057.980
1031.276, 2081.275
1031.758, 2084.668
1032.240, 2065.457
1032.722, 2048.097
1033.204, 2057.031
1033.687, 2072.989
1034.169, 2078.750
1034.651, 2074.085
1035.133, 2071.769
1035.615, 2075.889
1036.097, 2074.277
1036.579, 2060.933
1037.061, 2043.615
1037.543, 2036.869
1038.026, 2039.266
1038.508, 2048.180
1038.990, 2066.610
1039.472, 2082.307
1039.954, 2091.753
1040.436, 2095.179
1040.918, 2092.185
1041.400, 2082.074
1041.882, 2072.338
1042.365, 2062.782
1042.847, 2057.273
1043.329, 2057.527
1043.811, 2063.999
1044.293, 2080.912
1044.775, 2105.182
1045.257, 2124.409
1045.739, 2138.691
1046.222, 2143.846
1046.704, 2137.424
1047.186, 2124.178
1047.668, 2108.712
1048.150, 2092.588
1048.632, 2080.440
1049.114, 2072.970
1049.596, 2070.561
1050.078, 2078.491
1050.561, 2087.032
1051.043, 2087.974
1051.525, 2081.844
1052.007, 2089.807
1052.489, 2112.600
1052.971, 2129.858
1053.453, 2126.985
1053.935, 2117.938
1054.417, 2119.193
1054.900, 2125.243
1055.382, 2125.525
1055.864, 2108.563
1056.346, 2101.736
1056.828, 2110.467
1057.310, 2121.089
1057.792, 2115.586
1058.274, 2100.722
1058.757, 2096.757
1059.239, 2104.845
1059.721, 2113.009
1060.203, 2115.984
1060.685, 2116.398
1061.167, 2113.311
1061.649, 2109.070
1062.131, 2112.939
1062.614, 2124.913
1063.096, 2139.984
1063.578, 2160.619
1064.060, 2173.145
1064.542, 2153.273
1065.024, 2121.996
1065.506, 2105.705
1065.988, 2115.451
1066.470, 2121.162
1066.953, 2122.059
1067.435, 2121.109
1067.917, 2119.777
1068.399, 2118.197
1068.881, 2115.190
1069.363, 2111.939
1069.845, 2113.012
1070.327, 2129.335
1070.809, 2138.692
1071.292, 2130.475
1071.774, 2115.986
1072.256, 2111.355
1072.738, 2116.191
1073.220, 2123.630
1073.702, 2133.343
1074.184, 2138.555
1074.666, 2127.474
1075.148, 2114.501
1075.631, 2114.203
1076.113, 2126.657
1076.595, 2126.143
1077.077, 2108.143
1077.559, 2097.583
1078.041, 2105.312
1078.523, 2121.490
1079.005, 2132.848
1079.488, 2141.190
1079.970, 2150.024
1080.452, 2161.765
1080.934, 2170.697
1081.416, 2177.438
1081.898, 2179.655
1082.380, 2172.915
1082.862, 2159.391
1083.344, 2152.899
1083.827, 2152.768
1084.309, 2154.359
1084.791, 2156.859
1085.273, 2158.496
1085.755, 2159.695
1086.237, 2158.865
1086.719, 2150.810
1087.201, 2133.897
1087.683, 2129.872
1088.166, 2143.171
1088.648, 2158.204
1089.130, 2160.649
1089.612, 2156.817
1090.094, 2149.177
1090.576, 2138.269
1091.058, 2144.053
1091.540, 2175.995
1092.023, 2200.591
1092.505, 2205.978
1092.987, 2198.925
1093.469, 2187.920
1093.951, 2175.133
1094.433, 2164.239
1094.915, 2153.430
1095.397, 2152.722
1095.880, 2176.312
1096.362, 2196.748
1096.844, 2190.921
1097.326, 2163.718
1097.808, 2160.379
1098.290, 2178.357
1098.772, 2196.446
1099.254, 2204.721
1099.736, 2207.797
1100.219, 2205.558
1100.701, 2200.731
1101.183, 2197.331
1101.665, 2194.904
1102.147, 2199.565
1102.629, 2213.274
1103.111, 2221.061
1103.593, 2196.384
1104.075, 2167.850
1104.558, 2170.411
1105.040, 2202.830
1105.522, 2216.232
1106.004, 2198.563
1106.486, 2185.293
1106.968, 2185.650
1107.450, 2193.740
1107.932, 2204.176
1108.415, 2214.090
1108.897, 2217.444
1109.379, 2211.340
1109.861, 2205.489
1110.343, 2200.862
1110.825, 2199.198
1111.307, 2203.175
1111.789, 2210.530
1112.271, 2211.230
1112.754, 2205.896
1113.236, 2197.749
1113.718, 2182.335
1114.200, 2172.168
1114.682, 2176.932
1115.164, 2187.437
1115.646, 2193.418
1116.128, 2194.253
1116.610, 2200.309
1117.093, 2212.233
1117.575, 2215.893
1118.057, 2185.392
1118.539, 2156.413
1119.021, 2164.621
1119.503, 2199.234
1119.985, 2219.121
1120.467, 2220.505
1120.950, 2215.164
1121.432, 2203.187
1121.914, 2191.792
1122.396, 2190.438
1122.878, 2194.182
1123.360, 2195.995
1123.842, 2194.954
1124.324, 2198.287
1124.807, 2212.393
1125.289, 2217.947
1125.771, 2202.962
1126.253, 2183.552
1126.735, 2202.051
1127.217, 2241.716
1127.699, 2260.609
1128.181, 2239.292
1128.663, 2221.457
1129.146, 2221.265
1129.628, 2227.527
1130.110, 2238.004
1130.592, 2250.037
1131.074, 2243.324
1131.556, 2221.583
1132.038, 2204.854
1132.520, 2204.444
1133.002, 2209.556
1133.485, 2220.618
1133.967, 2231.284
1134.449, 2233.645
1134.931, 2227.097
1135.413, 2221.766
1135.895, 2217.998
1136.377, 2218.465
1136.859, 2229.738
1137.342, 2241.698
1137.824, 2244.915
1138.306, 2242.342
1138.788, 2244.731
1139.270, 2253.531
1139.752, 2260.272
1140.234, 2263.605
1140.716, 2264.894
1141.198, 2262.662
1141.681, 2261.001
1142.163, 2267.144
1142.645, 2281.288
1143.127, 2285.715
1143.609, 2274.823
1144.091, 2268.354
1144.573, 2273.795
1145.055, 2282.423
1145.537, 2281.667
1146.020, 2273.575
1146.502, 2259.219
1146.984, 2234.847
1147.466, 2223.908
1147.948, 2235.389
1148.430, 2249.460
1148.912, 2256.746
1149.394, 2259.995
1149.877, 2269.579
1150.359, 2281.762
1150.841, 2285.890
1151.323, 2271.887
1151.805, 2260.202
1152.287, 2254.311
1152.769, 2254.385
1153.251, 2264.406
1153.734, 2282.162
1154.216, 2289.390
1154.698, 2286.471
1155.180, 2275.217
1155.662, 2237.565
1156.144, 2214.020
1156.626, 2238.529
1157.108, 2276.325
1157.590, 2284.608
1158.073, 2264.187
1158.555, 2255.793
1159.037, 2261.972
1159.519, 2270.892
1160.001, 2278.186
1160.483, 2281.411
1160.965, 2272.128
1161.447, 2259.177
1161.929, 2268.222
1162.412, 2301.708
1162.894, 2317.994
1163.376, 2309.312
1163.858, 2291.940
1164.340, 2271.643
1164.822, 2256.632
1165.304, 2257.108
1165.786, 2271.648
1166.269, 2279.665
1166.751, 2280.281
1167.233, 2280.157
1167.715, 2281.079
1168.197, 2282.220
1168.679, 2278.479
1169.161, 2276.702
1169.643, 2287.507
1170.125, 2316.193
1170.608, 2331.693
1171.090, 2332.171
1171.572, 2326.387
1172.054, 2315.799
1172.536, 2304.530
1173.018, 2297.227
1173.500, 2293.935
1173.982, 2295.625
1174.464, 2307.978
1174.947, 2310.399
1175.429, 2298.309
1175.911, 2288.855
1176.393, 2294.154
1176.875, 2308.603
1177.357, 2328.023
1177.839, 2347.218
1178.321, 2353.838
1178.804, 2326.431
1179.286, 2314.242
1179.768, 2325.444
1180.250, 2339.425
1180.732, 2337.187
1181.214, 2324.753
1181.696, 2311.553
1182.178, 2299.902
1182.661, 2297.831
1183.143, 2319.969
1183.625, 2335.245
1184.107, 2337.597
1184.589, 2334.489
1185.071, 2334.625
1185.553, 2336.577
1186.035, 2336.828
1186.517, 2335.098
1187.000, 2331.611
1187.482, 2324.781
1187.964, 2317.865
1188.446, 2308.978
1188.928, 2304.013
1189.410, 2319.533
1189.892, 2347.036
1190.374, 2355.578
1190.856, 2340.589
1191.339, 2331.328
1191.821, 2350.128
1192.303, 2365.794
1192.785, 2366.275
1193.267, 2357.495
1193.749, 2354.059
1194.231, 2353.823
1194.713, 2347.093
1195.195, 2329.786
1195.678, 2318.565
1196.160, 2327.043
1196.642, 2337.600
1197.124, 2341.989
1197.606, 2341.784
1198.088, 2342.265
1198.570, 2343.367
1199.052, 2344.328
1199.535, 2343.709
1200.017, 2346.626
1200.499, 2363.202
1200.981, 2376.052
1201.463, 2370.971
1201.945, 2352.992
1202.427, 2356.370
1202.909, 2376.486
1203.391, 2390.352
1203.874, 2388.956
1204.356, 2378.668
1204.838, 2347.854
1205.320, 2322.173
1205.802, 2323.140
1206.284, 2348.101
1206.766, 2369.092
1207.248, 2385.075
1207.730, 2388.825
1208.213, 2358.493
1208.695, 2338.068
1209.177, 2354.569
1209.659, 2382.620
1210.141, 2401.921
1210.623, 2412.540
1211.105, 2416.923
1211.587, 2415.705
1212.070, 2414.521
1212.552, 2422.278
1213.034, 2424.037
1213.516, 2403.442
1213.998, 2380.640
1214.480, 2381.448
1214.962, 2403.376
1215.444, 2416.321
1215.927, 2418.656
1216.409, 2411.382
1216.891, 2376.463
1217.373, 2354.244
1217.855, 2375.233
1218.337, 2409.518
1218.819, 2408.679
1219.301, 2378.122
1219.783, 2369.757
1220.266, 2386.952
1220.748, 2402.219
1221.230, 2391.665
1221.712, 2383.557
1222.194, 2390.428
1222.676, 2407.157
1223.158, 2429.272
1223.640, 2454.350
1224.122, 2465.433
1224.605, 2460.187
1225.087, 2450.889
1225.569, 2443.351
1226.051, 2434.673
1226.533, 2421.144
1227.015, 2407.554
1227.497, 2405.406
1227.979, 2412.842
1228.462, 2423.273
1228.944, 2436.464
1229.426, 2440.215
1229.908, 2413.656
1230.390, 2393.129
1230.872, 2395.329
1231.354, 2412.725
1231.836, 2430.273
1232.318, 2446.497
1232.801, 2455.150
1233.283, 2454.768
1233.765, 2448.531
1234.247, 2424.183
1234.729, 2411.307
1235.211, 2426.271
1235.693, 2457.461
1236.175, 2477.216
1236.657, 2485.858
1237.140, 2482.751
1237.622, 2464.334
1238.104, 2450.371
1238.586, 2452.627
1239.068, 2454.591
1239.550, 2447.637
1240.032, 2437.450
1240.514, 2440.435
1240.997, 2453.154
1241.479, 2467.345
1241.961, 2482.824
1242.443, 2491.879
1242.925, 2489.032
1243.407, 2485.740
1243.889, 2487.496
1244.371, 2492.422
1244.854, 2495.529
1245.336, 2497.926
1245.818, 2504.016
1246.300, 2522.516
1246.782, 2519.555
1247.264, 2479.462
1247.746, 2446.387
1248.228, 2446.447
1248.710, 2466.617
1249.193, 2488.415
1249.675, 2506.662
1250.157, 2508.552
1250.639, 2478.034
1251.121, 2462.727
1251.603, 2466.720
1252.085, 2480.498
1252.567, 2506.479
1253.049, 2530.651
1253.532, 2523.472
1254.014, 2499.275
1254.496, 2485.622
1254.978, 2495.126
1255.460, 2497.115
1255.942, 2489.441
1256.424, 2483.757
1256.906, 2490.949
1257.389, 2500.813
1257.871, 2499.663
1258.353, 2492.042
1258.835, 2486.239
1259.317, 2484.283
1259.799, 2479.419
1260.281, 2470.992
1260.763, 2466.272
1261.245, 2471.177
1261.728, 2480.994
1262.210, 2496.639
1262.692, 2512.007
1263.174, 2516.264
1263.656, 2506.955
1264.138, 2500.799
1264.620, 2497.925
1265.102, 2497.685
1265.584, 2501.337
1266.067, 2505.677
1266.549, 2507.618
1267.031, 2509.313
1267.513, 2513.393
1267.995, 2519.815
1268.477, 2529.640
1268.959, 2542.368
1269.441, 2551.814
1269.924, 2553.447
1270.406, 2551.571
1270.888, 2544.593
1271.370, 2537.829
1271.852, 2535.090
1272.334, 2536.879
1272.816, 2555.280
1273.298, 2586.381
1273.781, 2603.760
1274.263, 2581.556
1274.745, 2558.718
1275.227, 2541.839
1275.709, 2534.115
1276.191, 2547.165
1276.673, 2571.571
1277.155, 2567.470
1277.637, 2540.710
1278.120, 2521.310
1278.602, 2524.558
1279.084, 2532.250
1279.566, 2544.222
1280.048, 2554.855
1280.530, 2560.519
1281.012, 2560.178
1281.494, 2547.686
1281.976, 2527.148
1282.459, 2511.689
1282.941, 2498.288
1283.423, 2507.100
1283.905, 2546.215
1284.387, 2581.047
1284.869, 2570.951
1285.351, 2546.859
1285.833, 2547.817
1286.316, 2565.985
1286.798, 2575.705
1287.280, 2570.271
1287.762, 2577.940
1288.244, 2601.779
1288.726, 2621.319
1289.208, 2618.855
1289.690, 2607.175
##END=



