##NAMES=Cryolithionite
##RRUFFID=R080051
##IDEAL CHEMISTRY=Na_3_Al_2_(LiF_4_)_3_
##LOCALITY=Zapot mine, Zapot amazonite-topaz-zinnwaldite pegmatite, Gillis Range, Mineral County, Nevada, USA
##OWNER=RRUFF
##SOURCE=Michael Scott
##DESCRIPTION=Vitreous colorless fragment
##STATUS=The identification of this mineral has been confirmed by single-crystal X-ray diffraction.
##URL=rruff.info/R080051
93.88477, 6.424968
94.36688, 6.208798
94.84900, 6.325335
95.33112, 6.715852
95.81323, 7.102632
96.29535, 7.276621
96.77747, 7.313972
97.25958, 7.540056
97.74170, 8.027112
98.22382, 8.616172
98.70593, 8.938971
99.18805, 8.970654
99.67017, 9.089112
100.1523, 9.623282
100.6344, 10.59042
101.1165, 11.41046
101.5986, 11.92590
102.0807, 12.24901
102.5629, 12.88127
103.0450, 13.92281
103.5271, 15.06912
104.0092, 16.02558
104.4913, 16.71371
104.9734, 17.45404
105.4556, 18.31275
105.9377, 19.28354
106.4198, 20.36674
106.9019, 21.69130
107.3840, 23.02785
107.8661, 24.08288
108.3483, 24.88194
108.8304, 25.37542
109.3125, 25.46429
109.7946, 24.85759
110.2767, 24.62757
110.7588, 24.83832
111.2410, 25.42074
111.7231, 26.25071
112.2052, 27.76668
112.6873, 29.18128
113.1694, 30.18302
113.6515, 30.28458
114.1337, 30.73517
114.6158, 32.03622
115.0979, 33.86606
115.5800, 35.28511
116.0621, 35.75658
116.5442, 35.92936
117.0264, 36.19225
117.5085, 36.97015
117.9906, 37.50131
118.4727, 37.25039
118.9548, 36.36797
119.4369, 35.85973
119.9191, 36.42659
120.4012, 37.49165
120.8833, 38.46172
121.3654, 39.01889
121.8475, 39.51058
122.3296, 40.23444
122.8118, 41.19823
123.2939, 42.00452
123.7760, 42.37085
124.2581, 42.40072
124.7402, 42.26476
125.2223, 41.73079
125.7045, 41.20770
126.1866, 41.17631
126.6687, 41.69786
127.1508, 42.51685
127.6329, 43.47396
128.1150, 44.53805
128.5972, 45.64207
129.0793, 46.87001
129.5614, 48.09175
130.0435, 48.97463
130.5256, 49.40359
131.0077, 49.68089
131.4899, 50.34585
131.9720, 51.36131
132.4541, 52.20716
132.9362, 52.08129
133.4183, 51.14087
133.9004, 50.77292
134.3826, 51.23830
134.8647, 52.23442
135.3468, 53.01169
135.8289, 53.54693
136.3110, 54.13837
136.7931, 55.11846
137.2753, 56.49902
137.7574, 57.69701
138.2395, 58.59466
138.7216, 59.22663
139.2037, 59.85864
139.6858, 60.56641
140.1680, 61.09450
140.6501, 61.11109
141.1322, 60.46082
141.6143, 59.90747
142.0964, 59.63689
142.5785, 59.65533
143.0607, 59.68882
143.5428, 59.80178
144.0249, 59.86065
144.5070, 59.66978
144.9891, 59.10678
145.4712, 58.54206
145.9534, 58.10497
146.4355, 57.84086
146.9176, 57.49977
147.3997, 57.13124
147.8818, 56.66770
148.3639, 55.94840
148.8461, 54.59122
149.3282, 53.42577
149.8103, 52.75697
150.2924, 52.80739
150.7745, 52.89088
151.2566, 53.03894
151.7388, 53.22076
152.2209, 53.35184
152.7030, 53.26420
153.1851, 53.25824
153.6672, 53.44704
154.1493, 53.87815
154.6315, 54.43663
155.1136, 55.38768
155.5957, 56.53306
156.0778, 57.15985
156.5599, 56.64798
157.0420, 55.96217
157.5242, 55.61760
158.0063, 55.86825
158.4884, 56.27839
158.9705, 56.90195
159.4526, 57.68350
159.9347, 58.29749
160.4169, 58.64356
160.8990, 58.80000
161.3811, 58.82331
161.8632, 58.66066
162.3453, 58.43058
162.8274, 58.21440
163.3096, 58.00026
163.7917, 57.62187
164.2738, 56.82158
164.7559, 55.89815
165.2380, 55.14606
165.7201, 54.66928
166.2023, 54.38362
166.6844, 54.33023
167.1665, 54.50872
167.6486, 54.61166
168.1307, 54.49787
168.6128, 54.20568
169.0950, 53.78482
169.5771, 52.97386
170.0592, 52.22515
170.5413, 51.99443
171.0234, 52.34486
171.5055, 52.61781
171.9877, 52.21286
172.4698, 51.42212
172.9519, 50.76550
173.4340, 50.60647
173.9161, 50.63971
174.3982, 50.56362
174.8804, 50.35014
175.3625, 50.06553
175.8446, 49.72240
176.3267, 49.34896
176.8088, 49.01783
177.2909, 48.67439
177.7731, 48.42478
178.2552, 48.45794
178.7373, 48.83797
179.2194, 49.31970
179.7015, 49.66781
180.1836, 49.90465
180.6658, 50.10903
181.1479, 50.32772
181.6300, 50.54847
182.1121, 50.74239
182.5942, 50.90300
183.0763, 51.04367
183.5585, 51.16441
184.0406, 51.27235
184.5227, 51.41036
185.0048, 51.52696
185.4869, 51.68664
185.9690, 52.14112
186.4511, 53.02982
186.9333, 54.03656
187.4154, 54.62287
187.8975, 54.80969
188.3796, 54.86395
188.8617, 54.99529
189.3438, 55.16343
189.8260, 55.15858
190.3081, 54.90591
190.7902, 54.51714
191.2723, 54.18675
191.7544, 53.91333
192.2365, 53.74493
192.7187, 53.72913
193.2008, 53.85967
193.6829, 54.09343
194.1650, 54.50312
194.6471, 54.95552
195.1292, 54.99371
195.6114, 54.57547
196.0935, 54.15441
196.5756, 54.16974
197.0577, 54.61329
197.5398, 54.92275
198.0219, 54.92203
198.5041, 54.74060
198.9862, 54.86438
199.4683, 55.32089
199.9504, 55.93752
200.4325, 56.65167
200.9146, 57.47754
201.3968, 58.09734
201.8789, 58.40846
202.3610, 58.46212
202.8431, 58.51241
203.3252, 58.57499
203.8073, 58.58578
204.2895, 58.53960
204.7716, 58.46912
205.2537, 58.08803
205.7358, 57.20482
206.2179, 55.93498
206.7000, 55.13991
207.1822, 54.96453
207.6643, 54.92858
208.1464, 54.55247
208.6285, 53.74582
209.1106, 53.03463
209.5927, 52.55980
210.0749, 52.29528
210.5570, 51.91127
211.0391, 51.34446
211.5212, 50.78111
212.0033, 50.40564
212.4854, 50.25722
212.9676, 50.15603
213.4497, 50.08368
213.9318, 50.03588
214.4139, 49.92431
214.8960, 49.72071
215.3781, 49.49530
215.8603, 49.29914
216.3424, 49.11085
216.8245, 49.02815
217.3066, 49.12355
217.7887, 49.39396
218.2708, 49.47764
218.7530, 49.29765
219.2351, 49.03511
219.7172, 48.88472
220.1993, 48.88645
220.6814, 48.89191
221.1635, 48.86741
221.6457, 48.81224
222.1278, 48.78020
222.6099, 48.79050
223.0920, 48.80009
223.5741, 48.73685
224.0562, 48.49533
224.5384, 48.43311
225.0205, 48.73391
225.5026, 49.41209
225.9847, 49.65674
226.4668, 49.25219
226.9489, 48.64495
227.4311, 48.31647
227.9132, 48.39695
228.3953, 48.46900
228.8774, 48.44347
229.3595, 48.31659
229.8416, 48.22084
230.3238, 48.17292
230.8059, 48.13845
231.2880, 48.08298
231.7701, 47.99882
232.2522, 47.90718
232.7343, 47.79134
233.2165, 47.64619
233.6986, 47.61339
234.1807, 47.75959
234.6628, 47.94927
235.1449, 48.02681
235.6270, 47.86456
236.1092, 47.84607
236.5913, 48.11717
237.0734, 48.68785
237.5555, 49.01488
238.0376, 49.01499
238.5197, 48.85690
239.0019, 48.68863
239.4840, 48.49227
239.9661, 48.31653
240.4482, 48.15211
240.9303, 47.99974
241.4124, 47.95470
241.8946, 48.07623
242.3767, 48.24214
242.8588, 48.34077
243.3409, 48.33227
243.8230, 48.33251
244.3051, 48.35606
244.7873, 48.40284
245.2694, 48.47495
245.7515, 48.58482
246.2336, 48.70592
246.7157, 48.82325
247.1978, 48.96348
247.6800, 49.04687
248.1621, 49.05733
248.6442, 48.99775
249.1263, 48.89122
249.6084, 48.67539
250.0905, 48.48954
250.5726, 48.45650
251.0548, 48.67147
251.5369, 48.83865
252.0190, 48.92307
252.5011, 48.92769
252.9832, 48.85310
253.4653, 48.61168
253.9475, 48.40876
254.4296, 48.42374
254.9117, 48.82674
255.3938, 49.04308
255.8759, 48.93040
256.3581, 48.56203
256.8402, 48.39055
257.3223, 48.49567
257.8044, 48.66992
258.2865, 48.78720
258.7686, 48.84094
259.2508, 48.84817
259.7329, 48.78690
260.2150, 48.68196
260.6971, 48.63795
261.1792, 48.68505
261.6613, 48.74183
262.1435, 48.74714
262.6256, 48.65899
263.1077, 48.65564
263.5898, 48.77208
264.0719, 48.97549
264.5540, 49.17294
265.0362, 49.38964
265.5183, 49.55077
266.0004, 49.57436
266.4825, 49.37186
266.9646, 49.39354
267.4467, 49.77400
267.9289, 50.32330
268.4110, 50.49562
268.8931, 50.15588
269.3752, 49.80061
269.8573, 49.67749
270.3394, 49.83130
270.8216, 49.99981
271.3037, 50.19271
271.7858, 50.38430
272.2679, 50.51689
272.7500, 50.58877
273.2321, 50.61237
273.7143, 50.58499
274.1964, 50.50256
274.6785, 50.41367
275.1606, 50.32125
275.6427, 50.22127
276.1248, 50.07981
276.6070, 49.87153
277.0891, 49.75399
277.5712, 49.82708
278.0533, 50.09397
278.5354, 50.27138
279.0175, 50.33622
279.4996, 50.36036
279.9818, 50.42604
280.4639, 50.52905
280.9460, 50.71089
281.4281, 51.06688
281.9102, 51.55642
282.3923, 51.70660
282.8745, 51.45061
283.3566, 51.07423
283.8387, 50.89173
284.3208, 50.90590
284.8029, 50.99606
285.2850, 51.14001
285.7672, 51.33146
286.2493, 51.55375
286.7314, 51.81335
287.2135, 52.06766
287.6956, 52.29198
288.1777, 52.48461
288.6599, 52.59662
289.1420, 52.58057
289.6241, 52.49716
290.1062, 52.52767
290.5883, 52.67830
291.0704, 52.85683
291.5526, 52.97980
292.0347, 53.06041
292.5168, 53.17190
292.9989, 53.33500
293.4810, 53.52936
293.9631, 53.70972
294.4453, 53.87748
294.9274, 54.07777
295.4095, 54.35471
295.8916, 54.68964
296.3737, 55.03989
296.8558, 55.42151
297.3380, 55.75978
297.8201, 55.90575
298.3022, 55.88764
298.7843, 55.88282
299.2664, 56.00304
299.7485, 56.21624
300.2307, 56.48006
300.7128, 56.82446
301.1949, 57.10825
301.6770, 57.06167
302.1591, 56.79435
302.6412, 56.67130
303.1234, 56.94768
303.6055, 57.45898
304.0876, 58.01057
304.5697, 58.58919
305.0518, 59.13554
305.5339, 59.58080
306.0161, 59.94807
306.4982, 60.27552
306.9803, 60.58502
307.4624, 60.86054
307.9445, 61.08955
308.4266, 61.27104
308.9088, 61.38232
309.3909, 61.25269
309.8730, 61.07534
310.3551, 61.12646
310.8372, 61.80481
311.3193, 62.52880
311.8015, 62.80162
312.2836, 62.67574
312.7657, 62.58703
313.2478, 62.83168
313.7299, 63.21981
314.2120, 63.56543
314.6942, 63.74430
315.1763, 63.95087
315.6584, 64.29858
316.1405, 64.76751
316.6226, 65.25950
317.1047, 65.77319
317.5869, 66.27343
318.0690, 66.73396
318.5511, 67.13612
319.0332, 67.52116
319.5153, 67.91960
319.9974, 68.31066
320.4796, 68.64096
320.9617, 68.71084
321.4438, 68.86134
321.9259, 69.29342
322.4080, 70.13837
322.8901, 70.93631
323.3723, 71.58033
323.8544, 72.11848
324.3365, 72.62137
324.8186, 72.79590
325.3007, 73.21777
325.7828, 74.20435
326.2650, 75.92422
326.7471, 77.28852
327.2292, 77.80907
327.7113, 78.10245
328.1934, 78.75904
328.6755, 80.18762
329.1577, 81.57118
329.6398, 82.68980
330.1219, 83.54922
330.6040, 84.70647
331.0861, 86.29145
331.5682, 88.07024
332.0504, 89.89888
332.5325, 91.72584
333.0146, 93.65849
333.4967, 95.78094
333.9788, 98.04190
334.4609, 100.1236
334.9431, 101.8485
335.4252, 103.6711
335.9073, 105.8143
336.3894, 108.3997
336.8715, 111.0227
337.3536, 113.6561
337.8358, 116.3549
338.3179, 119.3449
338.8000, 122.7023
339.2821, 126.0660
339.7642, 129.2212
340.2463, 132.0819
340.7285, 135.4236
341.2106, 139.2363
341.6927, 143.4348
342.1748, 147.8778
342.6569, 152.6124
343.1390, 157.3750
343.6212, 161.9641
344.1033, 166.4897
344.5854, 171.3968
345.0675, 176.6271
345.5496, 182.1824
346.0317, 188.1497
346.5139, 194.5150
346.9960, 200.5153
347.4781, 205.9928
347.9602, 211.0829
348.4423, 216.1561
348.9244, 221.2068
349.4066, 226.0744
349.8887, 230.7491
350.3708, 235.1851
350.8529, 239.1887
351.3350, 242.8220
351.8171, 245.7708
352.2993, 247.6587
352.7814, 248.4782
353.2635, 248.2580
353.7456, 247.1840
354.2277, 245.0094
354.7098, 241.1372
355.1920, 235.4625
355.6741, 229.0651
356.1562, 222.8479
356.6383, 216.6341
357.1204, 209.9977
357.6025, 202.3819
358.0847, 194.5518
358.5668, 187.0845
359.0489, 179.9128
359.5310, 172.9553
360.0131, 166.1956
360.4952, 159.5691
360.9774, 153.0716
361.4595, 146.3621
361.9416, 140.1292
362.4237, 134.7278
362.9058, 130.0654
363.3879, 125.8483
363.8701, 122.1459
364.3522, 118.7182
364.8343, 115.4385
365.3164, 112.1566
365.7985, 109.2777
366.2806, 106.9818
366.7628, 105.1219
367.2449, 103.4941
367.7270, 102.0531
368.2091, 100.8316
368.6912, 99.80398
369.1733, 98.94998
369.6555, 98.46317
370.1376, 98.52760
370.6197, 98.86377
371.1018, 99.23882
371.5839, 99.60641
372.0660, 100.0714
372.5482, 100.5740
373.0303, 101.1466
373.5124, 102.1063
373.9945, 103.6651
374.4766, 105.3262
374.9587, 106.7524
375.4409, 107.6983
375.9230, 109.1593
376.4051, 111.3491
376.8872, 113.9696
377.3693, 116.2328
377.8514, 117.8942
378.3336, 120.1577
378.8157, 123.6627
379.2978, 128.4595
379.7799, 133.1003
380.2620, 137.5698
380.7441, 142.0657
381.2263, 146.7412
381.7084, 151.5845
382.1905, 156.9946
382.6726, 163.2775
383.1547, 170.0849
383.6368, 176.2640
384.1190, 181.8613
384.6011, 187.1273
385.0832, 192.4883
385.5653, 197.6840
386.0474, 202.0676
386.5295, 205.4432
387.0117, 208.0343
387.4938, 210.0427
387.9759, 211.4980
388.4580, 212.5524
388.9401, 213.3191
389.4222, 213.7195
389.9044, 213.6531
390.3865, 213.1073
390.8686, 212.1601
391.3507, 211.0858
391.8328, 209.6011
392.3149, 207.2976
392.7971, 203.8608
393.2792, 199.7255
393.7613, 195.2284
394.2434, 190.2877
394.7255, 184.5503
395.2076, 177.2421
395.6898, 169.4465
396.1719, 161.9297
396.6540, 154.8339
397.1361, 148.0414
397.6182, 141.4268
398.1003, 135.0946
398.5825, 129.2828
399.0646, 124.1574
399.5467, 119.4420
400.0288, 115.0280
400.5109, 110.8507
400.9930, 107.1758
401.4752, 104.2512
401.9573, 101.6591
402.4394, 98.96397
402.9215, 95.94482
403.4036, 93.18262
403.8857, 90.74543
404.3678, 88.62778
404.8499, 86.89541
405.3321, 85.64614
405.8142, 84.57403
406.2963, 83.52691
406.7784, 82.51315
407.2605, 81.42318
407.7426, 80.18105
408.2248, 78.94820
408.7069, 78.08873
409.1890, 77.64684
409.6711, 77.19762
410.1532, 76.45972
410.6353, 75.53313
411.1175, 75.07784
411.5996, 75.15459
412.0817, 75.26659
412.5638, 74.78287
413.0459, 73.88025
413.5280, 73.20324
414.0102, 73.05312
414.4923, 73.04593
414.9744, 72.60127
415.4565, 71.77941
415.9386, 70.91640
416.4207, 70.23925
416.9029, 69.62944
417.3850, 68.90307
417.8671, 67.98801
418.3492, 67.15466
418.8313, 66.55875
419.3134, 66.17258
419.7956, 65.94016
420.2777, 66.00536
420.7598, 66.07758
421.2419, 65.98027
421.7240, 65.71702
422.2061, 65.47588
422.6883, 65.39902
423.1704, 65.31601
423.6525, 65.10175
424.1346, 64.61765
424.6167, 64.15445
425.0988, 63.71117
425.5810, 63.32018
426.0631, 63.06755
426.5452, 63.12898
427.0273, 63.14952
427.5094, 63.00362
427.9915, 62.64437
428.4737, 62.35826
428.9558, 62.15551
429.4379, 62.01826
429.9200, 61.93800
430.4021, 61.93571
430.8842, 61.93657
431.3664, 61.94659
431.8485, 61.94761
432.3306, 61.82665
432.8127, 61.54357
433.2948, 61.32526
433.7769, 61.28633
434.2591, 61.42679
434.7412, 61.84924
435.2233, 62.65312
435.7054, 63.41327
436.1875, 63.44353
436.6696, 62.85769
437.1518, 62.34055
437.6339, 62.21183
438.1160, 62.27389
438.5981, 62.18021
439.0802, 61.94507
439.5623, 61.73167
440.0445, 61.69812
440.5266, 61.74684
441.0087, 61.74072
441.4908, 61.62819
441.9729, 61.51854
442.4550, 61.53535
442.9372, 61.60841
443.4193, 61.59911
443.9014, 61.28704
444.3835, 61.01301
444.8656, 61.01540
445.3477, 61.32195
445.8299, 61.52424
446.3120, 61.38482
446.7941, 61.16662
447.2762, 61.07550
447.7583, 61.34241
448.2404, 61.49034
448.7226, 61.34742
449.2047, 61.04656
449.6868, 60.99123
450.1689, 61.36489
450.6510, 61.73843
451.1331, 61.93954
451.6153, 61.92534
452.0974, 62.03166
452.5795, 62.35019
453.0616, 62.65701
453.5437, 62.65850
454.0258, 62.28866
454.5080, 62.07432
454.9901, 62.15171
455.4722, 62.42993
455.9543, 62.68354
456.4364, 62.91228
456.9185, 63.07103
457.4007, 63.11523
457.8828, 63.06585
458.3649, 62.98014
458.8470, 62.85624
459.3291, 62.73576
459.8112, 62.68126
460.2934, 62.66584
460.7755, 62.62443
461.2576, 62.44242
461.7397, 62.30607
462.2218, 62.49285
462.7039, 62.92283
463.1861, 63.20936
463.6682, 62.93822
464.1503, 62.57207
464.6324, 62.51837
465.1145, 62.96530
465.5966, 63.30525
466.0788, 63.13173
466.5609, 62.79421
467.0430, 62.74453
467.5251, 63.53523
468.0072, 64.13103
468.4893, 64.14701
468.9715, 63.62774
469.4536, 63.42143
469.9357, 63.76294
470.4178, 64.16473
470.8999, 64.35686
471.3820, 64.22615
471.8642, 64.16669
472.3463, 64.14967
472.8284, 64.23709
473.3105, 64.58669
473.7926, 65.25847
474.2747, 65.84404
474.7569, 66.23008
475.2390, 66.43243
475.7211, 66.46264
476.2032, 66.30773
476.6853, 66.17210
477.1674, 66.19987
477.6496, 66.37017
478.1317, 66.65335
478.6138, 67.07647
479.0959, 67.48685
479.5780, 67.66753
480.0602, 67.70370
480.5423, 67.79262
481.0244, 67.95146
481.5065, 68.25089
481.9886, 68.90420
482.4707, 69.84697
482.9529, 70.53690
483.4350, 70.50798
483.9171, 70.26360
484.3992, 70.16547
484.8813, 70.30772
485.3634, 70.52494
485.8456, 70.87518
486.3277, 71.25365
486.8098, 71.50123
487.2919, 71.44730
487.7740, 71.43088
488.2561, 71.49465
488.7383, 71.63888
489.2204, 71.89577
489.7025, 72.32883
490.1846, 72.76945
490.6667, 73.11906
491.1488, 73.36572
491.6310, 73.54458
492.1131, 73.61134
492.5952, 73.69285
493.0773, 74.06494
493.5594, 74.72609
494.0415, 75.21529
494.5237, 75.31565
495.0058, 75.18351
495.4879, 75.11537
495.9700, 75.12106
496.4521, 75.32175
496.9342, 76.04158
497.4164, 76.93701
497.8985, 77.39186
498.3806, 77.23758
498.8627, 77.10439
499.3448, 77.55270
499.8269, 78.31226
500.3091, 78.98015
500.7912, 79.33424
501.2733, 79.63551
501.7554, 79.98080
502.2375, 80.36596
502.7196, 80.76418
503.2018, 81.14455
503.6839, 81.56166
504.1660, 82.05311
504.6481, 82.68909
505.1302, 83.23040
505.6123, 83.66840
506.0945, 84.01797
506.5766, 84.26428
507.0587, 84.32385
507.5408, 84.49580
508.0229, 84.84037
508.5050, 85.33056
508.9872, 85.92055
509.4693, 86.63013
509.9514, 87.30891
510.4335, 87.87984
510.9156, 88.35445
511.3977, 88.71076
511.8799, 88.92850
512.3619, 89.22169
512.8441, 89.92407
513.3262, 90.86187
513.8083, 91.61233
514.2904, 91.94519
514.7725, 92.25338
515.2546, 92.97749
515.7368, 93.97066
516.2189, 94.87202
516.7010, 95.46408
517.1831, 95.94939
517.6652, 96.39642
518.1473, 96.80586
518.6295, 97.32609
519.1116, 98.00905
519.5937, 98.81285
520.0758, 99.69951
520.5579, 100.7327
521.0400, 101.7738
521.5222, 102.8676
522.0043, 103.9586
522.4864, 104.9375
522.9685, 105.7619
523.4506, 106.5836
523.9327, 107.4339
524.4149, 108.3128
524.8970, 109.1123
525.3791, 109.7934
525.8612, 110.6171
526.3433, 111.8779
526.8254, 113.4913
527.3076, 114.9631
527.7897, 116.2105
528.2718, 117.4363
528.7539, 118.8902
529.2360, 120.5078
529.7181, 122.1733
530.2003, 123.8730
530.6824, 125.5678
531.1645, 127.2309
531.6466, 128.8561
532.1287, 130.5358
532.6108, 132.4058
533.0930, 134.2647
533.5751, 135.9285
534.0572, 137.2631
534.5393, 138.9665
535.0214, 141.3863
535.5035, 144.1277
535.9857, 146.7744
536.4678, 149.1385
536.9499, 151.7574
537.4320, 154.6490
537.9141, 157.8269
538.3962, 161.2964
538.8784, 165.1994
539.3605, 169.0399
539.8426, 172.4300
540.3247, 175.5618
540.8068, 179.5396
541.2889, 184.3937
541.7711, 189.5751
542.2532, 194.4861
542.7353, 199.3157
543.2174, 204.5889
543.6995, 210.3562
544.1816, 216.6634
544.6638, 223.5479
545.1459, 231.0309
545.6280, 239.0197
546.1101, 247.3793
546.5922, 256.3368
547.0743, 266.0907
547.5565, 276.5690
548.0386, 287.5021
548.5207, 298.2794
549.0028, 309.9235
549.4849, 322.9813
549.9670, 337.6938
550.4492, 352.9936
550.9313, 368.7934
551.4134, 385.1058
551.8955, 402.2583
552.3776, 420.0638
552.8597, 438.9515
553.3419, 458.9001
553.8240, 480.0131
554.3061, 502.5371
554.7882, 526.4925
555.2703, 551.7806
555.7524, 577.5961
556.2346, 604.5724
556.7167, 633.8105
557.1988, 665.2916
557.6809, 698.7366
558.1630, 733.7819
558.6451, 770.8808
559.1273, 810.1849
559.6094, 852.1077
560.0915, 895.9307
560.5736, 942.5737
561.0557, 990.7571
561.5378, 1039.003
562.0200, 1088.444
562.5021, 1136.161
562.9842, 1183.384
563.4663, 1228.536
563.9484, 1268.470
564.4305, 1305.415
564.9127, 1334.086
565.3948, 1353.525
565.8769, 1363.631
566.3590, 1362.918
566.8411, 1351.152
567.3232, 1328.895
567.8054, 1295.382
568.2875, 1250.457
568.7696, 1198.227
569.2517, 1137.694
569.7338, 1073.079
570.2159, 1006.906
570.6981, 940.7079
571.1802, 875.1703
571.6623, 808.9550
572.1444, 745.7283
572.6265, 688.1569
573.1086, 636.0657
573.5908, 588.2774
574.0729, 544.1757
574.5550, 503.5875
575.0371, 466.2744
575.5192, 432.3457
576.0013, 401.7070
576.4835, 375.3889
576.9656, 352.0838
577.4477, 330.7215
577.9298, 311.9583
578.4119, 294.0236
578.8940, 276.9295
579.3762, 260.9964
579.8583, 246.9512
580.3404, 234.8704
580.8225, 223.6255
581.3046, 212.9621
581.7867, 202.9515
582.2689, 194.2232
582.7510, 186.6981
583.2331, 179.6518
583.7152, 172.4284
584.1973, 165.4224
584.6794, 159.6010
585.1616, 154.9446
585.6437, 150.5239
586.1258, 145.5706
586.6079, 140.6224
587.0900, 136.1619
587.5721, 132.3245
588.0543, 128.7357
588.5364, 125.2217
589.0185, 121.8990
589.5006, 118.9163
589.9827, 116.6048
590.4648, 114.2248
590.9470, 111.6106
591.4291, 108.8947
591.9112, 106.5569
592.3933, 104.6644
592.8754, 102.9610
593.3575, 101.4120
593.8397, 99.98451
594.3218, 98.34326
594.8039, 96.49448
595.2860, 94.73939
595.7681, 93.41961
596.2502, 92.37086
596.7324, 91.19617
597.2145, 89.82288
597.6966, 88.47021
598.1787, 87.35662
598.6608, 86.39586
599.1429, 85.49104
599.6251, 84.66362
600.1072, 83.81844
600.5893, 82.85881
601.0714, 81.86025
601.5535, 81.00443
602.0356, 80.28909
602.5178, 79.77679
602.9999, 79.60389
603.4820, 79.72932
603.9641, 79.45779
604.4462, 78.67716
604.9283, 77.75356
605.4105, 76.81496
605.8926, 75.85647
606.3747, 75.22935
606.8568, 74.98049
607.3389, 74.74462
607.8210, 74.04528
608.3032, 73.05733
608.7853, 72.25151
609.2674, 71.73274
609.7495, 71.39112
610.2316, 71.26402
610.7137, 71.22173
611.1959, 71.03297
611.6780, 70.43867
612.1601, 69.85488
612.6422, 69.40990
613.1243, 69.10598
613.6064, 68.91624
614.0886, 68.93750
614.5707, 68.97330
615.0528, 68.99461
615.5349, 69.00989
616.0170, 68.81297
616.4991, 68.31877
616.9813, 67.80611
617.4634, 67.51814
617.9455, 67.43841
618.4276, 67.25748
618.9097, 66.92500
619.3918, 66.61496
619.8740, 66.57851
620.3561, 66.71923
620.8382, 66.80355
621.3203, 66.75667
621.8024, 66.64005
622.2845, 66.49646
622.7667, 66.31792
623.2488, 66.08701
623.7309, 65.72480
624.2130, 65.38163
624.6951, 65.09361
625.1772, 64.86597
625.6594, 64.73430
626.1415, 64.75579
626.6236, 64.79665
627.1057, 64.82909
627.5878, 64.86584
628.0699, 64.70538
628.5521, 64.28227
629.0342, 63.87224
629.5163, 63.76747
629.9984, 63.91296
630.4805, 64.02868
630.9626, 64.09185
631.4448, 64.06475
631.9269, 63.78411
632.4090, 63.40187
632.8911, 63.20877
633.3732, 63.45647
633.8553, 63.71842
634.3375, 63.72620
634.8196, 63.57093
635.3017, 63.45188
635.7838, 63.33052
636.2659, 63.34870
636.7480, 63.68676
637.2302, 64.27428
637.7123, 64.44258
638.1944, 64.02276
638.6765, 63.52147
639.1586, 63.15096
639.6407, 62.91109
640.1229, 62.81170
640.6050, 62.87592
641.0871, 62.92516
641.5692, 62.73251
642.0513, 62.40663
642.5334, 62.20605
643.0156, 62.17406
643.4977, 62.25025
643.9798, 62.50576
644.4619, 62.79882
644.9440, 62.93974
645.4261, 62.71209
645.9083, 62.51633
646.3904, 62.49619
646.8725, 62.58801
647.3546, 62.66047
647.8367, 62.73321
648.3188, 62.74617
648.8010, 62.66866
649.2831, 62.52111
649.7652, 62.37980
650.2473, 62.22890
650.7294, 62.16085
651.2115, 62.25106
651.6937, 62.46395
652.1758, 62.72404
652.6579, 63.03033
653.1400, 63.15868
653.6221, 62.71673
654.1042, 62.10323
654.5864, 61.83481
655.0685, 62.01300
655.5506, 62.30457
656.0327, 62.75294
656.5148, 63.12415
656.9969, 63.18985
657.4791, 62.50209
657.9612, 62.10619
658.4433, 62.13906
658.9254, 62.42381
659.4075, 62.78283
659.8896, 63.34076
660.3718, 63.45101
660.8539, 62.79297
661.3360, 61.82764
661.8181, 61.76069
662.3002, 62.49731
662.7823, 63.09852
663.2645, 62.94239
663.7466, 62.51089
664.2287, 62.52190
664.7108, 62.88578
665.1929, 63.15469
665.6750, 63.02288
666.1572, 62.76957
666.6393, 62.53599
667.1214, 62.33010
667.6035, 62.20773
668.0856, 62.19689
668.5677, 62.25949
669.0499, 62.39597
669.5320, 62.65300
670.0141, 62.81771
670.4962, 62.87942
670.9783, 62.87794
671.4604, 62.83619
671.9426, 62.76074
672.4247, 62.72040
672.9068, 62.74165
673.3889, 62.75035
673.8710, 62.56192
674.3531, 62.30636
674.8353, 62.25380
675.3174, 62.65851
675.7995, 63.09074
676.2816, 63.33199
676.7637, 63.42506
677.2458, 63.46947
677.7280, 63.43855
678.2101, 63.41112
678.6922, 63.40847
679.1743, 63.42445
679.6564, 63.42071
680.1385, 63.38564
680.6207, 63.36891
681.1028, 63.41227
681.5849, 63.49538
682.0670, 63.48608
682.5491, 63.38565
683.0313, 63.31684
683.5134, 63.43365
683.9955, 63.60952
684.4776, 63.67892
684.9597, 63.62450
685.4418, 63.48388
685.9240, 63.16831
686.4061, 62.84369
686.8882, 62.64113
687.3703, 62.61298
687.8524, 62.64939
688.3345, 62.76878
688.8167, 62.92287
689.2988, 63.04796
689.7809, 63.10737
690.2630, 63.34587
690.7451, 63.90611
691.2272, 64.43681
691.7094, 64.17126
692.1915, 63.29667
692.6736, 62.74987
693.1557, 62.94559
693.6378, 63.44784
694.1199, 63.90526
694.6021, 64.29830
695.0842, 64.57059
695.5663, 64.67228
696.0484, 64.67124
696.5305, 64.57655
697.0126, 64.39618
697.4948, 64.15792
697.9769, 63.70763
698.4590, 63.43549
698.9411, 63.55690
699.4232, 64.02290
699.9053, 64.15247
700.3875, 63.90275
700.8696, 63.64007
701.3517, 63.67659
701.8338, 63.87709
702.3159, 63.82700
702.7980, 63.51538
703.2802, 63.25007
703.7623, 63.03898
704.2444, 63.10896
704.7265, 63.89178
705.2086, 65.75631
705.6907, 66.94276
706.1729, 66.33137
706.6550, 65.22500
707.1371, 64.72448
707.6192, 65.20310
708.1013, 65.45689
708.5834, 65.43594
709.0656, 65.22962
709.5477, 64.84058
710.0298, 64.29195
710.5119, 64.08125
710.9940, 64.38216
711.4761, 64.84649
711.9582, 65.06660
712.4403, 65.10281
712.9224, 65.07370
713.4045, 64.94971
713.8867, 64.86076
714.3688, 64.91545
714.8509, 65.05258
715.3330, 65.13414
715.8151, 64.97326
716.2972, 64.96188
716.7794, 65.25530
717.2615, 65.74226
717.7436, 66.00318
718.2257, 66.00757
718.7078, 65.93092
719.1899, 65.80538
719.6721, 65.66985
720.1542, 65.60667
720.6363, 65.62168
721.1184, 65.76063
721.6005, 66.23679
722.0826, 66.72456
722.5648, 66.87244
723.0469, 66.68501
723.5290, 66.48325
724.0111, 66.36580
724.4932, 66.27528
724.9753, 66.16163
725.4575, 66.00021
725.9396, 66.01228
726.4217, 66.29717
726.9038, 66.56516
727.3859, 66.52608
727.8680, 66.21624
728.3502, 66.26790
728.8323, 66.74591
729.3144, 67.22163
729.7965, 67.24250
730.2786, 67.00455
730.7607, 66.75910
731.2429, 66.49781
731.7250, 66.45564
732.2071, 67.11935
732.6892, 67.87095
733.1713, 68.11148
733.6534, 67.06522
734.1356, 66.49117
734.6177, 66.55727
735.0998, 66.94198
735.5819, 67.26283
736.0640, 67.51679
736.5461, 67.74269
737.0283, 67.95242
737.5104, 68.12390
737.9925, 68.21606
738.4746, 68.24205
738.9567, 68.22734
739.4388, 68.12703
739.9210, 68.06809
740.4031, 68.21322
740.8852, 68.44987
741.3673, 68.56395
741.8494, 68.35757
742.3315, 68.19565
742.8137, 68.16560
743.2958, 68.21967
743.7779, 68.22321
744.2600, 68.16363
744.7421, 68.10535
745.2242, 68.04840
745.7064, 68.02455
746.1885, 68.18548
746.6706, 68.48290
747.1527, 68.66224
747.6348, 68.37872
748.1169, 68.08028
748.5991, 68.25278
749.0812, 68.78914
749.5633, 69.16235
750.0454, 69.15434
750.5275, 68.98861
751.0096, 68.64578
751.4918, 68.16241
751.9739, 67.99326
752.4560, 68.23470
752.9381, 68.52583
753.4202, 68.68658
753.9023, 68.74208
754.3845, 68.83080
754.8666, 68.95041
755.3487, 69.07954
755.8308, 69.19987
756.3129, 69.32231
756.7950, 69.45469
757.2772, 69.59826
757.7593, 69.75851
758.2414, 70.14814
758.7235, 70.38305
759.2056, 70.13760
759.6877, 69.27914
760.1699, 68.86165
760.6520, 69.02859
761.1341, 69.34840
761.6162, 69.52548
762.0983, 69.57387
762.5804, 69.58266
763.0626, 69.54886
763.5447, 69.59152
764.0268, 69.92604
764.5089, 70.35111
764.9910, 70.58693
765.4731, 70.57117
765.9553, 70.50898
766.4374, 70.43696
766.9195, 70.37888
767.4016, 70.33559
767.8837, 70.21912
768.3658, 70.34093
768.8480, 70.71343
769.3301, 71.29815
769.8122, 72.33168
770.2943, 73.70048
770.7764, 74.04150
771.2585, 73.08030
771.7407, 71.88927
772.2228, 71.55746
772.7049, 71.69299
773.1870, 71.74046
773.6691, 71.53599
774.1512, 71.33726
774.6334, 71.22613
775.1155, 71.18017
775.5976, 71.17355
776.0797, 71.19398
776.5618, 71.29539
777.0439, 71.54079
777.5261, 71.77261
778.0082, 71.73093
778.4903, 71.45437
778.9724, 71.30058
779.4545, 71.35918
779.9366, 71.47252
780.4188, 71.44474
780.9009, 71.36205
781.3830, 71.35954
781.8651, 71.50468
782.3472, 71.68716
782.8293, 71.94254
783.3115, 72.18681
783.7936, 72.29362
784.2757, 72.16927
784.7578, 72.14638
785.2399, 72.28479
785.7220, 72.49598
786.2042, 72.65632
786.6863, 72.76601
787.1684, 72.81251
787.6505, 72.76177
788.1326, 72.72261
788.6147, 72.86526
789.0969, 73.07838
789.5790, 73.18025
790.0611, 72.90427
790.5432, 72.75993
791.0253, 73.03029
791.5074, 73.43712
791.9896, 73.51956
792.4717, 73.12438
792.9538, 72.91682
793.4359, 73.04633
793.9180, 73.33115
794.4001, 73.47798
794.8823, 73.50441
795.3644, 73.47526
795.8465, 73.36266
796.3286, 73.29527
796.8107, 73.44392
797.2928, 73.70048
797.7750, 73.88195
798.2571, 74.01202
798.7392, 73.95873
799.2213, 73.51623
799.7034, 72.97816
800.1855, 72.88729
800.6677, 73.33369
801.1498, 73.70377
801.6319, 73.83728
802.1140, 73.89627
802.5961, 74.21958
803.0782, 74.70179
803.5604, 75.02660
804.0425, 75.00813
804.5246, 74.91307
805.0067, 74.76180
805.4888, 74.68404
805.9709, 74.89819
806.4531, 76.03654
806.9352, 76.67152
807.4173, 76.48009
807.8994, 75.85340
808.3815, 75.48764
808.8636, 75.38972
809.3458, 75.35159
809.8279, 75.33427
810.3100, 75.32999
810.7921, 75.33324
811.2742, 75.33999
811.7563, 75.34151
812.2385, 75.31115
812.7206, 75.30616
813.2027, 75.35753
813.6848, 75.44765
814.1669, 75.55421
814.6490, 75.73337
815.1312, 75.80598
815.6133, 75.72630
816.0954, 75.56826
816.5775, 75.43505
817.0596, 75.33015
817.5417, 75.29426
818.0239, 75.38002
818.5060, 75.43389
818.9881, 75.22404
819.4702, 74.89835
819.9523, 74.67972
820.4344, 74.61996
820.9166, 74.69688
821.3987, 75.08628
821.8808, 75.51915
822.3629, 75.61375
822.8450, 75.26015
823.3271, 75.08100
823.8093, 75.18840
824.2914, 75.41206
824.7735, 75.49480
825.2556, 75.49405
825.7377, 75.59305
826.2198, 75.88512
826.7020, 76.14074
827.1841, 76.14819
827.6662, 76.05772
828.1483, 76.04484
828.6304, 76.27263
829.1125, 76.38895
829.5947, 76.34862
830.0768, 76.24442
830.5589, 76.19914
831.0410, 76.21126
831.5231, 76.11916
832.0052, 75.87926
832.4874, 75.66235
832.9695, 75.67496
833.4516, 75.82859
833.9337, 76.01113
834.4158, 76.23291
834.8979, 76.37080
835.3801, 76.29541
835.8622, 76.17372
836.3443, 76.13644
836.8264, 76.15417
837.3085, 76.37718
837.7906, 76.86979
838.2728, 77.37015
838.7549, 77.62688
839.2370, 77.67726
839.7191, 77.63052
840.2012, 77.49360
840.6833, 77.33186
841.1655, 77.12342
841.6476, 76.95607
842.1297, 76.91988
842.6118, 77.06861
843.0939, 77.18996
843.5760, 77.26344
844.0582, 77.31977
844.5403, 77.40298
845.0224, 77.51739
845.5045, 77.44731
845.9866, 77.18246
846.4688, 76.95901
846.9509, 76.98506
847.4330, 77.15367
847.9151, 77.36440
848.3972, 77.60564
848.8793, 77.77976
849.3615, 77.82331
849.8436, 77.81138
850.3257, 77.76268
850.8078, 77.67676
851.2899, 77.66310
851.7720, 77.73795
852.2542, 77.81778
852.7363, 77.85668
853.2184, 77.86342
853.7005, 77.88199
854.1826, 77.90085
854.6647, 77.84740
855.1469, 77.56717
855.6290, 77.30321
856.1111, 77.21004
856.5932, 77.28106
857.0753, 77.39514
857.5574, 77.59916
858.0396, 77.73825
858.5217, 77.72555
859.0038, 77.63205
859.4859, 77.75751
859.9680, 78.07339
860.4501, 78.27349
860.9323, 78.15037
861.4144, 77.91987
861.8965, 77.66762
862.3786, 77.48138
862.8607, 77.56369
863.3428, 78.37675
863.8250, 78.97191
864.3071, 79.13714
864.7892, 78.99277
865.2713, 78.69469
865.7534, 78.20754
866.2355, 77.94967
866.7177, 78.05897
867.1998, 78.32893
867.6819, 78.52137
868.1640, 78.64792
868.6461, 78.74307
869.1282, 78.86137
869.6104, 78.87225
870.0925, 78.57223
870.5746, 78.21671
871.0567, 78.11537
871.5388, 78.33418
872.0209, 78.64820
872.5031, 79.09886
872.9852, 79.49498
873.4673, 79.56924
873.9494, 79.41023
874.4315, 79.26601
874.9136, 79.16872
875.3958, 79.12454
875.8779, 79.17525
876.3600, 79.25404
876.8421, 79.31601
877.3242, 79.37554
877.8063, 79.31067
878.2885, 79.00382
878.7706, 78.78172
879.2527, 78.95485
879.7348, 79.45670
880.2169, 79.72785
880.6990, 79.76781
881.1812, 79.79365
881.6633, 80.04208
882.1454, 80.28934
882.6275, 80.32630
883.1096, 80.14848
883.5917, 79.91844
884.0739, 79.54817
884.5560, 79.28275
885.0381, 79.22945
885.5202, 79.34701
886.0023, 79.44378
886.4844, 79.51989
886.9666, 79.48905
887.4487, 79.15456
887.9308, 78.83964
888.4129, 79.10826
888.8950, 79.71677
889.3771, 80.02662
889.8593, 79.31374
890.3414, 78.89676
890.8235, 79.26926
891.3056, 80.04353
891.7877, 80.49520
892.2698, 80.61021
892.7520, 80.53511
893.2341, 80.25090
893.7162, 79.93126
894.1983, 79.77267
894.6804, 79.76036
895.1625, 79.89070
895.6447, 80.29024
896.1268, 80.54229
896.6089, 80.27441
897.0910, 79.93405
897.5731, 79.98266
898.0552, 80.62092
898.5374, 80.88017
899.0195, 80.67011
899.5016, 80.38100
899.9837, 80.38957
900.4658, 80.59261
900.9479, 80.78794
901.4301, 80.95480
901.9122, 81.10914
902.3943, 81.32275
902.8764, 81.47428
903.3585, 81.43053
903.8406, 81.19021
904.3228, 81.09337
904.8049, 81.16296
905.2870, 81.31296
905.7691, 81.59795
906.2512, 81.89181
906.7333, 81.79079
907.2155, 81.36866
907.6976, 80.96378
908.1797, 80.61607
908.6618, 80.47553
909.1439, 80.81808
909.6260, 81.44188
910.1082, 81.69199
910.5903, 81.37769
911.0724, 81.13688
911.5545, 81.07978
912.0366, 81.18422
912.5187, 81.57285
913.0009, 82.10852
913.4830, 82.24676
913.9651, 81.66663
914.4472, 81.12904
914.9293, 81.21685
915.4114, 81.58681
915.8936, 81.85071
916.3757, 81.92132
916.8578, 81.97799
917.3399, 82.01231
917.8220, 82.04824
918.3041, 82.12910
918.7863, 82.23249
919.2684, 82.22648
919.7505, 82.10495
920.2326, 82.06223
920.7147, 82.39503
921.1968, 82.73418
921.6790, 82.77981
922.1611, 82.49350
922.6432, 82.25085
923.1253, 82.05305
923.6074, 81.91318
924.0895, 81.81931
924.5717, 81.79585
925.0538, 81.97632
925.5359, 82.32265
926.0180, 82.64034
926.5001, 82.80817
926.9822, 82.93826
927.4644, 83.15493
927.9465, 83.38422
928.4286, 83.43790
928.9107, 83.16007
929.3928, 83.01641
929.8749, 83.10929
930.3571, 83.27892
930.8392, 83.24736
931.3213, 83.07507
931.8034, 83.05505
932.2855, 83.27579
932.7676, 83.45539
933.2498, 83.18777
933.7319, 82.90829
934.2140, 83.09682
934.6961, 84.08450
935.1782, 84.51143
935.6603, 84.14434
936.1425, 83.71401
936.6246, 83.72925
937.1067, 84.08690
937.5888, 84.34432
938.0709, 84.50857
938.5530, 84.62687
939.0352, 84.74777
939.5173, 84.81905
939.9994, 84.81165
940.4815, 84.72495
940.9636, 84.53928
941.4457, 84.11500
941.9279, 83.96889
942.4100, 84.32411
942.8921, 84.88285
943.3742, 85.09054
943.8563, 85.00254
944.3384, 84.78945
944.8206, 84.42233
945.3027, 84.13528
945.7848, 84.04104
946.2669, 84.11839
946.7490, 84.37534
947.2311, 84.96118
947.7133, 85.28770
948.1954, 85.29842
948.6775, 85.21642
949.1596, 85.18990
949.6417, 85.23633
950.1238, 85.50570
950.6060, 85.97839
951.0881, 86.21352
951.5702, 85.63380
952.0523, 85.06014
952.5344, 85.01080
953.0165, 85.40324
953.4987, 85.70422
953.9808, 85.89380
954.4629, 86.08382
954.9450, 86.33042
955.4271, 86.57116
955.9092, 86.66109
956.3914, 86.65549
956.8735, 86.69234
957.3556, 86.91782
957.8376, 87.04902
958.3198, 86.87516
958.8019, 86.62205
959.2840, 86.53259
959.7661, 86.62783
960.2482, 86.78904
960.7303, 87.02570
961.2125, 87.23984
961.6946, 87.34881
962.1767, 87.37280
962.6588, 87.29238
963.1409, 87.11195
963.6230, 87.05012
964.1052, 87.39471
964.5873, 87.64208
965.0694, 87.53975
965.5515, 87.17017
966.0336, 86.99968
966.5157, 87.02771
966.9979, 87.22803
967.4800, 87.65020
967.9621, 88.15394
968.4442, 88.66711
968.9263, 89.12344
969.4084, 89.39240
969.8906, 89.31712
970.3727, 89.21439
970.8548, 89.12424
971.3369, 89.00080
971.8190, 88.71018
972.3011, 88.29469
972.7833, 88.19968
973.2654, 88.47651
973.7475, 88.82818
974.2296, 89.13351
974.7117, 89.32040
975.1938, 89.23967
975.6760, 88.87326
976.1581, 88.79272
976.6402, 89.17442
977.1223, 89.50891
977.6044, 89.56227
978.0865, 89.46325
978.5687, 89.58248
979.0508, 89.86716
979.5329, 90.12466
980.0150, 90.30467
980.4971, 90.39282
980.9792, 90.33938
981.4614, 90.20755
981.9435, 90.08690
982.4256, 89.98984
982.9077, 89.84438
983.3898, 89.60158
983.8719, 89.48103
984.3541, 89.68376
984.8362, 90.17471
985.3183, 91.11977
985.8004, 92.49772
986.2825, 93.31293
986.7646, 92.58839
987.2468, 91.73385
987.7289, 91.33294
988.2110, 91.32993
988.6931, 91.51601
989.1752, 91.90313
989.6573, 92.14878
990.1395, 92.08765
990.6216, 91.89288
991.1037, 91.68929
991.5858, 91.52274
992.0679, 91.46778
992.5500, 91.57941
993.0322, 91.77576
993.5143, 92.13496
993.9964, 92.46391
994.4785, 92.57291
994.9606, 92.48351
995.4427, 92.27323
995.9249, 91.95714
996.4070, 91.81998
996.8891, 92.20140
997.3712, 92.71948
997.8533, 93.16561
998.3354, 93.50484
998.8176, 93.66424
999.2997, 93.56731
999.7818, 93.48806
1000.264, 93.50267
1000.746, 93.56554
1001.228, 93.58772
1001.710, 93.59280
1002.192, 93.64629
1002.674, 93.78803
1003.157, 93.91917
1003.639, 93.93533
1004.121, 93.97289
1004.603, 94.17873
1005.085, 94.60715
1005.567, 94.72208
1006.049, 94.50325
1006.531, 94.26692
1007.014, 94.23860
1007.496, 94.31490
1007.978, 94.47066
1008.460, 94.63905
1008.942, 94.58247
1009.424, 93.79061
1009.906, 93.38847
1010.388, 93.69122
1010.870, 94.30969
1011.353, 94.49203
1011.835, 94.34623
1012.317, 94.54195
1012.799, 95.28449
1013.281, 95.84483
1013.763, 95.47534
1014.245, 94.81958
1014.727, 94.36626
1015.210, 94.12731
1015.692, 94.33843
1016.174, 95.12820
1016.656, 95.88419
1017.138, 96.34200
1017.620, 96.53184
1018.102, 96.34199
1018.584, 95.92423
1019.066, 95.68518
1019.549, 96.01481
1020.031, 96.25296
1020.513, 96.23219
1020.995, 96.05634
1021.477, 95.71767
1021.959, 95.20830
1022.441, 95.32396
1022.923, 96.15975
1023.406, 96.95346
1023.888, 97.02071
1024.370, 96.77568
1024.852, 96.52149
1025.334, 96.29202
1025.816, 96.17993
1026.298, 96.18147
1026.780, 96.32236
1027.262, 96.66098
1027.745, 97.07791
1028.227, 97.33358
1028.709, 97.45722
1029.191, 97.52917
1029.673, 97.55491
1030.155, 97.57817
1030.637, 97.56790
1031.119, 97.60493
1031.602, 97.75987
1032.084, 98.04565
1032.566, 98.35001
1033.048, 98.67734
1033.530, 98.89931
1034.012, 98.85189
1034.494, 98.70943
1034.976, 98.65360
1035.458, 98.66141
1035.941, 98.64316
1036.423, 98.41885
1036.905, 98.46421
1037.387, 98.94599
1037.869, 99.53265
1038.351, 99.71989
1038.833, 99.61027
1039.315, 99.51993
1039.797, 99.49112
1040.280, 99.51262
1040.762, 99.62930
1041.244, 99.74442
1041.726, 99.80095
1042.208, 99.80148
1042.690, 99.73668
1043.172, 99.58890
1043.654, 99.60168
1044.137, 99.95195
1044.619, 100.3630
1045.101, 100.5196
1045.583, 100.5092
1046.065, 100.4662
1046.547, 100.3602
1047.029, 100.3551
1047.511, 100.5064
1047.994, 100.6699
1048.476, 100.7154
1048.958, 100.6776
1049.440, 100.6758
1049.922, 100.7152
1050.404, 100.8112
1050.886, 101.1944
1051.368, 101.3984
1051.850, 100.9570
1052.333, 100.2663
1052.815, 100.0869
1053.297, 100.4631
1053.779, 100.9142
1054.261, 101.4010
1054.743, 101.7577
1055.225, 101.7676
1055.707, 101.5811
1056.189, 101.2895
1056.672, 100.8852
1057.154, 100.7718
1057.636, 101.0948
1058.118, 101.4458
1058.600, 101.7035
1059.082, 101.8515
1059.564, 101.7404
1060.046, 101.4833
1060.529, 101.4304
1061.011, 101.8773
1061.493, 102.1958
1061.975, 101.8625
1062.457, 101.5073
1062.939, 101.6959
1063.421, 102.4756
1063.903, 103.0115
1064.385, 103.3041
1064.868, 103.3973
1065.350, 103.0888
1065.832, 102.8042
1066.314, 103.0609
1066.796, 103.6408
1067.278, 103.8493
1067.760, 103.4540
1068.242, 103.2100
1068.724, 103.2533
1069.207, 103.3447
1069.689, 103.1477
1070.171, 102.8048
1070.653, 102.5437
1071.135, 102.3918
1071.617, 102.4357
1072.099, 102.9812
1072.581, 103.3972
1073.064, 103.3671
1073.546, 103.1039
1074.028, 103.3765
1074.510, 104.0828
1074.992, 104.5848
1075.474, 104.6328
1075.956, 104.5853
1076.438, 104.6658
1076.921, 104.7882
1077.403, 104.8724
1077.885, 104.9167
1078.367, 104.9070
1078.849, 104.8277
1079.331, 104.8385
1079.813, 105.2486
1080.295, 105.6229
1080.777, 105.1570
1081.260, 104.2408
1081.742, 103.7671
1082.224, 104.3213
1082.706, 104.8172
1083.188, 105.2289
1083.670, 105.5286
1084.152, 105.6305
1084.634, 105.6061
1085.116, 105.6886
1085.599, 105.8771
1086.081, 106.0300
1086.563, 106.0462
1087.045, 106.0468
1087.527, 106.0626
1088.009, 106.1028
1088.491, 106.2292
1088.973, 106.4319
1089.455, 106.4620
1089.938, 106.2477
1090.420, 106.0326
1090.902, 106.0784
1091.384, 106.1703
1091.866, 106.0755
1092.348, 105.7845
1092.830, 105.7085
1093.312, 105.8649
1093.795, 106.1594
1094.277, 106.6421
1094.759, 107.0958
1095.241, 107.0597
1095.723, 106.8269
1096.205, 106.9185
1096.687, 107.7798
1097.169, 108.1539
1097.651, 107.7557
1098.134, 107.2774
1098.616, 107.0656
1099.098, 107.1638
1099.580, 108.0437
1100.062, 109.4344
1100.544, 110.3072
1101.026, 109.7311
1101.508, 109.1192
1101.990, 108.9186
1102.473, 108.8913
1102.955, 108.7364
1103.437, 108.4700
1103.919, 108.5235
1104.401, 108.9222
1104.883, 109.2508
1105.365, 109.1419
1105.847, 108.9290
1106.330, 108.8496
1106.812, 108.8561
1107.294, 108.7088
1107.776, 108.3458
1108.258, 108.2151
1108.740, 108.4152
1109.222, 108.7849
1109.704, 109.3832
1110.187, 109.9083
1110.669, 109.8891
1111.151, 109.2219
1111.633, 108.9874
1112.115, 109.3984
1112.597, 109.8476
1113.079, 110.1473
1113.561, 110.3418
1114.043, 110.5377
1114.526, 110.6952
1115.008, 110.7334
1115.490, 110.6380
1115.972, 110.3909
1116.454, 109.6791
1116.936, 109.2533
1117.418, 109.7487
1117.900, 110.8667
1118.382, 110.9696
1118.865, 110.2908
1119.347, 109.8826
1119.829, 110.5375
1120.311, 111.1779
1120.793, 111.2895
1121.275, 111.6006
1121.757, 111.2871
1122.239, 111.5498
1122.722, 111.4608
1123.204, 111.0182
1123.686, 110.7539
1124.168, 111.3734
1124.650, 111.9797
1125.132, 111.7707
1125.614, 111.0668
1126.096, 110.7789
1126.578, 111.0124
1127.061, 111.1547
1127.543, 111.1220
1128.025, 111.1219
1128.507, 111.3983
1128.989, 111.7894
1129.471, 112.2056
1129.953, 112.5989
1130.435, 112.6531
1130.917, 112.1326
1131.400, 111.9041
1131.882, 112.2454
1132.364, 112.7381
1132.846, 112.6845
1133.328, 112.3841
1133.810, 112.3521
1134.292, 112.6907
1134.774, 113.0692
1135.257, 113.5540
1135.739, 113.8326
1136.221, 113.7421
1136.703, 113.4180
1137.185, 113.0524
1137.667, 112.7387
1138.149, 112.7890
1138.631, 113.4333
1139.114, 113.9835
1139.596, 114.1795
1140.078, 114.1779
1140.560, 113.9488
1141.042, 113.5829
1141.524, 113.7482
1142.006, 114.3346
1142.488, 114.7102
1142.970, 114.3520
1143.453, 114.0892
1143.935, 114.6422
1144.417, 115.2835
1144.899, 115.2306
1145.381, 114.3995
1145.863, 114.0360
1146.345, 114.1304
1146.827, 114.3613
1147.309, 114.5918
1147.792, 114.8157
1148.274, 115.0531
1148.756, 115.2645
1149.238, 115.3666
1149.720, 115.3150
1150.202, 115.3911
1150.684, 115.6160
1151.166, 115.8890
1151.649, 116.2134
1152.131, 116.4655
1152.613, 116.4859
1153.095, 116.3233
1153.577, 116.1689
1154.059, 115.9763
1154.541, 115.9968
1155.023, 116.2855
1155.505, 116.6985
1155.988, 117.2162
1156.470, 117.6684
1156.952, 117.7917
1157.434, 117.5881
1157.916, 117.3957
1158.398, 117.2413
1158.880, 117.1333
1159.362, 117.0857
1159.844, 117.0594
1160.327, 116.9601
1160.809, 116.8570
1161.291, 116.8352
1161.773, 116.8976
1162.255, 117.2084
1162.737, 118.0274
1163.219, 118.6654
1163.701, 118.8684
1164.184, 118.8023
1164.666, 118.7333
1165.148, 118.6817
1165.630, 118.6889
1166.112, 118.7621
1166.594, 118.9139
1167.076, 119.2304
1167.558, 119.5172
1168.041, 119.7214
1168.523, 119.8135
1169.005, 119.5670
1169.487, 119.1220
1169.969, 118.9660
1170.451, 119.4772
1170.933, 119.7582
1171.415, 119.1160
1171.897, 118.5641
1172.380, 118.7999
1172.862, 119.6496
1173.344, 120.1536
1173.826, 120.3467
1174.308, 120.4237
1174.790, 120.3020
1175.272, 120.3287
1175.754, 120.8886
1176.236, 121.4498
1176.719, 121.5368
1177.201, 121.1717
1177.683, 120.8809
1178.165, 120.6889
1178.647, 120.7918
1179.129, 121.7478
1179.611, 122.5059
1180.093, 122.3767
1180.576, 121.9066
1181.058, 121.6644
1181.540, 121.6530
1182.022, 121.8252
1182.504, 122.1723
1182.986, 122.5345
1183.468, 122.9501
1183.950, 123.1992
1184.432, 122.9701
1184.915, 122.5732
1185.397, 122.5402
1185.879, 122.8906
1186.361, 123.0027
1186.843, 122.8250
1187.325, 122.7590
1187.807, 123.2580
1188.289, 123.8224
1188.771, 124.1875
1189.254, 124.3297
1189.736, 124.0967
1190.218, 123.4433
1190.700, 123.3514
1191.182, 123.9872
1191.664, 124.5955
1192.146, 124.4447
1192.628, 124.1024
1193.111, 123.9514
1193.593, 123.9739
1194.075, 124.0598
1194.557, 124.2172
1195.039, 124.3324
1195.521, 124.3773
1196.003, 124.4331
1196.485, 124.6398
1196.968, 124.8332
1197.450, 124.8267
1197.932, 124.6662
1198.414, 124.6112
1198.896, 124.6498
1199.378, 125.0003
1199.860, 125.8030
1200.342, 126.4953
1200.824, 126.3620
1201.307, 126.0173
1201.789, 126.0659
1202.271, 126.4853
1202.753, 126.6597
1203.235, 126.5659
1203.717, 126.5341
1204.199, 126.6649
1204.681, 126.8717
1205.163, 127.2531
1205.646, 127.5429
1206.128, 127.3277
1206.610, 126.6261
1207.092, 126.4071
1207.574, 126.6929
1208.056, 127.1175
1208.538, 127.6546
1209.020, 127.9983
1209.503, 127.5416
1209.985, 126.9192
1210.467, 126.9314
1210.949, 127.5990
1211.431, 127.9486
1211.913, 127.9663
1212.395, 127.9314
1212.877, 127.9425
1213.359, 127.9745
1213.842, 127.9391
1214.324, 127.9533
1214.806, 128.2331
1215.288, 128.8151
1215.770, 128.9381
1216.252, 128.5832
1216.734, 128.3163
1217.216, 128.4269
1217.698, 128.6766
1218.181, 128.9759
1218.663, 129.2240
1219.145, 129.2495
1219.627, 129.0119
1220.109, 129.1252
1220.591, 129.5988
1221.073, 129.9225
1221.555, 129.6001
1222.038, 129.3781
1222.520, 130.1007
1223.002, 131.1079
1223.484, 131.5744
1223.966, 131.4278
1224.448, 131.3470
1224.930, 131.3333
1225.412, 131.4365
1225.895, 131.8624
1226.377, 132.1867
1226.859, 131.9695
1227.341, 131.5696
1227.823, 131.4327
1228.305, 131.5847
1228.787, 131.7241
1229.269, 131.8525
1229.751, 131.9934
1230.234, 132.1905
1230.716, 132.3661
1231.198, 132.4761
1231.680, 132.5297
1232.162, 132.5216
1232.644, 132.4430
1233.126, 132.4671
1233.608, 132.5870
1234.090, 132.7260
1234.573, 132.8962
1235.055, 133.0096
1235.537, 132.8981
1236.019, 132.8001
1236.501, 133.0569
1236.983, 133.6482
1237.465, 133.6693
1237.947, 133.1865
1238.430, 132.8207
1238.912, 132.9153
1239.394, 133.2213
1239.876, 133.8392
1240.358, 134.4487
1240.840, 134.7086
1241.322, 134.6650
1241.804, 134.7728
1242.286, 134.9944
1242.769, 135.0224
1243.251, 134.2983
1243.733, 133.9020
1244.215, 134.2868
1244.697, 134.9223
1245.179, 135.2880
1245.661, 135.4629
1246.143, 135.9090
1246.625, 136.5508
1247.108, 136.9583
1247.590, 136.7182
1248.072, 136.5366
1248.554, 136.5789
1249.036, 136.6673
1249.518, 136.6102
1250.000, 136.4585
1250.482, 136.3687
1250.965, 136.3274
1251.447, 136.2622
1251.929, 135.9826
1252.411, 135.9561
1252.893, 136.2971
1253.375, 136.7382
1253.857, 137.0957
1254.339, 137.3289
1254.822, 137.3133
1255.304, 137.1039
1255.786, 136.8879
1256.268, 136.4968
1256.750, 136.5828
1257.232, 137.3285
1257.714, 138.0791
1258.196, 138.1757
1258.678, 137.9429
1259.161, 137.7130
1259.643, 137.5405
1260.125, 137.5637
1260.607, 137.8294
1261.089, 138.2090
1261.571, 138.7309
1262.053, 139.1156
1262.535, 138.8004
1263.017, 138.5098
1263.500, 139.2772
1263.982, 140.6031
1264.464, 141.1785
1264.946, 140.7766
1265.428, 140.5474
1265.910, 140.5567
1266.392, 140.5815
1266.874, 140.4159
1267.357, 140.2350
1267.839, 140.1919
1268.321, 140.2145
1268.803, 140.1009
1269.285, 139.8226
1269.767, 140.1066
1270.249, 140.9594
1270.731, 141.6638
1271.214, 141.6677
1271.696, 141.5144
1272.178, 141.3704
1272.660, 141.3147
1273.142, 141.4837
1273.624, 141.8472
1274.106, 142.1196
1274.588, 142.2956
1275.070, 142.4062
1275.552, 142.5297
1276.035, 142.4831
1276.517, 142.0267
1276.999, 141.6446
1277.481, 141.9324
1277.963, 142.6770
1278.445, 143.2306
1278.927, 143.5567
1279.409, 143.6124
1279.892, 142.9639
1280.374, 142.7069
1280.856, 143.0853
1281.338, 143.5776
1281.820, 143.6448
1282.302, 143.5501
1282.784, 143.9501
1283.266, 143.9550
1283.749, 143.9704
1284.231, 144.2988
1284.713, 144.0665
1285.195, 144.3145
1285.677, 144.6526
1286.159, 144.7673
1286.641, 144.8206
1287.123, 145.0298
1287.605, 145.3155
1288.088, 145.5016
1288.570, 145.5100
1289.052, 145.7544
1289.534, 146.2573
1290.016, 146.6227
1290.498, 146.3504
1290.980, 146.0935
1291.462, 146.4645
1291.944, 147.0490
1292.427, 147.2669
1292.909, 147.0906
1293.391, 147.1503
1293.873, 147.4176
1294.355, 147.6280
1294.837, 147.5322
1295.319, 147.5040
1295.801, 147.8445
1296.284, 148.1906
1296.766, 148.2634
1297.248, 148.1131
1297.730, 147.8749
1298.212, 147.6328
1298.694, 147.6954
1299.176, 148.4787
1299.658, 148.9967
1300.141, 149.0507
1300.623, 148.9633
1301.105, 148.9806
1301.587, 148.9726
1302.069, 148.4103
1302.551, 147.6589
1303.033, 147.4984
1303.515, 148.4379
1303.997, 149.2025
1304.479, 149.8140
1304.962, 150.0928
1305.444, 149.9936
##END=



