##NAMES=Cumengeite
##RRUFFID=R060079
##IDEAL CHEMISTRY=Pb^2+^_21_Cu^2+^_20_Cl_42_(OH)_40_&#183;6H_2_O
##LOCALITY=Amelia mine, Santa Rosalia, Baja California, Mexico
##OWNER=RRUFF
##SOURCE=Marcus Origlieri
##DESCRIPTION=Blue pseudocubo-octahedral crystal
##STATUS=The identification of this mineral has been confirmed by single-crystal X-ray diffraction.
##URL=rruff.info/R060079
94.71033, 240.8176
95.19244, 259.7245
95.67456, 283.7909
96.15668, 310.3864
96.63879, 339.6547
97.12091, 372.2185
97.60303, 408.2104
98.08514, 447.7528
98.56726, 490.0666
99.04938, 535.2759
99.53149, 584.9912
100.0136, 640.5244
100.4957, 701.6810
100.9778, 764.3331
101.4600, 827.5267
101.9421, 892.3835
102.4242, 960.3293
102.9063, 1032.821
103.3884, 1105.833
103.8705, 1176.510
104.3527, 1245.991
104.8348, 1312.131
105.3169, 1375.780
105.7990, 1436.364
106.2811, 1493.566
106.7632, 1543.373
107.2454, 1593.448
107.7275, 1648.609
108.2096, 1709.675
108.6917, 1775.745
109.1738, 1846.140
109.6559, 1921.154
110.1381, 2003.653
110.6202, 2095.571
111.1023, 2194.913
111.5844, 2299.779
112.0665, 2415.760
112.5486, 2533.249
113.0308, 2650.651
113.5129, 2768.942
113.9950, 2887.502
114.4771, 3008.907
114.9592, 3129.591
115.4413, 3246.169
115.9235, 3354.915
116.4056, 3460.898
116.8877, 3564.808
117.3698, 3668.644
117.8519, 3770.547
118.3340, 3869.599
118.8162, 3966.311
119.2983, 4061.490
119.7804, 4156.169
120.2625, 4250.485
120.7446, 4343.738
121.2267, 4436.364
121.7089, 4528.335
122.1910, 4616.995
122.6731, 4703.809
123.1552, 4795.626
123.6373, 4899.958
124.1194, 5010.368
124.6016, 5120.682
125.0837, 5224.572
125.5658, 5328.247
126.0479, 5437.679
126.5300, 5552.749
127.0121, 5670.768
127.4943, 5792.502
127.9764, 5915.155
128.4585, 6035.675
128.9406, 6150.062
129.4227, 6261.074
129.9048, 6372.542
130.3869, 6484.465
130.8691, 6596.842
131.3512, 6710.016
131.8333, 6801.526
132.3154, 6857.198
132.7975, 6901.636
133.2796, 6945.401
133.7618, 6993.053
134.2439, 7046.234
134.7260, 7100.760
135.2081, 7147.778
135.6902, 7187.489
136.1723, 7229.171
136.6545, 7278.895
137.1366, 7336.500
137.6187, 7393.039
138.1008, 7447.874
138.5829, 7502.012
139.0650, 7559.015
139.5472, 7619.016
140.0293, 7680.923
140.5114, 7743.932
140.9935, 7807.544
141.4756, 7875.227
141.9577, 7949.121
142.4399, 8027.703
142.9220, 8102.111
143.4041, 8170.966
143.8862, 8238.634
144.3683, 8310.667
144.8504, 8392.412
145.3326, 8465.353
145.8147, 8525.020
146.2968, 8572.827
146.7789, 8617.095
147.2610, 8661.914
147.7431, 8700.676
148.2253, 8728.819
148.7074, 8749.576
149.1895, 8755.688
149.6716, 8745.403
150.1537, 8718.493
150.6358, 8680.158
151.1180, 8629.513
151.6001, 8567.849
152.0822, 8497.219
152.5643, 8418.681
153.0464, 8329.995
153.5285, 8230.601
154.0107, 8121.098
154.4928, 8002.401
154.9749, 7873.830
155.4570, 7735.553
155.9391, 7587.850
156.4212, 7426.173
156.9034, 7257.527
157.3855, 7082.889
157.8676, 6903.452
158.3497, 6721.566
158.8318, 6532.242
159.3139, 6340.594
159.7961, 6153.862
160.2782, 5976.184
160.7603, 5802.156
161.2424, 5628.239
161.7245, 5450.447
162.2066, 5280.432
162.6888, 5121.878
163.1709, 4973.658
163.6530, 4833.444
164.1351, 4699.612
164.6172, 4573.599
165.0993, 4456.802
165.5815, 4351.226
166.0636, 4251.057
166.5457, 4151.738
167.0278, 4054.354
167.5099, 3962.488
167.9921, 3879.314
168.4742, 3801.720
168.9563, 3726.938
169.4384, 3653.576
169.9205, 3583.420
170.4026, 3518.315
170.8848, 3457.520
171.3669, 3399.083
171.8490, 3340.206
172.3311, 3283.615
172.8132, 3232.774
173.2953, 3190.728
173.7775, 3152.587
174.2596, 3113.323
174.7417, 3073.286
175.2238, 3036.059
175.7059, 3005.310
176.1880, 2979.198
176.6702, 2955.035
177.1523, 2931.764
177.6344, 2910.047
178.1165, 2890.470
178.5986, 2872.843
179.0807, 2857.535
179.5629, 2844.955
180.0450, 2834.674
180.5271, 2825.932
181.0092, 2818.341
181.4913, 2811.972
181.9734, 2807.469
182.4556, 2804.842
182.9377, 2802.589
183.4198, 2797.707
183.9019, 2791.510
184.3840, 2788.888
184.8661, 2794.977
185.3483, 2805.270
185.8304, 2808.581
186.3125, 2804.327
186.7946, 2797.770
187.2767, 2794.821
187.7588, 2794.849
188.2409, 2794.246
188.7231, 2791.344
189.2052, 2786.693
189.6873, 2782.504
190.1694, 2779.040
190.6515, 2774.868
191.1336, 2767.437
191.6158, 2757.023
192.0979, 2747.201
192.5800, 2740.841
193.0621, 2736.978
193.5442, 2729.084
194.0263, 2716.915
194.5085, 2701.156
194.9906, 2682.304
195.4727, 2660.354
195.9548, 2637.161
196.4369, 2613.665
196.9190, 2589.805
197.4012, 2564.854
197.8833, 2538.786
198.3654, 2511.621
198.8475, 2484.317
199.3296, 2456.782
199.8117, 2428.562
200.2939, 2399.671
200.7760, 2370.253
201.2581, 2338.934
201.7402, 2305.450
202.2223, 2270.838
202.7044, 2236.747
203.1866, 2203.604
203.6687, 2170.477
204.1508, 2136.985
204.6329, 2103.101
205.1150, 2069.242
205.5971, 2035.166
206.0793, 2001.449
206.5614, 1969.116
207.0435, 1938.618
207.5256, 1908.966
208.0077, 1879.959
208.4898, 1851.718
208.9720, 1823.102
209.4541, 1793.574
209.9362, 1764.110
210.4183, 1736.848
210.9004, 1712.429
211.3825, 1688.829
211.8647, 1664.467
212.3468, 1638.433
212.8289, 1616.068
213.3110, 1598.685
213.7931, 1584.011
214.2752, 1566.984
214.7574, 1546.375
215.2395, 1526.042
215.7216, 1507.458
216.2037, 1491.061
216.6858, 1475.589
217.1679, 1461.441
217.6501, 1447.943
218.1322, 1433.516
218.6143, 1417.228
219.0964, 1401.671
219.5785, 1388.768
220.0606, 1379.843
220.5428, 1368.676
221.0249, 1354.390
221.5070, 1338.295
221.9891, 1324.074
222.4712, 1312.708
222.9533, 1301.081
223.4355, 1287.853
223.9176, 1271.790
224.3997, 1257.090
224.8818, 1243.773
225.3639, 1231.735
225.8460, 1220.459
226.3282, 1210.246
226.8103, 1200.408
227.2924, 1190.817
227.7745, 1181.086
228.2566, 1172.329
228.7387, 1165.087
229.2209, 1158.586
229.7030, 1151.045
230.1851, 1141.271
230.6672, 1132.282
231.1493, 1125.487
231.6314, 1121.886
232.1136, 1117.822
232.5957, 1113.305
233.0778, 1108.316
233.5599, 1102.861
234.0420, 1096.697
234.5241, 1090.454
235.0063, 1084.278
235.4884, 1077.928
235.9705, 1072.605
236.4526, 1068.989
236.9347, 1066.036
237.4168, 1061.372
237.8990, 1053.678
238.3811, 1046.367
238.8632, 1040.993
239.3453, 1038.561
239.8274, 1034.985
240.3095, 1030.171
240.7917, 1024.250
241.2738, 1017.258
241.7559, 1008.220
242.2380, 999.7638
242.7201, 993.1130
243.2022, 989.0623
243.6844, 984.0623
244.1665, 977.6317
244.6486, 970.5236
245.1307, 964.0758
245.6128, 958.7424
246.0949, 953.3049
246.5771, 947.2250
247.0592, 940.1249
247.5413, 933.8868
248.0234, 928.9172
248.5055, 924.5534
248.9876, 919.9207
249.4697, 914.9880
249.9519, 909.7750
250.4340, 904.3220
250.9161, 898.6800
251.3982, 892.5374
251.8803, 886.0692
252.3624, 879.0101
252.8446, 871.0074
253.3267, 861.4661
253.8088, 852.0993
254.2909, 843.5380
254.7730, 835.9493
255.2551, 827.5836
255.7373, 818.3588
256.2194, 808.4427
256.7015, 798.0886
257.1836, 786.8633
257.6657, 775.9658
258.1479, 765.5453
258.6300, 755.6620
259.1121, 746.5715
259.5942, 738.2543
260.0763, 730.7243
260.5584, 723.9377
261.0406, 718.4418
261.5227, 712.4620
262.0048, 705.5338
262.4869, 697.7362
262.9690, 689.5209
263.4511, 680.2423
263.9333, 671.6087
264.4154, 665.5891
264.8975, 663.1673
265.3796, 660.2443
265.8617, 655.8785
266.3438, 650.2773
266.8260, 645.1638
267.3081, 640.7941
267.7902, 636.5225
268.2723, 631.8708
268.7544, 626.6183
269.2365, 621.5623
269.7187, 616.8076
270.2008, 612.3200
270.6829, 608.2380
271.1650, 604.7312
271.6471, 601.2133
272.1292, 597.2060
272.6114, 592.5373
273.0935, 588.2463
273.5756, 584.4779
274.0577, 581.1943
274.5398, 578.3715
275.0219, 576.2223
275.5041, 573.8630
275.9862, 570.6301
276.4683, 566.4169
276.9504, 562.2019
277.4325, 558.1031
277.9146, 554.0272
278.3968, 549.5153
278.8788, 544.3917
279.3610, 539.8355
279.8431, 537.0598
280.3252, 536.2006
280.8073, 534.0638
281.2894, 530.2384
281.7715, 525.4578
282.2537, 520.9178
282.7358, 516.6016
283.2179, 512.7676
283.7000, 509.7741
284.1821, 507.5583
284.6642, 504.8828
285.1464, 501.5284
285.6285, 498.1165
286.1106, 495.7444
286.5927, 494.4083
287.0748, 493.0370
287.5569, 491.1815
288.0391, 488.8650
288.5212, 486.1799
289.0033, 482.9668
289.4854, 479.9869
289.9675, 478.5354
290.4496, 478.4591
290.9318, 478.0215
291.4139, 476.4008
291.8960, 473.9434
292.3781, 471.8223
292.8602, 470.0453
293.3423, 468.3959
293.8245, 466.6447
294.3066, 464.8131
294.7887, 462.9540
295.2708, 460.8863
295.7529, 458.9342
296.2350, 458.0223
296.7172, 458.1444
297.1993, 458.2999
297.6814, 457.4330
298.1635, 455.9074
298.6456, 454.8089
299.1277, 454.5401
299.6099, 454.6469
300.0920, 454.5714
300.5741, 454.3078
301.0562, 453.7805
301.5383, 452.8940
302.0204, 451.7137
302.5026, 450.3839
302.9847, 448.9438
303.4668, 447.3189
303.9489, 445.2123
304.4310, 442.7864
304.9131, 440.4918
305.3953, 438.7209
305.8774, 437.2057
306.3595, 435.8183
306.8416, 434.7284
307.3237, 433.0089
307.8058, 429.4427
308.2880, 424.6119
308.7701, 419.8517
309.2522, 416.0150
309.7343, 412.3862
310.2164, 408.2786
310.6985, 403.5687
311.1807, 398.7303
311.6628, 394.1628
312.1449, 389.6278
312.6270, 384.9078
313.1091, 379.5134
313.5912, 374.1855
314.0734, 369.4577
314.5555, 365.3651
315.0376, 361.1900
315.5197, 356.3781
316.0018, 351.3279
316.4839, 346.5767
316.9661, 342.3903
317.4482, 338.3777
317.9303, 334.4027
318.4124, 330.4776
318.8945, 326.5757
319.3766, 322.6206
319.8588, 318.7354
320.3409, 315.0368
320.8230, 311.2807
321.3051, 308.0103
321.7872, 305.6718
322.2693, 303.9826
322.7515, 302.0802
323.2336, 299.6147
323.7157, 296.9975
324.1978, 294.3280
324.6799, 291.2384
325.1620, 288.9139
325.6442, 288.0704
326.1263, 288.0222
326.6084, 287.5527
327.0905, 286.2684
327.5726, 284.7983
328.0547, 283.2202
328.5369, 281.3750
329.0190, 280.0207
329.5011, 279.5814
329.9832, 279.4648
330.4653, 278.9930
330.9474, 277.5496
331.4296, 276.5249
331.9117, 276.3174
332.3938, 276.9804
332.8759, 277.4137
333.3580, 277.5847
333.8401, 277.5667
334.3223, 277.3297
334.8044, 276.4142
335.2865, 276.2289
335.7686, 277.1621
336.2507, 279.0043
336.7328, 280.6067
337.2150, 282.0494
337.6971, 283.1203
338.1792, 283.5146
338.6613, 282.8741
339.1434, 282.9950
339.6255, 284.1703
340.1077, 286.0015
340.5898, 287.6768
341.0719, 289.1620
341.5540, 290.5090
342.0361, 291.6753
342.5182, 292.6592
343.0004, 293.6992
343.4825, 294.7650
343.9646, 295.9524
344.4467, 297.4061
344.9288, 299.1110
345.4109, 300.9727
345.8931, 303.2461
346.3752, 305.6494
346.8573, 306.5117
347.3394, 305.6439
347.8215, 304.9003
348.3036, 306.5472
348.7858, 310.0767
349.2679, 313.0722
349.7500, 314.9457
350.2321, 315.9172
350.7142, 316.1606
351.1964, 315.7189
351.6785, 315.0146
352.1606, 314.2636
352.6427, 313.4851
353.1248, 312.7682
353.6069, 312.2165
354.0891, 311.4633
354.5712, 309.9952
355.0533, 307.9896
355.5354, 305.9099
356.0175, 304.1212
356.4996, 302.3592
356.9818, 300.1020
357.4639, 297.2100
357.9460, 294.7924
358.4281, 294.0561
358.9102, 294.2006
359.3923, 294.0746
359.8745, 293.1338
360.3566, 291.8404
360.8387, 290.2027
361.3208, 288.2828
361.8029, 286.8941
362.2850, 286.7162
362.7672, 287.0692
363.2493, 287.4061
363.7314, 287.8185
364.2135, 287.9217
364.6956, 287.1932
365.1777, 285.9877
365.6599, 285.4178
366.1420, 286.1828
366.6241, 287.3224
367.1062, 288.3896
367.5883, 289.3143
368.0704, 290.2376
368.5526, 291.2707
369.0347, 292.2838
369.5168, 293.0925
369.9989, 293.3112
370.4810, 293.7165
370.9631, 294.6883
371.4453, 296.4046
371.9274, 297.2285
372.4095, 296.5739
372.8916, 295.5098
373.3737, 294.9446
373.8558, 295.0987
374.3380, 295.3408
374.8201, 295.7689
375.3022, 296.2503
375.7843, 295.9816
376.2664, 294.7428
376.7485, 293.2224
377.2307, 291.8254
377.7128, 290.5836
378.1949, 289.3015
378.6770, 288.0904
379.1591, 286.7007
379.6412, 284.6357
380.1234, 281.8354
380.6055, 278.7895
381.0876, 275.5010
381.5697, 272.0851
382.0518, 269.3354
382.5339, 267.3647
383.0161, 265.5439
383.4982, 263.1523
383.9803, 260.2795
384.4624, 257.5293
384.9445, 255.0518
385.4266, 252.8108
385.9088, 250.8256
386.3909, 249.0691
386.8730, 247.2187
387.3551, 244.7531
387.8372, 242.0806
388.3193, 239.9116
388.8015, 238.4227
389.2836, 237.2837
389.7657, 236.6252
390.2478, 236.1048
390.7299, 234.9372
391.2120, 232.0287
391.6942, 228.7786
392.1763, 226.3247
392.6584, 224.7893
393.1405, 223.6279
393.6226, 222.8787
394.1047, 222.2294
394.5869, 221.3559
395.0690, 219.9296
395.5511, 218.4881
396.0332, 217.2569
396.5153, 216.1933
396.9974, 215.0589
397.4796, 213.5525
397.9617, 212.1317
398.4438, 211.0827
398.9259, 210.8137
399.4080, 210.2468
399.8901, 208.8838
400.3723, 207.2214
400.8544, 206.2130
401.3365, 206.7961
401.8186, 206.9065
402.3007, 205.6117
402.7828, 202.5542
403.2649, 201.3913
403.7470, 203.2449
404.2292, 205.7915
404.7113, 206.8774
405.1934, 206.0235
405.6755, 205.0917
406.1576, 204.2256
406.6397, 203.5032
407.1219, 203.2768
407.6040, 203.6264
408.0861, 204.1510
408.5682, 204.7625
409.0503, 205.4414
409.5324, 205.5387
410.0146, 204.8494
410.4967, 204.0785
410.9788, 204.3733
411.4609, 205.6265
411.9430, 206.8289
412.4251, 207.5699
412.9073, 208.0028
413.3894, 208.4634
413.8715, 208.9554
414.3536, 209.4882
414.8357, 209.8881
415.3178, 210.3704
415.8000, 211.3818
416.2821, 213.2048
416.7642, 215.2485
417.2463, 217.1086
417.7284, 218.7714
418.2105, 220.1413
418.6927, 220.7454
419.1748, 221.3413
419.6569, 222.6472
420.1390, 223.4321
420.6211, 226.6972
421.1032, 229.3631
421.5854, 231.4624
422.0675, 231.2963
422.5496, 234.0550
423.0317, 235.6417
423.5138, 237.1801
423.9959, 240.3507
424.4781, 240.5143
424.9602, 243.6589
425.4423, 245.6134
425.9244, 248.1126
426.4065, 249.4323
426.8886, 253.4890
427.3708, 256.5843
427.8529, 259.2274
428.3350, 262.1324
428.8171, 265.3338
429.2992, 268.7151
429.7813, 272.1544
430.2635, 275.6503
430.7456, 279.8560
431.2277, 284.8606
431.7098, 290.3296
432.1919, 296.2783
432.6740, 302.8161
433.1562, 308.2907
433.6383, 312.1115
434.1204, 315.3417
434.6025, 320.2608
435.0846, 326.8340
435.5667, 333.5993
436.0489, 339.7042
436.5310, 345.4733
437.0131, 351.9834
437.4952, 359.3254
437.9773, 366.7941
438.4594, 373.4966
438.9416, 379.8365
439.4237, 386.7114
439.9058, 394.7841
440.3879, 403.0365
440.8700, 410.6042
441.3521, 417.6130
441.8343, 424.4954
442.3164, 431.2884
442.7985, 438.1798
443.2806, 445.3051
443.7627, 452.5878
444.2448, 460.2555
444.7270, 468.7330
445.2091, 477.4533
445.6912, 485.7033
446.1733, 492.7403
446.6554, 499.8923
447.1375, 507.4517
447.6197, 515.4189
448.1018, 523.4537
448.5839, 531.3481
449.0660, 539.4064
449.5481, 547.6347
450.0302, 555.8346
450.5124, 564.7912
450.9945, 574.6534
451.4766, 585.0931
451.9587, 595.4879
452.4408, 605.7902
452.9229, 616.3675
453.4051, 627.5054
453.8872, 639.0997
454.3693, 651.1572
454.8514, 663.8105
455.3335, 676.5470
455.8156, 689.5638
456.2978, 702.6475
456.7799, 714.2275
457.2620, 724.0797
457.7441, 732.6518
458.2262, 741.2263
458.7083, 749.3782
459.1905, 755.5937
459.6726, 759.2240
460.1547, 760.3262
460.6368, 758.9451
461.1189, 755.0760
461.6010, 748.8544
462.0832, 740.6219
462.5653, 729.9882
463.0474, 716.4621
463.5295, 698.7276
464.0116, 679.8623
464.4937, 661.7805
464.9759, 643.7497
465.4580, 624.7807
465.9401, 603.2357
466.4222, 581.8506
466.9043, 561.7422
467.3864, 542.9810
467.8686, 525.5225
468.3507, 509.3398
468.8328, 494.4829
469.3149, 481.0238
469.7970, 469.4651
470.2791, 458.4611
470.7613, 447.7799
471.2434, 437.6930
471.7255, 428.9995
472.2076, 421.8842
472.6897, 415.6616
473.1718, 409.8863
473.6540, 404.5854
474.1361, 400.5791
474.6182, 398.0671
475.1003, 396.1338
475.5824, 393.5778
476.0645, 390.5688
476.5467, 388.7836
477.0288, 388.7960
477.5109, 389.7393
477.9930, 390.3687
478.4751, 390.7307
478.9572, 391.0381
479.4394, 391.1227
479.9215, 391.3564
480.4036, 392.2358
480.8857, 393.7894
481.3678, 395.6945
481.8499, 398.1324
482.3321, 400.6456
482.8142, 402.6545
483.2963, 403.3514
483.7784, 404.3931
484.2605, 406.9149
484.7426, 410.2805
485.2248, 412.8993
485.7069, 413.2985
486.1890, 413.8644
486.6711, 415.6328
487.1532, 419.0297
487.6353, 421.7908
488.1175, 423.6633
488.5996, 425.0698
489.0817, 426.2826
489.5638, 427.1561
490.0459, 428.1616
490.5280, 429.3282
491.0102, 430.6570
491.4923, 432.2415
491.9744, 434.1522
492.4565, 436.0055
492.9386, 437.8328
493.4207, 439.5424
493.9029, 440.3264
494.3850, 440.1212
494.8671, 439.6902
495.3492, 439.9372
495.8313, 440.5426
496.3134, 440.5114
496.7956, 439.4324
497.2777, 438.1459
497.7598, 437.7773
498.2419, 437.9545
498.7240, 437.7473
499.2061, 436.6794
499.6883, 435.0763
500.1704, 433.0876
500.6525, 430.7291
501.1346, 428.2095
501.6167, 425.9799
502.0988, 423.3629
502.5810, 419.7959
503.0631, 414.0305
503.5452, 409.0080
504.0273, 405.6286
504.5094, 403.1152
504.9915, 400.2848
505.4737, 397.4479
505.9558, 393.7979
506.4379, 388.8627
506.9200, 382.7415
507.4021, 377.4284
507.8842, 373.2118
508.3664, 368.9711
508.8485, 363.8027
509.3306, 357.6871
509.8127, 351.4787
510.2948, 345.1650
510.7769, 339.0215
511.2591, 333.6395
511.7412, 328.9012
512.2233, 324.3158
512.7054, 319.7960
513.1875, 315.2035
513.6696, 310.2794
514.1517, 305.0714
514.6339, 299.8329
515.1160, 294.6380
515.5981, 289.5512
516.0802, 284.5091
516.5623, 279.4518
517.0444, 274.7506
517.5266, 270.9595
518.0087, 267.4628
518.4908, 263.5886
518.9729, 258.7267
519.4550, 253.9664
519.9371, 249.7835
520.4193, 245.9409
520.9014, 241.5650
521.3835, 235.9932
521.8656, 230.7033
522.3477, 226.2430
522.8298, 222.6858
523.3120, 219.3918
523.7941, 216.5390
524.2762, 213.7214
524.7583, 210.4727
525.2404, 206.7530
525.7225, 203.4180
526.2047, 200.6905
526.6868, 198.1696
527.1689, 195.0118
527.6510, 191.3409
528.1331, 187.8771
528.6152, 185.0807
529.0974, 182.6218
529.5795, 179.9558
530.0616, 177.0925
530.5437, 174.3359
531.0258, 171.8008
531.5079, 169.4935
531.9901, 167.3894
532.4722, 165.5515
532.9543, 163.7275
533.4364, 161.6731
533.9185, 159.6109
534.4006, 157.8024
534.8828, 156.7578
535.3649, 155.4751
535.8470, 153.5446
536.3291, 151.1297
536.8112, 149.3546
537.2933, 148.7390
537.7755, 147.9487
538.2576, 146.2805
538.7397, 143.5601
539.2218, 141.2198
539.7039, 139.3080
540.1860, 137.7110
540.6682, 136.4821
541.1503, 135.5808
541.6324, 134.4530
542.1145, 132.9068
542.5966, 131.2580
543.0787, 129.9345
543.5609, 128.9203
544.0430, 128.1545
544.5251, 127.9045
545.0072, 127.6981
545.4893, 127.0750
545.9714, 126.0382
546.4536, 124.7874
546.9357, 123.0791
547.4178, 121.4185
547.8999, 120.2162
548.3820, 119.7123
548.8641, 119.2642
549.3463, 118.9068
549.8284, 118.4750
550.3105, 117.7408
550.7926, 116.4181
551.2747, 115.2133
551.7568, 114.1485
552.2390, 113.2666
552.7211, 112.7893
553.2032, 112.8419
553.6853, 112.9177
554.1674, 112.8522
554.6495, 112.6345
555.1317, 111.9994
555.6138, 110.9264
556.0959, 109.7012
556.5780, 108.3864
557.0601, 107.1349
557.5422, 106.4873
558.0244, 106.7805
558.5065, 107.0623
558.9886, 106.0588
559.4707, 104.3530
559.9528, 103.1342
560.4349, 103.3760
560.9171, 103.7949
561.3992, 103.7263
561.8813, 103.2104
562.3634, 102.6528
562.8455, 102.1871
563.3276, 101.6763
563.8098, 101.0107
564.2919, 100.0968
564.7740, 99.34875
565.2561, 98.71441
565.7382, 98.29696
566.2203, 98.26350
566.7025, 98.75711
567.1846, 99.06381
567.6667, 99.12387
568.1488, 98.91831
568.6309, 98.23347
569.1130, 97.09621
569.5952, 96.24026
570.0773, 96.15425
570.5594, 96.46795
571.0415, 96.57650
571.5236, 96.47117
572.0057, 96.07166
572.4879, 94.87996
572.9700, 93.60342
573.4521, 93.07278
573.9342, 93.53433
574.4163, 93.96397
574.8984, 93.75658
575.3806, 93.34248
575.8627, 93.15626
576.3448, 93.90022
576.8269, 94.12256
577.3090, 93.25643
577.7911, 91.81979
578.2733, 91.00162
578.7554, 91.10238
579.2375, 91.24942
579.7196, 91.18311
580.2017, 90.93012
580.6838, 90.74533
581.1660, 90.63660
581.6481, 90.55013
582.1302, 90.41357
582.6123, 90.26159
583.0944, 90.29250
583.5765, 90.54604
584.0587, 90.75779
584.5408, 90.31145
585.0229, 89.71021
585.5050, 89.87330
585.9871, 91.51334
586.4692, 93.29004
586.9514, 94.91404
587.4335, 96.07412
587.9156, 96.08260
588.3977, 93.40823
588.8798, 90.85738
589.3619, 89.39830
589.8441, 89.06006
590.3262, 88.89365
590.8083, 89.10998
591.2904, 89.22111
591.7725, 88.85659
592.2546, 87.81886
592.7368, 87.60198
593.2189, 88.46514
593.7010, 89.47562
594.1831, 89.45666
594.6652, 88.55202
595.1473, 87.87865
595.6295, 87.67165
596.1116, 87.71748
596.5937, 87.81815
597.0758, 87.94786
597.5579, 88.03831
598.0400, 87.95786
598.5222, 87.90726
599.0043, 88.11497
599.4864, 88.51163
599.9685, 88.75341
600.4506, 88.51420
600.9327, 88.25040
601.4149, 88.16434
601.8970, 88.27825
602.3791, 88.59611
602.8612, 89.41924
603.3433, 90.14493
603.8254, 90.23796
604.3076, 89.47708
604.7897, 88.97533
605.2718, 88.86092
605.7539, 88.91846
606.2360, 88.75850
606.7181, 88.41183
607.2003, 88.24784
607.6824, 88.43864
608.1645, 88.80009
608.6466, 89.08546
609.1287, 89.29861
609.6108, 89.44270
610.0930, 89.34078
610.5751, 89.30362
611.0572, 89.74036
611.5393, 90.63679
612.0214, 91.15373
612.5035, 90.55246
612.9857, 89.80858
613.4678, 89.53953
613.9499, 90.06155
614.4320, 90.44013
614.9141, 90.59802
615.3962, 90.68617
615.8784, 90.86327
616.3605, 91.14713
616.8426, 91.45679
617.3247, 91.79967
617.8068, 92.13614
618.2889, 92.39120
618.7711, 92.56593
619.2532, 92.63503
619.7353, 92.36911
620.2174, 92.15793
620.6995, 92.87596
621.1816, 94.29338
621.6638, 95.25711
622.1459, 94.65578
622.6280, 93.72417
623.1101, 93.26958
623.5922, 93.37376
624.0743, 93.86549
624.5565, 95.24953
625.0386, 96.62516
625.5207, 97.34276
626.0028, 96.97279
626.4849, 96.87773
626.9670, 97.20033
627.4492, 97.64109
627.9313, 97.73930
628.4134, 97.42759
628.8955, 97.40402
629.3776, 97.86853
629.8597, 98.59267
630.3419, 99.13157
630.8240, 99.54399
631.3061, 100.1126
631.7882, 101.3652
632.2703, 102.5834
632.7524, 102.7363
633.2346, 102.0443
633.7167, 101.6571
634.1988, 102.5278
634.6809, 103.5638
635.1630, 104.0624
635.6451, 103.8395
636.1273, 103.8991
636.6094, 104.2572
637.0915, 105.0105
637.5736, 106.3334
638.0557, 108.6372
638.5378, 110.2351
639.0200, 110.9519
639.5021, 111.2457
639.9842, 111.6789
640.4663, 112.2373
640.9484, 112.7488
641.4305, 113.0966
641.9127, 113.5203
642.3948, 114.3930
642.8769, 115.6230
643.3590, 116.9804
643.8411, 118.5757
644.3232, 120.0694
644.8054, 121.2372
645.2875, 122.0948
645.7696, 122.8452
646.2517, 123.3450
646.7338, 123.9235
647.2159, 124.7008
647.6981, 125.6786
648.1802, 126.9067
648.6623, 128.6147
649.1444, 130.2431
649.6265, 131.3094
650.1086, 131.7595
650.5908, 132.6944
651.0729, 134.2106
651.5550, 136.0188
652.0371, 137.8347
652.5192, 139.6982
653.0013, 141.6760
653.4835, 143.8726
653.9656, 145.9785
654.4477, 147.5330
654.9298, 148.8112
655.4119, 150.2961
655.8940, 152.3431
656.3762, 154.4276
656.8583, 156.2686
657.3404, 157.9682
657.8225, 159.9232
658.3046, 162.1217
658.7867, 164.5948
659.2689, 167.4976
659.7510, 170.7423
660.2331, 173.4053
660.7152, 175.3905
661.1973, 177.2691
661.6794, 179.4112
662.1616, 181.7405
662.6437, 183.9726
663.1258, 186.0981
663.6079, 188.2012
664.0900, 190.4282
664.5721, 192.6383
665.0543, 194.7071
665.5364, 196.6283
666.0185, 198.3596
666.5006, 199.5813
666.9827, 200.7521
667.4648, 202.3481
667.9470, 205.0082
668.4291, 207.3415
668.9112, 209.1696
669.3933, 210.7489
669.8754, 212.5851
670.3575, 214.8134
670.8397, 216.5545
671.3218, 217.3311
671.8039, 217.7396
672.2860, 219.6050
672.7681, 222.6125
673.2502, 224.9304
673.7324, 224.9924
674.2145, 224.2386
674.6966, 224.2894
675.1787, 225.0163
675.6608, 225.6127
676.1429, 225.8357
676.6251, 225.6897
677.1072, 225.0766
677.5893, 223.8955
678.0714, 222.8694
678.5535, 222.1155
679.0356, 221.4146
679.5178, 220.7128
679.9999, 220.0898
680.4820, 218.9788
680.9641, 217.3104
681.4462, 215.3356
681.9283, 213.2080
682.4105, 210.9635
682.8926, 208.7371
683.3747, 206.4571
683.8568, 204.4633
684.3389, 203.5883
684.8210, 203.0486
685.3032, 201.5783
685.7853, 197.7133
686.2674, 194.0812
686.7495, 191.7654
687.2316, 190.2724
687.7137, 188.4275
688.1959, 185.8327
688.6780, 183.4202
689.1601, 181.4358
689.6422, 179.7458
690.1243, 177.6901
690.6064, 175.1625
691.0886, 172.9685
691.5707, 171.8225
692.0528, 171.1743
692.5349, 169.3543
693.0170, 166.5114
693.4991, 163.8645
693.9813, 162.3531
694.4634, 161.3152
694.9455, 160.2506
695.4276, 159.1257
695.9097, 157.8797
696.3918, 156.3224
696.8740, 154.7747
697.3561, 153.4110
697.8382, 152.2463
698.3203, 151.2581
698.8024, 150.5208
699.2845, 149.8363
699.7667, 149.0567
700.2488, 148.1775
700.7309, 147.0912
701.2130, 145.7305
701.6951, 144.3853
702.1772, 143.3292
702.6594, 142.5630
703.1415, 142.1556
703.6236, 142.3523
704.1057, 142.4556
704.5878, 141.9125
705.0699, 141.0105
705.5521, 140.2126
706.0342, 139.7376
706.5163, 139.2457
706.9984, 138.5261
707.4805, 137.7776
707.9626, 137.5681
708.4448, 138.1072
708.9269, 138.4636
709.4090, 138.3124
709.8911, 137.7914
710.3732, 137.2487
710.8553, 136.6881
711.3374, 136.1798
711.8195, 135.7951
712.3016, 135.4637
712.7838, 135.1982
713.2659, 134.9607
713.7480, 134.4860
714.2301, 133.2151
714.7122, 132.0439
715.1943, 131.5424
715.6765, 131.8774
716.1586, 131.9023
716.6407, 131.5045
717.1228, 130.9460
717.6049, 130.3840
718.0870, 129.8284
718.5692, 129.0947
719.0513, 128.1676
719.5334, 127.1549
720.0155, 126.0559
720.4976, 124.9595
720.9797, 124.0508
721.4619, 123.3791
721.9440, 122.7985
722.4261, 122.3599
722.9082, 121.8982
723.3903, 121.2234
723.8724, 120.1103
724.3546, 119.1146
724.8367, 118.3427
725.3188, 117.7172
725.8009, 117.1902
726.2830, 116.8509
726.7651, 116.2826
727.2473, 115.3585
727.7294, 114.2947
728.2115, 113.3524
728.6936, 112.5563
729.1757, 112.1354
729.6578, 112.3624
730.1400, 112.6697
730.6221, 112.4176
731.1042, 111.8034
731.5863, 111.2426
732.0684, 111.0249
732.5505, 110.7515
733.0327, 110.2267
733.5148, 109.5232
733.9969, 108.9624
734.4790, 108.6864
734.9611, 108.2678
735.4432, 107.4605
735.9254, 106.4482
736.4075, 106.1686
736.8896, 106.6188
737.3717, 106.8554
737.8538, 105.9803
738.3359, 104.7447
738.8181, 104.4280
739.3002, 104.8904
739.7823, 105.2619
740.2644, 105.0105
740.7465, 104.5717
741.2286, 104.1618
741.7108, 103.7998
742.1929, 103.4999
742.6750, 103.2779
743.1571, 103.0962
743.6392, 102.9607
744.1213, 102.8778
744.6035, 102.6178
745.0856, 102.1346
745.5677, 101.7844
746.0498, 102.0702
746.5319, 102.6640
747.0140, 102.8292
747.4962, 102.4968
747.9783, 102.0202
748.4604, 101.5105
748.9425, 101.0442
749.4246, 100.7124
749.9067, 100.5917
750.3889, 100.4034
750.8710, 99.87829
751.3531, 99.47526
751.8352, 99.57858
752.3173, 100.3102
752.7994, 101.0634
753.2816, 101.9083
753.7637, 102.4915
754.2458, 102.1792
754.7279, 101.2766
755.2100, 100.7138
755.6921, 100.6911
756.1743, 100.9498
756.6564, 101.6170
757.1385, 102.3059
757.6206, 102.5143
758.1027, 101.4284
758.5848, 100.9144
759.0670, 101.6975
759.5491, 102.9571
760.0312, 103.7260
760.5133, 103.8426
760.9954, 104.0742
761.4775, 104.5844
761.9597, 105.1314
762.4418, 105.1803
762.9239, 104.8864
763.4060, 104.9279
763.8881, 105.6678
764.3702, 106.5166
764.8524, 106.7608
765.3345, 106.7582
765.8166, 107.1262
766.2987, 108.5341
766.7808, 109.7719
767.2629, 110.4775
767.7451, 110.8577
768.2272, 111.3302
768.7093, 111.9597
769.1914, 112.4027
769.6735, 112.4664
770.1556, 112.4348
770.6378, 113.0442
771.1199, 114.1703
771.6020, 115.1666
772.0841, 115.5665
772.5662, 115.9133
773.0483, 116.6988
773.5305, 117.8208
774.0126, 119.0170
774.4947, 120.5079
774.9768, 121.7185
775.4589, 122.4299
775.9410, 122.7368
776.4232, 122.8651
776.9053, 122.6758
777.3874, 122.8055
777.8695, 123.5374
778.3516, 124.6893
778.8337, 125.9776
779.3159, 127.3176
779.7980, 128.2120
780.2801, 127.7672
780.7622, 127.2449
781.2443, 127.7520
781.7264, 129.1360
782.2086, 130.7073
782.6907, 132.6002
783.1728, 134.2868
783.6549, 135.5829
784.1370, 136.5211
784.6191, 137.2757
785.1013, 137.7809
785.5834, 138.3742
786.0655, 139.3482
786.5476, 140.4714
787.0297, 140.8154
787.5118, 140.5391
787.9940, 140.6548
788.4761, 142.2944
788.9582, 144.1370
789.4403, 145.1151
789.9224, 145.2938
790.4045, 145.4340
790.8867, 145.5556
791.3688, 145.8485
791.8509, 146.4666
792.3330, 147.3582
792.8151, 147.7703
793.2972, 147.5834
793.7794, 147.6547
794.2615, 148.9053
794.7436, 150.6427
795.2257, 150.8692
795.7078, 149.8344
796.1899, 149.0408
796.6721, 149.8657
797.1542, 150.8269
797.6363, 150.7621
798.1184, 149.6803
798.6005, 149.1011
799.0826, 149.8416
799.5648, 150.2097
800.0469, 149.3502
800.5290, 147.4499
801.0111, 146.5683
801.4932, 146.7731
801.9753, 147.1162
802.4575, 147.0232
802.9396, 146.6746
803.4217, 146.4065
803.9038, 146.1887
804.3859, 145.7868
804.8680, 144.7674
805.3502, 143.8047
805.8323, 143.3130
806.3144, 143.3272
806.7965, 143.2291
807.2786, 142.9895
807.7607, 142.6892
808.2429, 142.3966
808.7250, 142.0780
809.2071, 141.3982
809.6892, 140.3784
810.1713, 139.5717
810.6534, 139.7855
811.1356, 140.1239
811.6177, 139.3115
812.0998, 137.5217
812.5819, 136.2039
813.0640, 136.3421
813.5461, 136.6675
814.0283, 136.5613
814.5104, 136.0757
814.9925, 135.9522
815.4746, 136.2378
815.9567, 136.7412
816.4388, 137.5671
816.9210, 138.4899
817.4031, 138.6436
817.8852, 138.1204
818.3673, 137.6111
818.8494, 137.5731
819.3315, 137.6760
819.8137, 137.6719
820.2958, 137.5700
820.7779, 137.5267
821.2600, 137.7997
821.7421, 137.8529
822.2242, 137.4114
822.7064, 136.6064
823.1885, 136.3123
823.6706, 136.5793
824.1527, 136.7156
824.6348, 136.1775
825.1169, 135.4214
825.5991, 135.4468
826.0812, 136.0065
826.5633, 136.1476
827.0454, 134.7712
827.5275, 133.4895
828.0096, 133.2282
828.4918, 133.8182
828.9739, 134.0457
829.4560, 133.8182
829.9381, 133.3821
830.4202, 132.7008
830.9023, 131.9359
831.3845, 131.7428
831.8666, 132.0140
832.3487, 131.9241
832.8308, 130.9733
833.3129, 129.5823
833.7950, 127.6911
834.2772, 125.6705
834.7593, 124.4810
835.2414, 125.7157
835.7235, 126.2099
836.2056, 124.8584
836.6877, 122.4383
837.1699, 121.0701
837.6520, 120.9170
838.1341, 120.6677
838.6162, 119.9137
839.0983, 118.9185
839.5804, 118.2317
840.0626, 117.6712
840.5447, 116.7559
841.0268, 114.7426
841.5089, 112.9615
841.9910, 112.2541
842.4731, 112.1467
842.9553, 111.7262
843.4374, 110.7637
843.9195, 109.8555
844.4016, 109.0347
844.8837, 108.3602
845.3658, 108.1250
845.8480, 108.2128
846.3301, 107.8465
846.8122, 106.7132
847.2943, 105.4121
847.7764, 104.3106
848.2585, 103.4743
848.7407, 103.0247
849.2228, 103.4782
849.7049, 103.5536
850.1870, 102.8168
850.6691, 101.8606
851.1512, 101.3985
851.6334, 101.5329
852.1155, 101.2558
852.5976, 100.3934
853.0797, 99.39620
853.5618, 98.87626
854.0439, 98.55210
854.5261, 97.79701
855.0082, 96.31774
855.4903, 95.20671
855.9724, 95.46017
856.4545, 96.00349
856.9366, 95.85384
857.4188, 94.69004
857.9009, 93.83858
858.3830, 93.37244
858.8651, 93.05954
859.3472, 92.77724
859.8293, 92.48863
860.3115, 92.04973
860.7936, 91.44859
861.2757, 90.69524
861.7578, 89.40005
862.2399, 88.23237
862.7220, 87.91724
863.2042, 88.68269
863.6863, 88.83390
864.1684, 87.89091
864.6505, 86.84772
865.1326, 86.21379
865.6147, 85.94313
866.0969, 85.59765
866.5790, 85.17344
867.0611, 84.52364
867.5432, 83.19295
868.0253, 81.81080
868.5074, 81.14524
868.9896, 81.11666
869.4717, 81.18272
869.9538, 81.24802
870.4359, 81.27474
870.9180, 81.27150
871.4001, 81.22440
871.8823, 81.08945
872.3644, 80.88342
872.8465, 80.43016
873.3286, 79.43870
873.8107, 78.39797
874.2928, 78.37347
874.7750, 79.04450
875.2571, 79.49906
875.7392, 78.93486
876.2213, 78.53091
876.7034, 79.27502
877.1855, 80.40321
877.6677, 80.16225
878.1498, 77.77522
878.6319, 76.27576
879.1140, 76.36318
879.5961, 77.21012
880.0782, 77.53384
880.5604, 77.47179
881.0425, 77.50108
881.5246, 77.82494
882.0067, 78.04771
882.4888, 77.75025
882.9709, 77.26950
883.4531, 76.99051
883.9352, 77.05151
884.4173, 77.18533
884.8994, 77.44889
885.3815, 77.69479
885.8636, 77.70499
886.3458, 77.53298
886.8279, 77.64055
887.3100, 78.08435
887.7921, 78.42024
888.2742, 78.00552
888.7563, 77.47674
889.2385, 77.55242
889.7206, 78.42019
890.2027, 78.99279
890.6848, 79.03333
891.1669, 78.86010
891.6490, 78.55514
892.1312, 78.13845
892.6133, 77.96430
893.0954, 78.03381
893.5775, 78.07666
894.0596, 77.94263
894.5417, 77.67139
895.0239, 77.29626
895.5060, 76.81790
895.9881, 76.24599
896.4702, 75.37661
896.9523, 74.65321
897.4344, 74.22346
897.9166, 74.01305
898.3987, 73.80410
898.8808, 73.59642
899.3629, 73.37478
899.8450, 73.19102
900.3271, 72.89018
900.8093, 72.04261
901.2914, 70.93922
901.7735, 70.16946
902.2556, 70.23953
902.7377, 70.27898
903.2198, 70.12735
903.7020, 69.78852
904.1841, 69.15456
904.6662, 68.08794
905.1483, 67.57948
905.6304, 67.85170
906.1125, 68.18302
906.5947, 67.64861
907.0768, 66.60987
907.5589, 65.69529
908.0410, 65.01020
908.5231, 64.45227
909.0052, 64.14552
909.4874, 63.81779
909.9695, 63.17210
910.4516, 62.09832
910.9337, 61.80162
911.4158, 62.46794
911.8979, 63.10074
912.3801, 62.84984
912.8622, 62.13241
913.3443, 61.90312
913.8264, 62.09647
914.3085, 62.26052
914.7906, 62.16690
915.2728, 61.98043
915.7549, 61.76351
916.2370, 61.51974
916.7191, 61.24929
917.2012, 60.95476
917.6833, 60.61784
918.1655, 60.17924
918.6476, 59.77608
919.1297, 59.71789
919.6118, 59.91211
920.0939, 60.11378
920.5760, 60.30407
921.0582, 60.36883
921.5403, 60.13572
922.0224, 59.79713
922.5045, 59.61806
922.9866, 59.66076
923.4688, 59.69921
923.9509, 59.73225
924.4330, 59.72321
924.9151, 59.47745
925.3972, 59.18258
925.8793, 59.44328
926.3615, 60.37623
926.8436, 61.06649
927.3257, 60.79156
927.8078, 60.24555
928.2899, 59.90493
928.7720, 59.79768
929.2542, 59.63873
929.7363, 59.34438
930.2184, 59.29588
930.7005, 59.89367
931.1826, 60.80394
931.6647, 61.09130
932.1469, 60.87600
932.6290, 60.67141
933.1111, 60.74892
933.5932, 60.88502
934.0753, 61.14048
934.5574, 61.35445
935.0396, 61.05727
935.5217, 59.98100
936.0038, 59.26955
936.4859, 59.18199
936.9680, 59.40584
937.4501, 59.46499
937.9323, 59.45094
938.4144, 59.61486
938.8965, 60.10670
939.3786, 60.49405
939.8607, 60.38201
940.3428, 60.18549
940.8250, 60.30904
941.3071, 60.89442
941.7892, 61.20716
942.2713, 61.22208
942.7534, 61.05676
943.2355, 60.61328
943.7177, 60.12038
944.1998, 60.20736
944.6819, 60.79726
945.1640, 61.10205
945.6461, 60.20271
946.1282, 59.44576
946.6104, 59.60117
947.0925, 60.43470
947.5746, 61.11893
948.0567, 61.65470
948.5388, 62.03000
949.0209, 62.22319
949.5031, 62.28540
949.9852, 62.18830
950.4673, 62.03815
950.9494, 62.08434
951.4315, 62.70564
951.9136, 63.03351
952.3958, 62.41566
952.8779, 61.65233
953.3600, 61.52511
953.8421, 62.13346
954.3242, 62.70022
954.8063, 63.19207
955.2885, 63.58575
955.7706, 63.74935
956.2527, 63.85717
956.7348, 64.15724
957.2169, 64.66704
957.6990, 65.21352
958.1811, 65.83419
958.6632, 66.36937
959.1453, 66.73034
959.6274, 66.96372
960.1096, 67.25732
960.5917, 67.61387
961.0738, 68.25827
961.5559, 69.40839
962.0380, 70.73016
962.5201, 72.12312
963.0023, 73.37093
963.4844, 74.10521
963.9665, 73.49455
964.4486, 73.41129
964.9307, 74.23911
965.4128, 75.34987
965.8950, 75.94035
966.3771, 76.07986
966.8592, 76.50710
967.3413, 77.29955
967.8234, 78.19705
968.3055, 79.11747
968.7877, 79.94136
969.2698, 80.41313
969.7519, 80.47148
970.2340, 81.09616
970.7161, 82.61175
971.1982, 84.12347
971.6804, 85.29558
972.1625, 86.19016
972.6446, 86.98668
973.1267, 87.70043
973.6088, 88.41130
974.0909, 89.00795
974.5731, 89.78760
975.0552, 91.15807
975.5373, 92.74108
976.0194, 93.89428
976.5015, 94.35995
976.9836, 95.04693
977.4658, 96.03124
977.9479, 97.18615
978.4300, 98.55489
978.9121, 99.91653
979.3942, 100.7166
979.8763, 100.8690
980.3585, 101.0736
980.8406, 101.7541
981.3227, 102.5036
981.8048, 103.0992
982.2869, 103.5565
982.7690, 104.1200
983.2512, 104.8049
983.7333, 105.4482
984.2154, 106.0636
984.6975, 106.4971
985.1796, 106.4526
985.6617, 106.0859
986.1439, 105.7127
986.6260, 105.3700
987.1081, 105.1385
987.5902, 105.1279
988.0723, 105.1275
988.5544, 105.0184
989.0366, 104.7825
989.5187, 103.7443
990.0008, 101.7913
990.4829, 99.95825
990.9650, 99.25950
991.4471, 98.93863
991.9293, 98.36079
992.4114, 97.46960
992.8935, 96.48686
993.3756, 95.43018
993.8577, 94.28738
994.3398, 93.06606
994.8220, 91.75874
995.3041, 90.27135
995.7862, 88.68416
996.2683, 87.24739
996.7504, 86.16481
997.2325, 85.10385
997.7147, 83.74266
998.1968, 82.39727
998.6789, 81.48767
999.1610, 81.28776
999.6431, 80.50757
1000.125, 79.03161
1000.607, 77.45483
1001.089, 76.21806
1001.572, 75.30229
1002.054, 74.84842
1002.536, 74.79754
1003.018, 74.52814
1003.500, 73.61082
1003.982, 72.65144
1004.464, 71.85899
1004.946, 71.16805
1005.429, 70.38805
1005.911, 69.51875
1006.393, 68.66813
1006.875, 67.75374
1007.357, 67.14960
1007.839, 67.51598
1008.321, 68.23781
1008.803, 68.55244
1009.285, 68.09470
1009.768, 67.74509
1010.250, 67.56763
1010.732, 67.37834
1011.214, 67.02678
1011.696, 66.55336
1012.178, 66.06381
1012.660, 65.58485
1013.142, 65.26244
1013.625, 65.29475
1014.107, 65.38941
1014.589, 65.45207
1015.071, 65.45998
1015.553, 65.35616
1016.035, 65.12455
1016.517, 64.86286
1016.999, 64.57059
1017.481, 64.32559
1017.964, 64.40771
1018.446, 64.52070
1018.928, 64.11517
1019.410, 62.94756
1019.892, 62.24170
1020.374, 62.56683
1020.856, 63.00311
1021.338, 63.24109
1021.820, 63.23148
1022.303, 62.45850
1022.785, 61.05762
1023.267, 60.02150
1023.749, 60.16999
1024.231, 60.48554
1024.713, 60.25513
1025.195, 59.74990
1025.677, 59.47713
1026.160, 59.65790
1026.642, 59.48566
1027.124, 58.84369
1027.606, 58.07978
1028.088, 57.58689
1028.570, 57.21966
1029.052, 56.58205
1029.534, 55.68188
1030.016, 55.11575
1030.499, 55.67487
1030.981, 55.98244
1031.463, 55.45333
1031.945, 54.34318
1032.427, 53.45113
1032.909, 52.78306
1033.391, 52.35406
1033.873, 52.24175
1034.356, 52.18972
1034.838, 52.04151
1035.320, 51.78074
1035.802, 51.37456
1036.284, 50.75055
1036.766, 50.17758
1037.248, 49.68277
1037.730, 49.16980
1038.213, 48.53800
1038.695, 47.85277
1039.177, 47.26689
1039.659, 46.78305
1040.141, 46.42914
1040.623, 46.47352
1041.105, 46.33515
1041.587, 45.64466
1042.069, 44.78484
1042.552, 44.35169
1043.034, 44.35225
1043.516, 44.40953
1043.998, 44.49952
1044.480, 44.42138
1044.962, 43.79159
1045.444, 43.04661
1045.926, 42.64124
1046.408, 42.63436
1046.891, 42.46978
1047.373, 41.99993
1047.855, 41.71220
1048.337, 41.87325
1048.819, 42.21886
1049.301, 42.24354
1049.783, 41.99709
1050.265, 41.57818
1050.748, 40.89697
1051.230, 40.29419
1051.712, 39.85570
1052.194, 39.57530
1052.676, 39.53241
1053.158, 39.75321
1053.640, 39.52194
1054.122, 38.84225
1054.604, 38.27218
1055.087, 38.27174
1055.569, 38.47097
1056.051, 38.66880
1056.533, 38.81586
1057.015, 38.77057
1057.497, 38.45210
1057.979, 38.14202
1058.461, 37.85929
1058.943, 37.65407
1059.426, 37.73626
1059.908, 37.89815
1060.390, 37.66365
1060.872, 36.94338
1061.354, 36.34054
1061.836, 36.13935
1062.318, 36.06355
1062.800, 36.02327
1063.283, 36.01521
1063.765, 36.07890
1064.247, 36.18956
1064.729, 36.10419
1065.211, 35.60541
1065.693, 35.16652
1066.175, 35.32183
1066.657, 35.63791
1067.140, 35.56203
1067.622, 34.93349
1068.104, 34.54140
1068.586, 34.43999
1069.068, 34.31506
1069.550, 33.75103
1070.032, 33.13963
1070.514, 33.23491
1070.996, 33.82321
1071.479, 34.19376
1071.961, 34.08187
1072.443, 33.74267
1072.925, 33.07067
1073.407, 32.39035
1073.889, 32.20037
1074.371, 32.38422
1074.853, 32.43315
1075.335, 32.28999
1075.818, 32.16806
1076.300, 32.18748
1076.782, 32.28135
1077.264, 32.50531
1077.746, 32.77724
1078.228, 32.68690
1078.710, 32.22074
1079.192, 31.73861
1079.675, 31.32061
1080.157, 31.00832
1080.639, 30.89070
1081.121, 30.87839
1081.603, 30.85665
1082.085, 30.78370
1082.567, 30.81985
1083.049, 31.04475
1083.531, 31.15539
1084.014, 30.86975
1084.496, 30.41597
1084.978, 30.41044
1085.460, 30.68850
1085.942, 30.78297
1086.424, 30.22842
1086.906, 29.86166
1087.388, 29.95954
1087.870, 30.17725
1088.353, 30.13792
1088.835, 29.87366
1089.317, 29.70144
1089.799, 29.63609
1090.281, 29.67269
1090.763, 30.05992
1091.245, 30.30137
1091.727, 29.95377
1092.209, 29.22638
1092.692, 28.71760
1093.174, 28.43014
1093.656, 28.36391
1094.138, 28.56933
1094.620, 28.75438
1095.102, 28.46047
1095.584, 28.05592
1096.066, 28.01537
1096.549, 28.43274
1097.031, 28.66729
1097.513, 28.69255
1097.995, 28.47852
1098.477, 27.86244
1098.959, 27.19845
1099.441, 27.35967
1099.923, 28.02603
1100.406, 28.48289
1100.888, 28.48542
1101.370, 28.35220
1101.852, 28.04896
1102.334, 27.77229
1102.816, 27.67482
1103.298, 27.72628
1103.780, 27.71462
1104.262, 27.62761
1104.745, 27.38412
1105.227, 26.49530
1105.709, 25.93528
1106.191, 26.51398
1106.673, 27.56935
1107.155, 28.16642
1107.637, 28.27202
1108.119, 28.12389
1108.601, 27.71588
1109.084, 27.31221
1109.566, 27.22891
1110.048, 27.16560
1110.530, 26.64606
1111.012, 25.84645
1111.494, 25.52977
1111.976, 25.23092
1112.458, 27.39717
1112.941, 33.51781
1113.423, 39.06188
1113.905, 36.73082
1114.387, 30.51010
1114.869, 26.77839
1115.351, 26.41433
1115.833, 26.48834
1116.315, 26.68996
1116.797, 26.70133
1117.280, 26.37316
1117.762, 25.83116
1118.244, 25.19197
1118.726, 24.60300
1119.208, 24.55787
1119.690, 25.43778
1120.172, 26.11521
1120.654, 25.84936
1121.136, 25.48499
1121.619, 25.56771
1122.101, 26.03239
1122.583, 26.22821
1123.065, 26.17228
1123.547, 26.00894
1124.029, 25.66891
1124.511, 25.43043
1124.993, 25.65214
1125.476, 25.97005
1125.958, 25.87257
1126.440, 25.22985
1126.922, 24.92678
1127.404, 24.98928
1127.886, 25.13529
1128.368, 25.22852
1128.850, 25.24875
1129.333, 25.08080
1129.815, 24.82916
1130.297, 24.80552
1130.779, 25.11682
1131.261, 25.41927
1131.743, 25.73190
1132.225, 25.82126
1132.707, 25.11827
1133.189, 24.21872
1133.672, 24.06052
1134.154, 24.61991
1134.636, 24.98190
1135.118, 24.87829
1135.600, 24.71263
1136.082, 24.54543
1136.564, 24.39493
1137.046, 24.25137
1137.528, 24.15413
1138.011, 24.21814
1138.493, 24.47644
1138.975, 24.71591
1139.457, 24.83539
1139.939, 24.95802
1140.421, 25.21243
1140.903, 25.44269
1141.385, 25.02531
1141.868, 24.15665
1142.350, 23.62109
1142.832, 23.74087
1143.314, 23.95978
1143.796, 24.10892
1144.278, 24.15552
1144.760, 24.08430
1145.242, 23.89638
1145.724, 23.54902
1146.207, 23.07044
1146.689, 22.70932
1147.171, 22.53094
1147.653, 22.58965
1148.135, 23.25761
1148.617, 23.97263
1149.099, 24.07198
1149.581, 23.44455
1150.063, 22.80525
1150.546, 22.14525
1151.028, 21.85617
1151.510, 22.63373
1151.992, 23.49514
1152.474, 23.57952
1152.956, 23.15477
1153.438, 22.77575
1153.920, 22.44584
1154.403, 22.28111
1154.885, 22.30532
1155.367, 22.37781
1155.849, 22.25498
1156.331, 22.19965
1156.813, 22.70840
1157.295, 23.59867
1157.777, 23.89134
1158.260, 22.96258
1158.742, 23.06467
1159.224, 24.81961
1159.706, 26.60481
1160.188, 26.33410
1160.670, 24.97045
1161.152, 23.74535
1161.634, 22.78769
1162.116, 22.17716
1162.599, 22.00936
1163.081, 22.02356
1163.563, 22.23160
1164.045, 22.45212
1164.527, 22.35207
1165.009, 22.06384
1165.491, 21.84406
1165.973, 21.73967
1166.455, 21.61635
1166.938, 21.36021
1167.420, 21.20560
1167.902, 21.26165
1168.384, 21.43091
1168.866, 21.46597
1169.348, 21.43114
1169.830, 21.53857
1170.312, 21.91975
1170.795, 22.11141
1171.277, 21.86187
1171.759, 21.47141
1172.241, 20.95176
1172.723, 20.44318
1173.205, 20.65613
1173.687, 21.36103
1174.169, 21.70065
1174.651, 21.18931
1175.134, 20.68196
1175.616, 20.38927
1176.098, 20.35300
1176.580, 20.74447
1177.062, 21.45664
1177.544, 21.59632
1178.026, 21.24302
1178.508, 20.82847
1178.990, 20.41883
1179.473, 20.19211
1179.955, 20.43930
1180.437, 20.73942
1180.919, 20.66195
1181.401, 20.21577
1181.883, 19.97585
1182.365, 19.94158
1182.847, 20.08794
1183.330, 20.66691
1183.812, 21.11998
1184.294, 21.01770
1184.776, 20.70146
1185.258, 20.64868
1185.740, 20.87334
1186.222, 20.63925
1186.704, 19.93095
1187.187, 19.29731
1187.669, 19.08478
1188.151, 19.08256
1188.633, 19.20306
1189.115, 19.43472
1189.597, 19.85433
1190.079, 20.48759
1190.561, 20.60264
1191.043, 20.11995
1191.526, 19.62687
1192.008, 19.62275
1192.490, 19.73785
1192.972, 19.66887
1193.454, 19.52941
1193.936, 19.67977
1194.418, 20.14944
1194.900, 20.47830
1195.382, 20.60523
1195.865, 20.51270
1196.347, 19.82134
1196.829, 19.22405
1197.311, 19.45874
1197.793, 20.26553
1198.275, 20.53835
1198.757, 20.24247
1199.239, 19.84189
1199.722, 19.38900
1200.204, 19.11101
1200.686, 19.32628
1201.168, 19.70862
1201.650, 20.10183
1202.132, 20.43550
1202.614, 20.24231
1203.096, 19.47035
1203.578, 18.96629
1204.061, 18.98636
1204.543, 19.19209
1205.025, 19.36325
1205.507, 19.49507
1205.989, 19.55548
1206.471, 19.55474
1206.953, 19.67336
1207.435, 19.93282
1207.917, 19.93100
1208.400, 19.43741
1208.882, 18.95839
1209.364, 18.98837
1209.846, 19.28435
1210.328, 19.75126
1210.810, 20.36607
1211.292, 20.15626
1211.774, 19.05304
1212.257, 18.38976
1212.739, 18.84702
1213.221, 19.50797
1213.703, 19.54253
1214.185, 19.29412
1214.667, 19.14900
1215.149, 19.13306
1215.631, 18.93059
1216.114, 18.53049
1216.596, 18.30414
1217.078, 18.47451
1217.560, 18.77814
1218.042, 19.21113
1218.524, 19.50618
1219.006, 19.25607
1219.488, 18.39543
1219.970, 18.04065
1220.453, 18.20402
1220.935, 18.40169
1221.417, 18.34784
1221.899, 18.29926
1222.381, 18.51026
1222.863, 18.81296
1223.345, 19.01386
1223.827, 19.10934
1224.309, 19.09523
1224.792, 18.97137
1225.274, 18.79602
1225.756, 18.53722
1226.238, 18.31782
1226.720, 18.24047
1227.202, 18.24700
1227.684, 18.25872
1228.166, 18.27394
1228.649, 18.31955
1229.131, 18.39379
1229.613, 18.44941
1230.095, 18.43926
1230.577, 18.42297
1231.059, 18.45034
1231.541, 18.48227
1232.023, 18.46564
1232.505, 18.39647
1232.988, 18.36323
1233.470, 18.36305
1233.952, 18.34892
1234.434, 18.32492
1234.916, 18.24190
1235.398, 17.98884
1235.880, 17.72164
1236.362, 17.60076
1236.844, 17.62566
1237.327, 17.80600
1237.809, 18.12335
1238.291, 18.39626
1238.773, 18.44427
1239.255, 18.51000
1239.737, 18.83843
1240.219, 19.12400
1240.701, 18.94838
1241.184, 18.38910
1241.666, 18.17395
1242.148, 18.27898
1242.630, 18.29013
1243.112, 17.68792
1243.594, 17.34871
1244.076, 17.70121
1244.558, 18.25339
1245.041, 18.48448
1245.523, 18.44192
1246.005, 18.35029
1246.487, 18.21398
1246.969, 17.98419
1247.451, 17.30265
1247.933, 17.02703
1248.415, 17.51107
1248.897, 18.16391
1249.380, 18.23970
1249.862, 17.94851
1250.344, 17.96295
1250.826, 18.25129
1251.308, 18.45289
1251.790, 18.34665
1252.272, 18.24497
1252.754, 18.19427
1253.236, 18.16368
1253.719, 18.10893
1254.201, 18.05402
1254.683, 18.07125
1255.165, 18.14135
1255.647, 18.15486
1256.129, 17.98517
1256.611, 17.93390
1257.093, 18.05290
1257.576, 18.23523
1258.058, 18.38413
1258.540, 18.51170
1259.022, 18.73119
1259.504, 18.96601
1259.986, 18.80628
1260.468, 17.95992
1260.950, 17.45853
1261.432, 17.45752
1261.915, 17.60161
1262.397, 17.50786
1262.879, 17.40568
1263.361, 17.60405
1263.843, 18.02354
1264.325, 18.32913
1264.807, 18.50481
1265.289, 18.58138
1265.771, 18.56272
1266.254, 18.44327
1266.736, 18.07626
1267.218, 17.73777
1267.700, 17.19273
1268.182, 17.00365
1268.664, 18.51730
1269.146, 21.80528
1269.628, 26.51584
1270.111, 32.72873
1270.593, 35.77611
1271.075, 29.02418
1271.557, 21.37742
1272.039, 18.55951
1272.521, 18.50467
1273.003, 18.23133
1273.485, 17.77633
1273.968, 17.63761
1274.450, 17.83940
1274.932, 18.01816
1275.414, 17.88321
1275.896, 17.77750
1276.378, 17.86138
1276.860, 18.00066
1277.342, 17.96340
1277.824, 17.82236
1278.307, 17.95461
1278.789, 18.33196
1279.271, 18.49657
1279.753, 17.97603
1280.235, 17.60570
1280.717, 17.58187
1281.199, 17.69554
1281.681, 17.77765
1282.163, 17.78253
1282.646, 17.48507
1283.128, 16.97615
1283.610, 16.78216
1284.092, 17.28285
1284.574, 17.64425
1285.056, 17.78501
1285.538, 17.76023
1286.020, 17.44851
1286.503, 17.12852
1286.985, 17.28452
1287.467, 17.76094
1287.949, 17.91046
1288.431, 17.52360
1288.913, 17.48914
1289.395, 17.92076
1289.877, 18.34553
1290.359, 18.36991
1290.842, 18.20138
1291.324, 17.88692
1291.806, 17.55064
1292.288, 17.45066
1292.770, 17.60393
1293.252, 17.79492
1293.734, 18.00771
1294.216, 18.19610
1294.698, 18.35908
1295.181, 18.45432
1295.663, 18.44721
1296.145, 18.36317
1296.627, 18.17768
1297.109, 17.91823
1297.591, 17.84259
1298.073, 17.93303
1298.555, 18.00451
1299.038, 17.93479
1299.520, 17.87180
1300.002, 17.82468
1300.484, 17.83940
1300.966, 18.02422
1301.448, 18.27214
1301.930, 18.27734
1302.412, 18.10066
1302.895, 17.98285
1303.377, 18.06538
1303.859, 18.08875
1304.341, 17.99566
1304.823, 17.97419
1305.305, 18.11221
##END=



