##NAMES=Cuprite
##RRUFFID=R140763
##IDEAL CHEMISTRY=Cu^1+^_2_O
##LOCALITY=Milpillas mine, Municipio de Santa Cruz, Sonora, Mexico
##OWNER=RRUFF
##SOURCE=Marcus Origlieri
##DESCRIPTION=Semimetallic deep red, massive
##STATUS=The identification of this mineral has been confirmed by X-ray diffraction.
##URL=rruff.info/R140763
89.78320, 156.5642
90.26532, 155.4487
90.74744, 155.4807
91.22955, 157.1877
91.71167, 159.4616
92.19379, 160.9151
92.67590, 161.7033
93.15802, 162.0994
93.64014, 162.0522
94.12225, 161.7695
94.60437, 161.8139
95.08649, 162.5655
95.56860, 163.5465
96.05072, 163.6115
96.53284, 162.8230
97.01495, 162.0824
97.49707, 162.1662
97.97919, 163.0372
98.46130, 164.4287
98.94342, 166.5355
99.42554, 169.2652
99.90765, 171.0718
100.3898, 171.7111
100.8719, 172.0130
101.3540, 173.2149
101.8361, 175.4922
102.3182, 177.9334
102.8004, 180.2127
103.2825, 182.2284
103.7646, 184.4277
104.2467, 186.6509
104.7288, 189.1037
105.2109, 192.3602
105.6931, 197.0051
106.1752, 201.6317
106.6573, 205.7420
107.1394, 209.6467
107.6215, 212.5688
108.1036, 213.9922
108.5858, 214.2748
109.0679, 215.2820
109.5500, 217.5970
110.0321, 220.2023
110.5142, 222.5411
110.9963, 224.7438
111.4785, 226.5706
111.9606, 227.7969
112.4427, 228.4586
112.9248, 229.3694
113.4069, 230.9821
113.8890, 232.7139
114.3712, 234.1153
114.8533, 234.7216
115.3354, 235.3208
115.8175, 236.3409
116.2996, 237.8857
116.7817, 238.9341
117.2639, 238.6955
117.7460, 237.8786
118.2281, 237.3809
118.7102, 237.8523
119.1923, 238.5107
119.6744, 238.8022
120.1566, 238.5525
120.6387, 238.4588
121.1208, 238.8945
121.6029, 239.7871
122.0850, 240.9983
122.5671, 242.8190
123.0493, 244.7555
123.5314, 246.2791
124.0135, 247.2260
124.4956, 247.9288
124.9777, 248.3583
125.4598, 248.6787
125.9420, 249.5305
126.4241, 251.5457
126.9062, 254.3462
127.3883, 257.2956
127.8704, 260.3779
128.3525, 263.3922
128.8347, 265.9410
129.3168, 268.0567
129.7989, 270.1346
130.2810, 272.5377
130.7631, 275.1874
131.2452, 277.8483
131.7274, 280.4148
132.2095, 282.9767
132.6916, 285.8207
133.1737, 289.0057
133.6558, 292.2380
134.1379, 295.3566
134.6201, 298.3635
135.1022, 301.2399
135.5843, 304.0350
136.0664, 306.7128
136.5485, 308.7527
137.0306, 309.9717
137.5128, 311.0117
137.9949, 312.7263
138.4770, 315.2303
138.9591, 317.8900
139.4412, 320.6505
139.9233, 323.5279
140.4055, 325.8849
140.8876, 327.6290
141.3697, 328.9390
141.8518, 330.0243
142.3339, 330.6512
142.8160, 331.5623
143.2982, 333.1919
143.7803, 335.9984
144.2624, 338.0138
144.7445, 339.1881
145.2266, 339.5758
145.7087, 339.2159
146.1909, 337.6213
146.6730, 335.9025
147.1551, 334.5157
147.6372, 333.9864
148.1193, 332.9272
148.6014, 331.0902
149.0836, 328.6975
149.5657, 326.4288
150.0478, 324.4960
150.5299, 322.5689
151.0120, 320.4875
151.4941, 317.9552
151.9763, 315.6373
152.4584, 313.6115
152.9405, 311.8307
153.4226, 310.0178
153.9047, 307.4783
154.3868, 305.3346
154.8690, 304.1974
155.3511, 305.3317
155.8332, 306.1982
156.3153, 306.3897
156.7974, 305.9482
157.2795, 305.2473
157.7617, 303.9333
158.2438, 302.6223
158.7259, 301.7599
159.2080, 302.1473
159.6901, 302.3345
160.1722, 301.8408
160.6544, 300.6855
161.1365, 299.3721
161.6186, 297.7443
162.1007, 296.1858
162.5828, 295.0113
163.0649, 295.1522
163.5471, 295.0206
164.0292, 293.4946
164.5113, 290.5345
164.9934, 288.0720
165.4755, 287.2534
165.9576, 287.4301
166.4398, 287.8053
166.9219, 287.9350
167.4040, 288.2557
167.8861, 289.0955
168.3682, 290.4871
168.8503, 292.0992
169.3325, 293.6721
169.8146, 295.3398
170.2967, 297.2914
170.7788, 299.7559
171.2609, 302.4913
171.7430, 305.2630
172.2252, 308.0685
172.7073, 310.9369
173.1894, 313.7544
173.6715, 316.6700
174.1536, 319.9034
174.6357, 323.8416
175.1179, 328.0990
175.6000, 332.2061
176.0821, 336.0581
176.5642, 339.9144
177.0463, 344.4011
177.5284, 349.1979
178.0106, 353.2509
178.4927, 355.5410
178.9748, 356.8466
179.4569, 358.2860
179.9390, 359.8969
180.4211, 361.9659
180.9033, 365.0389
181.3854, 368.9921
181.8675, 373.1265
182.3496, 376.9193
182.8317, 380.6031
183.3138, 385.0196
183.7960, 390.3270
184.2781, 396.0605
184.7602, 401.6061
185.2423, 406.9978
185.7244, 412.0857
186.2065, 416.7578
186.6887, 421.0721
187.1708, 425.3788
187.6529, 429.7658
188.1350, 434.0214
188.6171, 437.8177
189.0992, 441.1782
189.5814, 443.8477
190.0635, 445.5641
190.5456, 446.4146
191.0277, 446.7640
191.5098, 446.5169
191.9919, 446.0178
192.4741, 445.9090
192.9562, 446.1919
193.4383, 446.8150
193.9204, 447.4280
194.4025, 448.1053
194.8846, 450.1917
195.3668, 453.9718
195.8489, 459.1000
196.3310, 464.9215
196.8131, 471.4835
197.2952, 478.3395
197.7773, 485.5614
198.2595, 493.1470
198.7416, 499.9648
199.2237, 505.8931
199.7058, 510.8930
200.1879, 514.7139
200.6700, 517.3408
201.1522, 519.0284
201.6343, 519.6136
202.1164, 518.9385
202.5985, 518.6727
203.0806, 518.6715
203.5627, 519.3889
204.0449, 522.5311
204.5270, 528.4849
205.0091, 535.5806
205.4912, 542.7275
205.9733, 549.8546
206.4554, 557.4398
206.9376, 565.5711
207.4197, 574.1647
207.9018, 583.1633
208.3839, 592.4941
208.8660, 602.4683
209.3481, 613.4207
209.8303, 625.7458
210.3124, 637.5502
210.7945, 648.6010
211.2766, 658.9562
211.7587, 669.2452
212.2408, 679.5198
212.7230, 689.6819
213.2051, 699.7763
213.6872, 709.8168
214.1693, 719.8387
214.6514, 730.0505
215.1335, 740.2169
215.6157, 748.8064
216.0978, 755.7277
216.5799, 761.3274
217.0620, 766.2439
217.5441, 771.4060
218.0262, 773.1035
218.5084, 770.8171
218.9905, 764.7318
219.4726, 756.2928
219.9547, 745.8038
220.4368, 732.2795
220.9189, 714.9994
221.4011, 692.8624
221.8832, 669.4236
222.3653, 644.2581
222.8474, 618.0025
223.3295, 592.0970
223.8116, 566.7386
224.2938, 542.3224
224.7759, 518.9612
225.2580, 496.2659
225.7401, 476.0379
226.2222, 458.4739
226.7043, 443.4464
227.1865, 429.7044
227.6686, 417.6087
228.1507, 406.6542
228.6328, 396.7596
229.1149, 388.1599
229.5970, 380.1209
230.0792, 372.6947
230.5613, 365.8095
231.0434, 359.4893
231.5255, 354.0980
232.0076, 348.8638
232.4897, 343.3507
232.9719, 337.0659
233.4540, 331.6782
233.9361, 327.4806
234.4182, 324.1888
234.9003, 320.7265
235.3824, 316.9151
235.8646, 313.1872
236.3467, 309.7708
236.8288, 306.8082
237.3109, 303.8224
237.7930, 300.7497
238.2751, 297.6354
238.7573, 294.7325
239.2394, 292.1441
239.7215, 289.6002
240.2036, 286.9252
240.6857, 283.9286
241.1678, 281.2344
241.6500, 278.9501
242.1321, 276.9456
242.6142, 274.8689
243.0963, 272.7767
243.5784, 270.5385
244.0605, 268.0672
244.5427, 265.1190
245.0248, 262.5326
245.5069, 260.3605
245.9890, 258.5259
246.4711, 256.9628
246.9532, 255.9923
247.4354, 254.7424
247.9175, 252.7639
248.3996, 249.6066
248.8817, 247.1840
249.3638, 245.7366
249.8459, 244.8918
250.3281, 243.9979
250.8102, 243.1105
251.2923, 242.0746
251.7744, 240.7293
252.2565, 238.8975
252.7386, 237.6239
253.2208, 237.2690
253.7029, 237.2077
254.1850, 236.3296
254.6671, 234.0019
255.1492, 232.0891
255.6313, 231.2830
256.1135, 231.7782
256.5956, 232.0557
257.0777, 232.0661
257.5598, 231.8950
258.0419, 231.6077
258.5240, 231.0728
259.0062, 230.7316
259.4883, 230.8347
259.9704, 231.4427
260.4525, 231.4497
260.9346, 230.5301
261.4167, 229.4152
261.8989, 229.0275
262.3810, 229.7093
262.8631, 230.2150
263.3452, 230.1877
263.8273, 229.6334
264.3094, 229.3287
264.7916, 229.3515
265.2737, 229.5005
265.7558, 229.6167
266.2379, 229.7424
266.7200, 229.6733
267.2021, 229.2283
267.6843, 228.4935
268.1664, 228.3365
268.6485, 228.8889
269.1306, 229.7381
269.6127, 230.6258
270.0948, 231.6294
270.5770, 232.2695
271.0591, 232.3431
271.5412, 231.9891
272.0233, 231.9222
272.5054, 232.2375
272.9875, 232.5736
273.4697, 232.5544
273.9518, 232.0570
274.4339, 232.0516
274.9160, 232.7808
275.3981, 233.9969
275.8802, 235.0187
276.3624, 235.8395
276.8445, 236.4367
277.3266, 236.6646
277.8087, 236.4796
278.2908, 236.6438
278.7729, 237.3168
279.2551, 238.2600
279.7372, 238.9221
280.2193, 239.2800
280.7014, 239.5246
281.1835, 239.7009
281.6656, 239.8122
282.1478, 240.0869
282.6299, 240.5684
283.1120, 241.1475
283.5941, 241.6246
284.0762, 241.9944
284.5583, 242.4093
285.0405, 242.9689
285.5226, 243.6554
286.0047, 244.2925
286.4868, 244.8621
286.9689, 245.4374
287.4510, 246.1767
287.9332, 247.0658
288.4153, 247.8371
288.8974, 248.3744
289.3795, 248.7018
289.8616, 248.7940
290.3438, 248.6069
290.8259, 248.4850
291.3080, 248.8557
291.7901, 249.6538
292.2722, 250.5269
292.7543, 251.4420
293.2365, 252.3122
293.7186, 252.7886
294.2007, 252.8585
294.6828, 253.0534
295.1649, 254.0800
295.6470, 255.6569
296.1292, 256.8764
296.6113, 257.4074
297.0934, 257.5536
297.5755, 257.7356
298.0576, 257.9558
298.5397, 258.2201
299.0219, 258.6780
299.5040, 259.1792
299.9861, 259.3172
300.4682, 258.8461
300.9503, 258.3416
301.4324, 258.5328
301.9146, 259.3142
302.3967, 260.2461
302.8788, 261.2310
303.3609, 262.1425
303.8430, 262.7428
304.3251, 262.9513
304.8073, 263.0325
305.2894, 263.3543
305.7715, 263.7497
306.2536, 263.8227
306.7357, 262.9979
307.2178, 261.9317
307.7000, 261.2083
308.1821, 260.8539
308.6642, 260.9956
309.1463, 262.2492
309.6284, 263.9708
310.1105, 265.1749
310.5927, 264.8365
311.0748, 264.2510
311.5569, 264.4096
312.0390, 265.3322
312.5211, 266.2401
313.0032, 266.7240
313.4854, 266.9654
313.9675, 267.1505
314.4496, 267.4833
314.9317, 267.6545
315.4138, 267.2461
315.8959, 266.4132
316.3781, 266.0713
316.8602, 267.4423
317.3423, 268.9890
317.8244, 269.5296
318.3065, 268.0045
318.7886, 266.5920
319.2708, 266.0533
319.7529, 266.1819
320.2350, 266.3987
320.7171, 266.5520
321.1992, 266.7308
321.6813, 266.9994
322.1635, 267.4538
322.6456, 267.7862
323.1277, 267.9432
323.6098, 267.9370
324.0919, 267.7893
324.5740, 267.2830
325.0562, 266.8354
325.5383, 266.5701
326.0204, 266.5101
326.5025, 266.5650
326.9846, 266.9311
327.4667, 267.3310
327.9489, 267.4756
328.4310, 267.3561
328.9131, 266.9914
329.3952, 266.1415
329.8773, 264.7792
330.3594, 264.2042
330.8416, 265.1656
331.3237, 266.2872
331.8058, 266.5265
332.2879, 264.9571
332.7700, 264.1114
333.2521, 264.5289
333.7343, 265.8777
334.2164, 266.4863
334.6985, 265.8725
335.1806, 265.2535
335.6627, 265.3538
336.1448, 266.5276
336.6270, 267.2934
337.1091, 267.4593
337.5912, 267.3069
338.0733, 267.4851
338.5554, 268.1610
339.0375, 268.6165
339.5197, 268.3596
340.0018, 267.3141
340.4839, 267.1435
340.9660, 268.0663
341.4481, 269.3927
341.9302, 270.2649
342.4124, 270.6703
342.8945, 270.8497
343.3766, 270.7394
343.8587, 270.4649
344.3408, 270.7008
344.8229, 271.5130
345.3051, 272.3755
345.7872, 272.7103
346.2693, 272.6118
346.7514, 272.7770
347.2335, 273.4956
347.7156, 274.3607
348.1978, 274.2941
348.6799, 273.3948
349.1620, 272.8788
349.6441, 274.0558
350.1262, 276.1949
350.6083, 277.4712
351.0905, 277.5437
351.5726, 277.2373
352.0547, 277.4684
352.5368, 278.1084
353.0189, 278.7675
353.5010, 279.1079
353.9832, 279.4242
354.4653, 280.1947
354.9474, 281.4651
355.4295, 282.6187
355.9116, 283.0367
356.3937, 283.0561
356.8759, 283.1769
357.3580, 283.5495
357.8401, 284.1124
358.3222, 284.9209
358.8043, 285.9363
359.2864, 286.8817
359.7686, 287.7028
360.2507, 288.3466
360.7328, 288.7027
361.2149, 288.4075
361.6970, 288.4010
362.1791, 289.3068
362.6613, 290.7806
363.1434, 292.0331
363.6255, 292.6494
364.1076, 293.1140
364.5897, 293.6249
365.0718, 294.1731
365.5540, 294.8354
366.0361, 295.7587
366.5182, 296.7580
367.0003, 297.6123
367.4824, 298.2104
367.9645, 298.7563
368.4467, 299.1661
368.9288, 299.4149
369.4109, 300.1430
369.8930, 301.8279
370.3751, 303.6346
370.8572, 304.9937
371.3394, 305.5430
371.8215, 306.2520
372.3036, 307.3211
372.7857, 308.5949
373.2678, 309.4715
373.7499, 309.6417
374.2321, 309.9690
374.7142, 310.9547
375.1963, 312.8657
375.6784, 314.2381
376.1605, 314.8185
376.6426, 315.1666
377.1248, 316.2598
377.6069, 318.2846
378.0890, 319.9664
378.5711, 320.6665
379.0532, 320.5948
379.5353, 321.3283
380.0175, 322.9924
380.4996, 324.8739
380.9817, 326.2025
381.4638, 327.0644
381.9459, 328.3113
382.4280, 330.3030
382.9102, 332.4973
383.3923, 333.5952
383.8744, 333.7148
384.3565, 333.9925
384.8386, 335.4021
385.3207, 337.4483
385.8029, 339.0058
386.2850, 339.8996
386.7671, 340.7257
387.2492, 342.1999
387.7313, 344.0887
388.2134, 345.8330
388.6956, 346.8125
389.1777, 347.7535
389.6598, 349.6088
390.1419, 352.3085
390.6240, 354.5869
391.1061, 355.2333
391.5883, 355.2706
392.0704, 355.7961
392.5525, 357.4687
393.0346, 359.1922
393.5167, 360.3806
393.9988, 361.2350
394.4810, 362.3311
394.9631, 364.0493
395.4452, 365.9193
395.9273, 367.7303
396.4094, 369.4710
396.8915, 371.1076
397.3737, 372.4188
397.8558, 373.6881
398.3379, 375.2653
398.8200, 377.5762
399.3021, 379.7702
399.7842, 381.6632
400.2664, 383.2517
400.7485, 384.8297
401.2306, 386.5538
401.7127, 388.0862
402.1948, 389.1325
402.6769, 389.2335
403.1591, 389.8635
403.6412, 391.2988
404.1233, 393.2187
404.6054, 394.8211
405.0875, 395.9310
405.5696, 397.2073
406.0518, 399.1306
406.5339, 401.7462
407.0160, 403.4549
407.4981, 404.1356
407.9802, 404.2317
408.4623, 404.1068
408.9445, 403.7709
409.4266, 403.5190
409.9087, 403.3347
410.3908, 403.3668
410.8729, 404.1458
411.3550, 405.6559
411.8372, 407.1494
412.3193, 408.2471
412.8014, 408.9307
413.2835, 409.0961
413.7656, 408.6555
414.2477, 407.9924
414.7299, 407.3691
415.2120, 406.8282
415.6941, 406.4957
416.1762, 406.4312
416.6583, 406.5815
417.1404, 407.1423
417.6226, 408.0728
418.1047, 408.4938
418.5868, 407.4605
419.0689, 405.8740
419.5510, 404.5704
420.0331, 403.8196
420.5153, 403.3329
420.9974, 403.2248
421.4795, 403.3272
421.9616, 403.2148
422.4437, 402.7795
422.9258, 402.1182
423.4080, 401.2069
423.8901, 399.9205
424.3722, 398.8458
424.8543, 398.1840
425.3364, 397.6926
425.8185, 397.1207
426.3007, 396.1286
426.7828, 395.5831
427.2649, 395.9571
427.7470, 396.9955
428.2291, 396.8609
428.7112, 394.8186
429.1934, 392.8764
429.6755, 392.3490
430.1576, 393.7020
430.6397, 393.9357
431.1218, 392.5873
431.6039, 390.7132
432.0861, 390.0450
432.5682, 390.6612
433.0503, 391.3990
433.5324, 392.0805
434.0145, 392.5404
434.4966, 391.9251
434.9788, 390.2017
435.4609, 388.5304
435.9430, 388.0492
436.4251, 388.3886
436.9072, 388.4938
437.3893, 388.1177
437.8715, 387.6095
438.3536, 387.1303
438.8357, 386.8075
439.3178, 386.9951
439.7999, 388.7472
440.2820, 390.5417
440.7642, 390.6416
441.2463, 388.9459
441.7284, 387.5175
442.2105, 387.7168
442.6926, 388.6061
443.1747, 389.2845
443.6569, 389.3189
444.1390, 389.3323
444.6211, 389.4717
445.1032, 389.7294
445.5853, 390.0811
446.0674, 390.6097
446.5496, 391.1647
447.0317, 391.6939
447.5138, 392.1926
447.9959, 392.7291
448.4780, 393.6153
448.9601, 394.3456
449.4423, 394.3651
449.9244, 393.2253
450.4065, 392.3035
450.8886, 391.6869
451.3707, 391.4552
451.8528, 392.1266
452.3350, 394.0653
452.8171, 395.8000
453.2992, 396.2826
453.7813, 395.4836
454.2634, 395.6049
454.7455, 396.8754
455.2277, 398.4504
455.7098, 399.0633
456.1919, 398.8857
456.6740, 399.2011
457.1561, 400.6701
457.6382, 402.6579
458.1204, 404.0137
458.6025, 404.8207
459.0846, 405.5783
459.5667, 406.8695
460.0488, 408.2341
460.5309, 408.8992
461.0131, 408.5553
461.4952, 408.4754
461.9773, 410.1370
462.4594, 412.4960
462.9415, 414.0439
463.4236, 413.3698
463.9058, 412.5309
464.3879, 412.3810
464.8700, 412.8893
465.3521, 413.5257
465.8342, 413.8503
466.3163, 414.4963
466.7985, 415.9146
467.2806, 419.0580
467.7627, 421.2459
468.2448, 421.7544
468.7269, 421.5575
469.2090, 422.0793
469.6912, 423.8644
470.1733, 425.3798
470.6554, 426.2146
471.1375, 426.4425
471.6196, 426.7099
472.1017, 426.9233
472.5839, 427.4360
473.0660, 428.8679
473.5481, 431.2299
474.0302, 432.2255
474.5123, 431.3432
474.9944, 429.9801
475.4766, 430.3739
475.9587, 432.2733
476.4408, 434.0672
476.9229, 435.1945
477.4050, 435.7747
477.8871, 435.6684
478.3693, 434.9823
478.8514, 434.6541
479.3335, 435.6344
479.8156, 437.2279
480.2977, 438.6203
480.7798, 439.6472
481.2620, 440.5131
481.7441, 441.4136
482.2262, 442.1999
482.7083, 442.6542
483.1904, 442.4027
483.6725, 442.0836
484.1547, 441.7977
484.6368, 441.5732
485.1189, 441.7142
485.6010, 442.2879
486.0831, 443.2258
486.5652, 444.5571
487.0474, 446.8202
487.5295, 448.3213
488.0116, 448.8443
488.4937, 448.7479
488.9758, 448.4757
489.4579, 447.9494
489.9401, 447.4540
490.4222, 446.9176
490.9043, 446.4801
491.3864, 447.0335
491.8685, 448.7552
492.3506, 450.2562
492.8328, 450.1415
493.3149, 448.8853
493.7970, 448.8726
494.2791, 450.4760
494.7612, 452.3510
495.2433, 453.0012
495.7255, 452.7303
496.2076, 452.2912
496.6897, 451.6010
497.1718, 451.2156
497.6539, 451.9391
498.1360, 453.5133
498.6182, 454.9543
499.1003, 455.8175
499.5824, 456.3068
500.0645, 456.3926
500.5466, 455.9034
501.0287, 455.8230
501.5109, 456.7599
501.9930, 458.0926
502.4751, 459.1901
502.9572, 459.9867
503.4393, 460.5148
503.9214, 460.7394
504.4036, 460.6920
504.8857, 460.4061
505.3678, 459.4599
505.8499, 459.0190
506.3320, 459.8001
506.8141, 461.9440
507.2963, 463.1135
507.7784, 463.0697
508.2605, 462.7254
508.7426, 463.0278
509.2247, 463.9370
509.7068, 464.8647
510.1890, 465.7201
510.6711, 466.5053
511.1532, 467.2296
511.6353, 467.8809
512.1174, 468.3947
512.5995, 468.6247
513.0817, 468.7621
513.5638, 469.1415
514.0459, 469.7455
514.5280, 470.1072
515.0101, 469.3080
515.4922, 468.4529
515.9744, 468.6954
516.4565, 470.9761
516.9386, 472.9838
517.4207, 473.7846
517.9028, 473.8766
518.3849, 474.0741
518.8671, 474.7361
519.3492, 475.2648
519.8313, 475.4281
520.3134, 475.2639
520.7955, 475.4080
521.2776, 476.0334
521.7598, 476.7038
522.2419, 477.1437
522.7240, 477.2876
523.2061, 477.5507
523.6882, 477.9630
524.1703, 478.4411
524.6525, 478.7330
525.1346, 478.8798
525.6167, 479.6324
526.0988, 481.5824
526.5809, 483.7949
527.0630, 484.3267
527.5452, 483.4263
528.0273, 482.5244
528.5094, 482.1667
528.9915, 482.4294
529.4736, 483.7880
529.9557, 486.3332
530.4379, 488.3083
530.9200, 488.0961
531.4021, 487.0778
531.8842, 486.6250
532.3663, 487.4586
532.8484, 488.3101
533.3306, 488.8070
533.8127, 489.1067
534.2948, 489.5373
534.7769, 490.5430
535.2590, 491.1931
535.7411, 491.0774
536.2233, 490.2380
536.7054, 490.0137
537.1875, 490.4471
537.6696, 491.4366
538.1517, 493.2583
538.6339, 496.0394
539.1160, 497.6253
539.5981, 497.6171
540.0802, 497.1957
540.5623, 498.0534
541.0444, 499.9687
541.5266, 501.7111
542.0087, 502.9160
542.4908, 503.7271
542.9729, 504.1303
543.4550, 504.2329
543.9371, 504.4862
544.4193, 505.3150
544.9014, 506.2870
545.3835, 507.0042
545.8656, 507.4150
546.3477, 507.9052
546.8298, 508.3742
547.3120, 509.1411
547.7941, 510.4856
548.2762, 513.5675
548.7583, 515.6891
549.2404, 516.0219
549.7225, 515.4669
550.2047, 515.6187
550.6868, 517.1199
551.1689, 518.0248
551.6510, 517.4684
552.1331, 515.8393
552.6152, 515.7850
553.0974, 517.4887
553.5795, 519.8879
554.0616, 522.7806
554.5437, 525.9379
555.0258, 527.8951
555.5079, 528.5100
555.9901, 528.4730
556.4722, 528.2819
556.9543, 528.0096
557.4364, 527.7616
557.9185, 527.3878
558.4006, 527.3405
558.8828, 528.2719
559.3649, 529.7936
559.8470, 531.0322
560.3291, 531.1630
560.8112, 531.3386
561.2933, 532.1315
561.7755, 533.5621
562.2576, 534.9327
562.7397, 536.2279
563.2218, 537.3409
563.7039, 538.2180
564.1860, 538.8210
564.6682, 539.2646
565.1503, 539.4470
565.6324, 539.6183
566.1145, 540.0989
566.5966, 540.9203
567.0787, 541.9376
567.5609, 543.2499
568.0430, 544.6032
568.5251, 545.1808
569.0072, 545.1176
569.4893, 545.4088
569.9714, 546.8235
570.4536, 548.8212
570.9357, 550.7803
571.4178, 552.6573
571.8999, 554.2414
572.3820, 555.1942
572.8641, 555.8799
573.3463, 556.5507
573.8284, 557.1516
574.3105, 558.0209
574.7926, 559.4372
575.2747, 561.1063
575.7568, 562.6528
576.2390, 564.0084
576.7211, 565.3133
577.2032, 566.6349
577.6853, 567.9172
578.1674, 568.7766
578.6495, 568.8730
579.1317, 569.5869
579.6138, 571.9003
580.0959, 575.4991
580.5780, 577.5506
581.0601, 577.9622
581.5422, 578.0715
582.0244, 579.1593
582.5065, 580.8089
582.9886, 581.8251
583.4707, 581.9349
583.9528, 582.1389
584.4349, 583.5283
584.9171, 585.5445
585.3992, 587.3539
585.8813, 588.3091
586.3634, 589.3860
586.8455, 591.3589
587.3276, 593.7871
587.8098, 595.3937
588.2919, 594.6115
588.7740, 594.3334
589.2561, 595.8558
589.7382, 599.2333
590.2203, 600.7637
590.7025, 599.4908
591.1846, 598.0582
591.6667, 598.1906
592.1488, 599.9845
592.6309, 602.1443
593.1130, 604.7177
593.5952, 607.3695
594.0773, 609.8953
594.5594, 612.2093
595.0415, 613.8817
595.5236, 614.7064
596.0057, 615.0939
596.4879, 614.9234
596.9700, 614.6526
597.4521, 615.3618
597.9342, 618.7734
598.4163, 622.2284
598.8984, 624.0734
599.3806, 624.4564
599.8627, 625.0318
600.3448, 625.9170
600.8269, 627.3026
601.3090, 629.3846
601.7911, 632.4316
602.2733, 635.0991
602.7554, 637.2103
603.2375, 639.1835
603.7196, 641.4658
604.2017, 644.1485
604.6838, 646.2545
605.1660, 647.4382
605.6481, 648.5875
606.1302, 651.5484
606.6123, 655.8808
607.0944, 659.4686
607.5765, 660.9369
608.0587, 661.8982
608.5408, 664.4280
609.0229, 668.1170
609.5050, 671.5998
609.9871, 673.7032
610.4692, 675.7139
610.9514, 678.5624
611.4335, 682.3912
611.9156, 685.7646
612.3977, 687.9557
612.8798, 689.9346
613.3619, 692.2457
613.8441, 695.1158
614.3262, 697.7942
614.8083, 700.0499
615.2904, 702.4558
615.7725, 705.8269
616.2546, 710.2294
616.7368, 714.6328
617.2189, 719.0861
617.7010, 723.1292
618.1831, 725.7048
618.6652, 727.0644
619.1473, 728.2054
619.6295, 728.5140
620.1116, 729.5726
620.5937, 734.2194
621.0758, 741.5385
621.5579, 747.0894
622.0400, 747.3513
622.5222, 746.1325
623.0043, 745.4600
623.4864, 745.6087
623.9685, 745.8098
624.4506, 745.6638
624.9327, 745.8078
625.4149, 746.7733
625.8970, 748.9908
626.3791, 750.6611
626.8612, 751.5916
627.3433, 752.1844
627.8254, 753.0279
628.3076, 754.1030
628.7897, 755.0231
629.2718, 755.7264
629.7539, 756.1761
630.2360, 756.1424
630.7181, 755.7745
631.2003, 755.5424
631.6824, 756.1195
632.1645, 756.5845
632.6466, 755.8163
633.1287, 754.0791
633.6108, 753.1599
634.0930, 754.7921
634.5751, 756.4493
635.0572, 756.6744
635.5393, 755.0141
636.0214, 754.0449
636.5035, 754.2497
636.9857, 754.5471
637.4678, 753.9350
637.9499, 752.1736
638.4320, 751.2542
638.9141, 751.3789
639.3962, 752.1439
639.8784, 753.3090
640.3605, 754.7241
640.8426, 755.7603
641.3247, 756.1418
641.8068, 756.2531
642.2889, 756.5911
642.7711, 756.9865
643.2532, 757.0579
643.7353, 756.4798
644.2174, 755.6950
644.6995, 754.5871
645.1816, 753.3156
645.6638, 752.8336
646.1459, 753.7354
646.6280, 755.0239
647.1101, 756.7601
647.5922, 759.0510
648.0743, 759.3294
648.5565, 757.0186
649.0386, 754.1453
649.5207, 752.0748
650.0028, 750.7867
650.4849, 750.4182
650.9670, 751.0917
651.4492, 751.8944
651.9313, 751.7811
652.4134, 751.1102
652.8955, 750.5440
653.3776, 750.2139
653.8597, 750.0902
654.3419, 750.5677
654.8240, 751.1492
655.3061, 751.0613
655.7882, 749.0825
656.2703, 747.6054
656.7524, 747.6403
657.2346, 748.5792
657.7167, 748.4178
658.1988, 746.2740
658.6809, 745.1115
659.1630, 746.3249
659.6451, 749.3838
660.1273, 751.1295
660.6094, 751.5250
661.0915, 751.5156
661.5736, 751.4310
662.0557, 751.4646
662.5378, 752.2278
663.0200, 753.7355
663.5021, 754.9606
663.9842, 754.4882
664.4663, 753.7753
664.9484, 754.3558
665.4305, 757.0869
665.9127, 759.3598
666.3948, 760.3692
666.8769, 760.7170
667.3590, 760.9708
667.8411, 760.7139
668.3232, 761.4097
668.8054, 763.7715
669.2875, 766.4641
669.7696, 766.7047
670.2517, 764.4316
670.7338, 762.8401
671.2159, 762.9547
671.6981, 764.1480
672.1802, 765.6588
672.6623, 767.3760
673.1444, 768.9650
673.6265, 770.3029
674.1086, 771.3835
674.5908, 772.1211
675.0729, 772.5567
675.5550, 772.9730
676.0371, 773.5883
676.5192, 774.0954
677.0013, 774.2522
677.4835, 773.9876
677.9656, 774.2332
678.4477, 775.0972
678.9298, 776.2834
679.4119, 777.7864
679.8940, 779.6256
680.3762, 780.5603
680.8583, 780.4385
681.3404, 780.1674
681.8225, 780.7363
682.3046, 781.8379
682.7867, 782.8079
683.2689, 783.4072
683.7510, 784.1863
684.2331, 785.6339
684.7152, 787.4551
685.1973, 789.2421
685.6794, 790.4722
686.1616, 792.1974
686.6437, 795.3085
687.1258, 798.8663
687.6079, 801.0628
688.0900, 801.3981
688.5721, 801.6351
689.0543, 802.2769
689.5364, 803.0240
690.0185, 802.6722
690.5006, 801.2731
690.9827, 800.4396
691.4648, 801.3934
691.9470, 803.1927
692.4291, 804.3953
692.9112, 805.1022
693.3933, 805.8784
693.8754, 807.3463
694.3575, 808.7611
694.8397, 809.4002
695.3218, 809.1140
695.8039, 809.6506
696.2860, 812.0718
696.7681, 814.6041
697.2502, 816.3732
697.7324, 817.2147
698.2145, 818.0766
698.6966, 818.9484
699.1787, 819.8864
699.6608, 821.1547
700.1429, 822.5866
700.6251, 823.1573
701.1072, 822.5275
701.5893, 822.1797
702.0714, 824.1522
702.5535, 827.1696
703.0356, 829.3212
703.5178, 829.4939
703.9999, 829.6642
704.4820, 830.2983
704.9641, 831.4608
705.4462, 833.3577
705.9283, 837.3015
706.4105, 839.7855
706.8926, 839.7717
707.3747, 838.4089
707.8568, 838.5216
708.3389, 840.2228
708.8210, 841.9045
709.3032, 842.9064
709.7853, 843.6807
710.2674, 845.3788
710.7495, 847.7454
711.2316, 849.6346
711.7137, 849.6754
712.1959, 849.6193
712.6780, 850.9954
713.1601, 853.6074
713.6422, 855.7605
714.1243, 856.6009
714.6064, 857.2663
715.0886, 858.2260
715.5707, 859.4996
716.0528, 860.6783
716.5349, 861.8045
717.0170, 862.7601
717.4991, 863.1788
717.9813, 863.2313
718.4634, 864.6291
718.9455, 867.4740
719.4276, 870.1713
719.9097, 870.7686
720.3918, 870.6412
720.8740, 871.6729
721.3561, 874.2781
721.8382, 877.2065
722.3203, 880.8393
722.8024, 883.9780
723.2845, 885.5233
723.7667, 883.8985
724.2488, 883.3369
724.7309, 884.3201
725.2130, 885.8388
725.6951, 886.5518
726.1772, 886.3520
726.6594, 887.0727
727.1415, 889.2057
727.6236, 891.6891
728.1057, 892.7984
728.5878, 893.0960
729.0699, 894.1180
729.5521, 896.8951
730.0342, 899.7060
730.5163, 901.5315
730.9984, 902.5690
731.4805, 903.1670
731.9626, 902.9014
732.4448, 902.8050
732.9269, 902.8665
733.4090, 903.2563
733.8911, 904.5388
734.3732, 906.8941
734.8553, 909.4230
735.3375, 912.1141
735.8196, 914.5766
736.3017, 915.4448
736.7838, 914.9681
737.2659, 914.6703
737.7480, 915.5274
738.2302, 916.8336
738.7123, 917.8978
739.1944, 918.8023
739.6765, 920.0096
740.1586, 922.1766
740.6407, 924.2244
741.1229, 925.8519
741.6050, 927.0587
742.0871, 926.8426
742.5692, 924.0479
743.0513, 922.5690
743.5334, 925.3148
744.0156, 931.5903
744.4977, 935.2618
744.9798, 936.3538
745.4619, 936.6706
745.9440, 936.6999
746.4261, 937.2153
746.9083, 939.9427
747.3904, 945.0723
747.8725, 948.7126
748.3546, 947.5467
748.8367, 945.3017
749.3188, 944.3379
749.8010, 944.9125
750.2831, 946.6032
750.7652, 950.1712
751.2473, 953.6652
751.7294, 955.3077
752.2115, 955.1169
752.6937, 955.5942
753.1758, 956.9357
753.6579, 958.6608
754.1400, 960.7131
754.6221, 962.6921
755.1042, 963.8510
755.5864, 963.8643
756.0685, 963.8201
756.5506, 964.5195
757.0327, 965.3495
757.5148, 965.6504
757.9969, 963.7168
758.4791, 963.9691
758.9612, 967.5322
759.4433, 972.0253
759.9254, 974.2697
760.4075, 974.1514
760.8896, 974.6675
761.3718, 976.3356
761.8539, 978.5351
762.3360, 980.5226
762.8181, 982.4158
763.3002, 984.4851
763.7823, 986.9855
764.2645, 989.4036
764.7466, 991.4606
765.2287, 993.2533
765.7108, 994.9893
766.1929, 997.0629
766.6750, 998.5347
767.1572, 999.1298
767.6393, 999.2432
768.1214, 999.4487
768.6035, 999.7156
769.0856, 1000.744
769.5677, 1002.997
770.0499, 1005.548
770.5320, 1006.653
771.0141, 1006.875
771.4962, 1007.669
771.9783, 1010.114
772.4604, 1012.801
772.9426, 1015.315
773.4247, 1017.496
773.9068, 1018.889
774.3889, 1018.088
774.8710, 1018.549
775.3531, 1021.519
775.8353, 1025.841
776.3174, 1027.965
776.7995, 1027.781
777.2816, 1027.658
777.7637, 1028.494
778.2458, 1029.873
778.7280, 1031.236
779.2101, 1032.579
779.6922, 1033.847
780.1743, 1034.714
780.6564, 1035.814
781.1385, 1037.678
781.6207, 1040.116
782.1028, 1042.223
782.5849, 1043.561
783.0670, 1045.171
783.5491, 1047.360
784.0313, 1050.002
784.5134, 1052.861
784.9955, 1055.962
785.4776, 1058.390
785.9597, 1059.586
786.4418, 1059.968
786.9240, 1059.517
787.4061, 1058.662
787.8882, 1059.014
788.3703, 1062.600
788.8524, 1066.419
789.3345, 1069.265
789.8167, 1071.079
790.2988, 1071.750
790.7809, 1070.069
791.2630, 1069.597
791.7451, 1072.043
792.2272, 1076.563
792.7094, 1079.610
793.1915, 1081.203
793.6736, 1082.319
794.1557, 1083.343
794.6378, 1084.288
795.1199, 1084.989
795.6021, 1085.550
796.0842, 1086.487
796.5663, 1088.147
797.0484, 1090.094
797.5305, 1092.254
798.0126, 1094.564
798.4948, 1096.644
798.9769, 1098.371
799.4590, 1100.177
799.9411, 1102.391
800.4232, 1104.791
800.9053, 1106.312
801.3875, 1107.019
801.8696, 1107.526
802.3517, 1107.394
802.8338, 1107.839
803.3159, 1110.719
803.7980, 1115.553
804.2802, 1119.419
804.7623, 1120.404
805.2444, 1121.236
805.7265, 1122.802
806.2086, 1125.041
806.6907, 1127.655
807.1729, 1130.837
807.6550, 1133.522
808.1371, 1135.289
808.6192, 1136.173
809.1013, 1135.621
809.5834, 1133.991
810.0656, 1133.323
810.5477, 1135.402
811.0298, 1138.389
811.5119, 1141.324
811.9940, 1144.139
812.4761, 1146.644
812.9583, 1148.668
813.4404, 1150.615
813.9225, 1152.653
814.4046, 1154.726
814.8867, 1156.693
815.3688, 1158.569
815.8510, 1159.780
816.3331, 1159.078
816.8152, 1158.059
817.2973, 1159.941
817.7794, 1164.025
818.2615, 1167.548
818.7437, 1168.316
819.2258, 1168.925
819.7079, 1170.862
820.1900, 1173.873
820.6721, 1175.746
821.1542, 1175.713
821.6364, 1176.273
822.1185, 1178.513
822.6006, 1181.805
823.0827, 1184.394
823.5648, 1186.267
824.0469, 1187.436
824.5291, 1186.792
825.0112, 1186.342
825.4933, 1189.004
825.9754, 1193.605
826.4575, 1196.425
826.9396, 1194.334
827.4218, 1192.543
827.9039, 1192.312
828.3860, 1193.420
828.8681, 1195.319
829.3502, 1198.195
829.8323, 1200.845
830.3145, 1202.797
830.7966, 1204.361
831.2787, 1206.185
831.7608, 1208.139
832.2429, 1209.779
832.7250, 1210.046
833.2072, 1210.826
833.6893, 1213.997
834.1714, 1218.434
834.6535, 1221.025
835.1356, 1220.353
835.6177, 1220.134
836.0999, 1220.992
836.5820, 1222.700
837.0641, 1224.909
837.5462, 1227.578
838.0283, 1230.247
838.5104, 1232.790
838.9926, 1235.230
839.4747, 1237.748
839.9568, 1240.134
840.4389, 1242.063
840.9210, 1243.182
841.4031, 1244.060
841.8853, 1244.201
842.3674, 1244.449
842.8495, 1246.086
843.3316, 1249.301
843.8137, 1253.123
844.2958, 1257.753
844.7780, 1262.010
845.2601, 1263.642
845.7422, 1263.564
846.2243, 1264.088
846.7064, 1266.091
847.1885, 1268.139
847.6707, 1269.501
848.1528, 1270.422
848.6349, 1271.150
849.1170, 1271.254
849.5991, 1272.089
850.0812, 1273.866
850.5634, 1276.131
851.0455, 1278.644
851.5276, 1281.318
852.0097, 1283.189
852.4918, 1284.022
852.9739, 1284.997
853.4561, 1287.011
853.9382, 1289.865
854.4203, 1293.681
854.9024, 1299.246
855.3845, 1303.085
855.8666, 1303.032
856.3488, 1302.402
856.8309, 1303.362
857.3130, 1306.134
857.7951, 1308.590
858.2772, 1310.634
858.7593, 1312.684
859.2415, 1315.536
859.7236, 1318.448
860.2057, 1319.979
860.6878, 1320.008
861.1699, 1320.199
861.6520, 1320.992
862.1342, 1322.518
862.6163, 1325.420
863.0984, 1329.777
863.5805, 1332.180
864.0626, 1331.894
864.5447, 1331.868
865.0269, 1334.302
865.5090, 1338.280
865.9911, 1340.248
866.4732, 1340.480
866.9553, 1340.848
867.4374, 1342.032
867.9196, 1344.164
868.4017, 1348.278
868.8838, 1353.841
869.3659, 1356.924
869.8480, 1355.389
870.3301, 1354.424
870.8123, 1355.597
871.2944, 1358.341
871.7765, 1360.665
872.2586, 1362.617
872.7407, 1365.362
873.2228, 1370.414
873.7050, 1375.286
874.1871, 1376.850
874.6692, 1376.329
875.1513, 1376.402
875.6334, 1378.556
876.1155, 1380.598
876.5977, 1381.966
877.0798, 1383.146
877.5619, 1385.203
878.0440, 1388.254
878.5261, 1390.538
879.0082, 1391.518
879.4904, 1392.211
879.9725, 1393.809
880.4546, 1396.126
880.9367, 1398.961
881.4188, 1402.772
881.9009, 1405.937
882.3831, 1407.191
882.8652, 1407.948
883.3473, 1409.662
883.8294, 1412.723
884.3115, 1415.301
884.7936, 1417.300
885.2758, 1419.010
885.7579, 1420.393
886.2400, 1421.795
886.7221, 1424.205
887.2042, 1427.799
887.6863, 1431.206
888.1685, 1433.385
888.6506, 1435.317
889.1327, 1437.716
889.6148, 1440.689
890.0969, 1443.506
890.5790, 1446.114
891.0612, 1448.671
891.5433, 1450.982
892.0254, 1453.294
892.5075, 1457.015
892.9896, 1461.905
893.4717, 1466.057
893.9539, 1467.656
894.4360, 1468.745
894.9181, 1470.656
895.4002, 1473.339
895.8823, 1475.946
896.3644, 1478.230
896.8466, 1481.013
897.3287, 1485.104
897.8108, 1489.432
898.2929, 1490.463
898.7750, 1488.805
899.2571, 1488.348
899.7393, 1491.115
900.2214, 1494.825
900.7035, 1497.891
901.1856, 1500.488
901.6677, 1502.840
902.1498, 1504.878
902.6320, 1506.786
903.1141, 1508.390
903.5962, 1510.055
904.0783, 1512.535
904.5604, 1515.718
905.0425, 1517.912
905.5247, 1518.787
906.0068, 1519.182
906.4889, 1518.692
906.9710, 1518.818
907.4531, 1521.804
907.9352, 1529.373
908.4174, 1534.642
908.8995, 1535.826
909.3816, 1535.547
909.8637, 1534.620
910.3458, 1533.041
910.8279, 1535.259
911.3101, 1541.346
911.7922, 1547.249
912.2743, 1549.318
912.7564, 1550.099
913.2385, 1552.417
913.7206, 1556.168
914.2028, 1559.717
914.6849, 1562.409
915.1670, 1565.021
915.6491, 1567.812
916.1312, 1570.709
916.6133, 1573.562
917.0955, 1576.406
917.5776, 1578.390
918.0597, 1578.636
918.5418, 1578.804
919.0239, 1581.314
919.5060, 1585.222
919.9882, 1588.643
920.4703, 1590.399
920.9524, 1592.397
921.4345, 1595.306
921.9166, 1598.250
922.3987, 1599.811
922.8809, 1599.817
923.3630, 1601.223
923.8451, 1604.561
924.3272, 1608.084
924.8093, 1609.268
925.2914, 1609.798
925.7736, 1612.095
926.2557, 1616.850
926.7378, 1621.350
927.2199, 1625.009
927.7020, 1627.991
928.1841, 1630.226
928.6663, 1631.718
929.1484, 1633.464
929.6305, 1635.496
930.1126, 1637.471
930.5947, 1638.638
931.0768, 1639.992
931.5590, 1643.209
932.0411, 1647.865
932.5232, 1651.945
933.0053, 1654.686
933.4874, 1656.953
933.9695, 1659.303
934.4517, 1661.233
934.9338, 1660.867
935.4159, 1658.135
935.8980, 1657.307
936.3801, 1659.766
936.8622, 1664.010
937.3444, 1669.428
937.8265, 1675.021
938.3086, 1679.269
938.7907, 1680.765
939.2728, 1682.820
939.7549, 1686.521
940.2371, 1690.353
940.7192, 1693.035
941.2013, 1694.499
941.6834, 1696.111
942.1655, 1697.865
942.6476, 1700.338
943.1298, 1705.088
943.6119, 1710.067
944.0940, 1712.504
944.5761, 1712.405
945.0582, 1713.730
945.5403, 1719.307
946.0225, 1724.089
946.5046, 1726.103
946.9867, 1726.199
947.4688, 1727.911
947.9509, 1731.152
948.4330, 1734.878
948.9152, 1738.863
949.3973, 1742.844
949.8794, 1747.228
950.3615, 1751.277
950.8436, 1753.688
951.3257, 1751.728
951.8079, 1751.600
952.2900, 1754.258
952.7721, 1758.003
953.2542, 1761.031
953.7363, 1763.359
954.2184, 1764.773
954.7006, 1765.151
955.1827, 1766.042
955.6648, 1769.793
956.1469, 1773.906
956.6290, 1775.905
957.1111, 1775.251
957.5933, 1775.308
958.0754, 1776.001
958.5575, 1777.887
959.0396, 1781.821
959.5217, 1786.916
960.0038, 1789.702
960.4860, 1790.659
960.9681, 1792.297
961.4502, 1797.232
961.9323, 1801.901
962.4144, 1802.878
962.8965, 1802.277
963.3787, 1804.990
963.8608, 1813.076
964.3429, 1819.357
964.8250, 1822.644
965.3071, 1824.792
965.7892, 1828.062
966.2714, 1832.189
966.7535, 1836.660
967.2356, 1841.376
967.7177, 1846.200
968.1998, 1851.642
968.6819, 1856.629
969.1641, 1860.303
969.6462, 1862.671
970.1283, 1864.002
970.6104, 1863.839
971.0925, 1865.270
971.5746, 1871.919
972.0568, 1880.323
972.5389, 1883.309
973.0210, 1882.492
973.5031, 1883.126
973.9852, 1889.181
974.4673, 1894.886
974.9495, 1898.195
975.4316, 1900.411
975.9137, 1904.190
976.3958, 1909.759
976.8779, 1912.242
977.3600, 1910.071
977.8422, 1908.017
978.3243, 1912.402
978.8064, 1919.384
979.2885, 1923.913
979.7706, 1924.578
980.2527, 1925.714
980.7349, 1927.897
981.2170, 1930.867
981.6991, 1934.726
982.1812, 1939.280
982.6633, 1942.764
983.1454, 1945.276
983.6276, 1948.151
984.1097, 1953.220
984.5918, 1957.957
985.0739, 1959.115
985.5560, 1958.431
986.0381, 1960.914
986.5203, 1969.444
987.0024, 1975.495
987.4845, 1977.367
987.9666, 1977.662
988.4487, 1980.068
988.9308, 1984.010
989.4130, 1988.077
989.8951, 1992.170
990.3772, 1995.389
990.8593, 1995.953
991.3414, 1996.473
991.8235, 1999.290
992.3057, 2004.609
992.7878, 2007.800
993.2699, 2008.465
993.7520, 2009.627
994.2341, 2013.307
994.7162, 2018.204
995.1984, 2022.320
995.6805, 2025.776
996.1626, 2028.803
996.6447, 2031.520
997.1268, 2033.750
997.6089, 2034.772
998.0911, 2035.897
998.5732, 2039.082
999.0553, 2044.316
999.5374, 2049.993
1000.020, 2055.897
1000.502, 2061.526
1000.984, 2066.966
1001.466, 2071.407
1001.948, 2073.488
1002.430, 2072.765
1002.912, 2073.332
1003.394, 2075.334
1003.876, 2078.973
1004.359, 2085.240
1004.841, 2092.668
1005.323, 2095.832
1005.805, 2095.817
1006.287, 2096.903
1006.769, 2102.500
1007.251, 2107.741
1007.733, 2108.809
1008.216, 2108.638
1008.698, 2111.575
1009.180, 2119.202
1009.662, 2123.581
1010.144, 2123.696
1010.626, 2123.515
1011.108, 2127.041
1011.590, 2132.706
1012.072, 2138.997
1012.555, 2145.638
1013.037, 2150.018
1013.519, 2147.697
1014.001, 2147.140
1014.483, 2151.950
1014.965, 2160.185
1015.447, 2164.922
1015.929, 2166.534
1016.411, 2168.849
1016.894, 2173.570
1017.376, 2178.322
1017.858, 2180.651
1018.340, 2181.932
1018.822, 2183.881
1019.304, 2187.220
1019.786, 2189.947
1020.268, 2191.794
1020.751, 2193.808
1021.233, 2196.802
1021.715, 2200.607
1022.197, 2205.139
1022.679, 2210.171
1023.161, 2214.339
1023.643, 2215.310
1024.125, 2217.112
1024.607, 2221.836
1025.090, 2228.268
1025.572, 2234.156
1026.054, 2239.529
1026.536, 2244.170
1027.018, 2248.059
1027.500, 2251.324
1027.982, 2253.715
1028.464, 2255.758
1028.947, 2258.096
1029.429, 2260.892
1029.911, 2263.557
1030.393, 2265.522
1030.875, 2268.524
1031.357, 2274.145
1031.839, 2281.224
1032.321, 2285.572
1032.803, 2287.598
1033.286, 2289.128
1033.768, 2289.333
1034.250, 2291.190
1034.732, 2297.534
1035.214, 2305.648
1035.696, 2311.388
1036.178, 2314.225
1036.660, 2317.782
1037.143, 2322.441
1037.625, 2326.928
1038.107, 2328.749
1038.589, 2330.596
1039.071, 2337.300
1039.553, 2348.672
1040.035, 2355.874
1040.517, 2354.403
1041.000, 2352.526
1041.482, 2352.039
1041.964, 2352.995
1042.446, 2355.927
1042.928, 2360.531
1043.410, 2365.352
1043.892, 2369.795
1044.374, 2374.964
1044.856, 2383.539
1045.339, 2391.551
1045.821, 2394.829
1046.303, 2392.256
1046.785, 2394.021
1047.267, 2400.698
1047.749, 2406.639
1048.231, 2405.947
1048.713, 2403.779
1049.195, 2407.867
1049.677, 2416.055
1050.160, 2421.971
1050.642, 2419.529
1051.124, 2421.081
1051.606, 2429.708
1052.088, 2440.139
1052.570, 2444.859
1053.052, 2445.214
1053.534, 2445.922
1054.017, 2447.521
1054.499, 2449.896
1054.981, 2453.255
1055.463, 2457.140
1055.945, 2461.586
1056.427, 2466.384
1056.909, 2470.262
1057.391, 2473.238
1057.874, 2475.096
1058.356, 2474.925
1058.838, 2475.461
1059.320, 2481.898
1059.802, 2490.456
1060.284, 2495.566
1060.766, 2493.235
1061.248, 2494.385
1061.730, 2500.684
1062.213, 2507.929
1062.695, 2513.247
1063.177, 2517.063
1063.659, 2520.720
1064.141, 2524.301
1064.623, 2528.185
1065.105, 2532.375
1065.587, 2537.056
1066.070, 2543.128
1066.552, 2549.306
1067.034, 2553.424
1067.516, 2555.384
1067.998, 2557.169
1068.480, 2558.837
1068.962, 2561.838
1069.444, 2569.716
1069.927, 2577.924
1070.409, 2581.660
1070.891, 2580.570
1071.373, 2581.801
1071.855, 2586.684
1072.337, 2590.641
1072.819, 2591.599
1073.301, 2592.022
1073.783, 2597.216
1074.266, 2605.143
1074.748, 2611.528
1075.230, 2614.894
1075.712, 2617.555
1076.194, 2619.230
1076.676, 2621.368
1077.158, 2624.902
1077.640, 2629.735
1078.122, 2635.198
1078.604, 2641.239
1079.087, 2647.442
1079.569, 2654.872
1080.051, 2661.005
1080.533, 2663.042
1081.015, 2663.100
1081.497, 2665.166
1081.979, 2669.642
1082.461, 2674.083
1082.944, 2678.226
1083.426, 2682.762
1083.908, 2689.693
1084.390, 2696.473
1084.872, 2699.097
1085.354, 2697.866
1085.836, 2698.762
1086.318, 2703.665
1086.801, 2708.885
1087.283, 2713.681
1087.765, 2718.198
1088.247, 2722.747
1088.729, 2727.238
1089.211, 2731.276
1089.693, 2734.697
1090.175, 2738.202
1090.657, 2741.700
1091.140, 2745.782
1091.622, 2751.110
1092.104, 2757.360
1092.586, 2761.521
1093.068, 2763.831
1093.550, 2767.053
1094.032, 2773.459
1094.514, 2779.710
1094.997, 2782.489
1095.479, 2784.076
1095.961, 2787.732
1096.443, 2794.373
1096.925, 2800.198
1097.407, 2805.099
1097.889, 2809.988
1098.371, 2815.697
1098.854, 2821.647
1099.336, 2827.518
1099.818, 2833.028
1100.300, 2837.063
1100.782, 2838.058
1101.264, 2839.832
1101.746, 2842.914
1102.228, 2846.747
1102.710, 2850.646
1103.193, 2854.694
1103.675, 2859.255
1104.157, 2864.367
1104.639, 2869.554
1105.121, 2875.066
1105.603, 2880.118
1106.085, 2884.175
1106.567, 2887.775
1107.049, 2892.697
1107.531, 2898.789
1108.014, 2904.284
1108.496, 2908.560
1108.978, 2912.905
1109.460, 2917.552
1109.942, 2923.164
1110.424, 2930.721
1110.906, 2940.360
1111.388, 2948.142
1111.871, 2954.060
1112.353, 2957.954
1112.835, 2958.238
1113.317, 2958.398
1113.799, 2962.621
1114.281, 2969.218
1114.763, 2975.548
1115.245, 2981.656
1115.728, 2986.288
1116.210, 2989.222
1116.692, 2991.550
1117.174, 2993.191
1117.656, 2995.302
1118.138, 3000.308
1118.620, 3007.764
1119.102, 3015.652
1119.584, 3023.896
1120.067, 3031.635
1120.549, 3039.063
1121.031, 3045.342
1121.513, 3048.683
1121.995, 3049.930
1122.477, 3051.699
1122.959, 3054.279
1123.441, 3057.986
1123.924, 3064.568
1124.406, 3070.449
1124.888, 3073.071
1125.370, 3074.454
1125.852, 3081.641
1126.334, 3093.901
1126.816, 3101.659
1127.298, 3101.916
1127.781, 3101.512
1128.263, 3104.934
1128.745, 3110.340
1129.227, 3116.953
1129.709, 3124.595
1130.191, 3129.823
1130.673, 3132.513
1131.155, 3135.297
1131.637, 3139.061
1132.120, 3143.721
1132.602, 3149.243
1133.084, 3155.590
1133.566, 3162.757
1134.048, 3171.393
1134.530, 3178.778
1135.012, 3184.993
1135.494, 3189.536
1135.976, 3190.157
1136.458, 3190.261
1136.941, 3196.154
1137.423, 3205.910
1137.905, 3214.789
1138.387, 3221.888
1138.869, 3227.086
1139.351, 3229.334
1139.833, 3231.836
1140.315, 3238.753
1140.798, 3247.957
1141.280, 3253.986
1141.762, 3257.163
1142.244, 3260.725
1142.726, 3267.540
1143.208, 3272.724
1143.690, 3274.613
1144.172, 3275.225
1144.655, 3277.253
1145.137, 3280.708
1145.619, 3286.382
1146.101, 3294.404
1146.583, 3301.615
1147.065, 3305.094
1147.547, 3308.854
1148.029, 3315.064
1148.511, 3322.800
1148.994, 3328.913
1149.476, 3333.757
1149.958, 3341.019
1150.440, 3352.391
1150.922, 3362.253
1151.404, 3364.162
1151.886, 3364.950
1152.368, 3369.671
1152.851, 3378.027
1153.333, 3388.154
1153.815, 3400.023
1154.297, 3409.897
1154.779, 3416.305
1155.261, 3420.255
1155.743, 3420.128
1156.225, 3419.314
1156.708, 3422.155
1157.190, 3429.259
1157.672, 3436.118
1158.154, 3442.886
1158.636, 3448.210
1159.118, 3450.232
1159.600, 3451.675
1160.082, 3455.476
1160.564, 3460.926
1161.047, 3466.813
1161.529, 3473.059
1162.011, 3479.758
1162.493, 3487.101
1162.975, 3494.396
1163.457, 3501.589
1163.939, 3508.094
1164.421, 3512.416
1164.903, 3515.271
1165.385, 3518.847
1165.868, 3523.350
1166.350, 3529.151
1166.832, 3536.655
1167.314, 3544.101
1167.796, 3549.575
1168.278, 3553.640
1168.760, 3556.235
1169.242, 3557.964
1169.725, 3562.209
1170.207, 3572.298
1170.689, 3581.988
1171.171, 3590.687
1171.653, 3598.027
1172.135, 3602.699
1172.617, 3605.765
1173.099, 3609.260
1173.582, 3613.447
1174.064, 3619.405
1174.546, 3630.173
1175.028, 3639.153
1175.510, 3643.776
1175.992, 3646.626
1176.474, 3653.226
1176.956, 3662.239
1177.438, 3669.531
1177.921, 3674.139
1178.403, 3678.780
1178.885, 3685.875
1179.367, 3691.628
1179.849, 3693.627
1180.331, 3693.887
1180.813, 3699.035
1181.295, 3707.915
1181.778, 3716.100
1182.260, 3722.159
1182.742, 3728.204
1183.224, 3734.759
1183.706, 3742.212
1184.188, 3751.322
1184.670, 3761.468
1185.152, 3768.552
1185.635, 3773.004
1186.117, 3777.345
1186.599, 3782.067
1187.081, 3787.703
1187.563, 3796.177
1188.045, 3804.083
1188.527, 3807.949
1189.009, 3808.370
1189.491, 3814.332
1189.974, 3825.127
1190.456, 3835.580
1190.938, 3843.934
1191.420, 3850.220
1191.902, 3852.485
1192.384, 3854.171
1192.866, 3858.986
1193.348, 3867.035
1193.830, 3873.663
1194.313, 3879.029
1194.795, 3885.101
1195.277, 3893.898
1195.759, 3902.774
1196.241, 3911.431
1196.723, 3918.491
1197.205, 3921.163
1197.687, 3919.249
1198.169, 3922.160
1198.652, 3930.135
1199.134, 3938.116
1199.616, 3941.128
1200.098, 3944.708
1200.580, 3954.530
1201.062, 3965.993
1201.544, 3970.198
1202.026, 3966.813
1202.509, 3970.324
1202.991, 3982.019
1203.473, 3994.622
1203.955, 4004.061
1204.437, 4011.491
1204.919, 4016.650
1205.401, 4020.655
1205.883, 4025.710
1206.365, 4031.828
1206.848, 4038.173
1207.330, 4044.599
1207.812, 4051.386
1208.294, 4059.803
1208.776, 4067.754
1209.258, 4072.856
1209.740, 4076.436
1210.222, 4082.516
1210.705, 4091.241
1211.187, 4096.779
1211.669, 4097.534
1212.151, 4100.808
1212.633, 4118.261
1213.115, 4135.264
1213.597, 4137.975
1214.079, 4131.154
1214.562, 4131.734
1215.044, 4139.587
1215.526, 4149.024
1216.008, 4159.322
1216.490, 4168.089
1216.972, 4170.968
1217.454, 4173.769
1217.936, 4181.764
1218.418, 4193.504
1218.901, 4200.975
1219.383, 4204.433
1219.865, 4209.658
1220.347, 4218.705
1220.829, 4228.061
1221.311, 4234.315
1221.793, 4240.545
1222.275, 4249.837
1222.757, 4261.483
1223.240, 4270.509
1223.722, 4277.013
1224.204, 4281.528
1224.686, 4283.713
1225.168, 4285.773
1225.650, 4288.714
1226.132, 4292.783
1226.614, 4298.516
1227.096, 4305.599
1227.579, 4310.303
1228.061, 4313.052
1228.543, 4317.681
1229.025, 4326.511
1229.507, 4335.280
1229.989, 4340.466
1230.471, 4345.451
1230.953, 4352.903
1231.436, 4362.486
1231.918, 4371.389
1232.400, 4379.604
1232.882, 4387.014
1233.364, 4393.568
1233.846, 4399.454
1234.328, 4404.115
1234.810, 4408.798
1235.292, 4413.614
1235.775, 4419.071
1236.257, 4432.201
1236.739, 4450.953
1237.221, 4464.327
1237.703, 4462.737
1238.185, 4462.937
1238.667, 4473.608
1239.149, 4485.961
1239.632, 4492.924
1240.114, 4495.967
1240.596, 4506.565
1241.078, 4522.457
1241.560, 4534.467
1242.042, 4533.167
1242.524, 4535.164
1243.006, 4546.597
1243.489, 4559.471
1243.971, 4567.102
1244.453, 4570.989
1244.935, 4576.847
1245.417, 4584.372
1245.899, 4592.185
1246.381, 4600.623
1246.863, 4608.077
1247.345, 4614.122
1247.828, 4619.590
1248.310, 4624.625
1248.792, 4629.722
1249.274, 4635.899
1249.756, 4643.365
1250.238, 4652.753
1250.720, 4668.505
1251.202, 4678.960
1251.684, 4681.030
1252.167, 4683.138
1252.649, 4694.756
1253.131, 4710.475
1253.613, 4720.065
1254.095, 4724.529
1254.577, 4727.625
1255.059, 4728.341
1255.541, 4731.016
1256.023, 4735.406
1256.506, 4743.245
1256.988, 4759.024
1257.470, 4777.235
1257.952, 4791.350
1258.434, 4801.205
1258.916, 4805.745
1259.398, 4801.728
1259.880, 4803.049
1260.363, 4811.129
1260.845, 4821.058
1261.327, 4829.309
1261.809, 4836.803
1262.291, 4845.195
1262.773, 4853.513
1263.255, 4858.765
1263.737, 4859.479
1264.219, 4864.560
1264.702, 4874.867
1265.184, 4884.628
1265.666, 4887.233
1266.148, 4889.708
1266.630, 4898.571
1267.112, 4911.042
1267.594, 4920.716
1268.076, 4927.447
1268.559, 4935.022
1269.041, 4943.659
1269.523, 4951.650
1270.005, 4956.285
1270.487, 4961.710
1270.969, 4971.132
1271.451, 4982.273
1271.933, 4992.318
1272.416, 5001.237
1272.898, 5009.083
1273.380, 5015.960
1273.862, 5023.687
1274.344, 5035.510
1274.826, 5045.362
1275.308, 5049.666
1275.790, 5052.986
1276.272, 5061.615
1276.755, 5074.162
1277.237, 5086.255
1277.719, 5097.360
1278.201, 5106.604
1278.683, 5112.093
1279.165, 5117.447
1279.647, 5122.910
1280.129, 5129.420
1280.611, 5139.458
1281.094, 5150.913
1281.576, 5158.272
1282.058, 5162.529
1282.540, 5169.669
1283.022, 5184.639
1283.504, 5195.538
1283.986, 5200.194
1284.468, 5204.005
1284.950, 5213.110
1285.433, 5224.081
1285.915, 5232.205
1286.397, 5238.038
1286.879, 5244.512
1287.361, 5251.874
1287.843, 5259.420
1288.325, 5266.982
1288.807, 5275.569
1289.290, 5286.716
1289.772, 5298.690
1290.254, 5311.773
1290.736, 5323.841
1291.218, 5329.490
1291.700, 5327.707
1292.182, 5334.867
1292.664, 5351.956
1293.146, 5366.757
1293.629, 5365.327
1294.111, 5365.071
1294.593, 5381.001
1295.075, 5400.301
1295.557, 5404.632
1296.039, 5396.586
1296.521, 5398.663
1297.003, 5410.795
1297.486, 5422.342
1297.968, 5427.423
1298.450, 5432.347
1298.932, 5439.300
1299.414, 5446.276
1299.896, 5448.864
1300.378, 5450.405
1300.860, 5463.002
1301.343, 5484.125
1301.825, 5501.174
##END=



