##NAMES=Cuprite
##RRUFFID=R050384
##IDEAL CHEMISTRY=Cu^1+^_2_O
##LOCALITY=Lavender Pit, Bisbee, Warren District, Cochise County, Arizona, USA
##OWNER=RRUFF
##SOURCE=University of Arizona Mineral Museum
##DESCRIPTION=Deep red to nearly black cubes
##STATUS=The identification of this mineral has been confirmed by X-ray diffraction and chemical analysis
##URL=rruff.info/R050384
##MEASURED CHEMISTRY=Cu_2.00_O
92.52344, 781.4342
93.00555, 774.8865
93.48767, 776.0784
93.96979, 802.2175
94.45190, 829.1806
94.93402, 854.4323
95.41614, 866.2809
95.89825, 868.2675
96.38037, 867.3015
96.86249, 863.7722
97.34460, 859.1889
97.82672, 854.0070
98.30884, 849.2017
98.79095, 845.5926
99.27307, 841.4879
99.75519, 835.0941
100.2373, 827.7734
100.7194, 820.5422
101.2015, 814.9876
101.6837, 811.8583
102.1658, 809.2230
102.6479, 805.1635
103.1300, 799.3790
103.6121, 794.4142
104.0942, 793.1859
104.5764, 793.9041
105.0585, 794.0169
105.5406, 792.6066
106.0227, 789.8761
106.5048, 786.5026
106.9869, 782.5453
107.4691, 777.1993
107.9512, 769.5580
108.4333, 760.2838
108.9154, 751.0578
109.3975, 743.3926
109.8796, 737.5634
110.3618, 731.2723
110.8439, 724.1701
111.3260, 716.8457
111.8081, 709.2090
112.2902, 701.4558
112.7723, 694.0992
113.2544, 687.9269
113.7366, 683.6656
114.2187, 679.3891
114.7008, 675.0931
115.1829, 670.7664
115.6650, 666.4207
116.1471, 662.0430
116.6293, 657.6288
117.1114, 653.0482
117.5935, 647.4508
118.0756, 643.1735
118.5577, 641.2324
119.0398, 641.0536
119.5220, 641.1939
120.0041, 640.8323
120.4862, 640.6498
120.9683, 641.8729
121.4504, 644.7892
121.9325, 648.5352
122.4147, 652.4221
122.8968, 656.4145
123.3789, 660.9324
123.8610, 666.6916
124.3431, 672.9362
124.8252, 678.8207
125.3074, 683.7197
125.7895, 688.5610
126.2716, 695.4226
126.7537, 705.1986
127.2358, 715.4891
127.7179, 725.6568
128.2001, 735.7304
128.6822, 745.9557
129.1643, 756.5286
129.6464, 767.3915
130.1285, 777.2100
130.6107, 784.0184
131.0928, 791.6852
131.5749, 801.5879
132.0570, 813.1500
132.5391, 824.9954
133.0212, 835.8112
133.5034, 845.4118
133.9855, 855.5668
134.4676, 866.6888
134.9497, 877.9152
135.4318, 888.7177
135.9139, 899.0491
136.3960, 909.3669
136.8782, 920.2685
137.3603, 932.0208
137.8424, 942.7041
138.3245, 951.5919
138.8066, 959.5672
139.2887, 967.3585
139.7709, 974.9447
140.2530, 982.8907
140.7351, 992.0502
141.2172, 1002.218
141.6993, 1012.805
142.1814, 1024.188
142.6636, 1035.880
143.1457, 1046.253
143.6278, 1055.083
144.1099, 1061.983
144.5920, 1066.880
145.0741, 1069.777
145.5563, 1071.591
146.0384, 1073.487
146.5205, 1075.737
147.0026, 1075.755
147.4847, 1071.778
147.9668, 1066.178
148.4490, 1060.266
148.9311, 1054.288
149.4132, 1047.301
149.8953, 1037.840
150.3774, 1025.135
150.8595, 1011.057
151.3417, 995.5598
151.8238, 979.2457
152.3059, 962.1733
152.7880, 944.5504
153.2701, 926.9102
153.7522, 910.8746
154.2344, 897.0209
154.7165, 884.5386
155.1986, 873.6998
155.6807, 864.1010
156.1628, 855.2820
156.6449, 847.0566
157.1271, 839.4261
157.6092, 832.5095
158.0913, 826.6931
158.5734, 820.9531
159.0555, 815.1594
159.5376, 809.2635
160.0198, 803.1064
160.5019, 796.5332
160.9840, 789.6593
161.4661, 782.9978
161.9482, 776.1111
162.4303, 769.8379
162.9125, 764.5045
163.3946, 760.1215
163.8767, 757.2057
164.3588, 756.3962
164.8409, 757.3328
165.3230, 759.4016
165.8052, 762.8159
166.2873, 767.0509
166.7694, 770.8653
167.2515, 773.5051
167.7336, 778.4783
168.2157, 789.2244
168.6979, 802.6921
169.1800, 815.4746
169.6621, 825.8143
170.1442, 834.7840
170.6263, 845.4661
171.1084, 858.4666
171.5906, 872.4129
172.0727, 887.3348
172.5548, 902.6933
173.0369, 917.6537
173.5190, 931.4864
174.0011, 944.5012
174.4833, 959.3113
174.9654, 978.1381
175.4475, 996.8008
175.9296, 1015.530
176.4117, 1033.388
176.8938, 1049.364
177.3760, 1062.865
177.8581, 1073.948
178.3402, 1079.948
178.8223, 1079.231
179.3044, 1075.774
179.7865, 1069.472
180.2687, 1061.288
180.7508, 1053.305
181.2329, 1047.448
181.7150, 1043.972
182.1971, 1039.238
182.6792, 1032.365
183.1614, 1025.187
183.6435, 1018.713
184.1256, 1013.004
184.6077, 1007.574
185.0898, 1002.136
185.5719, 996.6571
186.0541, 990.5549
186.5362, 983.0642
187.0183, 975.3754
187.5004, 968.6838
187.9825, 963.1243
188.4646, 957.9945
188.9468, 953.1074
189.4289, 948.2561
189.9110, 942.2679
190.3931, 934.6111
190.8752, 925.7498
191.3573, 916.2927
191.8395, 906.2646
192.3216, 895.6439
192.8037, 883.8225
193.2858, 871.4062
193.7679, 859.7761
194.2500, 849.6208
194.7322, 840.7673
195.2143, 832.3364
195.6964, 823.6328
196.1785, 816.7066
196.6606, 812.4869
197.1427, 810.5079
197.6249, 809.8845
198.1070, 810.7835
198.5891, 812.9123
199.0712, 813.3184
199.5533, 811.5339
200.0354, 808.2393
200.5176, 803.8342
200.9997, 798.2388
201.4818, 791.1434
201.9639, 781.9854
202.4460, 770.6896
202.9281, 760.3293
203.4103, 751.4578
203.8924, 743.1757
204.3745, 734.7809
204.8566, 726.6882
205.3387, 720.0965
205.8208, 716.1019
206.3030, 714.8920
206.7851, 714.5583
207.2672, 715.3853
207.7493, 716.7069
208.2314, 718.3314
208.7135, 720.2341
209.1957, 722.5723
209.6778, 725.6669
210.1599, 729.8255
210.6420, 731.9696
211.1241, 731.0956
211.6062, 729.5119
212.0884, 728.5397
212.5705, 728.0922
213.0526, 727.1473
213.5347, 724.7617
214.0168, 720.7335
214.4989, 716.3377
214.9811, 711.9029
215.4632, 706.8865
215.9453, 700.9670
216.4274, 694.1057
216.9095, 686.4250
217.3916, 678.0294
217.8737, 668.7639
218.3559, 658.7586
218.8380, 648.0157
219.3201, 636.4506
219.8022, 624.0473
220.2843, 610.8068
220.7664, 596.4548
221.2486, 580.3815
221.7307, 562.7984
222.2128, 545.3569
222.6949, 528.1978
223.1770, 511.2846
223.6591, 494.5371
224.1413, 477.8720
224.6234, 461.8200
225.1055, 446.6898
225.5876, 432.5340
226.0697, 419.7253
226.5518, 408.6947
227.0340, 398.9508
227.5161, 389.8248
227.9982, 381.2706
228.4803, 373.5079
228.9624, 367.2373
229.4445, 361.7369
229.9267, 356.0283
230.4088, 349.7686
230.8909, 343.1657
231.3730, 336.6539
231.8551, 330.2483
232.3372, 323.9323
232.8194, 317.4682
233.3015, 311.0981
233.7836, 305.0996
234.2657, 299.6132
234.7478, 294.5225
235.2299, 289.5913
235.7121, 284.8232
236.1942, 280.1811
236.6763, 275.4382
237.1584, 270.8695
237.6405, 266.8217
238.1227, 263.4769
238.6048, 260.5379
239.0869, 257.1888
239.5690, 252.8564
240.0511, 249.1346
240.5332, 246.8711
241.0154, 245.0266
241.4975, 242.5318
241.9796, 238.9230
242.4617, 234.6742
242.9438, 230.9991
243.4259, 228.0732
243.9081, 225.5063
244.3902, 223.4411
244.8723, 221.5856
245.3544, 219.7222
245.8365, 217.7508
246.3186, 215.6521
246.8008, 213.3255
247.2829, 210.3359
247.7650, 207.7851
248.2471, 206.0701
248.7292, 204.6038
249.2113, 202.8550
249.6935, 200.6409
250.1756, 198.1366
250.6577, 195.6624
251.1398, 192.9997
251.6219, 190.7473
252.1040, 189.3105
252.5862, 188.0636
253.0683, 186.4655
253.5504, 184.3650
254.0325, 181.9361
254.5146, 179.4409
254.9967, 176.7294
255.4789, 174.2842
255.9610, 172.1012
256.4431, 170.1931
256.9252, 168.6687
257.4073, 167.5265
257.8894, 166.4906
258.3716, 165.1745
258.8537, 163.4075
259.3358, 161.8050
259.8179, 160.4311
260.3000, 159.1771
260.7821, 157.9494
261.2643, 156.7291
261.7464, 155.5513
262.2285, 154.4263
262.7106, 153.3339
263.1927, 152.4832
263.6748, 151.8911
264.1570, 151.5346
264.6391, 151.5751
265.1212, 151.9872
265.6033, 152.2417
266.0854, 151.7439
266.5675, 150.4519
267.0497, 149.5443
267.5318, 149.4179
268.0139, 149.4297
268.4960, 148.9715
268.9781, 148.0390
269.4602, 147.2048
269.9424, 146.8905
270.4245, 147.0916
270.9066, 147.4216
271.3887, 148.3995
271.8708, 149.1072
272.3529, 148.5322
272.8351, 146.7861
273.3172, 145.2677
273.7993, 144.8706
274.2814, 145.3636
274.7635, 145.7673
275.2456, 146.1169
275.7278, 146.3157
276.2099, 146.2699
276.6920, 145.9945
277.1741, 145.5983
277.6562, 145.0743
278.1383, 144.4941
278.6205, 143.9775
279.1026, 143.4512
279.5847, 143.1331
280.0668, 143.3233
280.5489, 143.9232
281.0310, 144.3547
281.5132, 144.4419
281.9953, 144.2126
282.4774, 143.6898
282.9595, 142.8037
283.4416, 142.0338
283.9237, 141.7187
284.4059, 141.7747
284.8880, 141.8584
285.3701, 141.9086
285.8522, 141.9346
286.3343, 142.0083
286.8164, 142.1240
287.2986, 142.0646
287.7807, 141.6043
288.2628, 140.8629
288.7449, 140.1946
289.2270, 139.5544
289.7091, 139.1780
290.1913, 139.4386
290.6734, 140.1538
291.1555, 140.6633
291.6376, 140.5228
292.1197, 139.9712
292.6018, 139.5826
293.0840, 139.4496
293.5661, 139.3228
294.0482, 139.0417
294.5303, 138.6534
295.0124, 138.2255
295.4945, 137.7758
295.9767, 137.3095
296.4588, 136.7728
296.9409, 136.0780
297.4230, 135.6185
297.9051, 135.8954
298.3872, 136.4353
298.8694, 136.6691
299.3515, 136.3642
299.8336, 135.8162
300.3157, 135.4155
300.7978, 135.1917
301.2799, 134.9186
301.7621, 134.3814
302.2442, 133.8214
302.7263, 133.5017
303.2084, 133.5068
303.6905, 133.5248
304.1726, 133.1972
304.6548, 132.5084
305.1369, 131.8400
305.6190, 131.0396
306.1011, 130.5159
306.5832, 130.8228
307.0653, 131.9498
307.5475, 132.8732
308.0296, 132.5932
308.5117, 131.2210
308.9938, 130.0828
309.4759, 129.4217
309.9580, 128.9577
310.4402, 128.4648
310.9223, 127.9767
311.4044, 127.6340
311.8865, 127.7042
312.3686, 128.0374
312.8507, 127.9270
313.3329, 127.1168
313.8150, 126.2789
314.2971, 125.8379
314.7792, 125.6167
315.2613, 125.2668
315.7434, 124.4937
316.2256, 123.5807
316.7077, 123.2588
317.1898, 123.8351
317.6719, 124.1320
318.1540, 123.3196
318.6361, 122.0785
319.1183, 121.1423
319.6004, 120.7728
320.0825, 120.6370
320.5646, 120.3214
321.0467, 119.8181
321.5288, 119.1814
322.0110, 118.1913
322.4931, 117.2206
322.9752, 116.6088
323.4573, 116.4164
323.9394, 116.3409
324.4215, 116.1021
324.9037, 115.7056
325.3858, 115.3556
325.8679, 115.1342
326.3500, 114.9222
326.8321, 114.6646
327.3142, 114.3521
327.7964, 113.9519
328.2785, 113.3973
328.7606, 112.7235
329.2427, 112.0736
329.7248, 111.3853
330.2069, 110.8557
330.6891, 110.6772
331.1712, 110.7242
331.6533, 110.7445
332.1354, 110.7063
332.6175, 110.5297
333.0996, 109.9717
333.5818, 108.8878
334.0639, 107.8804
334.5460, 107.2241
335.0281, 106.8257
335.5102, 106.6863
335.9923, 106.9297
336.4745, 107.1427
336.9566, 106.6711
337.4387, 105.4553
337.9208, 104.6094
338.4029, 104.7391
338.8850, 105.2463
339.3671, 105.5832
339.8492, 105.7069
340.3314, 105.6966
340.8135, 105.5431
341.2956, 105.2770
341.7777, 105.0979
342.2598, 105.0491
342.7419, 105.0910
343.2241, 105.2317
343.7062, 105.4447
344.1883, 105.5871
344.6704, 105.5129
345.1525, 105.3333
345.6346, 105.2855
346.1168, 105.3889
346.5989, 105.5988
347.0810, 106.0581
347.5631, 106.5893
348.0452, 106.8361
348.5273, 106.4491
349.0095, 105.9724
349.4916, 106.1173
349.9737, 106.8987
350.4558, 107.5923
350.9379, 107.8109
351.4200, 107.7658
351.9022, 107.7924
352.3843, 107.8836
352.8664, 108.1077
353.3485, 108.7392
353.8306, 109.6010
354.3127, 109.8765
354.7949, 109.0585
355.2770, 108.0515
355.7591, 108.0586
356.2412, 109.0383
356.7233, 110.1235
357.2054, 111.1510
357.6876, 112.0460
358.1697, 112.6206
358.6518, 112.8117
359.1339, 112.9680
359.6160, 113.4836
360.0981, 114.2564
360.5803, 114.7135
361.0624, 114.4512
361.5445, 114.0996
362.0266, 114.2155
362.5087, 114.7559
362.9908, 115.3121
363.4730, 115.6586
363.9551, 115.8621
364.4372, 116.1408
364.9193, 116.4985
365.4014, 116.9119
365.8835, 117.3974
366.3657, 117.9273
366.8478, 118.4549
367.3299, 118.9656
367.8120, 119.4546
368.2941, 119.8992
368.7762, 120.2686
369.2584, 120.7260
369.7405, 121.3558
370.2226, 122.0449
370.7047, 122.6171
371.1868, 123.0741
371.6689, 123.6921
372.1511, 124.8222
372.6332, 126.4923
373.1153, 127.5186
373.5974, 127.4524
374.0795, 127.2641
374.5616, 127.4158
375.0438, 127.8253
375.5259, 128.2035
376.0080, 128.3754
376.4901, 128.4402
376.9722, 128.7549
377.4543, 129.3248
377.9365, 130.1265
378.4186, 131.4997
378.9007, 132.9509
379.3828, 133.8329
379.8649, 133.9966
380.3470, 133.9209
380.8292, 134.2655
381.3113, 135.1476
381.7934, 136.1577
382.2755, 137.5347
382.7576, 138.8190
383.2397, 139.5598
383.7219, 139.9248
384.2040, 140.5647
384.6861, 142.0933
385.1682, 144.3971
385.6503, 145.5829
386.1324, 144.0133
386.6146, 143.1061
387.0967, 143.8098
387.5788, 145.3897
388.0609, 146.9468
388.5430, 148.0919
389.0251, 148.9529
389.5073, 149.7634
389.9894, 150.4231
390.4715, 151.2541
390.9536, 152.5137
391.4357, 153.7378
391.9178, 154.5513
392.4000, 154.9770
392.8821, 155.3838
393.3642, 156.1517
393.8463, 157.2953
394.3284, 158.3445
394.8105, 159.2879
395.2927, 160.1470
395.7748, 160.7639
396.2569, 161.3332
396.7390, 162.2092
397.2211, 163.6277
397.7032, 165.3270
398.1854, 166.7753
398.6675, 168.0415
399.1496, 168.8560
399.6317, 168.4777
400.1138, 168.0304
400.5959, 168.4725
401.0781, 169.9520
401.5602, 171.6796
402.0423, 172.9619
402.5244, 173.8310
403.0065, 174.6292
403.4886, 175.2314
403.9708, 176.0148
404.4529, 177.4011
404.9350, 179.1746
405.4171, 180.7413
405.8992, 181.8910
406.3813, 182.6569
406.8635, 182.9326
407.3456, 182.6416
407.8277, 182.5766
408.3098, 183.2427
408.7919, 184.3401
409.2740, 185.3164
409.7562, 186.0656
410.2383, 186.9000
410.7204, 188.2254
411.2025, 189.8064
411.6846, 190.9433
412.1667, 191.4186
412.6489, 191.5400
413.1310, 191.5603
413.6131, 191.4786
414.0952, 191.6161
414.5773, 192.1054
415.0594, 192.7856
415.5416, 193.6862
416.0237, 194.7326
416.5058, 195.4064
416.9879, 195.2503
417.4700, 194.4743
417.9521, 194.2387
418.4343, 195.0291
418.9164, 195.6790
419.3985, 195.7297
419.8806, 195.4892
420.3627, 195.4894
420.8448, 195.8962
421.3270, 196.3028
421.8091, 196.0634
422.2912, 194.8200
422.7733, 193.9461
423.2554, 193.9715
423.7375, 193.8809
424.2197, 192.8869
424.7018, 191.1979
425.1839, 189.6231
425.6660, 188.7647
426.1481, 188.5066
426.6302, 188.0261
427.1124, 187.0255
427.5945, 186.1678
428.0766, 185.6699
428.5587, 185.2847
429.0408, 184.7765
429.5229, 184.0705
430.0051, 183.2100
430.4872, 182.2297
430.9693, 181.1033
431.4514, 179.9909
431.9335, 178.8773
432.4156, 177.7905
432.8978, 176.7598
433.3799, 175.7651
433.8620, 174.7485
434.3441, 173.6907
434.8262, 172.5818
435.3083, 171.3821
435.7905, 170.0576
436.2726, 168.7462
436.7547, 167.5234
437.2368, 166.3132
437.7189, 165.1015
438.2010, 163.8975
438.6832, 162.5163
439.1653, 160.5509
439.6474, 158.1835
440.1295, 156.4472
440.6116, 155.7041
441.0938, 155.2344
441.5759, 154.5126
442.0580, 153.5798
442.5401, 152.5075
443.0222, 151.2339
443.5043, 149.8901
443.9865, 148.3879
444.4686, 146.8073
444.9507, 145.8948
445.4328, 146.2709
445.9149, 147.2571
446.3970, 147.2053
446.8792, 145.7222
447.3613, 144.5389
447.8434, 144.3712
448.3255, 144.6436
448.8076, 144.6305
449.2897, 144.2165
449.7719, 143.7666
450.2540, 143.6480
450.7361, 143.8851
451.2182, 143.9092
451.7003, 143.3095
452.1824, 142.9760
452.6646, 143.5280
453.1467, 144.5017
453.6288, 145.0349
454.1109, 144.7493
454.5930, 144.1127
455.0751, 144.0589
455.5573, 144.8308
456.0394, 145.7502
456.5215, 147.1964
457.0036, 148.4443
457.4857, 148.9016
457.9678, 148.7284
458.4500, 148.5706
458.9321, 148.9178
459.4142, 149.6973
459.8963, 150.4818
460.3784, 151.2242
460.8605, 152.0578
461.3427, 153.0071
461.8248, 154.0638
462.3069, 155.3057
462.7890, 156.7507
463.2711, 158.1014
463.7532, 158.9309
464.2354, 159.2930
464.7175, 159.9142
465.1996, 161.0570
465.6817, 162.1789
466.1638, 162.7469
466.6459, 162.9914
467.1281, 163.5046
467.6102, 164.5664
468.0923, 165.9003
468.5744, 167.2448
469.0565, 168.6075
469.5386, 169.9757
470.0208, 171.3758
470.5029, 172.7391
470.9850, 173.8424
471.4671, 174.5824
471.9492, 175.6551
472.4313, 177.6958
472.9135, 179.8935
473.3956, 181.1654
473.8777, 181.5235
474.3598, 182.0956
474.8419, 183.8411
475.3240, 186.5814
475.8062, 188.4892
476.2883, 188.9948
476.7704, 189.5041
477.2525, 190.3150
477.7346, 191.2705
478.2167, 192.1953
478.6989, 193.0368
479.1810, 193.7953
479.6631, 194.4695
480.1452, 195.0298
480.6273, 195.6350
481.1094, 196.2318
481.5916, 196.9255
482.0737, 198.2166
482.5558, 199.5392
483.0379, 199.8044
483.5200, 198.3767
484.0021, 196.2254
484.4843, 195.3932
484.9664, 196.3208
485.4485, 196.5022
485.9306, 194.7581
486.4127, 192.7009
486.8948, 191.4670
487.3770, 190.9543
487.8591, 190.3281
488.3412, 189.0558
488.8233, 187.3744
489.3054, 185.7428
489.7875, 184.1884
490.2697, 182.5311
490.7518, 180.5799
491.2339, 178.5383
491.7160, 176.7683
492.1981, 175.3139
492.6802, 174.0278
493.1624, 173.0169
493.6445, 172.0873
494.1266, 170.8950
494.6087, 169.3845
495.0908, 167.8750
495.5729, 166.6471
496.0551, 165.7016
496.5372, 164.7112
497.0193, 163.5611
497.5014, 162.5082
497.9835, 161.6168
498.4656, 160.8714
498.9478, 160.2848
499.4299, 159.8496
499.9120, 159.4475
500.3941, 158.8765
500.8762, 158.0125
501.3583, 157.4604
501.8405, 157.4880
502.3226, 157.5567
502.8047, 157.5404
503.2868, 157.4169
503.7689, 157.1736
504.2510, 156.7981
504.7331, 156.3233
505.2152, 155.7259
505.6974, 154.9312
506.1795, 154.4910
506.6616, 154.8831
507.1437, 155.3215
507.6258, 155.2042
508.1079, 154.5950
508.5901, 153.9184
509.0722, 153.2289
509.5543, 152.6663
510.0364, 152.5384
510.5185, 152.8378
511.0006, 153.0449
511.4828, 152.9195
511.9649, 152.5497
512.4470, 152.1006
512.9291, 151.5366
513.4113, 151.0238
513.8934, 150.7504
514.3755, 150.4633
514.8576, 149.8674
515.3397, 148.9604
515.8218, 147.9598
516.3040, 147.0025
516.7861, 146.0973
517.2682, 145.3241
517.7503, 144.7292
518.2324, 144.2166
518.7145, 143.8208
519.1967, 143.4733
519.6788, 143.1465
520.1609, 142.8144
520.6430, 142.3978
521.1251, 141.7638
521.6072, 140.9224
522.0894, 140.3696
522.5715, 140.3234
523.0536, 140.2197
523.5357, 139.8896
524.0178, 139.3949
524.4999, 138.7926
524.9821, 138.0928
525.4642, 137.3228
525.9463, 136.4198
526.4284, 135.4479
526.9105, 134.6882
527.3926, 134.2187
527.8748, 133.8598
528.3569, 133.4570
528.8390, 133.0528
529.3211, 132.7966
529.8032, 132.9734
530.2853, 132.9950
530.7675, 132.2533
531.2496, 131.1790
531.7317, 130.7530
532.2138, 131.2686
532.6959, 131.9424
533.1780, 131.7644
533.6602, 130.5324
534.1423, 129.7010
534.6244, 129.3590
535.1065, 129.2432
535.5886, 129.4150
536.0707, 129.7015
536.5529, 129.8645
537.0350, 129.8090
537.5171, 129.6180
537.9992, 129.4396
538.4813, 129.3104
538.9634, 128.9961
539.4456, 128.1918
539.9277, 127.5336
540.4098, 127.3349
540.8919, 127.4887
541.3740, 127.7987
541.8561, 128.2608
542.3383, 128.6940
542.8204, 128.8599
543.3025, 128.7781
543.7846, 128.6274
544.2667, 128.4331
544.7488, 128.2177
545.2310, 127.9400
545.7131, 127.6192
546.1952, 127.5156
546.6773, 127.9401
547.1594, 128.3415
547.6415, 128.3007
548.1237, 127.9505
548.6058, 127.5907
549.0879, 127.3335
549.5700, 127.2729
550.0521, 127.6424
550.5342, 128.8327
551.0164, 129.2231
551.4985, 128.0496
551.9806, 126.9820
552.4627, 126.8815
552.9448, 127.4014
553.4269, 127.8208
553.9091, 127.8004
554.3912, 127.5003
554.8733, 127.1417
555.3554, 126.6920
555.8375, 126.3887
556.3196, 126.2111
556.8018, 126.2628
557.2839, 126.7653
557.7660, 127.5357
558.2481, 128.0584
558.7302, 128.1018
559.2123, 127.8782
559.6945, 127.4317
560.1766, 126.8573
560.6587, 126.6536
561.1408, 127.0540
561.6229, 127.5966
562.1050, 127.6772
562.5872, 127.1980
563.0693, 126.9333
563.5514, 126.9058
564.0335, 127.0815
564.5156, 127.6121
564.9977, 128.2979
565.4799, 128.7946
565.9620, 128.9643
566.4441, 128.9380
566.9262, 128.8896
567.4083, 128.7694
567.8904, 128.8286
568.3726, 129.2286
568.8547, 129.6488
569.3368, 130.0176
569.8189, 130.3244
570.3010, 130.5310
570.7831, 130.6014
571.2653, 130.6961
571.7474, 131.1327
572.2295, 131.8336
572.7116, 132.0668
573.1937, 131.4741
573.6758, 131.0053
574.1580, 131.6758
574.6401, 133.1734
575.1222, 134.2706
575.6043, 134.6202
576.0864, 134.8124
576.5685, 135.0566
577.0507, 135.3530
577.5328, 135.7214
578.0149, 136.1617
578.4970, 136.5946
578.9791, 136.8966
579.4612, 137.0480
579.9434, 137.5739
580.4255, 139.1181
580.9076, 140.2786
581.3897, 140.5875
581.8718, 140.5018
582.3539, 140.4651
582.8361, 140.6012
583.3182, 140.8659
583.8003, 141.1473
584.2824, 141.4899
584.7645, 142.3432
585.2466, 144.0061
585.7288, 145.3268
586.2108, 145.4569
586.6929, 145.0288
587.1750, 144.9517
587.6572, 145.3613
588.1393, 145.7973
588.6214, 146.0159
589.1035, 146.1574
589.5856, 146.3298
590.0677, 146.5756
590.5499, 147.1178
591.0320, 148.1724
591.5141, 149.5329
591.9962, 150.4205
592.4783, 150.6060
592.9604, 150.5974
593.4426, 150.1890
593.9247, 149.7670
594.4068, 149.5178
594.8889, 149.4967
595.3710, 149.8159
595.8531, 150.6702
596.3353, 151.6571
596.8174, 151.6032
597.2995, 150.2112
597.7816, 149.5563
598.2637, 150.7471
598.7458, 152.1216
599.2280, 152.0454
599.7101, 150.8072
600.1922, 149.9894
600.6743, 150.1949
601.1564, 150.9214
601.6385, 151.9823
602.1207, 153.2322
602.6028, 154.1515
603.0849, 154.5289
603.5670, 154.9551
604.0491, 156.2892
604.5313, 158.7985
605.0134, 160.5286
605.4955, 160.6972
605.9776, 161.0979
606.4597, 162.4793
606.9418, 164.3442
607.4240, 165.9960
607.9061, 167.2407
608.3882, 168.4234
608.8703, 169.9541
609.3524, 171.8001
609.8345, 173.5334
610.3167, 175.0623
610.7988, 176.6891
611.2809, 178.6436
611.7630, 180.7487
612.2451, 182.7363
612.7272, 184.5200
613.2094, 186.4766
613.6915, 188.8801
614.1736, 191.4982
614.6557, 194.1060
615.1378, 196.6630
615.6199, 199.0063
616.1021, 201.0011
616.5842, 202.7848
617.0663, 204.7188
617.5484, 206.9545
618.0305, 209.1156
618.5126, 211.0134
618.9948, 213.0142
619.4769, 215.4518
619.9590, 218.1484
620.4411, 220.6396
620.9232, 222.6852
621.4053, 224.5058
621.8875, 226.5540
622.3696, 228.8158
622.8517, 230.5541
623.3338, 231.4152
623.8159, 232.1667
624.2980, 233.4319
624.7802, 235.0993
625.2623, 236.8373
625.7444, 238.8738
626.2265, 240.6320
626.7086, 241.8192
627.1907, 242.5880
627.6729, 242.9800
628.1550, 243.0872
628.6371, 243.4132
629.1192, 244.4707
629.6013, 246.1220
630.0834, 247.2038
630.5656, 247.5916
631.0477, 247.5857
631.5298, 246.6863
632.0119, 245.8791
632.4940, 246.0633
632.9761, 247.1214
633.4583, 248.1120
633.9404, 248.4496
634.4225, 248.4220
634.9046, 248.5093
635.3867, 248.6898
635.8688, 248.6428
636.3510, 248.2123
636.8331, 247.6558
637.3152, 247.2815
637.7973, 247.1111
638.2794, 246.8901
638.7615, 246.8228
639.2437, 246.4743
639.7258, 245.3596
640.2079, 243.9753
640.6900, 243.1521
641.1721, 243.0273
641.6542, 242.8575
642.1364, 241.7440
642.6185, 239.7880
643.1006, 238.4184
643.5827, 238.0053
644.0648, 237.3633
644.5469, 235.7613
645.0291, 233.9396
645.5112, 232.6082
645.9933, 231.8145
646.4754, 230.9368
646.9575, 229.5619
647.4396, 228.0714
647.9218, 227.0938
648.4039, 226.4236
648.8860, 225.0236
649.3681, 222.3928
649.8502, 219.4680
650.3323, 217.7419
650.8145, 217.6391
651.2966, 216.7802
651.7787, 214.6456
652.2608, 212.3914
652.7429, 210.2839
653.2250, 208.2930
653.7072, 206.3065
654.1893, 204.3038
654.6714, 202.5477
655.1535, 201.6875
655.6356, 201.2710
656.1177, 199.5112
656.5999, 196.1850
657.0820, 193.0296
657.5641, 190.7985
658.0462, 189.2466
658.5283, 188.0297
659.0104, 187.2563
659.4926, 186.2244
659.9747, 184.6971
660.4568, 183.0227
660.9389, 181.1710
661.4210, 179.3853
661.9031, 178.2090
662.3853, 177.8291
662.8674, 177.7070
663.3495, 177.0069
663.8316, 175.6646
664.3137, 174.7687
664.7958, 174.5779
665.2780, 174.3629
665.7601, 173.6341
666.2422, 172.7826
666.7243, 172.3133
667.2064, 172.3262
667.6885, 172.3032
668.1707, 172.0339
668.6528, 171.5842
669.1349, 170.9585
669.6170, 170.2075
670.0991, 169.5117
670.5812, 168.9615
671.0634, 168.4792
671.5455, 167.9012
672.0276, 167.1323
672.5097, 166.6484
672.9918, 166.8315
673.4739, 166.8847
673.9561, 166.4655
674.4382, 165.8268
674.9203, 165.2514
675.4024, 164.8136
675.8845, 164.5705
676.3666, 164.7647
676.8488, 165.1340
677.3309, 165.0454
677.8130, 164.4776
678.2951, 163.9064
678.7772, 163.5519
679.2593, 163.3160
679.7415, 162.9947
680.2236, 162.4795
680.7057, 162.2372
681.1878, 162.6447
681.6699, 162.9136
682.1520, 162.4286
682.6342, 161.6703
683.1163, 161.5172
683.5984, 162.1863
684.0805, 162.8281
684.5626, 162.3699
685.0447, 161.0474
685.5269, 160.1000
686.0090, 159.5381
686.4911, 159.3909
686.9732, 159.9268
687.4553, 160.6592
687.9374, 160.7273
688.4196, 160.0622
688.9017, 159.5431
689.3838, 159.2521
689.8659, 159.1954
690.3480, 159.6105
690.8301, 160.1939
691.3123, 160.4141
691.7944, 160.1146
692.2765, 159.6079
692.7586, 159.2255
693.2407, 158.9615
693.7228, 158.7860
694.2050, 158.8204
694.6871, 158.5974
695.1692, 157.6807
695.6513, 156.6291
696.1334, 156.1309
696.6155, 156.1843
697.0977, 156.0042
697.5798, 155.0346
698.0619, 154.0532
698.5440, 153.6960
699.0261, 153.7428
699.5082, 153.7904
699.9904, 153.7017
700.4725, 153.4056
700.9546, 152.7780
701.4367, 151.8541
701.9188, 151.1677
702.4009, 150.8744
702.8831, 150.5124
703.3652, 150.1278
703.8473, 149.5045
704.3294, 148.0693
704.8115, 146.0643
705.2936, 144.9597
705.7758, 146.3711
706.2579, 147.9001
706.7400, 147.1721
707.2221, 145.1259
707.7042, 143.8640
708.1863, 143.8672
708.6685, 144.2978
709.1506, 144.4290
709.6327, 144.2903
710.1148, 144.0865
710.5969, 143.7304
711.0790, 143.4725
711.5612, 143.5027
712.0433, 143.4973
712.5254, 143.1518
713.0075, 142.5892
713.4896, 142.2281
713.9717, 142.3250
714.4539, 142.4957
714.9360, 142.3598
715.4181, 142.0479
715.9002, 141.8923
716.3823, 141.9354
716.8644, 141.9166
717.3466, 141.6213
717.8287, 141.1535
718.3108, 140.8952
718.7929, 140.9334
719.2750, 141.0221
719.7571, 141.3683
720.2393, 141.5461
720.7214, 141.2757
721.2035, 140.6964
721.6856, 140.0451
722.1677, 139.3679
722.6498, 138.8103
723.1320, 138.6259
723.6141, 138.6069
724.0962, 138.3064
724.5783, 137.7025
725.0604, 137.0186
725.5425, 136.3278
726.0247, 135.7715
726.5068, 135.6815
726.9889, 136.3334
727.4710, 136.6101
727.9531, 136.4863
728.4352, 136.0260
728.9174, 134.8452
729.3995, 133.5290
729.8816, 132.9432
730.3637, 133.2465
730.8458, 133.5193
731.3279, 132.9938
731.8101, 132.0922
732.2922, 131.5160
732.7743, 131.2282
733.2564, 130.8703
733.7385, 130.3036
734.2206, 129.6871
734.7028, 129.2495
735.1849, 129.0190
735.6670, 128.5407
736.1491, 127.4796
736.6312, 126.6006
737.1133, 126.2128
737.5955, 125.9122
738.0776, 125.3134
738.5597, 124.4352
739.0418, 123.5986
739.5239, 122.9519
740.0060, 122.4340
740.4882, 122.1081
740.9703, 121.8499
741.4524, 121.1957
741.9345, 120.0531
742.4166, 118.8995
742.8987, 118.1194
743.3809, 117.6725
743.8630, 117.3587
744.3451, 117.1455
744.8272, 117.1314
745.3093, 117.9052
745.7914, 118.2964
746.2736, 117.2739
746.7557, 115.4797
747.2378, 114.3160
747.7199, 114.3648
748.2020, 114.4887
748.6841, 113.5906
749.1663, 112.2866
749.6484, 111.6904
750.1305, 111.8071
750.6126, 112.0322
751.0947, 112.0790
751.5768, 111.9448
752.0590, 111.5859
752.5411, 110.9097
753.0232, 110.4587
753.5053, 110.5130
753.9874, 110.4162
754.4695, 109.8912
754.9517, 109.1739
755.4338, 108.4910
755.9159, 107.8725
756.3980, 107.2963
756.8801, 106.7043
757.3622, 106.1851
757.8444, 105.9000
758.3265, 105.7452
758.8086, 105.4010
759.2907, 104.8115
759.7728, 104.3695
760.2549, 104.5223
760.7371, 105.1181
761.2192, 105.1554
761.7013, 104.3474
762.1834, 103.7523
762.6655, 103.5723
763.1476, 103.6436
763.6298, 104.1071
764.1119, 104.7187
764.5940, 104.7589
765.0761, 103.7544
765.5582, 102.8334
766.0403, 102.6362
766.5225, 102.7455
767.0046, 102.7052
767.4867, 102.5162
767.9688, 102.3953
768.4509, 102.4537
768.9330, 102.5964
769.4152, 102.6637
769.8973, 102.6517
770.3794, 102.6708
770.8615, 102.7398
771.3436, 102.7887
771.8257, 102.7506
772.3079, 102.7021
772.7900, 102.6990
773.2721, 102.7179
773.7542, 103.0464
774.2363, 104.4086
774.7184, 105.3430
775.2006, 104.5280
775.6827, 103.1367
776.1648, 102.8663
776.6469, 103.8808
777.1290, 105.0082
777.6111, 105.3422
778.0933, 105.1749
778.5754, 105.1653
779.0575, 105.3028
779.5396, 105.2910
780.0217, 105.0599
780.5038, 104.7072
780.9860, 104.2633
781.4681, 103.7667
781.9502, 103.3732
782.4323, 102.8551
782.9144, 102.8171
783.3965, 103.8477
783.8787, 104.8072
784.3608, 104.9532
784.8429, 104.5967
785.3250, 104.2825
785.8071, 104.1805
786.2892, 104.3498
786.7714, 105.1023
787.2535, 106.0460
787.7356, 106.3318
788.2177, 106.0422
788.6998, 106.0036
789.1819, 106.5528
789.6641, 107.0973
790.1462, 106.8352
790.6283, 105.7724
791.1104, 105.3309
791.5925, 106.1404
792.0746, 106.5080
792.5568, 105.6834
793.0389, 104.7333
793.5210, 104.3847
794.0031, 104.5484
794.4852, 104.8281
794.9673, 105.2633
795.4495, 105.4789
795.9316, 105.0313
796.4137, 104.3495
796.8958, 104.0344
797.3779, 104.0542
797.8600, 103.9963
798.3422, 103.6454
798.8243, 103.1521
799.3064, 102.7407
799.7885, 102.4096
800.2706, 102.1602
800.7527, 101.9962
801.2349, 101.9176
801.7170, 102.0343
802.1991, 102.1384
802.6812, 101.8852
803.1633, 101.2764
803.6454, 100.7705
804.1276, 100.4746
804.6097, 100.2117
805.0918, 99.89240
805.5739, 99.59610
806.0560, 99.46834
806.5381, 99.46047
807.0203, 99.33922
807.5024, 98.95286
807.9845, 98.44533
808.4666, 97.97814
808.9487, 97.55818
809.4308, 97.20708
809.9130, 96.92587
810.3951, 96.74721
810.8772, 96.71082
811.3593, 96.73679
811.8414, 96.65868
812.3235, 96.44156
812.8057, 96.24964
813.2878, 96.25632
813.7699, 96.06377
814.2520, 95.35323
814.7341, 94.53488
815.2162, 94.03162
815.6984, 93.86247
816.1805, 93.75193
816.6626, 93.51775
817.1447, 93.37397
817.6268, 93.58367
818.1089, 93.94267
818.5911, 94.14417
819.0732, 94.14433
819.5553, 94.03797
820.0374, 93.88462
820.5195, 93.67173
821.0016, 93.30298
821.4838, 92.76633
821.9659, 92.56423
822.4480, 92.84776
822.9301, 93.08445
823.4122, 93.01756
823.8943, 92.73418
824.3765, 92.31031
824.8586, 91.64720
825.3407, 91.37044
825.8228, 91.92275
826.3049, 92.35368
826.7870, 92.19389
827.2692, 91.84898
827.7513, 91.70718
828.2334, 91.82021
828.7155, 92.12849
829.1976, 92.79499
829.6797, 93.27732
830.1619, 92.66329
830.6440, 91.45866
831.1261, 90.91712
831.6082, 91.14423
832.0903, 91.51344
832.5724, 91.67155
833.0546, 91.72555
833.5367, 91.89464
834.0188, 92.20710
834.5009, 92.46288
834.9830, 92.78746
835.4651, 92.79672
835.9473, 92.24090
836.4294, 91.38234
836.9115, 90.36402
837.3936, 89.21950
837.8757, 88.51020
838.3578, 88.51163
838.8400, 88.72374
839.3221, 89.21871
839.8042, 89.64779
840.2863, 89.46750
840.7684, 88.89257
841.2505, 88.74802
841.7327, 89.49392
842.2148, 90.36738
842.6969, 90.27132
843.1790, 89.60947
843.6611, 89.71049
844.1432, 90.57067
844.6254, 90.97298
845.1075, 90.37137
845.5896, 89.30237
846.0717, 88.41315
846.5538, 87.70600
847.0359, 87.39163
847.5181, 87.59071
848.0002, 87.95580
848.4823, 88.66788
848.9644, 89.29260
849.4465, 89.42737
849.9286, 89.23718
850.4108, 89.25712
850.8929, 89.77230
851.3750, 90.04698
851.8571, 89.59348
852.3392, 88.99906
852.8214, 88.73903
853.3035, 88.72195
853.7856, 88.66891
854.2677, 88.49831
854.7498, 88.38600
855.2319, 88.64463
855.7141, 89.00603
856.1962, 88.67889
856.6783, 87.80044
857.1604, 87.39295
857.6425, 87.72997
858.1246, 88.26750
858.6068, 88.60610
859.0889, 88.72439
859.5710, 88.48391
860.0531, 87.59402
860.5352, 87.13028
861.0173, 87.50429
861.4995, 87.81558
861.9816, 87.54041
862.4637, 87.03676
862.9458, 86.84803
863.4279, 87.04627
863.9100, 86.93056
864.3922, 85.73495
864.8743, 84.85263
865.3564, 85.47987
865.8385, 86.54835
866.3206, 86.62110
866.8027, 85.76281
867.2849, 85.15658
867.7670, 85.54701
868.2491, 86.19517
868.7312, 86.04815
869.2133, 85.40348
869.6954, 85.10897
870.1776, 85.21904
870.6597, 85.50105
871.1418, 85.87608
871.6239, 86.16446
872.1060, 86.07449
872.5881, 85.61060
873.0703, 85.39993
873.5524, 85.58056
874.0345, 85.66591
874.5166, 85.56694
874.9987, 85.32270
875.4808, 84.70902
875.9630, 83.97054
876.4451, 83.92747
876.9272, 85.15133
877.4093, 85.94078
877.8914, 85.62841
878.3735, 85.12804
878.8557, 84.94493
879.3378, 84.97275
879.8199, 84.96046
880.3020, 84.86559
880.7841, 84.88821
881.2662, 85.41592
881.7484, 85.89466
882.2305, 85.28391
882.7126, 84.15955
883.1947, 84.12231
883.6768, 85.26694
884.1589, 86.16747
884.6411, 85.88285
885.1232, 84.96738
885.6053, 84.46354
886.0874, 84.37508
886.5695, 84.57866
887.0516, 85.20745
887.5338, 85.53432
888.0159, 85.17136
888.4980, 84.56418
888.9801, 84.23029
889.4622, 84.16875
889.9443, 84.09760
890.4265, 84.13956
890.9086, 83.99580
891.3907, 83.17983
891.8728, 82.61650
892.3549, 83.22398
892.8370, 84.40279
893.3192, 84.94227
893.8013, 84.53172
894.2834, 83.90560
894.7655, 83.07443
895.2476, 82.50574
895.7297, 82.87109
896.2119, 83.66354
896.6940, 83.94953
897.1761, 83.62930
897.6582, 83.35860
898.1403, 83.62414
898.6224, 84.08823
899.1046, 84.23475
899.5867, 84.09767
900.0688, 83.72666
900.5509, 83.14124
901.0330, 82.87254
901.5151, 83.22491
901.9973, 83.70285
902.4794, 83.51431
902.9615, 82.65815
903.4436, 82.32437
903.9257, 82.76583
904.4078, 83.07349
904.8900, 83.09505
905.3721, 82.88436
905.8542, 82.24111
906.3363, 81.41438
906.8184, 81.22291
907.3005, 82.04749
907.7827, 82.60174
908.2648, 82.49998
908.7469, 82.35144
909.2290, 82.49490
909.7111, 82.73457
910.1932, 82.77981
910.6754, 82.62258
911.1575, 82.52633
911.6396, 82.68627
912.1217, 82.85123
912.6038, 82.83976
913.0859, 82.69367
913.5681, 82.34079
914.0502, 81.90181
914.5323, 81.79025
915.0144, 82.18092
915.4965, 82.69705
915.9786, 82.92890
916.4607, 82.91082
916.9428, 82.66797
917.4249, 82.23169
917.9070, 82.11088
918.3892, 82.46410
918.8713, 82.72543
919.3534, 82.38448
919.8355, 81.72289
920.3176, 81.68131
920.7997, 82.56657
921.2819, 82.86704
921.7640, 82.12759
922.2461, 81.66782
922.7282, 82.26221
923.2103, 83.17712
923.6924, 83.51492
924.1746, 83.30593
924.6567, 83.03997
925.1388, 82.51110
925.6209, 82.24478
926.1030, 82.65462
926.5851, 83.04885
927.0673, 82.76419
927.5494, 82.18963
928.0315, 82.16633
928.5136, 82.91418
928.9957, 83.49013
929.4778, 83.25586
929.9600, 82.79725
930.4421, 82.50833
930.9242, 82.35445
931.4063, 82.30700
931.8884, 82.32131
932.3705, 82.28679
932.8527, 82.14403
933.3348, 81.90861
933.8169, 81.43472
934.2990, 80.92155
934.7811, 81.11989
935.2632, 81.91314
935.7454, 82.13159
936.2275, 81.38673
936.7096, 80.84700
937.1917, 81.79503
937.6738, 83.66962
938.1559, 84.16283
938.6381, 83.05083
939.1202, 82.39079
939.6023, 82.48943
940.0844, 82.71301
940.5665, 82.76305
941.0486, 82.73120
941.5308, 82.77281
942.0129, 82.90434
942.4950, 82.91999
942.9771, 82.59048
943.4592, 82.49316
943.9413, 83.01031
944.4235, 83.47970
944.9056, 83.38063
945.3877, 82.95599
945.8698, 82.75212
946.3519, 82.87535
946.8340, 83.04440
947.3162, 83.32775
947.7983, 83.47946
948.2804, 83.29041
948.7625, 82.95316
949.2446, 82.56980
949.7267, 82.24772
950.2089, 82.29243
950.6910, 82.97463
951.1731, 83.60105
951.6552, 83.49490
952.1373, 83.12282
952.6194, 83.10770
953.1016, 83.31683
953.5837, 83.28169
954.0658, 82.90374
954.5479, 82.53632
955.0300, 82.46067
955.5121, 82.58244
955.9943, 82.77132
956.4764, 83.00655
956.9585, 83.22817
957.4406, 83.42342
957.9227, 83.51214
958.4048, 83.45508
958.8870, 83.30361
959.3691, 83.08703
959.8512, 82.84118
960.3333, 82.94942
960.8154, 83.50917
961.2975, 83.61979
961.7797, 82.94853
962.2618, 82.40236
962.7439, 82.63637
963.2260, 83.30587
963.7081, 83.68489
964.1902, 83.73453
964.6724, 83.69841
965.1545, 83.46603
965.6366, 83.33272
966.1187, 83.38424
966.6008, 83.54227
967.0829, 83.88927
967.5651, 84.28926
968.0472, 84.27116
968.5293, 83.51665
969.0114, 83.12357
969.4935, 83.48389
969.9756, 83.94685
970.4578, 84.38377
970.9399, 84.66494
971.4220, 84.53651
971.9041, 84.10561
972.3862, 83.93958
972.8683, 84.44252
973.3505, 84.76149
973.8326, 84.22224
974.3147, 83.52393
974.7968, 83.22211
975.2789, 83.25425
975.7610, 83.50050
976.2432, 83.88349
976.7253, 84.19274
977.2074, 84.25552
977.6895, 84.24780
978.1716, 84.35900
978.6537, 84.53300
979.1359, 84.70166
979.6180, 84.84251
980.1001, 84.89389
980.5822, 84.84155
981.0643, 84.81194
981.5464, 84.97652
982.0286, 85.20596
982.5107, 85.06580
982.9928, 84.69207
983.4749, 84.87869
983.9570, 85.68824
984.4391, 86.27146
984.9213, 86.16780
985.4034, 85.76827
985.8855, 85.63449
986.3676, 85.72991
986.8497, 85.73926
987.3318, 85.65470
987.8140, 85.55149
988.2961, 85.41565
988.7782, 85.38255
989.2603, 85.51420
989.7424, 85.86929
990.2245, 86.68554
990.7067, 88.13276
991.1888, 88.54998
991.6709, 87.32862
992.1530, 86.59727
992.6351, 87.11559
993.1172, 87.86685
993.5994, 88.10713
994.0815, 87.96790
994.5636, 87.82697
995.0457, 87.60139
995.5278, 87.60842
996.0099, 88.14642
996.4921, 88.52498
996.9742, 88.35914
997.4563, 88.14178
997.9384, 88.40733
998.4205, 88.98071
998.9026, 89.16006
999.3848, 88.55371
999.8669, 88.34728
1000.349, 89.26956
1000.831, 90.05715
1001.313, 89.88604
1001.795, 89.41821
1002.277, 89.44316
1002.760, 89.91520
1003.242, 90.23562
1003.724, 90.12043
1004.206, 90.07479
1004.688, 90.45154
1005.170, 90.86789
1005.652, 90.93819
1006.134, 90.89915
1006.617, 91.18628
1007.099, 91.79778
1007.581, 92.32117
1008.063, 92.56730
1008.545, 92.62914
1009.027, 92.34574
1009.509, 92.10140
1009.991, 92.41225
1010.473, 93.11763
1010.956, 93.93433
1011.438, 94.71350
1011.920, 95.09487
1012.402, 94.67126
1012.884, 94.14463
1013.366, 94.53918
1013.848, 95.37400
1014.330, 95.73193
1014.813, 95.66065
1015.295, 95.51526
1015.777, 95.44337
1016.259, 95.64615
1016.741, 96.38037
1017.223, 97.30491
1017.705, 97.77268
1018.187, 97.89417
1018.669, 97.95500
1019.152, 98.02504
1019.634, 98.43104
1020.116, 99.28481
1020.598, 100.1160
1021.080, 100.4336
1021.562, 100.3734
1022.044, 100.1938
1022.526, 99.93823
1023.008, 100.1389
1023.491, 100.8494
1023.973, 101.5785
1024.455, 102.1272
1024.937, 102.5500
1025.419, 102.9051
1025.901, 103.1897
1026.383, 103.3126
1026.865, 103.2355
1027.348, 103.6996
1027.830, 104.9156
1028.312, 105.7867
1028.794, 105.7350
1029.276, 105.4113
1029.758, 105.6730
1030.240, 106.4007
1030.722, 106.5567
1031.204, 105.9137
1031.687, 105.7457
1032.169, 106.2821
1032.651, 107.0098
1033.133, 107.8113
1033.615, 108.4650
1034.097, 108.6010
1034.579, 108.2728
1035.061, 108.3347
1035.544, 109.0037
1036.026, 109.4764
1036.508, 109.5049
1036.990, 109.6875
1037.472, 110.4667
1037.954, 111.3637
1038.436, 111.6490
1038.918, 111.3580
1039.401, 111.6009
1039.883, 112.9162
1040.365, 113.7533
1040.847, 113.8270
1041.329, 113.6638
1041.811, 113.2941
1042.293, 112.9468
1042.775, 112.8818
1043.257, 113.1001
1043.740, 113.6171
1044.222, 114.9849
1044.704, 115.7986
1045.186, 115.5834
1045.668, 115.2758
1046.150, 115.3352
1046.632, 115.4915
1047.114, 115.1978
1047.596, 114.5347
1048.079, 114.7115
1048.561, 116.8928
1049.043, 118.2992
1049.525, 118.0477
1050.007, 117.5953
1050.489, 117.7324
1050.971, 117.9926
1051.453, 117.6420
1051.936, 116.7616
1052.418, 116.3403
1052.900, 116.8110
1053.382, 117.2747
1053.864, 117.5146
1054.346, 117.7616
1054.828, 118.1309
1055.310, 118.5786
1055.792, 119.1350
1056.275, 119.7385
1056.757, 120.0637
1057.239, 119.9505
1057.721, 119.7401
1058.203, 119.3271
1058.685, 119.0657
1059.167, 119.2863
1059.649, 119.6745
1060.131, 119.8027
1060.614, 119.7260
1061.096, 119.9063
1061.578, 120.6346
1062.060, 121.1659
1062.542, 121.1214
1063.024, 120.9513
1063.506, 120.8282
1063.988, 120.7769
1064.471, 120.9065
1064.953, 121.1232
1065.435, 121.0176
1065.917, 120.2577
1066.399, 119.9766
1066.881, 121.2396
1067.363, 122.3935
1067.845, 122.3401
1068.328, 121.7700
1068.810, 121.3749
1069.292, 121.2036
1069.774, 121.0919
1070.256, 121.0047
1070.738, 120.9210
1071.220, 120.8760
1071.702, 120.7815
1072.184, 120.5608
1072.667, 120.2851
1073.149, 119.9659
1073.631, 119.6704
1074.113, 119.6174
1074.595, 119.9051
1075.077, 119.9188
1075.559, 119.1434
1076.041, 118.3074
1076.523, 117.7174
1077.006, 117.3465
1077.488, 117.3449
1077.970, 117.4759
1078.452, 117.2164
1078.934, 116.4437
1079.416, 115.6906
1079.898, 115.1325
1080.380, 114.7249
1080.862, 114.5226
1081.345, 114.3863
1081.827, 114.3227
1082.309, 114.1803
1082.791, 113.6020
1083.273, 112.5687
1083.755, 111.7716
1084.237, 111.7176
1084.719, 111.6532
1085.202, 111.0344
1085.684, 110.4467
1086.166, 110.5838
1086.648, 110.9607
1087.130, 110.7225
1087.612, 109.8259
1088.094, 108.9975
1088.576, 108.3387
1089.058, 108.1276
1089.541, 109.0417
1090.023, 109.8564
1090.505, 109.5528
1090.987, 108.7227
1091.469, 108.0675
1091.951, 107.7061
1092.433, 107.6597
1092.915, 108.1265
1093.397, 108.3434
1093.880, 107.7798
1094.362, 107.1463
1094.844, 106.9243
1095.326, 106.8066
1095.808, 106.2325
1096.290, 105.4542
1096.772, 105.4552
1097.254, 106.7187
1097.737, 107.4962
1098.219, 106.5738
1098.701, 105.8269
1099.183, 106.4772
1099.665, 107.3482
1100.147, 107.2982
1100.629, 106.6373
1101.111, 106.1983
1101.594, 106.1254
1102.076, 106.1717
1102.558, 106.4460
1103.040, 106.5914
1103.522, 106.4080
1104.004, 106.1423
1104.486, 105.8574
1104.968, 105.6618
1105.450, 105.7677
1105.932, 106.1803
1106.415, 106.4960
1106.897, 106.6973
1107.379, 106.7060
1107.861, 106.1661
1108.343, 105.8185
1108.825, 106.2417
1109.307, 106.9354
1109.789, 107.3532
1110.272, 107.4688
1110.754, 107.3526
1111.236, 106.7159
1111.718, 106.4335
1112.200, 106.9630
1112.682, 107.3716
1113.164, 107.2401
1113.646, 106.9363
1114.129, 106.6617
1114.611, 106.4943
1115.093, 106.7329
1115.575, 107.6391
1116.057, 108.1410
1116.539, 107.9161
1117.021, 107.7790
1117.503, 108.0593
1117.985, 108.2593
1118.468, 107.9048
1118.950, 107.3407
1119.432, 107.2565
1119.914, 107.7021
1120.396, 108.0184
1120.878, 108.1865
1121.360, 108.2475
1121.842, 108.0686
1122.324, 108.0582
1122.807, 108.5866
1123.289, 109.1466
1123.771, 109.0148
1124.253, 108.3067
1124.735, 108.0322
1125.217, 108.3878
1125.699, 108.4443
1126.181, 108.0169
1126.664, 107.7628
1127.146, 107.9866
1127.628, 108.2348
1128.110, 108.0501
1128.592, 107.6306
1129.074, 107.5966
1129.556, 108.0031
1130.038, 108.1797
1130.521, 108.0845
1131.003, 108.1013
1131.485, 108.3644
1131.967, 108.3839
1132.449, 107.7772
1132.931, 107.0313
1133.413, 106.9946
1133.895, 107.5436
1134.377, 107.7737
1134.859, 107.7005
1135.342, 107.8585
1135.824, 108.3090
1136.306, 108.3611
1136.788, 107.7045
1137.270, 106.8634
1137.752, 106.3490
1138.234, 106.1479
1138.716, 106.3220
1139.199, 106.7809
1139.681, 107.2304
1140.163, 107.5969
1140.645, 107.5189
1141.127, 106.9543
1141.609, 106.4804
1142.091, 106.5097
1142.573, 106.7136
1143.056, 106.5865
1143.538, 106.3301
1144.020, 106.5045
1144.502, 106.8525
1144.984, 106.5160
1145.466, 105.6001
1145.948, 105.1535
1146.430, 105.6107
1146.912, 106.1568
1147.395, 105.9238
1147.877, 105.5848
1148.359, 106.1980
1148.841, 106.9809
1149.323, 106.5854
1149.805, 105.4914
1150.287, 105.0170
1150.769, 105.3978
1151.251, 105.8482
1151.734, 106.0086
1152.216, 106.0069
1152.698, 105.7866
1153.180, 105.5839
1153.662, 105.6994
1154.144, 105.8823
1154.626, 105.7638
1155.108, 105.3971
1155.591, 105.0482
1156.073, 104.7517
1156.555, 104.7186
1157.037, 105.2568
1157.519, 105.7621
1158.001, 106.0529
1158.483, 106.1553
1158.965, 105.9257
1159.448, 105.6075
1159.930, 105.7058
1160.412, 106.2465
1160.894, 106.4009
1161.376, 105.6959
1161.858, 105.2055
1162.340, 105.1421
1162.822, 105.1520
1163.304, 105.1734
1163.786, 105.1502
1164.269, 105.0488
1164.751, 104.8539
1165.233, 104.4625
1165.715, 103.7237
1166.197, 103.4924
1166.679, 103.9462
1167.161, 104.4369
1167.643, 104.9167
1168.126, 105.1710
1168.608, 104.9893
1169.090, 104.7156
1169.572, 104.9267
1170.054, 105.5037
1170.536, 105.4586
1171.018, 104.7538
1171.500, 104.2324
1171.983, 103.9564
1172.465, 104.1627
1172.947, 104.9604
1173.429, 105.6371
1173.911, 105.5603
1174.393, 105.1522
1174.875, 105.2938
1175.357, 105.7780
1175.839, 105.7195
1176.322, 105.2627
1176.804, 105.1478
1177.286, 105.4131
1177.768, 105.4244
1178.250, 104.9026
1178.732, 104.3669
1179.214, 104.3303
1179.696, 104.5243
1180.178, 104.8027
1180.661, 104.9271
1181.143, 104.2356
1181.625, 103.1740
1182.107, 102.8615
1182.589, 103.3913
1183.071, 103.9128
1183.553, 104.0812
1184.035, 103.9398
1184.518, 102.9583
1185.000, 102.3150
1185.482, 103.2658
1185.964, 104.6394
1186.446, 105.2183
1186.928, 105.1580
1187.410, 105.1120
1187.892, 105.1982
1188.375, 104.9977
1188.857, 104.0562
1189.339, 103.3553
1189.821, 102.9689
1190.303, 103.0184
1190.785, 103.9488
1191.267, 105.0384
1191.749, 105.5021
1192.231, 105.4765
1192.714, 105.4991
1193.196, 105.6207
1193.678, 105.5759
1194.160, 105.2584
1194.642, 105.0889
1195.124, 105.2306
1195.606, 105.2646
1196.088, 104.8731
1196.570, 104.4784
1197.053, 104.7467
1197.535, 105.4679
1198.017, 105.5089
1198.499, 104.8907
1198.981, 104.5882
1199.463, 104.6496
1199.945, 104.5886
1200.427, 104.2778
1200.910, 104.1783
1201.392, 104.6300
1201.874, 105.2535
1202.356, 105.6209
1202.838, 105.7037
1203.320, 105.3532
1203.802, 104.7034
1204.284, 103.7849
1204.766, 102.8812
1205.249, 102.9455
1205.731, 104.1435
1206.213, 105.2241
1206.695, 105.4103
1207.177, 105.2508
1207.659, 104.9120
1208.141, 104.6698
1208.623, 104.9656
1209.105, 105.3615
1209.588, 105.1790
1210.070, 104.6040
1210.552, 104.4235
1211.034, 104.8682
1211.516, 105.0226
1211.998, 104.1987
1212.480, 103.7573
1212.962, 104.6650
1213.445, 105.2870
1213.927, 104.2916
1214.409, 102.9534
1214.891, 102.6848
1215.373, 103.2600
1215.855, 103.6853
1216.337, 103.9503
1216.819, 104.0935
1217.302, 104.0958
1217.784, 104.0449
1218.266, 103.9560
1218.748, 103.8182
1219.230, 103.6146
1219.712, 103.4008
1220.194, 103.2319
1220.676, 103.1324
1221.158, 103.2587
1221.641, 103.5335
1222.123, 103.5716
1222.605, 103.3513
1223.087, 102.7808
1223.569, 101.9250
1224.051, 101.3190
1224.533, 101.2653
1225.015, 101.4530
1225.497, 101.7044
1225.980, 101.8909
1226.462, 101.8378
1226.944, 101.6463
1227.426, 101.2773
1227.908, 100.9493
1228.390, 101.2317
1228.872, 102.0582
1229.354, 102.4165
1229.837, 101.7558
1230.319, 101.2038
1230.801, 101.1981
1231.283, 101.3089
1231.765, 101.6124
1232.247, 101.7063
1232.729, 100.9957
1233.211, 100.0061
1233.693, 99.75194
1234.176, 100.2004
1234.658, 100.3586
1235.140, 100.1585
1235.622, 99.82861
1236.104, 99.25040
1236.586, 99.07335
1237.068, 99.60417
1237.550, 99.99574
1238.032, 99.58810
1238.515, 98.89671
1238.997, 98.84065
1239.479, 99.19931
1239.961, 98.99881
1240.443, 98.39041
1240.925, 98.02193
1241.407, 97.94608
1241.889, 98.10335
1242.372, 98.43962
1242.854, 98.75290
1243.336, 98.92028
1243.818, 99.01801
1244.300, 99.21371
1244.782, 99.27444
1245.264, 98.77477
1245.746, 98.16788
1246.229, 98.02476
1246.711, 98.20307
1247.193, 98.39019
1247.675, 98.50735
1248.157, 98.41566
1248.639, 98.00626
1249.121, 97.53687
1249.603, 96.80479
1250.085, 96.36680
1250.568, 96.62812
1251.050, 96.93787
1251.532, 96.80077
1252.014, 96.52473
1252.496, 96.68563
1252.978, 97.20874
1253.460, 97.19746
1253.942, 96.58092
1254.424, 96.24240
1254.907, 96.24767
1255.389, 96.16893
1255.871, 95.89014
1256.353, 95.51923
1256.835, 95.11398
1257.317, 94.81662
1257.799, 94.78972
1258.281, 95.00870
1258.764, 95.63589
1259.246, 96.35307
1259.728, 96.61066
1260.210, 96.46001
1260.692, 96.05275
1261.174, 95.49465
1261.656, 95.02775
1262.138, 94.76807
1262.620, 94.50397
1263.103, 94.02332
1263.585, 93.67341
1264.067, 93.68159
1264.549, 93.79665
1265.031, 93.83327
1265.513, 93.87380
1265.995, 94.10585
1266.477, 94.45872
1266.959, 94.54821
1267.442, 94.28929
1267.924, 94.11723
1268.406, 94.05070
1268.888, 93.98125
1269.370, 93.88804
1269.852, 93.81393
1270.334, 93.79005
1270.816, 93.67275
1271.299, 93.24854
1271.781, 92.79810
1272.263, 93.10148
1272.745, 93.72762
1273.227, 93.43705
1273.709, 92.63624
1274.191, 92.50313
1274.673, 92.98048
1275.156, 93.11117
1275.638, 92.61471
1276.120, 92.38477
1276.602, 93.26183
1277.084, 93.89500
1277.566, 93.38963
1278.048, 92.70577
1278.530, 92.43633
1279.012, 92.25097
1279.495, 91.63200
1279.977, 90.89199
1280.459, 90.88515
1280.941, 91.62804
1281.423, 91.81127
1281.905, 91.24812
1282.387, 90.83109
1282.869, 90.58495
1283.351, 90.76760
1283.834, 91.51435
1284.316, 92.10013
1284.798, 92.02137
1285.280, 91.61396
1285.762, 91.28915
1286.244, 91.09066
##END=



