##NAMES=Cuprostibite
##RRUFFID=R060838
##IDEAL CHEMISTRY=Cu_2_(Sb,Tl)
##LOCALITY=Mount Nakalak, Ilimaussaq, Greenland
##OWNER=RRUFF
##SOURCE=Michael Scott
##DESCRIPTION=Gray metallic with purple-red tint, massive
##STATUS=The identification of this mineral is confirmed by single-crystal X-ray diffraction and chemical analysis.
##URL=rruff.info/R060838
##MEASURED CHEMISTRY=Cu_2.00_Sb_1.00_; trace amounts of S
142.7361, 1784.354
143.2183, 1785.115
143.7004, 1792.282
144.1825, 1809.289
144.6646, 1829.898
145.1467, 1845.126
145.6288, 1848.450
146.1110, 1856.060
146.5931, 1874.851
147.0752, 1914.514
147.5573, 1938.223
148.0394, 1937.151
148.5215, 1921.511
149.0037, 1912.093
149.4858, 1911.538
149.9679, 1914.906
150.4500, 1920.851
150.9321, 1934.668
151.4142, 1943.825
151.8964, 1943.285
152.3785, 1936.846
152.8606, 1938.385
153.3427, 1957.786
153.8248, 1979.439
154.3069, 1995.380
154.7890, 2005.319
155.2712, 2009.454
155.7533, 2001.807
156.2354, 1984.262
156.7175, 1977.908
157.1996, 1996.286
157.6817, 2022.841
158.1639, 2044.395
158.6460, 2049.063
159.1281, 2056.260
159.6102, 2072.455
160.0923, 2098.179
160.5744, 2126.846
161.0566, 2157.099
161.5387, 2188.652
162.0208, 2221.189
162.5029, 2251.335
162.9850, 2284.685
163.4671, 2325.576
163.9493, 2375.507
164.4314, 2425.264
164.9135, 2465.399
165.3956, 2502.569
165.8777, 2548.469
166.3598, 2614.396
166.8420, 2687.534
167.3241, 2759.239
167.8062, 2829.215
168.2883, 2895.628
168.7704, 2954.791
169.2525, 3009.553
169.7346, 3067.867
170.2168, 3137.112
170.6989, 3210.535
171.1810, 3280.451
171.6631, 3343.648
172.1452, 3405.549
172.6273, 3474.750
173.1095, 3548.692
173.5916, 3617.680
174.0737, 3678.952
174.5558, 3730.462
175.0379, 3768.500
175.5201, 3793.739
176.0022, 3804.100
176.4843, 3798.679
176.9664, 3777.309
177.4485, 3735.781
177.9306, 3667.576
178.4128, 3576.640
178.8949, 3470.162
179.3770, 3343.188
179.8591, 3204.926
180.3412, 3066.597
180.8233, 2926.454
181.3055, 2794.840
181.7876, 2679.414
182.2697, 2580.100
182.7518, 2492.063
183.2339, 2416.965
183.7160, 2351.904
184.1982, 2290.621
184.6803, 2232.229
185.1624, 2181.599
185.6445, 2148.076
186.1266, 2129.945
186.6087, 2112.197
187.0908, 2084.610
187.5730, 2050.456
188.0551, 2024.462
188.5372, 2007.753
189.0193, 1997.803
189.5014, 1993.231
189.9835, 1993.828
190.4657, 1991.311
190.9478, 1978.289
191.4299, 1956.294
191.9120, 1939.124
192.3941, 1929.438
192.8762, 1923.200
193.3584, 1910.551
193.8405, 1890.947
194.3226, 1873.207
194.8047, 1863.703
195.2868, 1862.305
195.7689, 1864.636
196.2511, 1872.293
196.7332, 1881.876
197.2153, 1883.552
197.6974, 1877.090
198.1795, 1864.485
198.6616, 1842.212
199.1438, 1808.620
199.6259, 1789.262
200.1080, 1792.167
200.5901, 1812.170
201.0722, 1825.668
201.5543, 1831.683
202.0364, 1834.642
202.5186, 1838.818
203.0007, 1844.752
203.4828, 1847.664
203.9649, 1845.670
204.4470, 1839.332
204.9291, 1833.301
205.4113, 1826.056
205.8934, 1822.207
206.3755, 1829.372
206.8576, 1851.473
207.3397, 1867.043
207.8218, 1868.858
208.3040, 1857.073
208.7861, 1848.632
209.2682, 1843.876
209.7503, 1842.184
210.2324, 1843.792
210.7145, 1850.263
211.1967, 1855.266
211.6788, 1857.529
212.1609, 1857.223
212.6430, 1852.121
213.1251, 1839.999
213.6072, 1825.813
214.0894, 1817.033
214.5715, 1816.006
215.0536, 1814.342
215.5357, 1807.974
216.0178, 1794.748
216.4999, 1789.649
216.9820, 1797.128
217.4642, 1808.939
217.9463, 1809.536
218.4284, 1791.360
218.9105, 1777.956
219.3926, 1780.886
219.8747, 1807.862
220.3569, 1820.866
220.8390, 1814.057
221.3211, 1796.656
221.8032, 1786.768
222.2853, 1788.092
222.7674, 1790.442
223.2496, 1790.044
223.7317, 1786.759
224.2138, 1780.541
224.6959, 1767.326
225.1780, 1752.874
225.6601, 1751.927
226.1423, 1773.847
226.6244, 1793.988
227.1065, 1799.918
227.5886, 1782.052
228.0707, 1773.142
228.5528, 1777.870
229.0350, 1790.739
229.5171, 1795.730
229.9992, 1790.243
230.4813, 1780.766
230.9634, 1769.734
231.4455, 1754.484
231.9276, 1743.139
232.4098, 1735.612
232.8919, 1732.151
233.3740, 1734.552
233.8561, 1746.553
234.3382, 1759.139
234.8203, 1767.515
235.3025, 1768.752
235.7846, 1772.109
236.2667, 1779.934
236.7488, 1790.392
237.2309, 1795.232
237.7130, 1792.599
238.1952, 1786.803
238.6773, 1779.344
239.1594, 1766.452
239.6415, 1760.160
240.1236, 1764.163
240.6057, 1775.890
241.0879, 1782.633
241.5700, 1783.058
242.0521, 1780.141
242.5342, 1774.302
243.0163, 1759.375
243.4984, 1754.793
243.9806, 1767.196
244.4627, 1792.419
244.9448, 1806.358
245.4269, 1803.120
245.9090, 1795.727
246.3911, 1792.410
246.8732, 1795.810
247.3554, 1797.884
247.8375, 1799.457
248.3196, 1799.574
248.8017, 1790.225
249.2838, 1761.815
249.7659, 1736.560
250.2481, 1730.282
250.7302, 1753.512
251.2123, 1773.043
251.6944, 1786.539
252.1765, 1794.002
252.6586, 1794.796
253.1408, 1784.757
253.6229, 1773.862
254.1050, 1769.780
254.5871, 1777.866
255.0692, 1779.775
255.5513, 1769.797
256.0334, 1751.064
256.5156, 1743.530
256.9977, 1750.766
257.4798, 1764.173
257.9619, 1779.671
258.4440, 1802.423
258.9261, 1813.549
259.4083, 1807.073
259.8904, 1786.054
260.3725, 1771.279
260.8546, 1762.567
261.3367, 1760.086
261.8188, 1765.922
262.3010, 1785.333
262.7831, 1797.623
263.2652, 1798.667
263.7473, 1790.353
264.2294, 1783.128
264.7115, 1776.316
265.1937, 1771.927
265.6758, 1771.565
266.1579, 1775.622
266.6400, 1782.683
267.1221, 1794.266
267.6042, 1808.771
268.0864, 1817.370
268.5685, 1818.663
269.0506, 1817.331
269.5327, 1818.237
270.0148, 1823.932
270.4969, 1819.476
270.9791, 1798.656
271.4612, 1767.246
271.9433, 1750.219
272.4254, 1750.073
272.9075, 1757.448
273.3896, 1767.673
273.8718, 1781.638
274.3539, 1792.047
274.8360, 1797.632
275.3181, 1799.319
275.8002, 1799.973
276.2823, 1799.213
276.7645, 1798.689
277.2466, 1799.113
277.7287, 1800.359
278.2108, 1804.584
278.6929, 1814.058
279.1750, 1825.116
279.6572, 1825.160
280.1393, 1811.891
280.6214, 1799.641
281.1035, 1799.705
281.5856, 1812.260
282.0677, 1822.362
282.5499, 1828.612
283.0320, 1831.241
283.5141, 1830.190
283.9962, 1825.242
284.4783, 1818.789
284.9604, 1810.993
285.4425, 1802.121
285.9247, 1797.047
286.4068, 1796.791
286.8889, 1799.720
287.3710, 1803.407
287.8531, 1807.885
288.3352, 1811.868
288.8174, 1815.260
289.2995, 1817.765
289.7816, 1816.838
290.2637, 1811.296
290.7458, 1804.415
291.2279, 1801.156
291.7101, 1801.409
292.1922, 1803.890
292.6743, 1809.872
293.1564, 1817.768
293.6385, 1822.126
294.1206, 1822.400
294.6028, 1819.322
295.0849, 1811.362
295.5670, 1799.699
296.0491, 1791.028
296.5312, 1791.081
297.0133, 1796.658
297.4955, 1801.056
297.9776, 1804.033
298.4597, 1804.818
298.9418, 1800.044
299.4239, 1791.610
299.9060, 1786.040
300.3882, 1789.509
300.8703, 1797.126
301.3524, 1800.319
301.8345, 1798.139
302.3166, 1795.243
302.7987, 1794.486
303.2809, 1796.242
303.7630, 1801.471
304.2451, 1813.735
304.7272, 1828.137
305.2093, 1839.816
305.6914, 1848.795
306.1736, 1852.940
306.6557, 1847.709
307.1378, 1836.946
307.6199, 1827.326
308.1020, 1819.798
308.5841, 1815.698
309.0663, 1816.803
309.5484, 1823.164
310.0305, 1831.849
310.5126, 1844.891
310.9947, 1858.161
311.4768, 1866.310
311.9590, 1865.513
312.4411, 1860.583
312.9232, 1852.257
313.4053, 1841.004
313.8874, 1832.485
314.3695, 1829.776
314.8517, 1830.904
315.3337, 1834.018
315.8159, 1843.372
316.2980, 1849.869
316.7801, 1846.808
317.2622, 1836.186
317.7443, 1829.242
318.2264, 1835.496
318.7086, 1844.162
319.1907, 1847.361
319.6728, 1835.350
320.1549, 1827.814
320.6370, 1834.372
321.1191, 1850.749
321.6013, 1861.915
322.0834, 1859.530
322.5655, 1854.043
323.0476, 1850.844
323.5297, 1852.614
324.0118, 1853.528
324.4940, 1851.725
324.9761, 1848.400
325.4582, 1846.566
325.9403, 1844.855
326.4224, 1846.089
326.9045, 1852.140
327.3867, 1868.230
327.8688, 1878.821
328.3509, 1880.345
328.8330, 1876.765
329.3151, 1874.789
329.7972, 1874.340
330.2794, 1875.678
330.7615, 1880.200
331.2436, 1890.734
331.7257, 1893.766
332.2078, 1883.999
332.6899, 1870.035
333.1721, 1863.104
333.6542, 1865.128
334.1363, 1871.294
334.6184, 1882.886
335.1005, 1900.717
335.5826, 1909.443
336.0648, 1906.144
336.5469, 1897.423
337.0290, 1889.496
337.5111, 1882.314
337.9932, 1875.768
338.4753, 1869.200
338.9575, 1863.011
339.4396, 1861.175
339.9217, 1865.038
340.4038, 1869.661
340.8859, 1869.342
341.3680, 1863.038
341.8502, 1863.546
342.3323, 1876.123
342.8144, 1894.943
343.2965, 1900.424
343.7786, 1891.296
344.2607, 1880.092
344.7429, 1874.641
345.2250, 1874.764
345.7071, 1878.686
346.1892, 1887.749
346.6713, 1897.840
347.1534, 1901.019
347.6355, 1897.732
348.1176, 1894.587
348.5998, 1897.661
349.0819, 1903.817
349.5640, 1902.484
350.0461, 1891.009
350.5282, 1879.175
351.0103, 1881.327
351.4925, 1893.393
351.9746, 1902.229
352.4567, 1893.430
352.9388, 1880.503
353.4209, 1886.655
353.9030, 1913.960
354.3852, 1939.982
354.8673, 1943.060
355.3494, 1932.329
355.8315, 1923.410
356.3136, 1927.527
356.7957, 1932.563
357.2779, 1923.014
357.7600, 1900.613
358.2421, 1889.363
358.7242, 1919.303
359.2063, 1960.741
359.6884, 1982.942
360.1706, 1962.548
360.6527, 1937.266
361.1348, 1921.662
361.6169, 1914.969
362.0990, 1914.238
362.5811, 1927.484
363.0633, 1940.222
363.5454, 1942.097
364.0275, 1921.047
364.5096, 1906.523
364.9917, 1910.590
365.4738, 1925.955
365.9560, 1936.560
366.4381, 1936.323
366.9202, 1933.472
367.4023, 1930.392
367.8844, 1925.948
368.3665, 1924.754
368.8487, 1929.615
369.3308, 1937.087
369.8129, 1942.570
370.2950, 1944.983
370.7771, 1946.823
371.2592, 1949.256
371.7414, 1952.638
372.2235, 1951.673
372.7056, 1941.930
373.1877, 1932.190
373.6698, 1932.489
374.1519, 1950.067
374.6341, 1957.832
375.1162, 1945.516
375.5983, 1918.942
376.0804, 1916.523
376.5625, 1947.603
377.0446, 1978.700
377.5267, 1980.698
378.0089, 1949.431
378.4910, 1934.450
378.9731, 1945.200
379.4552, 1969.517
379.9373, 1980.163
380.4194, 1976.691
380.9016, 1970.706
381.3837, 1968.397
381.8658, 1969.085
382.3479, 1968.180
382.8300, 1964.944
383.3121, 1962.559
383.7943, 1967.021
384.2764, 1976.579
384.7585, 1983.822
385.2406, 1982.843
385.7227, 1978.132
386.2048, 1978.051
386.6870, 1982.498
387.1691, 1987.465
387.6512, 1988.592
388.1333, 1988.018
388.6154, 1989.609
389.0975, 1997.849
389.5797, 2005.162
390.0618, 2001.721
390.5439, 1990.319
391.0260, 1983.496
391.5081, 1994.572
391.9902, 2009.718
392.4724, 2016.632
392.9545, 2008.139
393.4366, 2001.091
393.9187, 2005.401
394.4008, 2016.281
394.8829, 2024.187
395.3651, 2026.938
395.8472, 2025.399
396.3293, 2018.561
396.8114, 2004.411
397.2935, 1993.035
397.7756, 1983.321
398.2578, 1978.198
398.7399, 1980.764
399.2220, 2000.557
399.7041, 2017.872
400.1862, 2030.688
400.6683, 2038.963
401.1505, 2040.598
401.6326, 2031.062
402.1147, 2019.442
402.5968, 2011.203
403.0789, 2005.328
403.5610, 2005.979
404.0432, 2016.836
404.5253, 2033.412
405.0074, 2040.850
405.4895, 2036.191
405.9716, 2030.821
406.4537, 2030.803
406.9359, 2036.524
407.4180, 2040.914
407.9001, 2043.459
408.3822, 2045.557
408.8643, 2049.852
409.3464, 2056.255
409.8285, 2061.377
410.3106, 2063.031
410.7928, 2062.585
411.2749, 2065.293
411.7570, 2071.371
412.2391, 2075.328
412.7212, 2065.839
413.2033, 2050.310
413.6855, 2049.171
414.1676, 2074.995
414.6497, 2106.313
415.1318, 2118.385
415.6139, 2114.185
416.0960, 2105.239
416.5782, 2093.782
417.0603, 2083.213
417.5424, 2077.914
418.0245, 2079.947
418.5066, 2081.621
418.9887, 2076.350
419.4709, 2068.285
419.9530, 2063.848
420.4351, 2067.660
420.9172, 2073.668
421.3993, 2079.517
421.8814, 2085.079
422.3636, 2091.225
422.8457, 2103.834
423.3278, 2114.019
423.8099, 2114.912
424.2920, 2088.890
424.7741, 2073.556
425.2563, 2077.865
425.7384, 2096.803
426.2205, 2109.123
426.7026, 2111.633
427.1847, 2111.602
427.6668, 2112.030
428.1490, 2113.434
428.6311, 2113.468
429.1132, 2111.647
429.5953, 2108.832
430.0774, 2105.835
430.5595, 2102.023
431.0417, 2100.819
431.5238, 2104.637
432.0059, 2112.371
432.4880, 2114.951
432.9701, 2111.431
433.4522, 2107.999
433.9344, 2110.594
434.4165, 2118.516
434.8986, 2127.950
435.3807, 2139.909
435.8628, 2150.206
436.3449, 2149.794
436.8271, 2140.420
437.3092, 2131.702
437.7913, 2131.593
438.2734, 2134.911
438.7555, 2132.317
439.2376, 2121.619
439.7197, 2115.282
440.2018, 2130.806
440.6840, 2155.653
441.1661, 2170.494
441.6482, 2160.483
442.1303, 2144.331
442.6124, 2128.782
443.0945, 2114.559
443.5767, 2106.770
444.0588, 2107.338
444.5409, 2114.797
445.0230, 2129.140
445.5051, 2162.722
445.9872, 2184.835
446.4694, 2185.158
446.9515, 2171.486
447.4336, 2160.595
447.9157, 2153.870
448.3978, 2148.897
448.8799, 2144.423
449.3621, 2139.624
449.8442, 2141.215
450.3263, 2153.442
450.8084, 2166.892
451.2905, 2171.323
451.7726, 2163.914
452.2548, 2158.035
452.7369, 2155.490
453.2190, 2156.185
453.7011, 2161.322
454.1832, 2171.680
454.6653, 2180.233
455.1475, 2179.457
455.6296, 2171.906
456.1117, 2174.628
456.5938, 2191.126
457.0759, 2208.269
457.5580, 2207.117
458.0402, 2192.198
458.5223, 2178.303
459.0044, 2171.701
459.4865, 2169.184
459.9686, 2166.840
460.4507, 2164.851
460.9329, 2164.674
461.4150, 2167.113
461.8971, 2171.935
462.3792, 2179.490
462.8613, 2192.066
463.3434, 2203.095
463.8256, 2210.917
464.3077, 2214.895
464.7898, 2213.803
465.2719, 2195.510
465.7540, 2182.592
466.2361, 2188.008
466.7183, 2217.359
467.2004, 2233.743
467.6825, 2222.622
468.1646, 2205.240
468.6467, 2197.992
469.1288, 2208.094
469.6110, 2216.256
470.0930, 2221.431
470.5752, 2223.233
471.0573, 2218.225
471.5394, 2201.705
472.0215, 2190.731
472.5036, 2197.639
472.9857, 2223.774
473.4679, 2238.015
473.9500, 2238.558
474.4321, 2232.585
474.9142, 2227.863
475.3963, 2224.253
475.8784, 2220.253
476.3606, 2213.928
476.8427, 2208.365
477.3248, 2210.785
477.8069, 2220.184
478.2890, 2229.142
478.7711, 2233.749
479.2533, 2234.613
479.7354, 2231.381
480.2175, 2222.692
480.6996, 2215.074
481.1817, 2211.879
481.6638, 2212.811
482.1460, 2217.513
482.6281, 2230.063
483.1102, 2242.225
483.5923, 2250.648
484.0744, 2255.237
484.5565, 2258.227
485.0387, 2259.071
485.5208, 2258.928
486.0029, 2258.437
486.4850, 2257.492
486.9671, 2256.439
487.4492, 2256.463
487.9314, 2255.952
488.4135, 2250.124
488.8956, 2232.891
489.3777, 2225.545
489.8598, 2240.807
490.3419, 2275.854
490.8241, 2283.957
491.3062, 2259.664
491.7883, 2229.172
492.2704, 2214.491
492.7525, 2214.393
493.2346, 2216.824
493.7168, 2220.343
494.1989, 2224.594
494.6810, 2230.772
495.1631, 2237.719
495.6452, 2240.957
496.1273, 2232.197
496.6095, 2221.327
497.0916, 2222.025
497.5737, 2234.456
498.0558, 2247.835
498.5379, 2256.070
499.0201, 2261.336
499.5022, 2265.625
499.9843, 2269.181
500.4664, 2272.402
500.9485, 2278.010
501.4306, 2283.490
501.9127, 2282.629
502.3948, 2259.213
502.8770, 2243.529
503.3591, 2250.106
503.8412, 2283.820
504.3233, 2305.128
504.8054, 2307.676
505.2875, 2303.781
505.7697, 2303.773
506.2518, 2309.341
506.7339, 2313.295
507.2160, 2315.308
507.6981, 2314.767
508.1802, 2308.011
508.6624, 2294.265
509.1445, 2284.189
509.6266, 2284.420
510.1087, 2292.832
510.5908, 2303.198
511.0729, 2315.931
511.5551, 2324.146
512.0372, 2315.625
512.5193, 2298.670
513.0014, 2290.527
513.4835, 2299.767
513.9656, 2311.816
514.4478, 2314.455
514.9299, 2310.466
515.4120, 2306.836
515.8941, 2304.351
516.3762, 2304.901
516.8583, 2312.596
517.3405, 2329.080
517.8226, 2336.871
518.3047, 2319.339
518.7868, 2298.954
519.2689, 2293.870
519.7510, 2321.635
520.2332, 2340.350
520.7153, 2345.153
521.1974, 2340.515
521.6795, 2336.341
522.1616, 2332.122
522.6437, 2329.920
523.1259, 2332.449
523.6080, 2339.075
524.0901, 2335.585
524.5722, 2319.592
525.0543, 2304.541
525.5364, 2304.530
526.0186, 2316.531
526.5007, 2326.097
526.9828, 2329.622
527.4649, 2331.909
527.9470, 2342.685
528.4291, 2357.726
528.9113, 2365.384
529.3934, 2350.969
529.8755, 2332.906
530.3576, 2326.315
530.8397, 2331.423
531.3218, 2339.320
531.8040, 2351.256
532.2861, 2361.163
532.7682, 2363.764
533.2503, 2352.641
533.7324, 2343.652
534.2145, 2339.632
534.6967, 2338.928
535.1788, 2338.692
535.6609, 2339.762
536.1430, 2340.021
536.6251, 2338.322
537.1072, 2334.986
537.5894, 2334.781
538.0715, 2338.520
538.5536, 2343.018
539.0357, 2345.992
539.5178, 2347.495
539.9999, 2349.081
540.4821, 2350.803
540.9642, 2352.628
541.4463, 2354.681
541.9284, 2356.805
542.4105, 2358.511
542.8926, 2358.730
543.3748, 2359.141
543.8569, 2362.878
544.3390, 2368.964
544.8211, 2372.893
545.3032, 2369.011
545.7853, 2364.195
546.2675, 2363.989
546.7495, 2370.372
547.2316, 2376.195
547.7137, 2379.201
548.1959, 2380.817
548.6780, 2382.636
549.1601, 2387.456
549.6422, 2389.000
550.1243, 2385.640
550.6064, 2378.649
551.0886, 2371.797
551.5707, 2363.771
552.0528, 2359.142
552.5349, 2361.135
553.0170, 2369.479
553.4991, 2375.201
553.9813, 2377.948
554.4634, 2379.882
554.9455, 2383.792
555.4276, 2388.847
555.9097, 2391.730
556.3918, 2391.583
556.8740, 2389.637
557.3561, 2385.340
557.8382, 2380.241
558.3203, 2378.105
558.8024, 2382.615
559.2845, 2389.217
559.7667, 2396.177
560.2488, 2403.150
560.7309, 2407.553
561.2130, 2403.775
561.6951, 2400.477
562.1772, 2403.799
562.6594, 2423.186
563.1415, 2432.054
563.6236, 2424.458
564.1057, 2409.586
564.5878, 2398.942
565.0699, 2393.345
565.5521, 2389.678
566.0342, 2386.798
566.5163, 2385.573
566.9984, 2389.121
567.4805, 2397.515
567.9626, 2409.757
568.4448, 2432.403
568.9269, 2458.258
569.4090, 2463.051
569.8911, 2444.674
570.3732, 2424.300
570.8553, 2424.240
571.3375, 2433.615
571.8196, 2434.573
572.3017, 2412.566
572.7838, 2398.274
573.2659, 2421.016
573.7480, 2462.431
574.2302, 2485.766
574.7123, 2462.164
575.1944, 2436.595
575.6765, 2422.209
576.1586, 2419.462
576.6407, 2423.783
577.1229, 2441.729
577.6050, 2458.782
578.0871, 2466.787
578.5692, 2464.616
579.0513, 2457.346
579.5334, 2442.436
580.0156, 2428.058
580.4977, 2426.988
580.9798, 2438.097
581.4619, 2448.625
581.9440, 2455.369
582.4261, 2459.252
582.9083, 2460.511
583.3904, 2459.698
583.8725, 2459.263
584.3546, 2460.798
584.8367, 2463.097
585.3188, 2466.008
585.8010, 2469.516
586.2831, 2470.370
586.7652, 2459.295
587.2473, 2449.772
587.7294, 2452.545
588.2115, 2485.764
588.6937, 2506.179
589.1758, 2506.259
589.6579, 2495.416
590.1400, 2488.261
590.6221, 2487.534
591.1042, 2483.212
591.5864, 2470.765
592.0685, 2453.524
592.5506, 2445.156
593.0327, 2445.930
593.5148, 2452.327
593.9969, 2467.309
594.4791, 2485.959
594.9612, 2493.569
595.4433, 2489.224
595.9254, 2481.169
596.4075, 2473.581
596.8896, 2467.576
597.3718, 2464.877
597.8539, 2466.727
598.3360, 2470.382
598.8181, 2477.147
599.3002, 2484.470
599.7823, 2487.724
600.2645, 2481.135
600.7466, 2475.490
601.2287, 2472.289
601.7108, 2471.731
602.1929, 2477.724
602.6750, 2495.761
603.1572, 2510.285
603.6393, 2511.589
604.1214, 2498.630
604.6035, 2487.634
605.0856, 2477.609
605.5677, 2473.504
606.0499, 2486.186
606.5320, 2510.241
607.0141, 2525.780
607.4962, 2527.462
607.9783, 2521.355
608.4604, 2509.564
608.9425, 2494.865
609.4246, 2483.635
609.9067, 2478.738
610.3889, 2477.794
610.8710, 2481.457
611.3531, 2488.956
611.8352, 2494.316
612.3173, 2492.507
612.7994, 2491.827
613.2816, 2496.837
613.7637, 2510.137
614.2458, 2518.870
614.7279, 2523.707
615.2100, 2523.069
615.6921, 2511.032
616.1743, 2486.213
616.6564, 2476.863
617.1385, 2491.266
617.6206, 2513.221
618.1027, 2514.287
618.5848, 2499.556
619.0670, 2489.759
619.5491, 2498.558
620.0312, 2512.838
620.5133, 2520.310
620.9954, 2521.859
621.4775, 2522.061
621.9597, 2519.819
622.4418, 2519.405
622.9239, 2525.956
623.4060, 2543.182
623.8881, 2549.344
624.3702, 2532.462
624.8524, 2511.147
625.3345, 2498.380
625.8166, 2496.444
626.2987, 2497.558
626.7808, 2503.133
627.2629, 2509.009
627.7451, 2507.256
628.2272, 2498.081
628.7093, 2489.696
629.1914, 2483.581
629.6735, 2480.851
630.1556, 2485.790
630.6378, 2496.696
631.1199, 2506.272
631.6020, 2510.976
632.0841, 2512.175
632.5662, 2509.966
633.0483, 2504.416
633.5305, 2499.336
634.0126, 2492.448
634.4947, 2489.198
634.9768, 2494.468
635.4589, 2518.790
635.9410, 2530.253
636.4232, 2523.888
636.9053, 2509.326
637.3874, 2496.357
637.8695, 2484.299
638.3516, 2477.921
638.8337, 2478.462
639.3159, 2484.339
639.7980, 2494.740
640.2801, 2508.823
640.7622, 2520.196
641.2443, 2525.052
641.7264, 2526.116
642.2086, 2527.425
642.6907, 2528.497
643.1728, 2526.141
643.6549, 2513.513
644.1370, 2500.814
644.6191, 2496.480
645.1013, 2504.467
645.5834, 2505.930
646.0655, 2488.451
646.5476, 2470.313
647.0297, 2464.759
647.5118, 2476.057
647.9940, 2489.875
648.4761, 2509.134
648.9582, 2525.449
649.4403, 2520.929
649.9224, 2496.330
650.4045, 2479.935
650.8867, 2482.838
651.3688, 2494.160
651.8509, 2496.192
652.3330, 2491.066
652.8151, 2486.597
653.2972, 2483.770
653.7794, 2485.847
654.2615, 2500.539
654.7436, 2526.704
655.2257, 2542.268
655.7078, 2531.599
656.1899, 2515.702
656.6721, 2506.534
657.1542, 2506.868
657.6363, 2504.855
658.1184, 2499.265
658.6005, 2493.018
659.0826, 2488.713
659.5648, 2486.332
660.0469, 2485.804
660.5290, 2487.317
661.0111, 2490.132
661.4932, 2494.531
661.9753, 2499.542
662.4575, 2501.923
662.9396, 2499.689
663.4217, 2495.389
663.9038, 2490.352
664.3859, 2484.984
664.8680, 2480.463
665.3502, 2472.902
665.8323, 2470.336
666.3144, 2479.061
666.7965, 2499.752
667.2786, 2513.575
667.7607, 2518.781
668.2429, 2519.188
668.7250, 2514.857
669.2071, 2504.580
669.6892, 2500.917
670.1713, 2504.540
670.6534, 2511.209
671.1355, 2519.487
671.6176, 2527.529
672.0997, 2527.767
672.5818, 2516.987
673.0640, 2505.667
673.5461, 2501.842
674.0282, 2504.371
674.5103, 2511.369
674.9924, 2534.415
675.4745, 2548.830
675.9567, 2540.094
676.4388, 2516.445
676.9209, 2501.422
677.4030, 2497.519
677.8851, 2500.258
678.3672, 2511.246
678.8494, 2528.448
679.3315, 2537.956
679.8136, 2538.845
680.2957, 2536.758
680.7778, 2533.718
681.2599, 2530.267
681.7421, 2528.154
682.2242, 2527.332
682.7063, 2528.000
683.1884, 2530.831
683.6705, 2534.920
684.1526, 2539.817
684.6348, 2546.213
685.1169, 2550.477
685.5990, 2549.916
686.0811, 2547.309
686.5632, 2545.669
687.0453, 2548.409
687.5275, 2546.413
688.0096, 2536.758
688.4917, 2524.401
688.9738, 2518.416
689.4559, 2519.523
689.9380, 2518.573
690.4202, 2511.609
690.9023, 2502.810
691.3844, 2499.780
691.8665, 2502.075
692.3486, 2507.776
692.8307, 2519.829
693.3129, 2531.810
693.7950, 2537.986
694.2771, 2538.831
694.7592, 2539.178
695.2413, 2541.033
695.7234, 2542.388
696.2056, 2542.220
696.6877, 2540.467
697.1698, 2537.438
697.6519, 2530.991
698.1340, 2527.201
698.6161, 2532.345
699.0983, 2546.338
699.5804, 2557.984
700.0625, 2567.117
700.5446, 2571.046
701.0267, 2560.112
701.5089, 2542.861
701.9910, 2538.180
702.4731, 2556.966
702.9552, 2573.865
703.4373, 2567.060
703.9194, 2549.510
704.4016, 2540.189
704.8837, 2557.308
705.3658, 2566.191
705.8479, 2555.160
706.3300, 2533.542
706.8121, 2523.440
707.2943, 2525.608
707.7764, 2538.304
708.2585, 2567.860
708.7406, 2604.511
709.2227, 2611.245
709.7048, 2590.405
710.1870, 2567.499
710.6691, 2559.053
711.1512, 2556.582
711.6333, 2546.704
712.1154, 2530.242
712.5975, 2523.144
713.0797, 2542.422
713.5618, 2566.214
714.0439, 2581.548
714.5260, 2586.113
715.0081, 2585.484
715.4902, 2577.868
715.9724, 2567.352
716.4545, 2555.353
716.9366, 2540.795
717.4187, 2534.283
717.9008, 2536.645
718.3829, 2546.044
718.8651, 2567.787
719.3472, 2594.556
719.8293, 2606.593
720.3114, 2593.836
720.7935, 2578.645
721.2756, 2578.373
721.7578, 2586.825
722.2399, 2594.654
722.7220, 2597.828
723.2041, 2601.888
723.6862, 2611.207
724.1683, 2621.625
724.6505, 2622.938
725.1326, 2612.500
725.6147, 2600.070
726.0968, 2586.121
726.5789, 2573.468
727.0610, 2574.286
727.5432, 2587.244
728.0253, 2596.909
728.5074, 2590.161
728.9895, 2578.121
729.4716, 2576.240
729.9537, 2583.001
730.4359, 2585.491
730.9180, 2569.642
731.4001, 2554.794
731.8822, 2552.299
732.3643, 2565.259
732.8464, 2576.502
733.3285, 2586.016
733.8106, 2593.773
734.2927, 2600.718
734.7748, 2607.050
735.2570, 2604.350
735.7391, 2590.958
736.2212, 2578.496
736.7033, 2581.061
737.1854, 2592.206
737.6675, 2598.213
738.1497, 2595.436
738.6318, 2593.779
739.1139, 2605.228
739.5960, 2618.627
740.0781, 2621.942
740.5602, 2597.947
741.0424, 2585.167
741.5245, 2594.648
742.0066, 2610.624
742.4887, 2608.735
742.9708, 2584.049
743.4529, 2568.243
743.9351, 2567.836
744.4172, 2577.245
744.8993, 2592.358
745.3814, 2609.874
745.8635, 2616.810
746.3456, 2598.558
746.8278, 2578.342
747.3099, 2574.688
747.7920, 2584.178
748.2741, 2598.437
748.7562, 2631.968
749.2383, 2651.313
749.7205, 2642.828
750.2026, 2566.077
750.6847, 2591.997
751.1668, 2606.659
751.6489, 2610.668
752.1310, 2572.118
752.6132, 2588.525
753.0953, 2582.907
753.5774, 2576.386
754.0595, 2600.528
754.5416, 2568.168
755.0237, 2591.824
755.5059, 2617.352
755.9880, 2603.278
756.4701, 2598.534
756.9522, 2633.564
757.4343, 2664.672
757.9164, 2661.854
758.3986, 2617.177
758.8807, 2590.817
759.3628, 2586.814
759.8449, 2593.420
760.3270, 2607.814
760.8091, 2627.986
761.2913, 2629.451
761.7734, 2609.380
762.2555, 2587.831
762.7376, 2581.391
763.2197, 2585.594
763.7018, 2596.892
764.1840, 2618.493
764.6661, 2631.967
765.1482, 2620.744
765.6303, 2602.224
766.1124, 2593.502
766.5945, 2599.306
767.0767, 2607.158
767.5588, 2619.688
768.0409, 2629.823
768.5230, 2624.203
769.0051, 2604.301
769.4872, 2593.797
769.9694, 2598.948
770.4515, 2609.059
770.9336, 2613.236
771.4157, 2612.752
771.8978, 2609.848
772.3799, 2603.701
772.8621, 2597.472
773.3442, 2590.378
773.8263, 2584.494
774.3084, 2583.675
774.7905, 2589.144
775.2726, 2598.126
775.7548, 2612.759
776.2369, 2628.663
776.7190, 2633.591
777.2011, 2628.188
777.6832, 2623.674
778.1653, 2623.601
778.6475, 2626.984
779.1296, 2637.985
779.6117, 2651.741
780.0938, 2655.019
780.5759, 2627.252
781.0580, 2602.606
781.5402, 2596.709
782.0223, 2606.676
782.5044, 2614.742
782.9865, 2619.146
783.4686, 2625.011
783.9507, 2636.138
784.4329, 2649.287
784.9150, 2649.798
785.3971, 2638.232
785.8792, 2628.286
786.3613, 2629.231
786.8434, 2635.174
787.3256, 2640.387
787.8077, 2644.426
788.2898, 2645.432
788.7719, 2639.864
789.2540, 2633.540
789.7361, 2628.213
790.2183, 2623.982
790.7004, 2624.712
791.1825, 2632.578
791.6646, 2640.484
792.1467, 2644.437
792.6288, 2645.154
793.1110, 2647.433
793.5930, 2651.173
794.0751, 2655.171
794.5573, 2661.885
795.0394, 2666.343
795.5215, 2658.741
796.0036, 2638.986
796.4857, 2628.380
796.9678, 2645.207
797.4500, 2664.338
797.9321, 2671.396
798.4142, 2664.253
798.8963, 2663.941
799.3784, 2673.306
799.8605, 2681.698
800.3427, 2679.484
800.8248, 2669.670
801.3069, 2665.506
801.7890, 2667.608
802.2711, 2669.169
802.7532, 2661.298
803.2354, 2652.557
803.7175, 2653.416
804.1996, 2668.197
804.6817, 2673.900
805.1638, 2653.323
805.6459, 2632.232
806.1281, 2626.577
806.6102, 2640.583
807.0923, 2645.868
807.5744, 2640.193
808.0565, 2635.798
808.5386, 2650.020
809.0208, 2673.461
809.5029, 2679.703
809.9850, 2664.690
810.4671, 2648.452
810.9492, 2641.925
811.4313, 2642.104
811.9135, 2647.549
812.3956, 2661.365
812.8777, 2670.768
813.3598, 2672.760
813.8419, 2673.110
814.3240, 2676.059
814.8062, 2681.608
815.2883, 2691.637
815.7704, 2707.728
816.2525, 2718.057
816.7346, 2705.280
817.2167, 2680.357
817.6989, 2659.021
818.1810, 2642.651
818.6631, 2638.031
819.1452, 2663.159
819.6273, 2692.359
820.1094, 2701.714
820.5916, 2681.712
821.0737, 2664.280
821.5558, 2648.885
822.0379, 2637.370
822.5200, 2630.469
823.0021, 2628.798
823.4843, 2639.865
823.9664, 2666.290
824.4485, 2690.292
824.9306, 2694.037
825.4127, 2686.627
825.8948, 2677.781
826.3770, 2667.205
826.8591, 2661.524
827.3412, 2664.092
827.8233, 2671.000
828.3054, 2681.528
828.7875, 2699.515
829.2697, 2701.425
829.7518, 2682.393
830.2339, 2661.834
830.7160, 2663.244
831.1981, 2678.606
831.6802, 2687.958
832.1624, 2687.612
832.6445, 2685.737
833.1266, 2688.706
833.6087, 2692.155
834.0908, 2691.772
834.5729, 2683.590
835.0551, 2678.304
835.5372, 2673.573
836.0193, 2675.064
836.5014, 2694.370
836.9835, 2730.409
837.4656, 2741.005
837.9478, 2719.975
838.4299, 2697.737
838.9120, 2711.800
839.3941, 2738.564
839.8762, 2744.380
840.3583, 2717.788
840.8405, 2694.720
841.3226, 2686.249
841.8047, 2687.166
842.2868, 2694.784
842.7689, 2712.848
843.2510, 2724.266
843.7332, 2728.806
844.2153, 2727.300
844.6974, 2715.789
845.1795, 2699.067
845.6616, 2692.182
846.1437, 2696.989
846.6259, 2704.047
847.1080, 2707.711
847.5901, 2710.187
848.0722, 2713.147
848.5543, 2716.672
849.0364, 2721.778
849.5186, 2731.956
850.0007, 2738.734
850.4828, 2732.729
850.9649, 2714.594
851.4470, 2710.070
851.9291, 2720.547
852.4113, 2731.810
852.8934, 2732.794
853.3755, 2727.598
853.8576, 2718.320
854.3397, 2704.796
854.8218, 2698.633
855.3040, 2715.457
855.7860, 2730.122
856.2681, 2726.048
856.7502, 2700.740
857.2324, 2691.721
857.7145, 2701.530
858.1966, 2715.429
858.6787, 2726.149
859.1608, 2732.308
859.6429, 2727.153
860.1251, 2711.777
860.6072, 2701.262
861.0893, 2705.977
861.5714, 2717.113
862.0535, 2732.582
862.5356, 2752.484
863.0178, 2760.936
863.4999, 2752.559
863.9820, 2743.159
864.4641, 2739.561
864.9462, 2741.243
865.4283, 2748.129
865.9105, 2759.511
866.3926, 2768.056
866.8747, 2767.740
867.3568, 2763.529
867.8389, 2760.498
868.3210, 2758.059
868.8032, 2751.427
869.2853, 2734.398
869.7674, 2718.570
870.2495, 2704.032
870.7316, 2693.205
871.2137, 2702.150
871.6959, 2731.763
872.1780, 2755.393
872.6601, 2757.165
873.1422, 2749.576
873.6243, 2751.769
874.1064, 2759.470
874.5886, 2760.131
875.0707, 2735.369
875.5528, 2716.982
876.0349, 2721.624
876.5170, 2739.459
876.9991, 2746.390
877.4813, 2739.249
877.9634, 2734.112
878.4455, 2734.631
878.9276, 2740.216
879.4097, 2753.121
879.8918, 2770.260
880.3740, 2783.199
880.8561, 2789.790
881.3382, 2790.064
881.8203, 2776.800
882.3024, 2759.313
882.7845, 2754.676
883.2667, 2774.237
883.7488, 2781.757
884.2309, 2769.739
884.7130, 2750.897
885.1951, 2745.441
885.6772, 2750.439
886.1594, 2751.553
886.6415, 2743.810
887.1236, 2738.674
887.6057, 2748.745
888.0878, 2764.953
888.5699, 2776.823
889.0521, 2779.724
889.5342, 2783.586
890.0163, 2790.984
890.4984, 2796.553
890.9805, 2792.033
891.4626, 2778.567
891.9448, 2780.105
892.4269, 2799.835
892.9090, 2816.650
893.3911, 2805.400
893.8732, 2784.182
894.3553, 2773.131
894.8375, 2775.862
895.3196, 2781.190
895.8017, 2785.655
896.2838, 2793.281
896.7659, 2809.391
897.2480, 2834.215
897.7302, 2841.321
898.2123, 2829.770
898.6944, 2815.453
899.1765, 2810.539
899.6586, 2809.258
900.1407, 2803.891
900.6229, 2794.713
901.1050, 2785.975
901.5871, 2773.670
902.0692, 2768.650
902.5513, 2779.156
903.0334, 2800.880
903.5156, 2807.749
903.9977, 2797.999
904.4798, 2786.270
904.9619, 2775.687
905.4440, 2769.641
905.9261, 2779.930
906.4083, 2799.878
906.8904, 2811.253
907.3725, 2798.536
907.8546, 2783.963
908.3367, 2771.081
908.8188, 2762.968
909.3010, 2767.730
909.7831, 2789.382
910.2652, 2807.281
910.7473, 2817.627
911.2294, 2822.444
911.7115, 2821.874
912.1937, 2818.519
912.6758, 2819.460
913.1579, 2830.217
913.6400, 2837.144
914.1221, 2833.858
914.6042, 2823.119
915.0864, 2805.658
915.5685, 2769.753
916.0506, 2765.666
916.5327, 2804.726
917.0148, 2846.248
917.4969, 2844.267
917.9790, 2813.488
918.4611, 2788.072
918.9432, 2771.544
919.4254, 2766.947
919.9075, 2785.512
920.3896, 2809.677
920.8717, 2827.506
921.3538, 2838.404
921.8359, 2842.381
922.3181, 2836.182
922.8002, 2832.276
923.2823, 2839.716
923.7644, 2854.754
924.2465, 2866.336
924.7286, 2874.307
925.2108, 2877.416
925.6929, 2869.058
926.1750, 2861.175
926.6571, 2864.931
927.1392, 2876.080
927.6213, 2871.122
928.1035, 2838.167
928.5856, 2822.126
929.0677, 2841.706
929.5498, 2875.451
930.0319, 2875.142
930.5140, 2850.288
930.9962, 2833.092
931.4783, 2838.403
931.9604, 2848.700
932.4425, 2855.332
932.9246, 2860.232
933.4067, 2867.172
933.8889, 2882.772
934.3710, 2883.857
934.8531, 2865.355
935.3352, 2840.768
935.8173, 2822.654
936.2994, 2811.919
936.7816, 2814.473
937.2637, 2832.112
937.7458, 2851.444
938.2279, 2870.354
938.7100, 2882.657
939.1921, 2879.100
939.6743, 2855.577
940.1564, 2848.922
940.6385, 2866.819
941.1206, 2880.399
941.6027, 2865.668
942.0848, 2833.767
942.5670, 2822.819
943.0491, 2829.661
943.5312, 2835.258
944.0133, 2824.222
944.4954, 2813.636
944.9775, 2816.848
945.4597, 2829.156
945.9418, 2827.491
946.4239, 2804.221
946.9060, 2790.793
947.3881, 2797.445
947.8702, 2813.992
948.3524, 2822.253
948.8345, 2825.059
949.3166, 2830.406
949.7987, 2844.594
950.2808, 2855.031
950.7629, 2850.412
951.2451, 2841.313
951.7272, 2841.288
952.2093, 2856.157
952.6914, 2860.186
953.1735, 2850.042
953.6556, 2837.540
954.1378, 2834.026
954.6199, 2837.178
955.1020, 2842.943
955.5841, 2850.925
956.0662, 2860.623
956.5483, 2873.790
957.0305, 2886.884
957.5126, 2899.950
957.9947, 2912.496
958.4768, 2913.611
958.9589, 2902.097
959.4410, 2887.694
959.9232, 2871.404
960.4053, 2858.247
960.8874, 2860.642
961.3695, 2873.333
961.8516, 2880.854
962.3337, 2872.525
962.8159, 2863.123
963.2980, 2849.962
963.7801, 2841.592
964.2622, 2857.927
964.7443, 2902.468
965.2264, 2929.302
965.7086, 2927.943
966.1907, 2917.576
966.6728, 2923.566
967.1549, 2932.662
967.6370, 2922.028
968.1191, 2875.912
968.6013, 2850.921
969.0834, 2875.132
969.5655, 2905.627
970.0476, 2917.724
970.5297, 2911.601
971.0118, 2904.492
971.4940, 2896.443
971.9761, 2891.118
972.4582, 2894.462
972.9403, 2899.005
973.4224, 2893.277
973.9045, 2880.767
974.3867, 2882.042
974.8688, 2913.210
975.3509, 2939.310
975.8330, 2954.585
976.3151, 2958.709
976.7972, 2941.509
977.2794, 2909.300
977.7615, 2896.728
978.2436, 2922.038
978.7257, 2951.039
979.2078, 2961.279
979.6899, 2959.075
980.1720, 2950.608
980.6541, 2930.260
981.1362, 2920.323
981.6183, 2924.212
982.1005, 2930.058
982.5826, 2923.808
983.0647, 2911.562
983.5468, 2913.378
984.0289, 2929.585
984.5110, 2945.879
984.9932, 2954.425
985.4753, 2960.640
985.9574, 2971.957
986.4395, 2984.877
986.9216, 2975.939
987.4037, 2939.830
987.8859, 2909.319
988.3680, 2895.377
988.8501, 2893.656
989.3322, 2905.137
989.8143, 2922.552
990.2964, 2930.573
990.7786, 2917.345
991.2607, 2903.797
991.7428, 2887.489
992.2249, 2879.109
992.7070, 2894.868
993.1891, 2936.976
993.6713, 2956.522
994.1534, 2949.260
994.6355, 2941.274
995.1176, 2969.877
995.5997, 3000.179
996.0818, 2985.267
996.5640, 2922.584
997.0461, 2888.599
997.5282, 2910.347
998.0103, 2935.171
998.4924, 2946.183
998.9745, 2947.120
999.4567, 2948.466
999.9388, 2950.546
1000.421, 2955.332
1000.903, 2966.296
1001.385, 2976.201
1001.867, 2983.966
1002.349, 2986.156
1002.831, 2975.791
1003.314, 2944.041
1003.796, 2924.647
1004.278, 2920.559
1004.760, 2923.576
1005.242, 2924.563
1005.724, 2926.698
1006.206, 2940.132
1006.688, 2965.320
1007.171, 2983.698
1007.653, 2984.012
1008.135, 2978.332
1008.617, 2972.684
1009.099, 2966.403
1009.581, 2952.409
1010.063, 2929.916
1010.545, 2915.949
1011.027, 2921.408
1011.510, 2931.464
1011.992, 2923.966
1012.474, 2910.044
1012.956, 2908.619
1013.438, 2936.438
1013.920, 2960.962
1014.402, 2983.279
1014.884, 2997.615
1015.367, 2994.197
1015.849, 2976.637
1016.331, 2964.029
1016.813, 2957.684
1017.295, 2957.015
1017.777, 2969.032
1018.259, 2980.153
1018.741, 2978.881
1019.223, 2966.911
1019.706, 2962.214
1020.188, 2966.771
1020.670, 2971.061
1021.152, 2971.375
1021.634, 2970.669
1022.116, 2973.574
1022.598, 2979.344
1023.080, 2987.071
1023.563, 3001.779
1024.045, 3008.222
1024.527, 2996.827
1025.009, 2981.003
1025.491, 2970.184
1025.973, 2964.251
1026.455, 2969.431
1026.937, 2986.073
1027.419, 2996.271
1027.901, 2976.989
1028.384, 2952.684
1028.866, 2944.782
1029.348, 2952.229
1029.830, 2959.984
1030.312, 2965.752
1030.794, 2975.385
1031.276, 2993.626
1031.758, 3011.301
1032.241, 3003.857
1032.723, 2982.341
1033.205, 2976.630
1033.687, 3000.539
1034.169, 3024.097
1034.651, 3038.807
1035.133, 3043.308
1035.615, 3032.898
1036.098, 3004.712
1036.580, 2999.600
1037.062, 3018.537
1037.544, 3036.471
1038.026, 3033.940
1038.508, 3023.330
1038.990, 3014.191
1039.472, 3007.920
1039.954, 3008.714
1040.437, 3024.218
1040.919, 3034.608
1041.401, 3034.994
1041.883, 3032.895
1042.365, 3045.668
1042.847, 3066.070
1043.329, 3066.192
1043.811, 3037.824
1044.293, 3014.451
1044.776, 3022.938
1045.258, 3036.397
1045.740, 3036.545
1046.222, 3023.651
1046.704, 3009.446
1047.186, 2993.177
1047.668, 2984.735
1048.150, 2990.388
1048.633, 3004.586
1049.115, 3029.407
1049.597, 3056.135
1050.079, 3067.168
1050.561, 3040.786
1051.043, 3023.175
1051.525, 3019.305
1052.007, 3021.285
1052.490, 3021.182
1052.972, 3019.642
1053.454, 3018.142
1053.936, 3016.871
1054.418, 3019.236
1054.900, 3030.486
1055.382, 3042.719
1055.864, 3053.284
1056.346, 3061.185
1056.828, 3060.763
1057.311, 3051.201
1057.793, 3042.346
1058.275, 3035.857
1058.757, 3034.596
1059.239, 3047.202
1059.721, 3064.951
1060.203, 3076.100
1060.685, 3078.250
1061.168, 3071.947
1061.650, 3053.149
1062.132, 3034.952
1062.614, 3028.451
1063.096, 3030.084
1063.578, 3025.228
1064.060, 3015.897
1064.542, 3013.090
1065.025, 3033.934
1065.507, 3049.633
1065.989, 3039.782
1066.471, 3020.866
1066.953, 3022.881
1067.435, 3047.479
1067.917, 3060.597
1068.399, 3056.849
1068.881, 3045.281
1069.364, 3027.840
1069.846, 3011.322
1070.328, 3001.831
1070.810, 3000.288
1071.292, 3008.802
1071.774, 3036.486
1072.256, 3048.423
1072.738, 3021.374
1073.220, 2979.403
1073.703, 2980.274
1074.185, 3009.085
1074.667, 3029.018
1075.149, 3016.603
1075.631, 3012.931
1076.113, 3040.896
1076.595, 3070.803
1077.077, 3077.083
1077.559, 3060.511
1078.042, 3043.429
1078.524, 3026.578
1079.006, 3014.194
1079.488, 3009.978
1079.970, 3010.858
1080.452, 3016.489
1080.934, 3025.694
1081.416, 3035.361
1081.899, 3047.691
1082.381, 3050.047
1082.863, 3038.081
1083.345, 3022.305
1083.827, 3010.326
1084.309, 3005.496
1084.791, 3015.554
1085.273, 3044.140
1085.755, 3065.598
1086.238, 3074.026
1086.720, 3077.572
1087.202, 3079.112
1087.684, 3078.465
1088.166, 3075.302
1088.648, 3069.507
1089.130, 3059.624
1089.612, 3036.035
1090.094, 3023.224
1090.577, 3044.678
1091.059, 3073.611
1091.541, 3080.554
1092.023, 3061.722
1092.505, 3070.034
1092.987, 3107.116
1093.469, 3132.252
1093.951, 3095.959
1094.434, 3051.580
1094.916, 3049.990
1095.398, 3080.421
1095.880, 3093.140
1096.362, 3075.173
1096.844, 3072.437
1097.326, 3096.752
1097.808, 3124.136
1098.291, 3121.194
1098.773, 3100.999
1099.255, 3083.986
1099.737, 3072.704
1100.219, 3067.485
1100.701, 3073.742
1101.183, 3078.923
1101.665, 3078.611
1102.147, 3073.972
1102.630, 3067.193
1103.112, 3059.145
1103.594, 3052.250
1104.076, 3043.283
1104.558, 3044.280
1105.040, 3077.558
1105.522, 3110.859
1106.004, 3112.982
1106.486, 3080.234
1106.969, 3063.713
1107.451, 3063.408
1107.933, 3066.989
1108.415, 3066.306
1108.897, 3066.196
1109.379, 3073.293
1109.861, 3083.811
1110.343, 3087.942
1110.826, 3084.470
1111.308, 3076.877
1111.790, 3064.102
1112.272, 3053.333
1112.754, 3052.004
1113.236, 3057.603
1113.718, 3069.500
1114.200, 3086.944
1114.682, 3097.156
1115.165, 3095.443
1115.647, 3089.092
1116.129, 3077.096
1116.611, 3065.177
1117.093, 3067.633
1117.575, 3079.826
1118.057, 3090.220
1118.539, 3097.665
1119.021, 3096.488
1119.504, 3073.445
1119.986, 3051.831
1120.468, 3045.831
1120.950, 3053.535
1121.432, 3058.341
1121.914, 3060.293
1122.396, 3033.896
1122.878, 3063.356
1123.361, 3081.565
1123.843, 3089.114
1124.325, 3054.104
1124.807, 3074.050
1125.289, 3071.971
1125.771, 3068.991
1126.253, 3096.672
1126.735, 3067.851
1127.218, 3095.054
1127.700, 3099.888
1128.182, 3104.206
1128.664, 3112.792
1129.146, 3114.701
1129.628, 3107.386
1130.110, 3096.790
1130.592, 3081.074
1131.074, 3070.461
1131.557, 3084.811
1132.039, 3109.606
1132.521, 3119.651
1133.003, 3112.250
1133.485, 3108.613
1133.967, 3117.386
1134.449, 3123.652
1134.931, 3122.551
1135.413, 3117.129
1135.896, 3115.535
1136.378, 3115.122
1136.860, 3106.878
1137.342, 3084.216
1137.824, 3068.437
1138.306, 3071.690
1138.788, 3080.543
1139.270, 3090.245
1139.752, 3099.480
1140.235, 3097.967
1140.717, 3087.250
1141.199, 3076.890
1141.681, 3072.028
1142.163, 3067.772
1142.645, 3057.010
1143.127, 3048.813
1143.609, 3055.637
1144.092, 3079.857
1144.574, 3089.290
1145.056, 3083.382
1145.538, 3080.424
1146.020, 3099.734
1146.502, 3121.360
1146.984, 3129.272
1147.466, 3127.179
1147.948, 3126.411
1148.431, 3127.125
1148.913, 3129.375
1149.395, 3133.212
1149.877, 3138.305
1150.359, 3150.640
1150.841, 3159.458
1151.323, 3149.786
1151.805, 3122.101
1152.287, 3099.782
1152.770, 3081.816
1153.252, 3076.508
1153.734, 3088.374
1154.216, 3107.608
1154.698, 3123.372
1155.180, 3135.025
1155.662, 3141.030
1156.144, 3140.622
1156.627, 3137.789
1157.109, 3132.864
1157.591, 3126.283
1158.073, 3115.762
1158.555, 3106.449
1159.037, 3113.915
1159.519, 3131.164
1160.001, 3140.611
1160.484, 3129.860
1160.966, 3127.620
1161.448, 3148.120
1161.930, 3166.144
1162.412, 3164.647
1162.894, 3147.112
1163.376, 3121.208
1163.858, 3091.666
1164.340, 3079.571
1164.823, 3113.878
1165.305, 3142.351
1165.787, 3146.493
1166.269, 3141.564
1166.751, 3141.849
1167.233, 3146.749
1167.715, 3152.176
1168.197, 3157.455
1168.679, 3155.718
1169.162, 3135.583
1169.644, 3115.220
1170.126, 3098.355
1170.608, 3089.600
1171.090, 3101.075
1171.572, 3131.943
1172.054, 3159.982
1172.536, 3182.648
1173.019, 3195.270
1173.501, 3188.976
1173.983, 3176.405
1174.465, 3163.792
1174.947, 3152.174
1175.429, 3143.423
1175.911, 3137.580
1176.393, 3136.952
1176.875, 3143.068
1177.358, 3149.910
1177.840, 3151.231
1178.322, 3151.365
1178.804, 3153.902
1179.286, 3159.033
1179.768, 3168.469
1180.250, 3183.284
1180.732, 3187.732
1181.214, 3170.781
1181.697, 3153.792
1182.179, 3164.632
1182.661, 3185.378
1183.143, 3193.497
1183.625, 3184.987
1184.107, 3175.442
1184.589, 3164.389
1185.071, 3154.904
1185.554, 3146.871
1186.036, 3143.315
1186.518, 3149.921
1187.000, 3163.097
1187.482, 3177.443
1187.964, 3196.301
1188.446, 3204.799
1188.928, 3201.819
1189.411, 3194.127
1189.893, 3187.122
1190.375, 3177.959
1190.857, 3154.837
1191.339, 3127.241
1191.821, 3120.871
1192.303, 3157.932
1192.785, 3174.926
1193.267, 3164.024
1193.750, 3149.007
1194.232, 3152.713
1194.714, 3165.885
1195.196, 3177.457
1195.678, 3186.372
1196.160, 3190.584
1196.642, 3188.174
1197.124, 3183.681
1197.606, 3176.432
1198.089, 3170.628
1198.571, 3175.367
1199.053, 3182.885
1199.535, 3177.737
1200.017, 3160.424
1200.499, 3151.827
1200.981, 3156.692
1201.463, 3170.125
1201.945, 3195.057
1202.428, 3218.520
1202.910, 3218.018
1203.392, 3203.956
1203.874, 3192.568
1204.356, 3186.007
1204.838, 3185.126
1205.320, 3192.103
1205.802, 3200.134
1206.285, 3207.890
1206.767, 3214.357
1207.249, 3215.755
1207.731, 3215.022
1208.213, 3221.263
1208.695, 3241.131
1209.177, 3235.404
1209.659, 3178.239
1210.141, 3140.919
1210.624, 3161.714
1211.106, 3210.304
1211.588, 3227.399
1212.070, 3223.227
1212.552, 3219.238
1213.034, 3222.701
1213.516, 3219.890
1213.998, 3203.595
1214.480, 3193.566
1214.963, 3204.215
1215.445, 3225.490
1215.927, 3236.379
1216.409, 3238.623
1216.891, 3235.957
1217.373, 3227.050
1217.855, 3218.048
1218.337, 3208.652
1218.820, 3201.121
1219.302, 3200.187
1219.784, 3200.711
1220.266, 3180.467
1220.748, 3151.673
1221.230, 3147.342
1221.712, 3220.252
1222.194, 3249.674
1222.677, 3213.075
1223.159, 3167.846
1223.641, 3164.735
1224.123, 3186.405
1224.605, 3198.200
1225.087, 3202.443
1225.569, 3208.964
1226.051, 3228.228
1226.533, 3236.442
1227.016, 3225.649
1227.498, 3218.388
1227.980, 3252.297
1228.462, 3297.737
1228.944, 3291.430
1229.426, 3243.512
1229.908, 3211.308
1230.390, 3219.616
1230.872, 3228.162
1231.355, 3233.498
1231.837, 3235.559
1232.319, 3230.998
1232.801, 3224.814
1233.283, 3225.501
1233.765, 3232.745
1234.247, 3240.591
1234.729, 3250.379
1235.212, 3253.949
1235.694, 3248.256
1236.176, 3241.053
1236.658, 3243.319
1237.140, 3249.275
1237.622, 3251.308
1238.104, 3248.764
1238.586, 3242.939
1239.068, 3229.835
1239.551, 3227.269
1240.033, 3241.273
1240.515, 3259.578
1240.997, 3270.378
1241.479, 3274.581
1241.961, 3270.574
1242.443, 3258.874
1242.925, 3254.124
1243.407, 3257.215
1243.890, 3267.734
1244.372, 3288.957
1244.854, 3305.920
1245.336, 3289.737
1245.818, 3265.394
1246.300, 3266.190
1246.782, 3295.722
1247.264, 3297.562
1247.747, 3265.349
1248.229, 3244.705
1248.711, 3252.183
1249.193, 3267.531
1249.675, 3272.480
1250.157, 3271.820
1250.639, 3270.023
1251.121, 3267.635
1251.604, 3263.713
1252.086, 3257.827
1252.568, 3259.633
1253.050, 3275.455
1253.532, 3291.069
1254.014, 3290.463
1254.496, 3285.167
1254.978, 3287.661
1255.460, 3297.387
1255.943, 3298.917
1256.425, 3292.404
1256.907, 3291.015
1257.389, 3303.192
1257.871, 3312.254
1258.353, 3299.411
1258.835, 3283.225
1259.317, 3282.572
1259.799, 3295.113
1260.281, 3283.433
1260.764, 3252.085
1261.246, 3240.934
1261.728, 3278.171
1262.210, 3311.059
1262.692, 3304.523
1263.174, 3288.660
1263.656, 3284.790
1264.138, 3291.182
1264.621, 3299.592
1265.103, 3308.152
1265.585, 3306.940
1266.067, 3285.681
1266.549, 3266.798
1267.031, 3252.991
1267.513, 3250.761
1267.995, 3272.350
1268.478, 3307.098
1268.960, 3305.118
1269.442, 3278.543
1269.924, 3268.663
1270.406, 3305.449
1270.888, 3332.416
1271.370, 3341.203
1271.852, 3338.197
1272.334, 3320.598
1272.817, 3297.841
1273.299, 3293.482
1273.781, 3303.608
1274.263, 3318.773
1274.745, 3345.624
1275.227, 3358.665
1275.709, 3354.577
1276.191, 3345.084
1276.673, 3335.788
1277.156, 3328.295
1277.638, 3326.478
1278.120, 3328.130
1278.602, 3328.497
1279.084, 3327.750
1279.566, 3322.402
1280.048, 3311.250
1280.530, 3302.237
1281.013, 3303.836
##END=



