##NAMES=Cuprite
##RRUFFID=R050384
##IDEAL CHEMISTRY=Cu^1+^_2_O
##LOCALITY=Lavender Pit, Bisbee, Warren District, Cochise County, Arizona, USA
##OWNER=RRUFF
##SOURCE=University of Arizona Mineral Museum
##DESCRIPTION=Deep red to nearly black cubes
##STATUS=The identification of this mineral has been confirmed by X-ray diffraction and chemical analysis
##URL=rruff.info/R050384
##MEASURED CHEMISTRY=Cu_2.00_O
92.35352, 38.70729
92.83563, 38.87368
93.31775, 38.94573
93.79987, 38.77428
94.28198, 38.48882
94.76410, 38.48724
95.24622, 38.91597
95.72833, 39.59783
96.21045, 40.12185
96.69257, 40.47663
97.17468, 40.89208
97.65680, 41.53950
98.13892, 42.41990
98.62103, 43.53426
99.10315, 44.94453
99.58527, 46.60040
100.0674, 47.97421
100.5495, 48.87461
101.0316, 49.88888
101.5137, 51.86086
101.9958, 55.11386
102.4780, 58.21629
102.9601, 60.52590
103.4422, 61.79664
103.9243, 63.95560
104.4064, 67.39788
104.8885, 71.48711
105.3707, 75.13161
105.8528, 77.95949
106.3349, 80.81998
106.8170, 84.02091
107.2991, 87.79581
107.7813, 91.46586
108.2634, 94.90895
108.7455, 98.24717
109.2276, 101.7604
109.7097, 105.7189
110.1918, 109.6899
110.6740, 113.5003
111.1561, 116.7065
111.6382, 120.2453
112.1203, 124.4773
112.6024, 129.2714
113.0845, 133.5866
113.5667, 136.4630
114.0488, 139.2307
114.5309, 142.8228
115.0130, 147.9821
115.4951, 153.4481
115.9772, 158.9295
116.4594, 164.4651
116.9415, 170.0511
117.4236, 175.4675
117.9057, 181.0111
118.3878, 186.9738
118.8699, 194.0611
119.3521, 201.2195
119.8342, 207.7462
120.3163, 213.5120
120.7984, 219.5899
121.2805, 227.2963
121.7626, 235.7164
122.2448, 243.2864
122.7269, 249.0866
123.2090, 253.7725
123.6911, 257.6518
124.1732, 260.4888
124.6553, 263.6419
125.1375, 268.9199
125.6196, 275.7082
126.1017, 282.0622
126.5838, 286.3398
127.0659, 289.4878
127.5480, 293.3775
128.0302, 298.6114
128.5123, 304.0197
128.9944, 307.2609
129.4765, 308.6376
129.9586, 310.9769
130.4407, 317.3376
130.9229, 326.6739
131.4050, 334.6795
131.8871, 340.0012
132.3692, 343.7965
132.8513, 348.4186
133.3334, 353.3440
133.8156, 357.1284
134.2977, 359.7094
134.7798, 362.3426
135.2619, 365.6326
135.7440, 369.9784
136.2261, 375.0414
136.7083, 379.5738
137.1904, 383.5386
137.6725, 387.2191
138.1546, 391.1697
138.6367, 395.6443
139.1188, 399.1529
139.6010, 401.2004
140.0831, 401.7880
140.5652, 402.3427
141.0473, 402.8230
141.5294, 403.3284
142.0115, 403.9319
142.4937, 404.5184
142.9758, 405.4533
143.4579, 406.9719
143.9400, 409.2720
144.4221, 411.0885
144.9042, 412.3157
145.3864, 413.1144
145.8685, 413.7179
146.3506, 414.0189
146.8327, 414.2654
147.3148, 414.5921
147.7969, 415.2714
148.2791, 415.4120
148.7612, 414.8405
149.2433, 413.7646
149.7254, 412.6456
150.2075, 412.0989
150.6896, 411.0007
151.1718, 408.8588
151.6539, 403.7906
152.1360, 400.4265
152.6181, 399.8962
153.1002, 401.2800
153.5823, 401.8334
154.0645, 400.4787
154.5466, 398.9009
155.0287, 397.8908
155.5108, 398.2752
155.9929, 398.3041
156.4750, 397.3938
156.9572, 395.8083
157.4393, 394.6559
157.9214, 394.6268
158.4035, 394.8096
158.8856, 394.6363
159.3677, 393.4463
159.8499, 392.4249
160.3320, 392.1472
160.8141, 392.4585
161.2962, 392.4053
161.7783, 391.1617
162.2604, 389.6465
162.7426, 388.6179
163.2247, 388.5144
163.7068, 388.7540
164.1889, 389.1479
164.6710, 389.6846
165.1531, 390.2995
165.6353, 390.8720
166.1174, 391.5310
166.5995, 392.4152
167.0816, 393.6935
167.5637, 395.1162
168.0458, 396.4674
168.5280, 397.7313
169.0101, 399.2151
169.4922, 401.1237
169.9743, 403.3519
170.4564, 405.7454
170.9385, 408.3878
171.4207, 411.0797
171.9028, 413.6390
172.3849, 416.0424
172.8670, 418.4238
173.3491, 420.5713
173.8312, 422.7918
174.3134, 425.6876
174.7955, 430.3104
175.2776, 435.3860
175.7597, 439.2423
176.2418, 441.7228
176.7239, 443.8762
177.2061, 446.7650
177.6882, 450.1867
178.1703, 453.5264
178.6524, 456.6823
179.1345, 459.5626
179.6166, 461.8005
180.0988, 463.2848
180.5809, 464.7354
181.0630, 467.1019
181.5451, 470.2077
182.0272, 473.2450
182.5093, 475.5592
182.9915, 477.5383
183.4736, 480.2072
183.9557, 483.7996
184.4378, 487.5566
184.9199, 490.1590
185.4020, 491.7840
185.8842, 494.0639
186.3663, 497.6472
186.8484, 502.5634
187.3305, 509.6147
187.8126, 519.8834
188.2947, 529.8146
188.7769, 532.7614
189.2590, 529.0344
189.7411, 524.9818
190.2232, 524.7281
190.7053, 527.5810
191.1874, 528.8814
191.6696, 527.9313
192.1517, 525.9468
192.6338, 524.7662
193.1159, 524.3669
193.5980, 525.2988
194.0801, 528.3632
194.5623, 533.3887
195.0444, 538.1979
195.5265, 542.4728
196.0086, 546.5610
196.4907, 551.1989
196.9728, 556.4151
197.4550, 561.9028
197.9371, 567.6361
198.4192, 573.6240
198.9013, 579.3921
199.3834, 585.2062
199.8655, 590.4507
200.3477, 593.5275
200.8298, 594.1752
201.3119, 593.7618
201.7940, 592.5103
202.2761, 590.1921
202.7582, 589.7973
203.2404, 592.0889
203.7225, 596.0965
204.2046, 598.9893
204.6867, 600.4003
205.1688, 601.9846
205.6509, 604.7446
206.1331, 608.7939
206.6152, 613.3823
207.0973, 618.5646
207.5794, 624.1872
208.0615, 629.6698
208.5436, 634.7884
209.0258, 640.3830
209.5079, 647.0378
209.9900, 654.9251
210.4721, 663.0139
210.9542, 671.5848
211.4363, 680.1710
211.9185, 687.0436
212.4006, 691.7004
212.8827, 695.7537
213.3648, 699.9864
213.8469, 704.4015
214.3290, 709.1761
214.8112, 714.5656
215.2933, 720.2469
215.7754, 725.4148
216.2575, 730.4180
216.7396, 734.2507
217.2217, 736.3122
217.7038, 736.5376
218.1860, 735.2586
218.6681, 732.7294
219.1502, 728.7001
219.6323, 722.3666
220.1144, 714.2261
220.5965, 703.0502
221.0787, 687.7397
221.5608, 666.7523
222.0429, 645.9048
222.5250, 625.3666
223.0071, 605.2567
223.4892, 586.8132
223.9714, 570.0547
224.4535, 554.6807
224.9356, 540.3348
225.4177, 527.0635
225.8998, 514.9111
226.3819, 503.8318
226.8641, 493.8281
227.3462, 485.3809
227.8283, 479.0095
228.3104, 473.3989
228.7925, 467.9918
229.2746, 462.7141
229.7568, 457.5923
230.2389, 452.3488
230.7210, 447.2506
231.2031, 443.4040
231.6852, 441.4012
232.1673, 439.7696
232.6495, 437.8394
233.1316, 435.5251
233.6137, 433.0718
234.0958, 430.3210
234.5779, 427.4968
235.0600, 425.3997
235.5422, 424.8008
236.0243, 423.7814
236.5064, 421.2169
236.9885, 415.5041
237.4706, 411.9342
237.9527, 411.6418
238.4349, 413.2331
238.9170, 413.1691
239.3991, 410.5013
239.8812, 407.5941
240.3633, 405.4457
240.8454, 404.4059
241.3276, 403.2824
241.8097, 402.1756
242.2918, 400.9627
242.7739, 399.3052
243.2560, 396.7474
243.7381, 394.4547
244.2203, 392.9627
244.7024, 392.7066
245.1845, 392.0212
245.6666, 390.7746
246.1487, 389.1655
246.6308, 387.4800
247.1130, 385.4370
247.5951, 383.7762
248.0772, 382.8647
248.5593, 382.9696
249.0414, 382.7733
249.5235, 381.9503
250.0057, 381.0281
250.4878, 380.9763
250.9699, 382.4455
251.4520, 383.6199
251.9341, 383.8444
252.4162, 382.9074
252.8984, 382.0585
253.3805, 381.2509
253.8626, 380.5620
254.3447, 380.1541
254.8268, 380.1644
255.3089, 380.1656
255.7911, 380.0508
256.2732, 379.8182
256.7553, 379.4632
257.2374, 378.8585
257.7195, 378.2574
258.2017, 378.0033
258.6838, 378.2599
259.1659, 378.4882
259.6480, 378.5530
260.1301, 378.4488
260.6122, 378.3417
261.0944, 378.2237
261.5765, 378.1145
262.0586, 378.0483
262.5407, 378.0624
263.0228, 378.0055
263.5049, 377.7354
263.9871, 377.2796
264.4692, 377.3875
264.9513, 378.2173
265.4334, 379.3605
265.9155, 380.5274
266.3976, 381.7704
266.8798, 382.7944
267.3619, 383.5500
267.8440, 384.0411
268.3261, 384.1674
268.8082, 383.7458
269.2903, 383.3414
269.7725, 383.4469
270.2546, 384.1622
270.7367, 384.8917
271.2188, 385.4869
271.7009, 386.0353
272.1830, 387.0589
272.6652, 388.7771
273.1473, 390.3425
273.6294, 391.0421
274.1115, 390.6759
274.5936, 390.6722
275.0757, 391.2507
275.5579, 392.2214
276.0400, 393.0797
276.5221, 393.8451
277.0042, 394.4064
277.4863, 394.5319
277.9684, 394.1540
278.4506, 394.2916
278.9327, 395.1161
279.4148, 396.3608
279.8969, 397.5982
280.3790, 398.8824
280.8611, 399.8004
281.3433, 399.7637
281.8254, 398.7911
282.3075, 399.1442
282.7896, 401.2923
283.2717, 403.8969
283.7538, 404.5877
284.2360, 403.2907
284.7181, 402.0565
285.2002, 401.6954
285.6823, 402.1667
286.1644, 403.2236
286.6465, 404.9474
287.1287, 406.9136
287.6108, 408.7339
288.0929, 410.3902
288.5750, 411.5795
289.0571, 412.0284
289.5392, 411.9140
290.0214, 411.8207
290.5035, 411.7162
290.9856, 411.8837
291.4677, 412.9390
291.9498, 414.6941
292.4319, 415.9041
292.9141, 415.8975
293.3962, 415.2802
293.8783, 415.5050
294.3604, 416.5842
294.8425, 417.9276
295.3246, 419.3660
295.8068, 420.7318
296.2889, 421.3627
296.7710, 420.8483
297.2531, 419.8459
297.7352, 419.3532
298.2173, 419.3499
298.6995, 419.6623
299.1816, 420.2248
299.6637, 421.0065
300.1458, 422.0161
300.6279, 423.4147
301.1100, 424.6927
301.5922, 424.6407
302.0743, 423.6913
302.5564, 423.6094
303.0385, 426.5146
303.5206, 430.5681
304.0027, 433.1895
304.4849, 433.9280
304.9670, 433.6028
305.4491, 432.4581
305.9312, 430.7984
306.4133, 429.3543
306.8954, 428.1486
307.3776, 427.5260
307.8597, 428.0554
308.3418, 429.8566
308.8239, 431.9094
309.3060, 434.2141
309.7881, 436.1835
310.2703, 436.8217
310.7524, 434.1882
311.2345, 431.2372
311.7166, 429.9496
312.1987, 430.3499
312.6808, 431.8073
313.1630, 435.4878
313.6451, 439.4759
314.1272, 441.7267
314.6093, 439.8793
315.0914, 437.7012
315.5735, 437.0786
316.0557, 437.7609
316.5378, 438.4324
317.0199, 438.2164
317.5020, 437.9564
317.9841, 438.3420
318.4662, 440.2303
318.9484, 441.7151
319.4305, 441.8843
319.9126, 441.1489
320.3947, 440.5867
320.8768, 440.2941
321.3589, 440.4193
321.8411, 441.0883
322.3232, 442.4817
322.8053, 443.9950
323.2874, 446.1368
323.7695, 448.2162
324.2516, 449.1388
324.7338, 447.0294
325.2159, 445.3079
325.6980, 445.4200
326.1801, 448.1201
326.6622, 449.5125
327.1443, 447.7667
327.6265, 445.2790
328.1086, 444.4688
328.5907, 447.3333
329.0728, 449.6902
329.5549, 450.7774
330.0370, 450.5847
330.5192, 450.5188
331.0013, 450.8521
331.4834, 451.0850
331.9655, 450.8341
332.4476, 449.6220
332.9297, 448.7342
333.4119, 448.2677
333.8940, 448.2035
334.3761, 448.5116
334.8582, 449.2889
335.3403, 450.2596
335.8224, 451.3757
336.3046, 452.8770
336.7867, 453.7607
337.2688, 453.8507
337.7509, 453.4346
338.2330, 453.0026
338.7151, 452.4462
339.1973, 452.2273
339.6794, 452.5346
340.1615, 453.3764
340.6436, 454.7896
341.1257, 457.1462
341.6078, 459.2604
342.0899, 459.1205
342.5721, 456.5156
343.0542, 454.6771
343.5363, 454.7580
344.0184, 456.3595
344.5005, 457.8403
344.9826, 459.1870
345.4648, 460.4420
345.9469, 461.7709
346.4290, 463.1145
346.9111, 463.7650
347.3932, 463.2581
347.8753, 462.4337
348.3575, 463.1489
348.8396, 465.2671
349.3217, 467.3661
349.8038, 468.0427
350.2859, 467.9817
350.7680, 469.1591
351.2502, 472.1327
351.7323, 475.0714
352.2144, 475.5082
352.6965, 474.1033
353.1786, 472.8393
353.6607, 472.6876
354.1429, 473.2481
354.6250, 474.2451
355.1071, 475.6909
355.5892, 476.9408
356.0713, 477.3744
356.5534, 477.3286
357.0356, 477.2897
357.5177, 477.0643
357.9998, 477.2285
358.4819, 478.4496
358.9640, 480.5570
359.4461, 482.5744
359.9283, 483.9572
360.4104, 485.0438
360.8925, 486.1308
361.3746, 487.4054
361.8567, 488.4636
362.3388, 489.1120
362.8210, 489.4115
363.3031, 489.5228
363.7852, 488.7405
364.2673, 488.3801
364.7494, 489.2961
365.2315, 492.0705
365.7137, 494.2954
366.1958, 494.7270
366.6779, 494.6137
367.1600, 495.4280
367.6421, 498.7214
368.1242, 501.5212
368.6064, 503.0555
369.0885, 503.2528
369.5706, 503.5797
370.0527, 504.1056
370.5348, 504.7148
371.0169, 505.3300
371.4991, 505.8240
371.9812, 506.5274
372.4633, 507.3805
372.9454, 508.4714
373.4275, 510.1962
373.9096, 513.1295
374.3918, 515.7359
374.8739, 517.1078
375.3560, 516.8604
375.8381, 517.3104
376.3202, 518.8307
376.8023, 520.5536
377.2845, 520.8081
377.7666, 519.1727
378.2487, 518.3749
378.7308, 519.5735
379.2129, 522.4475
379.6950, 524.7677
380.1772, 526.4976
380.6593, 527.9455
381.1414, 529.3262
381.6235, 530.6471
382.1056, 532.0988
382.5877, 533.7081
383.0699, 535.4682
383.5520, 537.5634
384.0341, 539.9484
384.5162, 541.9590
384.9983, 543.1066
385.4804, 543.6038
385.9626, 543.7080
386.4447, 543.3036
386.9268, 543.2648
387.4089, 544.7811
387.8910, 547.3559
388.3731, 549.8417
388.8553, 551.4901
389.3374, 552.9644
389.8195, 555.0181
390.3016, 557.5863
390.7837, 559.9555
391.2658, 561.8243
391.7480, 563.1763
392.2301, 563.9056
392.7122, 563.1418
393.1943, 562.9230
393.6764, 564.9454
394.1585, 568.3906
394.6407, 570.8851
395.1228, 570.7438
395.6049, 570.1715
396.0870, 570.2354
396.5691, 571.1736
397.0512, 572.3937
397.5334, 573.4537
398.0155, 574.8480
398.4976, 577.1739
398.9797, 582.4158
399.4618, 586.5359
399.9439, 588.3837
400.4261, 587.9659
400.9082, 587.9526
401.3903, 588.2881
401.8724, 589.0634
402.3545, 590.3812
402.8366, 592.4455
403.3188, 594.5800
403.8009, 596.8104
404.2830, 599.0605
404.7651, 601.2102
405.2472, 603.3585
405.7293, 605.0697
406.2115, 606.0467
406.6936, 606.2596
407.1757, 606.5654
407.6578, 606.9226
408.1399, 607.5016
408.6220, 608.5958
409.1042, 610.1959
409.5863, 611.8537
410.0684, 613.6406
410.5505, 615.2584
411.0326, 615.8132
411.5147, 615.3436
411.9969, 614.9827
412.4790, 615.7822
412.9611, 617.2822
413.4432, 618.3049
413.9253, 618.6131
414.4074, 618.8062
414.8896, 619.7158
415.3717, 621.0251
415.8538, 621.9777
416.3359, 621.8124
416.8180, 621.3773
417.3001, 621.7645
417.7823, 622.9372
418.2644, 623.3187
418.7465, 620.9276
419.2286, 617.7983
419.7107, 615.9572
420.1928, 616.6757
420.6750, 617.7018
421.1571, 617.9500
421.6392, 617.8304
422.1213, 618.4103
422.6034, 621.7127
423.0855, 624.2796
423.5677, 624.2219
424.0498, 620.2399
424.5319, 617.8423
425.0140, 619.1042
425.4961, 621.3593
425.9782, 621.8669
426.4604, 618.9040
426.9425, 616.7337
427.4246, 616.0358
427.9067, 616.6661
428.3888, 617.7632
428.8709, 619.7748
429.3531, 621.4659
429.8352, 621.9094
430.3173, 620.6697
430.7994, 620.5828
431.2815, 622.2549
431.7636, 624.2240
432.2458, 623.5693
432.7279, 620.0746
433.2100, 617.4970
433.6921, 617.4920
434.1742, 619.3633
434.6563, 620.6873
435.1385, 621.4739
435.6206, 621.8964
436.1027, 621.9165
436.5848, 621.6887
437.0669, 621.6514
437.5490, 621.9369
438.0312, 622.3307
438.5133, 622.4730
438.9954, 622.5181
439.4775, 622.8818
439.9596, 624.4308
440.4417, 625.9965
440.9239, 626.1939
441.4060, 624.9486
441.8881, 624.1241
442.3702, 625.3213
442.8523, 627.2174
443.3344, 628.5421
443.8166, 628.4554
444.2987, 628.3297
444.7808, 628.5057
445.2629, 628.9430
445.7450, 629.5381
446.2271, 629.7859
446.7093, 630.5830
447.1914, 632.5828
447.6735, 636.5892
448.1556, 639.1255
448.6377, 639.2503
449.1198, 638.5143
449.6020, 638.5038
450.0841, 639.6985
450.5662, 640.5925
451.0483, 640.7930
451.5304, 640.5334
452.0125, 640.7781
452.4947, 641.4926
452.9768, 642.8236
453.4589, 645.2949
453.9410, 648.9736
454.4231, 651.2131
454.9052, 651.7653
455.3874, 651.5867
455.8695, 651.7723
456.3516, 652.2960
456.8337, 652.9696
457.3158, 653.7256
457.7979, 654.6102
458.2801, 655.9700
458.7622, 657.6897
459.2443, 658.9786
459.7264, 658.7482
460.2085, 657.9761
460.6906, 657.9567
461.1728, 658.9487
461.6549, 660.3849
462.1370, 662.2768
462.6191, 664.2579
463.1012, 665.7408
463.5833, 665.7858
464.0655, 665.9612
464.5476, 667.2620
465.0297, 669.5077
465.5118, 671.1713
465.9939, 670.8339
466.4760, 670.4940
466.9582, 671.3368
467.4403, 674.7125
467.9224, 676.9864
468.4045, 677.2122
468.8866, 676.6639
469.3687, 677.2514
469.8509, 679.8134
470.3330, 681.9570
470.8151, 682.9554
471.2972, 682.9705
471.7793, 683.7112
472.2614, 685.3835
472.7436, 687.2606
473.2257, 688.9426
473.7078, 690.4391
474.1899, 691.3937
474.6720, 691.5649
475.1541, 691.7927
475.6363, 693.9108
476.1184, 697.5182
476.6005, 700.0141
477.0826, 699.6230
477.5647, 697.9280
478.0468, 697.4363
478.5290, 698.0836
479.0111, 699.2906
479.4932, 701.3275
479.9753, 703.4045
480.4574, 704.3209
480.9395, 703.3752
481.4217, 702.9097
481.9038, 704.8589
482.3859, 708.0881
482.8680, 710.9144
483.3501, 712.6935
483.8322, 714.0541
484.3144, 715.2180
484.7965, 716.1652
485.2786, 716.7396
485.7607, 716.0635
486.2428, 715.6632
486.7249, 716.3944
487.2071, 719.1593
487.6892, 721.1171
488.1713, 722.2485
488.6534, 722.5959
489.1355, 721.9116
489.6176, 719.4260
490.0998, 718.3554
490.5819, 720.1014
491.0640, 723.8458
491.5461, 725.0338
492.0282, 723.3730
492.5103, 721.4830
492.9925, 721.2479
493.4746, 722.3829
493.9567, 723.2939
494.4388, 723.7706
494.9209, 724.5519
495.4030, 727.2354
495.8852, 730.9069
496.3673, 733.3018
496.8494, 732.6797
497.3315, 731.2137
497.8136, 730.6343
498.2957, 730.8973
498.7779, 731.8766
499.2600, 733.9819
499.7421, 736.4537
500.2242, 738.9156
500.7063, 741.4869
501.1884, 743.4120
501.6706, 743.8685
502.1527, 743.8422
502.6348, 744.3182
503.1169, 746.1678
503.5990, 747.6697
504.0811, 748.8785
504.5633, 749.6395
505.0454, 749.1444
505.5275, 746.2572
506.0096, 744.1030
506.4917, 744.2174
506.9738, 746.8527
507.4560, 748.4997
507.9381, 748.8116
508.4202, 749.0593
508.9023, 750.9280
509.3844, 754.2802
509.8665, 756.6470
510.3487, 757.3569
510.8308, 757.2797
511.3129, 757.7853
511.7950, 758.7808
512.2772, 759.8197
512.7593, 760.8648
513.2414, 761.7202
513.7235, 761.8124
514.2056, 761.2015
514.6877, 761.2245
515.1699, 763.1974
515.6520, 765.9483
516.1341, 768.4548
516.6162, 770.6431
517.0983, 772.2612
517.5804, 772.7908
518.0626, 772.7885
518.5447, 773.1716
519.0268, 774.2219
519.5089, 775.5336
519.9910, 777.3085
520.4731, 779.4679
520.9553, 780.5165
521.4374, 779.4977
521.9195, 778.7866
522.4016, 780.0012
522.8837, 783.7042
523.3658, 786.3314
523.8480, 787.7374
524.3301, 788.3432
524.8122, 788.5356
525.2943, 788.3451
525.7764, 788.1476
526.2585, 788.0710
526.7407, 788.0275
527.2228, 787.5519
527.7049, 786.8110
528.1870, 786.7662
528.6691, 788.4990
529.1512, 790.9837
529.6334, 793.1909
530.1155, 795.0671
530.5976, 796.3495
531.0797, 795.8763
531.5618, 795.2092
532.0439, 795.9755
532.5261, 800.0871
533.0082, 803.4800
533.4903, 804.5328
533.9724, 804.2332
534.4545, 804.7356
534.9366, 807.0372
535.4188, 809.2262
535.9009, 810.8091
536.3830, 811.8101
536.8651, 813.0751
537.3472, 814.8626
537.8293, 816.4371
538.3115, 817.2347
538.7936, 817.2112
539.2757, 817.0562
539.7578, 816.6642
540.2399, 816.5602
540.7220, 817.7180
541.2042, 819.9070
541.6863, 821.8470
542.1684, 822.9432
542.6505, 823.8486
543.1326, 825.6641
543.6147, 828.1478
544.0969, 830.4452
544.5790, 831.8219
545.0611, 832.8922
545.5432, 834.2394
546.0253, 835.9294
546.5074, 837.2983
546.9896, 837.5380
547.4717, 837.6234
547.9538, 838.3563
548.4359, 840.6188
548.9180, 842.5241
549.4001, 843.8620
549.8823, 844.8029
550.3644, 845.5613
550.8465, 845.8457
551.3286, 846.5648
551.8107, 848.1788
552.2928, 850.4911
552.7750, 851.8229
553.2571, 851.9756
553.7392, 852.1752
554.2213, 853.3844
554.7034, 855.3890
555.1855, 856.9330
555.6677, 857.8942
556.1498, 858.8348
556.6319, 860.6595
557.1140, 862.8589
557.5961, 864.3029
558.0782, 864.3091
558.5604, 864.0604
559.0425, 864.1340
559.5246, 864.6735
560.0067, 866.0182
560.4888, 869.3370
560.9709, 872.5464
561.4531, 874.5675
561.9352, 875.3763
562.4173, 876.1870
562.8994, 877.1906
563.3815, 878.2179
563.8636, 879.1384
564.3458, 879.6883
564.8279, 880.9549
565.3100, 883.3981
565.7921, 886.0079
566.2742, 887.4624
566.7563, 887.7074
567.2385, 887.2699
567.7206, 885.7289
568.2027, 884.2426
568.6848, 885.8895
569.1669, 890.3043
569.6490, 894.6092
570.1312, 897.3844
570.6133, 899.1105
571.0954, 900.1412
571.5775, 900.5560
572.0596, 901.1819
572.5417, 902.5305
573.0239, 904.3442
573.5060, 906.1209
573.9881, 907.0764
574.4702, 909.9728
574.9523, 919.2998
575.4344, 929.7402
575.9166, 934.4285
576.3987, 927.3296
576.8808, 922.0084
577.3629, 919.9987
577.8450, 920.7582
578.3271, 922.7711
578.8093, 926.5661
579.2914, 929.9979
579.7735, 932.0843
580.2556, 932.9460
580.7377, 933.5005
581.2198, 933.6578
581.7020, 934.3381
582.1841, 936.6823
582.6662, 940.0695
583.1483, 943.1129
583.6304, 945.5719
584.1125, 947.7262
584.5947, 950.4891
585.0768, 952.9371
585.5589, 953.6686
586.0410, 949.8307
586.5231, 946.8989
587.0052, 947.8758
587.4873, 951.5884
587.9694, 954.8312
588.4515, 957.1627
588.9337, 958.8084
589.4158, 959.4577
589.8979, 959.1025
590.3800, 960.0441
590.8621, 962.7827
591.3442, 965.9230
591.8264, 968.6517
592.3085, 970.9650
592.7906, 972.6049
593.2727, 973.2598
593.7548, 974.2743
594.2369, 978.1193
594.7191, 983.8752
595.2012, 987.8400
595.6833, 988.6586
596.1654, 988.2790
596.6475, 988.2331
597.1296, 988.6497
597.6118, 989.8243
598.0939, 992.2619
598.5760, 995.1904
599.0581, 998.7213
599.5402, 1002.623
600.0223, 1005.457
600.5045, 1005.675
600.9866, 1005.845
601.4687, 1007.119
601.9508, 1009.663
602.4329, 1012.708
602.9150, 1016.488
603.3972, 1020.415
603.8793, 1024.160
604.3614, 1027.825
604.8435, 1030.195
605.3256, 1030.806
605.8077, 1030.739
606.2899, 1031.220
606.7720, 1032.358
607.2541, 1034.769
607.7362, 1039.271
608.2183, 1044.514
608.7004, 1049.113
609.1826, 1053.126
609.6647, 1056.591
610.1468, 1058.928
610.6289, 1061.294
611.1110, 1064.724
611.5931, 1069.381
612.0753, 1073.000
612.5574, 1074.173
613.0395, 1074.982
613.5216, 1076.656
614.0037, 1079.703
614.4858, 1082.281
614.9680, 1084.037
615.4501, 1085.790
615.9322, 1088.958
616.4143, 1093.672
616.8964, 1096.642
617.3785, 1096.554
617.8607, 1095.677
618.3428, 1098.279
618.8249, 1103.675
619.3070, 1109.025
619.7891, 1113.727
620.2712, 1117.242
620.7534, 1118.504
621.2355, 1117.927
621.7176, 1117.335
622.1997, 1116.943
622.6818, 1117.365
623.1639, 1119.155
623.6461, 1122.559
624.1282, 1125.958
624.6103, 1129.302
625.0924, 1132.499
625.5745, 1135.569
626.0566, 1138.853
626.5388, 1140.952
627.0209, 1141.478
627.5030, 1141.344
627.9851, 1141.612
628.4672, 1142.273
628.9493, 1143.511
629.4315, 1145.616
629.9136, 1147.845
630.3957, 1148.871
630.8778, 1149.027
631.3599, 1149.295
631.8420, 1150.266
632.3242, 1151.459
632.8063, 1152.769
633.2884, 1154.085
633.7705, 1154.878
634.2526, 1154.644
634.7347, 1154.134
635.2169, 1153.502
635.6990, 1152.606
636.1811, 1152.656
636.6632, 1153.844
637.1453, 1155.735
637.6274, 1158.451
638.1096, 1162.418
638.5917, 1163.957
639.0738, 1162.308
639.5559, 1159.954
640.0380, 1160.681
640.5201, 1163.620
641.0023, 1164.690
641.4844, 1161.970
641.9665, 1158.831
642.4486, 1159.121
642.9307, 1161.703
643.4128, 1164.081
643.8950, 1165.323
644.3771, 1166.041
644.8592, 1166.171
645.3413, 1165.916
645.8234, 1166.274
646.3055, 1168.210
646.7877, 1169.947
647.2698, 1170.773
647.7519, 1170.646
648.2340, 1171.020
648.7161, 1171.886
649.1982, 1173.237
649.6804, 1175.632
650.1625, 1178.801
650.6446, 1179.889
651.1267, 1178.552
651.6088, 1176.689
652.0909, 1176.114
652.5731, 1176.424
653.0552, 1176.858
653.5373, 1177.059
654.0194, 1177.803
654.5015, 1180.184
654.9836, 1183.274
655.4658, 1185.715
655.9479, 1186.202
656.4300, 1187.144
656.9121, 1189.938
657.3942, 1193.517
657.8763, 1194.697
658.3585, 1192.208
658.8406, 1190.261
659.3227, 1190.150
659.8048, 1191.626
660.2869, 1193.863
660.7690, 1196.885
661.2512, 1199.331
661.7333, 1199.545
662.2154, 1198.760
662.6975, 1199.413
663.1796, 1201.555
663.6617, 1204.106
664.1439, 1206.701
664.6260, 1209.146
665.1081, 1211.435
665.5902, 1213.831
666.0723, 1215.142
666.5544, 1213.503
667.0366, 1211.629
667.5187, 1212.108
668.0008, 1216.561
668.4829, 1220.167
668.9650, 1222.724
669.4471, 1224.272
669.9293, 1224.440
670.4114, 1223.211
670.8935, 1222.652
671.3756, 1223.268
671.8577, 1224.888
672.3398, 1227.888
672.8220, 1231.791
673.3041, 1234.956
673.7862, 1235.828
674.2683, 1236.256
674.7504, 1237.643
675.2325, 1239.791
675.7147, 1241.609
676.1968, 1241.800
676.6789, 1242.507
677.1610, 1245.273
677.6431, 1250.309
678.1252, 1252.705
678.6074, 1251.285
679.0895, 1249.386
679.5716, 1248.917
680.0537, 1249.879
680.5358, 1252.154
681.0179, 1255.914
681.5001, 1259.616
681.9822, 1261.455
682.4643, 1262.146
682.9464, 1263.070
683.4285, 1264.508
683.9106, 1266.102
684.3928, 1267.761
684.8749, 1269.380
685.3570, 1270.853
685.8391, 1271.269
686.3212, 1272.644
686.8033, 1276.280
687.2855, 1280.766
687.7676, 1283.860
688.2497, 1285.175
688.7318, 1286.151
689.2139, 1286.976
689.6960, 1287.781
690.1782, 1288.815
690.6603, 1290.092
691.1424, 1291.759
691.6245, 1294.458
692.1066, 1297.244
692.5887, 1298.213
693.0709, 1297.794
693.5530, 1297.865
694.0351, 1299.406
694.5172, 1301.783
694.9993, 1305.008
695.4814, 1309.087
695.9636, 1312.258
696.4457, 1313.216
696.9278, 1314.198
697.4099, 1316.180
697.8920, 1319.230
698.3741, 1323.119
698.8563, 1328.372
699.3384, 1332.836
699.8205, 1333.756
700.3026, 1332.016
700.7847, 1332.122
701.2668, 1334.776
701.7490, 1337.507
702.2311, 1337.515
702.7132, 1336.293
703.1953, 1335.898
703.6774, 1337.019
704.1595, 1338.693
704.6417, 1340.738
705.1238, 1343.072
705.6059, 1345.611
706.0880, 1349.262
706.5701, 1351.569
707.0522, 1351.744
707.5344, 1350.857
708.0165, 1350.810
708.4986, 1351.550
708.9807, 1353.920
709.4628, 1358.716
709.9449, 1364.608
710.4271, 1369.700
710.9092, 1373.819
711.3913, 1376.513
711.8734, 1376.460
712.3555, 1375.776
712.8376, 1375.596
713.3198, 1376.003
713.8019, 1377.201
714.2840, 1380.262
714.7661, 1383.126
715.2482, 1384.871
715.7303, 1385.552
716.2125, 1386.698
716.6946, 1388.304
717.1767, 1390.410
717.6588, 1393.273
718.1409, 1396.764
718.6230, 1399.680
719.1052, 1402.047
719.5873, 1404.132
720.0694, 1406.211
720.5515, 1408.162
721.0336, 1409.762
721.5157, 1410.921
721.9979, 1412.246
722.4800, 1414.437
722.9621, 1416.651
723.4442, 1418.079
723.9263, 1417.613
724.4084, 1418.709
724.8906, 1422.056
725.3727, 1426.167
725.8548, 1429.556
726.3369, 1432.198
726.8190, 1434.855
727.3011, 1437.574
727.7833, 1440.331
728.2654, 1443.483
728.7475, 1446.579
729.2296, 1448.286
729.7117, 1447.210
730.1938, 1446.813
730.6760, 1450.822
731.1581, 1456.671
731.6402, 1460.469
732.1223, 1458.787
732.6044, 1458.138
733.0865, 1460.162
733.5687, 1463.518
734.0508, 1465.271
734.5329, 1465.003
735.0150, 1464.825
735.4971, 1464.969
735.9792, 1465.917
736.4614, 1469.691
736.9435, 1475.632
737.4256, 1480.344
737.9077, 1481.681
738.3898, 1481.381
738.8719, 1479.805
739.3541, 1477.681
739.8362, 1477.621
740.3183, 1482.443
740.8004, 1487.602
741.2825, 1491.524
741.7646, 1494.277
742.2468, 1496.089
742.7289, 1496.050
743.2110, 1497.364
743.6931, 1502.373
744.1752, 1510.102
744.6573, 1514.976
745.1395, 1517.000
745.6216, 1517.576
746.1037, 1516.271
746.5858, 1514.842
747.0679, 1515.736
747.5500, 1518.995
748.0322, 1522.428
748.5143, 1525.650
748.9964, 1528.262
749.4785, 1529.849
749.9606, 1530.112
750.4427, 1530.909
750.9249, 1532.440
751.4070, 1534.174
751.8891, 1535.279
752.3712, 1535.809
752.8533, 1539.355
753.3354, 1546.450
753.8176, 1552.658
754.2997, 1552.159
754.7818, 1548.675
755.2639, 1548.146
755.7460, 1551.852
756.2281, 1556.146
756.7103, 1559.917
757.1924, 1562.945
757.6745, 1564.776
758.1566, 1563.385
758.6387, 1564.993
759.1208, 1571.251
759.6030, 1578.525
760.0851, 1582.945
760.5672, 1584.441
761.0493, 1585.853
761.5314, 1587.460
762.0135, 1589.097
762.4957, 1589.962
762.9778, 1590.818
763.4599, 1593.510
763.9420, 1599.619
764.4241, 1604.747
764.9063, 1605.296
765.3884, 1603.975
765.8705, 1604.109
766.3526, 1606.969
766.8347, 1610.297
767.3168, 1614.581
767.7990, 1618.835
768.2811, 1621.125
768.7632, 1621.302
769.2453, 1622.966
769.7274, 1627.246
770.2095, 1632.198
770.6917, 1634.536
771.1738, 1635.447
771.6559, 1637.698
772.1380, 1643.625
772.6201, 1649.179
773.1022, 1652.047
773.5844, 1653.094
774.0665, 1653.772
774.5486, 1653.577
775.0307, 1654.094
775.5128, 1655.751
775.9949, 1658.108
776.4771, 1660.286
776.9592, 1662.327
777.4413, 1663.799
777.9234, 1664.075
778.4055, 1664.580
778.8876, 1668.610
779.3698, 1674.685
779.8519, 1679.010
780.3340, 1677.235
780.8161, 1675.992
781.2982, 1679.332
781.7803, 1685.548
782.2625, 1689.891
782.7446, 1690.228
783.2267, 1691.677
783.7088, 1695.813
784.1909, 1701.393
784.6730, 1704.316
785.1552, 1704.624
785.6373, 1706.383
786.1194, 1712.003
786.6015, 1718.994
787.0836, 1724.228
787.5657, 1727.807
788.0479, 1729.949
788.5300, 1728.943
789.0121, 1728.292
789.4942, 1729.435
789.9763, 1732.199
790.4584, 1735.718
790.9406, 1740.298
791.4227, 1744.929
791.9048, 1749.473
792.3869, 1753.757
792.8690, 1757.122
793.3511, 1759.636
793.8333, 1761.909
794.3154, 1764.512
794.7975, 1766.815
795.2796, 1767.634
795.7617, 1767.442
796.2438, 1767.679
796.7260, 1768.563
797.2081, 1770.411
797.6902, 1774.411
798.1723, 1779.649
798.6544, 1782.210
799.1365, 1780.515
799.6187, 1780.432
800.1008, 1784.442
800.5829, 1791.046
801.0650, 1795.774
801.5471, 1798.842
802.0292, 1801.827
802.5114, 1805.833
802.9935, 1809.867
803.4756, 1813.160
803.9577, 1815.700
804.4398, 1817.432
804.9219, 1817.348
805.4041, 1817.514
805.8862, 1818.059
806.3683, 1819.285
806.8504, 1822.988
807.3325, 1829.879
807.8146, 1835.766
808.2968, 1838.655
808.7789, 1839.947
809.2610, 1843.048
809.7431, 1847.453
810.2252, 1851.081
810.7073, 1852.132
811.1895, 1852.746
811.6716, 1854.351
812.1537, 1856.694
812.6358, 1858.702
813.1179, 1858.780
813.6000, 1860.633
814.0822, 1866.049
814.5643, 1873.598
815.0464, 1877.773
815.5285, 1878.514
816.0106, 1878.718
816.4927, 1878.899
816.9749, 1879.904
817.4570, 1883.924
817.9391, 1889.904
818.4212, 1894.933
818.9033, 1895.873
819.3854, 1897.409
819.8676, 1902.444
820.3497, 1909.637
820.8318, 1914.195
821.3139, 1914.550
821.7960, 1915.861
822.2781, 1919.744
822.7603, 1924.992
823.2424, 1929.146
823.7245, 1932.224
824.2066, 1934.248
824.6887, 1934.762
825.1708, 1934.858
825.6530, 1935.172
826.1351, 1935.895
826.6172, 1937.413
827.0993, 1939.854
827.5814, 1943.257
828.0635, 1948.531
828.5457, 1954.393
829.0278, 1957.990
829.5099, 1958.940
829.9920, 1960.185
830.4741, 1962.453
830.9562, 1965.348
831.4384, 1968.237
831.9205, 1971.262
832.4026, 1974.886
832.8847, 1980.520
833.3668, 1985.033
833.8489, 1985.523
834.3311, 1984.156
834.8132, 1984.718
835.2953, 1988.268
835.7774, 1991.949
836.2595, 1995.356
836.7416, 1998.854
837.2238, 2003.321
837.7059, 2008.639
838.1880, 2013.429
838.6701, 2017.660
839.1522, 2020.531
839.6343, 2019.154
840.1165, 2016.620
840.5986, 2017.470
841.0807, 2025.048
841.5628, 2032.643
842.0449, 2039.645
842.5270, 2045.542
843.0092, 2049.688
843.4913, 2051.965
843.9734, 2052.770
844.4555, 2051.678
844.9376, 2050.869
845.4197, 2053.408
845.9019, 2058.078
846.3840, 2062.622
846.8661, 2066.824
847.3482, 2069.881
847.8303, 2070.305
848.3124, 2070.022
848.7946, 2070.728
849.2767, 2072.556
849.7588, 2075.424
850.2409, 2079.595
850.7230, 2084.290
851.2051, 2089.005
851.6873, 2093.644
852.1694, 2097.729
852.6515, 2101.190
853.1336, 2104.907
853.6157, 2110.105
854.0978, 2115.604
854.5800, 2120.634
855.0621, 2125.221
855.5442, 2128.004
856.0263, 2126.390
856.5084, 2125.368
856.9905, 2127.877
857.4727, 2133.933
857.9548, 2137.524
858.4369, 2138.488
858.9190, 2139.149
859.4011, 2140.774
859.8832, 2143.374
860.3654, 2147.150
860.8475, 2152.021
861.3296, 2157.210
861.8117, 2163.232
862.2938, 2168.713
862.7759, 2172.917
863.2581, 2175.945
863.7402, 2178.406
864.2223, 2179.905
864.7044, 2182.112
865.1865, 2185.945
865.6686, 2190.789
866.1508, 2195.406
866.6329, 2199.671
867.1150, 2202.910
867.5971, 2203.771
868.0792, 2204.449
868.5613, 2205.921
869.0435, 2208.224
869.5256, 2211.463
870.0077, 2215.883
870.4898, 2220.696
870.9719, 2225.950
871.4540, 2231.407
871.9362, 2237.343
872.4183, 2243.428
872.9004, 2246.489
873.3825, 2243.965
873.8646, 2241.499
874.3467, 2245.580
874.8289, 2253.038
875.3110, 2259.030
875.7931, 2260.831
876.2752, 2262.826
876.7573, 2265.277
877.2394, 2268.183
877.7216, 2271.884
878.2037, 2276.464
878.6858, 2279.845
879.1679, 2281.624
879.6500, 2283.042
880.1321, 2285.479
880.6143, 2288.455
881.0964, 2291.101
881.5785, 2293.013
882.0606, 2295.837
882.5427, 2301.065
883.0248, 2306.739
883.5070, 2311.320
883.9891, 2314.484
884.4712, 2318.926
884.9533, 2324.893
885.4354, 2330.607
885.9175, 2334.501
886.3997, 2337.155
886.8818, 2339.290
887.3639, 2341.047
887.8460, 2343.579
888.3281, 2348.117
888.8102, 2352.991
889.2924, 2357.120
889.7745, 2360.566
890.2566, 2364.911
890.7387, 2370.627
891.2208, 2375.708
891.7029, 2379.029
892.1851, 2381.400
892.6672, 2385.589
893.1493, 2391.020
893.6314, 2395.068
894.1135, 2395.190
894.5956, 2394.857
895.0778, 2395.238
895.5599, 2396.725
896.0420, 2400.531
896.5241, 2408.960
897.0062, 2414.614
897.4883, 2415.152
897.9705, 2413.963
898.4526, 2417.614
898.9347, 2425.150
899.4168, 2432.068
899.8989, 2437.129
900.3810, 2441.843
900.8632, 2447.901
901.3453, 2454.111
901.8274, 2459.257
902.3095, 2463.238
902.7916, 2465.137
903.2737, 2462.996
903.7559, 2461.688
904.2380, 2466.556
904.7201, 2476.863
905.2022, 2485.728
905.6843, 2492.651
906.1664, 2497.458
906.6486, 2498.947
907.1307, 2498.844
907.6128, 2498.203
908.0949, 2497.070
908.5770, 2497.554
909.0591, 2500.169
909.5413, 2504.167
910.0234, 2509.698
910.5055, 2516.440
910.9876, 2522.646
911.4697, 2528.287
911.9518, 2532.580
912.4340, 2534.069
912.9161, 2534.812
913.3982, 2535.974
913.8803, 2537.997
914.3624, 2542.114
914.8445, 2552.221
915.3267, 2559.643
915.8088, 2561.306
916.2909, 2560.639
916.7730, 2565.140
917.2551, 2574.676
917.7372, 2582.792
918.2194, 2587.844
918.7015, 2591.765
919.1836, 2596.652
919.6657, 2601.735
920.1478, 2605.810
920.6299, 2607.637
921.1121, 2610.748
921.5942, 2617.011
922.0763, 2623.286
922.5584, 2626.447
923.0405, 2626.314
923.5226, 2629.597
924.0048, 2636.689
924.4869, 2643.363
924.9690, 2645.427
925.4511, 2645.707
925.9332, 2646.613
926.4153, 2648.425
926.8975, 2652.595
927.3796, 2663.644
927.8617, 2672.307
928.3438, 2674.148
928.8259, 2671.130
929.3080, 2674.459
929.7902, 2684.007
930.2723, 2692.611
930.7544, 2696.690
931.2365, 2698.673
931.7186, 2701.154
932.2007, 2703.648
932.6829, 2705.137
933.1650, 2702.884
933.6471, 2703.012
934.1292, 2706.609
934.6113, 2712.567
935.0934, 2720.267
935.5756, 2729.732
936.0577, 2735.638
936.5398, 2736.774
937.0219, 2737.162
937.5040, 2740.596
937.9861, 2745.542
938.4683, 2750.381
938.9504, 2754.949
939.4325, 2758.731
939.9146, 2760.798
940.3967, 2763.054
940.8788, 2766.688
941.3610, 2771.539
941.8431, 2775.365
942.3252, 2778.258
942.8073, 2782.104
943.2894, 2789.544
943.7715, 2797.248
944.2537, 2801.762
944.7358, 2803.864
945.2179, 2806.698
945.7000, 2811.444
946.1821, 2816.372
946.6642, 2821.427
947.1464, 2826.406
947.6285, 2830.833
948.1106, 2834.768
948.5927, 2838.299
949.0748, 2841.167
949.5569, 2844.583
950.0391, 2849.729
950.5212, 2855.991
951.0033, 2862.849
951.4854, 2871.629
951.9675, 2877.157
952.4496, 2877.272
952.9318, 2877.780
953.4139, 2884.280
953.8960, 2895.406
954.3781, 2903.086
954.8602, 2907.242
955.3423, 2910.508
955.8245, 2914.197
956.3066, 2917.980
956.7887, 2921.438
957.2708, 2924.711
957.7529, 2928.909
958.2350, 2935.013
958.7172, 2939.755
959.1993, 2941.795
959.6814, 2942.680
960.1635, 2945.810
960.6456, 2950.617
961.1277, 2955.266
961.6099, 2959.300
962.0920, 2962.806
962.5741, 2964.503
963.0562, 2966.453
963.5383, 2971.115
964.0204, 2979.720
964.5026, 2987.610
964.9847, 2994.634
965.4668, 3001.124
965.9489, 3007.207
966.4310, 3012.968
966.9131, 3019.276
967.3953, 3025.985
967.8774, 3031.321
968.3595, 3030.807
968.8416, 3032.319
969.3237, 3041.914
969.8058, 3056.914
970.2880, 3064.519
970.7701, 3063.949
971.2522, 3062.748
971.7343, 3062.851
972.2164, 3064.608
972.6985, 3069.035
973.1807, 3075.396
973.6628, 3082.322
974.1449, 3091.017
974.6270, 3097.616
975.1091, 3099.999
975.5912, 3101.398
976.0734, 3104.731
976.5555, 3110.025
977.0376, 3115.303
977.5197, 3120.347
978.0018, 3127.235
978.4839, 3141.115
978.9661, 3155.416
979.4482, 3162.842
979.9303, 3163.357
980.4124, 3164.398
980.8945, 3166.999
981.3766, 3170.568
981.8588, 3175.238
982.3409, 3180.545
982.8230, 3184.799
983.3051, 3188.347
983.7872, 3193.225
984.2693, 3200.705
984.7515, 3208.576
985.2336, 3215.694
985.7157, 3222.075
986.1978, 3227.679
986.6799, 3232.358
987.1620, 3236.573
987.6442, 3240.113
988.1263, 3243.727
988.6084, 3248.251
989.0905, 3253.318
989.5726, 3257.938
990.0547, 3262.114
990.5369, 3266.118
991.0190, 3269.514
991.5011, 3273.407
991.9832, 3278.507
992.4653, 3284.531
992.9474, 3291.049
993.4296, 3298.210
993.9117, 3303.811
994.3938, 3306.312
994.8759, 3308.965
995.3580, 3318.266
995.8401, 3329.986
996.3223, 3337.305
996.8044, 3335.893
997.2865, 3335.675
997.7686, 3338.310
998.2507, 3342.271
998.7328, 3346.986
999.2150, 3352.316
999.6971, 3355.122
1000.179, 3355.497
1000.661, 3357.741
1001.143, 3366.071
1001.626, 3376.373
1002.108, 3387.029
1002.590, 3397.174
1003.072, 3403.558
1003.554, 3404.121
1004.036, 3405.400
1004.518, 3408.361
1005.000, 3413.217
1005.482, 3421.638
1005.965, 3432.125
1006.447, 3440.216
1006.929, 3444.227
1007.411, 3448.391
1007.893, 3455.509
1008.375, 3463.000
1008.857, 3468.783
1009.339, 3472.704
1009.822, 3477.605
1010.304, 3483.508
1010.786, 3489.935
1011.268, 3496.890
1011.750, 3503.810
1012.232, 3510.088
1012.714, 3515.748
1013.196, 3520.948
1013.678, 3524.148
1014.161, 3529.182
1014.643, 3537.221
1015.125, 3546.333
1015.607, 3553.507
1016.089, 3559.074
1016.571, 3565.534
1017.053, 3573.332
1017.535, 3580.812
1018.018, 3588.523
1018.500, 3594.056
1018.982, 3593.695
1019.464, 3587.178
1019.946, 3587.570
1020.428, 3596.764
1020.910, 3605.971
1021.392, 3610.844
1021.874, 3614.107
1022.357, 3621.492
1022.839, 3631.351
1023.321, 3639.742
1023.803, 3643.324
1024.285, 3647.970
1024.767, 3657.497
1025.249, 3666.581
1025.731, 3668.075
1026.214, 3661.809
1026.696, 3665.756
1027.178, 3681.057
1027.660, 3696.409
1028.142, 3701.590
1028.624, 3704.231
1029.106, 3712.098
1029.588, 3724.430
1030.070, 3732.124
1030.553, 3732.673
1031.035, 3733.450
1031.517, 3735.807
1031.999, 3739.984
1032.481, 3747.689
1032.963, 3757.479
1033.445, 3765.624
1033.927, 3770.868
1034.410, 3775.802
1034.892, 3779.422
1035.374, 3785.021
1035.856, 3795.736
1036.338, 3811.809
1036.820, 3822.589
1037.302, 3827.861
1037.784, 3830.999
1038.266, 3831.268
1038.749, 3832.615
1039.231, 3841.798
1039.713, 3854.967
1040.195, 3862.386
1040.677, 3856.944
1041.159, 3855.394
1041.641, 3859.835
1042.123, 3867.144
1042.605, 3873.895
1043.088, 3880.408
1043.570, 3887.812
1044.052, 3896.218
1044.534, 3903.494
1045.016, 3908.197
1045.498, 3911.669
1045.980, 3913.401
1046.462, 3914.477
1046.945, 3920.944
1047.427, 3933.136
1047.909, 3942.881
1048.391, 3946.456
1048.873, 3948.850
1049.355, 3954.327
1049.837, 3962.434
1050.319, 3973.128
1050.802, 3989.945
1051.284, 4000.298
1051.766, 4002.282
1052.248, 4001.611
1052.730, 3998.984
1053.212, 3997.341
1053.694, 4009.966
1054.176, 4033.363
1054.658, 4051.408
1055.141, 4051.028
1055.623, 4049.752
1056.105, 4053.265
1056.587, 4059.984
1057.069, 4068.091
1057.551, 4077.608
1058.033, 4088.097
1058.515, 4099.962
1058.997, 4108.950
1059.480, 4107.544
1059.962, 4104.271
1060.444, 4108.015
1060.926, 4119.598
1061.408, 4128.483
1061.890, 4133.700
1062.372, 4137.764
1062.854, 4140.562
1063.337, 4144.116
1063.819, 4153.272
1064.301, 4165.942
1064.783, 4177.722
1065.265, 4188.031
1065.747, 4195.673
1066.229, 4198.914
1066.711, 4200.674
1067.193, 4202.009
1067.676, 4203.059
1068.158, 4208.253
1068.640, 4217.268
1069.122, 4225.161
1069.604, 4226.207
1070.086, 4227.892
1070.568, 4236.063
1071.050, 4248.528
1071.532, 4260.427
1072.015, 4272.698
1072.497, 4280.618
1072.979, 4283.297
1073.461, 4283.871
1073.943, 4283.507
1074.425, 4284.361
1074.907, 4290.203
1075.389, 4301.112
1075.872, 4312.348
1076.354, 4324.370
1076.836, 4333.757
1077.318, 4338.075
1077.800, 4340.528
1078.282, 4349.807
1078.764, 4363.843
1079.246, 4374.933
1079.729, 4380.446
1080.211, 4385.305
1080.693, 4391.892
1081.175, 4399.130
1081.657, 4405.895
1082.139, 4412.198
1082.621, 4420.064
1083.103, 4429.595
1083.585, 4438.960
1084.068, 4447.778
1084.550, 4455.428
1085.032, 4460.673
1085.514, 4464.473
1085.996, 4468.216
1086.478, 4470.642
1086.960, 4477.160
1087.442, 4489.689
1087.924, 4500.843
1088.406, 4501.045
1088.889, 4496.237
1089.371, 4497.024
1089.853, 4503.474
1090.335, 4512.301
1090.817, 4526.005
1091.299, 4537.044
1091.781, 4542.559
1092.263, 4545.815
1092.746, 4553.171
1093.228, 4563.657
1093.710, 4572.167
1094.192, 4577.585
1094.674, 4583.234
1095.156, 4590.896
1095.638, 4599.837
1096.120, 4609.854
1096.603, 4620.611
1097.085, 4631.492
1097.567, 4642.609
1098.049, 4648.819
1098.531, 4645.483
1099.013, 4642.270
1099.495, 4650.563
1099.977, 4664.499
1100.459, 4676.649
1100.942, 4684.834
1101.424, 4694.793
1101.906, 4707.532
1102.388, 4718.964
1102.870, 4726.700
1103.352, 4731.376
1103.834, 4731.969
1104.316, 4730.583
1104.798, 4733.087
1105.281, 4745.297
1105.763, 4756.326
1106.245, 4763.938
1106.727, 4771.002
1107.209, 4781.795
1107.691, 4794.793
1108.173, 4802.159
1108.655, 4803.867
1109.138, 4805.225
1109.620, 4806.899
1110.102, 4811.630
1110.584, 4822.095
1111.066, 4835.836
1111.548, 4848.717
1112.030, 4860.786
1112.512, 4870.216
1112.995, 4876.490
1113.477, 4881.797
1113.959, 4886.187
1114.441, 4891.836
1114.923, 4902.600
1115.405, 4918.073
1115.887, 4924.741
1116.369, 4920.339
1116.851, 4920.558
1117.333, 4932.672
1117.816, 4948.366
1118.298, 4957.209
1118.780, 4962.214
1119.262, 4967.628
1119.744, 4974.424
1120.226, 4981.423
1120.708, 4988.348
1121.190, 4996.175
1121.673, 5006.628
1122.155, 5017.827
1122.637, 5023.951
1123.119, 5027.262
1123.601, 5033.980
1124.083, 5054.067
1124.565, 5066.629
1125.047, 5064.674
1125.530, 5059.769
1126.012, 5062.556
1126.494, 5071.878
1126.976, 5081.713
1127.458, 5091.906
1127.940, 5103.013
1128.422, 5116.745
1128.904, 5129.894
1129.386, 5140.746
1129.869, 5150.298
1130.351, 5159.587
1130.833, 5168.614
1131.315, 5179.589
1131.797, 5193.007
1132.279, 5204.184
1132.761, 5205.806
1133.243, 5206.967
1133.725, 5215.684
1134.208, 5230.191
1134.690, 5240.766
1135.172, 5246.886
1135.654, 5253.158
1136.136, 5260.736
1136.618, 5268.918
1137.100, 5277.112
1137.582, 5285.432
1138.065, 5293.871
1138.547, 5302.333
1139.029, 5312.132
1139.511, 5324.121
1139.993, 5334.705
1140.475, 5342.110
1140.957, 5347.922
1141.439, 5353.783
1141.922, 5360.175
1142.404, 5368.317
1142.886, 5379.671
1143.368, 5389.210
1143.850, 5395.790
1144.332, 5401.829
1144.814, 5408.411
1145.296, 5415.569
1145.778, 5423.559
1146.260, 5432.291
1146.743, 5441.758
1147.225, 5453.410
1147.707, 5463.637
1148.189, 5472.307
1148.671, 5479.351
1149.153, 5483.592
1149.635, 5486.046
1150.117, 5493.177
1150.600, 5504.161
1151.082, 5512.220
1151.564, 5508.885
1152.046, 5508.281
1152.528, 5516.407
1153.010, 5529.211
1153.492, 5542.643
1153.974, 5556.393
1154.457, 5566.621
1154.939, 5572.914
1155.421, 5579.456
1155.903, 5589.317
1156.385, 5599.952
1156.867, 5609.796
1157.349, 5619.265
1157.831, 5629.771
1158.313, 5641.346
1158.796, 5650.385
1159.278, 5655.863
1159.760, 5662.399
1160.242, 5675.920
1160.724, 5690.463
1161.206, 5700.911
1161.688, 5707.696
1162.170, 5714.637
1162.652, 5721.609
1163.135, 5730.655
1163.617, 5742.710
1164.099, 5755.911
1164.581, 5769.873
1165.063, 5783.112
1165.545, 5793.680
1166.027, 5801.066
1166.509, 5808.540
1166.992, 5815.683
1167.474, 5825.510
1167.956, 5840.618
1168.438, 5856.492
1168.920, 5868.110
1169.402, 5876.497
1169.884, 5882.849
1170.366, 5885.831
1170.849, 5892.181
1171.331, 5902.822
1171.813, 5913.940
1172.295, 5923.951
1172.777, 5932.845
1173.259, 5939.883
1173.741, 5946.057
1174.223, 5953.096
1174.705, 5960.651
1175.188, 5971.512
1175.670, 5987.592
1176.152, 6002.142
1176.634, 6008.000
1177.116, 6009.875
1177.598, 6018.219
1178.080, 6030.934
1178.562, 6041.580
1179.044, 6044.455
1179.527, 6051.126
1180.009, 6064.347
1180.491, 6077.776
1180.973, 6083.613
1181.455, 6085.915
1181.937, 6095.130
1182.419, 6110.015
1182.901, 6122.671
1183.384, 6128.226
1183.866, 6133.810
1184.348, 6140.390
1184.830, 6147.943
1185.312, 6155.866
1185.794, 6164.875
1186.276, 6177.252
1186.758, 6192.993
1187.240, 6209.301
1187.723, 6229.000
1188.205, 6242.480
1188.687, 6244.405
1189.169, 6243.101
1189.651, 6253.981
1190.133, 6272.862
1190.615, 6285.899
1191.097, 6291.250
1191.579, 6298.146
1192.062, 6312.618
1192.544, 6327.159
1193.026, 6339.841
1193.508, 6350.587
1193.990, 6358.724
1194.472, 6364.866
1194.954, 6370.488
1195.436, 6375.843
1195.919, 6382.526
1196.401, 6391.830
1196.883, 6402.521
1197.365, 6414.876
1197.847, 6427.747
1198.329, 6436.549
1198.811, 6442.697
1199.293, 6452.467
1199.776, 6468.671
1200.258, 6482.643
1200.740, 6486.478
1201.222, 6491.188
1201.704, 6503.048
1202.186, 6519.625
1202.668, 6530.826
1203.150, 6537.755
1203.632, 6544.800
1204.115, 6552.450
1204.597, 6563.061
1205.079, 6582.501
1205.561, 6600.230
1206.043, 6607.774
1206.525, 6608.548
1207.007, 6622.599
1207.489, 6646.298
1207.971, 6663.413
1208.454, 6663.912
1208.936, 6663.964
1209.418, 6667.886
1209.900, 6676.245
1210.382, 6691.176
1210.864, 6711.275
1211.346, 6725.994
1211.828, 6736.211
1212.311, 6745.594
1212.793, 6754.585
1213.275, 6765.112
1213.757, 6778.467
1214.239, 6793.321
1214.721, 6810.327
1215.203, 6828.389
1215.685, 6836.854
1216.167, 6837.729
1216.650, 6841.831
1217.132, 6858.251
1217.614, 6873.958
1218.096, 6885.188
1218.578, 6893.799
1219.060, 6899.699
1219.542, 6903.967
1220.024, 6916.401
1220.506, 6935.218
1220.989, 6949.985
1221.471, 6951.266
1221.953, 6953.530
1222.435, 6960.667
1222.917, 6970.759
1223.399, 6982.323
1223.881, 6995.302
1224.363, 7009.269
1224.846, 7024.134
1225.328, 7039.181
1225.810, 7054.513
1226.292, 7069.327
1226.774, 7083.745
1227.256, 7097.233
1227.738, 7108.784
1228.220, 7118.837
1228.703, 7129.826
1229.185, 7141.528
1229.667, 7151.746
1230.149, 7154.349
1230.631, 7162.769
1231.113, 7181.563
1231.595, 7204.277
1232.077, 7224.923
1232.559, 7242.414
1233.042, 7250.599
1233.524, 7250.667
1234.006, 7255.281
1234.488, 7275.588
1234.970, 7292.569
1235.452, 7302.206
1235.934, 7307.769
1236.416, 7311.456
1236.898, 7315.018
1237.381, 7323.162
1237.863, 7335.756
1238.345, 7347.839
1238.827, 7359.704
1239.309, 7367.132
1239.791, 7367.144
1240.273, 7367.826
1240.755, 7383.095
1241.238, 7405.632
1241.720, 7421.021
1242.202, 7428.711
1242.684, 7438.717
1243.166, 7455.526
1243.648, 7469.013
1244.130, 7475.824
1244.612, 7482.681
1245.094, 7501.410
1245.577, 7524.491
1246.059, 7539.950
1246.541, 7547.327
1247.023, 7554.652
1247.505, 7560.612
1247.987, 7573.280
1248.469, 7595.622
1248.951, 7620.292
1249.433, 7638.760
1249.916, 7653.205
1250.398, 7665.487
1250.880, 7675.935
1251.362, 7687.039
1251.844, 7698.759
1252.326, 7712.755
1252.808, 7730.616
1253.290, 7745.697
1253.773, 7746.197
1254.255, 7744.011
1254.737, 7751.578
1255.219, 7768.925
1255.701, 7785.872
1256.183, 7802.758
1256.665, 7815.944
1257.147, 7823.987
1257.630, 7831.021
1258.112, 7837.919
1258.594, 7847.892
1259.076, 7866.108
1259.558, 7890.064
1260.040, 7909.471
1260.522, 7924.227
1261.004, 7937.247
1261.486, 7948.688
1261.969, 7961.602
1262.451, 7979.738
1262.933, 7998.778
1263.415, 8016.958
1263.897, 8033.462
1264.379, 8043.885
1264.861, 8049.252
1265.343, 8057.219
1265.825, 8069.588
1266.308, 8082.557
1266.790, 8096.292
1267.272, 8106.978
1267.754, 8110.696
1268.236, 8112.100
1268.718, 8123.366
1269.200, 8143.061
1269.682, 8167.553
1270.165, 8197.287
1270.647, 8221.189
1271.129, 8228.678
1271.611, 8237.073
1272.093, 8253.443
1272.575, 8272.121
1273.057, 8280.103
1273.539, 8282.260
1274.021, 8289.576
1274.504, 8304.381
1274.986, 8319.468
1275.468, 8334.298
1275.950, 8347.385
1276.432, 8357.231
1276.914, 8367.789
1277.396, 8388.787
1277.878, 8413.126
1278.360, 8428.175
1278.843, 8431.697
1279.325, 8444.736
1279.807, 8472.280
1280.289, 8493.038
1280.771, 8499.375
1281.253, 8503.208
1281.735, 8520.338
1282.217, 8541.987
1282.700, 8559.172
1283.182, 8571.291
1283.664, 8580.148
1284.146, 8584.987
1284.628, 8594.160
1285.110, 8609.771
1285.592, 8630.194
1286.074, 8660.191
1286.557, 8688.865
1287.039, 8706.438
1287.521, 8715.619
1288.003, 8725.773
1288.485, 8736.867
1288.967, 8749.124
1289.449, 8762.603
1289.931, 8776.525
1290.413, 8793.646
1290.896, 8807.063
1291.378, 8811.014
1291.860, 8811.568
1292.342, 8826.661
1292.824, 8851.381
1293.306, 8867.531
1293.788, 8871.362
1294.270, 8878.126
1294.752, 8898.217
1295.235, 8916.057
1295.717, 8926.111
1296.199, 8934.076
1296.681, 8951.533
1297.163, 8972.898
1297.645, 8987.018
1298.127, 8992.528
1298.609, 9000.349
1299.092, 9010.510
1299.574, 9026.087
1300.056, 9050.271
1300.538, 9073.049
1301.020, 9079.912
1301.502, 9080.959
1301.984, 9087.807
1302.466, 9100.789
1302.948, 9112.076
1303.431, 9120.835
1303.913, 9134.701
1304.395, 9156.342
1304.877, 9180.182
##END=



