##NAMES=Cuprite
##RRUFFID=R050374
##IDEAL CHEMISTRY=Cu^1+^_2_O
##LOCALITY=unknown
##OWNER=RRUFF
##SOURCE=Eugene Schlepp
##DESCRIPTION=Aggregate of deep red cubes
##STATUS=The identification of this mineral has been confirmed by X-ray diffraction and chemical analysis
##URL=rruff.info/R050374
##MEASURED CHEMISTRY=Cu_2.00_O
92.52344, 14354.01
93.00555, 14221.68
93.48767, 14245.03
93.96979, 14750.38
94.45190, 15266.24
94.93402, 15738.70
95.41614, 15962.07
95.89825, 16008.69
96.38037, 16008.69
96.86249, 15968.25
97.34460, 15914.07
97.82672, 15874.60
98.30884, 15824.00
98.79095, 15757.32
99.27307, 15658.44
99.75519, 15527.21
100.2373, 15411.44
100.7194, 15321.93
101.2015, 15246.01
101.6837, 15177.96
102.1658, 15118.19
102.6479, 15065.42
103.1300, 15017.99
103.6121, 14980.91
104.0942, 14963.56
104.5764, 14956.51
105.0585, 14948.08
105.5406, 14929.71
106.0227, 14905.38
106.5048, 14887.18
106.9869, 14868.81
107.4691, 14857.59
107.9512, 14858.08
108.4333, 14867.36
108.9154, 14878.81
109.3975, 14887.31
109.8796, 14892.29
110.3618, 14894.60
110.8439, 14888.43
111.3260, 14883.46
111.8081, 14885.32
112.2902, 14893.80
112.7723, 14903.91
113.2544, 14908.67
113.7366, 14905.16
114.2187, 14901.01
114.7008, 14890.75
115.1829, 14882.21
115.6650, 14883.67
116.1471, 14898.10
116.6293, 14920.33
117.1114, 14938.90
117.5935, 14953.78
118.0756, 14965.57
118.5577, 14973.79
119.0398, 14978.79
119.5220, 14980.93
120.0041, 14978.49
120.4862, 14974.74
120.9683, 14976.10
121.4504, 14982.71
121.9325, 14993.55
122.4147, 15010.62
122.8968, 15034.65
123.3789, 15054.58
123.8610, 15058.04
124.3431, 15056.47
124.8252, 15061.37
125.3074, 15078.31
125.7895, 15101.03
126.2716, 15115.31
126.7537, 15113.28
127.2358, 15116.78
127.7179, 15135.30
128.2001, 15161.82
128.6822, 15187.02
129.1643, 15204.37
129.6464, 15214.97
130.1285, 15231.76
130.6107, 15266.95
131.0928, 15297.19
131.5749, 15313.90
132.0570, 15320.61
132.5391, 15326.53
133.0212, 15340.03
133.5034, 15363.17
133.9855, 15380.54
134.4676, 15387.52
134.9497, 15393.89
135.4318, 15404.20
135.9139, 15419.21
136.3960, 15438.21
136.8782, 15460.49
137.3603, 15486.47
137.8424, 15515.77
138.3245, 15556.29
138.8066, 15597.02
139.2887, 15623.15
139.7709, 15629.70
140.2530, 15627.91
140.7351, 15628.94
141.2172, 15632.23
141.6993, 15641.09
142.1814, 15658.20
142.6636, 15682.25
143.1457, 15709.83
143.6278, 15745.94
144.1099, 15778.18
144.5920, 15795.12
145.0741, 15796.89
145.5563, 15796.37
146.0384, 15806.21
146.5205, 15828.15
147.0026, 15845.89
147.4847, 15853.16
147.9668, 15857.63
148.4490, 15862.15
148.9311, 15867.60
149.4132, 15874.85
149.8953, 15886.45
150.3774, 15908.70
150.8595, 15921.74
151.3417, 15921.51
151.8238, 15914.76
152.3059, 15904.95
152.7880, 15893.76
153.2701, 15882.93
153.7522, 15877.23
154.2344, 15883.20
154.7165, 15887.18
155.1986, 15889.52
155.6807, 15889.38
156.1628, 15884.60
156.6449, 15873.63
157.1271, 15858.96
157.6092, 15851.29
158.0913, 15856.34
158.5734, 15860.56
159.0555, 15855.54
159.5376, 15846.08
160.0198, 15846.92
160.5019, 15871.07
160.9840, 15908.82
161.4661, 15924.47
161.9482, 15900.37
162.4303, 15873.74
162.9125, 15870.77
163.3946, 15890.58
163.8767, 15913.75
164.3588, 15929.91
164.8409, 15941.81
165.3230, 15953.97
165.8052, 15965.22
166.2873, 15978.69
166.7694, 16001.34
167.2515, 16037.88
167.7336, 16067.48
168.2157, 16072.51
168.6979, 16067.25
169.1800, 16068.44
169.6621, 16084.88
170.1442, 16111.15
170.6263, 16131.22
171.1084, 16138.45
171.5906, 16150.28
172.0727, 16176.81
172.5548, 16209.89
173.0369, 16238.22
173.5190, 16254.56
174.0011, 16260.14
174.4833, 16265.31
174.9654, 16258.05
175.4475, 16263.31
175.9296, 16295.75
176.4117, 16344.46
176.8938, 16390.77
177.3760, 16421.04
177.8581, 16435.04
178.3402, 16440.79
178.8223, 16427.62
179.3044, 16417.59
179.7865, 16420.89
180.2687, 16434.87
180.7508, 16450.25
181.2329, 16459.62
181.7150, 16462.51
182.1971, 16461.52
182.6792, 16447.53
183.1614, 16437.67
183.6435, 16446.05
184.1256, 16471.49
184.6077, 16497.27
185.0898, 16507.59
185.5719, 16501.03
186.0541, 16499.46
186.5362, 16506.73
187.0183, 16517.05
187.5004, 16525.57
187.9825, 16531.79
188.4646, 16536.31
188.9468, 16540.16
189.4289, 16542.89
189.9110, 16541.95
190.3931, 16532.32
190.8752, 16520.02
191.3573, 16515.05
191.8395, 16519.99
192.3216, 16527.24
192.8037, 16530.06
193.2858, 16530.52
193.7679, 16533.60
194.2500, 16546.86
194.7322, 16565.08
195.2143, 16568.91
195.6964, 16545.20
196.1785, 16527.47
196.6606, 16537.76
197.1427, 16566.95
197.6249, 16594.98
198.1070, 16607.48
198.5891, 16606.23
199.0712, 16610.12
199.5533, 16628.25
200.0354, 16641.04
200.5176, 16638.07
200.9997, 16623.79
201.4818, 16608.08
201.9639, 16597.44
202.4460, 16591.73
202.9281, 16594.22
203.4103, 16617.35
203.8924, 16637.79
204.3745, 16648.64
204.8566, 16650.82
205.3387, 16647.20
205.8208, 16638.32
206.3030, 16621.72
206.7851, 16624.16
207.2672, 16666.03
207.7493, 16705.87
208.2314, 16724.82
208.7135, 16725.80
209.1957, 16723.54
209.6778, 16731.30
210.1599, 16750.63
210.6420, 16768.40
211.1241, 16787.60
211.6062, 16802.89
212.0884, 16809.73
212.5705, 16809.06
213.0526, 16805.97
213.5347, 16804.07
214.0168, 16803.33
214.4989, 16809.13
214.9811, 16831.32
215.4632, 16851.93
215.9453, 16856.31
216.4274, 16844.76
216.9095, 16832.10
217.3916, 16832.34
217.8737, 16845.68
218.3559, 16850.93
218.8380, 16840.78
219.3201, 16827.13
219.8022, 16820.56
220.2843, 16821.91
220.7664, 16824.86
221.2486, 16825.14
221.7307, 16822.92
222.2128, 16819.15
222.6949, 16812.92
223.1770, 16805.68
223.6591, 16797.99
224.1413, 16789.33
224.6234, 16783.54
225.1055, 16784.02
225.5876, 16789.29
226.0697, 16797.90
226.5518, 16813.38
227.0340, 16829.82
227.5161, 16837.22
227.9982, 16833.09
228.4803, 16828.24
228.9624, 16829.87
229.4445, 16834.42
229.9267, 16837.05
230.4088, 16834.57
230.8909, 16830.46
231.3730, 16832.76
231.8551, 16845.56
232.3372, 16854.41
232.8194, 16850.02
233.3015, 16839.86
233.7836, 16832.61
234.2657, 16832.42
234.7478, 16836.35
235.2299, 16836.47
235.7121, 16827.08
236.1942, 16826.16
236.6763, 16848.06
237.1584, 16876.24
237.6405, 16892.10
238.1227, 16886.66
238.6048, 16868.54
239.0869, 16859.24
239.5690, 16861.14
240.0511, 16868.83
240.5332, 16887.54
241.0154, 16907.76
241.4975, 16918.45
241.9796, 16914.77
242.4617, 16903.33
242.9438, 16901.13
243.4259, 16916.33
243.9081, 16928.31
244.3902, 16927.58
244.8723, 16926.19
245.3544, 16938.83
245.8365, 16970.79
246.3186, 17010.74
246.8008, 17032.18
247.2829, 17014.28
247.7650, 17007.19
248.2471, 17021.63
248.7292, 17042.65
249.2113, 17055.90
249.6935, 17056.58
250.1756, 17050.89
250.6577, 17051.23
251.1398, 17067.10
251.6219, 17074.76
252.1040, 17062.02
252.5862, 17047.76
253.0683, 17053.34
253.5504, 17083.68
254.0325, 17120.96
254.5146, 17135.30
254.9967, 17106.55
255.4789, 17091.16
255.9610, 17097.70
256.4431, 17112.64
256.9252, 17125.00
257.4073, 17132.15
257.8894, 17137.28
258.3716, 17144.87
258.8537, 17157.12
259.3358, 17165.98
259.8179, 17169.21
260.3000, 17170.50
260.7821, 17169.89
261.2643, 17168.12
261.7464, 17173.32
262.2285, 17197.70
262.7106, 17248.41
263.1927, 17280.58
263.6748, 17279.09
264.1570, 17267.78
264.6391, 17267.42
265.1212, 17279.88
265.6033, 17292.01
266.0854, 17289.16
266.5675, 17270.68
267.0497, 17264.56
267.5318, 17280.49
268.0139, 17302.61
268.4960, 17318.22
268.9781, 17326.78
269.4602, 17335.93
269.9424, 17353.51
270.4245, 17377.23
270.9066, 17391.72
271.3887, 17391.57
271.8708, 17386.09
272.3529, 17381.00
272.8351, 17376.54
273.3172, 17373.12
273.7993, 17370.50
274.2814, 17369.64
274.7635, 17372.15
275.2456, 17379.29
275.7278, 17388.57
276.2099, 17399.10
276.6920, 17410.71
277.1741, 17421.76
277.6562, 17431.55
278.1383, 17440.10
278.6205, 17447.20
279.1026, 17451.29
279.5847, 17457.30
280.0668, 17470.46
280.5489, 17489.37
281.0310, 17504.67
281.5132, 17509.04
281.9953, 17512.60
282.4774, 17531.88
282.9595, 17570.38
283.4416, 17603.63
283.9237, 17613.46
284.4059, 17604.72
284.8880, 17597.29
285.3701, 17594.87
285.8522, 17596.83
286.3343, 17603.50
286.8164, 17614.61
287.2986, 17624.22
287.7807, 17625.60
288.2628, 17622.56
288.7449, 17629.17
289.2270, 17652.64
289.7091, 17676.41
290.1913, 17683.93
290.6734, 17679.53
291.1555, 17679.11
291.6376, 17696.54
292.1197, 17722.56
292.6018, 17732.77
293.0840, 17719.06
293.5661, 17706.15
294.0482, 17713.93
294.5303, 17733.67
295.0124, 17749.88
295.4945, 17753.81
295.9767, 17752.15
296.4588, 17757.17
296.9409, 17770.45
297.4230, 17785.19
297.9051, 17802.64
298.3872, 17818.26
298.8694, 17825.36
299.3515, 17820.24
299.8336, 17809.10
300.3157, 17797.59
300.7978, 17784.41
301.2799, 17778.49
301.7621, 17785.14
302.2442, 17800.18
302.7263, 17823.83
303.2084, 17858.11
303.6905, 17889.23
304.1726, 17900.56
304.6548, 17891.17
305.1369, 17883.34
305.6190, 17881.99
306.1011, 17884.71
306.5832, 17890.29
307.0653, 17898.54
307.5475, 17907.78
308.0296, 17918.25
308.5117, 17929.54
308.9938, 17935.84
309.4759, 17932.11
309.9580, 17928.37
310.4402, 17930.31
310.9223, 17937.64
311.4044, 17948.83
311.8865, 17967.41
312.3686, 17990.07
312.8507, 18000.41
313.3329, 17988.19
313.8150, 17981.01
314.2971, 17996.72
314.7792, 18026.80
315.2613, 18056.13
315.7434, 18078.21
316.2256, 18095.14
316.7077, 18112.56
317.1898, 18133.19
317.6719, 18146.67
318.1540, 18139.59
318.6361, 18126.52
319.1183, 18124.88
319.6004, 18142.69
320.0825, 18165.50
320.5646, 18170.56
321.0467, 18153.78
321.5288, 18145.72
322.0110, 18168.24
322.4931, 18196.05
322.9752, 18207.90
323.4573, 18200.21
323.9394, 18188.70
324.4215, 18188.45
324.9037, 18199.19
325.3858, 18208.37
325.8679, 18213.89
326.3500, 18217.00
326.8321, 18216.38
327.3142, 18213.23
327.7964, 18214.00
328.2785, 18225.95
328.7606, 18246.39
329.2427, 18261.26
329.7248, 18265.87
330.2069, 18271.88
330.6891, 18293.60
331.1712, 18321.85
331.6533, 18335.94
332.1354, 18317.06
332.6175, 18283.05
333.0996, 18271.03
333.5818, 18285.69
334.0639, 18307.12
334.5460, 18333.36
335.0281, 18357.93
335.5102, 18370.81
335.9923, 18365.55
336.4745, 18357.08
336.9566, 18364.71
337.4387, 18389.45
337.9208, 18412.09
338.4029, 18425.98
338.8850, 18435.06
339.3671, 18442.71
339.8492, 18449.13
340.3314, 18455.25
340.8135, 18462.10
341.2956, 18469.46
341.7777, 18475.31
342.2598, 18478.14
342.7419, 18481.06
343.2241, 18486.18
343.7062, 18493.42
344.1883, 18502.66
344.6704, 18515.39
345.1525, 18529.81
345.6346, 18542.26
346.1168, 18552.64
346.5989, 18560.67
347.0810, 18562.63
347.5631, 18562.26
348.0452, 18566.72
348.5273, 18579.48
349.0095, 18596.34
349.4916, 18614.98
349.9737, 18635.54
350.4558, 18650.64
350.9379, 18655.21
351.4200, 18652.74
351.9022, 18648.91
352.3843, 18643.01
352.8664, 18638.58
353.3485, 18637.82
353.8306, 18640.47
354.3127, 18644.72
354.7949, 18648.19
355.2770, 18656.48
355.7591, 18681.22
356.2412, 18722.12
356.7233, 18755.01
357.2054, 18768.98
357.6876, 18770.27
358.1697, 18766.12
358.6518, 18756.38
359.1339, 18748.89
359.6160, 18752.79
360.0981, 18765.73
360.5803, 18774.73
361.0624, 18775.15
361.5445, 18773.47
362.0266, 18775.98
362.5087, 18782.04
362.9908, 18784.50
363.4730, 18775.93
363.9551, 18763.37
364.4372, 18767.98
364.9193, 18798.54
365.4014, 18829.85
365.8835, 18853.39
366.3657, 18870.07
366.8478, 18881.37
367.3299, 18887.43
367.8120, 18889.08
368.2941, 18884.28
368.7762, 18867.61
369.2584, 18867.94
369.7405, 18906.98
370.2226, 18954.43
370.7047, 18980.16
371.1868, 18980.84
371.6689, 18971.60
372.1511, 18964.41
372.6332, 18959.47
373.1153, 18959.04
373.5974, 18969.30
374.0795, 18977.69
374.5616, 18977.62
375.0438, 18970.80
375.5259, 18959.91
376.0080, 18944.78
376.4901, 18930.46
376.9722, 18935.66
377.4543, 18987.48
377.9365, 19023.45
378.4186, 19024.83
378.9007, 19012.71
379.3828, 19010.78
379.8649, 19025.33
380.3470, 19045.17
380.8292, 19053.70
381.3113, 19042.50
381.7934, 19045.95
382.2755, 19081.52
382.7576, 19114.73
383.2397, 19122.50
383.7219, 19109.00
384.2040, 19093.19
384.6861, 19089.73
385.1682, 19098.06
385.6503, 19108.48
386.1324, 19128.26
386.6146, 19142.14
387.0967, 19143.39
387.5788, 19138.57
388.0609, 19134.66
388.5430, 19134.71
389.0251, 19139.80
389.5073, 19152.83
389.9894, 19178.07
390.4715, 19202.47
390.9536, 19232.19
391.4357, 19255.61
391.9178, 19259.38
392.4000, 19246.12
392.8821, 19234.70
393.3642, 19247.13
393.8463, 19284.58
394.3284, 19303.40
394.8105, 19280.23
395.2927, 19265.13
395.7748, 19281.37
396.2569, 19315.68
396.7390, 19346.24
397.2211, 19362.65
397.7032, 19368.13
398.1854, 19367.00
398.6675, 19354.33
399.1496, 19350.43
399.6317, 19374.21
400.1138, 19401.04
400.5959, 19408.47
401.0781, 19393.19
401.5602, 19378.04
402.0423, 19387.69
402.5244, 19419.46
403.0065, 19443.04
403.4886, 19452.15
403.9708, 19456.23
404.4529, 19462.00
404.9350, 19468.50
405.4171, 19473.10
405.8992, 19474.06
406.3813, 19472.67
406.8635, 19468.30
407.3456, 19459.79
407.8277, 19459.62
408.3098, 19481.62
408.7919, 19512.25
409.2740, 19526.34
409.7562, 19514.80
410.2383, 19507.33
410.7204, 19530.27
411.2025, 19572.15
411.6846, 19598.11
412.1667, 19596.95
412.6489, 19585.14
413.1310, 19581.27
413.6131, 19584.93
414.0952, 19591.27
414.5773, 19600.68
415.0594, 19611.63
415.5416, 19623.82
416.0237, 19636.75
416.5058, 19647.38
416.9879, 19653.25
417.4700, 19655.26
417.9521, 19658.52
418.4343, 19655.09
418.9164, 19661.77
419.3985, 19690.41
419.8806, 19729.77
420.3627, 19765.09
420.8448, 19791.64
421.3270, 19809.26
421.8091, 19816.97
422.2912, 19810.41
422.7733, 19805.40
423.2554, 19801.90
423.7375, 19799.79
424.2197, 19797.78
424.7018, 19796.91
425.1839, 19800.63
425.6660, 19811.89
426.1481, 19829.37
426.6302, 19844.48
427.1124, 19861.40
427.5945, 19869.94
428.0766, 19859.21
428.5587, 19844.63
429.0408, 19842.64
429.5229, 19857.85
430.0051, 19881.03
430.4872, 19902.34
430.9693, 19925.07
431.4514, 19932.15
431.9335, 19901.97
432.4156, 19874.58
432.8978, 19865.73
433.3799, 19872.89
433.8620, 19886.97
434.3441, 19904.30
434.8262, 19923.05
435.3083, 19938.22
435.7905, 19950.09
436.2726, 19957.32
436.7547, 19951.76
437.2368, 19945.37
437.7189, 19952.18
438.2010, 19975.85
438.6832, 19996.76
439.1653, 19993.36
439.6474, 19970.81
440.1295, 19957.64
440.6116, 19960.05
441.0938, 19968.99
441.5759, 19975.73
442.0580, 19982.13
442.5401, 19995.37
443.0222, 20024.75
443.5043, 20056.74
443.9865, 20079.51
444.4686, 20093.04
444.9507, 20097.08
445.4328, 20086.96
445.9149, 20071.88
446.3970, 20075.61
446.8792, 20107.79
447.3613, 20128.21
447.8434, 20112.02
448.3255, 20084.69
448.8076, 20080.14
449.2897, 20103.31
449.7719, 20132.81
450.2540, 20149.23
450.7361, 20152.04
451.2182, 20151.58
451.7003, 20139.32
452.1824, 20133.64
452.6646, 20145.38
453.1467, 20167.35
453.6288, 20189.41
454.1109, 20207.19
454.5930, 20218.07
455.0751, 20215.15
455.5573, 20182.42
456.0394, 20167.52
456.5215, 20178.88
457.0036, 20197.60
457.4857, 20215.10
457.9678, 20229.82
458.4500, 20242.79
458.9321, 20255.06
459.4142, 20266.10
459.8963, 20272.15
460.3784, 20266.89
460.8605, 20268.14
461.3427, 20286.12
461.8248, 20309.11
462.3069, 20326.87
462.7890, 20336.86
463.2711, 20340.29
463.7532, 20331.81
464.2354, 20313.33
464.7175, 20315.42
465.1996, 20354.68
465.6817, 20394.07
466.1638, 20403.29
466.6459, 20392.28
467.1281, 20385.51
467.6102, 20391.62
468.0923, 20404.75
468.5744, 20422.70
469.0565, 20444.35
469.5386, 20456.06
470.0208, 20448.07
470.5029, 20432.84
470.9850, 20433.94
471.4671, 20453.78
471.9492, 20471.15
472.4313, 20477.14
472.9135, 20480.15
473.3956, 20490.58
473.8777, 20508.64
474.3598, 20526.30
474.8419, 20537.93
475.3240, 20543.81
475.8062, 20545.17
476.2883, 20537.74
476.7704, 20532.09
477.2525, 20532.36
477.7346, 20534.84
478.2167, 20533.38
478.6989, 20527.01
479.1810, 20522.72
479.6631, 20531.28
480.1452, 20557.39
480.6273, 20571.58
481.1094, 20559.10
481.5916, 20549.49
482.0737, 20552.05
482.5558, 20564.12
483.0379, 20581.02
483.5200, 20601.26
484.0021, 20621.61
484.4843, 20636.32
484.9664, 20645.16
485.4485, 20649.28
485.9306, 20644.50
486.4127, 20638.65
486.8948, 20637.81
487.3770, 20641.21
487.8591, 20643.25
488.3412, 20637.28
488.8233, 20628.95
489.3054, 20630.16
489.7875, 20641.79
490.2697, 20655.92
490.7518, 20671.79
491.2339, 20685.70
491.7160, 20690.83
492.1981, 20684.42
492.6802, 20677.38
493.1624, 20675.35
493.6445, 20675.11
494.1266, 20669.36
494.6087, 20657.17
495.0908, 20649.89
495.5729, 20659.75
496.0551, 20686.37
496.5372, 20700.71
497.0193, 20691.78
497.5014, 20685.34
497.9835, 20692.72
498.4656, 20706.17
498.9478, 20713.53
499.4299, 20711.08
499.9120, 20706.08
500.3941, 20709.69
500.8762, 20725.28
501.3583, 20735.88
501.8405, 20739.49
502.3226, 20740.02
502.8047, 20732.68
503.2868, 20724.19
503.7689, 20728.12
504.2510, 20752.95
504.7331, 20785.46
505.2152, 20800.12
505.6974, 20793.92
506.1795, 20788.92
506.6616, 20790.11
507.1437, 20793.46
507.6258, 20796.59
508.1079, 20799.37
508.5901, 20801.35
509.0722, 20802.44
509.5543, 20802.65
510.0364, 20799.54
510.5185, 20793.31
511.0006, 20794.88
511.4828, 20813.04
511.9649, 20838.84
512.4470, 20852.40
512.9291, 20850.43
513.4113, 20849.88
513.8934, 20857.22
514.3755, 20866.64
514.8576, 20871.93
515.3397, 20872.75
515.8218, 20871.44
516.3040, 20868.54
516.7861, 20865.55
517.2682, 20873.25
517.7503, 20911.62
518.2324, 20935.46
518.7145, 20929.28
519.1967, 20913.71
519.6788, 20908.49
520.1609, 20916.65
520.6430, 20928.19
521.1251, 20934.10
521.6072, 20934.38
522.0894, 20927.83
522.5715, 20903.54
523.0536, 20890.20
523.5357, 20905.88
524.0178, 20932.53
524.4999, 20950.32
524.9821, 20954.28
525.4642, 20949.26
525.9463, 20931.00
526.4284, 20905.54
526.9105, 20903.58
527.3926, 20936.27
527.8748, 20972.18
528.3569, 20987.78
528.8390, 20986.59
529.3211, 20980.77
529.8032, 20965.90
530.2853, 20953.03
530.7675, 20947.57
531.2496, 20948.52
531.7317, 20956.21
532.2138, 20970.86
532.6959, 20984.90
533.1780, 20988.46
533.6602, 20979.29
534.1423, 20973.08
534.6244, 20961.79
535.1065, 20961.37
535.5886, 20992.78
536.0707, 21034.46
536.5529, 21049.67
537.0350, 21024.42
537.5171, 20984.57
537.9992, 20973.60
538.4813, 20998.76
538.9634, 21015.50
539.4456, 21015.36
539.9277, 21013.83
540.4098, 21015.92
540.8919, 21022.12
541.3740, 21034.09
541.8561, 21055.46
542.3383, 21076.38
542.8204, 21084.06
543.3025, 21079.46
543.7846, 21069.75
544.2667, 21051.41
544.7488, 21038.81
545.2310, 21057.90
545.7131, 21103.85
546.1952, 21128.25
546.6773, 21107.92
547.1594, 21078.62
547.6415, 21055.12
548.1237, 21041.52
548.6058, 21049.66
549.0879, 21085.25
549.5700, 21129.18
550.0521, 21148.54
550.5342, 21130.89
551.0164, 21126.70
551.4985, 21151.27
551.9806, 21171.75
552.4627, 21168.20
552.9448, 21150.96
553.4269, 21140.13
553.9091, 21145.14
554.3912, 21161.35
554.8733, 21184.33
555.3554, 21216.71
555.8375, 21237.18
556.3196, 21236.35
556.8018, 21230.04
557.2839, 21228.25
557.7660, 21229.46
558.2481, 21228.80
558.7302, 21220.28
559.2123, 21214.32
559.6945, 21226.42
560.1766, 21251.89
560.6587, 21269.32
561.1408, 21271.96
561.6229, 21265.42
562.1050, 21253.60
562.5872, 21234.57
563.0693, 21228.72
563.5514, 21246.82
564.0335, 21267.66
564.5156, 21279.87
564.9977, 21287.17
565.4799, 21299.40
565.9620, 21320.18
566.4441, 21340.32
566.9262, 21342.25
567.4083, 21317.09
567.8904, 21309.52
568.3726, 21335.68
568.8547, 21363.43
569.3368, 21388.36
569.8189, 21405.88
570.3010, 21406.72
570.7831, 21384.87
571.2653, 21359.30
571.7474, 21354.01
572.2295, 21366.49
572.7116, 21376.06
573.1937, 21378.88
573.6758, 21379.75
574.1580, 21381.72
574.6401, 21384.96
575.1222, 21390.18
575.6043, 21401.32
576.0864, 21410.13
576.5685, 21411.59
577.0507, 21408.31
577.5328, 21401.22
578.0149, 21391.41
578.4970, 21389.45
578.9791, 21408.88
579.4612, 21451.11
579.9434, 21480.35
580.4255, 21494.28
580.9076, 21497.30
581.3897, 21475.61
581.8718, 21451.00
582.3539, 21450.74
582.8361, 21479.09
583.3182, 21511.75
583.8003, 21522.04
584.2824, 21513.73
584.7645, 21514.94
585.2466, 21527.22
585.7288, 21545.07
586.2108, 21574.24
586.6929, 21603.19
587.1750, 21612.44
587.6572, 21595.65
588.1393, 21580.73
588.6214, 21580.99
589.1035, 21589.96
589.5856, 21600.47
590.0677, 21611.45
590.5499, 21622.87
591.0320, 21635.33
591.5141, 21647.54
591.9962, 21654.50
592.4783, 21652.54
592.9604, 21650.32
593.4426, 21649.39
593.9247, 21647.28
594.4068, 21638.23
594.8889, 21626.12
595.3710, 21623.58
595.8531, 21641.26
596.3353, 21668.67
596.8174, 21678.70
597.2995, 21667.25
597.7816, 21662.32
598.2637, 21673.15
598.7458, 21689.43
599.2280, 21706.58
599.7101, 21722.66
600.1922, 21727.20
600.6743, 21705.23
601.1564, 21680.35
601.6385, 21669.87
602.1207, 21672.45
602.6028, 21686.81
603.0849, 21713.30
603.5670, 21740.68
604.0491, 21753.62
604.5313, 21748.84
605.0134, 21749.28
605.4955, 21761.78
605.9776, 21770.86
606.4597, 21768.39
606.9418, 21761.14
607.4240, 21757.34
607.9061, 21759.59
608.3882, 21766.17
608.8703, 21778.69
609.3524, 21796.08
609.8345, 21800.45
610.3167, 21784.32
610.7988, 21773.61
611.2809, 21785.23
611.7630, 21808.32
612.2451, 21829.52
612.7272, 21848.35
613.2094, 21862.69
613.6915, 21869.57
614.1736, 21872.53
614.6557, 21873.69
615.1378, 21874.32
615.6199, 21881.00
616.1021, 21899.16
616.5842, 21922.13
617.0663, 21930.14
617.5484, 21906.32
618.0305, 21896.01
618.5126, 21906.59
618.9948, 21922.26
619.4769, 21932.64
619.9590, 21940.80
620.4411, 21958.28
620.9232, 21993.93
621.4053, 22029.77
621.8875, 22030.56
622.3696, 21997.13
622.8517, 21981.05
623.3338, 21996.58
623.8159, 22020.42
624.2980, 22036.52
624.7802, 22045.66
625.2623, 22049.20
625.7444, 22040.03
626.2265, 22034.68
626.7086, 22046.61
627.1907, 22064.61
627.6729, 22072.44
628.1550, 22067.43
628.6371, 22056.21
629.1192, 22043.24
629.6013, 22029.79
630.0834, 22027.64
630.5656, 22044.91
631.0477, 22059.97
631.5298, 22074.27
632.0119, 22081.90
632.4940, 22069.67
632.9761, 22043.54
633.4583, 22032.78
633.9404, 22065.90
634.4225, 22114.98
634.9046, 22131.50
635.3867, 22118.31
635.8688, 22113.77
636.3510, 22133.68
636.8331, 22157.00
637.3152, 22154.70
637.7973, 22123.01
638.2794, 22111.19
638.7615, 22134.73
639.2437, 22161.65
639.7258, 22185.82
640.2079, 22202.36
640.6900, 22199.98
641.1721, 22178.53
641.6542, 22158.17
642.1364, 22163.46
642.6185, 22191.45
643.1006, 22202.80
643.5827, 22189.95
644.0648, 22176.93
644.5469, 22171.16
645.0291, 22169.59
645.5112, 22170.07
645.9933, 22172.45
646.4754, 22176.41
646.9575, 22177.71
647.4396, 22183.47
647.9218, 22212.38
648.4039, 22255.40
648.8860, 22270.95
649.3681, 22240.13
649.8502, 22192.34
650.3323, 22172.39
650.8145, 22187.14
651.2966, 22198.61
651.7787, 22205.60
652.2608, 22210.70
652.7429, 22215.41
653.2250, 22218.22
653.7072, 22214.79
654.1893, 22204.65
654.6714, 22197.64
655.1535, 22208.79
655.6356, 22230.44
656.1177, 22233.76
656.5999, 22215.68
657.0820, 22198.01
657.5641, 22187.24
658.0462, 22186.02
658.5283, 22205.00
659.0104, 22250.50
659.4926, 22280.55
659.9747, 22280.59
660.4568, 22271.72
660.9389, 22261.67
661.4210, 22253.89
661.9031, 22255.54
662.3853, 22268.87
662.8674, 22282.24
663.3495, 22274.17
663.8316, 22241.74
664.3137, 22235.98
664.7958, 22276.28
665.2780, 22307.61
665.7601, 22293.09
666.2422, 22262.33
666.7243, 22247.14
667.2064, 22251.25
667.6885, 22269.37
668.1707, 22317.61
668.6528, 22366.45
669.1349, 22377.95
669.6170, 22357.14
670.0991, 22330.90
670.5812, 22310.90
671.0634, 22300.32
671.5455, 22307.42
672.0276, 22341.66
672.5097, 22357.75
672.9918, 22335.35
673.4739, 22316.89
673.9561, 22319.01
674.4382, 22330.59
674.9203, 22335.27
675.4024, 22329.00
675.8845, 22324.87
676.3666, 22341.54
676.8488, 22365.57
677.3309, 22360.58
677.8130, 22325.69
678.2951, 22303.58
678.7772, 22316.59
679.2593, 22349.26
679.7415, 22374.17
680.2236, 22388.95
680.7057, 22402.26
681.1878, 22423.35
681.6699, 22433.07
682.1520, 22410.34
682.6342, 22375.23
683.1163, 22357.73
683.5984, 22366.60
684.0805, 22388.32
684.5626, 22415.10
685.0447, 22443.70
685.5269, 22454.58
686.0090, 22444.62
686.4911, 22433.00
686.9732, 22426.26
687.4553, 22424.03
687.9374, 22426.29
688.4196, 22433.17
688.9017, 22442.15
689.3838, 22461.88
689.8659, 22474.83
690.3480, 22463.29
690.8301, 22439.88
691.3123, 22426.97
691.7944, 22431.47
692.2765, 22442.62
692.7586, 22447.20
693.2407, 22446.21
693.7228, 22456.63
694.2050, 22486.38
694.6871, 22505.66
695.1692, 22493.70
695.6513, 22473.84
696.1334, 22473.40
696.6155, 22492.41
697.0977, 22505.89
697.5798, 22502.28
698.0619, 22494.53
698.5440, 22492.69
699.0261, 22493.86
699.5082, 22489.23
699.9904, 22477.13
700.4725, 22468.57
700.9546, 22476.70
701.4367, 22500.19
701.9188, 22519.00
702.4009, 22534.41
702.8831, 22542.54
703.3652, 22536.82
703.8473, 22527.65
704.3294, 22522.79
704.8115, 22521.82
705.2936, 22519.34
705.7758, 22505.66
706.2579, 22496.91
706.7400, 22514.21
707.2221, 22545.12
707.7042, 22558.74
708.1863, 22548.80
708.6685, 22539.46
709.1506, 22554.11
709.6327, 22588.48
710.1148, 22610.21
710.5969, 22613.35
711.0790, 22614.39
711.5612, 22615.46
712.0433, 22615.21
712.5254, 22609.94
713.0075, 22602.46
713.4896, 22601.57
713.9717, 22613.84
714.4539, 22627.90
714.9360, 22636.95
715.4181, 22639.61
715.9002, 22629.90
716.3823, 22607.63
716.8644, 22583.05
717.3466, 22561.14
717.8287, 22546.23
718.3108, 22556.25
718.7929, 22614.60
719.2750, 22653.17
719.7571, 22663.04
720.2393, 22660.80
720.7214, 22650.92
721.2035, 22635.58
721.6856, 22614.54
722.1677, 22585.06
722.6498, 22564.72
723.1320, 22575.67
723.6141, 22603.95
724.0962, 22622.48
724.5783, 22629.07
725.0604, 22627.45
725.5425, 22617.72
726.0247, 22606.92
726.5068, 22611.05
726.9889, 22640.41
727.4710, 22653.36
727.9531, 22632.09
728.4352, 22615.25
728.9174, 22619.35
729.3995, 22633.48
729.8816, 22642.80
730.3637, 22644.21
730.8458, 22646.64
731.3279, 22660.50
731.8101, 22677.20
732.2922, 22682.08
732.7743, 22676.10
733.2564, 22665.83
733.7385, 22652.64
734.2206, 22643.18
734.7028, 22647.05
735.1849, 22665.46
735.6670, 22678.73
736.1491, 22681.73
736.6312, 22685.98
737.1133, 22698.12
737.5955, 22708.82
738.0776, 22704.91
738.5597, 22689.79
739.0418, 22684.86
739.5239, 22709.46
740.0060, 22739.22
740.4882, 22745.12
740.9703, 22732.95
741.4524, 22716.66
741.9345, 22699.29
742.4166, 22691.37
742.8987, 22703.57
743.3809, 22730.96
743.8630, 22748.92
744.3451, 22750.00
744.8272, 22754.87
745.3093, 22771.48
745.7914, 22785.08
746.2736, 22784.00
746.7557, 22774.64
747.2378, 22771.26
747.7199, 22779.50
748.2020, 22789.05
748.6841, 22796.05
749.1663, 22797.54
749.6484, 22784.32
750.1305, 22758.50
750.6126, 22737.21
751.0947, 22729.52
751.5768, 22729.90
752.0590, 22727.99
752.5411, 22722.02
753.0232, 22722.98
753.5053, 22737.10
753.9874, 22750.06
754.4695, 22756.63
754.9517, 22760.47
755.4338, 22767.78
755.9159, 22778.60
756.3980, 22780.81
756.8801, 22757.00
757.3622, 22731.71
757.8444, 22730.92
758.3265, 22746.98
758.8086, 22763.73
759.2907, 22776.04
759.7728, 22780.60
760.2549, 22772.65
760.7371, 22755.03
761.2192, 22744.56
761.7013, 22739.44
762.1834, 22747.49
762.6655, 22790.54
763.1476, 22825.85
763.6298, 22812.42
764.1119, 22769.63
764.5940, 22753.96
765.0761, 22793.91
765.5582, 22827.53
766.0403, 22816.68
766.5225, 22789.27
767.0046, 22774.67
767.4867, 22773.61
767.9688, 22773.66
768.4509, 22768.25
768.9330, 22764.84
769.4152, 22780.81
769.8973, 22817.57
770.3794, 22830.64
770.8615, 22806.96
771.3436, 22792.96
771.8257, 22816.32
772.3079, 22854.97
772.7900, 22875.90
773.2721, 22877.75
773.7542, 22881.00
774.2363, 22895.00
774.7184, 22904.55
775.2006, 22893.94
775.6827, 22878.50
776.1648, 22883.28
776.6469, 22908.79
777.1290, 22929.87
777.6111, 22925.21
778.0933, 22905.66
778.5754, 22896.57
779.0575, 22897.38
779.5396, 22891.70
780.0217, 22873.76
780.5038, 22858.29
780.9860, 22857.76
781.4681, 22868.66
781.9502, 22875.43
782.4323, 22865.94
782.9144, 22872.56
783.3965, 22916.99
783.8787, 22957.64
784.3608, 22968.67
784.8429, 22959.84
785.3250, 22949.91
785.8071, 22944.78
786.2892, 22941.09
786.7714, 22934.79
787.2535, 22928.60
787.7356, 22929.34
788.2177, 22935.93
788.6998, 22939.24
789.1819, 22935.78
789.6641, 22929.62
790.1462, 22925.20
790.6283, 22922.55
791.1104, 22923.66
791.5925, 22929.77
792.0746, 22937.67
792.5568, 22951.87
793.0389, 22963.33
793.5210, 22962.98
794.0031, 22954.21
794.4852, 22948.13
794.9673, 22944.15
795.4495, 22951.04
795.9316, 22986.83
796.4137, 23029.14
796.8958, 23049.67
797.3779, 23047.49
797.8600, 23030.73
798.3422, 23002.91
798.8243, 22975.86
799.3064, 22973.51
799.7885, 22997.09
800.2706, 23001.37
800.7527, 22975.33
801.2349, 22964.69
801.7170, 23003.64
802.1991, 23052.60
802.6812, 23049.49
803.1633, 22994.35
803.6454, 22957.79
804.1276, 22954.79
804.6097, 22961.36
805.0918, 22967.95
805.5739, 22980.76
806.0560, 23014.62
806.5381, 23063.11
807.0203, 23098.93
807.5024, 23104.07
807.9845, 23095.85
808.4666, 23098.57
808.9487, 23108.64
809.4308, 23110.61
809.9130, 23102.57
810.3951, 23093.42
810.8772, 23087.26
811.3593, 23085.38
811.8414, 23091.26
812.3235, 23108.24
812.8057, 23120.03
813.2878, 23124.53
813.7699, 23126.00
814.2520, 23129.00
814.7341, 23127.22
815.2162, 23105.48
815.6984, 23067.10
816.1805, 23049.89
816.6626, 23093.99
817.1447, 23139.07
817.6268, 23131.07
818.1089, 23098.99
818.5911, 23090.89
819.0732, 23110.33
819.5553, 23130.21
820.0374, 23133.38
820.5195, 23123.71
821.0016, 23104.95
821.4838, 23076.51
821.9659, 23061.29
822.4480, 23062.76
822.9301, 23070.97
823.4122, 23080.72
823.8943, 23094.50
824.3765, 23121.85
824.8586, 23170.72
825.3407, 23190.46
825.8228, 23146.25
826.3049, 23112.78
826.7870, 23125.32
827.2692, 23154.73
827.7513, 23172.55
828.2334, 23175.44
828.7155, 23172.00
829.1976, 23164.35
829.6797, 23157.07
830.1619, 23152.35
830.6440, 23152.62
831.1261, 23168.46
831.6082, 23198.62
832.0903, 23222.35
832.5724, 23227.64
833.0546, 23219.76
833.5367, 23206.16
834.0188, 23183.61
834.5009, 23179.07
834.9830, 23205.22
835.4651, 23223.50
835.9473, 23215.46
836.4294, 23196.27
836.9115, 23180.64
837.3936, 23168.83
837.8757, 23162.57
838.3578, 23161.98
838.8400, 23167.37
839.3221, 23182.04
839.8042, 23200.63
840.2863, 23222.22
840.7684, 23242.87
841.2505, 23252.91
841.7327, 23246.95
842.2148, 23234.45
842.6969, 23227.00
843.1790, 23221.95
843.6611, 23208.54
844.1432, 23187.30
844.6254, 23174.82
845.1075, 23178.76
845.5896, 23189.75
846.0717, 23195.22
846.5538, 23195.06
847.0359, 23199.02
847.5181, 23210.22
848.0002, 23219.28
848.4823, 23229.34
848.9644, 23231.70
849.4465, 23209.94
849.9286, 23175.77
850.4108, 23166.07
850.8929, 23200.68
851.3750, 23228.30
851.8571, 23229.60
852.3392, 23217.96
852.8214, 23195.84
853.3035, 23171.79
853.7856, 23162.90
854.2677, 23173.28
854.7498, 23184.03
855.2319, 23171.74
855.7141, 23149.87
856.1962, 23151.42
856.6783, 23173.40
857.1604, 23197.12
857.6425, 23218.68
858.1246, 23229.74
858.6068, 23221.44
859.0889, 23199.46
859.5710, 23184.88
860.0531, 23178.96
860.5352, 23177.30
861.0173, 23182.60
861.4995, 23188.36
861.9816, 23185.86
862.4637, 23185.05
862.9458, 23206.31
863.4279, 23253.36
863.9100, 23276.63
864.3922, 23235.60
864.8743, 23199.63
865.3564, 23214.57
865.8385, 23249.23
866.3206, 23268.16
866.8027, 23267.35
867.2849, 23257.80
867.7670, 23244.00
868.2491, 23231.12
868.7312, 23224.75
869.2133, 23224.96
869.6954, 23237.11
870.1776, 23259.62
870.6597, 23268.89
871.1418, 23253.29
871.6239, 23228.37
872.1060, 23216.24
872.5881, 23216.83
873.0703, 23209.29
873.5524, 23186.62
874.0345, 23174.22
874.5166, 23182.26
874.9987, 23197.01
875.4808, 23209.16
875.9630, 23219.27
876.4451, 23229.61
876.9272, 23246.04
877.4093, 23250.30
877.8914, 23221.87
878.3735, 23197.50
878.8557, 23210.20
879.3378, 23237.38
879.8199, 23236.44
880.3020, 23201.68
880.7841, 23176.90
881.2662, 23207.55
881.7484, 23248.96
882.2305, 23232.94
882.7126, 23186.90
883.1947, 23185.19
883.6768, 23233.12
884.1589, 23269.07
884.6411, 23251.98
885.1232, 23209.07
885.6053, 23196.22
886.0874, 23214.43
886.5695, 23220.54
887.0516, 23209.72
887.5338, 23203.79
888.0159, 23214.38
888.4980, 23227.84
888.9801, 23225.88
889.4622, 23208.59
889.9443, 23201.96
890.4265, 23216.22
890.9086, 23226.34
891.3907, 23229.59
891.8728, 23228.57
892.3549, 23222.44
892.8370, 23213.96
893.3192, 23206.76
893.8013, 23200.90
894.2834, 23202.19
894.7655, 23218.96
895.2476, 23238.77
895.7297, 23252.48
896.2119, 23261.30
896.6940, 23269.88
897.1761, 23277.66
897.6582, 23275.43
898.1403, 23253.55
898.6224, 23227.84
899.1046, 23227.33
899.5867, 23246.02
900.0688, 23257.21
900.5509, 23258.49
901.0330, 23259.39
901.5151, 23264.81
901.9973, 23269.89
902.4794, 23267.33
902.9615, 23257.16
903.4436, 23244.70
903.9257, 23227.64
904.4078, 23214.40
904.8900, 23206.96
905.3721, 23203.67
905.8542, 23206.39
906.3363, 23212.22
906.8184, 23211.61
907.3005, 23200.11
907.7827, 23193.13
908.2648, 23190.65
908.7469, 23195.38
909.2290, 23215.01
909.7111, 23238.87
910.1932, 23255.36
910.6754, 23262.46
911.1575, 23262.01
911.6396, 23248.81
912.1217, 23237.24
912.6038, 23243.91
913.0859, 23256.34
913.5681, 23253.13
914.0502, 23237.91
914.5323, 23231.76
915.0144, 23243.74
915.4965, 23260.58
915.9786, 23266.79
916.4607, 23264.90
916.9428, 23263.36
917.4249, 23262.27
917.9070, 23262.75
918.3892, 23265.54
918.8713, 23266.28
919.3534, 23261.50
919.8355, 23252.39
920.3176, 23239.22
920.7997, 23213.64
921.2819, 23219.01
921.7640, 23279.23
922.2461, 23324.26
922.7282, 23314.21
923.2103, 23285.51
923.6924, 23287.82
924.1746, 23318.46
924.6567, 23326.36
925.1388, 23288.52
925.6209, 23256.67
926.1030, 23238.89
926.5851, 23230.67
927.0673, 23231.38
927.5494, 23238.39
928.0315, 23248.95
928.5136, 23262.48
928.9957, 23274.89
929.4778, 23283.11
929.9600, 23290.36
930.4421, 23302.73
930.9242, 23314.36
931.4063, 23315.26
931.8884, 23305.66
932.3705, 23292.09
932.8527, 23277.38
933.3348, 23266.39
933.8169, 23270.43
934.2990, 23282.10
934.7811, 23277.74
935.2632, 23259.31
935.7454, 23248.64
936.2275, 23252.97
936.7096, 23258.68
937.1917, 23251.91
937.6738, 23236.47
938.1559, 23225.21
938.6381, 23217.07
939.1202, 23224.15
939.6023, 23253.04
940.0844, 23278.76
940.5665, 23287.82
941.0486, 23287.46
941.5308, 23288.36
942.0129, 23290.41
942.4950, 23294.28
942.9771, 23306.52
943.4592, 23310.38
943.9413, 23289.46
944.4235, 23273.47
944.9056, 23292.98
945.3877, 23328.31
945.8698, 23332.39
946.3519, 23290.11
946.8340, 23259.74
947.3162, 23265.71
947.7983, 23276.36
948.2804, 23275.51
948.7625, 23270.35
949.2446, 23268.89
949.7267, 23272.24
950.2089, 23279.58
950.6910, 23292.68
951.1731, 23302.81
951.6552, 23305.40
952.1373, 23299.58
952.6194, 23275.50
953.1016, 23243.62
953.5837, 23228.63
954.0658, 23236.83
954.5479, 23256.47
955.0300, 23280.25
955.5121, 23305.21
955.9943, 23332.50
956.4764, 23356.61
956.9585, 23347.52
957.4406, 23305.27
957.9227, 23275.40
958.4048, 23279.39
958.8870, 23297.60
959.3691, 23303.69
959.8512, 23300.04
960.3333, 23309.91
960.8154, 23337.57
961.2975, 23343.50
961.7797, 23313.39
962.2618, 23285.94
962.7439, 23289.65
963.2260, 23308.39
963.7081, 23305.98
964.1902, 23275.48
964.6724, 23261.40
965.1545, 23273.57
965.6366, 23286.12
966.1187, 23297.84
966.6008, 23303.53
967.0829, 23294.53
967.5651, 23276.69
968.0472, 23268.32
968.5293, 23274.43
969.0114, 23279.46
969.4935, 23279.59
969.9756, 23280.28
970.4578, 23286.23
970.9399, 23292.39
971.4220, 23291.98
971.9041, 23285.98
972.3862, 23282.17
972.8683, 23284.79
973.3505, 23286.25
973.8326, 23280.33
974.3147, 23273.59
974.7968, 23279.07
975.2789, 23285.27
975.7610, 23264.06
976.2432, 23215.21
976.7253, 23179.04
977.2074, 23188.25
977.6895, 23210.15
978.1716, 23202.32
978.6537, 23186.12
979.1359, 23209.43
979.6180, 23260.87
980.1001, 23282.93
980.5822, 23255.80
981.0643, 23216.93
981.5464, 23202.57
982.0286, 23204.86
982.5107, 23208.04
982.9928, 23211.88
983.4749, 23214.67
983.9570, 23216.32
984.4391, 23219.57
984.9213, 23225.72
985.4034, 23235.39
985.8855, 23252.84
986.3676, 23274.99
986.8497, 23267.67
987.3318, 23226.19
987.8140, 23215.08
988.2961, 23254.24
988.7782, 23288.07
989.2603, 23275.93
989.7424, 23243.29
990.2245, 23246.65
990.7067, 23294.21
991.1888, 23308.61
991.6709, 23274.21
992.1530, 23244.50
992.6351, 23227.87
993.1172, 23225.53
993.5994, 23243.18
994.0815, 23274.61
994.5636, 23301.91
995.0457, 23328.91
995.5278, 23340.50
996.0099, 23320.95
996.4921, 23306.37
996.9742, 23308.86
997.4563, 23317.11
997.9384, 23324.58
998.4205, 23329.71
998.9026, 23327.51
999.3848, 23312.15
999.8669, 23303.00
1000.349, 23309.43
1000.831, 23316.47
1001.313, 23320.91
1001.795, 23319.68
1002.277, 23304.67
1002.760, 23280.50
1003.242, 23267.17
1003.724, 23274.30
1004.206, 23285.22
1004.688, 23296.96
1005.170, 23305.10
1005.652, 23306.65
1006.134, 23302.14
1006.617, 23287.96
1007.099, 23267.44
1007.581, 23258.05
1008.063, 23273.50
1008.545, 23289.77
1009.027, 23285.35
1009.509, 23272.88
1009.991, 23263.30
1010.473, 23259.01
1010.956, 23265.04
1011.438, 23280.59
1011.920, 23294.32
1012.402, 23298.43
1012.884, 23297.38
1013.366, 23295.44
1013.848, 23292.80
1014.330, 23289.21
1014.813, 23285.33
1015.295, 23284.14
1015.777, 23286.15
1016.259, 23287.02
1016.741, 23282.52
1017.223, 23275.66
1017.705, 23268.71
1018.187, 23264.41
1018.669, 23277.36
1019.152, 23305.40
1019.634, 23323.75
1020.116, 23323.37
1020.598, 23315.30
1021.080, 23309.79
1021.562, 23306.81
1022.044, 23308.03
1022.526, 23312.62
1023.008, 23309.25
1023.491, 23296.79
1023.973, 23288.13
1024.455, 23288.75
1024.937, 23294.00
1025.419, 23298.31
1025.901, 23302.88
1026.383, 23316.04
1026.865, 23339.02
1027.348, 23349.59
1027.830, 23343.97
1028.312, 23335.02
1028.794, 23327.71
1029.276, 23322.33
1029.758, 23319.61
1030.240, 23319.16
1030.722, 23317.65
1031.204, 23314.56
1031.687, 23312.51
1032.169, 23310.11
1032.651, 23314.70
1033.133, 23333.43
1033.615, 23354.28
1034.097, 23360.75
1034.579, 23353.88
1035.061, 23350.14
1035.544, 23351.11
1036.026, 23350.39
1036.508, 23343.66
1036.990, 23342.90
1037.472, 23362.23
1037.954, 23381.11
1038.436, 23367.26
1038.918, 23322.44
1039.401, 23300.07
1039.883, 23313.10
1040.365, 23324.90
1040.847, 23337.71
1041.329, 23343.13
1041.811, 23333.83
1042.293, 23317.66
1042.775, 23300.14
1043.257, 23281.88
1043.740, 23282.39
1044.222, 23324.90
1044.704, 23350.51
1045.186, 23350.93
1045.668, 23340.39
1046.150, 23318.37
1046.632, 23293.11
1047.114, 23267.79
1047.596, 23244.71
1048.079, 23249.43
1048.561, 23317.20
1049.043, 23362.24
1049.525, 23365.99
1050.007, 23354.59
1050.489, 23330.21
1050.971, 23304.28
1051.453, 23288.11
1051.936, 23282.43
1052.418, 23286.18
1052.900, 23310.05
1053.382, 23324.52
1053.864, 23321.07
1054.346, 23310.38
1054.828, 23285.57
1055.310, 23264.98
1055.792, 23277.28
1056.275, 23317.11
1056.757, 23343.25
1057.239, 23349.52
1057.721, 23335.58
1058.203, 23275.68
1058.685, 23224.75
1059.167, 23212.33
1059.649, 23226.25
1060.131, 23263.18
1060.614, 23312.77
1061.096, 23338.00
1061.578, 23318.44
1062.060, 23302.33
1062.542, 23314.49
1063.024, 23324.94
1063.506, 23311.91
1063.988, 23291.21
1064.471, 23279.08
1064.953, 23277.12
1065.435, 23284.39
1065.917, 23306.02
1066.399, 23317.31
1066.881, 23299.63
1067.363, 23279.23
1067.845, 23270.14
1068.328, 23267.42
1068.810, 23263.23
1069.292, 23259.94
1069.774, 23271.27
1070.256, 23307.06
1070.738, 23322.45
1071.220, 23272.75
1071.702, 23227.01
1072.184, 23232.79
1072.667, 23257.13
1073.149, 23266.87
1073.631, 23263.56
1074.113, 23261.15
1074.595, 23263.14
1075.077, 23267.42
1075.559, 23274.51
1076.041, 23281.67
1076.523, 23287.93
1077.006, 23292.88
1077.488, 23294.67
1077.970, 23295.18
1078.452, 23302.00
1078.934, 23316.80
1079.416, 23317.30
1079.898, 23274.19
1080.380, 23238.89
1080.862, 23251.06
1081.345, 23271.22
1081.827, 23258.58
1082.309, 23228.94
1082.791, 23219.67
1083.273, 23236.22
1083.755, 23245.64
1084.237, 23227.86
1084.719, 23208.89
1085.202, 23202.59
1085.684, 23198.72
1086.166, 23182.20
1086.648, 23165.99
1087.130, 23175.54
1087.612, 23210.28
1088.094, 23237.93
1088.576, 23248.20
1089.058, 23246.11
1089.541, 23226.99
1090.023, 23203.49
1090.505, 23175.77
1090.987, 23154.60
1091.469, 23157.10
1091.951, 23179.75
1092.433, 23200.59
1092.915, 23216.25
1093.397, 23219.43
1093.880, 23196.27
1094.362, 23172.20
1094.844, 23158.93
1095.326, 23155.05
1095.808, 23161.39
1096.290, 23174.54
1096.772, 23186.96
1097.254, 23198.00
1097.737, 23201.77
1098.219, 23192.07
1098.701, 23179.94
1099.183, 23166.62
1099.665, 23156.42
1100.147, 23158.07
1100.629, 23164.46
1101.111, 23157.03
1101.594, 23131.10
1102.076, 23115.68
1102.558, 23137.47
1103.040, 23144.89
1103.522, 23102.98
1104.004, 23059.48
1104.486, 23045.80
1104.968, 23054.39
1105.450, 23077.82
1105.932, 23113.61
1106.415, 23128.83
1106.897, 23096.97
1107.379, 23073.94
1107.861, 23079.37
1108.343, 23085.52
1108.825, 23074.51
1109.307, 23058.43
1109.789, 23048.71
1110.272, 23047.23
1110.754, 23061.94
1111.236, 23119.54
1111.718, 23141.98
1112.200, 23088.04
1112.682, 23042.15
1113.164, 23041.62
1113.646, 23054.53
1114.129, 23053.04
1114.611, 23041.00
1115.093, 23031.00
1115.575, 23018.62
1116.057, 23023.56
1116.539, 23073.62
1117.021, 23098.49
1117.503, 23065.20
1117.985, 23025.61
1118.468, 23010.41
1118.950, 23013.01
1119.432, 23023.76
1119.914, 23044.06
1120.396, 23053.71
1120.878, 23046.59
1121.360, 23041.22
1121.842, 23036.29
1122.324, 23040.14
1122.807, 23061.18
1123.289, 23087.88
1123.771, 23108.94
1124.253, 23122.65
1124.735, 23112.44
1125.217, 23068.29
1125.699, 23034.07
1126.181, 23009.08
1126.664, 23005.70
1127.146, 23036.82
1127.628, 23067.10
1128.110, 23060.96
1128.592, 23033.46
1129.074, 23032.44
1129.556, 23062.61
1130.038, 23065.55
1130.521, 23036.63
1131.003, 23013.45
1131.485, 23005.19
1131.967, 22997.06
1132.449, 22977.67
1132.931, 22961.00
1133.413, 22972.47
1133.895, 23007.41
1134.377, 23036.52
1134.859, 23059.61
1135.342, 23063.84
1135.824, 23047.74
1136.306, 23023.62
1136.788, 22996.47
1137.270, 22977.03
1137.752, 22979.05
1138.234, 22992.37
1138.716, 22988.40
1139.199, 22973.55
1139.681, 22978.48
1140.163, 23001.31
1140.645, 23022.19
1141.127, 23034.51
1141.609, 23032.57
1142.091, 23010.89
1142.573, 22984.13
1143.056, 22973.61
1143.538, 22972.40
1144.020, 22965.76
1144.502, 22956.83
1144.984, 22956.91
1145.466, 22964.50
1145.948, 22964.60
1146.430, 22951.02
1146.912, 22939.20
1147.395, 22945.07
1147.877, 22956.79
1148.359, 22956.37
1148.841, 22956.38
1149.323, 22983.17
1149.805, 23022.88
1150.287, 23039.71
1150.769, 23028.13
1151.251, 23014.11
1151.734, 23009.18
1152.216, 23010.16
1152.698, 23022.09
1153.180, 23031.74
1153.662, 23024.51
1154.144, 23010.72
1154.626, 23001.48
1155.108, 22999.18
1155.591, 23007.38
1156.073, 23030.01
1156.555, 23043.81
1157.037, 23029.26
1157.519, 23019.54
1158.001, 23037.13
1158.483, 23055.99
1158.965, 23053.45
1159.448, 23039.51
1159.930, 23033.93
1160.412, 23038.10
1160.894, 23035.70
1161.376, 23012.07
1161.858, 23002.13
1162.340, 23026.21
1162.822, 23042.00
1163.304, 23026.41
1163.786, 23003.49
1164.269, 22995.12
1164.751, 22997.76
1165.233, 22998.84
1165.715, 22996.82
1166.197, 23001.57
1166.679, 23018.85
1167.161, 23026.24
1167.643, 23016.05
1168.126, 23004.58
1168.608, 23002.28
1169.090, 23001.91
1169.572, 22991.32
1170.054, 22972.89
1170.536, 22967.29
1171.018, 22975.38
1171.500, 22973.02
1171.983, 22957.53
1172.465, 22948.72
1172.947, 22953.35
1173.429, 22968.45
1173.911, 22993.09
1174.393, 23019.37
1174.875, 23031.96
1175.357, 23033.63
1175.839, 23034.20
1176.322, 23033.97
1176.804, 23031.78
1177.286, 23028.53
1177.768, 23032.15
1178.250, 23045.82
1178.732, 23055.18
1179.214, 23044.26
1179.696, 23024.61
1180.178, 23006.71
1180.661, 22993.55
1181.143, 22991.81
1181.625, 22998.06
1182.107, 23006.84
1182.589, 23015.15
1183.071, 23015.61
1183.553, 23001.29
1184.035, 22992.68
1184.518, 23009.78
1185.000, 23029.04
1185.482, 23035.96
1185.964, 23034.68
1186.446, 23028.30
1186.928, 23018.62
1187.410, 23007.16
1187.892, 22994.11
1188.375, 22984.67
1188.857, 22979.12
1189.339, 22978.69
1189.821, 22994.34
1190.303, 23002.34
1190.785, 22974.43
1191.267, 22946.77
1191.749, 22973.86
1192.231, 23032.93
1192.714, 23029.93
1193.196, 22936.39
1193.678, 22893.39
1194.160, 22919.98
1194.642, 22945.65
1195.124, 22956.59
1195.606, 22966.46
1196.088, 22986.08
1196.570, 22999.59
1197.053, 22980.70
1197.535, 22939.63
1198.017, 22930.54
1198.499, 22952.52
1198.981, 22964.15
1199.463, 22962.94
1199.945, 22956.83
1200.427, 22948.40
1200.910, 22944.69
1201.392, 22950.84
1201.874, 22961.05
1202.356, 22974.12
1202.838, 22981.17
1203.320, 22953.40
1203.802, 22908.27
1204.284, 22884.21
1204.766, 22882.02
1205.249, 22890.98
1205.731, 22905.43
1206.213, 22911.37
1206.695, 22894.33
1207.177, 22880.27
1207.659, 22901.00
1208.141, 22921.14
1208.623, 22896.71
1209.105, 22862.28
1209.588, 22873.84
1210.070, 22914.92
1210.552, 22917.19
1211.034, 22860.40
1211.516, 22826.59
1211.998, 22855.44
1212.480, 22879.07
1212.962, 22875.68
1213.445, 22869.60
1213.927, 22875.58
1214.409, 22883.86
1214.891, 22884.00
1215.373, 22877.11
1215.855, 22867.55
1216.337, 22852.50
1216.819, 22847.56
1217.302, 22855.24
1217.784, 22864.63
1218.266, 22875.88
1218.748, 22875.64
1219.230, 22854.79
1219.712, 22826.83
1220.194, 22808.26
1220.676, 22797.88
1221.158, 22791.72
1221.641, 22790.04
1222.123, 22800.87
1222.605, 22818.51
1223.087, 22804.99
1223.569, 22757.77
1224.051, 22725.41
1224.533, 22735.57
1225.015, 22757.55
1225.497, 22761.65
1225.980, 22759.48
1226.462, 22763.97
1226.944, 22770.87
1227.426, 22777.23
1227.908, 22780.09
1228.390, 22771.14
1228.872, 22752.21
1229.354, 22742.30
1229.837, 22749.77
1230.319, 22760.75
1230.801, 22778.09
1231.283, 22788.03
1231.765, 22779.16
1232.247, 22766.30
1232.729, 22762.88
1233.211, 22762.61
1233.693, 22751.48
1234.176, 22730.31
1234.658, 22720.04
1235.140, 22723.89
1235.622, 22729.38
1236.104, 22736.09
1236.586, 22745.69
1237.068, 22760.88
1237.550, 22767.21
1238.032, 22752.25
1238.515, 22730.36
1238.997, 22726.56
1239.479, 22735.56
1239.961, 22737.31
1240.443, 22732.32
1240.925, 22721.39
1241.407, 22706.16
1241.889, 22689.40
1242.372, 22674.04
1242.854, 22674.96
1243.336, 22705.07
1243.818, 22731.63
1244.300, 22718.34
1244.782, 22693.06
1245.264, 22675.85
1245.746, 22668.48
1246.229, 22682.58
1246.711, 22703.14
1247.193, 22698.24
1247.675, 22665.43
1248.157, 22636.56
1248.639, 22611.89
1249.121, 22606.89
1249.603, 22647.98
1250.085, 22676.17
1250.568, 22662.55
1251.050, 22643.06
1251.532, 22638.97
1252.014, 22646.23
1252.496, 22661.28
1252.978, 22681.81
1253.460, 22677.75
1253.942, 22644.30
1254.424, 22646.49
1254.907, 22690.23
1255.389, 22701.99
1255.871, 22662.07
1256.353, 22615.03
1256.835, 22588.55
1257.317, 22581.81
1257.799, 22603.47
1258.281, 22634.32
1258.764, 22636.21
1259.246, 22624.28
1259.728, 22630.63
1260.210, 22645.18
1260.692, 22631.88
1261.174, 22592.98
1261.656, 22576.11
1262.138, 22606.33
1262.620, 22626.04
1263.103, 22594.19
1263.585, 22565.43
1264.067, 22563.89
1264.549, 22574.06
1265.031, 22591.68
1265.513, 22609.29
1265.995, 22617.42
1266.477, 22616.91
1266.959, 22611.69
1267.442, 22597.43
1267.924, 22598.15
1268.406, 22619.93
1268.888, 22626.89
1269.370, 22610.82
1269.852, 22589.57
1270.334, 22571.08
1270.816, 22563.46
1271.299, 22577.68
1271.781, 22602.37
1272.263, 22617.49
1272.745, 22623.53
1273.227, 22614.95
1273.709, 22600.58
1274.191, 22607.17
1274.673, 22629.14
1275.156, 22630.95
1275.638, 22602.53
1276.120, 22581.29
1276.602, 22593.36
1277.084, 22606.88
1277.566, 22606.87
1278.048, 22602.33
1278.530, 22593.87
1279.012, 22587.39
1279.495, 22590.27
1279.977, 22598.88
1280.459, 22605.71
1280.941, 22609.57
1281.423, 22597.57
1281.905, 22565.98
1282.387, 22545.21
1282.869, 22538.04
1283.351, 22540.88
1283.834, 22554.64
1284.316, 22561.46
1284.798, 22548.10
1285.280, 22527.54
1285.762, 22516.62
1286.244, 22526.51
##END=



