##NAMES=Cuprosklodowskite
##RRUFFID=R060570
##IDEAL CHEMISTRY=Cu^2+^(U^6+^O_2_)_2_(SiO_3_OH)_2_&#183;6H_2_O
##LOCALITY=Musonoi Extension mine, near Kolwezi, Shaba Province, Zaire
##OWNER=RRUFF
##SOURCE=Michael Scott
##DESCRIPTION=Green colored acicular crystals
##STATUS=The identification of this mineral has been confirmed by single-crystal X-ray diffraction.
##URL=rruff.info/R060570
115.737, 24569.160
116.219, 25988.090
116.701, 27595.051
117.183, 29229.340
117.665, 30938.779
118.147, 32814.789
118.629, 34272.852
119.112, 34746.570
119.594, 34594.750
120.076, 34477.039
120.558, 34755.090
121.040, 35173.512
121.522, 35527.910
122.004, 35782.891
122.486, 35963.020
122.968, 36077.148
123.451, 36128.289
123.933, 36130.809
124.415, 36043.461
124.897, 35921.602
125.379, 35845.789
125.861, 35817.980
126.343, 35865.000
126.825, 36024.512
127.307, 36296.391
127.790, 36660.551
128.272, 37151.531
128.754, 37731.148
129.236, 38289.891
129.718, 38803.430
130.200, 39266.039
130.682, 39676.148
131.164, 40037.680
131.646, 40309.430
132.129, 40431.090
132.611, 40404.289
133.093, 40278.238
133.575, 40056.391
134.057, 39745.129
134.539, 39386.090
135.021, 38967.320
135.503, 38518.469
135.986, 38102.691
136.468, 37717.191
136.950, 37355.141
137.432, 36993.461
137.914, 36618.500
138.396, 36357.430
138.878, 36268.270
139.360, 36294.988
139.842, 36195.031
140.325, 35925.480
140.807, 35618.789
141.289, 35373.781
141.771, 35184.859
142.253, 35065.180
142.735, 35017.070
143.217, 35040.859
143.699, 35146.230
144.182, 35363.148
144.664, 35636.160
145.146, 35903.250
145.628, 36116.980
146.110, 36397.109
146.592, 36773.512
147.074, 37266.531
147.556, 37776.680
148.038, 38292.750
148.521, 38832.910
149.003, 39417.352
149.485, 40054.441
149.967, 40736.660
150.449, 41461.750
150.931, 42249.141
151.413, 43053.449
151.895, 43858.691
152.378, 44683.840
152.860, 45557.129
153.342, 46476.539
153.824, 47442.270
154.306, 48450.262
154.788, 49562.102
155.270, 50638.828
155.752, 51498.738
156.234, 52261.051
156.717, 53431.301
157.199, 55727.871
157.681, 58097.840
158.163, 59872.070
158.645, 60222.781
159.127, 60639.320
159.609, 61540.738
160.091, 62897.238
160.574, 64340.840
161.056, 65847.500
161.538, 67337.781
162.020, 68738.133
162.502, 69985.258
162.984, 71161.453
163.466, 72310.227
163.948, 73432.031
164.430, 74465.797
164.913, 75409.008
165.395, 76233.422
165.877, 76918.047
166.359, 77419.617
166.841, 77799.492
167.323, 78093.688
167.805, 78305.188
168.287, 78444.422
168.770, 78484.117
169.252, 78459.438
169.734, 78435.227
170.216, 78475.406
170.698, 78519.469
171.180, 78485.938
171.662, 78326.094
172.144, 78207.938
172.626, 78293.656
173.109, 78543.297
173.591, 78827.789
174.073, 79059.953
174.555, 79286.828
175.037, 79569.891
175.519, 79911.750
176.001, 80329.867
176.483, 80834.141
176.965, 81428.406
177.448, 82110.977
177.930, 82908.180
178.412, 83789.953
178.894, 84695.211
179.376, 85587.211
179.858, 86504.273
180.340, 87512.047
180.822, 88599.008
181.305, 89726.922
181.787, 90810.367
182.269, 91886.156
182.751, 93042.359
183.233, 94313.039
183.715, 95670.852
184.197, 97039.758
184.679, 98432.477
185.161, 99811.438
185.644, 101133.602
186.126, 102397.203
186.608, 103736.602
187.090, 105252.898
187.572, 106859.500
188.054, 108287.500
188.536, 109497.398
189.018, 110671.297
189.501, 112019.500
189.983, 113513.398
190.465, 115042.602
190.947, 116499.703
191.429, 117929.102
191.911, 119540.500
192.393, 121357.203
192.875, 123280.203
193.357, 125146.297
193.840, 126948.398
194.322, 128925.398
194.804, 131260.297
195.286, 133932.000
195.768, 136659.500
196.250, 139397.500
196.732, 142249.000
197.214, 145452.906
197.697, 149029.797
198.179, 152817.797
198.661, 156768.703
199.143, 160883.703
199.625, 165207.500
200.107, 169838.500
200.589, 174643.797
201.071, 179372.500
201.553, 184041.203
202.036, 188640.703
202.518, 193272.203
203.000, 197973.594
203.482, 202386.000
203.964, 206536.000
204.446, 210337.500
204.928, 213589.000
205.410, 216341.000
205.893, 218367.500
206.375, 219564.594
206.857, 219987.906
207.339, 219275.297
207.821, 217310.094
208.303, 214181.297
208.785, 210252.703
209.267, 205454.094
209.749, 199962.797
210.232, 193797.500
210.714, 186755.500
211.196, 179741.000
211.678, 172852.203
212.160, 166069.000
212.642, 159432.203
213.124, 152820.297
213.606, 146477.797
214.089, 140681.297
214.571, 135431.000
215.053, 130581.898
215.535, 126101.102
216.017, 121964.398
216.499, 118123.000
216.981, 114562.398
217.463, 111264.102
217.945, 108210.297
218.428, 105512.602
218.910, 102902.500
219.392, 100352.398
219.874, 97849.156
220.356, 95465.133
220.838, 93273.383
221.320, 91135.523
221.802, 88933.133
222.285, 86626.406
222.767, 84361.156
223.249, 82199.031
223.731, 80127.539
224.213, 78078.562
224.695, 76011.547
225.177, 73995.406
225.659, 72071.047
226.141, 70264.359
226.624, 68527.703
227.106, 66843.930
227.588, 65214.879
228.070, 63683.141
228.552, 62262.012
229.034, 60936.430
229.516, 59722.789
229.998, 58685.371
230.480, 57635.891
230.963, 56503.020
231.445, 55260.809
231.927, 54138.289
232.409, 53154.641
232.891, 52288.039
233.373, 51507.020
233.855, 50848.340
234.337, 50220.039
234.820, 49583.930
235.302, 48914.461
235.784, 48353.270
236.266, 47931.699
236.748, 47597.211
237.230, 47281.691
237.712, 46989.129
238.194, 46702.891
238.676, 46413.969
239.159, 46109.590
239.641, 45859.852
240.123, 45676.680
240.605, 45540.930
241.087, 45424.000
241.569, 45314.801
242.051, 45242.051
242.533, 45223.719
243.016, 45277.078
243.498, 45305.410
243.980, 45279.500
244.462, 45246.480
244.944, 45286.172
245.426, 45449.148
245.908, 45598.738
246.390, 45678.031
246.872, 45651.711
247.355, 45697.949
247.837, 45840.211
248.319, 46036.141
248.801, 46216.801
249.283, 46361.969
249.765, 46523.789
250.247, 46726.379
250.729, 46983.949
251.212, 47211.410
251.694, 47387.488
252.176, 47547.922
252.658, 47746.641
253.140, 47988.090
253.622, 48266.551
254.104, 48588.320
254.586, 48958.328
255.068, 49342.461
255.551, 49716.891
256.033, 50122.809
256.515, 50631.801
256.997, 51289.398
257.479, 51965.719
257.961, 52611.480
258.443, 53206.289
258.925, 53895.500
259.408, 54704.000
259.890, 55593.129
260.372, 56515.828
260.854, 57464.199
261.336, 58464.160
261.818, 59538.379
262.300, 60687.078
262.782, 61870.898
263.264, 63088.551
263.746, 64339.281
264.229, 65589.094
264.711, 66829.031
265.193, 68115.391
265.675, 69497.602
266.157, 70985.188
266.639, 72421.062
267.121, 73775.547
267.603, 75107.727
268.086, 76518.688
268.568, 77999.672
269.050, 79552.109
269.532, 81173.250
270.014, 82858.977
270.496, 84607.820
270.978, 86435.977
271.460, 88250.961
271.943, 90032.883
272.425, 91876.953
272.907, 93253.523
273.389, 93936.492
273.871, 93916.602
274.353, 93810.102
274.835, 93656.391
275.317, 93346.727
275.799, 92792.203
276.282, 92026.891
276.764, 90805.867
277.246, 88959.391
277.728, 86532.219
278.210, 84055.180
278.692, 81555.406
279.174, 79031.383
279.656, 76454.648
280.138, 73809.648
280.621, 71276.992
281.103, 68891.922
281.585, 66659.312
282.067, 64610.609
282.549, 62734.039
283.031, 61064.840
283.513, 59626.270
283.995, 58418.559
284.478, 57391.430
284.960, 56558.398
285.442, 55893.852
285.924, 55260.211
286.406, 54635.941
286.888, 54163.199
287.370, 54006.199
287.852, 54148.969
288.335, 54390.988
288.817, 54664.559
289.299, 55006.219
289.781, 55536.660
290.263, 56259.871
290.745, 57120.801
291.227, 58058.391
291.709, 59086.531
292.191, 60230.879
292.674, 61509.070
293.156, 62906.730
293.638, 64403.949
294.120, 65987.469
294.602, 67669.688
295.084, 69454.523
295.566, 71341.328
296.048, 73274.633
296.530, 75284.453
297.013, 77316.727
297.495, 79257.703
297.977, 81136.773
298.459, 82954.789
298.941, 84869.977
299.423, 86761.398
299.905, 88336.320
300.387, 89544.633
300.870, 90443.211
301.352, 91147.953
301.834, 91637.008
302.316, 91791.156
302.798, 91537.219
303.280, 90897.031
303.762, 89884.523
304.244, 88491.383
304.727, 86755.812
305.209, 84665.883
305.691, 82270.281
306.173, 79664.820
306.655, 76873.523
307.137, 73959.352
307.619, 71022.773
308.101, 68073.203
308.583, 65152.230
309.065, 62284.281
309.548, 59485.031
310.030, 56851.250
310.512, 54423.578
310.994, 52183.359
311.476, 50122.609
311.958, 48245.922
312.440, 46531.051
312.922, 44990.551
313.405, 43587.051
313.887, 42248.910
314.369, 40899.172
314.851, 39641.988
315.333, 38563.270
315.815, 37682.000
316.297, 36838.160
316.779, 35931.699
317.262, 35037.371
317.744, 34230.711
318.226, 33596.949
318.708, 33011.609
319.190, 32414.801
319.672, 31803.641
320.154, 31238.840
320.636, 30756.580
321.118, 30320.439
321.601, 29898.400
322.083, 29453.840
322.565, 29051.240
323.047, 28718.750
323.529, 28451.340
324.011, 28202.980
324.493, 27971.961
324.975, 27753.160
325.457, 27543.150
325.940, 27343.000
326.422, 27148.350
326.904, 26959.461
327.386, 26775.061
327.868, 26599.930
328.350, 26433.400
328.832, 26274.529
329.314, 26123.330
329.797, 25993.189
330.279, 25847.141
330.761, 25638.449
331.243, 25416.410
331.725, 25341.900
332.207, 25581.141
332.689, 25760.820
333.171, 25709.561
333.654, 25299.670
334.136, 24989.311
334.618, 24806.221
335.100, 24709.789
335.582, 24625.320
336.064, 24549.551
336.546, 24496.090
337.028, 24475.660
337.510, 24493.770
337.992, 24503.000
338.475, 24505.109
338.957, 24495.170
339.439, 24455.801
339.921, 24375.250
340.403, 24323.551
340.885, 24331.061
341.367, 24390.631
341.849, 24426.670
342.332, 24433.561
342.814, 24436.260
343.296, 24461.750
343.778, 24509.779
344.260, 24561.660
344.742, 24615.711
345.224, 24669.750
345.706, 24713.250
346.189, 24746.770
346.671, 24778.471
347.153, 24818.311
347.635, 24863.910
348.117, 24897.750
348.599, 24909.650
349.081, 24919.020
349.563, 24952.990
350.045, 25011.109
350.528, 25092.779
351.010, 25223.080
351.492, 25371.381
351.974, 25469.670
352.456, 25495.420
352.938, 25513.311
353.420, 25603.289
353.902, 25743.279
354.384, 25875.301
354.867, 25972.160
355.349, 26040.660
355.831, 26071.369
356.313, 26057.061
356.795, 26068.811
357.277, 26185.039
357.759, 26357.330
358.241, 26509.000
358.724, 26596.711
359.206, 26662.730
359.688, 26711.141
360.170, 26744.109
360.652, 26828.680
361.134, 27041.820
361.616, 27301.199
362.098, 27530.600
362.581, 27713.881
363.063, 27854.609
363.545, 27914.711
364.027, 27914.131
364.509, 27972.320
364.991, 28146.391
365.473, 28370.420
365.955, 28603.910
366.437, 28835.850
366.919, 29087.270
367.402, 29373.680
367.884, 29683.471
368.366, 29985.131
368.848, 30243.619
369.330, 30525.020
369.812, 30853.430
370.294, 31240.520
370.776, 31652.090
371.259, 32097.820
371.741, 32562.359
372.223, 33017.949
372.705, 33445.570
373.187, 33897.930
373.669, 34387.039
374.151, 34914.262
374.633, 35495.180
375.116, 36141.180
375.598, 36819.641
376.080, 37488.648
376.562, 38148.359
377.044, 38802.422
377.526, 39410.141
378.008, 40016.809
378.490, 40873.141
378.973, 42043.551
379.455, 43130.578
379.937, 43817.891
380.419, 44122.578
380.901, 44386.109
381.383, 44634.711
381.865, 44887.512
382.347, 45197.051
382.829, 45557.160
383.311, 45878.051
383.794, 46108.340
384.276, 46264.539
384.758, 46398.699
385.240, 46517.770
385.722, 46587.488
386.204, 46594.191
386.686, 46523.660
387.168, 46342.898
387.651, 45976.551
388.133, 45521.172
388.615, 45087.180
389.097, 44668.449
389.579, 44211.172
390.061, 43648.781
390.543, 43037.879
391.025, 42432.219
391.508, 41887.871
391.990, 41314.289
392.472, 40632.328
392.954, 39867.879
393.436, 39140.590
393.918, 38534.250
394.400, 37961.430
394.882, 37358.922
395.364, 36697.020
395.847, 36055.109
396.329, 35436.719
396.811, 34849.789
397.293, 34302.840
397.775, 33827.012
398.257, 33361.449
398.739, 32895.500
399.221, 32428.131
399.703, 31947.830
400.186, 31423.270
400.668, 30903.500
401.150, 30434.221
401.632, 30028.820
402.114, 29650.051
402.596, 29297.150
403.078, 28968.461
403.560, 28665.301
404.043, 28394.609
404.525, 28137.359
405.007, 27874.391
405.489, 27598.400
405.971, 27357.770
406.453, 27164.410
406.935, 26999.801
407.417, 26816.510
407.900, 26613.250
408.382, 26418.359
408.864, 26246.779
409.346, 26095.949
409.828, 25947.949
410.310, 25797.789
410.792, 25667.650
411.274, 25600.939
411.756, 25581.680
412.238, 25536.590
412.721, 25418.891
413.203, 25276.100
413.685, 25175.449
414.167, 25116.881
414.649, 25091.689
415.131, 25113.910
415.613, 25158.971
416.095, 25192.529
416.578, 25206.350
417.060, 25208.490
417.542, 25190.631
418.024, 25164.381
418.506, 25158.369
418.988, 25193.260
419.470, 25246.500
419.952, 25306.711
420.435, 25374.580
420.917, 25439.779
421.399, 25449.500
421.881, 25474.010
422.363, 25591.490
422.845, 25972.311
423.327, 26287.760
423.809, 26438.119
424.291, 26428.510
424.774, 26427.650
425.256, 26453.891
425.738, 26482.770
426.220, 26498.359
426.702, 26465.891
427.184, 26485.150
427.666, 26581.570
428.148, 26722.760
428.630, 26834.119
429.113, 26906.420
429.595, 26968.789
430.077, 27024.580
430.559, 27071.400
431.041, 27156.510
431.523, 27296.609
432.005, 27434.131
432.487, 27496.119
432.970, 27482.721
433.452, 27461.039
433.934, 27442.551
434.416, 27431.131
434.898, 27444.240
435.380, 27480.949
435.862, 27508.869
436.344, 27517.141
436.827, 27498.449
437.309, 27428.439
437.791, 27293.289
438.273, 27142.070
438.755, 27023.320
439.237, 26925.859
439.719, 26823.520
440.201, 26703.631
440.683, 26573.600
441.165, 26437.311
441.648, 26294.160
442.130, 26148.900
442.612, 26007.680
443.094, 25863.141
443.576, 25708.891
444.058, 25517.119
444.540, 25343.900
445.022, 25208.699
445.505, 25103.750
445.987, 25006.289
446.469, 24918.570
446.951, 24831.160
447.433, 24738.721
447.915, 24637.301
448.397, 24546.391
448.879, 24474.840
449.362, 24408.730
449.844, 24326.449
450.326, 24207.840
450.808, 24119.789
451.290, 24083.090
451.772, 24091.680
452.254, 24094.670
452.736, 24082.939
453.218, 24093.029
453.701, 24161.971
454.183, 24287.369
454.665, 24402.619
455.147, 24489.789
455.629, 24584.279
456.111, 24751.180
456.593, 24982.770
457.075, 25232.580
457.557, 25467.250
458.040, 25705.949
458.522, 25984.699
459.004, 26306.609
459.486, 26653.971
459.968, 27005.369
460.450, 27376.910
460.932, 27786.051
461.414, 28257.410
461.897, 28750.100
462.379, 29238.391
462.861, 29733.020
463.343, 30249.029
463.825, 30793.020
464.307, 31367.250
464.789, 31973.801
465.271, 32624.801
465.754, 33293.289
466.236, 33991.410
466.718, 34699.398
467.200, 35404.672
467.682, 36135.090
468.164, 36821.840
468.646, 37441.461
469.128, 38006.078
469.610, 38579.730
470.093, 39177.750
470.575, 39750.070
471.057, 40279.020
471.539, 40776.789
472.021, 41164.570
472.503, 41433.789
472.985, 41606.691
473.467, 41714.930
473.949, 41756.930
474.432, 41745.180
474.914, 41679.078
475.396, 41563.852
475.878, 41414.340
476.360, 41231.051
476.842, 41011.539
477.324, 40773.449
477.806, 40498.250
478.289, 40142.148
478.771, 39679.910
479.253, 39184.000
479.735, 38724.129
480.217, 38282.121
480.699, 37816.559
481.181, 37244.738
481.663, 36694.121
482.146, 36243.629
482.628, 35898.320
483.110, 35564.488
483.592, 35217.410
484.074, 34860.641
484.556, 34500.539
485.038, 34132.789
485.520, 33760.340
486.002, 33355.801
486.484, 32944.609
486.967, 32585.570
487.449, 32308.240
487.931, 32039.199
488.413, 31751.811
488.895, 31439.150
489.377, 31169.010
489.859, 30964.760
490.341, 30771.660
490.824, 30529.391
491.306, 30237.199
491.788, 29959.840
492.270, 29711.641
492.752, 29488.260
493.234, 29282.500
493.716, 29097.830
494.198, 28928.320
494.681, 28776.869
495.163, 28638.150
495.645, 28507.330
496.127, 28382.881
496.609, 28260.170
497.091, 28119.510
497.573, 27981.730
498.055, 27876.561
498.537, 27847.580
499.020, 27815.641
499.502, 27728.711
499.984, 27602.520
500.466, 27485.100
500.948, 27410.211
501.430, 27336.270
501.912, 27232.199
502.394, 27071.840
502.876, 26967.830
503.359, 26960.891
503.841, 26994.789
504.323, 27019.051
504.805, 27031.971
505.287, 27038.180
505.769, 27036.520
506.251, 27028.119
506.733, 27014.570
507.216, 26989.869
507.698, 26977.869
508.180, 26982.020
508.662, 27003.699
509.144, 27089.650
509.626, 27250.840
510.108, 27421.801
510.590, 27515.631
511.073, 27552.391
511.555, 27600.570
512.037, 27667.369
512.519, 27772.570
513.001, 27967.770
513.483, 28230.631
513.965, 28474.000
514.447, 28580.471
514.929, 28691.619
515.412, 28952.779
515.894, 29407.631
516.376, 29812.990
516.858, 29980.789
517.340, 30085.779
517.822, 30299.211
518.304, 30731.721
518.786, 31184.650
519.268, 31633.789
519.751, 32078.539
520.233, 32528.391
520.715, 32957.238
521.197, 33428.801
521.679, 33971.520
522.161, 34591.801
522.643, 35251.102
523.125, 35956.488
523.607, 36693.629
524.090, 37454.672
524.572, 38236.750
525.054, 39020.410
525.536, 39789.609
526.018, 40590.648
526.500, 41523.641
526.982, 42571.070
527.464, 43618.109
527.947, 44540.199
528.429, 45439.879
528.911, 46484.641
529.393, 47673.051
529.875, 48871.949
530.357, 49999.922
530.839, 51079.988
531.321, 52114.391
531.804, 53085.441
532.286, 54060.449
532.768, 55087.730
533.250, 56126.922
533.732, 57054.121
534.214, 57860.691
534.696, 58554.000
535.178, 59172.211
535.661, 59721.910
536.143, 60031.730
536.625, 60069.559
537.107, 59919.922
537.589, 59665.250
538.071, 59335.051
538.553, 58701.621
539.035, 57700.270
539.517, 56459.801
540.000, 55149.070
540.482, 53773.191
540.964, 52398.660
541.446, 51077.629
541.928, 49756.820
542.410, 48337.930
542.892, 46832.219
543.374, 45357.699
543.856, 43963.590
544.339, 42645.898
544.821, 41374.539
545.303, 40142.691
545.785, 38971.301
546.267, 37840.109
546.749, 36774.980
547.231, 35802.871
547.713, 35010.859
548.195, 34225.852
548.678, 33364.629
549.160, 32456.980
549.642, 31682.770
550.124, 31113.131
550.606, 30584.461
551.088, 30014.100
551.570, 29385.381
552.052, 28841.510
552.534, 28405.971
553.017, 28014.311
553.499, 27581.289
553.981, 27115.609
554.463, 26729.689
554.945, 26469.461
555.427, 26260.580
555.909, 25990.199
556.391, 25665.900
556.874, 25322.949
557.356, 24940.359
557.838, 24572.430
558.320, 24283.279
558.802, 24076.311
559.284, 23891.131
559.766, 23707.820
560.248, 23528.070
560.731, 23353.990
561.213, 23194.230
561.695, 23029.471
562.177, 22839.029
562.659, 22645.029
563.141, 22487.410
563.623, 22392.650
564.105, 22291.279
564.588, 22163.910
565.070, 22015.750
565.552, 21891.131
566.034, 21794.721
566.516, 21708.641
566.998, 21627.830
567.480, 21550.971
567.962, 21446.850
568.444, 21306.510
568.927, 21185.680
569.409, 21192.039
569.891, 21269.080
570.373, 21267.301
570.855, 21103.711
571.337, 20905.529
571.819, 20777.080
572.301, 20702.141
572.783, 20634.510
573.266, 20563.311
573.748, 20486.980
574.230, 20401.391
574.712, 20304.609
575.194, 20218.279
575.676, 20151.260
576.158, 20092.869
576.640, 20038.711
577.122, 19995.160
577.605, 19942.949
578.087, 19879.699
578.569, 19811.221
579.051, 19743.930
579.533, 19678.461
580.015, 19616.920
580.497, 19553.900
580.979, 19500.039
581.461, 19472.381
581.944, 19473.420
582.426, 19533.439
582.908, 19752.971
583.390, 20011.600
583.872, 20141.529
584.354, 20128.520
584.836, 20015.660
585.318, 19735.881
585.801, 19415.711
586.283, 19181.619
586.765, 19115.990
587.247, 19070.660
587.729, 19008.320
588.211, 18940.189
588.693, 18890.211
589.175, 18873.490
589.657, 18855.279
590.140, 18828.180
590.622, 18792.711
591.104, 18754.150
591.586, 18710.260
592.068, 18670.020
592.550, 18644.760
593.032, 18632.061
593.515, 18600.270
593.997, 18546.119
594.479, 18485.520
594.961, 18430.150
595.443, 18382.359
595.925, 18350.789
596.407, 18350.430
596.889, 18345.920
597.371, 18301.051
597.854, 18230.189
598.336, 18165.369
598.818, 18125.600
599.300, 18089.561
599.782, 18046.020
600.264, 17994.400
600.746, 17952.461
601.228, 17917.961
601.710, 17895.881
602.193, 17894.330
602.675, 17928.301
603.157, 17926.381
603.639, 17879.859
604.121, 17813.760
604.603, 17748.609
605.085, 17685.680
605.567, 17656.340
606.049, 17682.260
606.532, 17720.230
607.014, 17689.020
607.496, 17605.580
607.978, 17530.109
608.460, 17494.539
608.942, 17481.141
609.424, 17483.150
609.906, 17497.971
610.388, 17502.221
610.871, 17467.420
611.353, 17432.080
611.835, 17424.051
612.317, 17466.551
612.799, 17483.600
613.281, 17453.350
613.763, 17410.801
614.245, 17394.990
614.728, 17418.750
615.210, 17427.600
615.692, 17409.619
616.174, 17378.490
616.656, 17364.529
617.138, 17367.660
617.620, 17372.350
618.102, 17388.551
618.584, 17394.090
619.067, 17328.141
619.549, 17200.381
620.031, 17086.750
620.513, 17036.580
620.995, 17023.170
621.477, 17030.330
621.959, 17060.859
622.442, 17081.510
622.924, 17062.180
623.406, 17036.900
623.888, 17038.381
624.370, 17135.869
624.852, 17157.930
625.334, 17052.051
625.816, 16891.070
626.298, 16825.439
626.781, 16874.869
627.263, 16927.949
627.745, 16957.561
628.227, 16964.141
628.709, 16941.600
629.191, 16891.471
629.673, 16839.529
630.155, 16800.561
630.638, 16771.561
631.120, 16746.330
631.602, 16724.529
632.084, 16716.811
632.566, 16748.480
633.048, 16787.301
633.530, 16802.320
634.012, 16767.211
634.494, 16746.400
634.977, 16736.500
635.459, 16753.980
635.941, 16829.721
636.423, 17033.490
636.905, 17153.570
637.387, 17131.850
637.869, 17013.490
638.351, 16931.289
638.833, 16888.090
639.316, 16849.279
639.798, 16785.760
640.280, 16717.221
640.762, 16703.980
641.244, 16742.980
641.726, 16783.180
642.208, 16714.561
642.690, 16668.430
643.172, 16670.260
643.655, 16728.844
644.137, 16773.650
644.619, 16805.420
645.101, 16785.121
645.583, 16832.062
646.065, 16852.051
646.547, 16870.939
647.029, 16927.346
647.511, 16914.611
647.994, 16966.750
648.476, 16972.750
648.958, 16992.510
649.440, 17013.000
649.922, 17035.029
650.404, 17063.980
650.886, 17098.270
651.369, 17126.260
651.851, 17143.141
652.333, 17147.430
652.815, 17122.311
653.297, 17069.539
653.779, 17047.721
654.261, 17139.391
654.743, 17244.000
655.225, 17274.430
655.708, 17169.551
656.190, 17114.260
656.672, 17164.830
657.154, 17255.561
657.636, 17328.199
658.118, 17378.920
658.600, 17423.561
659.082, 17466.000
659.565, 17500.590
660.047, 17510.900
660.529, 17497.631
661.011, 17483.820
661.493, 17480.039
661.975, 17478.539
662.457, 17454.631
662.939, 17417.660
663.421, 17408.650
663.904, 17491.590
664.386, 17581.119
664.868, 17598.461
665.350, 17536.131
665.832, 17518.900
666.314, 17620.850
666.796, 17744.500
667.278, 17832.461
667.760, 17873.199
668.243, 17910.510
668.725, 17943.811
669.207, 17972.061
669.689, 17985.039
670.171, 17982.561
670.653, 18010.221
671.135, 18082.240
671.617, 18169.131
672.099, 18230.500
672.582, 18272.980
673.064, 18313.961
673.546, 18355.381
674.028, 18402.680
674.510, 18472.641
674.992, 18554.730
675.474, 18611.721
675.956, 18559.859
676.439, 18555.949
676.921, 18697.920
677.403, 18982.840
677.885, 19138.039
678.367, 19094.881
678.849, 19054.490
679.331, 19172.721
679.813, 19450.920
680.295, 19551.539
680.778, 19455.520
681.260, 19315.260
681.742, 19269.320
682.224, 19292.230
682.706, 19335.170
683.188, 19390.289
683.670, 19457.961
684.153, 19527.199
684.635, 19613.131
685.117, 19733.980
685.599, 19944.881
686.081, 20132.939
686.563, 20271.650
687.045, 20376.270
687.527, 20483.160
688.009, 20620.561
688.492, 20686.939
688.974, 20627.051
689.456, 20487.850
689.938, 20434.830
690.420, 20468.061
690.902, 20572.730
691.384, 20812.020
691.866, 21086.910
692.348, 21153.051
692.831, 21035.439
693.313, 21096.910
693.795, 21172.547
694.277, 21295.240
694.759, 21406.498
695.241, 21506.959
695.723, 21564.264
696.205, 21677.291
696.688, 21767.984
697.170, 21869.740
697.652, 22004.439
698.134, 22113.039
698.616, 22176.311
699.098, 22230.680
699.580, 22332.760
700.062, 22474.990
700.544, 22604.359
701.027, 22701.400
701.509, 22794.631
701.991, 22923.551
702.473, 23074.270
702.955, 23213.850
703.437, 23332.180
703.919, 23434.721
704.401, 23503.730
704.883, 23553.020
705.366, 23646.100
705.848, 23807.051
706.330, 23983.090
706.812, 24160.420
707.294, 24338.000
707.776, 24530.250
708.258, 24740.051
708.740, 24935.400
709.222, 25093.150
709.705, 25220.520
710.187, 25324.631
710.669, 25406.109
711.151, 25507.230
711.633, 25665.051
712.115, 25855.699
712.597, 26058.471
713.080, 26271.029
713.562, 26494.539
714.044, 26739.430
714.526, 26992.189
715.008, 27240.570
715.490, 27485.859
715.972, 27727.090
716.454, 27964.160
716.936, 28199.869
717.419, 28439.090
717.901, 28682.570
718.383, 28903.961
718.865, 29081.211
719.347, 29263.180
719.829, 29533.070
720.311, 29861.119
720.793, 30182.391
721.276, 30436.980
721.758, 30703.711
722.240, 31042.730
722.722, 31430.631
723.204, 31782.590
723.686, 32026.119
724.168, 32302.400
724.650, 32665.801
725.132, 33102.711
725.615, 33492.199
726.097, 33831.660
726.579, 34158.680
727.061, 34487.070
727.543, 34822.621
728.025, 35194.672
728.507, 35601.250
728.989, 36020.031
729.471, 36429.422
729.954, 36846.641
730.436, 37290.070
730.918, 37765.270
731.400, 38248.711
731.882, 38725.051
732.364, 39213.012
732.846, 39731.371
733.328, 40292.660
733.810, 40847.020
734.293, 41385.621
734.775, 41940.031
735.257, 42551.012
735.739, 43214.078
736.221, 43894.711
736.703, 44588.000
737.185, 45293.941
737.667, 45976.340
738.149, 46671.371
738.632, 47437.590
739.114, 48307.410
739.596, 49237.359
740.078, 50297.539
740.560, 51397.039
741.042, 52333.250
741.524, 52937.289
742.006, 53641.398
742.489, 54538.648
742.971, 55585.711
743.453, 56656.109
743.935, 57749.352
744.417, 58891.320
744.899, 60078.840
745.381, 61314.809
745.863, 62636.289
746.346, 64033.621
746.828, 65433.988
747.310, 66716.062
747.792, 68069.930
748.274, 69645.500
748.756, 71434.539
749.238, 73224.312
749.720, 75002.703
750.203, 76776.172
750.685, 78551.062
751.167, 80312.273
751.649, 82187.008
752.131, 84193.102
752.613, 86283.281
753.095, 88342.547
753.577, 90468.977
754.059, 92935.391
754.542, 95740.812
755.024, 98876.297
755.506, 102639.898
755.988, 106518.898
756.470, 109905.898
756.952, 112389.703
757.434, 115345.898
757.916, 119280.000
758.398, 123563.102
758.881, 127839.398
759.363, 132135.797
759.845, 136111.000
760.327, 139657.000
760.809, 143241.594
761.291, 147444.406
761.773, 152251.906
762.255, 157516.000
762.737, 163254.000
763.220, 169271.000
763.702, 175340.703
764.184, 181529.000
764.666, 187991.094
765.148, 194831.703
765.630, 201982.297
766.112, 209519.203
766.594, 217342.797
767.076, 225237.000
767.559, 233141.797
768.041, 241639.797
768.523, 250895.297
769.005, 260598.000
769.487, 269921.312
769.969, 279003.312
770.451, 288559.406
770.933, 299019.688
771.416, 309918.500
771.898, 320959.312
772.380, 332102.000
772.862, 343252.812
773.344, 354044.094
773.826, 365201.406
774.308, 377141.406
774.790, 389658.906
775.273, 401900.000
775.755, 413627.812
776.237, 425656.406
776.719, 438540.500
777.201, 451959.406
777.683, 464852.812
778.165, 477290.312
778.647, 489743.594
779.130, 502493.312
779.612, 515445.906
780.094, 528681.000
780.576, 542179.625
781.058, 555327.000
781.540, 567656.812
782.022, 579838.188
782.504, 592439.375
782.986, 605512.812
783.469, 617442.125
783.951, 627966.625
784.433, 638063.875
784.915, 648493.188
785.397, 658931.188
785.879, 668658.688
786.361, 677686.312
786.843, 685660.625
787.325, 692125.875
787.808, 697615.312
788.290, 702714.375
788.772, 707660.625
789.254, 711010.812
789.736, 711945.875
790.218, 711605.312
790.700, 710595.312
791.182, 708985.625
791.664, 706290.000
792.147, 702470.625
792.629, 697555.375
793.111, 691308.000
793.593, 683945.812
794.075, 676353.375
794.557, 668626.125
795.039, 660287.625
795.521, 650497.500
796.003, 640108.500
796.486, 629964.812
796.968, 620336.312
797.450, 610280.125
797.932, 599540.312
798.414, 588463.375
798.896, 577483.125
799.378, 566573.625
799.860, 556000.312
800.343, 545888.688
800.825, 535926.375
801.307, 525650.125
801.789, 515284.312
802.271, 505337.688
802.753, 495952.188
803.235, 486773.812
803.717, 477615.812
804.200, 468564.188
804.682, 459592.594
805.164, 450656.594
805.646, 442009.688
806.128, 433808.406
806.610, 425719.594
807.092, 417136.500
807.574, 408051.688
808.057, 399480.406
808.539, 391646.188
809.021, 384000.812
809.503, 375833.688
809.985, 367447.406
810.467, 359236.406
810.949, 351445.688
811.431, 343553.406
811.913, 335296.094
812.396, 326839.812
812.878, 318373.406
813.360, 309841.406
813.842, 301432.312
814.324, 293176.812
814.806, 284895.812
815.288, 276092.312
815.770, 266858.500
816.252, 257822.203
816.735, 249104.594
817.217, 240567.203
817.699, 232124.500
818.181, 223730.594
818.663, 215362.703
819.145, 206792.594
819.627, 198551.297
820.109, 190761.297
820.591, 183253.797
821.074, 175873.406
821.556, 168583.094
822.038, 161697.203
822.520, 155352.203
823.002, 149381.500
823.484, 143537.406
823.966, 137916.406
824.448, 132608.797
824.930, 127775.797
825.413, 123216.297
825.895, 118916.297
826.377, 114833.500
826.859, 110920.602
827.341, 107137.797
827.823, 103638.500
828.305, 100519.398
828.787, 97635.344
829.270, 94769.617
829.752, 91932.703
830.234, 89201.117
830.716, 86615.750
831.198, 84148.211
831.680, 81843.477
832.162, 79652.828
832.644, 77487.273
833.127, 75308.633
833.609, 73178.938
834.091, 71088.047
834.573, 69059.094
835.055, 67113.383
835.537, 65265.461
836.019, 63419.289
836.501, 61552.430
836.984, 59705.762
837.466, 57871.840
837.948, 56064.910
838.430, 54312.230
838.912, 52617.109
839.394, 50992.441
839.876, 49455.191
840.358, 47980.039
840.841, 46502.000
841.323, 44928.871
841.805, 43464.172
842.287, 42148.961
842.769, 40919.129
843.251, 39683.059
843.733, 38429.301
844.215, 37274.512
844.697, 36227.988
845.180, 35281.180
845.662, 34463.539
846.144, 33728.160
846.626, 32988.281
847.108, 32200.680
847.590, 31452.109
848.072, 30796.730
848.554, 30198.221
849.036, 29613.490
849.519, 29018.721
850.001, 28500.840
850.483, 28078.820
850.965, 27701.910
851.447, 27321.490
851.929, 26938.631
852.411, 26539.891
852.893, 26115.260
853.375, 25718.779
853.858, 25426.150
854.340, 25173.189
854.822, 24888.430
855.304, 24519.420
855.786, 24209.760
856.268, 23984.240
856.750, 23795.949
857.232, 23610.279
857.714, 23426.500
858.197, 23231.881
858.679, 23023.010
859.161, 22826.311
859.643, 22673.000
860.125, 22545.539
860.607, 22426.400
861.089, 22318.180
861.571, 22189.641
862.054, 22001.270
862.536, 21809.250
863.018, 21655.189
863.500, 21539.990
863.982, 21455.900
864.464, 21411.850
864.946, 21363.400
865.428, 21244.520
865.911, 21096.029
866.393, 21048.990
866.875, 21112.779
867.357, 21126.131
867.839, 20923.881
868.321, 20682.420
868.803, 20529.570
869.285, 20492.670
869.768, 20451.619
870.250, 20404.740
870.732, 20356.811
871.214, 20308.609
871.696, 20261.650
872.178, 20223.980
872.660, 20195.850
873.142, 20174.119
873.624, 20151.961
874.107, 20138.770
874.589, 20143.160
875.071, 20164.971
875.553, 20196.391
876.035, 20258.010
876.517, 20300.930
876.999, 20294.020
877.481, 20250.609
877.963, 20277.590
878.446, 20377.061
878.928, 20484.520
879.410, 20567.061
879.892, 20636.131
880.374, 20697.939
880.856, 20758.500
881.338, 20839.510
881.820, 20949.859
882.302, 21082.029
882.785, 21228.961
883.267, 21395.881
883.749, 21612.680
884.231, 21895.740
884.713, 22147.100
885.195, 22315.910
885.677, 22471.279
886.159, 22746.180
886.641, 23111.660
887.124, 23487.230
887.606, 23805.820
888.088, 24164.801
888.570, 24629.461
889.052, 25164.320
889.534, 25686.811
890.016, 26159.619
890.498, 26706.391
890.981, 27351.230
891.463, 28065.359
891.945, 28798.270
892.427, 29557.881
892.909, 30344.480
893.391, 31148.150
893.873, 32000.770
894.355, 32970.551
894.838, 33974.949
895.320, 34937.391
895.802, 35852.000
896.284, 36684.129
896.766, 37413.672
897.248, 38090.520
897.730, 38839.180
898.212, 39616.762
898.695, 40143.641
899.177, 40380.430
899.659, 40482.891
900.141, 40564.160
900.623, 40586.160
901.105, 40503.629
901.587, 40299.180
902.069, 40060.109
902.551, 39744.930
903.034, 39473.270
903.516, 39324.180
903.998, 39293.559
904.480, 39252.520
904.962, 39200.641
905.444, 39240.309
905.926, 39452.352
906.408, 39787.531
906.890, 40184.281
907.373, 40648.961
907.855, 41238.730
908.337, 41988.398
908.819, 42848.000
909.301, 43821.699
909.783, 44894.230
910.265, 45918.539
910.747, 46890.551
911.229, 47991.781
911.712, 49365.738
912.194, 50822.730
912.676, 52144.090
913.158, 53360.699
913.640, 54562.180
914.122, 55835.609
914.604, 57030.270
915.086, 58163.691
915.568, 59178.250
916.051, 59917.199
916.533, 60360.590
917.015, 60814.590
917.497, 61379.469
917.979, 61862.961
918.461, 62055.359
918.943, 61982.660
919.425, 61670.789
919.908, 61045.289
920.390, 60369.129
920.872, 59773.680
921.354, 59115.930
921.836, 58261.000
922.318, 57172.660
922.800, 56078.988
923.282, 54995.281
923.765, 53883.871
924.247, 52674.199
924.729, 51414.441
925.211, 50161.141
925.693, 48928.430
926.175, 47756.691
926.657, 46701.059
927.139, 45675.480
927.622, 44616.941
928.104, 43523.930
928.586, 42539.141
929.068, 41679.590
929.550, 40873.320
930.032, 40097.852
930.514, 39346.840
930.996, 38548.891
931.478, 37737.141
931.961, 37006.449
932.443, 36459.820
932.925, 35947.609
933.407, 35406.180
933.889, 34861.410
934.371, 34414.270
934.853, 34073.109
935.335, 33728.391
935.817, 33333.500
936.300, 32954.301
936.782, 32692.641
937.264, 32514.240
937.746, 32343.859
938.228, 32149.840
938.710, 31982.039
939.192, 31832.250
939.674, 31732.020
940.156, 31727.920
940.639, 31849.230
941.121, 31896.869
941.603, 31848.189
942.085, 31793.000
942.567, 31794.900
943.049, 31860.631
943.531, 32004.311
944.013, 32229.529
944.495, 32508.699
944.978, 32845.449
945.460, 33223.051
945.942, 33611.980
946.424, 34020.090
946.906, 34523.539
947.388, 35120.012
947.870, 35841.898
948.352, 36959.000
948.835, 38054.949
949.317, 38343.762
949.799, 38059.211
950.281, 37943.641
950.763, 38259.531
951.245, 38814.621
951.727, 39606.039
952.209, 40561.422
952.692, 41535.359
953.174, 42517.500
953.656, 43567.320
954.138, 44685.621
954.620, 45909.969
955.102, 47279.160
955.584, 48784.969
956.066, 50413.301
956.549, 52159.941
957.031, 54053.711
957.513, 56107.371
957.995, 58325.852
958.477, 60707.949
958.959, 63253.281
959.441, 66007.312
959.923, 68958.758
960.405, 72174.891
960.888, 75752.547
961.370, 79639.508
961.852, 83703.070
962.334, 87960.977
962.816, 92633.977
963.298, 97760.719
963.780, 103250.797
964.262, 109030.898
964.744, 115106.203
965.227, 121596.797
965.709, 128531.500
966.191, 135877.297
966.673, 143765.406
967.155, 151978.297
967.637, 160494.094
968.119, 169208.797
968.601, 178293.406
969.083, 188044.797
969.566, 197616.703
970.048, 207030.094
970.530, 215992.406
971.012, 224154.000
971.494, 231508.594
971.976, 237733.500
972.458, 242958.594
972.940, 246229.297
973.422, 246892.594
973.905, 245351.000
974.387, 241734.000
974.869, 236036.906
975.351, 228660.500
975.833, 219483.797
976.315, 209326.594
976.797, 198199.203
977.279, 186505.406
977.762, 174991.000
978.244, 163757.406
978.726, 152915.906
979.208, 142614.500
979.690, 132928.797
980.172, 123951.297
980.654, 115605.102
981.136, 107979.000
981.619, 101111.203
982.101, 94765.094
982.583, 88874.203
983.065, 83528.773
983.547, 78871.297
984.029, 74739.344
984.511, 70883.594
984.993, 67201.406
985.476, 63840.699
985.958, 60946.512
986.440, 58302.941
986.922, 55830.840
987.404, 53520.199
987.886, 51351.520
988.368, 49316.148
988.850, 47466.129
989.332, 45861.719
989.815, 44407.789
990.297, 43036.590
990.779, 41741.531
991.261, 40537.590
991.743, 39433.172
992.225, 38415.449
992.707, 37499.391
993.189, 36652.328
993.672, 35749.691
994.154, 34829.309
994.636, 34066.512
995.118, 33553.301
995.600, 33069.859
996.082, 32390.240
996.564, 31682.141
997.046, 31159.650
997.528, 30936.000
998.011, 30543.551
998.493, 29937.449
998.975, 29306.670
999.457, 28802.850
999.939, 28386.369
1000.421, 27949.449
1000.903, 27490.430
1001.385, 27057.869
1001.867, 26689.100
1002.350, 26326.211
1002.832, 25925.859
1003.314, 25512.529
1003.796, 25153.430
1004.278, 24856.461
1004.760, 24558.221
1005.242, 24243.961
1005.724, 23921.980
1006.207, 23584.670
1006.689, 23252.381
1007.171, 22968.539
1007.653, 22781.420
1008.135, 22546.051
1008.617, 22209.680
1009.099, 21869.961
1009.581, 21606.820
1010.063, 21413.510
1010.546, 21204.131
1011.028, 20978.721
1011.510, 20748.910
1011.992, 20519.199
1012.474, 20287.770
1012.956, 20036.211
1013.438, 19776.080
1013.920, 19564.600
1014.403, 19425.830
1014.885, 19275.490
1015.367, 19090.400
1015.849, 18889.100
1016.331, 18701.539
1016.813, 18523.721
1017.295, 18344.410
1017.777, 18154.230
1018.259, 17980.260
1018.742, 17821.029
1019.224, 17694.619
1019.706, 17621.711
1020.188, 17610.109
1020.670, 17586.820
1021.152, 17554.301
1021.634, 17469.609
1022.116, 17261.561
1022.599, 17014.660
1023.081, 16807.631
1023.563, 16641.240
1024.045, 16510.320
1024.527, 16435.439
1025.009, 16358.840
1025.491, 16267.490
1025.973, 16171.680
1026.455, 16093.910
1026.938, 16029.530
1027.420, 15960.070
1027.902, 15881.800
1028.384, 15793.580
1028.866, 15664.650
1029.348, 15547.280
1029.830, 15495.670
1030.312, 15522.090
1030.794, 15513.220
1031.277, 15467.530
1031.759, 15399.790
1032.241, 15301.080
1032.723, 15197.120
1033.205, 15145.980
1033.687, 15127.750
1034.169, 15078.040
1034.651, 14937.360
1035.134, 14810.440
1035.616, 14716.850
1036.098, 14646.640
1036.580, 14590.310
1037.062, 14545.900
1037.544, 14489.960
1038.026, 14415.530
1038.508, 14353.700
1038.990, 14355.180
1039.473, 14360.220
1039.955, 14310.830
1040.437, 14196.790
1040.919, 14101.970
1041.401, 14023.650
1041.883, 13973.730
1042.365, 13978.810
1042.847, 13997.770
1043.329, 13939.300
1043.812, 13831.580
1044.294, 13743.800
1044.776, 13726.390
1045.258, 13702.730
1045.740, 13644.550
1046.222, 13585.380
1046.704, 13570.360
1047.186, 13596.550
1047.669, 13595.410
1048.151, 13560.980
1048.633, 13512.520
1049.115, 13446.790
1049.597, 13387.190
1050.079, 13355.220
1050.561, 13351.460
1051.043, 13345.060
1051.526, 13337.710
1052.008, 13321.080
1052.490, 13290.220
1052.972, 13252.350
1053.454, 13217.690
1053.936, 13186.900
1054.418, 13162.980
1054.900, 13154.390
1055.382, 13135.440
1055.865, 13084.940
1056.347, 13034.690
1056.829, 13011.870
1057.311, 13015.680
1057.793, 12997.220
1058.275, 12956.970
1058.757, 12919.110
1059.239, 12913.140
1059.721, 12903.690
1060.204, 12846.870
1060.686, 12764.370
1061.168, 12735.820
1061.650, 12783.200
1062.132, 12825.830
1062.614, 12859.060
1063.096, 12858.200
1063.578, 12773.580
1064.061, 12637.010
1064.543, 12491.960
1065.025, 12335.960
1065.507, 12234.040
1065.989, 12244.450
1066.471, 12267.080
1066.953, 12262.440
1067.435, 12233.870
1067.917, 12193.040
1068.400, 12142.200
1068.882, 12096.850
1069.364, 12076.750
1069.846, 12047.850
1070.328, 11974.060
1070.810, 11884.140
1071.292, 11824.090
1071.774, 11804.500
1072.256, 11776.010
1072.739, 11734.920
1073.221, 11690.780
1073.703, 11647.710
1074.185, 11608.750
1074.667, 11586.200
1075.149, 11576.440
1075.631, 11539.790
1076.114, 11429.620
1076.596, 11351.020
1077.078, 11339.850
1077.560, 11359.260
1078.042, 11329.880
1078.524, 11264.510
1079.006, 11213.230
1079.488, 11195.740
1079.970, 11162.940
1080.453, 11063.840
1080.935, 10960.790
1081.417, 10906.380
1081.899, 10902.250
1082.381, 10855.450
1082.863, 10763.710
1083.345, 10687.910
1083.827, 10672.170
1084.309, 10678.110
1084.792, 10672.610
1085.274, 10660.580
1085.756, 10652.280
1086.238, 10641.320
1086.720, 10657.260
1087.202, 10717.470
1087.684, 10759.690
1088.166, 10706.250
1088.649, 10590.880
1089.131, 10473.250
1089.613, 10358.290
1090.095, 10246.760
1090.577, 10111.640
1091.059, 10015.880
1091.541, 9992.919
1092.023, 10011.510
1092.505, 9987.572
1092.988, 9927.954
1093.470, 9871.478
1093.952, 9825.993
1094.434, 9796.707
1094.916, 9806.787
1095.398, 9820.559
1095.880, 9806.591
1096.362, 9763.695
1096.844, 9697.782
1097.327, 9604.137
1097.809, 9533.069
1098.291, 9523.724
1098.773, 9540.789
1099.255, 9426.767
1099.737, 9325.833
1100.219, 9241.085
1100.701, 9279.516
1101.184, 9287.991
1101.666, 9268.223
1102.148, 9135.413
1102.630, 9148.575
1103.112, 9103.234
1103.594, 9055.504
1104.076, 9089.211
1104.558, 8972.845
1105.041, 9005.199
1105.523, 8978.229
1106.005, 8978.434
1106.487, 8919.775
1106.969, 8877.753
1107.451, 8870.783
1107.933, 8913.721
1108.415, 8991.711
1108.897, 9064.351
1109.380, 9128.999
1109.862, 9157.403
1110.344, 9120.408
1110.826, 9020.561
1111.308, 8914.041
1111.790, 8798.189
1112.272, 8707.628
1112.754, 8660.978
1113.236, 8645.970
1113.719, 8684.762
1114.201, 8736.094
1114.683, 8728.196
1115.165, 8597.894
1115.647, 8518.836
1116.129, 8500.464
1116.611, 8505.687
1117.093, 8521.266
1117.576, 8529.731
1118.058, 8490.036
1118.540, 8409.841
1119.022, 8335.488
1119.504, 8281.021
1119.986, 8239.696
1120.468, 8212.837
1120.950, 8194.921
1121.432, 8182.973
1121.915, 8172.822
1122.397, 8142.572
1122.879, 8086.979
1123.361, 8048.915
1123.843, 8077.760
1124.325, 8102.992
1124.807, 8086.292
1125.289, 8037.087
1125.771, 7991.622
1126.254, 7950.635
1126.736, 7924.282
1127.218, 7904.966
1127.700, 7927.986
1128.182, 8067.405
1128.664, 8234.777
1129.146, 8346.450
1129.628, 8407.523
1130.111, 8342.908
1130.593, 8137.788
1131.075, 7941.692
1131.557, 7850.062
1132.039, 7812.681
1132.521, 7784.681
1133.003, 7766.148
1133.485, 7758.965
1133.968, 7780.009
1134.450, 7774.107
1134.932, 7730.265
1135.414, 7685.793
1135.896, 7684.145
1136.378, 7702.915
1136.860, 7699.952
1137.342, 7676.717
1137.824, 7658.709
1138.307, 7674.201
1138.789, 7666.168
1139.271, 7615.101
1139.753, 7549.185
1140.235, 7512.490
1140.717, 7500.975
1141.199, 7506.552
1141.681, 7529.524
1142.163, 7546.122
1142.646, 7544.342
1143.128, 7532.624
1143.610, 7512.498
1144.092, 7486.824
1144.574, 7465.202
1145.056, 7447.856
1145.538, 7435.740
1146.020, 7430.327
1146.503, 7427.839
1146.985, 7437.805
1147.467, 7440.313
1147.949, 7412.448
1148.431, 7351.601
1148.913, 7338.636
1149.395, 7372.660
1149.877, 7389.260
1150.359, 7332.439
1150.842, 7263.135
1151.324, 7222.221
1151.806, 7204.160
1152.288, 7201.968
1152.770, 7220.345
1153.252, 7230.193
1153.734, 7229.637
1154.216, 7224.981
1154.698, 7218.329
1155.181, 7212.400
1155.663, 7211.527
1156.145, 7214.360
1156.627, 7214.243
1157.109, 7208.289
1157.591, 7207.685
1158.073, 7216.917
1158.555, 7223.149
1159.038, 7202.204
1159.520, 7172.456
1160.002, 7156.844
1160.484, 7158.075
1160.966, 7180.558
1161.448, 7128.561
1161.930, 7319.017
1162.412, 7991.297
1162.895, 8714.022
1163.377, 8513.665
1163.859, 7767.601
1164.341, 7251.097
1164.823, 7163.720
1165.305, 7134.111
1165.787, 7086.456
1166.269, 7046.673
1166.751, 7023.790
1167.234, 7018.698
1167.716, 7049.176
1168.198, 7100.431
1168.680, 7121.848
1169.162, 7073.779
1169.644, 7035.655
1170.126, 7042.790
1170.608, 7060.793
1171.090, 7068.721
1171.573, 7066.929
1172.055, 7051.902
1172.537, 7026.977
1173.019, 7013.631
1173.501, 7035.754
1173.983, 7057.375
1174.465, 7065.371
1174.947, 7062.345
1175.430, 7047.088
1175.912, 7020.129
1176.394, 7000.904
1176.876, 6990.284
1177.358, 6980.776
1177.840, 6961.990
1178.322, 6948.856
1178.804, 6951.584
1179.286, 6965.979
1179.769, 6986.417
1180.251, 7013.224
1180.733, 7037.222
1181.215, 7058.359
1181.697, 7066.397
1182.179, 7044.820
1182.661, 7014.346
1183.143, 6980.616
1183.625, 6951.057
1184.108, 6965.262
1184.590, 7028.842
1185.072, 7063.555
1185.554, 7046.370
1186.036, 7012.544
1186.518, 6980.927
1187.000, 6959.172
1187.482, 6959.024
1187.965, 6980.596
1188.447, 6995.336
1188.929, 7002.456
1189.411, 7010.178
1189.893, 7022.584
1190.375, 7034.787
1190.857, 7025.747
1191.339, 7021.390
1191.822, 7001.446
1192.304, 7019.679
1192.786, 7028.646
1193.268, 7028.846
1193.750, 6994.017
1194.232, 7004.419
1194.714, 6996.696
1195.196, 6997.947
1195.678, 6982.238
1196.161, 6977.050
1196.643, 6973.342
1197.125, 6945.065
1197.607, 6870.520
1198.089, 6873.749
1198.571, 6841.449
1199.053, 6898.077
1199.535, 6933.119
1200.017, 6947.733
1200.500, 6880.757
1200.982, 6919.144
1201.464, 6915.299
1201.946, 6909.724
1202.428, 6962.941
1202.910, 6907.819
1203.392, 6960.104
1203.874, 6969.515
1204.357, 6998.564
1204.839, 6985.105
1205.321, 6984.771
1205.803, 7026.942
1206.285, 6998.303
1206.767, 6955.736
1207.249, 6931.785
1207.731, 6919.807
1208.214, 6910.037
1208.696, 6902.353
1209.178, 6909.830
1209.660, 6949.203
1210.142, 6962.236
1210.624, 6929.140
1211.106, 6885.306
1211.588, 6881.804
1212.070, 6897.101
1212.552, 6898.205
1213.035, 6880.361
1213.517, 6866.829
1213.999, 6859.193
1214.481, 6858.442
1214.963, 6868.342
1215.445, 6877.600
1215.927, 6855.223
1216.409, 6825.786
1216.892, 6834.341
1217.374, 6899.392
1217.856, 6932.865
1218.338, 6922.539
1218.820, 6897.639
1219.302, 6862.229
1219.784, 6831.508
1220.266, 6813.421
1220.749, 6824.735
1221.231, 6914.120
1221.713, 7161.664
1222.195, 7229.625
1222.677, 7047.129
1223.159, 6863.847
1223.641, 6817.931
1224.123, 6844.719
1224.605, 6851.007
1225.088, 6842.002
1225.570, 6826.231
1226.052, 6790.274
1226.534, 6789.312
1227.016, 6841.394
1227.498, 6869.557
1227.980, 6799.540
1228.462, 6690.620
1228.944, 6619.846
1229.427, 6589.439
1229.909, 6608.464
1230.391, 6729.996
1230.873, 6795.295
1231.355, 6788.770
1231.837, 6775.531
1232.319, 6823.665
1232.801, 6884.074
1233.284, 6879.907
1233.766, 6831.957
1234.248, 6800.067
1234.730, 6791.086
1235.212, 6809.571
1235.694, 6865.305
1236.176, 6904.988
1236.658, 6859.467
1237.141, 6786.844
1237.623, 6757.005
1238.105, 6762.720
1238.587, 6770.429
1239.069, 6780.162
1239.551, 6776.678
1240.033, 6755.149
1240.515, 6739.051
1240.997, 6760.320
1241.480, 6791.963
1241.962, 6807.958
1242.444, 6808.230
1242.926, 6800.539
1243.408, 6780.713
1243.890, 6769.083
1244.372, 6763.154
1244.854, 6801.219
1245.337, 7008.809
1245.819, 7208.062
1246.301, 7204.521
1246.783, 7020.985
1247.265, 6892.209
1247.747, 6821.061
1248.229, 6786.180
1248.711, 6787.665
1249.193, 6796.230
1249.676, 6781.248
1250.158, 6763.355
1250.640, 6761.006
1251.122, 6772.667
1251.604, 6789.706
1252.086, 6812.737
1252.568, 6833.354
1253.050, 6850.645
1253.532, 6861.070
1254.015, 6867.097
1254.497, 6860.123
1254.979, 6825.964
1255.461, 6773.121
1255.943, 6733.572
1256.425, 6707.715
1256.907, 6707.043
1257.389, 6739.742
1257.872, 6773.806
1258.354, 6782.609
1258.836, 6790.463
1259.318, 6821.554
1259.800, 6863.506
1260.282, 6848.847
1260.764, 6788.016
1261.246, 6748.837
1261.729, 6756.605
1262.211, 6765.710
1262.693, 6743.657
1263.175, 6727.008
1263.657, 6743.229
1264.139, 6778.125
1264.621, 6766.089
1265.103, 6721.676
1265.585, 6698.377
1266.068, 6722.380
1266.550, 6738.778
1267.032, 6720.021
1267.514, 6701.127
1267.996, 6701.398
1268.478, 6712.487
1268.960, 6702.961
1269.442, 6683.515
1269.924, 6683.261
1270.407, 6720.655
1270.889, 6751.519
1271.371, 6767.126
1271.853, 6778.875
1272.335, 6783.312
1272.817, 6796.177
1273.299, 6883.624
1273.781, 6998.663
1274.264, 7041.881
1274.746, 6943.494
1275.228, 6870.114
1275.710, 6831.651
1276.192, 6806.486
1276.674, 6782.521
1277.156, 6764.487
1277.638, 6757.479
1278.120, 6762.703
1278.603, 6785.921
1279.085, 6843.294
1279.567, 6868.663
1280.049, 6859.942
1280.531, 6837.652
1281.013, 6805.038
1281.495, 6775.370
1281.977, 6772.131
1282.459, 6776.507
1282.942, 6752.946
1283.424, 6685.559
1283.906, 6690.107
1284.388, 6766.861
1284.870, 6826.049
1285.352, 6793.744
1285.834, 6746.612
1286.316, 6731.182
1286.799, 6733.765
1287.281, 6736.656
1287.763, 6739.515
1288.245, 6759.565
1288.727, 6793.594
1289.209, 6810.888
1289.691, 6771.797
1290.173, 6741.094
1290.656, 6752.003
1291.138, 6775.380
1291.620, 6782.642
1292.102, 6779.887
1292.584, 6819.850
1293.066, 6889.004
1293.548, 6923.072
1294.030, 6862.986
1294.512, 6806.904
1294.995, 6763.605
1295.477, 6738.464
1295.959, 6745.115
1296.441, 6770.212
1296.923, 6783.614
##END=



