##NAMES=Curienite
##RRUFFID=R050548
##IDEAL CHEMISTRY=Pb^2+^(U^6+^O_2_)_2_(V^5+^O_4_)_2_&#183;5H_2_O
##LOCALITY=Mounana mine, Franceville, Haut-Ogooué, Gabon
##OWNER=RRUFF
##SOURCE=University of Arizona Mineral Museum
##DESCRIPTION=Groups of heavily striated orange bladed crystals
##STATUS=The identification of this mineral has been confirmed by X-ray diffraction and chemical analysis
##URL=rruff.info/R050548
##MEASURED CHEMISTRY=(Pb_0.83_Ba_0.17_)_Σ=1_(U_1.00_O_2_)_2_(V_1.00_O_4_)_2_·5.1H_2_O
92.37695, 6639.620
92.85907, 6628.825
93.34119, 6636.417
93.82330, 6603.177
94.30542, 6543.463
94.78754, 6475.175
95.26965, 6410.284
95.75177, 6353.821
96.23389, 6314.830
96.71600, 6284.837
97.19812, 6262.511
97.68024, 6251.059
98.16235, 6240.987
98.64447, 6223.763
99.12659, 6208.458
99.60870, 6148.311
100.0908, 6053.484
100.5729, 5933.636
101.0551, 5791.251
101.5372, 5624.544
102.0193, 5437.199
102.5014, 5255.412
102.9835, 5068.086
103.4656, 4893.737
103.9478, 4732.284
104.4299, 4584.500
104.9120, 4453.152
105.3941, 4340.792
105.8762, 4247.376
106.3583, 4166.672
106.8405, 4098.937
107.3226, 4038.927
107.8047, 3984.689
108.2868, 3935.730
108.7689, 3890.784
109.2510, 3849.107
109.7332, 3810.616
110.2153, 3775.514
110.6974, 3745.618
111.1795, 3718.673
111.6616, 3690.865
112.1437, 3661.055
112.6259, 3631.564
113.1080, 3605.515
113.5901, 3582.771
114.0722, 3559.346
114.5543, 3534.062
115.0364, 3506.709
115.5185, 3475.208
116.0007, 3434.129
116.4828, 3392.140
116.9649, 3355.036
117.4470, 3323.692
117.9291, 3293.302
118.4112, 3256.330
118.8934, 3208.462
119.3755, 3164.818
119.8576, 3126.918
120.3397, 3092.985
120.8218, 3062.503
121.3039, 3035.173
121.7861, 3009.761
122.2682, 2982.433
122.7503, 2946.937
123.2324, 2916.575
123.7145, 2895.340
124.1966, 2879.288
124.6788, 2862.387
125.1609, 2840.526
125.6430, 2814.986
126.1251, 2797.181
126.6072, 2791.366
127.0893, 2786.867
127.5715, 2778.747
128.0536, 2767.669
128.5357, 2757.926
129.0178, 2753.119
129.4999, 2752.603
129.9821, 2750.720
130.4642, 2745.775
130.9463, 2740.150
131.4284, 2736.157
131.9105, 2733.947
132.3926, 2733.082
132.8748, 2733.989
133.3569, 2735.988
133.8390, 2737.943
134.3211, 2738.087
134.8032, 2737.618
135.2853, 2741.034
135.7674, 2750.869
136.2496, 2761.480
136.7317, 2769.906
137.2138, 2776.716
137.6959, 2783.418
138.1780, 2791.568
138.6601, 2801.453
139.1423, 2809.818
139.6244, 2813.753
140.1065, 2818.572
140.5886, 2826.803
141.0707, 2838.221
141.5528, 2850.823
142.0350, 2862.115
142.5171, 2870.948
142.9992, 2881.598
143.4813, 2895.185
143.9634, 2909.375
144.4455, 2923.337
144.9277, 2936.594
145.4098, 2948.470
145.8919, 2957.594
146.3740, 2960.886
146.8561, 2967.142
147.3382, 2978.500
147.8204, 2992.443
148.3025, 3006.074
148.7846, 3018.446
149.2667, 3029.920
149.7488, 3040.934
150.2309, 3050.804
150.7131, 3062.281
151.1952, 3077.368
151.6773, 3095.104
152.1594, 3112.132
152.6415, 3126.963
153.1236, 3140.778
153.6058, 3155.408
154.0879, 3170.742
154.5700, 3187.026
155.0521, 3204.537
155.5342, 3223.229
156.0163, 3242.509
156.4985, 3262.694
156.9806, 3282.937
157.4627, 3302.189
157.9448, 3319.951
158.4269, 3337.686
158.9090, 3357.723
159.3912, 3380.486
159.8733, 3404.490
160.3554, 3431.968
160.8375, 3459.130
161.3196, 3482.374
161.8017, 3499.884
162.2839, 3513.436
162.7660, 3528.251
163.2481, 3546.791
163.7302, 3563.255
164.2123, 3576.120
164.6944, 3586.805
165.1766, 3597.022
165.6587, 3607.847
166.1408, 3618.971
166.6229, 3628.560
167.1050, 3639.494
167.5871, 3645.885
168.0693, 3643.347
168.5514, 3635.335
169.0335, 3628.675
169.5156, 3628.145
169.9977, 3633.187
170.4798, 3634.564
170.9620, 3628.939
171.4441, 3623.651
171.9262, 3622.714
172.4083, 3625.426
172.8904, 3628.005
173.3725, 3627.633
173.8547, 3624.484
174.3368, 3621.961
174.8189, 3617.553
175.3010, 3615.443
175.7831, 3619.798
176.2652, 3630.892
176.7474, 3644.131
177.2295, 3655.493
177.7116, 3666.543
178.1937, 3681.010
178.6758, 3701.311
179.1579, 3724.915
179.6401, 3748.396
180.1222, 3771.456
180.6043, 3794.995
181.0864, 3821.361
181.5685, 3848.432
182.0506, 3872.123
182.5328, 3889.116
183.0149, 3901.519
183.4970, 3916.630
183.9791, 3938.010
184.4612, 3956.247
184.9433, 3969.798
185.4255, 3977.877
185.9076, 3979.047
186.3897, 3971.545
186.8718, 3955.882
187.3539, 3938.047
187.8360, 3918.841
188.3182, 3896.017
188.8003, 3870.428
189.2824, 3840.883
189.7645, 3804.778
190.2466, 3759.358
190.7287, 3703.950
191.2109, 3651.138
191.6930, 3602.529
192.1751, 3554.559
192.6572, 3506.328
193.1393, 3457.988
193.6214, 3409.967
194.1036, 3363.150
194.5857, 3317.683
195.0678, 3270.486
195.5499, 3217.088
196.0320, 3166.225
196.5141, 3121.698
196.9963, 3083.659
197.4784, 3050.208
197.9605, 3019.933
198.4426, 2993.162
198.9247, 2969.906
199.4068, 2953.580
199.8890, 2937.826
200.3711, 2916.302
200.8532, 2889.210
201.3353, 2864.809
201.8174, 2851.099
202.2995, 2849.104
202.7817, 2847.941
203.2638, 2847.402
203.7459, 2847.472
204.2280, 2847.618
204.7101, 2847.703
205.1922, 2849.611
205.6744, 2856.599
206.1565, 2867.496
206.6386, 2876.505
207.1207, 2880.149
207.6028, 2882.197
208.0849, 2888.101
208.5671, 2898.940
209.0492, 2911.133
209.5313, 2921.569
210.0134, 2931.163
210.4955, 2942.016
210.9776, 2955.028
211.4598, 2969.844
211.9419, 2985.841
212.4240, 3003.103
212.9061, 3021.278
213.3882, 3038.255
213.8703, 3055.840
214.3525, 3077.998
214.8346, 3109.034
215.3167, 3146.171
215.7988, 3178.223
216.2809, 3201.341
216.7630, 3225.341
217.2451, 3253.270
217.7273, 3284.865
218.2094, 3319.720
218.6915, 3357.640
219.1736, 3398.598
219.6557, 3442.405
220.1378, 3491.885
220.6200, 3540.648
221.1021, 3585.512
221.5842, 3628.390
222.0663, 3672.756
222.5484, 3720.767
223.0305, 3772.121
223.5127, 3824.039
223.9948, 3877.772
224.4769, 3930.306
224.9590, 3978.626
225.4411, 4025.727
225.9232, 4077.200
226.4054, 4137.951
226.8875, 4206.248
227.3696, 4265.839
227.8517, 4311.449
228.3338, 4353.077
228.8159, 4388.937
229.2981, 4422.437
229.7802, 4458.844
230.2623, 4502.067
230.7444, 4551.341
231.2265, 4596.808
231.7086, 4638.262
232.1908, 4676.539
232.6729, 4712.650
233.1550, 4745.759
233.6371, 4774.295
234.1192, 4797.165
234.6013, 4814.764
235.0835, 4829.554
235.5656, 4842.614
236.0477, 4852.499
236.5298, 4857.440
237.0119, 4858.800
237.4940, 4860.261
237.9762, 4864.659
238.4583, 4869.836
238.9404, 4865.459
239.4225, 4845.750
239.9046, 4825.044
240.3867, 4811.519
240.8689, 4801.043
241.3510, 4783.236
241.8331, 4752.353
242.3152, 4711.042
242.7973, 4668.222
243.2794, 4628.668
243.7616, 4581.093
244.2437, 4519.167
244.7258, 4445.351
245.2079, 4367.069
245.6900, 4287.637
246.1721, 4204.896
246.6543, 4113.455
247.1364, 4010.584
247.6185, 3908.298
248.1006, 3811.490
248.5827, 3720.167
249.0648, 3632.831
249.5470, 3548.161
250.0291, 3468.130
250.5112, 3394.664
250.9933, 3327.498
251.4754, 3265.291
251.9576, 3206.895
252.4397, 3152.590
252.9218, 3102.242
253.4039, 3057.401
253.8860, 3015.177
254.3681, 2971.749
254.8503, 2927.015
255.3324, 2884.558
255.8145, 2847.884
256.2966, 2815.935
256.7787, 2783.578
257.2608, 2750.809
257.7430, 2716.153
258.2251, 2678.394
258.7072, 2637.916
259.1893, 2597.108
259.6714, 2557.403
260.1535, 2518.727
260.6357, 2480.018
261.1178, 2440.998
261.5999, 2402.432
262.0820, 2363.724
262.5641, 2325.450
263.0462, 2289.353
263.5284, 2257.022
264.0105, 2228.103
264.4926, 2199.428
264.9747, 2169.739
265.4568, 2142.606
265.9389, 2119.187
266.4211, 2099.131
266.9032, 2081.987
267.3853, 2068.269
267.8674, 2057.192
268.3495, 2044.940
268.8316, 2029.440
269.3138, 2016.045
269.7959, 2005.916
270.2780, 1998.929
270.7601, 1994.838
271.2422, 1993.460
271.7243, 1994.936
272.2065, 2000.205
272.6886, 2011.722
273.1707, 2023.009
273.6528, 2030.693
274.1349, 2037.765
274.6170, 2047.134
275.0992, 2059.972
275.5813, 2076.586
276.0634, 2098.126
276.5455, 2127.621
277.0276, 2156.688
277.5097, 2182.370
277.9919, 2207.675
278.4740, 2235.250
278.9561, 2266.179
279.4382, 2299.654
279.9203, 2334.544
280.4024, 2370.552
280.8846, 2408.539
281.3667, 2450.406
281.8488, 2492.709
282.3309, 2532.786
282.8130, 2569.986
283.2951, 2605.336
283.7773, 2640.158
284.2594, 2674.124
284.7415, 2708.374
285.2236, 2741.576
285.7057, 2776.056
286.1878, 2814.986
286.6700, 2857.583
287.1521, 2899.147
287.6342, 2933.290
288.1163, 2956.024
288.5984, 2986.356
289.0805, 3028.724
289.5627, 3073.838
290.0448, 3118.115
290.5269, 3161.401
291.0090, 3204.727
291.4911, 3248.633
291.9732, 3292.671
292.4554, 3341.884
292.9375, 3402.174
293.4196, 3461.811
293.9017, 3515.947
294.3838, 3566.396
294.8659, 3617.603
295.3481, 3672.624
295.8302, 3731.436
296.3123, 3790.750
296.7944, 3850.675
297.2765, 3911.241
297.7586, 3974.872
298.2408, 4038.617
298.7229, 4097.767
299.2050, 4149.492
299.6871, 4194.807
300.1692, 4237.203
300.6513, 4276.031
301.1335, 4311.999
301.6156, 4348.519
302.0977, 4380.622
302.5798, 4404.309
303.0619, 4417.744
303.5440, 4419.932
304.0262, 4408.606
304.5083, 4381.470
304.9904, 4341.762
305.4725, 4286.448
305.9546, 4221.884
306.4367, 4152.430
306.9189, 4079.427
307.4010, 4001.575
307.8831, 3916.713
308.3652, 3822.496
308.8473, 3726.866
309.3294, 3628.407
309.8116, 3529.315
310.2937, 3430.999
310.7758, 3333.488
311.2579, 3236.241
311.7400, 3138.941
312.2221, 3039.835
312.7043, 2948.248
313.1864, 2863.121
313.6685, 2784.771
314.1506, 2713.821
314.6327, 2649.598
315.1148, 2590.814
315.5970, 2537.006
316.0791, 2487.964
316.5612, 2440.967
317.0433, 2394.366
317.5254, 2351.341
318.0075, 2310.039
318.4897, 2273.447
318.9718, 2247.132
319.4539, 2234.256
319.9360, 2230.761
320.4181, 2223.492
320.9002, 2207.293
321.3824, 2193.734
321.8645, 2185.509
322.3466, 2179.148
322.8287, 2171.467
323.3108, 2161.396
323.7929, 2149.398
324.2751, 2136.418
324.7572, 2122.892
325.2393, 2107.167
325.7214, 2081.935
326.2035, 2059.958
326.6856, 2050.906
327.1678, 2055.222
327.6499, 2065.701
328.1320, 2074.461
328.6141, 2080.242
329.0962, 2090.943
329.5783, 2109.331
330.0605, 2129.273
330.5426, 2147.677
331.0247, 2165.399
331.5068, 2185.202
331.9889, 2209.433
332.4710, 2237.769
332.9532, 2264.945
333.4353, 2289.319
333.9174, 2314.523
334.3995, 2340.484
334.8816, 2367.825
335.3637, 2397.359
335.8459, 2429.305
336.3280, 2463.582
336.8101, 2499.092
337.2922, 2536.735
337.7743, 2574.615
338.2564, 2610.809
338.7386, 2648.291
339.2206, 2690.463
339.7028, 2738.091
340.1849, 2787.521
340.6670, 2833.009
341.1491, 2871.756
341.6312, 2913.308
342.1133, 2958.065
342.5955, 3004.629
343.0776, 3053.195
343.5597, 3103.145
344.0418, 3152.628
344.5239, 3199.154
345.0060, 3242.253
345.4882, 3290.689
345.9703, 3347.245
346.4524, 3407.058
346.9345, 3468.635
347.4166, 3532.669
347.8987, 3601.167
348.3809, 3675.486
348.8630, 3754.313
349.3451, 3830.968
349.8272, 3907.167
350.3093, 3979.165
350.7914, 4040.676
351.2736, 4100.891
351.7557, 4168.430
352.2378, 4246.481
352.7199, 4331.884
353.2020, 4418.248
353.6841, 4502.954
354.1663, 4596.864
354.6484, 4706.977
355.1305, 4821.988
355.6126, 4934.451
356.0947, 5044.265
356.5768, 5156.886
357.0590, 5278.729
357.5411, 5409.439
358.0232, 5540.211
358.5053, 5667.307
358.9874, 5798.802
359.4695, 5937.300
359.9517, 6082.069
360.4338, 6231.312
360.9159, 6385.768
361.3980, 6542.702
361.8801, 6694.980
362.3622, 6837.842
362.8444, 6985.099
363.3265, 7149.710
363.8086, 7317.463
364.2907, 7473.396
364.7728, 7613.199
365.2549, 7743.392
365.7371, 7873.844
366.2192, 8006.291
366.7013, 8128.193
367.1834, 8244.908
367.6655, 8341.370
368.1476, 8407.073
368.6298, 8442.016
369.1119, 8452.863
369.5940, 8445.488
370.0761, 8418.555
370.5582, 8365.368
371.0403, 8285.393
371.5225, 8177.245
372.0046, 8038.993
372.4867, 7874.957
372.9688, 7689.752
373.4509, 7482.415
373.9330, 7257.530
374.4152, 7018.050
374.8973, 6763.229
375.3794, 6507.358
375.8615, 6256.093
376.3436, 6010.503
376.8257, 5770.672
377.3079, 5535.840
377.7900, 5307.724
378.2721, 5085.050
378.7542, 4869.188
379.2363, 4666.298
379.7184, 4476.852
380.2006, 4301.833
380.6827, 4142.996
381.1648, 3999.986
381.6469, 3865.236
382.1290, 3733.565
382.6111, 3609.221
383.0933, 3499.760
383.5754, 3405.878
384.0575, 3320.951
384.5396, 3238.689
385.0217, 3160.849
385.5038, 3091.877
385.9860, 3034.367
386.4681, 2983.946
386.9502, 2938.357
387.4323, 2897.865
387.9144, 2862.807
388.3965, 2833.529
388.8787, 2809.861
389.3608, 2792.391
389.8429, 2782.538
390.3250, 2774.160
390.8071, 2764.940
391.2892, 2756.990
391.7714, 2752.280
392.2535, 2751.344
392.7356, 2755.001
393.2177, 2764.641
393.6998, 2781.598
394.1819, 2799.143
394.6641, 2818.244
395.1462, 2837.087
395.6283, 2852.251
396.1104, 2865.858
396.5925, 2884.198
397.0746, 2912.030
397.5568, 2947.174
398.0389, 2978.480
398.5210, 3002.165
399.0031, 3026.177
399.4852, 3050.538
399.9673, 3076.080
400.4495, 3104.950
400.9316, 3137.398
401.4137, 3170.111
401.8958, 3198.067
402.3779, 3220.371
402.8600, 3239.960
403.3422, 3258.609
403.8243, 3273.523
404.3064, 3283.631
404.7885, 3288.741
405.2706, 3289.096
405.7527, 3285.207
406.2349, 3276.682
406.7170, 3260.186
407.1991, 3232.057
407.6812, 3200.608
408.1633, 3170.759
408.6454, 3137.864
409.1276, 3095.722
409.6097, 3042.080
410.0918, 2982.356
410.5739, 2924.355
411.0560, 2869.250
411.5381, 2810.772
412.0203, 2745.392
412.5024, 2678.632
412.9845, 2613.534
413.4666, 2550.305
413.9487, 2487.786
414.4308, 2426.489
414.9130, 2365.639
415.3951, 2301.213
415.8772, 2230.510
416.3593, 2162.922
416.8414, 2105.244
417.3235, 2053.271
417.8057, 2001.412
418.2878, 1946.907
418.7699, 1894.935
419.2520, 1851.145
419.7341, 1814.884
420.2162, 1779.912
420.6984, 1744.851
421.1805, 1709.985
421.6626, 1675.885
422.1447, 1642.255
422.6268, 1609.360
423.1089, 1575.851
423.5911, 1543.763
424.0732, 1516.576
424.5553, 1494.809
425.0374, 1473.755
425.5195, 1449.239
426.0016, 1422.405
426.4838, 1400.381
426.9659, 1386.954
427.4480, 1374.186
427.9301, 1357.347
428.4122, 1338.682
428.8943, 1323.497
429.3765, 1313.953
429.8586, 1307.226
430.3407, 1298.436
430.8228, 1286.389
431.3049, 1274.700
431.7870, 1263.532
432.2692, 1252.690
432.7513, 1241.593
433.2334, 1230.566
433.7155, 1220.656
434.1976, 1212.713
434.6797, 1206.726
435.1619, 1202.472
435.6440, 1201.472
436.1261, 1200.497
436.6082, 1199.231
437.0903, 1197.627
437.5724, 1195.327
438.0546, 1192.289
438.5367, 1189.472
439.0188, 1188.558
439.5009, 1190.207
439.9830, 1191.616
440.4651, 1192.777
440.9473, 1193.630
441.4294, 1193.668
441.9115, 1193.318
442.3936, 1193.618
442.8757, 1195.182
443.3578, 1197.958
443.8400, 1201.643
444.3221, 1206.047
444.8042, 1211.939
445.2863, 1220.862
445.7684, 1230.741
446.2505, 1239.332
446.7327, 1246.062
447.2148, 1253.207
447.6969, 1263.263
448.1790, 1275.633
448.6611, 1286.807
449.1432, 1295.360
449.6254, 1304.345
450.1075, 1316.937
450.5896, 1332.151
451.0717, 1347.345
451.5538, 1361.094
452.0359, 1375.019
452.5181, 1390.297
453.0002, 1406.990
453.4823, 1425.616
453.9644, 1447.125
454.4465, 1469.848
454.9286, 1489.831
455.4108, 1506.234
455.8929, 1522.835
456.3750, 1540.032
456.8571, 1558.066
457.3392, 1577.553
457.8214, 1598.448
458.3035, 1619.839
458.7856, 1640.846
459.2677, 1661.487
459.7498, 1684.219
460.2319, 1708.583
460.7141, 1735.192
461.1962, 1766.268
461.6783, 1799.089
462.1604, 1829.713
462.6425, 1856.665
463.1246, 1881.307
463.6068, 1905.932
464.0889, 1930.597
464.5710, 1954.704
465.0531, 1979.436
465.5352, 2002.517
466.0173, 2023.136
466.4995, 2041.256
466.9816, 2056.988
467.4637, 2070.186
467.9458, 2081.325
468.4279, 2091.943
468.9100, 2102.125
469.3922, 2111.655
469.8743, 2123.271
470.3564, 2132.545
470.8385, 2134.654
471.3206, 2128.992
471.8027, 2121.300
472.2849, 2116.762
472.7670, 2113.944
473.2491, 2106.548
473.7312, 2092.244
474.2133, 2078.464
474.6954, 2071.715
475.1776, 2069.442
475.6597, 2065.988
476.1418, 2059.654
476.6239, 2052.944
477.1060, 2048.305
477.5881, 2044.791
478.0703, 2038.716
478.5524, 2028.248
479.0345, 2017.376
479.5166, 2012.507
479.9987, 2015.437
480.4808, 2016.024
480.9630, 2011.557
481.4451, 2006.440
481.9272, 2003.927
482.4093, 2003.518
482.8914, 2003.003
483.3735, 2001.129
483.8557, 1997.946
484.3378, 1993.606
484.8199, 1987.364
485.3020, 1980.935
485.7841, 1975.646
486.2662, 1969.294
486.7484, 1959.537
487.2305, 1946.545
487.7126, 1932.861
488.1947, 1920.600
488.6768, 1909.674
489.1589, 1898.797
489.6411, 1888.273
490.1232, 1877.226
490.6053, 1864.717
491.0874, 1851.890
491.5695, 1839.998
492.0516, 1829.392
492.5338, 1819.864
493.0159, 1810.957
493.4980, 1802.800
493.9801, 1796.732
494.4622, 1792.780
494.9443, 1791.321
495.4265, 1794.425
495.9086, 1800.448
496.3907, 1804.708
496.8728, 1804.118
497.3549, 1803.108
497.8370, 1803.584
498.3192, 1806.340
498.8013, 1815.161
499.2834, 1832.276
499.7655, 1853.808
500.2476, 1873.371
500.7297, 1889.373
501.2119, 1909.373
501.6940, 1935.312
502.1761, 1964.162
502.6582, 1994.472
503.1403, 2025.868
503.6224, 2058.327
504.1045, 2091.838
504.5866, 2126.472
505.0688, 2162.558
505.5509, 2199.244
506.0330, 2239.264
506.5151, 2284.528
506.9972, 2331.699
507.4793, 2378.328
507.9615, 2424.339
508.4436, 2471.250
508.9257, 2520.312
509.4078, 2571.560
509.8899, 2623.151
510.3720, 2674.867
510.8542, 2727.723
511.3363, 2782.644
511.8184, 2838.624
512.3005, 2895.664
512.7827, 2954.184
513.2648, 3009.975
513.7469, 3057.391
514.2290, 3099.729
514.7111, 3148.597
515.1932, 3207.010
515.6754, 3264.843
516.1575, 3314.279
516.6396, 3356.490
517.1217, 3398.077
517.6038, 3440.093
518.0859, 3480.341
518.5681, 3518.291
519.0502, 3553.716
519.5323, 3586.044
520.0144, 3615.269
520.4965, 3642.130
520.9786, 3668.298
521.4608, 3695.305
521.9429, 3711.784
522.4250, 3714.709
522.9071, 3712.409
523.3892, 3707.657
523.8713, 3699.646
524.3535, 3686.463
524.8356, 3667.448
525.3177, 3644.029
525.7998, 3619.735
526.2819, 3596.091
526.7640, 3564.122
527.2462, 3521.068
527.7283, 3471.436
528.2104, 3415.194
528.6925, 3354.438
529.1746, 3293.677
529.6567, 3236.304
530.1389, 3177.512
530.6210, 3110.394
531.1031, 3035.357
531.5852, 2959.323
532.0673, 2883.917
532.5494, 2808.953
533.0316, 2732.821
533.5137, 2656.030
533.9958, 2581.889
534.4779, 2512.469
534.9600, 2444.967
535.4421, 2375.042
535.9243, 2304.503
536.4064, 2238.646
536.8885, 2180.729
537.3706, 2127.030
537.8527, 2070.242
538.3348, 2005.461
538.8170, 1946.652
539.2991, 1896.486
539.7812, 1849.632
540.2633, 1802.517
540.7454, 1755.766
541.2275, 1711.452
541.7097, 1670.889
542.1918, 1633.404
542.6739, 1597.373
543.1560, 1562.623
543.6381, 1529.318
544.1202, 1497.141
544.6024, 1467.011
545.0845, 1440.545
545.5666, 1417.013
546.0487, 1393.551
546.5308, 1367.477
547.0129, 1340.964
547.4951, 1317.227
547.9772, 1296.215
548.4593, 1278.372
548.9414, 1265.197
549.4235, 1253.844
549.9056, 1238.474
550.3878, 1218.021
550.8699, 1200.686
551.3520, 1188.880
551.8341, 1180.234
552.3162, 1173.927
552.7983, 1169.164
553.2805, 1163.901
553.7626, 1156.791
554.2447, 1148.898
554.7268, 1143.488
555.2089, 1143.531
555.6910, 1140.722
556.1732, 1131.012
556.6553, 1122.023
557.1374, 1118.654
557.6195, 1120.250
558.1016, 1123.445
558.5837, 1126.468
559.0659, 1129.235
559.5480, 1131.115
560.0301, 1131.663
560.5122, 1133.999
560.9943, 1140.020
561.4764, 1147.230
561.9586, 1153.083
562.4407, 1157.653
562.9228, 1162.443
563.4049, 1167.629
563.8870, 1173.568
564.3691, 1180.296
564.8513, 1187.987
565.3334, 1197.704
565.8155, 1210.198
566.2976, 1224.156
566.7797, 1237.150
567.2618, 1248.324
567.7440, 1260.494
568.2261, 1275.126
568.7082, 1289.309
569.1903, 1300.053
569.6724, 1309.041
570.1545, 1320.584
570.6367, 1336.988
571.1188, 1356.473
571.6009, 1375.077
572.0830, 1392.552
572.5651, 1410.706
573.0472, 1430.811
573.5294, 1450.510
574.0115, 1468.792
574.4936, 1485.726
574.9757, 1501.528
575.4578, 1516.251
575.9399, 1529.947
576.4221, 1543.241
576.9042, 1555.767
577.3863, 1565.454
577.8684, 1571.510
578.3505, 1575.009
578.8326, 1576.626
579.3148, 1576.191
579.7969, 1576.500
580.2790, 1580.162
580.7611, 1581.946
581.2432, 1579.024
581.7253, 1572.628
582.2075, 1564.221
582.6896, 1554.526
583.1717, 1544.903
583.6538, 1537.820
584.1359, 1534.141
584.6180, 1526.799
585.1002, 1512.909
585.5823, 1498.503
586.0643, 1486.655
586.5464, 1474.945
587.0286, 1459.252
587.5107, 1438.004
587.9928, 1417.030
588.4749, 1402.386
588.9570, 1392.712
589.4391, 1383.207
589.9213, 1373.668
590.4034, 1362.417
590.8855, 1346.979
591.3676, 1329.000
591.8497, 1314.773
592.3318, 1306.348
592.8140, 1297.912
593.2961, 1286.476
593.7782, 1274.784
594.2603, 1266.183
594.7424, 1260.894
595.2245, 1256.919
595.7067, 1252.817
596.1888, 1248.630
596.6709, 1244.429
597.1530, 1238.811
597.6351, 1235.723
598.1172, 1237.455
598.5994, 1240.180
599.0815, 1240.958
599.5636, 1239.901
600.0457, 1239.107
600.5278, 1239.683
601.0099, 1241.529
601.4921, 1244.854
601.9742, 1249.677
602.4563, 1254.281
602.9384, 1258.312
603.4205, 1261.526
603.9026, 1263.028
604.3848, 1262.735
604.8669, 1263.529
605.3490, 1266.332
605.8311, 1269.850
606.3132, 1274.179
606.7953, 1278.466
607.2775, 1281.195
607.7596, 1281.763
608.2417, 1280.423
608.7238, 1277.408
609.2059, 1272.472
609.6880, 1267.052
610.1702, 1259.413
610.6523, 1253.351
611.1344, 1252.180
611.6165, 1252.522
612.0986, 1249.403
612.5807, 1241.235
613.0629, 1231.767
613.5450, 1224.255
614.0271, 1218.262
614.5092, 1212.566
614.9913, 1207.185
615.4734, 1200.870
615.9556, 1192.095
616.4377, 1181.946
616.9198, 1174.337
617.4019, 1171.745
617.8840, 1166.713
618.3661, 1155.312
618.8483, 1142.561
619.3304, 1132.123
619.8125, 1124.668
620.2946, 1120.417
620.7767, 1119.806
621.2589, 1121.450
621.7410, 1121.140
622.2231, 1117.964
622.7052, 1115.548
623.1873, 1114.977
623.6694, 1114.746
624.1516, 1113.764
624.6337, 1112.405
625.1158, 1111.846
625.5979, 1112.573
626.0800, 1114.229
626.5621, 1116.590
627.0443, 1119.594
627.5264, 1122.364
628.0085, 1124.403
628.4906, 1128.810
628.9727, 1139.595
629.4548, 1156.743
629.9370, 1170.090
630.4191, 1177.191
630.9012, 1184.136
631.3833, 1190.935
631.8654, 1199.101
632.3475, 1211.015
632.8297, 1226.415
633.3118, 1242.002
633.7939, 1254.644
634.2760, 1265.248
634.7581, 1277.347
635.2402, 1291.336
635.7224, 1305.326
636.2045, 1318.693
636.6866, 1331.786
637.1687, 1344.244
637.6508, 1356.164
638.1329, 1370.167
638.6151, 1390.213
639.0972, 1409.971
639.5793, 1422.308
640.0614, 1430.038
640.5435, 1441.129
641.0256, 1458.342
641.5078, 1478.230
641.9899, 1496.499
642.4720, 1513.352
642.9541, 1526.874
643.4362, 1533.899
643.9183, 1541.136
644.4005, 1549.900
644.8826, 1559.662
645.3647, 1571.192
645.8468, 1584.153
646.3289, 1593.749
646.8110, 1594.396
647.2932, 1589.014
647.7753, 1585.023
648.2574, 1582.723
648.7395, 1578.990
649.2216, 1572.608
649.7037, 1563.810
650.1859, 1552.979
650.6680, 1540.136
651.1501, 1525.161
651.6322, 1505.922
652.1143, 1486.530
652.5964, 1469.208
653.0786, 1453.571
653.5607, 1439.318
654.0428, 1426.205
654.5249, 1412.048
655.0070, 1392.539
655.4891, 1367.290
655.9713, 1347.837
656.4534, 1337.087
656.9355, 1326.520
657.4176, 1311.022
657.8997, 1294.061
658.3818, 1279.195
658.8640, 1266.672
659.3461, 1256.998
659.8282, 1253.338
660.3103, 1250.716
660.7924, 1242.861
661.2745, 1230.502
661.7567, 1217.985
662.2388, 1207.314
662.7209, 1198.388
663.2030, 1191.139
663.6851, 1186.117
664.1672, 1180.890
664.6494, 1174.371
665.1315, 1168.798
665.6136, 1165.214
666.0957, 1162.924
666.5778, 1160.810
667.0599, 1158.529
667.5421, 1157.054
668.0242, 1158.142
668.5063, 1160.492
668.9884, 1160.206
669.4705, 1156.991
669.9526, 1155.286
670.4348, 1157.877
670.9169, 1162.868
671.3990, 1166.162
671.8811, 1167.196
672.3632, 1167.839
672.8453, 1167.477
673.3275, 1167.365
673.8096, 1167.993
674.2917, 1169.400
674.7738, 1171.968
675.2559, 1175.798
675.7380, 1179.345
676.2202, 1180.386
676.7023, 1179.178
677.1844, 1178.124
677.6665, 1177.087
678.1486, 1177.006
678.6307, 1178.770
679.1129, 1181.591
679.5950, 1183.990
680.0771, 1185.966
680.5592, 1187.617
681.0413, 1188.144
681.5234, 1189.054
682.0056, 1192.488
682.4877, 1197.170
682.9698, 1199.529
683.4519, 1198.081
683.9340, 1195.804
684.4161, 1197.616
684.8983, 1204.035
685.3804, 1208.171
685.8625, 1208.682
686.3446, 1209.231
686.8267, 1210.534
687.3088, 1213.146
687.7910, 1217.813
688.2731, 1224.636
688.7552, 1233.194
689.2373, 1246.803
689.7194, 1259.540
690.2015, 1262.551
690.6837, 1258.724
691.1658, 1258.556
691.6479, 1266.469
692.1300, 1278.702
692.6121, 1290.170
693.0942, 1300.896
693.5764, 1310.110
694.0585, 1315.487
694.5406, 1322.448
695.0227, 1332.443
695.5048, 1344.672
695.9869, 1358.673
696.4691, 1374.278
696.9512, 1390.553
697.4333, 1407.586
697.9154, 1424.635
698.3975, 1439.729
698.8796, 1453.672
699.3618, 1471.274
699.8439, 1494.474
700.3260, 1519.391
700.8081, 1540.540
701.2902, 1557.342
701.7723, 1575.906
702.2545, 1595.766
702.7366, 1617.959
703.2187, 1642.679
703.7008, 1669.762
704.1829, 1700.577
704.6650, 1734.276
705.1472, 1766.610
705.6293, 1791.860
706.1114, 1815.834
706.5935, 1848.032
707.0756, 1887.498
707.5577, 1928.631
708.0399, 1969.951
708.5220, 2012.100
709.0041, 2056.114
709.4862, 2101.997
709.9683, 2146.680
710.4504, 2185.603
710.9326, 2229.712
711.4147, 2284.097
711.8968, 2342.094
712.3789, 2396.406
712.8610, 2448.195
713.3431, 2503.934
713.8253, 2567.966
714.3074, 2633.322
714.7895, 2704.387
715.2716, 2780.968
715.7537, 2860.016
716.2358, 2946.788
716.7180, 3036.729
717.2001, 3124.402
717.6822, 3211.075
718.1643, 3308.604
718.6464, 3419.822
719.1285, 3536.318
719.6107, 3658.356
720.0928, 3784.282
720.5749, 3911.061
721.0570, 4041.155
721.5391, 4181.653
722.0212, 4336.495
722.5034, 4500.558
722.9855, 4667.295
723.4676, 4837.860
723.9497, 5011.923
724.4318, 5189.221
724.9139, 5374.714
725.3961, 5570.355
725.8782, 5776.466
726.3603, 5989.341
726.8424, 6211.688
727.3245, 6436.585
727.8066, 6662.202
728.2888, 6893.042
728.7709, 7129.974
729.2530, 7374.002
729.7351, 7624.548
730.2172, 7881.099
730.6993, 8144.786
731.1815, 8417.729
731.6636, 8697.625
732.1457, 8977.197
732.6278, 9256.580
733.1099, 9529.623
733.5920, 9793.361
734.0742, 10053.11
734.5563, 10317.37
735.0384, 10589.53
735.5205, 10849.94
736.0026, 11097.28
736.4847, 11334.40
736.9669, 11565.56
737.4490, 11784.66
737.9311, 11988.74
738.4132, 12175.60
738.8953, 12344.88
739.3774, 12500.19
739.8596, 12635.50
740.3417, 12740.81
740.8238, 12816.14
741.3059, 12857.05
741.7880, 12861.36
742.2701, 12834.08
742.7523, 12781.36
743.2344, 12702.13
743.7165, 12582.30
744.1986, 12416.25
744.6807, 12221.68
745.1628, 11994.20
745.6450, 11744.30
746.1271, 11477.49
746.6092, 11196.75
747.0913, 10902.91
747.5734, 10598.16
748.0555, 10281.37
748.5377, 9950.591
749.0198, 9608.991
749.5019, 9273.371
749.9840, 8944.383
750.4661, 8621.498
750.9482, 8302.869
751.4304, 7989.121
751.9125, 7677.096
752.3946, 7361.517
752.8767, 7063.620
753.3588, 6790.292
753.8409, 6524.053
754.3231, 6253.715
754.8052, 5987.466
755.2873, 5736.980
755.7694, 5504.991
756.2515, 5285.735
756.7336, 5077.559
757.2158, 4877.616
757.6979, 4681.538
758.1800, 4489.733
758.6621, 4307.424
759.1442, 4136.207
759.6263, 3974.424
760.1085, 3818.723
760.5906, 3669.655
761.0727, 3530.105
761.5548, 3402.377
762.0369, 3280.972
762.5190, 3166.948
763.0012, 3057.162
763.4833, 2947.607
763.9654, 2839.674
764.4475, 2738.499
764.9296, 2647.633
765.4117, 2561.581
765.8939, 2473.853
766.3760, 2388.023
766.8581, 2310.618
767.3402, 2242.132
767.8223, 2180.398
768.3044, 2124.492
768.7866, 2071.353
769.2687, 2013.426
769.7508, 1947.213
770.2329, 1888.445
770.7150, 1840.104
771.1971, 1795.439
771.6793, 1751.976
772.1614, 1710.000
772.6435, 1670.530
773.1256, 1633.932
773.6077, 1597.778
774.0898, 1560.582
774.5720, 1524.173
775.0541, 1489.492
775.5362, 1456.947
776.0183, 1427.279
776.5004, 1400.643
776.9825, 1375.566
777.4647, 1350.426
777.9468, 1325.591
778.4289, 1303.482
778.9110, 1284.435
779.3931, 1265.495
779.8752, 1245.492
780.3574, 1226.252
780.8395, 1210.187
781.3216, 1196.510
781.8037, 1181.807
782.2858, 1163.239
782.7679, 1147.461
783.2501, 1137.904
783.7322, 1130.270
784.2143, 1121.474
784.6964, 1111.446
785.1785, 1100.781
785.6606, 1089.609
786.1428, 1079.323
786.6249, 1071.865
787.1070, 1066.770
787.5891, 1062.238
788.0712, 1058.198
788.5533, 1054.445
789.0355, 1050.696
789.5176, 1047.677
789.9997, 1046.644
790.4818, 1047.906
790.9639, 1049.207
791.4460, 1049.472
791.9282, 1051.146
792.4103, 1056.941
792.8924, 1062.841
793.3745, 1063.527
793.8566, 1060.134
794.3387, 1060.342
794.8209, 1069.058
795.3030, 1081.097
795.7851, 1091.802
796.2672, 1101.982
796.7493, 1112.886
797.2314, 1124.909
797.7136, 1139.410
798.1957, 1157.627
798.6778, 1177.593
799.1599, 1193.512
799.6420, 1203.128
800.1241, 1218.100
800.6063, 1239.576
801.0884, 1265.056
801.5705, 1295.125
802.0526, 1327.573
802.5347, 1359.451
803.0168, 1390.509
803.4990, 1423.002
803.9811, 1456.853
804.4632, 1492.935
804.9453, 1530.926
805.4274, 1571.661
805.9095, 1617.730
806.3917, 1668.597
806.8738, 1719.831
807.3559, 1767.051
807.8380, 1813.541
808.3201, 1866.738
808.8022, 1926.681
809.2844, 1987.469
809.7665, 2048.145
810.2486, 2109.539
810.7307, 2170.887
811.2128, 2233.931
811.6949, 2303.273
812.1771, 2382.335
812.6592, 2460.354
813.1413, 2536.567
813.6234, 2612.229
814.1055, 2684.770
814.5876, 2757.985
815.0698, 2837.976
815.5519, 2925.269
816.0340, 3010.800
816.5161, 3088.376
816.9982, 3161.202
817.4803, 3235.919
817.9625, 3308.200
818.4446, 3366.399
818.9267, 3408.137
819.4088, 3438.705
819.8909, 3463.096
820.3730, 3478.747
820.8552, 3475.645
821.3373, 3451.720
821.8194, 3417.625
822.3015, 3373.919
822.7836, 3320.839
823.2657, 3258.276
823.7479, 3186.290
824.2300, 3105.589
824.7121, 3014.596
825.1942, 2921.703
825.6763, 2827.034
826.1584, 2733.131
826.6406, 2641.634
827.1227, 2551.814
827.6048, 2462.606
828.0869, 2373.759
828.5690, 2284.322
829.0511, 2192.992
829.5333, 2102.012
830.0154, 2014.098
830.4975, 1929.761
830.9796, 1852.195
831.4617, 1782.099
831.9438, 1715.762
832.4260, 1650.457
832.9081, 1586.873
833.3902, 1526.121
833.8723, 1467.397
834.3544, 1413.484
834.8365, 1364.981
835.3187, 1321.059
835.8008, 1284.316
836.2829, 1250.188
836.7650, 1211.292
837.2471, 1166.895
837.7292, 1127.796
838.2114, 1099.828
838.6935, 1075.497
839.1756, 1050.510
839.6577, 1025.957
840.1398, 1003.566
840.6219, 983.4612
841.1041, 965.1193
841.5862, 948.4308
842.0683, 932.3727
842.5504, 914.4650
843.0325, 895.3472
843.5146, 879.3820
843.9968, 867.2137
844.4789, 857.5418
844.9610, 850.4105
845.4431, 843.9748
845.9252, 834.7444
846.4073, 821.9699
846.8895, 810.0569
847.3716, 797.3295
847.8537, 787.8252
848.3358, 785.0787
848.8179, 783.7193
849.3000, 778.4958
849.7822, 769.9996
850.2643, 762.8655
850.7464, 758.0614
851.2285, 755.6758
851.7106, 757.3889
852.1927, 760.4518
852.6749, 761.8665
853.1570, 761.5973
853.6391, 760.5453
854.1212, 759.1350
854.6033, 757.9867
855.0854, 757.9175
855.5676, 758.8124
856.0497, 759.7794
856.5318, 760.7621
857.0139, 764.1360
857.4960, 771.1419
857.9781, 778.9839
858.4603, 784.6354
858.9424, 788.3145
859.4245, 792.7151
859.9066, 797.5641
860.3887, 803.6081
860.8708, 812.2360
861.3530, 820.7108
861.8351, 827.2698
862.3172, 832.7941
862.7993, 838.9501
863.2814, 846.1421
863.7635, 853.4828
864.2457, 860.5446
864.7278, 867.7212
865.2099, 875.1634
865.6920, 882.9937
866.1741, 891.0132
866.6563, 899.3812
867.1384, 908.9026
867.6205, 920.2849
868.1026, 933.0026
868.5847, 945.7048
869.0668, 958.6711
869.5490, 973.8586
870.0311, 991.5534
870.5132, 1011.101
870.9953, 1032.436
871.4774, 1055.227
871.9595, 1079.036
872.4417, 1104.415
872.9238, 1128.142
873.4059, 1151.073
873.8880, 1171.180
874.3701, 1191.699
874.8522, 1206.069
875.3344, 1208.190
875.8165, 1198.740
876.2986, 1182.602
876.7807, 1162.356
877.2628, 1133.155
877.7449, 1088.788
878.2271, 1038.615
878.7092, 988.3651
879.1913, 940.0148
879.6734, 895.8383
880.1555, 856.7203
880.6376, 819.8229
881.1198, 782.0519
881.6019, 745.4852
882.0840, 714.4127
882.5661, 688.1452
883.0482, 663.4648
883.5303, 639.5588
884.0125, 617.6036
884.4946, 598.4552
884.9767, 582.3091
885.4588, 570.5285
885.9409, 564.1725
886.4230, 555.8629
886.9052, 543.5070
887.3873, 532.7773
887.8694, 527.2713
888.3515, 524.3294
888.8336, 519.5259
889.3157, 512.5746
889.7979, 506.0164
890.2800, 499.8875
890.7621, 494.1569
891.2442, 489.2816
891.7263, 484.4206
892.2084, 478.5346
892.6906, 472.0359
893.1727, 466.2155
893.6548, 461.1979
894.1369, 458.0556
894.6190, 459.5469
895.1011, 461.8139
895.5833, 459.6558
896.0654, 454.4384
896.5475, 450.0488
897.0296, 447.7895
897.5117, 447.0081
897.9938, 447.4218
898.4760, 448.4962
898.9581, 448.9428
899.4402, 448.7602
899.9223, 447.8333
900.4044, 446.0899
900.8865, 444.0183
901.3687, 441.8020
901.8508, 439.7039
902.3329, 438.2315
902.8150, 437.2791
903.2971, 437.5354
903.7792, 439.8265
904.2614, 441.8812
904.7435, 441.6288
905.2256, 442.0487
905.7077, 447.3847
906.1898, 456.2813
906.6719, 461.0930
907.1541, 458.4891
907.6362, 455.5526
908.1183, 452.7480
908.6004, 451.3965
909.0825, 452.7452
909.5646, 456.1134
910.0468, 460.7241
910.5289, 466.2388
911.0110, 471.2892
911.4931, 474.9474
911.9752, 477.6637
912.4573, 479.0554
912.9395, 480.1750
913.4216, 483.4274
913.9037, 488.9153
914.3858, 495.0148
914.8679, 500.7976
915.3500, 506.0717
915.8321, 510.0780
916.3142, 513.0736
916.7963, 517.2018
917.2784, 522.5487
917.7606, 528.7844
918.2427, 536.0297
918.7248, 543.1182
919.2069, 548.5190
919.6890, 552.6955
920.1711, 559.6584
920.6533, 571.4229
921.1354, 581.1058
921.6175, 586.4393
922.0996, 591.8753
922.5817, 599.6920
923.0638, 609.0982
923.5460, 618.8993
924.0281, 628.9637
924.5102, 640.3379
924.9923, 654.4308
925.4744, 668.3256
925.9565, 679.6450
926.4387, 691.3963
926.9208, 706.3262
927.4029, 724.1991
927.8850, 743.5159
928.3671, 764.2794
928.8492, 783.9504
929.3314, 799.1033
929.8135, 813.5778
930.2956, 831.3790
930.7777, 852.1774
931.2598, 874.8387
931.7419, 899.1554
932.2241, 924.9564
932.7062, 952.3883
933.1883, 980.7310
933.6704, 1007.562
934.1525, 1033.949
934.6346, 1065.823
935.1168, 1103.525
935.5989, 1141.701
936.0810, 1177.615
936.5631, 1213.436
937.0452, 1252.310
937.5273, 1294.109
938.0095, 1335.753
938.4916, 1376.040
938.9737, 1422.139
939.4558, 1478.028
939.9379, 1535.360
940.4200, 1588.144
940.9022, 1638.763
941.3843, 1693.045
941.8664, 1750.246
942.3485, 1813.923
942.8306, 1886.846
943.3127, 1962.082
943.7949, 2037.188
944.2770, 2114.346
944.7591, 2194.166
945.2412, 2277.350
945.7233, 2365.934
946.2054, 2459.522
946.6876, 2560.385
947.1697, 2671.129
947.6518, 2787.893
948.1339, 2907.366
948.6160, 3030.319
949.0981, 3159.385
949.5803, 3294.265
950.0624, 3432.256
950.5445, 3570.835
951.0266, 3713.912
951.5087, 3869.940
951.9908, 4032.807
952.4730, 4193.399
952.9551, 4351.463
953.4372, 4510.304
953.9193, 4671.078
954.4014, 4834.188
954.8835, 5000.337
955.3657, 5167.804
955.8478, 5330.204
956.3299, 5488.322
956.8120, 5652.495
957.2941, 5824.661
957.7762, 5992.946
958.2584, 6150.382
958.7405, 6299.421
959.2226, 6446.783
959.7047, 6593.732
960.1868, 6722.583
960.6689, 6835.917
961.1511, 6922.937
961.6332, 6981.972
962.1153, 7011.993
962.5974, 7012.508
963.0795, 6983.069
963.5616, 6921.714
964.0438, 6827.948
964.5259, 6702.689
965.0080, 6541.891
965.4901, 6354.392
965.9722, 6138.513
966.4543, 5901.792
966.9365, 5647.856
967.4186, 5378.450
967.9007, 5111.351
968.3828, 4845.490
968.8649, 4585.555
969.3470, 4330.964
969.8292, 4086.428
970.3113, 3853.814
970.7934, 3635.253
971.2755, 3434.896
971.7576, 3253.789
972.2397, 3084.396
972.7219, 2924.198
973.2040, 2774.829
973.6861, 2636.489
974.1682, 2509.334
974.6503, 2393.987
975.1324, 2289.609
975.6146, 2194.679
976.0967, 2108.222
976.5788, 2030.011
977.0609, 1962.922
977.5430, 1901.570
978.0251, 1838.743
978.5073, 1775.314
978.9894, 1711.669
979.4715, 1648.394
979.9536, 1588.619
980.4357, 1533.935
980.9178, 1481.250
981.4000, 1427.572
981.8821, 1372.275
982.3642, 1312.893
982.8463, 1250.123
983.3284, 1188.163
983.8105, 1128.369
984.2927, 1068.307
984.7748, 1005.746
985.2569, 943.3228
985.7390, 886.1720
986.2211, 834.3942
986.7032, 789.0641
987.1854, 751.1083
987.6675, 713.9074
988.1496, 674.5217
988.6317, 636.8947
989.1138, 605.0728
989.5959, 577.9888
990.0781, 551.2273
990.5602, 523.9942
991.0423, 499.2577
991.5244, 476.6183
992.0065, 457.5889
992.4886, 444.2000
992.9708, 433.1143
993.4529, 420.7719
993.9350, 407.3497
994.4171, 394.6932
994.8992, 384.0160
995.3813, 372.2673
995.8635, 356.3023
996.3456, 342.7702
996.8277, 337.2591
997.3098, 334.2613
997.7919, 327.0223
998.2740, 315.3209
998.7562, 302.8687
999.2383, 286.8630
999.7204, 275.2271
1000.203, 273.3887
1000.685, 273.2356
1001.167, 269.3349
1001.649, 263.2689
1002.131, 258.3306
1002.613, 254.9617
1003.095, 250.9602
1003.577, 243.7916
1004.059, 237.6637
1004.542, 236.5328
1005.024, 236.2296
1005.506, 232.1969
1005.988, 225.6430
1006.470, 219.8306
1006.952, 215.7264
1007.434, 212.4893
1007.916, 210.0923
1008.398, 207.7728
1008.881, 204.5576
1009.363, 201.1093
1009.845, 198.2193
1010.327, 196.0496
1010.809, 194.9880
1011.291, 195.1052
1011.773, 194.5441
1012.255, 190.8336
1012.738, 185.9648
1013.220, 182.9165
1013.702, 181.2326
1014.184, 179.7718
1014.666, 178.4566
1015.148, 178.2822
1015.630, 179.7325
1016.112, 180.4349
1016.594, 176.5482
1017.077, 170.2014
1017.559, 167.4007
1018.041, 167.4702
1018.523, 166.9737
1019.005, 165.3847
1019.487, 164.2092
1019.969, 164.3421
1020.451, 164.7394
1020.934, 163.8275
1021.416, 161.7791
1021.898, 159.3073
1022.380, 156.4427
1022.862, 154.5698
1023.344, 154.0065
1023.826, 153.4276
1024.308, 151.9302
1024.791, 150.2493
1025.273, 149.9866
1025.755, 148.0483
1026.237, 149.8031
1026.719, 145.7526
1027.201, 143.3027
1027.683, 143.6142
1028.165, 144.7616
1028.647, 145.7676
1029.130, 146.1044
1029.612, 144.2330
1030.094, 139.7377
1030.576, 138.7810
1031.058, 142.6187
1031.540, 145.8204
1032.022, 147.7186
1032.504, 147.3496
1032.986, 142.7390
1033.469, 136.7237
1033.951, 136.2497
1034.433, 142.8609
1034.915, 145.3820
1035.397, 142.0500
1035.879, 138.3264
1036.361, 134.3798
1036.843, 131.7771
1037.326, 132.4608
1037.808, 134.8358
1038.290, 134.9340
1038.772, 131.7852
1039.254, 130.7862
1039.736, 134.2397
1040.218, 136.1895
1040.700, 134.9011
1041.182, 132.3948
1041.665, 129.1755
1042.147, 125.9706
1042.629, 124.4097
1043.111, 124.4792
1043.593, 126.2060
1044.075, 133.0120
1044.557, 136.7410
1045.039, 132.2264
1045.521, 127.5492
1046.004, 129.6795
1046.486, 135.2661
1046.968, 136.5733
1047.450, 132.1733
1047.932, 128.8671
1048.414, 127.7791
1048.896, 127.2948
1049.378, 127.6277
1049.861, 127.8108
1050.343, 126.9339
1050.825, 125.4840
1051.307, 124.2911
1051.789, 123.3615
1052.271, 123.5544
1052.753, 126.5365
1053.235, 128.6400
1053.718, 128.4950
1054.200, 127.2484
1054.682, 125.0849
1055.164, 122.7128
1055.646, 121.3199
1056.128, 121.1165
1056.610, 121.2055
1057.092, 121.8148
1057.574, 122.0532
1058.057, 121.3528
1058.539, 120.4084
1059.021, 119.2572
1059.503, 118.4521
1059.985, 119.5194
1060.467, 122.6519
1060.949, 123.7022
1061.431, 118.6586
1061.913, 114.8815
1062.396, 116.6497
1062.878, 119.3779
1063.360, 119.2213
1063.842, 117.5979
1064.324, 117.4928
1064.806, 119.2754
1065.288, 120.5389
1065.770, 120.2013
1066.253, 119.4335
1066.735, 118.2035
1067.217, 117.2317
1067.699, 117.2886
1068.181, 117.8718
1068.663, 118.0947
1069.145, 117.8791
1069.627, 117.9817
1070.109, 119.7135
1070.592, 120.0667
1071.074, 115.2706
1071.556, 111.0382
1072.038, 112.9136
1072.520, 117.4601
1073.002, 119.3694
1073.484, 118.1940
1073.966, 116.9864
1074.448, 117.2928
1074.931, 116.7572
1075.413, 112.3397
1075.895, 108.6936
1076.377, 110.2371
1076.859, 113.9891
1077.341, 115.9407
1077.823, 115.8550
1078.305, 115.6837
1078.788, 116.3062
1079.270, 116.2233
1079.752, 113.5769
1080.234, 111.2506
1080.716, 111.6500
1081.198, 113.1511
1081.680, 113.6041
1082.162, 113.2083
1082.644, 113.7777
1083.127, 116.2275
1083.609, 117.8121
1084.091, 116.9249
1084.573, 115.2544
1085.055, 113.2776
1085.537, 111.4870
1086.019, 110.2690
1086.501, 109.6590
1086.984, 109.8378
1087.466, 110.9745
1087.948, 111.4803
1088.430, 109.8367
1088.912, 108.4508
1089.394, 109.1506
1089.876, 110.1762
1090.358, 109.8779
1090.840, 108.5992
1091.323, 107.1398
1091.805, 105.6685
1092.287, 104.8315
1092.769, 105.8608
1093.251, 106.2395
1093.733, 103.3691
1094.215, 100.9426
1094.697, 102.6269
1095.179, 106.4054
1095.662, 108.7139
1096.144, 109.1512
1096.626, 109.8000
1097.108, 112.9703
1097.590, 113.8429
1098.072, 107.7592
1098.554, 102.2423
1099.036, 103.4050
1099.519, 107.0975
1100.001, 107.6540
1100.483, 105.0170
1100.965, 102.6408
1101.447, 101.0808
1101.929, 100.3706
1102.411, 101.4253
1102.893, 102.2504
1103.375, 101.7180
1103.858, 100.6303
1104.340, 99.59898
1104.822, 98.77918
1105.304, 98.41642
1105.786, 98.50583
1106.268, 99.18031
1106.750, 101.5782
1107.232, 103.0916
1107.714, 101.9502
1108.197, 100.4497
1108.679, 100.5537
1109.161, 101.6284
1109.643, 102.2128
1110.125, 102.2451
1110.607, 101.4887
1111.089, 98.52217
1111.571, 96.78360
1112.054, 97.78626
1112.536, 99.24180
1113.018, 100.5268
1113.500, 101.1096
1113.982, 99.53398
1114.464, 95.73322
1114.946, 94.35460
1115.428, 98.00416
1115.911, 99.70528
1116.393, 97.58708
1116.875, 95.59254
1117.357, 95.40881
1117.839, 96.00382
1118.321, 96.68994
1118.803, 97.21746
1119.285, 95.91811
1119.767, 90.88417
1120.250, 88.91113
1120.732, 91.30659
1121.214, 94.24294
1121.696, 97.50043
1122.178, 99.43961
1122.660, 98.37587
1123.142, 95.27742
1123.624, 92.44435
1124.106, 89.64928
1124.589, 89.10844
1125.071, 91.60885
1125.553, 93.78214
1126.035, 95.27769
1126.517, 95.30035
1126.999, 92.98201
1127.481, 89.77788
1127.963, 87.92720
1128.446, 87.36500
1128.928, 87.44450
1129.410, 88.24309
1129.892, 88.94531
1130.374, 89.41756
1130.856, 90.31024
1131.338, 92.05425
1131.820, 93.19412
1132.302, 91.93472
1132.785, 92.83147
1133.267, 89.15513
1133.749, 91.14722
1134.231, 90.44450
1134.713, 86.91133
1135.195, 83.02497
1135.677, 79.49879
1136.159, 78.31471
1136.641, 81.11687
1137.124, 85.70403
1137.606, 89.06373
1138.088, 90.95630
1138.570, 89.75804
1139.052, 86.17000
1139.534, 83.25942
1140.016, 81.57159
1140.498, 80.91064
1140.981, 81.16560
1141.463, 81.86903
1141.945, 82.78137
1142.427, 83.51004
1142.909, 82.71434
1143.391, 81.49295
1143.873, 83.24178
1144.355, 86.75034
1144.838, 86.88417
1145.320, 82.76431
1145.802, 79.30040
1146.284, 79.98804
1146.766, 81.86309
1147.248, 81.84691
1147.730, 81.38773
1148.212, 83.00771
1148.694, 85.10063
1149.177, 83.90376
1149.659, 80.15092
1150.141, 78.79869
1150.623, 82.04906
1151.105, 84.70909
1151.587, 82.66454
1152.069, 80.00162
1152.551, 79.03240
1153.033, 79.28365
1153.516, 81.11352
1153.998, 83.40068
1154.480, 83.67263
1154.962, 81.66299
1155.444, 80.94563
1155.926, 84.71109
1156.408, 86.95721
1156.890, 84.08360
1157.373, 81.24039
1157.855, 82.63710
1158.337, 84.73285
1158.819, 82.43357
1159.301, 76.76222
1159.783, 73.82864
1160.265, 75.49532
1160.747, 76.24733
1161.229, 74.45068
1161.712, 73.55800
1162.194, 75.13248
1162.676, 76.87302
1163.158, 77.15586
1163.640, 77.98251
1164.122, 78.35356
1164.604, 78.01970
1165.086, 78.24330
1165.568, 77.36931
1166.051, 76.57823
1166.533, 75.94466
1167.015, 75.47049
1167.497, 75.03371
1167.979, 75.21573
1168.461, 76.92104
1168.943, 79.28171
1169.425, 79.03621
1169.908, 76.05826
1170.390, 75.75663
1170.872, 78.30694
1171.354, 79.79772
1171.836, 79.31062
1172.318, 78.51420
1172.800, 78.46376
1173.282, 78.08839
1173.765, 75.39773
1174.247, 71.59422
1174.729, 70.27140
1175.211, 70.97028
1175.693, 72.66174
1176.175, 74.78164
1176.657, 75.81789
1177.139, 75.22860
1177.621, 72.87074
1178.104, 67.91701
1178.586, 63.64521
1179.068, 64.42889
1179.550, 67.94942
1180.032, 72.76189
1180.514, 77.01926
1180.996, 77.02229
1181.478, 73.53376
1181.960, 70.77158
1182.443, 70.26852
1182.925, 70.55691
1183.407, 71.28394
1183.889, 71.90227
1184.371, 71.88103
1184.853, 71.79784
1185.335, 72.57130
1185.817, 71.84016
1186.300, 72.79095
1186.782, 70.74581
1187.264, 69.21171
1187.746, 68.44849
1188.228, 68.49620
1188.710, 69.82748
1189.192, 71.37180
1189.674, 74.03607
1190.156, 75.47620
1190.639, 72.32478
1191.121, 67.37891
1191.603, 67.21797
1192.085, 72.42838
1192.567, 74.39030
1193.049, 71.55165
1193.531, 70.01245
1194.013, 70.79552
1194.495, 71.89043
1194.978, 72.64410
1195.460, 72.68320
1195.942, 71.39430
1196.424, 71.81015
1196.906, 69.44887
1197.388, 71.10565
1197.870, 71.63344
1198.352, 70.97891
1198.835, 68.61006
1199.317, 64.64472
1199.799, 62.22066
1200.281, 63.00542
1200.763, 65.26618
1201.245, 67.34767
1201.727, 69.15068
1202.209, 70.04591
1202.692, 70.77058
1203.174, 73.90103
1203.656, 78.01717
1204.138, 78.86652
1204.620, 75.91322
1205.102, 71.75627
1205.584, 67.26465
1206.066, 64.31550
1206.548, 65.69411
1207.031, 67.53484
1207.513, 66.33083
1207.995, 64.47972
1208.477, 64.69704
1208.959, 66.35588
1209.441, 67.73878
1209.923, 68.56660
1210.405, 69.38252
1210.887, 71.41927
1211.370, 71.71126
1211.852, 68.10705
1212.334, 64.79222
1212.816, 63.10657
1213.298, 62.79528
1213.780, 64.25130
1214.262, 66.65315
1214.744, 67.91167
1215.227, 67.92254
1215.709, 67.87937
1216.191, 67.72919
1216.673, 67.89291
1217.155, 68.65130
1217.637, 68.39580
1218.119, 66.26820
1218.601, 63.87307
1219.083, 62.83327
1219.566, 62.76574
1220.048, 62.96194
1220.530, 63.31226
1221.012, 63.15340
1221.494, 62.64675
1221.976, 62.45651
1222.458, 62.78697
1222.940, 64.34844
1223.422, 67.36816
1223.905, 69.31107
1224.387, 67.36326
1224.869, 64.20691
1225.351, 61.92667
1225.833, 60.76437
1226.315, 61.91277
1226.797, 63.89660
1227.279, 63.73717
1227.762, 61.90551
1228.244, 62.29570
1228.726, 66.80041
1229.208, 69.37032
1229.690, 65.79278
1230.172, 62.96514
1230.654, 64.32796
1231.136, 66.09790
1231.619, 66.45605
1232.101, 65.26412
1232.583, 61.53040
1233.065, 56.02244
1233.547, 53.75712
1234.029, 55.39916
1234.511, 58.31733
1234.993, 63.20041
1235.475, 66.90134
1235.958, 68.80632
1236.440, 68.65978
1236.922, 65.98138
1237.404, 63.02676
1237.886, 63.04610
1238.368, 64.86565
1238.850, 64.78343
1239.332, 63.27305
1239.814, 62.15868
1240.297, 61.49860
1240.779, 60.87859
1241.261, 60.22868
1241.743, 59.74393
1242.225, 59.52097
1242.707, 59.58510
1243.189, 60.00891
1243.671, 60.67094
1244.154, 61.51028
1244.636, 62.49221
1245.118, 64.61494
1245.600, 66.30847
1246.082, 63.77864
1246.564, 57.81083
1247.046, 55.30479
1247.528, 59.35778
1248.010, 62.33997
1248.493, 62.50645
1248.975, 62.13543
1249.457, 61.55529
1249.939, 60.88847
1250.421, 60.11300
1250.903, 59.38704
1251.385, 58.89390
1251.867, 58.64550
1252.349, 58.78978
1252.832, 59.38671
1253.314, 59.82837
1253.796, 60.12747
1254.278, 58.07694
1254.760, 53.30439
1255.242, 51.49958
1255.724, 55.83219
1256.206, 60.99577
1256.689, 60.95258
1257.171, 58.20143
1257.653, 55.53418
1258.135, 53.91189
1258.617, 55.99295
1259.099, 60.03268
1259.581, 62.81651
1260.063, 63.68752
1260.546, 62.55142
1261.028, 59.09199
1261.510, 56.82612
1261.992, 58.02949
1262.474, 59.74840
1262.956, 60.20365
1263.438, 61.50686
1263.920, 67.66601
1264.402, 73.32918
1264.885, 70.54164
1265.367, 62.17009
1265.849, 58.78880
1266.331, 61.52806
1266.813, 61.53071
1267.295, 57.71511
1267.777, 56.72806
1268.259, 59.96150
1268.741, 62.90930
1269.224, 63.65074
1269.706, 63.35445
1270.188, 63.08883
1270.670, 62.55476
1271.152, 60.61254
1271.634, 58.28453
1272.116, 58.26860
1272.598, 59.71534
1273.081, 60.75180
1273.563, 61.13018
1274.045, 61.05472
1274.527, 60.62291
1275.009, 60.09193
1275.491, 59.59716
1275.973, 59.01150
1276.455, 57.96039
1276.938, 57.18131
1277.420, 57.00558
1277.902, 57.34941
1278.384, 58.38341
1278.866, 59.75704
1279.348, 60.69244
1279.830, 61.22634
1280.312, 62.50811
1280.794, 65.22777
1281.276, 65.59409
1281.759, 62.79079
1282.241, 61.74595
1282.723, 63.93889
1283.205, 65.74416
1283.687, 64.92759
1284.169, 63.19171
1284.651, 62.64581
1285.133, 62.77731
1285.616, 62.70283
1286.098, 62.41658
##END=



