##NAMES=Curienite
##RRUFFID=R050548
##IDEAL CHEMISTRY=Pb^2+^(U^6+^O_2_)_2_(V^5+^O_4_)_2_&#183;5H_2_O
##LOCALITY=Mounana mine, Franceville, Haut-Ogooué, Gabon
##OWNER=RRUFF
##SOURCE=University of Arizona Mineral Museum
##DESCRIPTION=Groups of heavily striated orange bladed crystals
##STATUS=The identification of this mineral has been confirmed by X-ray diffraction and chemical analysis
##URL=rruff.info/R050548
##MEASURED CHEMISTRY=(Pb_0.83_Ba_0.17_)_Σ=1_(U_1.00_O_2_)_2_(V_1.00_O_4_)_2_·5.1H_2_O
90.92609, 0.0000000E+00
91.40820, 437.1087
91.89032, 436.1102
92.37244, 435.6721
92.85455, 435.9811
93.33667, 438.1436
93.81879, 444.6527
94.30090, 453.8887
94.78302, 460.9835
95.26514, 464.1020
95.74725, 465.0322
96.22937, 468.5012
96.71149, 474.8120
97.19360, 479.8839
97.67572, 477.7781
98.15784, 468.6946
98.63995, 463.2844
99.12207, 466.0020
99.60419, 475.6366
100.0863, 480.7904
100.5684, 479.7176
101.0505, 477.6749
101.5327, 482.3516
102.0148, 495.9990
102.4969, 508.6598
102.9790, 516.4341
103.4611, 517.7949
103.9432, 522.1637
104.4253, 529.2534
104.9075, 539.5107
105.3896, 553.8120
105.8717, 574.0060
106.3538, 595.9232
106.8359, 617.8343
107.3180, 634.3931
107.8002, 659.8368
108.2823, 694.4421
108.7644, 737.8602
109.2465, 790.4827
109.7286, 855.6097
110.2107, 926.8983
110.6929, 1002.832
111.1750, 1074.045
111.6571, 1159.303
112.1392, 1261.767
112.6213, 1380.539
113.1034, 1510.566
113.5856, 1650.972
114.0677, 1804.300
114.5498, 1970.962
115.0319, 2142.220
115.5140, 2336.564
115.9961, 2555.149
116.4783, 2798.265
116.9604, 3072.755
117.4425, 3379.433
117.9246, 3723.169
118.4067, 4105.923
118.8888, 4539.829
119.3710, 5007.933
119.8531, 5510.886
120.3352, 6049.813
120.8173, 6590.302
121.2994, 7107.889
121.7815, 7608.147
122.2637, 8102.879
122.7458, 8608.684
123.2279, 9101.207
123.7100, 9552.208
124.1921, 9955.299
124.6742, 10331.16
125.1564, 10684.35
125.6385, 11022.18
126.1206, 11369.35
126.6027, 11720.33
127.0848, 12090.81
127.5669, 12505.03
128.0491, 12966.34
128.5312, 13473.05
129.0133, 14028.85
129.4954, 14627.97
129.9775, 15263.74
130.4596, 15945.23
130.9418, 16658.64
131.4239, 17377.48
131.9060, 18100.11
132.3881, 18824.67
132.8702, 19539.69
133.3523, 20249.65
133.8345, 20936.46
134.3166, 21584.89
134.7987, 22200.15
135.2808, 22781.17
135.7629, 23333.90
136.2450, 23861.59
136.7272, 24365.50
137.2093, 24848.81
137.6914, 25307.91
138.1735, 25736.39
138.6556, 26127.70
139.1377, 26508.70
139.6199, 26889.63
140.1020, 27267.21
140.5841, 27634.40
141.0662, 27978.68
141.5483, 28323.48
142.0304, 28698.93
142.5126, 29108.78
142.9947, 29520.59
143.4768, 29824.14
143.9589, 29942.25
144.4410, 30104.94
144.9231, 30324.11
145.4053, 30579.05
145.8874, 30845.62
146.3695, 31132.60
146.8516, 31418.09
147.3337, 31688.32
147.8158, 31938.09
148.2980, 32200.00
148.7801, 32483.35
149.2622, 32778.75
149.7443, 33059.73
150.2264, 33332.82
150.7085, 33591.58
151.1907, 33829.35
151.6728, 34036.46
152.1549, 34247.26
152.6370, 34473.07
153.1191, 34704.20
153.6012, 34910.99
154.0834, 35093.34
154.5655, 35248.18
155.0476, 35375.43
155.5297, 35456.48
156.0118, 35530.45
156.4939, 35594.45
156.9761, 35653.43
157.4582, 35722.81
157.9403, 35809.77
158.4224, 35905.40
158.9045, 36005.41
159.3866, 36117.42
159.8688, 36222.98
160.3509, 36314.90
160.8330, 36395.34
161.3151, 36473.00
161.7972, 36546.18
162.2793, 36620.90
162.7615, 36701.93
163.2436, 36803.44
163.7257, 36899.51
164.2078, 36978.99
164.6899, 37043.15
165.1720, 37101.38
165.6541, 37169.88
166.1363, 37229.77
166.6184, 37262.30
167.1005, 37250.94
167.5826, 37218.02
168.0647, 37171.15
168.5468, 37111.16
169.0290, 37049.81
169.5111, 36996.45
169.9932, 36945.54
170.4753, 36889.66
170.9574, 36825.95
171.4395, 36757.14
171.9217, 36686.32
172.4038, 36613.71
172.8859, 36534.43
173.3680, 36434.54
173.8501, 36326.96
174.3322, 36232.29
174.8144, 36159.33
175.2965, 36103.38
175.7786, 36062.93
176.2607, 36037.55
176.7428, 36019.57
177.2249, 35996.49
177.7071, 35974.54
178.1892, 35968.87
178.6713, 35995.47
179.1534, 36039.59
179.6355, 36075.98
180.1176, 36102.91
180.5998, 36130.66
181.0819, 36170.09
181.5640, 36219.17
182.0461, 36273.17
182.5282, 36334.63
183.0103, 36398.24
183.4925, 36452.51
183.9746, 36496.86
184.4567, 36531.07
184.9388, 36556.85
185.4209, 36573.76
185.9030, 36576.24
186.3852, 36563.16
186.8673, 36534.49
187.3494, 36487.57
187.8315, 36421.73
188.3136, 36341.82
188.7957, 36250.87
189.2779, 36150.08
189.7600, 36040.26
190.2421, 35921.02
190.7242, 35793.90
191.2063, 35663.21
191.6884, 35529.23
192.1706, 35392.28
192.6527, 35247.41
193.1348, 35094.68
193.6169, 34938.93
194.0990, 34772.34
194.5811, 34597.31
195.0633, 34448.55
195.5454, 34331.80
196.0275, 34232.23
196.5096, 34125.41
196.9917, 34009.34
197.4738, 33902.80
197.9560, 33820.82
198.4381, 33764.12
198.9202, 33695.11
199.4023, 33604.88
199.8844, 33514.32
200.3665, 33469.20
200.8487, 33474.89
201.3308, 33494.91
201.8129, 33510.85
202.2950, 33521.87
202.7771, 33542.79
203.2592, 33574.16
203.7414, 33615.90
204.2235, 33669.97
204.7056, 33737.55
205.1877, 33808.96
205.6698, 33876.51
206.1519, 33936.99
206.6341, 34012.22
207.1162, 34104.79
207.5983, 34208.85
208.0804, 34310.92
208.5625, 34407.94
209.0446, 34508.54
209.5268, 34618.65
210.0089, 34741.52
210.4910, 34857.63
210.9731, 34961.68
211.4552, 35063.10
211.9373, 35183.26
212.4195, 35325.85
212.9016, 35477.49
213.3837, 35631.04
213.8658, 35784.76
214.3479, 35949.70
214.8300, 36127.72
215.3121, 36317.14
215.7943, 36514.22
216.2764, 36716.35
216.7585, 36927.10
217.2406, 37151.71
217.7227, 37392.29
218.2048, 37630.65
218.6870, 37867.13
219.1691, 38099.54
219.6512, 38326.39
220.1333, 38539.95
220.6154, 38762.99
221.0975, 39011.44
221.5797, 39290.75
222.0618, 39573.23
222.5439, 39862.82
223.0260, 40153.98
223.5081, 40442.81
223.9902, 40730.26
224.4724, 41013.07
224.9545, 41284.92
225.4366, 41551.53
225.9187, 41804.54
226.4008, 42043.07
226.8829, 42271.44
227.3651, 42501.85
227.8472, 42748.32
228.3293, 42977.70
228.8114, 43177.66
229.2935, 43344.68
229.7757, 43490.18
230.2578, 43612.64
230.7399, 43711.81
231.2220, 43789.88
231.7041, 43850.32
232.1862, 43880.75
232.6684, 43871.20
233.1505, 43806.14
233.6326, 43751.68
234.1147, 43723.99
234.5968, 43697.79
235.0789, 43624.70
235.5611, 43478.90
236.0432, 43329.44
236.5253, 43200.85
237.0074, 43108.41
237.4895, 42988.07
237.9716, 42827.07
238.4538, 42646.48
238.9359, 42482.47
239.4180, 42349.62
239.9001, 42207.10
240.3822, 42040.68
240.8643, 41847.91
241.3465, 41651.63
241.8286, 41459.43
242.3107, 41258.18
242.7928, 41030.35
243.2749, 40778.24
243.7570, 40494.69
244.2392, 40174.31
244.7213, 39811.20
245.2034, 39438.84
245.6855, 39057.88
246.1676, 38664.74
246.6497, 38252.56
247.1319, 37808.84
247.6140, 37369.65
248.0961, 36941.09
248.5782, 36520.64
249.0603, 36122.27
249.5424, 35736.67
250.0246, 35379.18
250.5067, 35063.55
250.9888, 34801.83
251.4709, 34558.42
251.9530, 34326.03
252.4351, 34102.39
252.9173, 33896.21
253.3994, 33706.32
253.8815, 33529.52
254.3636, 33365.09
254.8457, 33224.97
255.3278, 33072.23
255.8100, 32898.19
256.2921, 32702.19
256.7742, 32503.24
257.2563, 32306.38
257.7384, 32100.08
258.2205, 31878.47
258.7026, 31640.64
259.1848, 31386.00
259.6669, 31112.48
260.1490, 30820.91
260.6311, 30537.27
261.1132, 30265.70
261.5953, 29997.30
262.0775, 29726.99
262.5596, 29445.29
263.0417, 29183.86
263.5238, 28946.70
264.0059, 28732.07
264.4880, 28519.67
264.9702, 28306.27
265.4523, 28103.01
265.9344, 27919.82
266.4165, 27760.40
266.8986, 27599.88
267.3807, 27430.58
267.8629, 27259.54
268.3450, 27109.54
268.8271, 26983.96
269.3092, 26867.90
269.7913, 26747.90
270.2734, 26620.11
270.7556, 26515.25
271.2377, 26439.52
271.7198, 26383.68
272.2019, 26322.60
272.6840, 26251.61
273.1661, 26193.30
273.6483, 26158.99
274.1304, 26150.09
274.6125, 26155.15
275.0946, 26176.74
275.5767, 26207.88
276.0588, 26234.62
276.5410, 26253.76
277.0231, 26280.79
277.5052, 26321.35
277.9873, 26375.08
278.4694, 26436.32
278.9515, 26505.85
279.4337, 26579.19
279.9158, 26652.93
280.3979, 26727.41
280.8800, 26793.59
281.3621, 26844.65
281.8442, 26882.64
282.3264, 26923.41
282.8085, 26967.81
283.2906, 27014.10
283.7727, 27062.99
284.2548, 27114.96
284.7369, 27159.13
285.2191, 27188.18
285.7012, 27207.77
286.1833, 27240.29
286.6654, 27285.96
287.1475, 27343.85
287.6296, 27417.33
288.1118, 27504.84
288.5939, 27587.83
289.0760, 27660.46
289.5581, 27726.44
290.0402, 27792.48
290.5223, 27858.34
291.0045, 27936.21
291.4866, 28042.18
291.9687, 28170.95
292.4508, 28296.61
292.9329, 28413.18
293.4150, 28527.87
293.8972, 28658.56
294.3793, 28804.66
294.8614, 28957.20
295.3435, 29107.52
295.8256, 29259.01
296.3077, 29420.12
296.7899, 29591.40
297.2720, 29770.66
297.7541, 29953.29
298.2362, 30138.49
298.7183, 30326.74
299.2004, 30529.80
299.6826, 30732.44
300.1647, 30909.92
300.6468, 31057.87
301.1289, 31187.17
301.6110, 31316.59
302.0931, 31437.16
302.5753, 31529.55
303.0574, 31582.87
303.5395, 31602.59
304.0216, 31596.33
304.5037, 31564.44
304.9858, 31500.39
305.4680, 31403.45
305.9501, 31270.53
306.4322, 31096.57
306.9143, 30860.88
307.3964, 30596.95
307.8785, 30330.20
308.3607, 30061.07
308.8428, 29781.18
309.3249, 29478.95
309.8070, 29165.06
310.2891, 28853.03
310.7712, 28543.13
311.2534, 28234.71
311.7355, 27919.68
312.2176, 27600.65
312.6997, 27298.51
313.1818, 27031.27
313.6639, 26784.87
314.1461, 26545.87
314.6282, 26311.26
315.1103, 26088.59
315.5924, 25880.33
316.0745, 25687.56
316.5566, 25509.18
317.0388, 25345.93
317.5209, 25198.81
318.0030, 25069.53
318.4851, 24961.79
318.9672, 24858.36
319.4493, 24746.92
319.9315, 24638.71
320.4136, 24547.15
320.8957, 24473.63
321.3778, 24420.91
321.8599, 24396.77
322.3420, 24404.24
322.8242, 24404.97
323.3063, 24383.46
323.7884, 24355.23
324.2705, 24333.84
324.7526, 24323.46
325.2347, 24317.75
325.7169, 24311.63
326.1990, 24306.17
326.6811, 24317.46
327.1632, 24358.38
327.6453, 24408.28
328.1274, 24455.68
328.6096, 24487.30
329.0917, 24532.96
329.5738, 24596.49
330.0559, 24674.40
330.5380, 24756.75
331.0201, 24839.87
331.5023, 24931.50
331.9844, 25036.63
332.4665, 25161.54
332.9486, 25282.04
333.4307, 25394.48
333.9128, 25503.75
334.3950, 25614.95
334.8771, 25726.65
335.3592, 25844.45
335.8413, 25967.78
336.3234, 26096.48
336.8055, 26239.68
337.2877, 26404.40
337.7698, 26571.62
338.2519, 26720.10
338.7340, 26842.52
339.2161, 26971.24
339.6982, 27118.39
340.1803, 27278.33
340.6624, 27404.00
341.1446, 27490.47
341.6267, 27563.86
342.1088, 27649.53
342.5909, 27747.73
343.0730, 27829.14
343.5551, 27886.73
344.0373, 27927.85
344.5194, 27966.62
345.0015, 28003.33
345.4836, 28036.70
345.9657, 28060.63
346.4478, 28078.66
346.9300, 28112.20
347.4121, 28165.13
347.8942, 28225.49
348.3763, 28274.93
348.8584, 28316.53
349.3405, 28368.34
349.8227, 28440.35
350.3048, 28518.26
350.7869, 28620.87
351.2690, 28717.46
351.7511, 28830.00
352.2332, 28963.45
352.7154, 29120.34
353.1975, 29306.10
353.6796, 29524.43
354.1617, 29769.98
354.6438, 30036.77
355.1259, 30324.85
355.6081, 30634.73
356.0902, 30978.13
356.5723, 31341.04
357.0544, 31707.99
357.5365, 32065.09
358.0186, 32439.94
358.5008, 32859.43
358.9829, 33309.55
359.4650, 33760.67
359.9471, 34190.55
360.4292, 34623.26
360.9113, 35077.09
361.3935, 35551.65
361.8756, 36034.03
362.3577, 36516.38
362.8398, 37004.86
363.3219, 37506.47
363.8040, 38050.29
364.2862, 38582.42
364.7683, 39087.31
365.2504, 39567.29
365.7325, 40026.88
366.2146, 40489.17
366.6967, 40922.05
367.1789, 41305.63
367.6610, 41657.00
368.1431, 41936.66
368.6252, 42151.58
369.1073, 42295.21
369.5894, 42349.85
370.0716, 42316.76
370.5537, 42193.84
371.0358, 41978.11
371.5179, 41663.63
372.0000, 41271.61
372.4821, 40807.04
372.9643, 40265.21
373.4464, 39633.41
373.9285, 38890.37
374.4106, 38110.03
374.8927, 37295.44
375.3748, 36444.35
375.8570, 35605.41
376.3391, 34768.82
376.8212, 33949.17
377.3033, 33143.06
377.7854, 32352.34
378.2675, 31594.19
378.7497, 30863.79
379.2318, 30167.61
379.7139, 29498.35
380.1960, 28861.02
380.6781, 28260.57
381.1602, 27708.02
381.6424, 27201.60
382.1245, 26731.99
382.6066, 26295.65
383.0887, 25893.25
383.5708, 25516.36
384.0529, 25169.38
384.5351, 24855.54
385.0172, 24583.51
385.4993, 24347.01
385.9814, 24127.72
386.4635, 23927.41
386.9456, 23744.68
387.4278, 23578.18
387.9099, 23431.20
388.3920, 23307.83
388.8741, 23212.80
389.3562, 23136.81
389.8383, 23069.15
390.3205, 23012.04
390.8026, 22974.02
391.2847, 22975.51
391.7668, 22987.25
392.2489, 22983.48
392.7310, 22956.62
393.2132, 22938.68
393.6953, 22943.53
394.1774, 22966.68
394.6595, 23003.13
395.1416, 23051.82
395.6237, 23113.14
396.1059, 23193.54
396.5880, 23291.54
397.0701, 23383.99
397.5522, 23449.34
398.0343, 23518.33
398.5164, 23609.21
398.9986, 23747.89
399.4807, 23877.19
399.9628, 23991.26
400.4449, 24095.45
400.9270, 24202.40
401.4091, 24313.00
401.8913, 24424.13
402.3734, 24537.89
402.8555, 24658.32
403.3376, 24757.99
403.8197, 24832.55
404.3018, 24891.18
404.7840, 24946.13
405.2661, 25003.25
405.7482, 25035.21
406.2303, 25035.01
406.7124, 25005.97
407.1945, 24963.35
407.6767, 24907.98
408.1588, 24833.26
408.6409, 24735.53
409.1230, 24614.72
409.6051, 24466.32
410.0872, 24286.25
410.5694, 24086.17
411.0515, 23886.73
411.5336, 23685.66
412.0157, 23472.71
412.4978, 23237.52
412.9799, 22989.23
413.4621, 22746.09
413.9442, 22506.14
414.4263, 22263.13
414.9084, 21998.84
415.3905, 21729.38
415.8727, 21476.71
416.3548, 21250.18
416.8369, 21035.20
417.3190, 20818.58
417.8011, 20603.82
418.2832, 20396.27
418.7654, 20199.17
419.2475, 20011.55
419.7296, 19835.63
420.2117, 19670.05
420.6938, 19513.48
421.1759, 19364.08
421.6581, 19223.92
422.1402, 19093.42
422.6223, 18986.72
423.1044, 18876.18
423.5865, 18748.46
424.0686, 18607.99
424.5508, 18484.82
425.0329, 18395.19
425.5150, 18313.82
425.9971, 18229.15
426.4792, 18135.36
426.9613, 18051.46
427.4435, 17981.52
427.9256, 17920.14
428.4077, 17859.26
428.8898, 17798.10
429.3719, 17737.46
429.8540, 17675.21
430.3362, 17612.34
430.8183, 17561.86
431.3004, 17528.09
431.7825, 17495.21
432.2646, 17445.85
432.7467, 17380.10
433.2289, 17327.32
433.7110, 17294.04
434.1931, 17272.43
434.6752, 17250.51
435.1573, 17228.20
435.6394, 17205.29
436.1216, 17182.48
436.6036, 17158.62
437.0858, 17128.17
437.5679, 17090.49
438.0500, 17059.31
438.5321, 17054.77
439.0142, 17063.47
439.4963, 17061.72
439.9785, 17034.89
440.4606, 17006.17
440.9427, 16996.15
441.4248, 17000.16
441.9069, 17004.39
442.3890, 16999.51
442.8712, 16994.94
443.3533, 16997.51
443.8354, 17009.35
444.3175, 17021.90
444.7996, 17030.25
445.2817, 17038.51
445.7639, 17051.01
446.2460, 17060.57
446.7281, 17082.78
447.2102, 17127.74
447.6923, 17191.27
448.1744, 17242.89
448.6566, 17269.71
449.1387, 17297.65
449.6208, 17339.02
450.1029, 17400.31
450.5850, 17455.16
451.0671, 17499.76
451.5493, 17541.08
452.0314, 17589.22
452.5135, 17645.06
452.9956, 17702.58
453.4777, 17759.48
453.9598, 17816.54
454.4420, 17878.91
454.9241, 17946.42
455.4062, 18016.88
455.8883, 18085.98
456.3704, 18155.63
456.8525, 18236.20
457.3347, 18329.92
457.8168, 18424.83
458.2989, 18500.93
458.7810, 18564.38
459.2631, 18630.70
459.7452, 18708.82
460.2274, 18793.35
460.7095, 18877.77
461.1916, 18963.29
461.6737, 19050.42
462.1558, 19142.55
462.6379, 19235.92
463.1201, 19326.58
463.6022, 19412.81
464.0843, 19500.54
464.5664, 19602.10
465.0485, 19704.68
465.5306, 19787.98
466.0128, 19838.43
466.4949, 19877.53
466.9770, 19910.41
467.4591, 19937.26
467.9412, 19955.93
468.4233, 19968.75
468.9055, 19971.88
469.3876, 19963.65
469.8697, 19945.32
470.3518, 19913.05
470.8339, 19863.22
471.3160, 19802.15
471.7982, 19742.78
472.2803, 19688.46
472.7624, 19621.50
473.2445, 19529.82
473.7266, 19419.78
474.2087, 19333.89
474.6909, 19274.22
475.1730, 19221.56
475.6551, 19162.14
476.1372, 19096.67
476.6193, 19026.47
477.1014, 18949.71
477.5836, 18876.08
478.0657, 18819.01
478.5478, 18775.10
479.0299, 18735.70
479.5120, 18700.85
479.9941, 18665.32
480.4763, 18620.87
480.9584, 18568.94
481.4405, 18524.67
481.9226, 18505.04
482.4047, 18491.73
482.8868, 18469.13
483.3690, 18428.93
483.8511, 18391.03
484.3332, 18362.81
484.8153, 18340.28
485.2974, 18316.27
485.7795, 18292.64
486.2617, 18264.74
486.7438, 18228.66
487.2259, 18184.55
487.7080, 18149.08
488.1901, 18127.11
488.6722, 18107.20
489.1544, 18081.11
489.6365, 18045.68
490.1186, 18018.20
490.6007, 18001.32
491.0828, 17989.46
491.5649, 17972.38
492.0471, 17949.75
492.5292, 17930.53
493.0113, 17915.55
493.4934, 17907.02
493.9755, 17915.83
494.4576, 17940.89
494.9398, 17963.98
495.4219, 17963.11
495.9040, 17952.69
496.3861, 17959.65
496.8682, 17988.60
497.3503, 18026.77
497.8325, 18065.86
498.3146, 18106.94
498.7967, 18152.50
499.2788, 18197.02
499.7609, 18252.32
500.2430, 18328.60
500.7252, 18422.13
501.2073, 18517.82
501.6894, 18606.42
502.1715, 18699.36
502.6536, 18803.22
503.1357, 18919.74
503.6179, 19042.94
504.1000, 19170.07
504.5821, 19305.21
505.0642, 19452.48
505.5463, 19612.65
506.0284, 19782.56
506.5106, 19964.04
506.9927, 20152.58
507.4748, 20330.57
507.9569, 20493.68
508.4390, 20665.66
508.9211, 20861.27
509.4033, 21077.64
509.8854, 21293.24
510.3675, 21508.05
510.8496, 21721.16
511.3317, 21927.58
511.8138, 22132.35
512.2960, 22346.55
512.7781, 22582.45
513.2602, 22816.84
513.7423, 23022.54
514.2244, 23208.32
514.7065, 23395.46
515.1887, 23610.43
515.6708, 23818.38
516.1529, 23986.72
516.6350, 24116.80
517.1171, 24254.57
517.5992, 24431.49
518.0814, 24609.78
518.5635, 24764.14
519.0456, 24881.34
519.5277, 24991.79
520.0098, 25101.03
520.4919, 25202.25
520.9741, 25284.79
521.4562, 25344.90
521.9383, 25392.12
522.4204, 25429.34
522.9025, 25455.28
523.3846, 25463.80
523.8668, 25455.74
524.3489, 25425.06
524.8310, 25362.68
525.3131, 25270.92
525.7952, 25177.36
526.2773, 25085.09
526.7595, 24977.00
527.2416, 24834.98
527.7237, 24663.46
528.2058, 24469.81
528.6879, 24255.69
529.1700, 24025.51
529.6522, 23778.87
530.1343, 23520.95
530.6164, 23258.32
531.0985, 23000.59
531.5806, 22737.35
532.0627, 22460.14
532.5449, 22168.30
533.0270, 21885.34
533.5091, 21630.66
533.9912, 21380.94
534.4733, 21123.28
534.9554, 20839.54
535.4376, 20565.05
535.9197, 20300.88
536.4018, 20046.55
536.8839, 19810.41
537.3660, 19594.78
537.8481, 19385.61
538.3303, 19178.48
538.8124, 18973.39
539.2945, 18761.59
539.7766, 18540.91
540.2587, 18332.51
540.7408, 18155.15
541.2230, 18001.85
541.7051, 17854.72
542.1872, 17713.29
542.6693, 17573.67
543.1514, 17426.24
543.6335, 17278.23
544.1157, 17139.03
544.5978, 17014.82
545.0799, 16896.29
545.5620, 16774.20
546.0441, 16653.71
546.5262, 16547.55
547.0084, 16465.38
547.4905, 16394.37
547.9726, 16329.04
548.4547, 16269.52
548.9368, 16212.36
549.4189, 16155.76
549.9011, 16102.13
550.3832, 16052.96
550.8653, 16009.32
551.3474, 15966.72
551.8295, 15924.86
552.3116, 15884.55
552.7938, 15846.38
553.2759, 15809.83
553.7580, 15780.37
554.2401, 15762.15
554.7222, 15749.68
555.2043, 15726.55
555.6865, 15694.28
556.1686, 15666.74
556.6507, 15655.67
557.1328, 15653.74
557.6149, 15648.30
558.0970, 15638.77
558.5792, 15634.79
559.0613, 15645.87
559.5434, 15664.93
560.0255, 15684.84
560.5076, 15702.52
560.9897, 15723.34
561.4719, 15746.67
561.9540, 15774.82
562.4361, 15811.17
562.9182, 15867.40
563.4003, 15918.99
563.8824, 15957.06
564.3646, 15984.68
564.8467, 16028.43
565.3288, 16095.03
565.8109, 16163.43
566.2930, 16221.49
566.7751, 16268.10
567.2573, 16324.43
567.7394, 16391.72
568.2215, 16464.36
568.7036, 16540.28
569.1857, 16617.51
569.6678, 16690.78
570.1500, 16756.35
570.6321, 16822.51
571.1142, 16897.90
571.5963, 16980.51
572.0784, 17065.30
572.5605, 17158.51
573.0427, 17246.93
573.5248, 17320.46
574.0069, 17380.99
574.4890, 17445.54
574.9711, 17526.10
575.4532, 17605.36
575.9354, 17673.41
576.4175, 17726.64
576.8996, 17780.20
577.3817, 17838.46
577.8638, 17892.17
578.3459, 17933.34
578.8281, 17959.60
579.3102, 17979.50
579.7923, 17992.86
580.2744, 18001.46
580.7565, 18012.21
581.2386, 18024.09
581.7208, 18020.39
582.2029, 17986.65
582.6850, 17938.82
583.1671, 17907.88
583.6492, 17890.54
584.1313, 17867.06
584.6134, 17822.89
585.0955, 17767.97
585.5776, 17709.44
586.0598, 17647.39
586.5419, 17588.75
587.0240, 17544.93
587.5061, 17500.53
587.9882, 17442.44
588.4703, 17349.51
588.9525, 17269.65
589.4346, 17211.54
589.9167, 17164.27
590.3988, 17110.14
590.8809, 17047.14
591.3630, 16982.14
591.8452, 16912.80
592.3273, 16843.57
592.8094, 16792.59
593.2915, 16760.21
593.7736, 16738.13
594.2557, 16729.84
594.7379, 16727.40
595.2200, 16703.51
595.7021, 16657.99
596.1842, 16618.63
596.6663, 16611.32
597.1484, 16621.56
597.6306, 16632.27
598.1127, 16639.58
598.5948, 16648.32
599.0769, 16661.07
599.5590, 16676.63
600.0411, 16693.47
600.5233, 16716.73
601.0054, 16734.76
601.4875, 16741.09
601.9696, 16741.12
602.4517, 16751.80
602.9338, 16778.00
603.4160, 16804.83
603.8981, 16828.19
604.3802, 16848.09
604.8623, 16863.04
605.3444, 16872.73
605.8265, 16880.61
606.3087, 16887.10
606.7908, 16893.75
607.2729, 16907.61
607.7550, 16930.36
608.2371, 16949.65
608.7192, 16954.46
609.2014, 16948.97
609.6835, 16939.17
610.1656, 16928.19
610.6477, 16910.96
611.1298, 16881.56
611.6119, 16845.00
612.0941, 16809.60
612.5762, 16779.36
613.0583, 16748.15
613.5404, 16713.96
614.0225, 16677.82
614.5046, 16641.58
614.9868, 16604.65
615.4689, 16569.58
615.9510, 16537.48
616.4331, 16508.35
616.9152, 16479.92
617.3973, 16452.37
617.8795, 16424.44
618.3616, 16397.49
618.8437, 16369.67
619.3258, 16334.01
619.8079, 16286.89
620.2900, 16245.33
620.7722, 16226.25
621.2543, 16221.24
621.7364, 16218.58
622.2185, 16211.47
622.7006, 16210.00
623.1827, 16221.49
623.6649, 16240.91
624.1470, 16256.12
624.6291, 16254.05
625.1112, 16262.25
625.5933, 16288.80
626.0754, 16331.26
626.5576, 16371.90
627.0397, 16409.51
627.5218, 16448.51
628.0039, 16491.66
628.4860, 16538.47
628.9681, 16583.95
629.4503, 16627.86
629.9324, 16676.22
630.4145, 16735.86
630.8966, 16803.93
631.3787, 16875.28
631.8608, 16947.81
632.3430, 17026.58
632.8251, 17119.45
633.3072, 17218.78
633.7893, 17316.42
634.2714, 17402.92
634.7535, 17496.17
635.2357, 17604.61
635.7178, 17722.39
636.1999, 17835.66
636.6820, 17936.74
637.1641, 18045.75
637.6462, 18169.23
638.1284, 18304.29
638.6105, 18429.43
639.0926, 18543.99
639.5747, 18658.23
640.0568, 18777.53
640.5389, 18900.70
641.0211, 19022.12
641.5032, 19141.20
641.9853, 19257.50
642.4674, 19368.21
642.9495, 19475.72
643.4316, 19586.04
643.9138, 19704.02
644.3959, 19805.43
644.8780, 19878.26
645.3601, 19928.87
645.8422, 19961.88
646.3243, 19964.99
646.8065, 19968.34
647.2886, 19975.79
647.7707, 19982.57
648.2528, 19982.55
648.7349, 19978.52
649.2170, 19955.11
649.6992, 19906.32
650.1813, 19837.20
650.6634, 19752.27
651.1455, 19653.77
651.6276, 19561.68
652.1097, 19491.44
652.5919, 19430.53
653.0740, 19364.24
653.5561, 19292.05
654.0382, 19210.31
654.5203, 19107.81
655.0024, 19002.86
655.4846, 18907.11
655.9667, 18824.35
656.4488, 18740.27
656.9309, 18645.97
657.4130, 18556.14
657.8951, 18481.16
658.3773, 18427.49
658.8594, 18370.72
659.3415, 18309.47
659.8236, 18245.92
660.3057, 18180.13
660.7878, 18113.48
661.2700, 18055.47
661.7521, 18009.74
662.2342, 17970.89
662.7163, 17933.64
663.1984, 17897.45
663.6805, 17860.21
664.1627, 17813.31
664.6448, 17773.05
665.1269, 17753.82
665.6090, 17750.50
666.0911, 17743.54
666.5732, 17719.30
667.0554, 17700.03
667.5375, 17694.40
668.0196, 17702.21
668.5017, 17707.49
668.9838, 17709.33
669.4659, 17710.38
669.9481, 17711.02
670.4302, 17711.32
670.9123, 17715.73
671.3944, 17724.36
671.8765, 17734.18
672.3586, 17738.93
672.8408, 17743.61
673.3229, 17759.82
673.8050, 17792.57
674.2871, 17821.81
674.7692, 17826.68
675.2513, 17824.18
675.7335, 17833.20
676.2156, 17871.33
676.6977, 17904.96
677.1798, 17927.66
677.6619, 17944.92
678.1440, 17964.38
678.6262, 17985.18
679.1083, 18011.53
679.5904, 18045.79
680.0725, 18084.93
680.5546, 18122.75
681.0367, 18159.43
681.5189, 18198.21
682.0010, 18242.17
682.4831, 18287.96
682.9652, 18329.53
683.4473, 18367.71
683.9294, 18410.94
684.4116, 18471.76
684.8937, 18531.77
685.3758, 18579.22
685.8579, 18612.54
686.3400, 18644.47
686.8221, 18663.47
687.3043, 18694.21
687.7864, 18752.38
688.2685, 18845.72
688.7506, 18921.86
689.2327, 18975.50
689.7148, 19028.16
690.1970, 19103.01
690.6791, 19196.72
691.1612, 19284.30
691.6433, 19361.72
692.1254, 19434.48
692.6075, 19503.59
693.0897, 19573.42
693.5718, 19652.05
694.0539, 19746.24
694.5360, 19840.87
695.0181, 19925.15
695.5002, 20007.39
695.9824, 20102.43
696.4645, 20215.53
696.9466, 20337.86
697.4287, 20470.09
697.9108, 20610.45
698.3929, 20754.65
698.8751, 20905.09
699.3572, 21055.93
699.8393, 21205.93
700.3214, 21356.46
700.8035, 21509.67
701.2856, 21665.88
701.7678, 21827.10
702.2499, 21989.74
702.7320, 22161.70
703.2141, 22352.29
703.6962, 22560.67
704.1783, 22774.51
704.6605, 22984.52
705.1426, 23202.48
705.6247, 23438.43
706.1068, 23695.26
706.5889, 23938.52
707.0710, 24153.44
707.5532, 24376.08
708.0353, 24634.43
708.5174, 24928.50
708.9995, 25219.31
709.4816, 25505.92
709.9637, 25800.64
710.4459, 26114.71
710.9280, 26447.96
711.4101, 26791.34
711.8922, 27144.16
712.3743, 27516.14
712.8564, 27917.49
713.3386, 28339.36
713.8207, 28778.76
714.3028, 29222.65
714.7849, 29696.45
715.2670, 30205.17
715.7491, 30743.37
716.2313, 31316.17
716.7134, 31921.73
717.1955, 32543.88
717.6776, 33177.86
718.1597, 33832.76
718.6418, 34525.69
719.1240, 35254.01
719.6061, 36027.52
720.0882, 36840.77
720.5703, 37699.88
721.0524, 38597.60
721.5345, 39537.45
722.0167, 40528.27
722.4988, 41576.38
722.9809, 42658.08
723.4630, 43805.18
723.9451, 44973.59
724.4272, 46203.25
724.9094, 47482.11
725.3915, 48829.45
725.8736, 50251.96
726.3557, 51736.13
726.8378, 53260.39
727.3199, 54837.37
727.8021, 56490.99
728.2842, 58261.81
728.7663, 60116.24
729.2484, 61970.45
729.7305, 63811.73
730.2126, 65699.44
730.6948, 67652.33
731.1769, 69669.38
731.6590, 71738.70
732.1411, 73864.37
732.6232, 76002.34
733.1053, 78163.73
733.5875, 80328.20
734.0696, 82468.93
734.5517, 84599.55
735.0338, 86671.66
735.5159, 88705.55
735.9980, 90676.48
736.4802, 92584.69
736.9623, 94425.68
737.4444, 96158.74
737.9265, 97792.88
738.4086, 99299.39
738.8907, 100689.4
739.3729, 101930.0
739.8550, 102977.5
740.3371, 103868.5
740.8192, 104494.4
741.3013, 104774.5
741.7834, 104809.2
742.2656, 104692.9
742.7477, 104464.8
743.2298, 103931.7
743.7119, 103055.7
744.1940, 101917.9
744.6761, 100631.6
745.1583, 99185.13
745.6404, 97554.08
746.1225, 95729.55
746.6046, 93741.78
747.0867, 91575.58
747.5688, 89273.12
748.0510, 86938.98
748.5331, 84569.77
749.0152, 82181.70
749.4973, 79762.59
749.9794, 77330.93
750.4615, 74932.05
750.9437, 72572.39
751.4258, 70289.32
751.9079, 68092.48
752.3900, 65916.18
752.8721, 63862.55
753.3542, 61782.34
753.8364, 59773.95
754.3185, 57879.63
754.8006, 56068.93
755.2827, 54346.60
755.7648, 52694.40
756.2469, 51107.73
756.7291, 49580.95
757.2112, 48124.93
757.6933, 46731.70
758.1754, 45412.30
758.6575, 44150.64
759.1396, 42953.88
759.6218, 41821.28
760.1039, 40741.57
760.5860, 39728.20
761.0681, 38751.20
761.5502, 37815.15
762.0323, 36929.28
762.5145, 36097.69
762.9966, 35310.91
763.4787, 34550.80
763.9608, 33818.77
764.4429, 33124.59
764.9250, 32480.42
765.4072, 31868.72
765.8893, 31281.87
766.3714, 30714.70
766.8535, 30185.34
767.3356, 29702.18
767.8177, 29239.31
768.2999, 28788.71
768.7820, 28350.66
769.2641, 27927.44
769.7462, 27520.29
770.2283, 27137.58
770.7104, 26792.20
771.1926, 26471.51
771.6747, 26159.25
772.1568, 25856.77
772.6389, 25560.48
773.1210, 25261.63
773.6031, 24975.10
774.0853, 24712.70
774.5674, 24478.43
775.0495, 24247.81
775.5316, 24017.90
776.0137, 23797.23
776.4958, 23588.03
776.9780, 23390.68
777.4601, 23211.58
777.9422, 23050.96
778.4243, 22898.00
778.9064, 22734.23
779.3885, 22575.04
779.8707, 22442.81
780.3528, 22341.93
780.8349, 22240.83
781.3170, 22115.21
781.7991, 21992.40
782.2812, 21894.64
782.7633, 21829.67
783.2454, 21759.13
783.7275, 21678.09
784.2097, 21603.30
784.6918, 21552.14
785.1739, 21522.62
785.6560, 21492.29
786.1381, 21459.92
786.6202, 21424.90
787.1024, 21379.33
787.5845, 21334.18
788.0666, 21305.41
788.5487, 21297.70
789.0308, 21293.93
789.5129, 21280.77
789.9951, 21274.27
790.4772, 21287.89
790.9593, 21330.14
791.4414, 21365.48
791.9235, 21388.75
792.4056, 21417.36
792.8878, 21474.25
793.3699, 21553.25
793.8520, 21622.43
794.3341, 21678.48
794.8162, 21731.01
795.2983, 21778.96
795.7805, 21834.25
796.2626, 21913.34
796.7447, 22025.44
797.2268, 22140.38
797.7089, 22249.33
798.1910, 22361.78
798.6732, 22480.98
799.1553, 22603.90
799.6374, 22754.61
800.1195, 22937.47
800.6016, 23136.05
801.0837, 23334.32
801.5659, 23535.72
802.0480, 23752.68
802.5301, 23984.69
803.0122, 24233.93
803.4943, 24499.33
803.9764, 24786.40
804.4586, 25101.88
804.9407, 25449.58
805.4228, 25819.89
805.9049, 26215.87
806.3870, 26626.42
806.8691, 27047.66
807.3513, 27474.56
807.8334, 27943.33
808.3155, 28459.23
808.7976, 28998.14
809.2797, 29534.14
809.7618, 30076.96
810.2440, 30633.50
810.7261, 31205.43
811.2082, 31808.21
811.6903, 32445.00
812.1724, 33122.51
812.6545, 33843.28
813.1367, 34631.46
813.6188, 35419.02
814.1009, 36205.80
814.5830, 36979.13
815.0651, 37730.10
815.5472, 38457.96
816.0294, 39152.22
816.5115, 39807.43
816.9936, 40423.89
817.4757, 41008.77
817.9578, 41542.53
818.4399, 42010.98
818.9221, 42417.71
819.4042, 42700.96
819.8863, 42827.36
820.3684, 42825.39
820.8505, 42725.67
821.3326, 42529.37
821.8148, 42220.42
822.2969, 41794.62
822.7790, 41271.52
823.2611, 40662.98
823.7432, 39974.46
824.2253, 39213.35
824.7075, 38381.56
825.1896, 37538.45
825.6717, 36730.18
826.1538, 35929.07
826.6359, 35108.23
827.1180, 34265.78
827.6002, 33436.63
828.0823, 32618.02
828.5644, 31828.36
829.0465, 31086.98
829.5286, 30404.05
830.0107, 29724.77
830.4929, 29053.36
830.9750, 28408.57
831.4571, 27818.57
831.9392, 27266.26
832.4213, 26733.20
832.9034, 26224.77
833.3856, 25742.11
833.8677, 25283.68
834.3498, 24861.71
834.8319, 24488.16
835.3140, 24164.39
835.7961, 23839.33
836.2783, 23504.57
836.7604, 23190.71
837.2425, 22919.56
837.7246, 22682.82
838.2067, 22441.37
838.6888, 22196.27
839.1710, 21980.35
839.6531, 21831.39
840.1352, 21706.01
840.6173, 21572.16
841.0994, 21429.01
841.5815, 21293.38
842.0637, 21168.48
842.5458, 21049.03
843.0279, 20933.02
843.5100, 20820.92
843.9921, 20715.71
844.4742, 20618.41
844.9564, 20526.61
845.4385, 20438.74
845.9206, 20356.78
846.4027, 20284.62
846.8848, 20221.45
847.3669, 20163.67
847.8491, 20108.49
848.3312, 20060.43
848.8133, 20020.59
849.2954, 19989.33
849.7775, 19970.36
850.2596, 19969.93
850.7418, 19960.07
851.2239, 19927.01
851.7060, 19886.27
852.1881, 19872.61
852.6702, 19881.92
853.1523, 19900.12
853.6345, 19927.02
854.1166, 19952.63
854.5987, 19971.53
855.0808, 19983.38
855.5629, 19987.97
856.0450, 19966.60
856.5272, 19966.94
857.0093, 20004.94
857.4914, 20055.83
857.9735, 20073.87
858.4556, 20061.22
858.9377, 20054.98
859.4199, 20064.68
859.9020, 20081.36
860.3841, 20095.01
860.8662, 20109.96
861.3483, 20133.09
861.8304, 20170.58
862.3126, 20208.67
862.7947, 20243.93
863.2768, 20278.09
863.7589, 20311.50
864.2410, 20343.08
864.7231, 20378.49
865.2053, 20417.98
865.6874, 20460.07
866.1695, 20505.04
866.6516, 20551.00
867.1337, 20595.43
867.6158, 20637.87
868.0980, 20676.98
868.5801, 20700.63
869.0622, 20729.37
869.5443, 20782.40
870.0264, 20866.75
870.5085, 20946.35
870.9907, 21021.61
871.4728, 21090.52
871.9549, 21147.15
872.4370, 21195.47
872.9191, 21256.13
873.4012, 21328.60
873.8834, 21387.36
874.3655, 21411.56
874.8476, 21417.93
875.3297, 21426.59
875.8118, 21437.32
876.2939, 21402.45
876.7761, 21307.45
877.2582, 21187.13
877.7403, 21049.75
878.2224, 20896.82
878.7045, 20738.36
879.1866, 20574.15
879.6688, 20410.28
880.1509, 20241.61
880.6330, 20081.76
881.1151, 19946.26
881.5972, 19830.48
882.0793, 19723.50
882.5615, 19616.99
883.0436, 19525.01
883.5257, 19453.41
884.0078, 19395.95
884.4899, 19337.96
884.9720, 19279.08
885.4542, 19228.85
885.9363, 19189.96
886.4184, 19160.12
886.9005, 19141.19
887.3826, 19127.67
887.8647, 19109.64
888.3469, 19079.20
888.8290, 19052.13
889.3111, 19036.75
889.7932, 19024.97
890.2753, 19006.83
890.7574, 18977.74
891.2396, 18965.70
891.7217, 18976.52
892.2038, 18985.90
892.6859, 18954.99
893.1680, 18906.36
893.6501, 18888.60
894.1323, 18910.58
894.6144, 18934.74
895.0965, 18946.51
895.5786, 18950.31
896.0607, 18945.99
896.5428, 18931.54
897.0250, 18932.94
897.5071, 18954.32
897.9892, 18978.48
898.4713, 18997.43
898.9534, 19010.51
899.4355, 19009.48
899.9177, 18997.76
900.3998, 18998.04
900.8819, 19036.90
901.3640, 19078.76
901.8461, 19100.16
902.3282, 19103.98
902.8104, 19115.77
903.2925, 19135.86
903.7746, 19163.24
904.2567, 19200.59
904.7388, 19241.40
905.2209, 19270.62
905.7031, 19289.99
906.1852, 19305.69
906.6673, 19315.88
907.1494, 19330.51
907.6315, 19356.33
908.1136, 19391.38
908.5958, 19433.13
909.0779, 19488.77
909.5600, 19537.60
910.0421, 19576.90
910.5242, 19612.21
911.0063, 19648.83
911.4885, 19687.42
911.9706, 19731.77
912.4527, 19781.98
912.9348, 19837.81
913.4169, 19903.28
913.8990, 19971.09
914.3812, 20033.05
914.8633, 20084.60
915.3454, 20145.45
915.8275, 20217.12
916.3096, 20295.58
916.7917, 20381.63
917.2739, 20473.23
917.7560, 20558.44
918.2381, 20637.28
918.7202, 20712.80
919.2023, 20780.05
919.6844, 20850.32
920.1666, 20936.78
920.6487, 21036.12
921.1308, 21129.24
921.6129, 21203.20
922.0950, 21289.55
922.5771, 21399.39
923.0593, 21522.28
923.5414, 21624.37
924.0235, 21710.60
924.5056, 21820.33
924.9877, 21969.17
925.4698, 22137.72
925.9520, 22325.62
926.4341, 22517.32
926.9162, 22689.12
927.3983, 22802.42
927.8804, 22946.28
928.3625, 23124.56
928.8447, 23326.25
929.3268, 23544.02
929.8089, 23774.79
930.2910, 24008.62
930.7731, 24246.13
931.2552, 24490.08
931.7374, 24741.59
932.2195, 25007.29
932.7016, 25297.03
933.1837, 25609.67
933.6658, 25940.86
934.1479, 26294.97
934.6301, 26658.96
935.1122, 27027.38
935.5943, 27401.93
936.0764, 27778.60
936.5585, 28164.69
937.0406, 28588.34
937.5228, 29083.86
938.0049, 29612.20
938.4870, 30140.41
938.9691, 30680.76
939.4512, 31261.43
939.9333, 31899.56
940.4155, 32562.94
940.8976, 33239.40
941.3797, 33950.97
941.8618, 34718.35
942.3439, 35543.70
942.8260, 36410.53
943.3082, 37325.11
943.7903, 38298.41
944.2724, 39332.84
944.7545, 40431.49
945.2366, 41610.17
945.7188, 42877.91
946.2009, 44206.23
946.6830, 45594.03
947.1651, 47059.97
947.6472, 48609.90
948.1293, 50241.29
948.6115, 51986.00
949.0936, 53836.68
949.5757, 55790.52
950.0578, 57836.24
950.5399, 59966.95
951.0220, 62172.07
951.5042, 64458.97
951.9863, 66846.89
952.4684, 69357.24
952.9505, 71907.54
953.4326, 74491.92
953.9147, 77095.49
954.3969, 79746.48
954.8790, 82434.89
955.3611, 85143.03
955.8432, 87842.88
956.3253, 90548.79
956.8074, 93323.30
957.2896, 96059.20
957.7717, 98699.35
958.2538, 101259.2
958.7359, 103677.4
959.2180, 105942.3
959.7001, 108014.9
960.1823, 109933.9
960.6644, 111613.1
961.1465, 112846.8
961.6286, 113640.7
962.1107, 114009.4
962.5928, 114062.2
963.0750, 113566.6
963.5571, 112381.2
964.0392, 110585.0
964.5213, 108420.8
965.0034, 105896.0
965.4855, 102961.8
965.9677, 99534.92
966.4498, 95789.01
966.9319, 91881.08
967.4140, 87876.43
967.8961, 83969.80
968.3782, 80157.83
968.8604, 76472.80
969.3425, 72800.86
969.8246, 69286.95
970.3067, 65998.01
970.7888, 62959.09
971.2709, 60116.73
971.7531, 57481.49
972.2352, 55039.28
972.7173, 52803.22
973.1994, 50732.51
973.6815, 48820.15
974.1636, 47069.77
974.6458, 45458.20
975.1279, 44002.79
975.6100, 42670.92
976.0921, 41467.51
976.5742, 40373.64
977.0563, 39349.38
977.5385, 38385.13
978.0206, 37476.02
978.5027, 36625.79
978.9848, 35817.08
979.4669, 35066.24
979.9490, 34336.71
980.4311, 33581.66
980.9132, 32789.71
981.3953, 31983.69
981.8774, 31161.82
982.3596, 30335.80
982.8417, 29526.95
983.3238, 28726.66
983.8059, 27917.10
984.2880, 27096.88
984.7701, 26302.76
985.2523, 25543.95
985.7344, 24827.61
986.2165, 24162.44
986.6986, 23543.04
987.1807, 22958.53
987.6628, 22413.70
988.1450, 21903.47
988.6271, 21426.45
989.1092, 20984.95
989.5913, 20586.85
990.0734, 20225.85
990.5555, 19890.24
991.0377, 19586.55
991.5198, 19294.56
992.0019, 19005.90
992.4840, 18734.72
992.9661, 18492.94
993.4482, 18280.83
993.9304, 18096.30
994.4125, 17938.58
994.8946, 17783.81
995.3767, 17598.50
995.8588, 17415.76
996.3409, 17269.68
996.8231, 17157.24
997.3052, 17045.14
997.7873, 16928.41
998.2694, 16809.59
998.7515, 16686.40
999.2336, 16564.60
999.7158, 16458.13
1000.198, 16365.16
1000.680, 16282.37
1001.162, 16212.97
1001.644, 16141.66
1002.126, 16058.68
1002.608, 15971.05
1003.091, 15885.83
1003.573, 15802.24
1004.055, 15723.99
1004.537, 15651.17
1005.019, 15580.84
1005.501, 15507.87
1005.983, 15437.22
1006.465, 15375.64
1006.948, 15322.36
1007.430, 15271.62
1007.912, 15227.88
1008.394, 15178.57
1008.876, 15115.99
1009.358, 15050.04
1009.840, 14999.63
1010.322, 14964.28
1010.804, 14928.18
1011.287, 14888.57
1011.769, 14846.12
1012.251, 14795.59
1012.733, 14745.97
1013.215, 14708.93
1013.697, 14689.38
1014.179, 14658.46
1014.661, 14611.74
1015.143, 14561.31
1015.626, 14509.77
1016.108, 14461.04
1016.590, 14430.04
1017.072, 14413.20
1017.554, 14396.00
1018.036, 14375.50
1018.518, 14348.92
1019.000, 14308.95
1019.483, 14265.31
1019.965, 14230.93
1020.447, 14206.50
1020.929, 14188.61
1021.411, 14178.28
1021.893, 14164.43
1022.375, 14132.19
1022.857, 14092.56
1023.339, 14060.36
1023.822, 14036.39
1024.304, 14008.84
1024.786, 13971.90
1025.268, 13935.44
1025.750, 13901.38
1026.232, 13871.18
1026.714, 13851.99
1027.196, 13841.56
1027.679, 13827.44
1028.161, 13804.58
1028.643, 13779.91
1029.125, 13759.07
1029.607, 13737.87
1030.089, 13710.47
1030.571, 13672.77
1031.053, 13644.45
1031.536, 13626.49
1032.018, 13611.16
1032.500, 13591.41
1032.982, 13571.12
1033.464, 13559.00
1033.946, 13552.83
1034.428, 13542.71
1034.910, 13521.64
1035.392, 13500.60
1035.875, 13483.46
1036.357, 13466.66
1036.839, 13441.73
1037.321, 13410.24
1037.803, 13390.94
1038.285, 13389.22
1038.767, 13380.59
1039.249, 13332.15
1039.731, 13278.29
1040.214, 13249.98
1040.696, 13251.04
1041.178, 13246.42
1041.660, 13236.64
1042.142, 13217.80
1042.624, 13181.26
1043.106, 13142.23
1043.588, 13134.72
1044.071, 13144.71
1044.553, 13139.95
1045.035, 13091.00
1045.517, 13054.65
1045.999, 13052.88
1046.481, 13055.57
1046.963, 13032.57
1047.445, 12985.89
1047.927, 12947.37
1048.410, 12917.86
1048.892, 12897.22
1049.374, 12894.17
1049.856, 12891.73
1050.338, 12878.17
1050.820, 12854.17
1051.302, 12826.16
1051.784, 12790.58
1052.266, 12763.90
1052.749, 12750.11
1053.231, 12744.32
1053.713, 12746.25
1054.195, 12749.10
1054.677, 12740.06
1055.159, 12714.67
1055.641, 12690.39
1056.123, 12671.06
1056.606, 12655.38
1057.088, 12645.70
1057.570, 12639.10
1058.052, 12617.01
1058.534, 12581.92
1059.016, 12548.98
1059.498, 12525.35
1059.980, 12505.92
1060.463, 12487.68
1060.945, 12471.79
1061.427, 12459.77
1061.909, 12452.44
1062.391, 12446.58
1062.873, 12442.49
1063.355, 12437.66
1063.837, 12433.83
1064.319, 12425.48
1064.802, 12401.72
1065.284, 12364.89
1065.766, 12330.63
1066.248, 12295.50
1066.730, 12276.08
1067.212, 12282.64
1067.694, 12297.02
1068.176, 12282.20
1068.658, 12245.98
1069.141, 12217.06
1069.623, 12201.22
1070.105, 12191.44
1070.587, 12192.51
1071.069, 12190.61
1071.551, 12175.69
1072.033, 12148.87
1072.515, 12120.64
1072.998, 12091.22
1073.480, 12066.40
1073.962, 12049.57
1074.444, 12037.66
1074.926, 12031.52
1075.408, 12026.84
1075.890, 12016.74
1076.372, 11994.56
1076.854, 11977.95
1077.337, 11968.96
1077.819, 11960.16
1078.301, 11944.48
1078.783, 11924.92
1079.265, 11909.24
1079.747, 11896.88
1080.229, 11883.96
1080.711, 11869.14
1081.193, 11852.72
1081.676, 11832.65
1082.158, 11812.89
1082.640, 11802.47
1083.122, 11799.93
1083.604, 11791.70
1084.086, 11775.57
1084.568, 11756.63
1085.050, 11738.10
1085.532, 11718.73
1086.015, 11697.26
1086.497, 11673.96
1086.979, 11650.56
1087.461, 11626.83
1087.943, 11605.15
1088.425, 11585.96
1088.907, 11570.38
1089.389, 11564.77
1089.872, 11561.86
1090.354, 11549.74
1090.836, 11519.32
1091.318, 11500.03
1091.800, 11498.97
1092.282, 11496.40
1092.764, 11477.46
1093.246, 11448.47
1093.729, 11427.71
1094.211, 11413.73
1094.693, 11402.31
1095.175, 11395.29
1095.657, 11385.03
1096.139, 11367.35
1096.621, 11347.14
1097.103, 11330.19
1097.585, 11316.18
1098.068, 11297.51
1098.550, 11274.03
1099.032, 11253.72
1099.514, 11242.01
1099.996, 11236.02
1100.478, 11238.98
1100.960, 11246.21
1101.442, 11240.74
1101.924, 11220.36
1102.407, 11199.62
1102.889, 11180.43
1103.371, 11163.89
1103.853, 11153.02
1104.335, 11144.00
1104.817, 11131.17
1105.299, 11113.01
1105.781, 11099.75
1106.264, 11094.36
1106.746, 11087.78
1107.228, 11076.26
1107.710, 11061.67
1108.192, 11047.79
1108.674, 11033.71
1109.156, 11016.14
1109.638, 10990.57
1110.120, 10971.79
1110.603, 10970.73
1111.085, 10969.31
1111.567, 10955.91
1112.049, 10932.16
1112.531, 10905.67
1113.013, 10877.84
1113.495, 10855.15
1113.977, 10848.11
1114.459, 10838.78
1114.942, 10814.48
1115.424, 10785.37
1115.906, 10765.19
1116.388, 10754.85
1116.870, 10744.24
1117.352, 10732.83
1117.834, 10722.19
1118.316, 10713.61
1118.799, 10706.30
1119.281, 10703.26
1119.763, 10701.19
1120.245, 10686.38
1120.727, 10653.43
1121.209, 10627.16
1121.691, 10612.00
1122.173, 10602.53
1122.656, 10597.55
1123.138, 10591.36
1123.620, 10573.31
1124.102, 10541.62
1124.584, 10519.37
1125.066, 10514.78
1125.548, 10506.53
1126.030, 10484.72
1126.512, 10460.28
1126.995, 10462.01
1127.477, 10477.29
1127.959, 10475.13
1128.441, 10443.02
1128.923, 10412.59
1129.405, 10392.31
1129.887, 10377.86
1130.369, 10369.59
1130.851, 10365.19
1131.334, 10350.34
1131.816, 10328.06
1132.298, 10312.72
1132.780, 10317.26
1133.262, 10318.92
1133.744, 10304.25
1134.226, 10283.48
1134.708, 10265.52
1135.191, 10250.47
1135.673, 10237.47
1136.155, 10226.33
1136.637, 10214.48
1137.119, 10199.99
1137.601, 10184.52
1138.083, 10167.66
1138.565, 10151.52
1139.047, 10142.41
1139.530, 10144.43
1140.012, 10128.93
1140.494, 10091.88
1140.976, 10055.89
1141.458, 10042.49
1141.940, 10039.72
1142.422, 10039.19
1142.904, 10039.04
1143.386, 10032.84
1143.869, 10017.80
1144.351, 10004.81
1144.833, 9996.744
1145.315, 9987.960
1145.797, 9968.935
1146.279, 9946.000
1146.761, 9929.607
1147.243, 9921.291
1147.726, 9906.717
1148.208, 9876.137
1148.690, 9856.945
1149.172, 9861.953
1149.654, 9875.368
1150.136, 9864.506
1150.618, 9839.706
1151.100, 9822.639
1151.583, 9820.393
1152.065, 9815.684
1152.547, 9803.943
1153.029, 9788.768
1153.511, 9770.059
1153.993, 9750.055
1154.475, 9735.504
1154.957, 9725.731
1155.439, 9719.180
1155.922, 9719.752
1156.404, 9714.580
1156.886, 9694.068
1157.368, 9670.720
1157.850, 9652.416
1158.332, 9638.583
1158.814, 9622.623
1159.296, 9605.076
1159.778, 9589.314
1160.261, 9576.779
1160.743, 9566.656
1161.225, 9559.745
1161.707, 9554.404
1162.189, 9548.869
1162.671, 9542.987
1163.153, 9540.578
1163.635, 9541.341
1164.118, 9536.600
1164.600, 9514.764
1165.082, 9491.498
1165.564, 9478.264
1166.046, 9470.118
1166.528, 9456.863
1167.010, 9437.550
1167.492, 9423.225
1167.974, 9414.996
1168.457, 9408.402
1168.939, 9402.045
1169.421, 9393.682
1169.903, 9379.932
1170.385, 9362.232
1170.867, 9347.990
1171.349, 9338.067
1171.831, 9325.660
1172.313, 9309.716
1172.796, 9291.834
1173.278, 9268.381
1173.760, 9248.025
1174.242, 9244.085
1174.724, 9255.928
1175.206, 9250.888
1175.688, 9223.298
1176.170, 9204.823
1176.653, 9206.710
1177.135, 9211.479
1177.617, 9194.540
1178.099, 9169.117
1178.581, 9151.436
1179.063, 9144.521
1179.545, 9139.203
1180.027, 9136.457
1180.510, 9129.675
1180.992, 9113.838
1181.474, 9097.578
1181.956, 9098.236
1182.438, 9105.281
1182.920, 9101.503
1183.402, 9079.899
1183.884, 9061.799
1184.366, 9048.627
1184.849, 9038.300
1185.331, 9032.221
1185.813, 9025.580
1186.295, 9005.844
1186.777, 8980.023
1187.259, 8961.334
1187.741, 8955.347
1188.223, 8953.855
1188.705, 8960.765
1189.188, 8961.243
1189.670, 8940.307
1190.152, 8909.686
1190.634, 8893.081
1191.116, 8887.041
1191.598, 8883.351
1192.080, 8882.066
1192.562, 8878.357
1193.045, 8870.865
1193.527, 8863.241
1194.009, 8860.658
1194.491, 8859.363
1194.973, 8849.747
1195.455, 8833.520
1195.937, 8816.807
1196.419, 8799.179
1196.901, 8785.531
1197.384, 8777.794
1197.866, 8771.081
1198.348, 8760.525
1198.830, 8747.182
1199.312, 8732.959
1199.794, 8718.255
1200.276, 8704.330
1200.758, 8694.376
1201.240, 8681.284
1201.723, 8662.397
1202.205, 8643.145
1202.687, 8630.229
1203.169, 8622.278
1203.651, 8618.025
1204.133, 8616.557
1204.615, 8611.088
1205.097, 8590.914
1205.580, 8578.998
1206.062, 8584.384
1206.544, 8591.407
1207.026, 8570.197
1207.508, 8534.291
1207.990, 8521.098
1208.472, 8533.011
1208.954, 8540.580
1209.437, 8531.153
1209.919, 8516.976
1210.401, 8497.154
1210.883, 8479.292
1211.365, 8482.264
1211.847, 8495.655
1212.329, 8492.394
1212.811, 8468.363
1213.293, 8447.285
1213.776, 8439.979
1214.258, 8432.462
1214.740, 8419.564
1215.222, 8406.490
1215.704, 8406.490
1216.186, 8413.390
1216.668, 8412.213
1217.150, 8399.671
1217.632, 8387.304
1218.115, 8376.709
1218.597, 8369.571
1219.079, 8368.993
1219.561, 8368.689
1220.043, 8351.110
1220.525, 8324.804
1221.007, 8310.694
1221.489, 8316.244
1221.972, 8313.331
1222.454, 8289.475
1222.936, 8268.130
1223.418, 8258.535
1223.900, 8255.991
1224.382, 8251.197
1224.864, 8245.367
1225.346, 8242.334
1225.828, 8245.713
1226.311, 8239.404
1226.793, 8218.040
1227.275, 8194.531
1227.757, 8173.147
1228.239, 8155.196
1228.721, 8144.157
1229.203, 8138.441
1229.685, 8135.599
1230.167, 8137.062
1230.650, 8134.466
1231.132, 8125.765
1231.614, 8116.989
1232.096, 8112.051
1232.578, 8107.917
1233.060, 8098.072
1233.542, 8084.835
1234.024, 8072.556
1234.507, 8061.188
1234.989, 8054.375
1235.471, 8053.942
1235.953, 8052.462
1236.435, 8044.303
1236.917, 8034.001
1237.399, 8029.767
1237.881, 8028.773
1238.364, 8026.198
1238.846, 8021.478
1239.328, 8013.334
1239.810, 8001.249
1240.292, 7988.356
1240.774, 7974.273
1241.256, 7962.925
1241.738, 7963.489
1242.220, 7969.060
1242.703, 7966.312
1243.185, 7948.517
1243.667, 7937.400
1244.149, 7933.755
1244.631, 7931.806
1245.113, 7927.401
1245.595, 7923.042
1246.077, 7923.822
1246.559, 7925.720
1247.042, 7920.982
1247.524, 7906.754
1248.006, 7896.048
1248.488, 7889.192
1248.970, 7881.997
1249.452, 7872.241
1249.934, 7860.720
1250.416, 7844.372
1250.899, 7829.034
1251.381, 7825.768
1251.863, 7839.931
1252.345, 7833.452
1252.827, 7806.227
1253.309, 7779.259
1253.791, 7766.308
1254.273, 7758.661
1254.755, 7751.524
1255.238, 7745.516
1255.720, 7742.176
1256.202, 7741.612
1256.684, 7735.632
1257.166, 7724.488
1257.648, 7716.474
1258.130, 7720.716
1258.612, 7724.637
1259.094, 7720.253
1259.577, 7720.773
1260.059, 7717.811
1260.541, 7712.467
1261.023, 7708.595
1261.505, 7699.817
1261.987, 7691.037
1262.469, 7683.846
1262.951, 7678.704
1263.434, 7676.241
1263.916, 7675.014
1264.398, 7675.811
1264.880, 7676.578
1265.362, 7664.561
1265.844, 7642.460
1266.326, 7626.764
1266.808, 7632.660
1267.291, 7633.736
1267.773, 7622.233
1268.255, 7610.605
1268.737, 7615.749
1269.219, 7628.885
1269.701, 7627.499
1270.183, 7613.708
1270.665, 7598.479
1271.147, 7582.630
1271.630, 7569.994
1272.112, 7560.983
1272.594, 7555.363
1273.076, 7554.781
1273.558, 7556.355
1274.040, 7555.038
1274.522, 7551.870
1275.004, 7550.856
1275.486, 7554.926
1275.969, 7554.292
1276.451, 7547.501
1276.933, 7540.849
1277.415, 7543.695
1277.897, 7546.194
1278.379, 7534.002
1278.861, 7514.005
1279.343, 7504.089
1279.825, 7507.008
1280.308, 7509.068
1280.790, 7509.605
1281.272, 7508.570
1281.754, 7507.432
1282.236, 7503.069
1282.718, 7488.822
1283.200, 7471.862
1283.682, 7463.897
1284.165, 7465.086
1284.647, 7469.256
1285.129, 7475.558
1285.611, 7475.601
1286.093, 7455.744
1286.575, 7438.693
1287.057, 7440.771
1287.539, 7445.742
1288.021, 7432.499
1288.504, 7406.099
1288.986, 7397.957
1289.468, 7405.883
1289.950, 7410.036
1290.432, 7395.492
1290.914, 7384.326
1291.396, 7382.582
1291.878, 7382.366
1292.360, 7375.805
1292.843, 7365.080
1293.325, 7353.494
1293.807, 7342.374
1294.289, 7335.837
1294.771, 7339.405
1295.253, 7341.072
1295.735, 7339.825
1296.217, 7338.176
1296.700, 7338.584
1297.182, 7339.529
1297.664, 7339.338
1298.146, 7337.345
1298.628, 7333.050
1299.110, 7327.923
1299.592, 7319.970
1300.074, 7308.733
1300.557, 7296.783
1301.039, 7284.173
1301.521, 7273.123
1302.003, 7269.851
1302.485, 7267.397
1302.967, 7258.257
1303.449, 7246.644
##END=



