##NAMES=Curite
##RRUFFID=R070328
##IDEAL CHEMISTRY=Pb^2+^_3+x_[(U^6+^O_2_)_4_O_4+x_(OH)_3-x_]_2_&#183;2H_2_O
##LOCALITY=Kasolo mine, Shinkolobwe, Shaba Zaire
##OWNER=RRUFF
##SOURCE=James Shigley
##DESCRIPTION=Orange acicular crystals on a quartz matrix and associated with torbernite
##STATUS=The identification of this mineral has been confirmed by single-crystal X-ray diffraction.
##URL=rruff.info/R070328
137.6089, 2092.649
138.0910, 2194.908
138.5731, 2284.437
139.0553, 2359.221
139.5374, 2437.022
140.0195, 2523.067
140.5016, 2612.060
140.9837, 2678.540
141.4658, 2715.282
141.9480, 2741.904
142.4301, 2771.949
142.9122, 2811.022
143.3943, 2841.486
143.8764, 2860.858
144.3585, 2869.112
144.8407, 2871.888
145.3228, 2868.093
145.8049, 2859.604
146.2870, 2847.749
146.7691, 2828.135
147.2512, 2811.084
147.7334, 2798.427
148.2155, 2790.240
148.6976, 2785.661
149.1797, 2785.723
149.6618, 2789.115
150.1439, 2794.065
150.6261, 2799.173
151.1082, 2807.043
151.5903, 2818.153
152.0724, 2832.104
152.5545, 2850.146
153.0366, 2878.840
153.5188, 2911.390
154.0009, 2934.342
154.4830, 2937.947
154.9651, 2937.621
155.4472, 2940.252
155.9293, 2949.030
156.4115, 2957.390
156.8936, 2963.779
157.3757, 2968.694
157.8578, 2973.958
158.3399, 2986.397
158.8221, 2995.713
159.3042, 2995.212
159.7863, 2962.475
160.2684, 2940.054
160.7505, 2949.664
161.2326, 2987.031
161.7148, 3018.531
162.1969, 3027.380
162.6790, 3024.605
163.1611, 3020.811
163.6432, 3016.442
164.1253, 3014.372
164.6075, 3016.589
165.0896, 3023.183
165.5717, 3031.451
166.0538, 3038.748
166.5359, 3046.994
167.0180, 3058.894
167.5002, 3078.779
167.9823, 3100.818
168.4644, 3118.773
168.9465, 3130.962
169.4286, 3147.590
169.9107, 3179.974
170.3929, 3222.353
170.8750, 3263.460
171.3571, 3294.612
171.8392, 3322.370
172.3213, 3353.784
172.8034, 3389.885
173.2856, 3428.072
173.7677, 3464.654
174.2498, 3501.002
174.7319, 3541.079
175.2140, 3590.061
175.6961, 3643.669
176.1783, 3694.999
176.6604, 3741.351
177.1425, 3786.596
177.6246, 3838.133
178.1067, 3894.061
178.5888, 3945.501
179.0710, 3983.319
179.5531, 4011.191
180.0352, 4036.990
180.5173, 4064.605
180.9994, 4088.625
181.4815, 4096.037
181.9637, 4087.386
182.4458, 4077.693
182.9279, 4086.042
183.4100, 4105.775
183.8921, 4111.747
184.3742, 4093.732
184.8564, 4058.690
185.3385, 4021.468
185.8206, 3981.604
186.3027, 3941.277
186.7848, 3900.071
187.2669, 3858.841
187.7491, 3822.729
188.2312, 3795.605
188.7133, 3775.186
189.1954, 3752.522
189.6775, 3727.477
190.1596, 3701.406
190.6418, 3676.589
191.1239, 3653.012
191.6060, 3626.202
192.0881, 3589.403
192.5702, 3545.031
193.0524, 3514.738
193.5345, 3499.699
194.0166, 3495.741
194.4987, 3500.199
194.9808, 3513.759
195.4629, 3525.406
195.9451, 3530.242
196.4272, 3528.399
196.9093, 3520.653
197.3914, 3503.808
197.8735, 3486.118
198.3556, 3485.457
198.8378, 3504.210
199.3199, 3524.683
199.8020, 3535.631
200.2841, 3535.899
200.7662, 3543.335
201.2483, 3561.173
201.7305, 3584.705
202.2126, 3601.527
202.6947, 3609.823
203.1768, 3618.187
203.6589, 3632.252
204.1410, 3652.700
204.6232, 3674.218
205.1053, 3699.496
205.5874, 3724.174
206.0695, 3729.008
206.5516, 3704.994
207.0337, 3684.782
207.5159, 3695.511
207.9980, 3745.689
208.4801, 3785.191
208.9622, 3806.663
209.4443, 3812.807
209.9264, 3815.943
210.4086, 3814.925
210.8907, 3813.197
211.3728, 3815.131
211.8549, 3824.375
212.3370, 3823.920
212.8191, 3806.675
213.3013, 3775.981
213.7834, 3761.559
214.2655, 3772.935
214.7476, 3785.248
215.2297, 3773.138
215.7118, 3722.719
216.1940, 3686.833
216.6761, 3679.567
217.1582, 3699.162
217.6403, 3706.142
218.1224, 3693.795
218.6045, 3677.705
219.0867, 3674.002
219.5688, 3689.238
220.0509, 3701.315
220.5330, 3704.243
221.0151, 3697.785
221.4972, 3695.998
221.9794, 3702.222
222.4615, 3709.371
222.9436, 3709.506
223.4257, 3699.452
223.9078, 3688.459
224.3899, 3676.308
224.8721, 3661.779
225.3542, 3662.447
225.8363, 3691.841
226.3184, 3723.637
226.8005, 3722.774
227.2827, 3665.552
227.7648, 3621.313
228.2469, 3612.238
228.7290, 3644.844
229.2111, 3660.603
229.6932, 3648.386
230.1754, 3628.158
230.6575, 3627.888
231.1396, 3662.011
231.6217, 3690.422
232.1038, 3699.850
232.5859, 3685.220
233.0681, 3678.786
233.5502, 3681.768
234.0323, 3692.017
234.5144, 3707.979
234.9965, 3735.925
235.4786, 3758.760
235.9608, 3770.812
236.4429, 3770.049
236.9250, 3766.663
237.4071, 3756.263
237.8892, 3746.017
238.3713, 3747.881
238.8535, 3767.102
239.3356, 3789.726
239.8177, 3811.997
240.2998, 3834.362
240.7819, 3854.400
241.2640, 3869.853
241.7462, 3884.610
242.2283, 3906.330
242.7104, 3940.591
243.1925, 3972.618
243.6746, 3996.981
244.1567, 4011.167
244.6389, 4026.404
245.1210, 4042.525
245.6031, 4059.742
246.0852, 4079.291
246.5673, 4105.655
247.0494, 4126.656
247.5316, 4136.729
248.0137, 4131.647
248.4958, 4129.630
248.9779, 4129.967
249.4600, 4133.810
249.9421, 4145.261
250.4243, 4173.180
250.9064, 4192.897
251.3885, 4191.812
251.8706, 4158.745
252.3527, 4143.605
252.8348, 4155.144
253.3170, 4179.151
253.7991, 4187.276
254.2812, 4170.500
254.7633, 4154.974
255.2454, 4151.109
255.7275, 4162.439
256.2097, 4172.427
256.6918, 4180.290
257.1739, 4187.240
257.6560, 4195.169
258.1381, 4203.015
258.6202, 4214.177
259.1024, 4231.921
259.5845, 4259.657
260.0666, 4278.203
260.5487, 4283.151
261.0308, 4282.216
261.5129, 4290.369
261.9951, 4310.644
262.4772, 4332.608
262.9593, 4351.868
263.4414, 4367.718
263.9235, 4385.463
264.4056, 4406.937
264.8878, 4428.804
265.3699, 4443.636
265.8520, 4446.978
266.3341, 4456.542
266.8162, 4484.924
267.2983, 4538.425
267.7805, 4566.016
268.2626, 4558.373
268.7447, 4534.850
269.2268, 4530.982
269.7089, 4553.344
270.1910, 4571.667
270.6732, 4570.862
271.1553, 4547.740
271.6374, 4539.405
272.1195, 4552.332
272.6016, 4570.540
273.0837, 4565.294
273.5659, 4532.014
274.0480, 4498.805
274.5301, 4476.931
275.0122, 4466.964
275.4943, 4456.196
275.9764, 4446.239
276.4586, 4432.445
276.9407, 4405.652
277.4228, 4364.801
277.9049, 4323.301
278.3870, 4287.011
278.8691, 4255.640
279.3513, 4221.215
279.8334, 4181.931
280.3155, 4144.241
280.7976, 4119.147
281.2798, 4107.480
281.7619, 4093.943
282.2440, 4070.251
282.7261, 4038.563
283.2082, 4015.417
283.6903, 4001.415
284.1725, 3993.747
284.6546, 3992.356
285.1367, 3996.847
285.6188, 3996.240
286.1009, 3984.593
286.5830, 3964.505
287.0652, 3945.085
287.5473, 3925.705
288.0294, 3911.777
288.5115, 3911.635
288.9936, 3923.969
289.4757, 3938.031
289.9579, 3953.124
290.4400, 3966.716
290.9221, 3971.864
291.4042, 3968.342
291.8863, 3959.158
292.3684, 3945.112
292.8506, 3927.264
293.3327, 3909.488
293.8148, 3888.746
294.2969, 3871.129
294.7790, 3873.511
295.2611, 3895.955
295.7433, 3916.623
296.2254, 3910.344
296.7075, 3886.567
297.1896, 3872.618
297.6717, 3881.217
298.1538, 3899.124
298.6360, 3904.942
299.1181, 3899.778
299.6002, 3896.075
300.0823, 3910.211
300.5644, 3931.826
301.0465, 3940.544
301.5287, 3925.666
302.0108, 3902.513
302.4929, 3885.296
302.9750, 3873.941
303.4571, 3868.982
303.9392, 3875.192
304.4214, 3886.589
304.9035, 3895.053
305.3856, 3897.205
305.8677, 3897.978
306.3498, 3901.161
306.8319, 3906.394
307.3141, 3912.519
307.7962, 3920.340
308.2783, 3927.948
308.7604, 3933.531
309.2425, 3936.359
309.7246, 3937.646
310.2068, 3940.053
310.6889, 3941.752
311.1710, 3938.092
311.6531, 3917.840
312.1352, 3896.841
312.6173, 3886.883
313.0995, 3891.128
313.5816, 3902.994
314.0637, 3926.982
314.5458, 3956.084
315.0279, 3977.326
315.5100, 3981.719
315.9922, 3979.970
316.4743, 3974.374
316.9564, 3961.433
317.4385, 3960.353
317.9206, 3991.643
318.4027, 4035.379
318.8849, 4063.716
319.3670, 4053.595
319.8491, 4040.522
320.3312, 4037.135
320.8133, 4045.434
321.2954, 4057.195
321.7776, 4074.745
322.2597, 4093.530
322.7418, 4108.699
323.2239, 4117.390
323.7060, 4124.563
324.1881, 4129.632
324.6703, 4132.047
325.1524, 4139.701
325.6345, 4158.288
326.1166, 4179.514
326.5987, 4196.854
327.0808, 4206.284
327.5630, 4216.555
328.0451, 4230.683
328.5272, 4248.210
329.0093, 4258.781
329.4914, 4255.514
329.9735, 4251.305
330.4557, 4255.138
330.9378, 4275.184
331.4199, 4288.635
331.9020, 4289.752
332.3841, 4282.299
332.8662, 4285.438
333.3484, 4304.435
333.8305, 4325.991
334.3126, 4343.498
334.7947, 4356.525
335.2768, 4365.504
335.7589, 4367.336
336.2411, 4366.834
336.7232, 4378.435
337.2053, 4406.993
337.6874, 4433.215
338.1695, 4446.926
338.6516, 4446.382
339.1338, 4447.479
339.6159, 4450.663
340.0980, 4455.237
340.5801, 4461.990
341.0622, 4471.876
341.5443, 4475.375
342.0265, 4462.683
342.5086, 4437.018
342.9907, 4431.026
343.4728, 4448.376
343.9549, 4471.216
344.4370, 4477.602
344.9192, 4468.784
345.4013, 4455.879
345.8834, 4436.622
346.3655, 4417.862
346.8476, 4423.203
347.3297, 4453.313
347.8119, 4486.647
348.2940, 4503.202
348.7761, 4506.630
349.2582, 4506.982
349.7403, 4504.099
350.2225, 4502.611
350.7046, 4512.003
351.1867, 4530.863
351.6688, 4547.638
352.1509, 4551.509
352.6331, 4548.655
353.1152, 4547.819
353.5973, 4549.911
354.0794, 4556.427
354.5615, 4572.631
355.0436, 4595.203
355.5258, 4614.042
356.0079, 4621.668
356.4900, 4624.201
356.9721, 4626.109
357.4542, 4627.197
357.9363, 4630.659
358.4185, 4641.306
358.9006, 4655.224
359.3827, 4665.645
359.8648, 4665.809
360.3469, 4665.060
360.8290, 4668.734
361.3112, 4677.985
361.7933, 4686.640
362.2754, 4678.458
362.7575, 4654.506
363.2396, 4683.629
363.7217, 4699.850
364.2039, 4703.862
364.6860, 4659.101
365.1681, 4677.321
365.6502, 4670.301
366.1323, 4662.247
366.6144, 4689.331
367.0966, 4651.664
367.5787, 4678.191
368.0608, 4679.093
368.5429, 4691.724
369.0250, 4678.958
369.5071, 4674.036
369.9893, 4668.912
370.4714, 4671.958
370.9535, 4670.855
371.4356, 4659.757
371.9177, 4659.189
372.3998, 4677.169
372.8820, 4701.888
373.3641, 4703.698
373.8462, 4671.932
374.3283, 4645.016
374.8104, 4640.301
375.2925, 4659.951
375.7747, 4677.288
376.2568, 4693.949
376.7389, 4705.370
377.2210, 4699.980
377.7031, 4675.888
378.1852, 4663.032
378.6674, 4676.081
379.1495, 4707.373
379.6316, 4724.015
380.1137, 4724.934
380.5958, 4719.653
381.0779, 4713.448
381.5601, 4707.417
382.0422, 4707.794
382.5243, 4717.717
383.0064, 4732.412
383.4885, 4745.933
383.9706, 4758.047
384.4528, 4766.124
384.9349, 4763.955
385.4170, 4757.768
385.8991, 4759.787
386.3812, 4774.917
386.8633, 4788.330
387.3455, 4782.117
387.8276, 4763.437
388.3097, 4748.548
388.7918, 4746.589
389.2739, 4751.276
389.7560, 4758.143
390.2382, 4766.868
390.7203, 4777.441
391.2024, 4798.188
391.6845, 4817.937
392.1666, 4823.990
392.6487, 4788.841
393.1309, 4760.894
393.6130, 4768.345
394.0951, 4807.386
394.5772, 4831.521
395.0593, 4817.359
395.5414, 4791.912
396.0236, 4772.140
396.5057, 4761.930
396.9878, 4755.590
397.4699, 4752.690
397.9520, 4753.393
398.4341, 4758.514
398.9163, 4779.498
399.3984, 4792.915
399.8805, 4787.251
400.3626, 4750.367
400.8447, 4731.156
401.3268, 4736.884
401.8090, 4754.951
402.2911, 4769.135
402.7732, 4780.670
403.2553, 4784.459
403.7374, 4776.991
404.2195, 4759.040
404.7017, 4744.691
405.1838, 4734.393
405.6659, 4726.391
406.1480, 4717.226
406.6301, 4706.691
407.1122, 4705.345
407.5944, 4717.221
408.0765, 4737.220
408.5586, 4754.567
409.0407, 4769.334
409.5228, 4780.519
410.0049, 4784.974
410.4871, 4785.179
410.9692, 4789.583
411.4513, 4800.513
411.9334, 4809.687
412.4155, 4804.433
412.8976, 4789.226
413.3798, 4777.229
413.8619, 4771.589
414.3440, 4773.580
414.8261, 4789.718
415.3082, 4819.954
415.7903, 4844.112
416.2725, 4840.555
416.7546, 4826.978
417.2367, 4823.723
417.7188, 4850.918
418.2009, 4874.609
418.6830, 4874.473
419.1652, 4856.665
419.6473, 4843.762
420.1294, 4840.954
420.6115, 4846.672
421.0937, 4861.292
421.5758, 4889.628
422.0579, 4916.044
422.5400, 4944.625
423.0221, 4968.915
423.5042, 4978.581
423.9864, 4957.240
424.4685, 4939.279
424.9506, 4932.588
425.4327, 4938.036
425.9148, 4944.531
426.3969, 4949.714
426.8791, 4958.614
427.3612, 4977.130
427.8433, 5009.796
428.3254, 5037.524
428.8075, 5056.725
429.2896, 5069.459
429.7718, 5081.487
430.2539, 5092.369
430.7360, 5104.889
431.2181, 5121.902
431.7002, 5142.932
432.1823, 5160.616
432.6645, 5174.088
433.1466, 5185.934
433.6287, 5200.111
434.1108, 5215.903
434.5929, 5229.678
435.0750, 5236.435
435.5572, 5241.625
436.0393, 5257.234
436.5214, 5282.720
437.0035, 5306.664
437.4856, 5316.726
437.9677, 5320.500
438.4499, 5328.717
438.9320, 5345.999
439.4141, 5365.119
439.8962, 5381.229
440.3783, 5395.122
440.8604, 5409.321
441.3426, 5423.917
441.8247, 5439.702
442.3068, 5458.355
442.7889, 5481.527
443.2710, 5500.410
443.7531, 5509.881
444.2353, 5514.906
444.7174, 5521.135
445.1995, 5527.639
445.6816, 5537.184
446.1637, 5552.006
446.6458, 5571.293
447.1280, 5587.771
447.6101, 5599.471
448.0922, 5610.583
448.5743, 5624.335
449.0564, 5645.373
449.5385, 5655.256
450.0207, 5646.915
450.5028, 5633.215
450.9849, 5642.161
451.4670, 5679.073
451.9491, 5710.869
452.4312, 5720.314
452.9134, 5711.724
453.3955, 5721.707
453.8776, 5752.237
454.3597, 5786.768
454.8418, 5810.724
455.3239, 5825.207
455.8061, 5832.671
456.2882, 5830.528
456.7703, 5826.736
457.2524, 5836.702
457.7345, 5856.411
458.2166, 5869.629
458.6988, 5859.105
459.1809, 5840.713
459.6630, 5832.868
460.1451, 5838.769
460.6272, 5844.796
461.1093, 5837.424
461.5915, 5826.640
462.0736, 5825.052
462.5557, 5848.391
463.0378, 5870.284
463.5199, 5875.716
464.0020, 5867.882
464.4842, 5871.781
464.9663, 5917.822
465.4484, 5958.174
465.9305, 5965.500
466.4126, 5905.754
466.8947, 5871.542
467.3769, 5871.954
467.8590, 5893.864
468.3411, 5918.083
468.8232, 5949.964
469.3053, 5972.580
469.7874, 5977.424
470.2696, 5966.100
470.7517, 5970.743
471.2338, 5995.898
471.7159, 6022.949
472.1980, 6034.585
472.6801, 6031.188
473.1623, 6029.217
473.6444, 6032.262
474.1265, 6035.254
474.6086, 6026.659
475.0907, 6008.470
475.5728, 5993.570
476.0550, 5988.477
476.5371, 5991.124
477.0192, 5999.476
477.5013, 6013.527
477.9834, 6029.370
478.4655, 6045.984
478.9477, 6062.020
479.4298, 6075.467
479.9119, 6085.098
480.3940, 6093.049
480.8761, 6099.297
481.3582, 6104.545
481.8404, 6110.753
482.3225, 6118.491
482.8046, 6127.383
483.2867, 6137.025
483.7688, 6146.786
484.2509, 6159.367
484.7331, 6183.918
485.2152, 6206.675
485.6973, 6213.812
486.1794, 6190.262
486.6615, 6177.190
487.1436, 6183.374
487.6258, 6204.508
488.1079, 6219.474
488.5900, 6225.322
489.0721, 6232.935
489.5542, 6250.080
490.0363, 6276.941
490.5185, 6300.171
491.0006, 6320.273
491.4827, 6333.260
491.9648, 6326.536
492.4470, 6304.766
492.9291, 6294.318
493.4112, 6309.640
493.8933, 6336.588
494.3754, 6356.345
494.8575, 6369.059
495.3397, 6374.502
495.8218, 6363.025
496.3039, 6348.899
496.7860, 6348.241
497.2681, 6365.224
497.7502, 6388.273
498.2324, 6419.395
498.7145, 6450.662
499.1966, 6471.887
499.6787, 6469.047
500.1608, 6466.515
500.6429, 6476.997
501.1251, 6498.867
501.6072, 6504.205
502.0893, 6471.817
502.5714, 6439.626
503.0535, 6425.269
503.5356, 6434.169
504.0178, 6449.726
504.4999, 6479.673
504.9820, 6509.018
505.4641, 6510.863
505.9462, 6478.590
506.4283, 6453.730
506.9105, 6450.995
507.3926, 6464.246
507.8747, 6471.114
508.3568, 6471.647
508.8389, 6464.500
509.3210, 6441.232
509.8032, 6409.454
510.2853, 6389.942
510.7674, 6385.882
511.2495, 6391.595
511.7316, 6406.592
512.2137, 6426.860
512.6959, 6443.997
513.1780, 6455.221
513.6601, 6461.745
514.1422, 6465.467
514.6243, 6465.790
515.1064, 6458.671
515.5886, 6429.756
516.0707, 6401.798
516.5528, 6389.724
517.0349, 6403.021
517.5170, 6416.008
517.9991, 6432.476
518.4813, 6444.863
518.9634, 6441.812
519.4455, 6409.613
519.9276, 6385.639
520.4097, 6378.901
520.8918, 6387.087
521.3740, 6396.174
521.8561, 6408.133
522.3382, 6414.462
522.8203, 6403.190
523.3024, 6376.337
523.7845, 6369.644
524.2667, 6388.015
524.7488, 6415.489
525.2309, 6439.163
525.7130, 6457.087
526.1951, 6461.241
526.6772, 6438.473
527.1594, 6410.631
527.6415, 6405.441
528.1236, 6418.728
528.6057, 6432.126
529.0878, 6443.313
529.5699, 6445.152
530.0521, 6425.723
530.5342, 6374.836
531.0163, 6341.870
531.4984, 6354.990
531.9805, 6388.415
532.4626, 6414.712
532.9448, 6427.041
533.4269, 6435.804
533.9090, 6440.769
534.3911, 6442.858
534.8732, 6445.633
535.3553, 6450.130
535.8375, 6453.333
536.3196, 6452.206
536.8017, 6446.151
537.2838, 6449.117
537.7659, 6462.866
538.2480, 6479.944
538.7302, 6494.592
539.2123, 6506.425
539.6944, 6510.096
540.1765, 6500.042
540.6586, 6489.448
541.1407, 6502.883
541.6229, 6533.234
542.1050, 6555.157
542.5871, 6545.892
543.0692, 6528.119
543.5513, 6522.267
544.0334, 6529.425
544.5156, 6538.243
544.9977, 6547.708
545.4798, 6554.180
545.9619, 6553.944
546.4440, 6534.532
546.9261, 6525.945
547.4083, 6541.334
547.8904, 6568.397
548.3725, 6585.168
548.8546, 6590.694
549.3367, 6587.043
549.8188, 6569.615
550.3010, 6540.817
550.7831, 6529.637
551.2652, 6538.358
551.7473, 6557.158
552.2294, 6584.739
552.7115, 6619.245
553.1937, 6639.296
553.6758, 6641.607
554.1579, 6636.075
554.6400, 6633.880
555.1221, 6633.665
555.6042, 6631.257
556.0864, 6620.400
556.5685, 6611.499
557.0506, 6623.399
557.5327, 6648.303
558.0148, 6656.836
558.4969, 6614.264
558.9791, 6566.210
559.4612, 6541.631
559.9433, 6547.518
560.4254, 6556.350
560.9075, 6566.623
561.3896, 6575.791
561.8718, 6582.034
562.3539, 6586.849
562.8360, 6585.542
563.3181, 6573.981
563.8002, 6557.913
564.2823, 6552.354
564.7645, 6559.873
565.2466, 6566.473
565.7287, 6565.364
566.2108, 6558.700
566.6929, 6559.668
567.1750, 6568.782
567.6572, 6573.628
568.1393, 6557.191
568.6214, 6530.049
569.1035, 6514.818
569.5856, 6516.740
570.0677, 6523.145
570.5499, 6525.946
571.0320, 6525.775
571.5141, 6523.679
571.9962, 6520.663
572.4783, 6515.182
572.9604, 6503.565
573.4426, 6487.843
573.9247, 6478.083
574.4068, 6487.455
574.8889, 6492.433
575.3710, 6481.546
575.8531, 6449.820
576.3353, 6429.850
576.8174, 6426.316
577.2995, 6427.879
577.7816, 6423.144
578.2637, 6411.268
578.7458, 6402.195
579.2280, 6397.207
579.7101, 6395.909
580.1922, 6398.381
580.6743, 6404.251
581.1564, 6411.435
581.6385, 6419.813
582.1207, 6428.518
582.6028, 6441.989
583.0849, 6457.846
583.5670, 6458.506
584.0491, 6410.629
584.5313, 6358.045
585.0134, 6339.700
585.4955, 6375.705
585.9776, 6399.069
586.4597, 6378.977
586.9418, 6343.254
587.4240, 6323.844
587.9061, 6333.066
588.3882, 6340.397
588.8703, 6340.219
589.3524, 6336.711
589.8345, 6343.630
590.3167, 6363.962
590.7988, 6383.596
591.2809, 6398.745
591.7630, 6408.363
592.2451, 6400.576
592.7272, 6374.497
593.2094, 6352.657
593.6915, 6362.120
594.1736, 6387.475
594.6557, 6397.968
595.1378, 6385.882
595.6199, 6369.835
596.1021, 6359.925
596.5842, 6355.837
597.0663, 6357.130
597.5485, 6372.841
598.0306, 6384.188
598.5127, 6378.253
598.9948, 6361.112
599.4769, 6359.544
599.9590, 6389.666
600.4412, 6417.869
600.9233, 6433.464
601.4054, 6436.031
601.8875, 6432.453
602.3696, 6419.572
602.8517, 6408.375
603.3339, 6412.176
603.8160, 6429.263
604.2981, 6434.170
604.7802, 6421.067
605.2623, 6405.817
605.7444, 6415.299
606.2266, 6439.626
606.7087, 6451.359
607.1908, 6427.065
607.6729, 6400.475
608.1550, 6402.872
608.6371, 6425.947
609.1193, 6442.771
609.6014, 6428.319
610.0835, 6417.272
610.5656, 6430.274
611.0477, 6473.012
611.5298, 6504.481
612.0120, 6522.107
612.4941, 6529.220
612.9762, 6524.757
613.4583, 6501.823
613.9404, 6493.530
614.4225, 6504.884
614.9047, 6524.792
615.3868, 6535.550
615.8689, 6538.430
616.3510, 6550.663
616.8331, 6584.129
617.3152, 6620.503
617.7974, 6628.238
618.2795, 6613.212
618.7616, 6598.837
619.2437, 6599.919
619.7258, 6605.137
620.2079, 6603.901
620.6901, 6595.839
621.1722, 6595.068
621.6543, 6614.481
622.1364, 6637.225
622.6185, 6651.617
623.1006, 6651.104
623.5828, 6656.009
624.0649, 6670.141
624.5470, 6686.194
625.0291, 6694.877
625.5112, 6694.757
625.9933, 6694.958
626.4755, 6697.251
626.9576, 6700.553
627.4397, 6702.067
627.9218, 6702.159
628.4039, 6703.622
628.8860, 6710.030
629.3682, 6717.464
629.8503, 6716.091
630.3324, 6708.124
630.8145, 6710.375
631.2966, 6749.306
631.7787, 6790.298
632.2609, 6804.949
632.7430, 6780.469
633.2251, 6766.098
633.7072, 6776.481
634.1893, 6797.822
634.6714, 6819.844
635.1536, 6846.440
635.6357, 6864.932
636.1178, 6873.075
636.5999, 6873.915
637.0820, 6870.384
637.5641, 6862.130
638.0463, 6859.252
638.5284, 6867.179
639.0105, 6880.575
639.4926, 6888.332
639.9747, 6891.535
640.4568, 6896.210
640.9390, 6910.838
641.4211, 6925.567
641.9032, 6929.831
642.3853, 6922.904
642.8674, 6916.204
643.3495, 6914.547
643.8317, 6914.539
644.3138, 6913.100
644.7959, 6903.325
645.2780, 6906.017
645.7601, 6929.384
646.2422, 6957.970
646.7244, 6971.905
647.2065, 6967.011
647.6886, 6970.240
648.1707, 6990.885
648.6528, 7015.381
649.1349, 7009.273
649.6171, 6977.773
650.0992, 6957.586
650.5813, 6982.970
651.0634, 7018.366
651.5455, 7012.344
652.0276, 6973.045
652.5098, 6944.506
652.9919, 6957.001
653.4740, 6982.265
653.9561, 7007.914
654.4382, 7035.907
654.9203, 7043.597
655.4025, 7004.766
655.8846, 6963.966
656.3667, 6953.696
656.8488, 6989.214
657.3309, 7006.983
657.8130, 6998.047
658.2952, 6983.412
658.7773, 6998.007
659.2594, 7038.785
659.7415, 7066.895
660.2236, 7068.907
660.7057, 7059.167
661.1879, 7058.030
661.6700, 7061.994
662.1521, 7061.283
662.6342, 7038.911
663.1163, 7020.942
663.5984, 7029.449
664.0806, 7060.834
664.5627, 7083.338
665.0448, 7074.877
665.5269, 7068.923
666.0090, 7083.438
666.4911, 7123.540
666.9733, 7143.104
667.4554, 7134.340
667.9375, 7120.484
668.4196, 7125.821
668.9017, 7149.111
669.3839, 7147.797
669.8660, 7114.161
670.3481, 7074.550
670.8302, 7054.329
671.3123, 7051.759
671.7944, 7065.479
672.2766, 7108.318
672.7587, 7145.536
673.2408, 7147.589
673.7229, 7128.651
674.2050, 7116.576
674.6871, 7122.935
675.1693, 7132.914
675.6514, 7144.426
676.1335, 7156.769
676.6156, 7166.366
677.0977, 7173.204
677.5798, 7177.337
678.0620, 7178.948
678.5441, 7177.928
679.0262, 7169.218
679.5083, 7151.788
679.9904, 7142.521
680.4725, 7166.371
680.9547, 7204.117
681.4368, 7216.814
681.9189, 7196.650
682.4010, 7182.676
682.8831, 7213.301
683.3652, 7257.544
683.8474, 7283.158
684.3295, 7266.156
684.8116, 7257.062
685.2937, 7274.366
685.7758, 7298.476
686.2579, 7300.572
686.7401, 7265.899
687.2222, 7251.482
687.7043, 7274.240
688.1864, 7316.764
688.6685, 7335.773
689.1506, 7332.660
689.6328, 7329.710
690.1149, 7334.809
690.5970, 7347.288
691.0791, 7372.281
691.5612, 7406.291
692.0433, 7430.905
692.5255, 7427.344
693.0076, 7418.949
693.4897, 7421.707
693.9718, 7438.088
694.4539, 7449.754
694.9360, 7447.308
695.4182, 7445.933
695.9003, 7454.572
696.3824, 7476.149
696.8645, 7495.568
697.3466, 7513.564
697.8287, 7527.461
698.3109, 7529.570
698.7930, 7523.423
699.2751, 7529.233
699.7572, 7552.516
700.2393, 7580.681
700.7214, 7599.811
701.2036, 7614.939
701.6857, 7634.503
702.1678, 7664.740
702.6499, 7696.140
703.1320, 7734.765
703.6141, 7771.723
704.0963, 7783.145
704.5784, 7742.529
705.0605, 7716.267
705.5426, 7720.316
706.0247, 7749.457
706.5068, 7784.882
706.9890, 7828.910
707.4711, 7861.400
707.9532, 7862.191
708.4353, 7845.801
708.9174, 7848.542
709.3995, 7869.523
709.8817, 7900.715
710.3638, 7949.585
710.8459, 7997.591
711.3280, 8025.582
711.8101, 8029.752
712.2922, 8033.177
712.7744, 8033.029
713.2565, 8041.555
713.7386, 8067.726
714.2207, 8121.095
714.7028, 8168.240
715.1849, 8210.239
715.6671, 8244.903
716.1492, 8264.854
716.6313, 8272.153
717.1134, 8293.841
717.5955, 8334.729
718.0776, 8389.869
718.5598, 8467.369
719.0419, 8552.362
719.5240, 8615.467
720.0061, 8634.797
720.4882, 8644.685
720.9703, 8654.358
721.4525, 8666.676
721.9346, 8688.133
722.4167, 8722.690
722.8988, 8763.090
723.3809, 8809.983
723.8630, 8861.580
724.3452, 8907.312
724.8273, 8944.307
725.3094, 8995.258
725.7915, 9082.783
726.2736, 9187.168
726.7557, 9250.871
727.2379, 9278.903
727.7200, 9310.751
728.2021, 9378.364
728.6842, 9455.861
729.1663, 9525.910
729.6484, 9586.721
730.1306, 9635.726
730.6127, 9649.878
731.0948, 9670.820
731.5769, 9723.488
732.0590, 9818.342
732.5411, 9903.144
733.0233, 9975.784
733.5054, 10043.10
733.9875, 10110.14
734.4696, 10177.34
734.9517, 10244.65
735.4338, 10311.77
735.9160, 10382.91
736.3981, 10465.53
736.8802, 10553.91
737.3623, 10639.83
737.8444, 10721.89
738.3266, 10799.95
738.8087, 10869.54
739.2908, 10937.53
739.7729, 11012.85
740.2551, 11095.49
740.7372, 11186.60
741.2193, 11287.47
741.7014, 11395.93
742.1835, 11506.68
742.6656, 11619.24
743.1478, 11740.09
743.6299, 11868.18
744.1120, 12010.92
744.5941, 12219.93
745.0762, 12458.66
745.5583, 12620.12
746.0405, 12564.05
746.5226, 12495.27
747.0047, 12530.34
747.4868, 12655.31
747.9689, 12774.54
748.4510, 12846.69
748.9332, 12949.22
749.4153, 13119.26
749.8974, 13348.07
750.3795, 13537.84
750.8616, 13684.44
751.3438, 13819.12
751.8259, 13959.90
752.3080, 14102.70
752.7901, 14237.47
753.2722, 14364.42
753.7543, 14501.21
754.2365, 14662.65
754.7186, 14836.85
755.2007, 15011.33
755.6828, 15184.64
756.1649, 15367.77
756.6470, 15582.46
757.1292, 15792.47
757.6113, 15972.50
758.0934, 16111.35
758.5755, 16264.98
759.0576, 16429.62
759.5397, 16626.92
760.0219, 16925.49
760.5040, 17278.97
760.9861, 17517.18
761.4682, 17595.14
761.9503, 17648.40
762.4324, 17780.30
762.9146, 17950.61
763.3967, 18111.94
763.8788, 18238.78
764.3609, 18378.98
764.8430, 18563.57
765.3251, 18750.86
765.8073, 18890.42
766.2894, 18965.72
766.7715, 19057.07
767.2536, 19176.46
767.7357, 19313.13
768.2178, 19449.20
768.7000, 19587.34
769.1821, 19739.40
769.6642, 19932.45
770.1463, 20105.27
770.6284, 20179.37
771.1105, 20198.55
771.5927, 20247.53
772.0748, 20392.49
772.5569, 20523.79
773.0390, 20613.39
773.5211, 20671.81
774.0032, 20713.65
774.4854, 20722.93
774.9675, 20780.75
775.4496, 20932.56
775.9317, 21129.85
776.4138, 21242.62
776.8959, 21284.22
777.3781, 21332.49
777.8602, 21437.87
778.3423, 21559.08
778.8244, 21660.88
779.3065, 21748.59
779.7886, 21846.50
780.2708, 21970.44
780.7529, 22097.49
781.2350, 22226.38
781.7171, 22355.09
782.1992, 22464.51
782.6813, 22551.99
783.1635, 22626.91
783.6456, 22694.83
784.1277, 22753.26
784.6098, 22794.74
785.0919, 22819.78
785.5740, 22835.41
786.0562, 22849.32
786.5383, 22853.72
787.0204, 22851.11
787.5025, 22840.89
787.9846, 22785.68
788.4667, 22652.23
788.9489, 22494.30
789.4310, 22332.34
789.9131, 22168.52
790.3952, 21985.47
790.8773, 21785.35
791.3594, 21562.70
791.8416, 21305.00
792.3237, 21024.68
792.8058, 20760.99
793.2879, 20513.16
793.7700, 20250.83
794.2521, 19944.15
794.7343, 19618.83
795.2164, 19301.16
795.6985, 18993.94
796.1806, 18676.08
796.6627, 18325.87
797.1448, 17982.46
797.6270, 17677.94
798.1091, 17418.43
798.5912, 17150.82
799.0733, 16872.53
799.5554, 16584.06
800.0375, 16272.49
800.5197, 15957.49
801.0018, 15683.22
801.4839, 15462.71
801.9660, 15235.15
802.4481, 14943.75
802.9302, 14641.51
803.4124, 14373.47
803.8945, 14158.49
804.3766, 13952.48
804.8587, 13757.91
805.3408, 13569.31
805.8229, 13378.50
806.3051, 13185.60
806.7872, 13014.60
807.2693, 12869.52
807.7514, 12731.04
808.2335, 12577.93
808.7156, 12416.77
809.1978, 12255.68
809.6799, 12093.26
810.1620, 11941.49
810.6441, 11811.90
811.1262, 11691.29
811.6083, 11568.12
812.0905, 11439.87
812.5726, 11309.82
813.0547, 11173.73
813.5368, 11046.62
814.0189, 10954.20
814.5010, 10889.93
814.9832, 10814.69
815.4653, 10721.59
815.9474, 10622.59
816.4295, 10520.23
816.9116, 10421.21
817.3937, 10334.39
817.8759, 10269.40
818.3580, 10203.56
818.8401, 10131.90
819.3222, 10058.43
819.8043, 9986.580
820.2864, 9917.408
820.7686, 9843.870
821.2507, 9764.621
821.7328, 9684.955
822.2149, 9613.271
822.6970, 9547.773
823.1791, 9480.386
823.6613, 9405.723
824.1434, 9343.327
824.6255, 9318.812
825.1076, 9308.552
825.5897, 9286.739
826.0718, 9242.151
826.5540, 9193.596
827.0361, 9136.047
827.5182, 9079.682
828.0003, 9038.502
828.4824, 9012.594
828.9645, 8979.659
829.4467, 8935.027
829.9288, 8889.605
830.4109, 8859.694
830.8930, 8836.128
831.3751, 8802.846
831.8572, 8748.859
832.3394, 8701.389
832.8215, 8673.820
833.3036, 8655.221
833.7857, 8633.590
834.2678, 8610.741
834.7499, 8578.050
835.2321, 8530.166
835.7142, 8484.047
836.1963, 8466.213
836.6784, 8468.771
837.1605, 8462.836
837.6426, 8441.749
838.1248, 8417.353
838.6069, 8401.036
839.0890, 8385.391
839.5711, 8361.298
840.0532, 8312.908
840.5353, 8282.935
841.0175, 8283.446
841.4996, 8292.662
841.9817, 8288.252
842.4638, 8269.645
842.9459, 8251.164
843.4280, 8233.608
843.9102, 8219.134
844.3923, 8215.219
844.8744, 8214.270
845.3565, 8202.207
845.8386, 8172.021
846.3207, 8146.458
846.8029, 8141.627
847.2850, 8140.988
847.7671, 8128.189
848.2492, 8090.702
848.7313, 8078.024
849.2134, 8098.755
849.6956, 8122.601
850.1777, 8114.329
850.6598, 8083.658
851.1419, 8066.084
851.6240, 8066.895
852.1061, 8069.082
852.5883, 8059.152
853.0704, 8044.839
853.5525, 8033.907
854.0346, 8030.868
854.5167, 8019.806
854.9988, 7990.684
855.4810, 7965.352
855.9631, 7962.096
856.4452, 7981.364
856.9273, 7993.359
857.4094, 7997.022
857.8915, 7997.996
858.3737, 7996.609
858.8558, 7997.719
859.3379, 8015.192
859.8200, 8052.981
860.3021, 8066.968
860.7842, 8011.487
861.2664, 7952.375
861.7485, 7929.419
862.2306, 7947.197
862.7127, 7954.224
863.1948, 7950.691
863.6769, 7935.795
864.1591, 7892.445
864.6412, 7841.062
865.1233, 7836.612
865.6054, 7877.339
866.0875, 7918.080
866.5696, 7941.277
867.0518, 7948.290
867.5339, 7932.696
868.0160, 7892.779
868.4981, 7871.488
868.9802, 7874.554
869.4623, 7884.479
869.9445, 7896.392
870.4266, 7908.274
870.9087, 7907.154
871.3908, 7894.524
871.8729, 7886.279
872.3550, 7897.769
872.8372, 7913.055
873.3193, 7918.025
873.8014, 7914.255
874.2835, 7912.466
874.7656, 7921.264
875.2477, 7924.266
875.7299, 7913.372
876.2120, 7894.424
876.6941, 7892.885
877.1762, 7908.698
877.6583, 7921.145
878.1404, 7921.015
878.6226, 7912.861
879.1047, 7892.936
879.5869, 7869.794
880.0690, 7864.892
880.5511, 7914.028
881.0332, 7950.578
881.5153, 7948.822
881.9974, 7924.045
882.4796, 7904.660
882.9617, 7890.789
883.4438, 7881.423
883.9259, 7875.984
884.4080, 7875.833
884.8901, 7884.707
885.3723, 7900.523
885.8544, 7918.696
886.3365, 7938.888
886.8186, 7958.837
887.3007, 7986.560
887.7828, 8009.171
888.2650, 8008.224
888.7471, 7975.460
889.2292, 7939.634
889.7113, 7899.507
890.1934, 7864.813
890.6755, 7849.445
891.1577, 7849.650
891.6398, 7854.972
892.1219, 7864.899
892.6040, 7872.079
893.0861, 7866.769
893.5682, 7858.928
894.0504, 7858.293
894.5325, 7869.492
895.0146, 7881.375
895.4967, 7899.684
895.9788, 7908.096
896.4609, 7878.418
896.9431, 7821.765
897.4252, 7820.446
897.9073, 7879.513
898.3894, 7929.153
898.8715, 7899.025
899.3536, 7849.700
899.8358, 7833.915
900.3179, 7859.620
900.8000, 7884.067
901.2821, 7911.803
901.7642, 7923.493
902.2463, 7901.690
902.7285, 7854.064
903.2106, 7842.946
903.6927, 7866.874
904.1748, 7885.557
904.6569, 7861.187
905.1390, 7829.480
905.6212, 7828.429
906.1033, 7852.692
906.5854, 7875.871
907.0675, 7898.168
907.5496, 7908.454
908.0317, 7899.355
908.5139, 7878.499
908.9960, 7866.844
909.4781, 7864.483
909.9602, 7875.744
910.4423, 7913.164
910.9244, 7946.918
911.4066, 7925.372
911.8887, 7876.771
912.3708, 7852.913
912.8529, 7895.062
913.3350, 7934.084
913.8171, 7962.914
914.2993, 7978.722
914.7814, 7971.872
915.2635, 7939.775
915.7456, 7919.995
916.2277, 7918.834
916.7098, 7926.605
917.1920, 7936.672
917.6741, 7946.604
918.1562, 7953.948
918.6383, 7960.126
919.1204, 7956.303
919.6025, 7921.402
920.0847, 7890.790
920.5668, 7892.734
921.0489, 7935.065
921.5310, 7951.241
922.0131, 7938.719
922.4952, 7921.123
922.9774, 7917.032
923.4595, 7920.251
923.9416, 7921.348
924.4237, 7920.057
924.9058, 7921.486
925.3879, 7928.364
925.8701, 7938.066
926.3522, 7952.946
926.8343, 7970.832
927.3164, 7969.758
927.7985, 7946.840
928.2806, 7932.373
928.7628, 7950.462
929.2449, 7975.439
929.7270, 7956.365
930.2091, 7910.565
930.6912, 7884.459
931.1733, 7916.796
931.6555, 7948.914
932.1376, 7964.426
932.6197, 7968.399
933.1018, 7967.764
933.5839, 7962.117
934.0660, 7953.645
934.5482, 7940.933
935.0303, 7930.963
935.5124, 7934.843
935.9945, 7947.141
936.4766, 7958.979
936.9587, 7970.007
937.4409, 7976.048
937.9230, 7972.693
938.4051, 7966.087
938.8872, 7959.300
939.3693, 7950.451
939.8514, 7954.168
940.3336, 7971.796
940.8157, 7991.849
941.2978, 8005.595
941.7799, 8015.478
942.2620, 8025.580
942.7441, 8035.934
943.2263, 8043.166
943.7084, 8044.714
944.1905, 8043.894
944.6726, 8043.276
945.1547, 8041.786
945.6368, 8029.893
946.1190, 8006.568
946.6011, 7988.259
947.0832, 7979.278
947.5653, 7982.571
948.0474, 8015.479
948.5295, 8062.851
949.0117, 8089.444
949.4938, 8061.223
949.9759, 8038.693
950.4580, 8035.275
950.9401, 8041.798
951.4222, 8044.662
951.9044, 8043.774
952.3865, 8045.719
952.8686, 8051.952
953.3507, 8059.234
953.8328, 8065.060
954.3149, 8069.427
954.7971, 8073.241
955.2792, 8078.383
955.7613, 8075.395
956.2434, 8054.436
956.7255, 8035.470
957.2076, 8033.897
957.6898, 8048.846
958.1719, 8044.211
958.6540, 8020.362
959.1361, 8004.706
959.6182, 8024.287
960.1003, 8054.114
960.5825, 8073.158
961.0646, 8081.857
961.5467, 8088.151
962.0288, 8096.963
962.5109, 8097.625
962.9930, 8085.155
963.4752, 8065.117
963.9573, 8050.540
964.4394, 8041.083
964.9215, 8033.924
965.4036, 8028.177
965.8857, 8024.359
966.3679, 8015.894
966.8500, 8012.468
967.3321, 8028.323
967.8142, 8091.986
968.2963, 8122.364
968.7784, 8105.938
969.2606, 8082.341
969.7427, 8102.973
970.2248, 8150.363
970.7069, 8154.934
971.1890, 8111.956
971.6711, 8068.306
972.1533, 8050.546
972.6354, 8046.284
973.1175, 8048.247
973.5996, 8056.117
974.0817, 8076.697
974.5638, 8116.520
975.0460, 8145.144
975.5281, 8145.045
976.0102, 8130.564
976.4923, 8137.185
976.9744, 8155.753
977.4565, 8159.396
977.9387, 8113.076
978.4208, 8077.124
978.9029, 8082.055
979.3850, 8105.090
979.8671, 8115.686
980.3492, 8111.205
980.8314, 8110.002
981.3135, 8114.942
981.7956, 8119.402
982.2777, 8110.172
982.7598, 8098.517
983.2419, 8103.391
983.7241, 8130.024
984.2062, 8151.948
984.6883, 8162.308
985.1704, 8164.510
985.6525, 8157.179
986.1346, 8141.783
986.6168, 8133.738
987.0989, 8132.953
987.5810, 8136.504
988.0631, 8147.456
988.5452, 8158.021
989.0273, 8156.620
989.5095, 8149.068
989.9916, 8150.730
990.4737, 8179.635
990.9558, 8192.930
991.4379, 8180.076
991.9200, 8157.417
992.4022, 8148.546
992.8843, 8151.944
993.3664, 8163.698
993.8485, 8185.299
994.3306, 8200.399
994.8127, 8191.229
995.2949, 8174.935
995.7770, 8168.748
996.2591, 8176.953
996.7412, 8165.701
997.2233, 8126.642
997.7054, 8098.982
998.1876, 8116.879
998.6697, 8158.753
999.1518, 8175.055
999.6339, 8171.897
1000.116, 8174.036
1000.598, 8203.076
1001.080, 8227.210
1001.562, 8235.714
1002.044, 8232.550
1002.527, 8220.169
1003.009, 8197.157
1003.491, 8190.328
1003.973, 8209.083
1004.455, 8226.261
1004.937, 8197.479
1005.419, 8156.132
1005.901, 8147.669
1006.384, 8189.283
1006.866, 8225.019
1007.348, 8253.734
1007.830, 8266.948
1008.312, 8255.268
1008.794, 8223.389
1009.276, 8193.211
1009.758, 8166.311
1010.240, 8154.279
1010.723, 8181.598
1011.205, 8208.443
1011.687, 8202.056
1012.169, 8176.514
1012.651, 8171.563
1013.133, 8195.849
1013.615, 8218.490
1014.097, 8236.213
1014.580, 8247.442
1015.062, 8244.701
1015.544, 8235.262
1016.026, 8235.193
1016.508, 8250.097
1016.990, 8258.376
1017.472, 8232.028
1017.954, 8215.857
1018.436, 8246.178
1018.919, 8318.518
1019.401, 8326.678
1019.883, 8270.466
1020.365, 8222.227
1020.847, 8230.665
1021.329, 8261.151
1021.811, 8287.209
1022.293, 8307.630
1022.776, 8319.915
1023.258, 8319.477
1023.740, 8317.789
1024.222, 8316.647
1024.704, 8313.401
1025.186, 8302.711
1025.668, 8286.804
1026.150, 8271.785
1026.632, 8257.868
1027.115, 8252.666
1027.597, 8271.605
1028.079, 8291.641
1028.561, 8294.395
1029.043, 8280.875
1029.525, 8280.761
1030.007, 8296.574
1030.489, 8303.930
1030.972, 8280.925
1031.454, 8255.381
1031.936, 8279.903
1032.418, 8330.003
1032.900, 8352.927
1033.382, 8296.701
1033.864, 8263.274
1034.346, 8270.915
1034.828, 8293.398
1035.311, 8299.518
1035.793, 8293.079
1036.275, 8302.643
1036.757, 8330.680
1037.239, 8353.525
1037.721, 8352.148
1038.203, 8341.591
1038.685, 8326.892
1039.167, 8310.514
1039.650, 8312.026
1040.132, 8337.690
1040.614, 8352.320
1041.096, 8338.122
1041.578, 8316.648
1042.060, 8329.730
1042.542, 8359.166
1043.024, 8369.378
1043.507, 8333.630
1043.989, 8310.624
1044.471, 8316.685
1044.953, 8331.543
1045.435, 8340.026
1045.917, 8342.757
1046.399, 8351.427
1046.881, 8365.515
1047.364, 8371.268
1047.846, 8345.047
1048.328, 8320.548
1048.810, 8327.674
1049.292, 8357.713
1049.774, 8367.652
1050.256, 8349.301
1050.738, 8339.495
1051.220, 8347.270
1051.703, 8361.728
1052.185, 8368.965
1052.667, 8371.218
1053.149, 8370.313
1053.631, 8364.158
1054.113, 8366.965
1054.595, 8392.188
1055.077, 8416.360
1055.559, 8429.040
1056.042, 8430.465
1056.524, 8418.135
1057.006, 8394.126
1057.488, 8375.426
1057.970, 8369.479
1058.452, 8373.646
1058.934, 8397.927
1059.416, 8427.590
1059.899, 8432.680
1060.381, 8401.588
1060.863, 8388.685
1061.345, 8402.141
1061.827, 8417.861
1062.309, 8408.342
1062.791, 8386.387
1063.273, 8365.172
1063.755, 8346.522
1064.238, 8349.728
1064.720, 8405.513
1065.202, 8450.977
1065.684, 8465.799
1066.166, 8459.019
1066.648, 8452.275
1067.130, 8445.895
1067.612, 8441.014
1068.094, 8438.684
1068.577, 8436.298
1069.059, 8428.048
1069.541, 8422.018
1070.023, 8428.696
1070.505, 8453.756
1070.987, 8452.935
1071.469, 8422.841
1071.951, 8399.830
1072.434, 8418.478
1072.916, 8450.986
1073.398, 8467.703
1073.880, 8470.276
1074.362, 8466.265
1074.844, 8447.186
1075.326, 8439.209
1075.808, 8448.235
1076.291, 8464.641
1076.773, 8478.756
1077.255, 8488.935
1077.737, 8488.043
1078.219, 8474.574
1078.701, 8461.425
1079.183, 8456.231
1079.665, 8452.072
1080.147, 8444.901
1080.630, 8435.586
1081.112, 8425.254
1081.594, 8414.444
1082.076, 8421.896
1082.558, 8464.861
1083.040, 8509.090
1083.522, 8526.609
1084.004, 8525.594
1084.486, 8514.191
1084.969, 8482.061
1085.451, 8475.041
1085.933, 8499.479
1086.415, 8525.336
1086.897, 8530.543
1087.379, 8521.382
1087.861, 8504.815
1088.343, 8483.012
1088.826, 8463.736
1089.308, 8443.518
1089.790, 8435.575
1090.272, 8443.024
1090.754, 8462.198
1091.236, 8494.904
1091.718, 8535.630
1092.200, 8556.795
1092.682, 8553.127
1093.165, 8544.995
1093.647, 8541.133
1094.129, 8540.584
1094.611, 8543.808
1095.093, 8549.959
1095.575, 8552.155
1096.057, 8550.011
1096.539, 8555.661
1097.022, 8581.510
1097.504, 8600.899
1097.986, 8573.926
1098.468, 8528.479
1098.950, 8503.354
1099.432, 8509.445
1099.914, 8525.805
1100.396, 8558.134
1100.879, 8581.415
1101.361, 8567.778
1101.843, 8536.997
1102.325, 8527.432
1102.807, 8535.119
1103.289, 8543.879
1103.771, 8558.672
1104.253, 8556.032
1104.735, 8517.565
1105.218, 8479.365
1105.700, 8507.667
1106.182, 8583.837
1106.664, 8610.028
1107.146, 8575.015
1107.628, 8544.054
1108.110, 8567.563
1108.592, 8596.032
1109.074, 8602.356
1109.557, 8590.527
1110.039, 8570.635
1110.521, 8542.202
1111.003, 8536.172
1111.485, 8569.329
1111.967, 8603.938
1112.449, 8592.865
1112.931, 8569.945
1113.414, 8578.568
1113.896, 8635.746
1114.378, 8648.724
1114.860, 8606.635
1115.342, 8568.188
1115.824, 8576.097
1116.306, 8599.445
1116.788, 8576.659
1117.271, 8532.123
1117.753, 8520.100
1118.235, 8605.533
1118.717, 8649.971
1119.199, 8630.293
1119.681, 8596.505
1120.163, 8601.081
1120.645, 8630.900
1121.127, 8651.071
1121.609, 8659.532
1122.092, 8654.947
1122.574, 8621.966
1123.056, 8593.586
1123.538, 8581.714
1124.020, 8579.750
1124.502, 8572.540
1124.984, 8561.895
1125.466, 8565.895
1125.949, 8589.433
1126.431, 8612.547
1126.913, 8623.584
1127.395, 8626.849
1127.877, 8620.880
1128.359, 8608.358
1128.841, 8612.198
1129.323, 8633.573
1129.806, 8650.854
1130.288, 8656.229
1130.770, 8654.296
1131.252, 8642.122
1131.734, 8628.994
1132.216, 8629.767
1132.698, 8654.544
1133.180, 8658.182
1133.662, 8635.070
1134.145, 8614.390
1134.627, 8615.276
1135.109, 8629.582
1135.591, 8653.121
1136.073, 8679.218
1136.555, 8690.351
1137.037, 8663.055
1137.519, 8648.502
1138.001, 8651.884
1138.484, 8663.849
1138.966, 8681.346
1139.448, 8698.182
1139.930, 8692.724
1140.412, 8667.240
1140.894, 8652.001
1141.376, 8676.775
1141.858, 8689.538
1142.341, 8667.991
1142.823, 8636.760
1143.305, 8650.728
1143.787, 8696.707
1144.269, 8710.307
1144.751, 8677.484
1145.233, 8649.614
1145.715, 8662.255
1146.198, 8682.013
1146.680, 8691.686
1147.162, 8692.571
1147.644, 8689.731
1148.126, 8683.322
1148.608, 8675.229
1149.090, 8664.302
1149.572, 8656.236
1150.054, 8654.050
1150.536, 8657.815
1151.019, 8669.288
1151.501, 8689.238
1151.983, 8703.876
1152.465, 8713.401
1152.947, 8714.529
1153.429, 8697.901
1153.911, 8680.640
1154.393, 8684.164
1154.876, 8696.914
1155.358, 8696.354
1155.840, 8668.557
1156.322, 8668.746
1156.804, 8702.317
1157.286, 8739.733
1157.768, 8763.304
1158.250, 8772.765
1158.733, 8757.882
1159.215, 8727.360
1159.697, 8714.269
1160.179, 8735.209
1160.661, 8746.869
1161.143, 8742.419
1161.625, 8732.947
1162.107, 8730.877
1162.589, 8732.704
1163.072, 8734.336
1163.554, 8735.006
1164.036, 8729.077
1164.518, 8704.852
1165.000, 8691.976
1165.482, 8700.029
1165.964, 8718.903
1166.446, 8732.345
1166.928, 8741.780
1167.411, 8753.358
1167.893, 8770.604
1168.375, 8771.252
1168.857, 8715.526
1169.339, 8685.568
1169.821, 8728.252
1170.303, 8807.640
1170.785, 8813.219
1171.268, 8764.796
1171.750, 8726.045
1172.232, 8714.617
1172.714, 8721.996
1173.196, 8769.041
1173.678, 8810.641
1174.160, 8816.632
1174.642, 8792.619
1175.125, 8770.518
1175.607, 8750.924
1176.089, 8738.296
1176.571, 8740.279
1177.053, 8742.050
1177.535, 8727.785
1178.017, 8717.729
1178.499, 8740.729
1178.981, 8796.035
1179.464, 8793.938
1179.946, 8737.239
1180.428, 8686.297
1180.910, 8678.408
1181.392, 8687.154
1181.874, 8710.416
1182.356, 8735.396
1182.838, 8738.765
1183.320, 8719.240
1183.803, 8721.002
1184.285, 8748.104
1184.767, 8776.807
1185.249, 8791.247
1185.731, 8799.486
1186.213, 8809.212
1186.695, 8816.349
1187.177, 8803.694
1187.660, 8768.545
1188.142, 8761.904
1188.624, 8796.576
1189.106, 8824.024
1189.588, 8780.193
1190.070, 8728.898
1190.552, 8729.508
1191.034, 8775.283
1191.516, 8799.389
1191.999, 8799.112
1192.481, 8807.285
1192.963, 8837.465
1193.445, 8859.349
1193.927, 8835.650
1194.409, 8793.104
1194.891, 8749.446
1195.373, 8705.989
1195.855, 8714.220
1196.338, 8781.369
1196.820, 8838.201
1197.302, 8857.754
1197.784, 8855.159
1198.266, 8830.667
1198.748, 8802.196
1199.230, 8797.253
1199.712, 8825.835
1200.195, 8825.889
1200.677, 8793.524
1201.159, 8758.845
1201.641, 8728.688
1202.123, 8716.122
1202.605, 8758.505
1203.087, 8820.930
1203.569, 8842.710
1204.052, 8794.340
1204.534, 8783.445
1205.016, 8817.252
1205.498, 8844.745
1205.980, 8816.086
1206.462, 8774.058
1206.944, 8776.902
1207.426, 8803.305
1207.908, 8800.011
1208.391, 8740.076
1208.873, 8718.051
1209.355, 8742.323
1209.837, 8779.555
1210.319, 8806.145
1210.801, 8826.354
1211.283, 8849.915
1211.765, 8871.140
1212.247, 8865.234
1212.730, 8815.494
1213.212, 8792.087
1213.694, 8806.049
1214.176, 8828.998
1214.658, 8835.043
1215.140, 8833.880
1215.622, 8836.988
1216.104, 8843.622
1216.587, 8845.289
1217.069, 8840.275
1217.551, 8834.380
1218.033, 8827.877
1218.515, 8823.593
1218.997, 8829.474
1219.479, 8836.060
1219.961, 8829.605
1220.443, 8810.632
1220.926, 8800.438
1221.408, 8799.763
1221.890, 8810.157
1222.372, 8835.579
1222.854, 8859.550
1223.336, 8863.917
1223.818, 8854.779
1224.300, 8830.921
1224.782, 8792.286
1225.265, 8790.318
1225.747, 8834.428
1226.229, 8868.610
1226.711, 8871.716
1227.193, 8869.093
1227.675, 8903.979
1228.157, 8943.352
1228.639, 8941.027
1229.122, 8886.976
1229.604, 8856.956
1230.086, 8852.681
1230.568, 8860.782
1231.050, 8879.662
1231.532, 8901.229
1232.014, 8927.822
1232.496, 8945.048
1232.979, 8926.492
1233.461, 8863.580
1233.943, 8843.833
1234.425, 8872.134
1234.907, 8895.991
1235.389, 8888.177
1235.871, 8869.466
1236.353, 8848.489
1236.835, 8835.521
1237.318, 8851.900
1237.800, 8906.434
1238.282, 8911.171
1238.764, 8863.153
1239.246, 8825.748
1239.728, 8840.484
1240.210, 8872.564
1240.692, 8904.706
1241.175, 8929.984
1241.657, 8938.677
1242.139, 8929.116
1242.621, 8913.344
1243.103, 8891.101
1243.585, 8872.832
1244.067, 8868.616
1244.549, 8866.085
1245.031, 8847.188
1245.514, 8830.884
1245.996, 8848.103
1246.478, 8904.531
1246.960, 8918.950
1247.442, 8892.223
1247.924, 8869.130
1248.406, 8883.396
1248.888, 8904.104
1249.370, 8922.768
1249.853, 8932.122
1250.335, 8915.714
1250.817, 8875.321
1251.299, 8864.083
1251.781, 8883.129
1252.263, 8912.381
1252.745, 8957.578
1253.227, 8988.565
1253.710, 8984.561
1254.192, 8965.060
1254.674, 8954.062
1255.156, 8949.391
1255.638, 8930.213
1256.120, 8897.529
1256.602, 8877.278
1257.084, 8893.112
1257.567, 8913.091
1258.049, 8932.301
1258.531, 8943.509
1259.013, 8928.067
1259.495, 8896.146
1259.977, 8888.574
1260.459, 8906.097
1260.941, 8920.201
1261.423, 8908.761
1261.906, 8906.145
1262.388, 8924.756
1262.870, 8947.329
1263.352, 8947.082
1263.834, 8932.062
1264.316, 8919.399
1264.798, 8910.752
1265.280, 8903.332
1265.762, 8885.323
1266.245, 8890.724
1266.727, 8935.199
1267.209, 8983.056
1267.691, 8977.452
1268.173, 8945.641
1268.655, 8936.609
1269.137, 8952.442
1269.619, 8945.999
1270.102, 8892.194
1270.584, 8876.171
1271.066, 8925.916
1271.548, 8983.752
1272.030, 8964.380
1272.512, 8919.395
1272.994, 8915.946
1273.476, 8955.231
1273.958, 8960.146
1274.441, 8916.956
1274.923, 8902.226
1275.405, 8939.646
1275.887, 8978.050
1276.369, 8953.401
1276.851, 8912.357
1277.333, 8902.727
1277.815, 8920.019
1278.297, 8921.347
1278.780, 8906.240
1279.262, 8879.847
1279.744, 8838.813
1280.226, 8816.233
1280.708, 8864.113
1281.190, 8917.068
1281.672, 8921.127
1282.154, 8892.531
1282.637, 8892.741
1283.119, 8918.070
1283.601, 8931.123
1284.083, 8921.815
1284.565, 8916.828
1285.047, 8942.479
1285.529, 8965.029
1286.011, 8967.462
1286.494, 8955.828
1286.976, 8943.468
1287.458, 8931.738
1287.940, 8927.422
1288.422, 8933.450
1288.904, 8933.581
1289.386, 8919.388
1289.868, 8898.893
1290.350, 8866.312
1290.833, 8840.911
1291.315, 8875.564
1291.797, 8942.045
1292.279, 8985.761
1292.761, 8995.530
1293.243, 8991.895
1293.725, 8973.185
1294.207, 8955.880
1294.689, 8944.153
1295.172, 8938.895
1295.654, 8947.563
1296.136, 8960.074
1296.618, 8961.726
1297.100, 8949.170
1297.582, 8943.021
1298.064, 8944.910
1298.546, 8942.266
1299.029, 8930.150
1299.511, 8915.439
1299.993, 8896.567
1300.475, 8885.261
1300.957, 8900.255
1301.439, 8935.794
1301.921, 8957.877
1302.403, 8966.722
1302.885, 8967.789
1303.368, 8962.646
1303.850, 8950.076
1304.332, 8918.596
1304.814, 8890.274
1305.296, 8875.320
1305.778, 8874.703
1306.260, 8900.549
1306.742, 8944.407
1307.224, 8972.314
1307.707, 8973.714
1308.189, 8970.739
1308.671, 8975.157
1309.153, 8971.492
1309.635, 8950.998
1310.117, 8923.117
1310.599, 8901.927
##END=



