##NAMES=Cuspidine
##RRUFFID=R060049
##IDEAL CHEMISTRY=Ca_4_(Si_2_O_7_)F_2_
##LOCALITY=Ariccia, Rome, Italy
##OWNER=RRUFF
##SOURCE=University of Arizona Mineral Museum
##DESCRIPTION=White and colorless spear-shaped single crystal
##STATUS=The identification of this mineral is confirmed by single-crystal X-ray diffraction and chemical analysis.
##URL=rruff.info/R060049
##MEASURED CHEMISTRY=Ca_4.00_Si_2.00_O_7_F_2.00_
108.4348, 1765.536
108.9169, 1751.448
109.3990, 1736.762
109.8811, 1714.824
110.3632, 1704.525
110.8453, 1710.533
111.3275, 1724.591
111.8096, 1739.678
112.2917, 1752.621
112.7738, 1769.628
113.2559, 1780.272
113.7380, 1804.192
114.2202, 1825.956
114.7023, 1845.719
115.1844, 1861.919
115.6665, 1870.904
116.1486, 1868.883
116.6307, 1856.742
117.1129, 1846.979
117.5950, 1839.944
118.0771, 1834.781
118.5592, 1829.746
119.0413, 1824.507
119.5234, 1823.459
120.0056, 1834.690
120.4877, 1854.082
120.9698, 1869.994
121.4519, 1877.990
121.9340, 1880.105
122.4161, 1880.294
122.8982, 1876.506
123.3804, 1874.676
123.8625, 1881.773
124.3446, 1895.687
124.8267, 1905.952
125.3088, 1899.231
125.7909, 1873.284
126.2731, 1861.494
126.7552, 1886.134
127.2373, 1914.242
127.7194, 1930.458
128.2015, 1932.030
128.6837, 1925.737
129.1658, 1921.184
129.6479, 1918.806
130.1300, 1917.572
130.6121, 1916.047
131.0942, 1915.969
131.5764, 1919.597
132.0585, 1927.905
132.5406, 1939.148
133.0227, 1947.061
133.5048, 1953.841
133.9869, 1954.430
134.4691, 1938.367
134.9512, 1916.219
135.4333, 1907.299
135.9154, 1926.188
136.3975, 1970.432
136.8796, 1994.218
137.3618, 1984.658
137.8439, 1971.054
138.3260, 1968.800
138.8081, 1977.119
139.2902, 1984.086
139.7723, 1978.494
140.2545, 1960.263
140.7366, 1946.432
141.2187, 1940.651
141.7008, 1938.459
142.1829, 1934.692
142.6650, 1928.295
143.1472, 1922.219
143.6293, 1922.073
144.1114, 1926.254
144.5935, 1925.375
145.0756, 1912.064
145.5577, 1890.047
146.0399, 1871.092
146.5220, 1855.315
147.0041, 1846.012
147.4862, 1847.634
147.9683, 1859.446
148.4504, 1870.187
148.9326, 1871.527
149.4147, 1863.330
149.8968, 1847.444
150.3789, 1811.378
150.8610, 1775.409
151.3431, 1750.569
151.8252, 1739.339
152.3074, 1736.894
152.7895, 1736.735
153.2716, 1740.359
153.7537, 1743.091
154.2358, 1746.006
154.7179, 1747.236
155.2001, 1744.677
155.6822, 1737.393
156.1643, 1726.867
156.6464, 1717.410
157.1285, 1700.128
157.6106, 1695.266
158.0928, 1716.493
158.5749, 1748.986
159.0570, 1773.352
159.5391, 1777.985
160.0212, 1764.142
160.5033, 1744.347
160.9855, 1699.859
161.4676, 1668.915
161.9497, 1673.285
162.4318, 1703.488
162.9139, 1731.310
163.3960, 1733.745
163.8782, 1709.722
164.3603, 1700.995
164.8424, 1720.099
165.3245, 1743.093
165.8066, 1755.218
166.2887, 1755.370
166.7709, 1748.968
167.2530, 1736.873
167.7351, 1719.666
168.2172, 1715.316
168.6993, 1737.597
169.1814, 1769.151
169.6636, 1787.001
170.1457, 1785.482
170.6278, 1780.010
171.1099, 1788.621
171.5920, 1808.531
172.0741, 1825.873
172.5563, 1837.201
173.0384, 1842.095
173.5205, 1837.593
174.0026, 1817.009
174.4847, 1795.529
174.9668, 1784.169
175.4490, 1782.669
175.9311, 1789.524
176.4132, 1809.167
176.8953, 1841.123
177.3774, 1863.485
177.8595, 1866.163
178.3417, 1862.503
178.8238, 1858.755
179.3059, 1855.899
179.7880, 1855.900
180.2701, 1861.849
180.7522, 1875.334
181.2344, 1888.269
181.7165, 1902.918
182.1986, 1914.492
182.6807, 1918.615
183.1628, 1914.282
183.6449, 1905.734
184.1271, 1899.080
184.6092, 1891.458
185.0913, 1892.448
185.5734, 1908.616
186.0555, 1929.234
186.5376, 1945.910
187.0198, 1955.226
187.5019, 1958.404
187.9840, 1958.274
188.4661, 1945.338
188.9482, 1941.672
189.4303, 1953.695
189.9125, 1974.108
190.3946, 1995.631
190.8767, 2015.016
191.3588, 2031.339
191.8409, 2040.486
192.3230, 2031.299
192.8052, 2027.288
193.2873, 2034.665
193.7694, 2049.908
194.2515, 2067.596
194.7336, 2085.320
195.2157, 2102.354
195.6979, 2111.231
196.1800, 2100.064
196.6621, 2094.669
197.1442, 2108.284
197.6263, 2136.454
198.1084, 2165.486
198.5906, 2187.325
199.0727, 2201.348
199.5548, 2209.041
200.0369, 2205.312
200.5190, 2200.237
201.0011, 2198.906
201.4833, 2201.483
201.9654, 2206.310
202.4475, 2211.237
202.9296, 2217.482
203.4117, 2230.848
203.8938, 2261.338
204.3760, 2292.983
204.8581, 2310.123
205.3402, 2311.470
205.8223, 2308.739
206.3044, 2308.491
206.7865, 2311.277
207.2687, 2319.651
207.7508, 2339.952
208.2329, 2363.865
208.7150, 2380.238
209.1971, 2387.696
209.6792, 2390.525
210.1614, 2386.055
210.6435, 2378.630
211.1256, 2380.109
211.6077, 2402.845
212.0898, 2436.542
212.5719, 2457.490
213.0541, 2459.664
213.5362, 2458.954
214.0183, 2465.684
214.5004, 2478.045
214.9825, 2492.140
215.4646, 2507.699
215.9468, 2523.755
216.4289, 2535.672
216.9110, 2541.512
217.3931, 2545.509
217.8752, 2551.060
218.3573, 2557.260
218.8395, 2561.425
219.3216, 2559.581
219.8037, 2552.540
220.2858, 2550.435
220.7679, 2553.306
221.2500, 2562.179
221.7322, 2580.709
222.2143, 2606.099
222.6964, 2630.264
223.1785, 2645.758
223.6606, 2652.127
224.1427, 2660.133
224.6249, 2672.309
225.1070, 2683.942
225.5891, 2693.107
226.0712, 2699.996
226.5533, 2705.842
227.0354, 2711.120
227.5176, 2715.294
227.9997, 2722.434
228.4818, 2739.432
228.9639, 2753.568
229.4460, 2756.837
229.9281, 2751.057
230.4103, 2744.913
230.8924, 2748.009
231.3745, 2763.185
231.8566, 2774.830
232.3387, 2781.226
232.8208, 2785.917
233.3030, 2787.622
233.7851, 2788.065
234.2672, 2792.375
234.7493, 2806.744
235.2314, 2834.048
235.7135, 2861.493
236.1957, 2901.602
236.6778, 2932.215
237.1599, 2934.210
237.6420, 2910.447
238.1241, 2882.635
238.6062, 2877.256
239.0884, 2905.674
239.5705, 2919.042
240.0526, 2902.552
240.5347, 2885.330
241.0168, 2888.011
241.4989, 2910.746
241.9811, 2936.598
242.4632, 2945.192
242.9453, 2927.737
243.4274, 2919.791
243.9095, 2928.390
244.3916, 2939.769
244.8738, 2944.040
245.3559, 2940.536
245.8380, 2936.780
246.3201, 2942.072
246.8022, 2961.126
247.2843, 2974.188
247.7665, 2974.073
248.2486, 2973.637
248.7307, 2984.643
249.2128, 3007.439
249.6949, 3030.637
250.1770, 3040.583
250.6592, 3031.328
251.1413, 3028.848
251.6234, 3034.365
252.1055, 3045.332
252.5876, 3063.095
253.0697, 3086.593
253.5519, 3108.658
254.0340, 3120.659
254.5161, 3119.156
254.9982, 3119.819
255.4803, 3119.265
255.9624, 3122.961
256.4445, 3139.149
256.9267, 3167.738
257.4088, 3195.523
257.8909, 3207.450
258.3730, 3198.410
258.8551, 3198.749
259.3372, 3211.117
259.8194, 3231.101
260.3015, 3260.700
260.7836, 3298.805
261.2657, 3330.695
261.7478, 3338.557
262.2299, 3317.213
262.7121, 3312.516
263.1942, 3336.559
263.6763, 3369.863
264.1584, 3398.526
264.6405, 3420.877
265.1227, 3439.203
265.6048, 3454.457
266.0869, 3466.446
266.5690, 3480.379
267.0511, 3499.524
267.5332, 3518.622
268.0154, 3532.939
268.4975, 3542.249
268.9796, 3550.035
269.4617, 3559.702
269.9438, 3570.958
270.4259, 3577.547
270.9081, 3569.353
271.3902, 3563.378
271.8723, 3580.103
272.3544, 3618.793
272.8365, 3649.251
273.3186, 3644.010
273.8008, 3606.380
274.2829, 3586.318
274.7650, 3592.727
275.2471, 3610.792
275.7292, 3637.419
276.2113, 3670.443
276.6935, 3690.413
277.1756, 3676.300
277.6577, 3635.784
278.1398, 3621.873
278.6219, 3657.978
279.1040, 3701.821
279.5862, 3726.223
280.0683, 3732.160
280.5504, 3729.365
281.0325, 3719.240
281.5146, 3705.835
281.9967, 3703.884
282.4789, 3719.230
282.9610, 3740.319
283.4431, 3764.584
283.9252, 3790.449
284.4073, 3808.061
284.8894, 3810.093
285.3716, 3800.817
285.8537, 3795.493
286.3358, 3797.349
286.8179, 3798.931
287.3000, 3794.478
287.7821, 3785.698
288.2643, 3779.408
288.7464, 3778.412
289.2285, 3782.348
289.7106, 3789.806
290.1927, 3803.089
290.6748, 3815.447
291.1570, 3824.548
291.6391, 3830.363
292.1212, 3832.805
292.6033, 3831.994
293.0854, 3827.440
293.5675, 3816.826
294.0497, 3795.868
294.5318, 3780.569
295.0139, 3780.758
295.4960, 3791.251
295.9781, 3799.938
296.4602, 3802.304
296.9424, 3802.651
297.4245, 3810.366
297.9066, 3828.387
298.3887, 3839.467
298.8708, 3833.298
299.3529, 3817.555
299.8351, 3806.420
300.3172, 3804.507
300.7993, 3804.426
301.2814, 3792.638
301.7635, 3767.075
302.2456, 3750.882
302.7278, 3756.700
303.2099, 3772.306
303.6920, 3782.022
304.1741, 3782.803
304.6562, 3777.779
305.1383, 3767.588
305.6205, 3751.591
306.1026, 3742.807
306.5847, 3747.226
307.0668, 3757.396
307.5489, 3767.069
308.0310, 3775.445
308.5132, 3781.204
308.9953, 3782.365
309.4774, 3778.686
309.9595, 3776.263
310.4416, 3776.530
310.9237, 3777.299
311.4059, 3776.086
311.8880, 3773.090
312.3701, 3770.827
312.8522, 3769.153
313.3343, 3769.624
313.8164, 3783.481
314.2986, 3828.470
314.7807, 3870.397
315.2628, 3885.455
315.7449, 3878.359
316.2270, 3871.181
316.7091, 3877.080
317.1913, 3894.308
317.6734, 3911.448
318.1555, 3934.425
318.6376, 3951.266
319.1197, 3952.301
319.6018, 3943.614
320.0840, 3939.169
320.5661, 3945.710
321.0482, 3961.056
321.5303, 3978.660
322.0124, 4003.787
322.4945, 4023.896
322.9767, 4032.688
323.4588, 4035.745
323.9409, 4039.875
324.4230, 4047.278
324.9051, 4059.957
325.3872, 4083.392
325.8694, 4131.657
326.3515, 4165.303
326.8336, 4173.438
327.3157, 4169.250
327.7978, 4161.891
328.2799, 4154.538
328.7621, 4154.032
329.2442, 4171.392
329.7263, 4218.589
330.2084, 4253.870
330.6905, 4270.314
331.1726, 4280.401
331.6548, 4292.437
332.1369, 4307.579
332.6190, 4322.705
333.1011, 4333.985
333.5832, 4339.556
334.0653, 4352.388
334.5475, 4372.392
335.0296, 4398.097
335.5117, 4434.119
335.9938, 4476.159
336.4759, 4514.394
336.9580, 4542.087
337.4402, 4559.188
337.9223, 4560.195
338.4044, 4524.733
338.8865, 4495.849
339.3686, 4485.200
339.8507, 4488.719
340.3329, 4498.565
340.8150, 4510.454
341.2971, 4524.716
341.7792, 4543.505
342.2613, 4586.803
342.7434, 4608.076
343.2256, 4582.962
343.7077, 4541.928
344.1898, 4520.215
344.6719, 4531.417
345.1540, 4558.165
345.6361, 4564.678
346.1183, 4537.938
346.6004, 4515.376
347.0825, 4498.631
347.5646, 4486.984
348.0467, 4480.663
348.5288, 4479.439
349.0110, 4481.559
349.4931, 4486.053
349.9752, 4494.688
350.4573, 4498.630
350.9394, 4491.949
351.4215, 4485.272
351.9037, 4485.001
352.3858, 4489.867
352.8679, 4493.208
353.3500, 4486.510
353.8321, 4470.382
354.3142, 4466.563
354.7964, 4487.092
355.2785, 4505.767
355.7606, 4509.479
356.2427, 4504.008
356.7248, 4500.862
357.2069, 4505.725
357.6891, 4517.827
358.1712, 4537.461
358.6533, 4571.552
359.1354, 4597.426
359.6175, 4601.521
360.0996, 4594.732
360.5818, 4588.369
361.0639, 4585.744
361.5460, 4585.408
362.0281, 4583.742
362.5102, 4579.751
362.9923, 4583.362
363.4745, 4599.243
363.9566, 4623.950
364.4387, 4657.744
364.9208, 4702.781
365.4029, 4741.122
365.8850, 4754.621
366.3672, 4747.855
366.8493, 4745.088
367.3314, 4749.028
367.8135, 4762.572
368.2956, 4792.035
368.7777, 4835.997
369.2599, 4877.183
369.7420, 4904.766
370.2241, 4925.912
370.7062, 4953.310
371.1883, 4989.232
371.6704, 5026.429
372.1526, 5058.480
372.6347, 5086.549
373.1168, 5117.160
373.5989, 5148.616
374.0810, 5184.830
374.5631, 5235.486
375.0453, 5297.964
375.5274, 5349.525
376.0095, 5372.784
376.4916, 5376.058
376.9737, 5396.434
377.4558, 5440.336
377.9380, 5491.630
378.4201, 5548.110
378.9022, 5607.648
379.3843, 5666.292
379.8664, 5722.702
380.3485, 5776.229
380.8307, 5823.637
381.3128, 5855.502
381.7949, 5899.369
382.2770, 5974.446
382.7591, 6052.820
383.2412, 6101.369
383.7234, 6116.542
384.2055, 6126.482
384.6876, 6165.164
385.1697, 6242.516
385.6518, 6306.843
386.1339, 6347.471
386.6161, 6387.412
387.0982, 6440.204
387.5803, 6502.665
388.0624, 6561.473
388.5445, 6605.661
389.0266, 6637.928
389.5088, 6686.520
389.9909, 6766.796
390.4730, 6847.014
390.9551, 6928.147
391.4372, 7003.813
391.9193, 7061.193
392.4015, 7093.896
392.8836, 7120.749
393.3657, 7187.297
393.8478, 7321.586
394.3299, 7424.582
394.8120, 7453.519
395.2942, 7469.224
395.7763, 7515.733
396.2584, 7598.215
396.7405, 7684.998
397.2226, 7742.118
397.7047, 7769.105
398.1869, 7804.004
398.6690, 7852.562
399.1511, 7905.975
399.6332, 7954.447
400.1153, 8002.276
400.5974, 8062.860
401.0796, 8159.817
401.5617, 8269.591
402.0438, 8331.748
402.5259, 8332.757
403.0080, 8339.937
403.4901, 8401.519
403.9723, 8489.447
404.4544, 8560.604
404.9365, 8599.819
405.4186, 8634.250
405.9007, 8689.652
406.3828, 8761.479
406.8650, 8823.895
407.3471, 8864.243
407.8292, 8895.125
408.3113, 8939.711
408.7934, 9001.345
409.2755, 9056.251
409.7577, 9092.757
410.2398, 9119.566
410.7219, 9145.894
411.2040, 9173.338
411.6861, 9206.187
412.1682, 9252.680
412.6504, 9315.955
413.1325, 9355.175
413.6146, 9360.145
414.0967, 9351.806
414.5788, 9332.736
415.0609, 9309.245
415.5431, 9295.368
416.0252, 9299.921
416.5073, 9320.592
416.9894, 9346.630
417.4715, 9384.588
417.9536, 9420.592
418.4358, 9461.688
418.9179, 9496.403
419.4000, 9508.392
419.8821, 9494.108
420.3642, 9470.560
420.8463, 9464.395
421.3285, 9483.651
421.8106, 9498.440
422.2927, 9501.771
422.7748, 9506.913
423.2569, 9519.188
423.7390, 9539.023
424.2212, 9565.084
424.7033, 9596.683
425.1854, 9633.439
425.6675, 9674.826
426.1496, 9722.456
426.6317, 9771.610
427.1139, 9826.076
427.5960, 9878.914
428.0781, 9920.758
428.5602, 9946.666
429.0423, 9964.438
429.5244, 9977.462
430.0066, 9985.242
430.4887, 10011.97
430.9708, 10072.46
431.4529, 10148.48
431.9350, 10221.50
432.4171, 10292.12
432.8993, 10351.89
433.3814, 10387.18
433.8635, 10411.30
434.3456, 10449.37
434.8277, 10505.35
435.3098, 10569.53
435.7920, 10640.40
436.2741, 10715.38
436.7562, 10768.55
437.2383, 10771.55
437.7204, 10777.73
438.2025, 10826.41
438.6847, 10905.11
439.1668, 10975.46
439.6489, 11017.97
440.1310, 11042.33
440.6131, 11074.70
441.0952, 11138.24
441.5774, 11177.03
442.0595, 11156.81
442.5416, 11129.53
443.0237, 11150.37
443.5058, 11224.36
443.9879, 11308.62
444.4701, 11354.29
444.9522, 11354.52
445.4343, 11363.63
445.9164, 11406.25
446.3985, 11432.67
446.8806, 11413.19
447.3628, 11367.34
447.8449, 11331.38
448.3270, 11325.37
448.8091, 11339.74
449.2912, 11356.51
449.7733, 11386.84
450.2555, 11387.62
450.7376, 11318.12
451.2197, 11233.16
451.7018, 11174.54
452.1839, 11149.21
452.6660, 11128.92
453.1482, 11086.29
453.6303, 11028.06
454.1124, 10990.13
454.5945, 10986.60
455.0766, 10981.08
455.5587, 10939.56
456.0409, 10871.18
456.5230, 10799.39
457.0051, 10730.62
457.4872, 10658.96
457.9693, 10573.71
458.4514, 10478.05
458.9336, 10393.60
459.4156, 10334.28
459.8978, 10288.12
460.3799, 10221.58
460.8620, 10120.00
461.3441, 10029.40
461.8262, 9961.000
462.3083, 9905.516
462.7905, 9857.254
463.2726, 9813.553
463.7547, 9768.031
464.2368, 9712.254
464.7189, 9643.648
465.2010, 9587.932
465.6832, 9562.170
466.1653, 9530.676
466.6474, 9468.294
467.1295, 9395.344
467.6116, 9349.380
468.0938, 9352.015
468.5759, 9376.438
469.0580, 9355.721
469.5401, 9262.372
470.0222, 9202.206
470.5043, 9228.908
470.9865, 9268.979
471.4686, 9275.556
471.9507, 9246.091
472.4328, 9210.063
472.9149, 9182.395
473.3970, 9165.136
473.8792, 9169.881
474.3613, 9204.322
474.8434, 9239.190
475.3255, 9255.336
475.8076, 9258.319
476.2897, 9258.756
476.7719, 9255.493
477.2540, 9253.530
477.7361, 9249.489
478.2182, 9248.771
478.7003, 9273.349
479.1824, 9335.595
479.6646, 9408.099
480.1467, 9445.720
480.6288, 9434.103
481.1109, 9433.224
481.5930, 9442.161
482.0751, 9465.619
482.5573, 9516.062
483.0394, 9586.818
483.5215, 9653.610
484.0036, 9698.729
484.4857, 9725.106
484.9678, 9752.254
485.4500, 9780.679
485.9321, 9809.077
486.4142, 9831.457
486.8963, 9856.665
487.3784, 9895.995
487.8605, 9951.154
488.3427, 10009.70
488.8248, 10056.57
489.3069, 10091.14
489.7890, 10128.78
490.2711, 10171.13
490.7532, 10215.86
491.2354, 10264.87
491.7175, 10315.22
492.1996, 10360.73
492.6817, 10397.36
493.1638, 10429.57
493.6459, 10459.45
494.1281, 10487.78
494.6102, 10526.07
495.0923, 10583.55
495.5744, 10647.32
496.0565, 10692.82
496.5386, 10716.60
497.0208, 10743.05
497.5029, 10778.07
497.9850, 10818.18
498.4671, 10858.32
498.9492, 10898.79
499.4313, 10948.40
499.9135, 11018.11
500.3956, 11103.96
500.8777, 11155.52
501.3598, 11151.82
501.8419, 11138.52
502.3240, 11112.45
502.8062, 11085.16
503.2883, 11069.58
503.7704, 11069.31
504.2525, 11076.31
504.7346, 11084.62
505.2167, 11097.14
505.6989, 11089.18
506.1810, 11047.46
506.6631, 10998.96
507.1452, 10962.46
507.6273, 10929.22
508.1094, 10876.89
508.5916, 10783.05
509.0737, 10681.83
509.5558, 10635.59
510.0379, 10641.47
510.5200, 10606.37
511.0021, 10481.84
511.4843, 10320.47
511.9664, 10203.13
512.4485, 10133.90
512.9306, 10064.58
513.4127, 9979.928
513.8948, 9891.913
514.3770, 9817.168
514.8591, 9753.542
515.3412, 9679.614
515.8233, 9577.832
516.3054, 9454.286
516.7875, 9350.948
517.2697, 9289.522
517.7518, 9221.454
518.2339, 9139.100
518.7160, 9049.448
519.1981, 8958.187
519.6802, 8866.713
520.1624, 8775.656
520.6445, 8686.196
521.1266, 8598.446
521.6087, 8505.532
522.0908, 8393.007
522.5729, 8298.540
523.0551, 8249.083
523.5372, 8223.575
524.0193, 8190.564
524.5014, 8141.484
524.9835, 8079.816
525.4656, 8002.865
525.9478, 7914.367
526.4299, 7832.548
526.9120, 7763.363
527.3941, 7699.647
527.8762, 7630.607
528.3583, 7555.458
528.8405, 7495.814
529.3226, 7467.743
529.8047, 7443.109
530.2868, 7398.549
530.7689, 7341.563
531.2510, 7299.038
531.7332, 7286.520
532.2153, 7284.349
532.6974, 7240.617
533.1795, 7109.686
533.6616, 7021.092
534.1437, 7004.948
534.6259, 7002.862
535.1080, 6980.491
535.5901, 6938.326
536.0722, 6894.088
536.5543, 6858.696
537.0364, 6831.595
537.5186, 6816.501
538.0007, 6820.904
538.4828, 6808.293
538.9649, 6750.730
539.4470, 6677.417
539.9291, 6622.941
540.4113, 6591.825
540.8934, 6562.948
541.3755, 6526.602
541.8576, 6485.818
542.3397, 6446.199
542.8218, 6408.238
543.3040, 6367.771
543.7861, 6321.998
544.2682, 6270.995
544.7503, 6215.125
545.2324, 6141.769
545.7145, 6079.732
546.1967, 6047.349
546.6788, 6022.921
547.1609, 5977.568
547.6430, 5908.124
548.1251, 5841.560
548.6072, 5813.037
549.0894, 5824.567
549.5715, 5810.424
550.0536, 5753.300
550.5357, 5694.509
551.0178, 5650.339
551.4999, 5613.523
551.9821, 5573.270
552.4642, 5525.745
552.9463, 5477.999
553.4284, 5436.599
553.9105, 5400.358
554.3926, 5367.267
554.8748, 5338.994
555.3569, 5305.237
555.8390, 5250.330
556.3211, 5175.145
556.8032, 5123.758
557.2853, 5126.249
557.7675, 5121.658
558.2496, 5074.440
558.7317, 5002.458
559.2138, 4936.221
559.6959, 4887.085
560.1780, 4848.339
560.6602, 4811.215
561.1423, 4776.890
561.6244, 4740.039
562.1065, 4698.912
562.5886, 4657.256
563.0707, 4616.653
563.5529, 4576.352
564.0350, 4533.204
564.5171, 4484.171
564.9992, 4437.418
565.4813, 4404.689
565.9634, 4385.375
566.4456, 4370.472
566.9277, 4360.126
567.4098, 4349.771
567.8919, 4336.145
568.3740, 4319.263
568.8561, 4294.148
569.3383, 4247.245
569.8204, 4203.513
570.3025, 4184.122
570.7846, 4180.405
571.2667, 4168.903
571.7488, 4139.652
572.2310, 4105.228
572.7131, 4090.445
573.1952, 4109.033
573.6773, 4109.818
574.1594, 4080.408
574.6415, 4046.612
575.1237, 4015.921
575.6058, 3989.701
576.0879, 3968.527
576.5700, 3953.091
577.0521, 3941.749
577.5342, 3934.342
578.0164, 3930.941
578.4985, 3920.093
578.9806, 3895.741
579.4627, 3868.367
579.9448, 3849.563
580.4269, 3838.263
580.9091, 3825.820
581.3912, 3811.922
581.8733, 3795.154
582.3554, 3769.724
582.8375, 3740.645
583.3196, 3721.687
583.8018, 3719.033
584.2839, 3722.336
584.7660, 3712.092
585.2481, 3678.100
585.7302, 3660.010
586.2123, 3672.279
586.6945, 3684.956
587.1766, 3688.563
587.6587, 3682.842
588.1408, 3666.982
588.6229, 3637.299
589.1050, 3608.073
589.5872, 3603.614
590.0693, 3622.853
590.5514, 3637.254
591.0335, 3641.885
591.5156, 3638.552
591.9977, 3626.029
592.4799, 3605.621
592.9620, 3586.517
593.4441, 3564.738
593.9262, 3549.757
594.4083, 3557.169
594.8904, 3573.818
595.3726, 3569.069
595.8547, 3532.626
596.3368, 3489.302
596.8189, 3477.356
597.3010, 3505.845
597.7831, 3522.145
598.2653, 3519.034
598.7474, 3510.419
599.2295, 3495.924
599.7116, 3480.027
600.1937, 3469.339
600.6758, 3466.813
601.1580, 3467.204
601.6401, 3467.424
602.1222, 3466.416
602.6043, 3457.226
603.0864, 3436.640
603.5685, 3416.014
604.0507, 3405.537
604.5328, 3404.293
605.0149, 3399.894
605.4970, 3383.950
605.9791, 3374.689
606.4612, 3387.947
606.9434, 3407.213
607.4255, 3407.261
607.9076, 3384.606
608.3897, 3361.513
608.8718, 3364.377
609.3539, 3392.329
609.8361, 3403.594
610.3182, 3389.047
610.8003, 3372.679
611.2824, 3364.818
611.7645, 3357.981
612.2466, 3341.549
612.7288, 3312.803
613.2109, 3288.372
613.6930, 3279.223
614.1751, 3281.837
614.6572, 3294.247
615.1393, 3315.703
615.6215, 3330.638
616.1036, 3329.038
616.5857, 3313.995
617.0678, 3296.527
617.5499, 3272.635
618.0320, 3252.007
618.5142, 3233.874
618.9963, 3220.021
619.4784, 3213.433
619.9605, 3212.693
620.4426, 3212.995
620.9247, 3211.199
621.4069, 3207.955
621.8890, 3204.412
622.3711, 3200.109
622.8532, 3198.739
623.3353, 3205.468
623.8174, 3211.110
624.2996, 3203.695
624.7817, 3184.325
625.2638, 3170.627
625.7459, 3171.361
626.2280, 3175.952
626.7101, 3176.325
627.1923, 3173.815
627.6744, 3173.483
628.1565, 3177.407
628.6386, 3181.451
629.1207, 3178.244
629.6028, 3164.859
630.0850, 3156.124
630.5671, 3153.262
631.0492, 3154.170
631.5313, 3160.594
632.0134, 3169.730
632.4955, 3177.947
632.9777, 3184.314
633.4598, 3188.055
633.9419, 3189.829
634.4240, 3188.419
634.9061, 3176.288
635.3882, 3150.499
635.8704, 3130.080
636.3525, 3131.780
636.8346, 3151.240
637.3167, 3160.266
637.7988, 3150.698
638.2809, 3143.016
638.7631, 3140.940
639.2452, 3141.979
639.7273, 3144.045
640.2094, 3146.833
640.6915, 3150.539
641.1736, 3154.270
641.6558, 3159.961
642.1379, 3177.820
642.6200, 3213.428
643.1021, 3235.607
643.5842, 3222.380
644.0663, 3204.304
644.5485, 3218.570
645.0306, 3263.994
645.5127, 3298.437
645.9948, 3301.476
646.4769, 3296.660
646.9590, 3300.406
647.4412, 3311.471
647.9233, 3324.746
648.4054, 3338.173
648.8875, 3353.360
649.3696, 3374.490
649.8517, 3404.934
650.3339, 3422.861
650.8160, 3410.293
651.2981, 3406.497
651.7802, 3439.792
652.2623, 3483.627
652.7444, 3496.615
653.2266, 3464.330
653.7087, 3428.296
654.1908, 3426.355
654.6729, 3442.692
655.1550, 3441.704
655.6371, 3419.742
656.1193, 3393.656
656.6014, 3373.844
657.0835, 3358.744
657.5656, 3342.944
658.0477, 3335.860
658.5298, 3314.448
659.0120, 3263.421
659.4941, 3210.627
659.9762, 3173.541
660.4583, 3151.573
660.9404, 3137.361
661.4225, 3128.440
661.9047, 3120.775
662.3868, 3107.124
662.8689, 3087.587
663.3510, 3066.723
663.8331, 3045.207
664.3152, 3023.283
664.7974, 2999.681
665.2795, 2974.952
665.7616, 2956.762
666.2437, 2946.479
666.7258, 2941.363
667.2079, 2948.772
667.6901, 2956.772
668.1722, 2947.116
668.6543, 2918.541
669.1364, 2889.176
669.6185, 2877.363
670.1006, 2879.397
670.5828, 2871.404
671.0649, 2849.030
671.5470, 2831.065
672.0291, 2827.435
672.5112, 2828.039
672.9933, 2819.615
673.4755, 2801.653
673.9576, 2788.943
674.4397, 2790.249
674.9218, 2794.430
675.4039, 2794.508
675.8860, 2790.228
676.3682, 2780.635
676.8503, 2765.508
677.3324, 2750.001
677.8145, 2742.519
678.2966, 2744.465
678.7787, 2743.636
679.2609, 2742.706
679.7430, 2734.834
680.2251, 2708.135
680.7072, 2677.703
681.1893, 2664.629
681.6714, 2674.302
682.1536, 2686.522
682.6357, 2691.882
683.1178, 2692.276
683.5999, 2690.724
684.0820, 2686.929
684.5641, 2676.733
685.0463, 2656.932
685.5284, 2633.124
686.0105, 2618.392
686.4926, 2614.823
686.9747, 2615.380
687.4568, 2625.494
687.9390, 2634.259
688.4211, 2638.429
688.9032, 2637.746
689.3853, 2631.191
689.8674, 2616.802
690.3495, 2602.511
690.8317, 2591.172
691.3138, 2585.613
691.7959, 2597.952
692.2780, 2628.641
692.7601, 2652.482
693.2422, 2651.260
693.7244, 2629.997
694.2065, 2607.138
694.6886, 2570.050
695.1707, 2552.844
695.6528, 2575.004
696.1349, 2599.094
696.6171, 2601.703
697.0992, 2587.213
697.5813, 2571.060
698.0634, 2558.587
698.5455, 2551.183
699.0276, 2552.746
699.5098, 2560.977
699.9919, 2566.905
700.4740, 2568.552
700.9561, 2571.740
701.4382, 2582.160
701.9203, 2598.451
702.4025, 2609.744
702.8846, 2616.474
703.3667, 2617.307
703.8488, 2608.539
704.3309, 2596.696
704.8130, 2582.152
705.2952, 2568.436
705.7773, 2565.333
706.2594, 2582.688
706.7415, 2606.579
707.2236, 2617.732
707.7057, 2617.527
708.1879, 2612.467
708.6700, 2602.660
709.1521, 2595.863
709.6342, 2599.845
710.1163, 2614.188
710.5984, 2628.900
711.0806, 2649.285
711.5627, 2663.055
712.0448, 2662.091
712.5269, 2658.368
713.0090, 2665.698
713.4911, 2681.700
713.9733, 2689.421
714.4554, 2673.375
714.9375, 2648.722
715.4196, 2639.818
715.9017, 2645.293
716.3839, 2655.898
716.8660, 2670.852
717.3481, 2683.030
717.8302, 2683.674
718.3123, 2672.850
718.7944, 2670.862
719.2766, 2687.038
719.7587, 2699.219
720.2408, 2702.952
720.7229, 2701.525
721.2050, 2692.905
721.6871, 2680.649
722.1693, 2678.896
722.6514, 2702.776
723.1335, 2736.119
723.6156, 2751.123
724.0977, 2750.066
724.5798, 2750.263
725.0620, 2756.537
725.5441, 2763.812
726.0262, 2767.509
726.5083, 2767.620
726.9904, 2763.193
727.4725, 2737.344
727.9547, 2728.997
728.4368, 2756.715
728.9189, 2795.734
729.4010, 2828.903
729.8831, 2852.365
730.3652, 2864.809
730.8474, 2862.368
731.3295, 2851.637
731.8116, 2837.438
732.2937, 2822.193
732.7758, 2820.210
733.2579, 2836.300
733.7401, 2857.032
734.2222, 2869.570
734.7043, 2874.141
735.1864, 2877.604
735.6685, 2884.916
736.1506, 2884.194
736.6328, 2862.060
737.1149, 2840.708
737.5970, 2841.756
738.0791, 2861.851
738.5612, 2877.657
739.0433, 2872.726
739.5255, 2863.478
740.0076, 2873.188
740.4897, 2894.350
740.9718, 2900.143
741.4539, 2884.359
741.9360, 2868.163
742.4182, 2872.563
742.9003, 2893.602
743.3824, 2896.015
743.8645, 2866.942
744.3466, 2841.149
744.8287, 2818.976
745.3109, 2804.496
745.7930, 2805.592
746.2751, 2817.700
746.7572, 2823.911
747.2393, 2811.584
747.7214, 2800.630
748.2036, 2815.941
748.6857, 2842.010
749.1678, 2844.304
749.6499, 2819.329
750.1320, 2794.989
750.6141, 2793.298
751.0963, 2808.111
751.5784, 2814.448
752.0605, 2807.825
752.5426, 2805.431
753.0247, 2812.849
753.5068, 2821.266
753.9890, 2828.522
754.4711, 2832.480
754.9532, 2826.457
755.4353, 2800.887
755.9174, 2780.241
756.3995, 2783.159
756.8817, 2794.212
757.3638, 2794.956
757.8459, 2784.580
758.3280, 2770.121
758.8101, 2755.169
759.2922, 2743.104
759.7744, 2742.150
760.2565, 2753.249
760.7386, 2767.670
761.2207, 2790.107
761.7028, 2804.757
762.1849, 2796.337
762.6671, 2773.895
763.1492, 2761.302
763.6313, 2764.166
764.1134, 2764.902
764.5955, 2753.793
765.0776, 2744.077
765.5598, 2750.529
766.0419, 2766.014
766.5240, 2772.030
767.0061, 2760.409
767.4882, 2742.647
767.9703, 2731.645
768.4525, 2727.065
768.9346, 2729.836
769.4167, 2741.364
769.8988, 2747.555
770.3809, 2738.542
770.8630, 2723.729
771.3452, 2722.379
771.8273, 2742.202
772.3094, 2753.130
772.7915, 2749.498
773.2736, 2743.734
773.7557, 2740.746
774.2379, 2738.662
774.7200, 2733.261
775.2021, 2723.865
775.6842, 2717.489
776.1663, 2723.708
776.6484, 2733.878
777.1306, 2732.436
777.6127, 2721.415
778.0948, 2712.118
778.5769, 2708.439
779.0590, 2710.112
779.5411, 2718.344
780.0233, 2733.467
780.5054, 2739.063
780.9875, 2728.212
781.4696, 2719.183
781.9517, 2718.790
782.4338, 2720.044
782.9160, 2716.102
783.3981, 2707.646
783.8802, 2702.762
784.3623, 2704.317
784.8444, 2710.140
785.3265, 2723.996
785.8087, 2739.073
786.2908, 2742.958
786.7729, 2735.010
787.2550, 2726.864
787.7371, 2728.374
788.2192, 2734.841
788.7014, 2731.389
789.1835, 2716.615
789.6656, 2706.738
790.1477, 2707.722
790.6298, 2706.806
791.1119, 2689.346
791.5941, 2661.515
792.0762, 2651.768
792.5583, 2676.474
793.0404, 2692.724
793.5225, 2684.389
794.0046, 2674.213
794.4868, 2682.238
794.9689, 2701.157
795.4510, 2711.835
795.9331, 2706.111
796.4152, 2691.499
796.8973, 2671.792
797.3795, 2650.044
797.8616, 2633.087
798.3437, 2621.542
798.8258, 2617.549
799.3079, 2623.038
799.7900, 2633.381
800.2722, 2640.245
800.7543, 2643.029
801.2364, 2645.554
801.7185, 2652.519
802.2006, 2652.569
802.6827, 2632.888
803.1649, 2610.425
803.6470, 2607.252
804.1291, 2625.381
804.6112, 2637.247
805.0933, 2627.692
805.5754, 2612.927
806.0576, 2601.091
806.5397, 2593.939
807.0218, 2595.908
807.5039, 2606.730
807.9860, 2618.306
808.4681, 2624.796
808.9503, 2625.177
809.4324, 2612.405
809.9145, 2585.215
810.3966, 2568.153
810.8787, 2568.866
811.3608, 2575.523
811.8430, 2580.082
812.3251, 2582.082
812.8072, 2577.981
813.2893, 2557.542
813.7714, 2545.896
814.2535, 2551.889
814.7357, 2560.941
815.2178, 2563.077
815.6999, 2560.660
816.1820, 2562.383
816.6641, 2573.443
817.1462, 2579.591
817.6284, 2562.531
818.1105, 2536.285
818.5926, 2525.152
819.0747, 2528.283
819.5568, 2531.272
820.0389, 2527.430
820.5211, 2520.020
821.0032, 2512.646
821.4853, 2504.752
821.9674, 2508.577
822.4495, 2531.860
822.9316, 2546.989
823.4138, 2540.102
823.8959, 2522.940
824.3780, 2509.925
824.8601, 2501.080
825.3422, 2491.763
825.8243, 2472.261
826.3065, 2463.180
826.7886, 2483.422
827.2707, 2511.126
827.7528, 2520.729
828.2349, 2512.250
828.7170, 2505.648
829.1992, 2515.824
829.6813, 2529.066
830.1633, 2524.063
830.6454, 2506.736
831.1276, 2495.943
831.6097, 2494.646
832.0918, 2499.254
832.5739, 2508.161
833.0560, 2519.228
833.5381, 2526.969
834.0203, 2531.964
834.5024, 2531.101
834.9845, 2518.902
835.4666, 2508.612
835.9487, 2512.906
836.4308, 2520.624
836.9130, 2512.423
837.3951, 2482.509
837.8772, 2463.060
838.3593, 2472.988
838.8414, 2484.313
839.3235, 2478.538
839.8057, 2463.791
840.2878, 2451.474
840.7699, 2445.043
841.2520, 2444.985
841.7341, 2456.961
842.2162, 2471.280
842.6984, 2467.282
843.1805, 2448.535
843.6626, 2432.609
844.1447, 2423.584
844.6268, 2419.982
845.1089, 2421.796
845.5911, 2426.830
846.0732, 2424.121
846.5553, 2408.859
847.0374, 2399.057
847.5195, 2399.771
848.0016, 2401.990
848.4838, 2401.506
848.9659, 2398.642
849.4480, 2393.866
849.9301, 2386.990
850.4122, 2378.849
850.8943, 2363.261
851.3765, 2352.673
851.8586, 2364.570
852.3407, 2384.419
852.8228, 2383.531
853.3049, 2355.642
853.7870, 2328.126
854.2692, 2328.795
854.7513, 2343.904
855.2334, 2349.388
855.7155, 2346.279
856.1976, 2337.482
856.6797, 2323.645
857.1619, 2313.633
857.6440, 2317.533
858.1261, 2330.645
858.6082, 2325.880
859.0903, 2295.285
859.5724, 2272.796
860.0546, 2268.256
860.5367, 2264.736
861.0188, 2245.741
861.5009, 2220.383
861.9830, 2212.926
862.4651, 2236.873
862.9473, 2246.695
863.4294, 2219.781
863.9115, 2190.889
864.3936, 2182.678
864.8757, 2185.861
865.3578, 2184.191
865.8400, 2173.494
866.3221, 2160.303
866.8042, 2146.173
867.2863, 2134.510
867.7684, 2133.429
868.2505, 2138.706
868.7327, 2135.973
869.2148, 2122.315
869.6969, 2109.902
870.1790, 2110.915
870.6611, 2092.168
871.1432, 2106.247
871.6254, 2069.294
872.1075, 2046.577
872.5896, 2046.097
873.0717, 2053.547
873.5538, 2062.996
874.0359, 2072.233
874.5181, 2074.881
875.0002, 2067.144
875.4823, 2061.135
875.9644, 2057.873
876.4465, 2055.275
876.9286, 2052.792
877.4108, 2050.338
877.8929, 2048.166
878.3750, 2046.231
878.8571, 2043.303
879.3392, 2042.517
879.8214, 2036.802
880.3035, 2011.871
880.7856, 1981.844
881.2677, 1973.243
881.7498, 1986.545
882.2319, 1998.109
882.7141, 1990.748
883.1962, 1976.182
883.6783, 1977.983
884.1604, 1992.813
884.6425, 1998.308
885.1246, 1991.665
885.6068, 1982.002
886.0889, 1973.812
886.5710, 1966.407
887.0531, 1958.062
887.5352, 1947.765
888.0173, 1942.285
888.4995, 1942.426
888.9816, 1946.054
889.4637, 1956.303
889.9458, 1966.961
890.4279, 1972.435
890.9100, 1972.772
891.3922, 1969.565
891.8743, 1957.222
892.3564, 1948.935
892.8385, 1949.485
893.3206, 1955.242
893.8027, 1965.041
894.2849, 1977.058
894.7670, 1987.648
895.2491, 1995.131
895.7312, 2002.172
896.2133, 2010.584
896.6954, 2020.305
897.1776, 2029.579
897.6597, 2039.875
898.1418, 2057.446
898.6239, 2084.280
899.1060, 2112.042
899.5881, 2129.340
900.0703, 2140.861
900.5524, 2170.961
901.0345, 2220.542
901.5166, 2266.735
901.9987, 2303.904
902.4808, 2338.212
902.9630, 2372.464
903.4451, 2409.127
903.9272, 2458.939
904.4093, 2529.492
904.8914, 2598.158
905.3735, 2667.663
905.8557, 2730.978
906.3378, 2777.992
906.8199, 2820.698
907.3020, 2876.325
907.7841, 2947.663
908.2662, 3019.201
908.7484, 3096.264
909.2305, 3162.694
909.7126, 3220.485
910.1947, 3257.054
910.6768, 3252.695
911.1589, 3211.409
911.6411, 3158.808
912.1232, 3107.377
912.6053, 3052.575
913.0874, 2992.246
913.5695, 2924.463
914.0516, 2840.608
914.5338, 2744.380
915.0159, 2651.173
915.4980, 2568.065
915.9801, 2496.887
916.4622, 2445.894
916.9443, 2410.510
917.4265, 2355.809
917.9086, 2280.743
918.3907, 2218.976
918.8728, 2181.609
919.3549, 2153.939
919.8370, 2120.946
920.3192, 2084.933
920.8013, 2062.785
921.2834, 2060.291
921.7655, 2057.739
922.2476, 2054.718
922.7297, 2049.831
923.2119, 2040.061
923.6940, 2028.683
924.1761, 2022.174
924.6582, 2022.513
925.1403, 2019.797
925.6224, 2006.848
926.1046, 1997.422
926.5867, 2003.271
927.0688, 2011.879
927.5509, 2005.856
928.0330, 1986.992
928.5151, 1975.782
928.9973, 1986.092
929.4794, 1999.029
929.9615, 2000.217
930.4436, 1996.405
930.9257, 1995.329
931.4078, 1997.500
931.8900, 2001.142
932.3721, 2005.486
932.8542, 2010.794
933.3363, 2020.367
933.8184, 2030.306
934.3005, 2024.333
934.7827, 2006.714
935.2648, 2009.117
935.7469, 2040.281
936.2290, 2073.019
936.7111, 2083.133
937.1932, 2075.541
937.6754, 2064.734
938.1575, 2049.028
938.6396, 2046.906
939.1217, 2065.793
939.6038, 2080.260
940.0859, 2074.388
940.5681, 2058.460
941.0502, 2049.881
941.5323, 2047.654
942.0144, 2058.588
942.4965, 2100.828
942.9786, 2130.193
943.4608, 2126.422
943.9429, 2115.684
944.4250, 2122.085
944.9071, 2140.921
945.3892, 2148.045
945.8713, 2129.447
946.3535, 2117.279
946.8356, 2127.193
947.3177, 2138.998
947.7998, 2132.836
948.2819, 2121.131
948.7640, 2130.088
949.2462, 2165.082
949.7283, 2194.456
950.2104, 2195.543
950.6925, 2187.096
951.1746, 2183.341
951.6567, 2182.628
952.1389, 2181.738
952.6210, 2180.426
953.1031, 2180.764
953.5852, 2184.322
954.0673, 2188.103
954.5494, 2184.328
955.0316, 2178.538
955.5137, 2190.581
955.9958, 2217.531
956.4779, 2231.732
956.9600, 2222.924
957.4421, 2209.221
957.9243, 2211.633
958.4064, 2225.641
958.8885, 2229.224
959.3706, 2221.622
959.8527, 2216.975
960.3348, 2217.186
960.8170, 2223.581
961.2991, 2239.328
961.7812, 2258.288
962.2633, 2265.470
962.7454, 2257.985
963.2275, 2251.316
963.7097, 2242.144
964.1918, 2240.613
964.6739, 2255.339
965.1560, 2273.687
965.6381, 2281.141
966.1202, 2278.934
966.6024, 2283.058
967.0845, 2307.799
967.5666, 2317.780
968.0487, 2291.829
968.5308, 2268.789
969.0129, 2274.905
969.4951, 2296.357
969.9772, 2310.318
970.4593, 2313.051
970.9414, 2311.300
971.4235, 2300.563
971.9056, 2293.693
972.3878, 2301.648
972.8699, 2314.073
973.3520, 2319.554
973.8341, 2318.228
974.3162, 2316.121
974.7983, 2315.111
975.2805, 2316.450
975.7626, 2320.671
976.2447, 2328.075
976.7268, 2343.638
977.2089, 2361.682
977.6910, 2368.676
978.1732, 2361.633
978.6553, 2349.363
979.1374, 2335.089
979.6195, 2325.259
980.1016, 2337.745
980.5837, 2362.226
981.0659, 2365.970
981.5480, 2347.836
982.0301, 2331.134
982.5122, 2327.758
982.9943, 2330.231
983.4764, 2326.500
983.9586, 2318.767
984.4407, 2323.395
984.9228, 2340.093
985.4049, 2344.905
985.8870, 2330.532
986.3691, 2316.029
986.8513, 2318.132
987.3334, 2329.522
987.8155, 2323.753
988.2976, 2331.937
988.7797, 2346.879
989.2618, 2336.766
989.7440, 2368.750
990.2261, 2364.440
990.7082, 2347.573
991.1903, 2347.935
991.6724, 2365.019
992.1545, 2377.001
992.6367, 2384.012
993.1188, 2385.147
993.6009, 2373.555
994.0830, 2364.683
994.5651, 2371.251
995.0472, 2385.478
995.5294, 2390.594
996.0115, 2383.550
996.4936, 2380.856
996.9757, 2388.852
997.4578, 2393.849
997.9399, 2387.678
998.4221, 2380.803
998.9042, 2382.353
999.3863, 2391.035
999.8684, 2401.337
1000.351, 2417.294
1000.833, 2422.626
1001.315, 2396.767
1001.797, 2376.273
1002.279, 2392.565
1002.761, 2422.284
1003.243, 2431.397
1003.725, 2417.379
1004.207, 2404.277
1004.690, 2401.464
1005.172, 2403.806
1005.654, 2413.629
1006.136, 2422.894
1006.618, 2421.607
1007.100, 2413.263
1007.582, 2406.585
1008.064, 2404.347
1008.547, 2404.944
1009.029, 2408.072
1009.511, 2412.700
1009.993, 2421.473
1010.475, 2429.241
1010.957, 2423.478
1011.439, 2407.160
1011.921, 2397.408
1012.403, 2402.783
1012.886, 2417.752
1013.368, 2444.128
1013.850, 2471.709
1014.332, 2479.948
1014.814, 2473.132
1015.296, 2464.525
1015.778, 2458.258
1016.260, 2456.520
1016.742, 2461.206
1017.225, 2470.535
1017.707, 2484.936
1018.189, 2501.149
1018.671, 2506.957
1019.153, 2502.099
1019.635, 2490.113
1020.117, 2472.284
1020.599, 2458.078
1021.082, 2457.372
1021.564, 2467.771
1022.046, 2483.102
1022.528, 2502.861
1023.010, 2521.738
1023.492, 2539.108
1023.974, 2550.162
1024.456, 2551.771
1024.938, 2549.798
1025.421, 2552.754
1025.903, 2560.355
1026.385, 2569.374
1026.867, 2580.073
1027.349, 2589.390
1027.831, 2596.198
1028.313, 2604.646
1028.795, 2618.495
1029.278, 2634.036
1029.760, 2642.586
1030.242, 2643.337
1030.724, 2644.025
1031.206, 2644.244
1031.688, 2645.362
1032.170, 2646.385
1032.652, 2651.934
1033.135, 2668.607
1033.617, 2691.676
1034.099, 2702.196
1034.581, 2693.100
1035.063, 2692.209
1035.545, 2703.041
1036.027, 2715.455
1036.509, 2727.253
1036.991, 2737.282
1037.474, 2743.798
1037.956, 2747.169
1038.438, 2751.403
1038.920, 2757.062
1039.402, 2762.464
1039.884, 2767.024
1040.366, 2772.066
1040.848, 2780.892
1041.330, 2788.696
1041.813, 2785.805
1042.295, 2771.106
1042.777, 2769.809
1043.259, 2798.525
1043.741, 2816.068
1044.223, 2804.095
1044.705, 2795.379
1045.187, 2814.248
1045.670, 2845.614
1046.152, 2864.616
1046.634, 2870.063
1047.116, 2864.873
1047.598, 2827.186
1048.080, 2809.110
1048.562, 2840.445
1049.044, 2878.153
1049.526, 2891.119
1050.009, 2887.285
1050.491, 2888.086
1050.973, 2897.308
1051.455, 2904.121
1051.937, 2901.020
1052.419, 2902.609
1052.901, 2923.409
1053.383, 2943.279
1053.865, 2936.612
1054.348, 2914.103
1054.830, 2913.597
1055.312, 2952.374
1055.794, 2979.316
1056.276, 2972.947
1056.758, 2962.706
1057.240, 2957.575
1057.722, 2959.155
1058.205, 2970.562
1058.687, 2989.870
1059.169, 3009.435
1059.651, 3029.141
1060.133, 3044.512
1060.615, 3053.719
1061.097, 3058.651
1061.579, 3055.711
1062.062, 3052.098
1062.544, 3057.916
1063.026, 3072.443
1063.508, 3084.643
1063.990, 3087.048
1064.472, 3094.143
1064.954, 3116.629
1065.436, 3140.228
1065.918, 3155.472
1066.401, 3165.315
1066.883, 3174.721
1067.365, 3184.360
1067.847, 3192.393
1068.329, 3198.232
1068.811, 3202.292
1069.293, 3200.967
1069.775, 3201.592
1070.257, 3211.079
1070.740, 3225.982
1071.222, 3241.511
1071.704, 3256.381
1072.186, 3267.639
1072.668, 3272.407
1073.150, 3275.535
1073.632, 3276.574
1074.114, 3279.372
1074.597, 3289.789
1075.079, 3303.390
1075.561, 3308.498
1076.043, 3303.568
1076.525, 3310.691
1077.007, 3348.626
1077.489, 3389.300
1077.971, 3425.894
1078.453, 3452.778
1078.936, 3461.492
1079.418, 3457.817
1079.900, 3448.447
1080.382, 3435.135
1080.864, 3440.258
1081.346, 3499.351
1081.828, 3547.794
1082.310, 3536.986
1082.792, 3511.875
1083.275, 3510.553
1083.757, 3531.010
1084.239, 3564.975
1084.721, 3611.278
1085.203, 3642.056
1085.685, 3631.198
1086.167, 3618.837
1086.649, 3625.821
1087.131, 3641.877
1087.614, 3659.219
1088.096, 3676.595
1088.578, 3694.210
1089.060, 3712.303
1089.542, 3728.595
1090.024, 3734.438
1090.506, 3747.860
1090.988, 3787.875
1091.471, 3831.849
1091.953, 3858.510
1092.435, 3870.821
1092.917, 3878.389
1093.399, 3882.454
1093.881, 3891.627
1094.363, 3911.108
1094.845, 3933.952
1095.328, 3960.259
1095.810, 3985.493
1096.292, 4004.700
1096.774, 4019.538
1097.256, 4035.183
1097.738, 4053.428
1098.220, 4067.345
1098.702, 4064.849
1099.184, 4069.988
1099.667, 4100.518
1100.149, 4136.856
1100.631, 4159.834
1101.113, 4174.426
1101.595, 4197.408
1102.077, 4234.461
1102.559, 4263.736
1103.041, 4269.520
1103.523, 4280.115
1104.006, 4313.385
1104.488, 4349.219
1104.970, 4369.720
1105.452, 4379.345
1105.934, 4388.033
1106.416, 4393.038
1106.898, 4418.741
1107.380, 4494.686
1107.863, 4558.031
1108.345, 4583.078
1108.827, 4594.813
1109.309, 4601.349
1109.791, 4611.914
1110.273, 4651.433
1110.755, 4733.726
1111.237, 4786.698
1111.719, 4776.000
1112.202, 4774.044
1112.684, 4795.254
1113.166, 4832.524
1113.648, 4895.314
1114.130, 4966.932
1114.612, 5006.729
1115.094, 5004.671
1115.576, 5014.898
1116.058, 5043.249
1116.541, 5075.196
1117.023, 5110.223
1117.505, 5146.277
1117.987, 5186.417
1118.469, 5224.353
1118.951, 5244.485
1119.433, 5242.372
1119.915, 5255.170
1120.398, 5283.083
1120.880, 5326.722
1121.362, 5396.074
1121.844, 5464.542
1122.326, 5519.599
1122.808, 5559.678
1123.290, 5578.257
1123.772, 5573.501
1124.255, 5583.760
1124.737, 5608.259
1125.219, 5653.372
1125.701, 5730.615
1126.183, 5800.306
1126.665, 5839.929
1127.147, 5860.964
1127.629, 5878.671
1128.111, 5893.792
1128.594, 5922.148
1129.076, 5966.427
1129.558, 6006.163
1130.040, 6038.014
1130.522, 6070.759
1131.004, 6108.964
1131.486, 6142.058
1131.968, 6183.207
1132.450, 6214.664
1132.933, 6250.400
1133.415, 6290.334
1133.897, 6339.174
1134.379, 6397.587
1134.861, 6440.844
1135.343, 6457.236
1135.825, 6468.171
1136.307, 6497.342
1136.790, 6538.826
1137.272, 6580.776
1137.754, 6620.526
1138.236, 6639.712
1138.718, 6639.390
1139.200, 6638.254
1139.682, 6643.348
1140.164, 6657.759
1140.646, 6683.687
1141.129, 6722.144
1141.611, 6783.896
1142.093, 6857.072
1142.575, 6915.382
1143.057, 6955.645
1143.539, 6967.503
1144.021, 6952.936
1144.503, 6944.537
1144.985, 6967.353
1145.468, 6999.129
1145.950, 7011.383
1146.432, 7017.010
1146.914, 7031.989
1147.396, 7057.267
1147.878, 7095.518
1148.360, 7144.162
1148.842, 7191.262
1149.325, 7231.174
1149.807, 7266.080
1150.289, 7296.774
1150.771, 7323.962
1151.253, 7341.868
1151.735, 7360.666
1152.217, 7398.221
1152.699, 7450.660
1153.182, 7497.467
1153.664, 7532.006
1154.146, 7560.054
1154.628, 7572.418
1155.110, 7593.180
1155.592, 7632.643
1156.074, 7689.826
1156.556, 7779.366
1157.038, 7881.842
1157.521, 7948.606
1158.003, 7965.971
1158.485, 7985.188
1158.967, 8015.386
1159.449, 8051.047
1159.931, 8092.058
1160.413, 8136.209
1160.895, 8185.887
1161.377, 8236.378
1161.860, 8275.033
1162.342, 8298.896
1162.824, 8345.991
1163.306, 8441.548
1163.788, 8514.184
1164.270, 8543.230
1164.752, 8570.901
1165.234, 8615.552
1165.717, 8671.378
1166.199, 8731.441
1166.681, 8795.905
1167.163, 8866.663
1167.645, 8946.507
1168.127, 9021.912
1168.609, 9091.740
1169.091, 9157.206
1169.573, 9218.731
1170.056, 9273.541
1170.538, 9314.078
1171.020, 9355.009
1171.502, 9453.335
1171.984, 9602.647
1172.466, 9688.350
1172.948, 9709.477
1173.430, 9749.035
1173.912, 9828.468
1174.395, 9923.661
1174.877, 10018.94
1175.359, 10113.20
1175.841, 10207.90
1176.323, 10299.29
1176.805, 10366.95
1177.287, 10424.48
1177.769, 10519.86
1178.252, 10651.96
1178.734, 10775.39
1179.216, 10869.49
1179.698, 10946.93
1180.180, 11008.21
1180.662, 11071.33
1181.144, 11157.73
1181.626, 11259.16
1182.109, 11372.04
1182.591, 11487.01
1183.073, 11575.93
1183.555, 11634.37
1184.037, 11718.63
1184.519, 11893.79
1185.001, 12054.60
1185.483, 12124.38
1185.965, 12182.17
1186.448, 12282.78
1186.930, 12415.32
1187.412, 12566.25
1187.894, 12730.17
1188.376, 12883.53
1188.858, 13020.80
1189.340, 13149.46
1189.822, 13259.98
1190.304, 13375.30
1190.787, 13509.93
1191.269, 13648.62
1191.751, 13778.97
1192.233, 13902.42
1192.715, 14019.20
1193.197, 14120.54
1193.679, 14257.11
1194.161, 14445.64
1194.644, 14616.71
1195.126, 14745.96
1195.608, 14889.32
1196.090, 15090.29
1196.572, 15306.55
1197.054, 15468.09
1197.536, 15581.34
1198.018, 15689.84
1198.500, 15794.58
1198.983, 15933.61
1199.465, 16110.82
1199.947, 16303.66
1200.429, 16504.28
1200.911, 16691.65
1201.393, 16838.62
1201.875, 16974.40
1202.357, 17153.65
1202.839, 17360.24
1203.322, 17558.82
1203.804, 17751.02
1204.286, 17948.14
1204.768, 18152.34
1205.250, 18353.76
1205.732, 18546.32
1206.214, 18739.16
1206.696, 18949.54
1207.179, 19154.40
1207.661, 19315.19
1208.143, 19470.09
1208.625, 19676.13
1209.107, 19918.88
1209.589, 20136.60
1210.071, 20309.71
1210.553, 20504.79
1211.036, 20779.37
1211.518, 21025.89
1212.000, 21185.52
1212.482, 21335.92
1212.964, 21514.86
1213.446, 21724.73
1213.928, 21980.32
1214.410, 22278.47
1214.892, 22523.64
1215.375, 22685.63
1215.857, 22878.36
1216.339, 23116.23
1216.821, 23355.92
1217.303, 23581.56
1217.785, 23804.07
1218.267, 24030.05
1218.749, 24263.70
1219.231, 24521.06
1219.714, 24758.08
1220.196, 25005.79
1220.678, 25264.77
1221.160, 25506.56
1221.642, 25778.83
1222.124, 26046.35
1222.606, 26289.70
1223.088, 26522.87
1223.571, 26754.38
1224.053, 26994.41
1224.535, 27271.17
1225.017, 27561.56
1225.499, 27823.97
1225.981, 28065.54
1226.463, 28313.09
1226.945, 28571.72
1227.427, 28816.00
1227.910, 29017.74
1228.392, 29232.65
1228.874, 29509.67
1229.356, 29786.92
1229.838, 30002.67
1230.320, 30213.63
1230.802, 30504.49
1231.284, 30849.93
1231.766, 31136.04
1232.249, 31329.13
1232.731, 31543.83
1233.213, 31801.21
1233.695, 32047.98
1234.177, 32264.85
1234.659, 32489.20
1235.141, 32746.37
1235.623, 33016.93
1236.106, 33274.31
1236.588, 33519.68
1237.070, 33766.48
1237.552, 34015.93
1238.034, 34266.07
1238.516, 34517.39
1238.998, 34758.43
1239.480, 34986.43
1239.963, 35211.82
1240.445, 35441.13
1240.927, 35673.00
1241.409, 35907.14
1241.891, 36139.32
1242.373, 36361.45
1242.855, 36573.49
1243.337, 36772.08
1243.819, 36961.13
1244.302, 37148.18
1244.784, 37335.83
1245.266, 37550.92
1245.748, 37864.00
1246.230, 38135.11
1246.712, 38239.58
1247.194, 38333.70
1247.676, 38545.96
1248.158, 38814.08
1248.641, 39051.16
1249.123, 39253.62
1249.605, 39434.52
1250.087, 39578.40
1250.569, 39738.41
1251.051, 39908.26
1251.533, 40108.85
1252.015, 40358.05
1252.498, 40603.32
1252.980, 40804.46
1253.462, 40996.52
1253.944, 41251.78
1254.426, 41548.71
1254.908, 41739.34
1255.390, 41837.31
1255.872, 41960.94
1256.354, 42122.77
1256.837, 42310.23
1257.319, 42517.00
1257.801, 42718.32
1258.283, 42892.97
1258.765, 43065.27
1259.247, 43267.55
1259.729, 43481.13
1260.211, 43689.07
1260.693, 43889.84
1261.176, 44083.73
1261.658, 44266.96
1262.140, 44420.70
1262.622, 44535.41
1263.104, 44685.44
1263.586, 44944.61
1264.068, 45167.76
1264.550, 45271.87
1265.033, 45380.74
1265.515, 45579.46
1265.997, 45795.69
1266.479, 45941.07
1266.961, 46036.76
1267.443, 46178.22
1267.925, 46374.71
1268.407, 46569.26
1268.890, 46764.95
1269.372, 46914.14
1269.854, 47005.11
1270.336, 47076.25
1270.818, 47146.84
1271.300, 47244.52
1271.782, 47420.63
1272.264, 47625.96
1272.746, 47765.22
1273.229, 47859.63
1273.711, 47940.10
1274.193, 48015.67
1274.675, 48097.44
1275.157, 48186.12
1275.639, 48270.38
1276.121, 48340.80
1276.603, 48423.18
1277.085, 48546.13
1277.568, 48663.91
1278.050, 48731.71
1278.532, 48805.63
1279.014, 48949.32
1279.496, 49125.42
1279.978, 49257.83
1280.460, 49347.38
1280.942, 49431.57
1281.425, 49492.15
1281.907, 49630.19
1282.389, 49877.39
1282.871, 50056.40
1283.353, 50106.45
1283.835, 50135.23
1284.317, 50223.55
1284.799, 50341.48
1285.281, 50438.99
1285.764, 50528.94
1286.246, 50644.18
1286.728, 50777.70
1287.210, 50923.11
1287.692, 51070.36
1288.174, 51199.84
1288.656, 51291.48
##END=



