##NAMES=Dalyite
##RRUFFID=R070415
##IDEAL CHEMISTRY=K_2_Zr^4+^Si_6_O_15_
##LOCALITY=Murunskyi Massif, Chara River (Charo River), Davan, Torgo River Basin, Aldan Shield, Saha Republic (Sakha Republic; Yakutia), Eastern-Siberian Region, Russia
##OWNER=RRUFF
##SOURCE=Michael Scott
##DESCRIPTION=Lavender grains in quartz
##STATUS=The identification of this mineral has been confirmed only by single crystal X-ray diffraction.
##URL=rruff.info/R070415
150.6261, 4226.395
151.1082, 4317.082
151.5903, 4418.595
152.0724, 4534.861
152.5545, 4651.511
153.0366, 4768.999
153.5188, 4885.597
154.0009, 4997.426
154.4830, 5094.112
154.9651, 5194.349
155.4472, 5308.611
155.9293, 5453.204
156.4115, 5589.074
156.8936, 5714.497
157.3757, 5827.047
157.8578, 5920.652
158.3399, 5985.698
158.8221, 6035.561
159.3042, 6079.708
159.7863, 6130.391
160.2684, 6165.812
160.7505, 6178.720
161.2326, 6169.937
161.7148, 6144.476
162.1969, 6102.340
162.6790, 6045.129
163.1611, 5975.083
163.6432, 5877.917
164.1253, 5779.450
164.6075, 5694.829
165.0896, 5624.650
165.5717, 5554.853
166.0538, 5475.395
166.5359, 5391.708
167.0180, 5311.419
167.5002, 5231.841
167.9823, 5159.741
168.4644, 5103.141
168.9465, 5064.482
169.4286, 5028.418
169.9107, 4980.976
170.3929, 4927.936
170.8750, 4880.229
171.3571, 4848.264
171.8392, 4822.948
172.3213, 4794.860
172.8034, 4762.854
173.2856, 4728.939
173.7677, 4691.176
174.2498, 4651.817
174.7319, 4619.209
175.2140, 4608.260
175.6961, 4604.948
176.1783, 4584.732
176.6604, 4535.390
177.1425, 4482.350
177.6246, 4461.599
178.1067, 4468.984
178.5888, 4476.155
179.0710, 4460.146
179.5531, 4428.892
180.0352, 4399.962
180.5173, 4378.599
180.9994, 4360.711
181.4815, 4337.545
181.9637, 4309.240
182.4458, 4286.508
182.9279, 4285.080
183.4100, 4298.555
183.8921, 4302.077
184.3742, 4282.702
184.8564, 4251.380
185.3385, 4235.506
185.8206, 4235.889
186.3027, 4240.236
186.7848, 4235.020
187.2669, 4221.662
187.7491, 4210.823
188.2312, 4206.197
188.7133, 4206.970
189.1954, 4212.444
189.6775, 4224.076
190.1596, 4233.671
190.6418, 4229.062
191.1239, 4210.585
191.6060, 4192.084
192.0881, 4178.363
192.5702, 4169.235
193.0524, 4162.666
193.5345, 4158.156
194.0166, 4157.484
194.4987, 4166.877
194.9808, 4187.311
195.4629, 4203.104
195.9451, 4202.911
196.4272, 4187.191
196.9093, 4181.346
197.3914, 4188.473
197.8735, 4201.863
198.3556, 4209.588
198.8378, 4211.332
199.3199, 4209.424
199.8020, 4201.843
200.2841, 4187.625
200.7662, 4184.305
201.2483, 4196.083
201.7305, 4216.386
202.2126, 4228.965
202.6947, 4232.495
203.1768, 4233.251
203.6589, 4234.786
204.1410, 4237.279
204.6232, 4238.108
205.1053, 4233.862
205.5874, 4229.182
206.0695, 4243.267
206.5516, 4283.550
207.0337, 4323.083
207.5159, 4339.438
207.9980, 4324.839
208.4801, 4323.473
208.9622, 4344.633
209.4443, 4383.054
209.9264, 4413.084
210.4086, 4433.242
210.8907, 4448.034
211.3728, 4458.232
211.8549, 4459.776
212.3370, 4471.410
212.8191, 4498.539
213.3013, 4538.973
213.7834, 4577.084
214.2655, 4613.771
214.7476, 4646.810
215.2297, 4672.168
215.7118, 4685.346
216.1940, 4704.223
216.6761, 4732.988
217.1582, 4771.287
217.6403, 4809.234
218.1224, 4846.622
218.6045, 4883.348
219.0867, 4919.867
219.5688, 4957.516
220.0509, 4990.734
220.5330, 5014.861
221.0151, 5029.791
221.4972, 5057.665
221.9794, 5109.316
222.4615, 5162.097
222.9436, 5189.966
223.4257, 5178.807
223.9078, 5172.146
224.3899, 5182.514
224.8721, 5212.191
225.3542, 5230.151
225.8363, 5231.898
226.3184, 5226.361
226.8005, 5223.744
227.2827, 5224.449
227.7648, 5227.563
228.2469, 5234.579
228.7290, 5246.955
229.2111, 5251.234
229.6932, 5243.311
230.1754, 5230.575
230.6575, 5223.633
231.1396, 5229.439
231.6217, 5228.713
232.1038, 5215.230
232.5859, 5186.766
233.0681, 5156.876
233.5502, 5122.861
234.0323, 5089.467
234.5144, 5064.686
234.9965, 5057.559
235.4786, 5043.831
235.9608, 5013.331
236.4429, 4960.614
236.9250, 4918.701
237.4071, 4892.081
237.8892, 4873.810
238.3713, 4853.533
238.8535, 4832.289
239.3356, 4807.157
239.8177, 4775.247
240.2998, 4732.177
240.7819, 4699.329
241.2640, 4679.470
241.7462, 4667.686
242.2283, 4655.912
242.7104, 4645.511
243.1925, 4632.739
243.6746, 4614.097
244.1567, 4583.700
244.6389, 4568.897
245.1210, 4578.708
245.6031, 4598.728
246.0852, 4601.319
246.5673, 4572.110
247.0494, 4550.088
247.5316, 4551.979
248.0137, 4588.648
248.4958, 4611.963
248.9779, 4616.515
249.4600, 4610.601
249.9421, 4608.629
250.4243, 4609.388
250.9064, 4616.251
251.3885, 4632.373
251.8706, 4662.916
252.3527, 4684.699
252.8348, 4692.038
253.3170, 4694.099
253.7991, 4709.272
254.2812, 4743.544
254.7633, 4779.081
255.2454, 4808.068
255.7275, 4826.151
256.2097, 4853.457
256.6918, 4892.952
257.1739, 4939.310
257.6560, 4983.414
258.1381, 5024.855
258.6202, 5065.025
259.1024, 5104.024
259.5845, 5140.023
260.0666, 5181.532
260.5487, 5231.854
261.0308, 5285.091
261.5129, 5332.095
261.9951, 5370.183
262.4772, 5407.513
262.9593, 5447.559
263.4414, 5492.322
263.9235, 5532.585
264.4056, 5570.730
264.8878, 5602.557
265.3699, 5620.121
265.8520, 5619.823
266.3341, 5615.981
266.8162, 5615.104
267.2983, 5618.911
267.7805, 5614.005
268.2626, 5598.032
268.7447, 5575.961
269.2268, 5556.243
269.7089, 5539.607
270.1910, 5522.816
270.6732, 5505.290
271.1553, 5487.500
271.6374, 5465.217
272.1195, 5438.903
272.6016, 5407.348
273.0837, 5369.689
273.5659, 5325.751
274.0480, 5275.907
274.5301, 5216.928
275.0122, 5148.524
275.4943, 5088.974
275.9764, 5041.828
276.4586, 4996.857
276.9407, 4933.398
277.4228, 4848.818
277.9049, 4775.285
278.3870, 4728.764
278.8691, 4708.127
279.3513, 4689.081
279.8334, 4673.093
280.3155, 4654.920
280.7976, 4624.301
281.2798, 4580.796
281.7619, 4541.373
282.2440, 4514.141
282.7261, 4497.374
283.2082, 4476.498
283.6903, 4449.856
284.1725, 4425.205
284.6546, 4417.358
285.1367, 4425.431
285.6188, 4423.561
286.1009, 4393.963
286.5830, 4346.188
287.0652, 4324.805
287.5473, 4333.096
288.0294, 4349.311
288.5115, 4347.734
288.9936, 4330.782
289.4757, 4318.827
289.9579, 4322.893
290.4400, 4335.756
290.9221, 4336.284
291.4042, 4323.762
291.8863, 4307.812
292.3684, 4296.136
292.8506, 4288.739
293.3327, 4285.647
293.8148, 4289.303
294.2969, 4295.835
294.7790, 4296.227
295.2611, 4290.467
295.7433, 4286.102
296.2254, 4292.175
296.7075, 4305.169
297.1896, 4314.806
297.6717, 4316.752
298.1538, 4315.256
298.6360, 4315.058
299.1181, 4316.350
299.6002, 4321.402
300.0823, 4331.042
300.5644, 4345.825
301.0465, 4368.041
301.5287, 4403.927
302.0108, 4440.363
302.4929, 4462.175
302.9750, 4470.785
303.4571, 4473.125
303.9392, 4468.612
304.4214, 4462.320
304.9035, 4461.058
305.3856, 4467.045
305.8677, 4477.583
306.3498, 4487.977
306.8319, 4500.125
307.3141, 4521.172
307.7962, 4564.146
308.2783, 4613.662
308.7604, 4655.643
309.2425, 4686.239
309.7246, 4709.217
310.2068, 4719.670
310.6889, 4723.520
311.1710, 4736.195
311.6531, 4766.708
312.1352, 4807.955
312.6173, 4855.604
313.0995, 4909.844
313.5816, 4966.223
314.0637, 5028.452
314.5458, 5091.297
315.0279, 5145.468
315.5100, 5174.539
315.9922, 5203.692
316.4743, 5247.041
316.9564, 5308.669
317.4385, 5374.297
317.9206, 5437.967
318.4027, 5503.102
318.8849, 5574.487
319.3670, 5661.922
319.8491, 5748.336
320.3312, 5826.143
320.8133, 5893.350
321.2954, 5962.412
321.7776, 6035.561
322.2597, 6112.304
322.7418, 6192.116
323.2239, 6275.182
323.7060, 6361.049
324.1881, 6452.152
324.6703, 6549.457
325.1524, 6640.286
325.6345, 6724.663
326.1166, 6800.706
326.5987, 6867.581
327.0808, 6917.200
327.5630, 6967.159
328.0451, 7021.095
328.5272, 7078.576
329.0093, 7131.366
329.4914, 7187.741
329.9735, 7230.855
330.4557, 7248.374
330.9378, 7227.599
331.4199, 7203.166
331.9020, 7178.142
332.3841, 7151.529
332.8662, 7118.751
333.3484, 7081.422
333.8305, 7035.958
334.3126, 6978.181
334.7947, 6903.839
335.2768, 6832.156
335.7589, 6764.612
336.2411, 6700.095
336.7232, 6633.424
337.2053, 6563.831
337.6874, 6495.708
338.1695, 6429.933
338.6516, 6366.892
339.1338, 6308.340
339.6159, 6256.180
340.0980, 6206.350
340.5801, 6151.100
341.0622, 6088.479
341.5443, 6032.521
342.0265, 5988.903
342.5086, 5957.042
342.9907, 5928.979
343.4728, 5905.741
343.9549, 5883.206
344.4370, 5858.745
344.9192, 5832.036
345.4013, 5797.763
345.8834, 5749.900
346.3655, 5694.701
346.8476, 5652.321
347.3297, 5623.307
347.8119, 5595.764
348.2940, 5559.530
348.7761, 5516.073
349.2582, 5470.079
349.7403, 5418.427
350.2225, 5368.220
350.7046, 5328.079
351.1867, 5297.614
351.6688, 5276.642
352.1509, 5272.162
352.6331, 5275.162
353.1152, 5272.171
353.5973, 5259.586
354.0794, 5241.471
354.5615, 5217.664
355.0436, 5190.495
355.5258, 5167.063
356.0079, 5155.557
356.4900, 5147.116
356.9721, 5133.100
357.4542, 5110.123
357.9363, 5088.573
358.4185, 5072.515
358.9006, 5062.011
359.3827, 5057.161
359.8648, 5062.156
360.3469, 5069.529
360.8290, 5074.329
361.3112, 5075.190
361.7933, 5080.741
362.2754, 5100.709
362.7575, 5124.202
363.2396, 5139.438
363.7217, 5127.075
364.2039, 5122.673
364.6860, 5138.878
365.1681, 5176.190
365.6502, 5211.031
366.1323, 5236.631
366.6144, 5261.627
367.0966, 5292.101
367.5787, 5331.176
368.0608, 5371.684
368.5429, 5411.354
369.0250, 5451.725
369.5071, 5500.298
369.9893, 5566.009
370.4714, 5629.301
370.9535, 5677.745
371.4356, 5692.819
371.9177, 5736.071
372.3998, 5821.030
372.8820, 5928.413
373.3641, 6012.140
373.8462, 6061.927
374.3283, 6114.145
374.8104, 6181.413
375.2925, 6264.813
375.7747, 6360.694
376.2568, 6475.068
376.7389, 6591.622
377.2210, 6687.564
377.7031, 6762.169
378.1852, 6825.639
378.6674, 6876.812
379.1495, 6919.700
379.6316, 6979.237
380.1137, 7057.442
380.5958, 7129.491
381.0779, 7171.432
381.5601, 7186.595
382.0422, 7189.352
382.5243, 7184.541
383.0064, 7167.185
383.4885, 7122.750
383.9706, 7053.989
384.4528, 6984.336
384.9349, 6927.272
385.4170, 6879.856
385.8991, 6835.150
386.3812, 6790.529
386.8633, 6752.375
387.3455, 6728.874
387.8276, 6716.444
388.3097, 6706.570
388.7918, 6690.378
389.2739, 6678.154
389.7560, 6678.613
390.2382, 6692.860
390.7203, 6714.452
391.2024, 6754.258
391.6845, 6794.570
392.1666, 6815.368
392.6487, 6801.149
393.1309, 6774.050
393.6130, 6742.373
394.0951, 6705.848
394.5772, 6659.979
395.0593, 6598.294
395.5414, 6530.215
396.0236, 6462.184
396.5057, 6396.162
396.9878, 6328.614
397.4699, 6259.262
397.9520, 6188.406
398.4341, 6117.508
398.9163, 6040.839
399.3984, 5970.131
399.8805, 5909.526
400.3626, 5860.015
400.8447, 5818.007
401.3268, 5785.323
401.8090, 5758.854
402.2911, 5733.785
402.7732, 5710.125
403.2553, 5688.921
403.7374, 5673.381
404.2195, 5662.540
404.7017, 5636.552
405.1838, 5591.097
405.6659, 5541.744
406.1480, 5507.109
406.6301, 5487.508
407.1122, 5451.553
407.5944, 5389.560
408.0765, 5311.903
408.5586, 5241.134
409.0407, 5176.951
409.5228, 5121.217
410.0049, 5080.288
410.4871, 5049.416
410.9692, 5013.352
411.4513, 4968.904
411.9334, 4925.587
412.4155, 4894.954
412.8976, 4873.796
413.3798, 4853.940
413.8619, 4831.866
414.3440, 4808.619
414.8261, 4782.560
415.3082, 4753.688
415.7903, 4730.827
416.2725, 4720.332
416.7546, 4718.579
417.2367, 4721.678
417.7188, 4736.435
418.2009, 4746.936
418.6830, 4742.767
419.1652, 4727.423
419.6473, 4713.876
420.1294, 4702.851
420.6115, 4697.316
421.0937, 4699.374
421.5758, 4712.227
422.0579, 4726.357
422.5400, 4744.628
423.0221, 4762.637
423.5042, 4773.344
423.9864, 4765.630
424.4685, 4762.759
424.9506, 4770.958
425.4327, 4790.989
425.9148, 4810.151
426.3969, 4822.856
426.8791, 4841.024
427.3612, 4878.437
427.8433, 4945.415
428.3254, 4997.397
428.8075, 5021.648
429.2896, 5029.086
429.7718, 5059.330
430.2539, 5116.797
430.7360, 5173.715
431.2181, 5207.339
431.7002, 5220.309
432.1823, 5255.020
432.6645, 5318.082
433.1466, 5388.041
433.6287, 5431.577
434.1108, 5453.756
434.5929, 5479.831
435.0750, 5515.918
435.5572, 5563.995
436.0393, 5635.566
436.5214, 5729.315
437.0035, 5817.593
437.4856, 5873.040
437.9677, 5910.504
438.4499, 5950.284
438.9320, 5999.354
439.4141, 6048.817
439.8962, 6092.162
440.3783, 6130.746
440.8604, 6169.350
441.3426, 6218.335
441.8247, 6261.128
442.3068, 6290.651
442.7889, 6307.843
443.2710, 6303.310
443.7531, 6264.677
444.2353, 6206.889
444.7174, 6145.782
445.1995, 6083.774
445.6816, 6019.144
446.1637, 5950.060
446.6458, 5877.618
447.1280, 5806.722
447.6101, 5738.707
448.0922, 5670.474
448.5743, 5598.686
449.0564, 5513.575
449.5385, 5450.203
450.0207, 5414.395
450.5028, 5396.262
450.9849, 5379.167
451.4670, 5363.572
451.9491, 5347.337
452.4312, 5328.146
452.9134, 5307.084
453.3955, 5292.846
453.8776, 5286.104
454.3597, 5281.624
454.8418, 5273.704
455.3239, 5263.533
455.8061, 5256.560
456.2882, 5254.652
456.7703, 5255.347
457.2524, 5253.854
457.7345, 5251.399
458.2166, 5253.039
458.6988, 5266.801
459.1809, 5283.726
459.6630, 5293.681
460.1451, 5295.166
460.6272, 5293.887
461.1093, 5296.628
461.5915, 5297.770
462.0736, 5290.203
462.5557, 5257.638
463.0378, 5229.634
463.5199, 5220.116
464.0020, 5226.855
464.4842, 5231.823
464.9663, 5243.971
465.4484, 5243.952
465.9305, 5219.729
466.4126, 5146.904
466.8947, 5091.823
467.3769, 5060.976
467.8590, 5045.122
468.3411, 5029.260
468.8232, 5012.639
469.3053, 4998.016
469.7874, 4988.378
470.2696, 4982.925
470.7517, 4961.962
471.2338, 4918.235
471.7159, 4881.408
472.1980, 4887.318
472.6801, 4934.544
473.1623, 4958.190
473.6444, 4945.071
474.1265, 4912.867
474.6086, 4886.275
475.0907, 4865.706
475.5728, 4853.782
476.0550, 4857.542
476.5371, 4868.893
477.0192, 4874.821
477.5013, 4874.883
477.9834, 4873.091
478.4655, 4875.545
478.9477, 4877.047
479.4298, 4869.745
479.9119, 4836.888
480.3940, 4812.818
480.8761, 4823.093
481.3582, 4857.405
481.8404, 4886.110
482.3225, 4899.713
482.8046, 4905.367
483.2867, 4905.058
483.7688, 4896.694
484.2509, 4890.251
484.7331, 4886.912
485.2152, 4885.718
485.6973, 4885.732
486.1794, 4886.523
486.6615, 4889.158
487.1436, 4893.100
487.6258, 4898.963
488.1079, 4910.460
488.5900, 4929.182
489.0721, 4948.993
489.5542, 4968.999
490.0363, 4989.403
490.5185, 4997.375
491.0006, 4990.314
491.4827, 4978.158
491.9648, 4972.140
492.4470, 4971.900
492.9291, 4975.760
493.4112, 4982.725
493.8933, 4993.785
494.3754, 5011.851
494.8575, 5036.229
495.3397, 5061.453
495.8218, 5086.129
496.3039, 5109.109
496.7860, 5128.047
497.2681, 5141.649
497.7502, 5156.237
498.2324, 5175.279
498.7145, 5197.389
499.1966, 5221.063
499.6787, 5240.846
500.1608, 5266.970
500.6429, 5309.627
501.1251, 5366.852
501.6072, 5407.125
502.0893, 5397.888
502.5714, 5398.668
503.0535, 5440.848
503.5356, 5550.777
504.0178, 5637.736
504.4999, 5692.541
504.9820, 5731.927
505.4641, 5781.835
505.9462, 5843.654
506.4283, 5906.652
506.9105, 5961.872
507.3926, 6016.842
507.8747, 6105.772
508.3568, 6230.425
508.8389, 6363.944
509.3210, 6484.906
509.8032, 6601.172
510.2853, 6735.641
510.7674, 6891.685
511.2495, 7063.777
511.7316, 7255.266
512.2137, 7458.971
512.6959, 7657.095
513.1780, 7822.063
513.6601, 7997.958
514.1422, 8217.137
514.6243, 8475.599
515.1064, 8743.955
515.5886, 9010.976
516.0707, 9285.310
516.5528, 9571.719
517.0349, 9886.138
517.5170, 10185.77
517.9991, 10449.98
518.4813, 10701.68
518.9634, 10968.13
519.4455, 11254.12
519.9276, 11547.38
520.4097, 11852.38
520.8918, 12161.21
521.3740, 12461.10
521.8561, 12757.12
522.3382, 13027.35
522.8203, 13260.62
523.3024, 13455.09
523.7845, 13616.76
524.2667, 13750.68
524.7488, 13835.09
525.2309, 13855.67
525.7130, 13808.94
526.1951, 13682.24
526.6772, 13447.48
527.1594, 13151.64
527.6415, 12854.57
528.1236, 12549.60
528.6057, 12198.45
529.0878, 11740.77
529.5699, 11257.06
530.0521, 10811.12
530.5342, 10409.18
531.0163, 10035.08
531.4984, 9680.313
531.9805, 9348.282
532.4626, 9040.867
532.9448, 8764.690
533.4269, 8506.427
533.9090, 8266.302
534.3911, 8043.229
534.8732, 7842.220
535.3553, 7662.162
535.8375, 7502.257
536.3196, 7370.013
536.8017, 7265.633
537.2838, 7146.872
537.7659, 7009.223
538.2480, 6868.321
538.7302, 6735.650
539.2123, 6611.487
539.6944, 6507.152
540.1765, 6428.096
540.6586, 6364.193
541.1407, 6305.821
541.6229, 6250.312
542.1050, 6187.313
542.5871, 6103.135
543.0692, 6014.209
543.5513, 5933.884
544.0334, 5863.612
544.5156, 5802.893
544.9977, 5757.801
545.4798, 5718.576
545.9619, 5677.671
546.4440, 5626.227
546.9261, 5584.090
547.4083, 5559.747
547.8904, 5545.226
548.3725, 5526.750
548.8546, 5503.193
549.3367, 5477.262
549.8188, 5448.978
550.3010, 5418.588
550.7831, 5388.776
551.2652, 5359.397
551.7473, 5330.973
552.2294, 5302.563
552.7115, 5274.678
553.1937, 5255.288
553.6758, 5246.408
554.1579, 5240.259
554.6400, 5226.579
555.1221, 5207.677
555.6042, 5190.662
556.0864, 5181.146
556.5685, 5171.222
557.0506, 5151.020
557.5327, 5123.342
558.0148, 5098.921
558.4969, 5084.216
558.9791, 5073.402
559.4612, 5062.573
559.9433, 5050.479
560.4254, 5042.917
560.9075, 5047.139
561.3896, 5052.863
561.8718, 5051.502
562.3539, 5044.125
562.8360, 5026.239
563.3181, 4988.614
563.8002, 4944.689
564.2823, 4931.662
564.7645, 4958.096
565.2466, 4976.980
565.7287, 4964.502
566.2108, 4928.843
566.6929, 4912.949
567.1750, 4917.767
567.6572, 4923.823
568.1393, 4910.635
568.6214, 4887.669
569.1035, 4876.131
569.5856, 4882.024
570.0677, 4887.972
570.5499, 4877.688
571.0320, 4858.308
571.5141, 4841.093
571.9962, 4829.388
572.4783, 4821.391
572.9604, 4817.177
573.4426, 4816.412
573.9247, 4817.407
574.4068, 4824.057
574.8889, 4828.555
575.3710, 4827.126
575.8531, 4818.165
576.3353, 4811.660
576.8174, 4807.440
577.2995, 4806.021
577.7816, 4810.349
578.2637, 4821.683
578.7458, 4822.233
579.2280, 4804.177
579.7101, 4783.876
580.1922, 4798.891
580.6743, 4842.114
581.1564, 4873.397
581.6385, 4862.880
582.1207, 4835.980
582.6028, 4827.772
583.0849, 4835.753
583.5670, 4839.692
584.0491, 4817.518
584.5313, 4793.030
585.0134, 4786.938
585.4955, 4809.183
585.9776, 4827.343
586.4597, 4823.875
586.9418, 4816.043
587.4240, 4824.200
587.9061, 4867.036
588.3882, 4896.998
588.8703, 4903.375
589.3524, 4895.163
589.8345, 4899.894
590.3167, 4920.939
590.7988, 4942.105
591.2809, 4955.919
591.7630, 4963.835
592.2451, 4972.522
592.7272, 4982.023
593.2094, 4991.176
593.6915, 4994.861
594.1736, 4998.346
594.6557, 5013.759
595.1378, 5045.284
595.6199, 5077.900
596.1021, 5097.858
596.5842, 5112.364
597.0663, 5131.771
597.5485, 5157.962
598.0306, 5190.994
598.5127, 5238.495
598.9948, 5294.893
599.4769, 5336.471
599.9590, 5348.839
600.4412, 5362.677
600.9233, 5387.312
601.4054, 5423.255
601.8875, 5463.839
602.3696, 5509.547
602.8517, 5558.090
603.3339, 5607.008
603.8160, 5656.580
604.2981, 5703.442
604.7802, 5744.724
605.2623, 5790.685
605.7444, 5862.284
606.2266, 5949.755
606.7087, 6023.077
607.1908, 6061.230
607.6729, 6093.263
608.1550, 6144.967
608.6371, 6210.319
609.1193, 6271.536
609.6014, 6316.009
610.0835, 6358.991
610.5656, 6410.994
611.0477, 6476.223
611.5298, 6520.999
612.0120, 6528.822
612.4941, 6531.203
612.9762, 6553.271
613.4583, 6609.345
613.9404, 6632.374
614.4225, 6615.823
614.9047, 6571.918
615.3868, 6512.108
615.8689, 6437.060
616.3510, 6362.142
616.8331, 6291.438
617.3152, 6223.835
617.7974, 6157.211
618.2795, 6092.046
618.7616, 6026.755
619.2437, 5956.739
619.7258, 5889.466
620.2079, 5829.583
620.6901, 5777.662
621.1722, 5731.349
621.6543, 5691.507
622.1364, 5655.682
622.6185, 5622.405
623.1006, 5588.620
623.5828, 5564.152
624.0649, 5556.671
624.5470, 5551.474
625.0291, 5526.090
625.5112, 5473.225
625.9933, 5441.819
626.4755, 5447.878
626.9576, 5470.748
627.4397, 5465.640
627.9218, 5435.924
628.4039, 5407.299
628.8860, 5399.748
629.3682, 5396.650
629.8503, 5371.467
630.3324, 5327.152
630.8145, 5287.002
631.2966, 5274.315
631.7787, 5264.323
632.2609, 5237.077
632.7430, 5183.897
633.2251, 5137.698
633.7072, 5108.268
634.1893, 5086.813
634.6714, 5066.605
635.1536, 5050.415
635.6357, 5028.779
636.1178, 4999.288
636.5999, 4966.167
637.0820, 4936.386
637.5641, 4910.065
638.0463, 4887.916
638.5284, 4870.741
639.0105, 4857.153
639.4926, 4844.978
639.9747, 4833.879
640.4568, 4822.302
640.9390, 4807.636
641.4211, 4792.965
641.9032, 4781.350
642.3853, 4773.042
642.8674, 4765.368
643.3495, 4756.109
643.8317, 4747.915
644.3138, 4742.944
644.7959, 4745.686
645.2780, 4743.402
645.7601, 4734.777
646.2422, 4722.330
646.7244, 4706.827
647.2065, 4686.140
647.6886, 4675.092
648.1707, 4679.063
648.6528, 4690.185
649.1349, 4691.937
649.6171, 4685.687
650.0992, 4681.231
650.5813, 4688.730
651.0634, 4697.042
651.5455, 4687.828
652.0276, 4664.854
652.5098, 4648.817
652.9919, 4657.849
653.4740, 4671.728
653.9561, 4677.690
654.4382, 4673.101
654.9203, 4669.024
655.4025, 4665.203
655.8846, 4663.612
656.3667, 4666.965
656.8488, 4679.962
657.3309, 4683.121
657.8130, 4673.972
658.2952, 4658.214
658.7773, 4641.930
659.2594, 4625.292
659.7415, 4612.134
660.2236, 4603.884
660.7057, 4598.789
661.1879, 4593.420
661.6700, 4589.074
662.1521, 4589.497
662.6342, 4604.493
663.1163, 4617.933
663.5984, 4618.419
664.0806, 4607.152
664.5627, 4595.853
665.0448, 4586.187
665.5269, 4578.327
666.0090, 4571.438
666.4911, 4564.787
666.9733, 4566.209
667.4554, 4579.731
667.9375, 4593.346
668.4196, 4595.411
668.9017, 4586.415
669.3839, 4580.973
669.8660, 4579.949
670.3481, 4584.586
670.8302, 4605.194
671.3123, 4631.860
671.7944, 4641.773
672.2766, 4618.281
672.7587, 4591.702
673.2408, 4581.727
673.7229, 4582.837
674.2050, 4583.989
674.6871, 4580.497
675.1693, 4578.529
675.6514, 4580.678
676.1335, 4585.998
676.6156, 4589.771
677.0977, 4592.232
677.5798, 4592.599
678.0620, 4590.198
678.5441, 4585.224
679.0262, 4578.932
679.5083, 4571.085
679.9904, 4564.986
680.4725, 4561.869
680.9547, 4562.677
681.4368, 4571.213
681.9189, 4588.855
682.4010, 4604.482
682.8831, 4614.064
683.3652, 4616.017
683.8474, 4607.708
684.3295, 4576.551
684.8116, 4554.197
685.2937, 4549.740
685.7758, 4554.497
686.2579, 4558.049
686.7401, 4560.165
687.2222, 4562.011
687.7043, 4564.781
688.1864, 4566.430
688.6685, 4559.722
689.1506, 4545.335
689.6328, 4534.225
690.1149, 4531.620
690.5970, 4534.848
691.0791, 4542.137
691.5612, 4552.500
692.0433, 4560.703
692.5255, 4562.594
693.0076, 4562.700
693.4897, 4562.847
693.9718, 4562.940
694.4539, 4566.760
694.9360, 4578.623
695.4182, 4590.780
695.9003, 4600.110
696.3824, 4607.534
696.8645, 4605.632
697.3466, 4590.867
697.8287, 4576.061
698.3109, 4580.929
698.7930, 4599.986
699.2751, 4600.883
699.7572, 4573.556
700.2393, 4543.602
700.7214, 4538.128
701.2036, 4548.306
701.6857, 4559.385
702.1678, 4563.010
702.6499, 4570.280
703.1320, 4591.924
703.6141, 4620.121
704.0963, 4634.963
704.5784, 4629.885
705.0605, 4620.398
705.5426, 4607.843
706.0247, 4593.489
706.5068, 4582.404
706.9890, 4574.216
707.4711, 4571.835
707.9532, 4580.637
708.4353, 4595.535
708.9174, 4600.790
709.3995, 4597.663
709.8817, 4598.400
710.3638, 4619.417
710.8459, 4642.810
711.3280, 4651.555
711.8101, 4642.554
712.2922, 4631.739
712.7744, 4614.011
713.2565, 4603.248
713.7386, 4610.295
714.2207, 4648.991
714.7028, 4667.674
715.1849, 4658.665
715.6671, 4643.287
716.1492, 4649.025
716.6313, 4673.404
717.1134, 4686.995
717.5955, 4683.907
718.0776, 4671.210
718.5598, 4647.952
719.0419, 4622.640
719.5240, 4612.430
720.0061, 4641.181
720.4882, 4664.562
720.9703, 4652.187
721.4525, 4620.350
721.9346, 4606.083
722.4167, 4624.641
722.8988, 4648.343
723.3809, 4677.843
723.8630, 4708.157
724.3452, 4715.098
724.8273, 4695.002
725.3094, 4677.952
725.7915, 4682.315
726.2736, 4698.377
726.7557, 4700.602
727.2379, 4690.286
727.7200, 4677.649
728.2021, 4662.235
728.6842, 4652.345
729.1663, 4658.625
729.6484, 4682.474
730.1306, 4700.739
730.6127, 4702.809
731.0948, 4700.716
731.5769, 4702.498
732.0590, 4711.877
732.5411, 4708.677
733.0233, 4690.277
733.5054, 4665.178
733.9875, 4637.796
734.4696, 4609.275
734.9517, 4589.205
735.4338, 4578.816
735.9160, 4575.021
736.3981, 4577.678
736.8802, 4583.964
737.3623, 4590.334
737.8444, 4598.738
738.3266, 4601.445
738.8087, 4591.305
739.2908, 4575.110
739.7729, 4562.615
740.2551, 4552.869
740.7372, 4549.395
741.2193, 4554.627
741.7014, 4564.642
742.1835, 4570.959
742.6656, 4573.506
743.1478, 4577.709
743.6299, 4588.849
744.1120, 4598.210
744.5941, 4586.516
745.0762, 4560.612
745.5583, 4541.401
746.0405, 4541.916
746.5226, 4549.663
747.0047, 4562.727
747.4868, 4578.833
747.9689, 4585.699
748.4510, 4573.364
748.9332, 4562.835
749.4153, 4562.835
749.8974, 4571.717
750.3795, 4566.767
750.8616, 4545.552
751.3438, 4529.433
751.8259, 4535.699
752.3080, 4556.227
752.7901, 4576.131
753.2722, 4594.345
753.7543, 4601.319
754.2365, 4577.347
754.7186, 4548.708
755.2007, 4538.952
755.6828, 4554.730
756.1649, 4564.499
756.6470, 4554.604
757.1292, 4544.758
757.6113, 4549.015
758.0934, 4573.656
758.5755, 4581.825
759.0576, 4569.627
759.5397, 4554.159
760.0219, 4556.753
760.5040, 4570.883
760.9861, 4573.449
761.4682, 4558.354
761.9503, 4545.441
762.4324, 4558.704
762.9146, 4579.453
763.3967, 4584.171
763.8788, 4543.746
764.3609, 4525.526
764.8430, 4563.845
765.3251, 4616.618
765.8073, 4634.272
766.2894, 4606.000
766.7715, 4584.292
767.2536, 4575.460
767.7357, 4577.958
768.2178, 4598.665
768.7000, 4630.847
769.1821, 4644.541
769.6642, 4620.395
770.1463, 4590.373
770.6284, 4579.129
771.1105, 4582.245
771.5927, 4591.167
772.0748, 4612.569
772.5569, 4628.815
773.0390, 4636.840
773.5211, 4636.778
774.0032, 4624.975
774.4854, 4595.213
774.9675, 4577.840
775.4496, 4585.539
775.9317, 4608.261
776.4138, 4621.690
776.8959, 4627.140
777.3781, 4632.373
777.8602, 4639.276
778.3423, 4649.412
778.8244, 4669.197
779.3065, 4694.816
779.7886, 4710.369
780.2708, 4697.712
780.7529, 4688.320
781.2350, 4695.104
781.7171, 4715.629
782.1992, 4725.841
782.6813, 4722.945
783.1635, 4720.407
783.6456, 4723.717
784.1277, 4732.840
784.6098, 4750.065
785.0919, 4774.561
785.5740, 4798.573
786.0562, 4820.996
786.5383, 4838.254
787.0204, 4842.790
787.5025, 4834.560
787.9846, 4835.552
788.4667, 4856.903
788.9489, 4883.235
789.4310, 4910.141
789.9131, 4937.770
790.3952, 4957.307
790.8773, 4966.480
791.3594, 4977.426
791.8416, 5004.351
792.3237, 5039.220
792.8058, 5056.910
793.2879, 5056.695
793.7700, 5060.156
794.2521, 5095.870
794.7343, 5132.523
795.2164, 5140.248
795.6985, 5107.174
796.1806, 5084.460
796.6627, 5083.953
797.1448, 5087.833
797.6270, 5087.085
798.1091, 5082.662
798.5912, 5062.410
799.0733, 5023.110
799.5554, 4983.939
800.0375, 4966.352
800.5197, 4961.656
801.0018, 4954.141
801.4839, 4941.850
801.9660, 4925.584
802.4481, 4900.206
802.9302, 4874.542
803.4124, 4856.505
803.8945, 4851.870
804.3766, 4844.845
804.8587, 4835.917
805.3408, 4823.956
805.8229, 4805.274
806.3051, 4779.969
806.7872, 4766.246
807.2693, 4767.886
807.7514, 4767.095
808.2335, 4734.743
808.7156, 4691.604
809.1978, 4672.042
809.6799, 4690.938
810.1620, 4707.359
810.6441, 4697.067
811.1262, 4680.389
811.6083, 4678.577
812.0905, 4705.496
812.5726, 4715.465
813.0547, 4703.690
813.5368, 4682.330
814.0189, 4663.122
814.5010, 4646.283
814.9832, 4633.419
815.4653, 4625.248
815.9474, 4619.280
816.4295, 4610.806
816.9116, 4604.112
817.3937, 4605.527
817.8759, 4623.665
818.3580, 4635.994
818.8401, 4637.456
819.3222, 4631.251
819.8043, 4616.528
820.2864, 4587.673
820.7686, 4579.629
821.2507, 4600.833
821.7328, 4627.362
822.2149, 4624.070
822.6970, 4601.758
823.1791, 4587.836
823.6613, 4589.961
824.1434, 4596.625
824.6255, 4609.033
825.1076, 4617.833
825.5897, 4612.409
826.0718, 4564.101
826.5540, 4541.386
827.0361, 4554.246
827.5182, 4581.005
828.0003, 4598.608
828.4824, 4606.934
828.9645, 4605.672
829.4467, 4593.250
829.9288, 4577.437
830.4109, 4563.702
830.8930, 4553.545
831.3751, 4549.869
831.8572, 4556.488
832.3394, 4562.710
832.8215, 4565.218
833.3036, 4565.230
833.7857, 4564.066
834.2678, 4560.926
834.7499, 4558.717
835.2321, 4557.156
835.7142, 4557.667
836.1963, 4562.548
836.6784, 4571.103
837.1605, 4580.480
837.6426, 4589.797
838.1248, 4601.080
838.6069, 4623.246
839.0890, 4644.732
839.5711, 4652.028
840.0532, 4634.848
840.5353, 4616.378
841.0175, 4594.844
841.4996, 4576.072
841.9817, 4565.349
842.4638, 4562.548
842.9459, 4570.810
843.4280, 4592.078
843.9102, 4615.800
844.3923, 4634.515
844.8744, 4646.601
845.3565, 4647.640
845.8386, 4633.778
846.3207, 4620.460
846.8029, 4613.522
847.2850, 4610.180
847.7671, 4607.870
848.2492, 4606.173
848.7313, 4607.188
849.2134, 4612.463
849.6956, 4616.459
850.1777, 4610.541
850.6598, 4598.530
851.1419, 4595.213
851.6240, 4603.144
852.1061, 4611.383
852.5883, 4615.884
853.0704, 4614.244
853.5525, 4600.009
854.0346, 4559.900
854.5167, 4549.923
854.9988, 4596.203
855.4810, 4642.504
855.9631, 4641.964
856.4452, 4593.492
856.9273, 4572.858
857.4094, 4583.229
857.8915, 4602.681
858.3737, 4615.262
858.8558, 4623.804
859.3379, 4630.199
859.8200, 4634.194
860.3021, 4642.946
860.7842, 4672.348
861.2664, 4695.070
861.7485, 4691.748
862.2306, 4657.835
862.7127, 4648.688
863.1948, 4671.088
863.6769, 4688.065
864.1591, 4659.355
864.6412, 4608.952
865.1233, 4596.506
865.6054, 4621.547
866.0875, 4652.698
866.5696, 4681.733
867.0518, 4702.306
867.5339, 4705.926
868.0160, 4691.195
868.4981, 4689.229
868.9802, 4708.770
869.4623, 4722.393
869.9445, 4711.474
870.4266, 4684.371
870.9087, 4684.096
871.3908, 4708.100
871.8729, 4729.261
872.3550, 4724.383
872.8372, 4715.242
873.3193, 4722.445
873.8014, 4743.093
874.2835, 4757.856
874.7656, 4761.252
875.2477, 4758.919
875.7299, 4749.163
876.2120, 4735.320
876.6941, 4730.788
877.1762, 4735.542
877.6583, 4742.611
878.1404, 4750.079
878.6226, 4757.071
879.1047, 4760.866
879.5869, 4763.209
880.0690, 4768.668
880.5511, 4790.083
881.0332, 4801.817
881.5153, 4787.896
881.9974, 4762.234
882.4796, 4753.291
882.9617, 4763.780
883.4438, 4775.753
883.9259, 4784.865
884.4080, 4793.614
884.8901, 4811.201
885.3723, 4831.121
885.8544, 4836.448
886.3365, 4805.171
886.8186, 4784.707
887.3007, 4808.179
887.7828, 4849.932
888.2650, 4874.478
888.7471, 4878.063
889.2292, 4869.276
889.7113, 4841.830
890.1934, 4817.950
890.6755, 4836.718
891.1577, 4882.959
891.6398, 4908.476
892.1219, 4901.757
892.6040, 4885.788
893.0861, 4860.423
893.5682, 4842.820
894.0504, 4852.594
894.5325, 4910.992
895.0146, 4948.590
895.4967, 4959.545
895.9788, 4960.466
896.4609, 4964.961
896.9431, 4971.712
897.4252, 4970.811
897.9073, 4961.637
898.3894, 4952.859
898.8715, 4951.406
899.3536, 4952.798
899.8358, 4950.443
900.3179, 4942.563
900.8000, 4949.848
901.2821, 4987.396
901.7642, 5020.167
902.2463, 5029.788
902.7285, 5020.001
903.2106, 5023.413
903.6927, 5039.279
904.1748, 5048.626
904.6569, 5025.539
905.1390, 5001.029
905.6212, 5014.503
906.1033, 5056.474
906.5854, 5084.251
907.0675, 5068.106
907.5496, 5057.521
908.0317, 5064.884
908.5139, 5085.437
908.9960, 5107.847
909.4781, 5132.039
909.9602, 5148.828
910.4423, 5151.783
910.9244, 5150.737
911.4066, 5157.343
911.8887, 5168.548
912.3708, 5178.841
912.8529, 5183.450
913.3350, 5191.051
913.8171, 5209.774
914.2993, 5227.423
914.7814, 5221.814
915.2635, 5189.671
915.7456, 5180.378
916.2277, 5204.048
916.7098, 5238.221
917.1920, 5258.673
917.6741, 5271.823
918.1562, 5287.298
918.6383, 5308.141
919.1204, 5326.830
919.6025, 5339.273
920.0847, 5350.192
920.5668, 5361.289
921.0489, 5371.367
921.5310, 5393.340
922.0131, 5428.652
922.4952, 5463.045
922.9774, 5478.022
923.4595, 5488.045
923.9416, 5522.263
924.4237, 5579.409
924.9058, 5619.250
925.3879, 5598.481
925.8701, 5585.797
926.3522, 5616.067
926.8343, 5682.167
927.3164, 5721.599
927.7985, 5731.111
928.2806, 5746.223
928.7628, 5789.080
929.2449, 5841.034
929.7270, 5869.416
930.2091, 5882.751
930.6912, 5904.979
931.1733, 5948.908
931.6555, 5999.342
932.1376, 6050.778
932.6197, 6106.121
933.1018, 6172.308
933.5839, 6251.736
934.0660, 6328.814
934.5482, 6402.511
935.0303, 6469.666
935.5124, 6519.527
935.9945, 6563.197
936.4766, 6618.984
936.9587, 6692.315
937.4409, 6777.075
937.9230, 6883.433
938.4051, 6992.470
938.8872, 7087.683
939.3693, 7165.470
939.8514, 7255.959
940.3336, 7359.096
940.8157, 7469.821
941.2978, 7590.382
941.7799, 7713.583
942.2620, 7829.312
942.7441, 7936.779
943.2263, 8043.262
943.7084, 8143.291
944.1905, 8249.102
944.6726, 8366.476
945.1547, 8493.555
945.6368, 8620.357
946.1190, 8748.341
946.6011, 8867.991
947.0832, 8969.049
947.5653, 9066.500
948.0474, 9182.607
948.5295, 9312.164
949.0117, 9443.050
949.4938, 9580.469
949.9759, 9706.301
950.4580, 9815.774
950.9401, 9914.432
951.4222, 10005.35
951.9044, 10088.57
952.3865, 10182.21
952.8686, 10289.41
953.3507, 10406.28
953.8328, 10539.59
954.3149, 10674.92
954.7971, 10792.97
955.2792, 10882.47
955.7613, 10975.33
956.2434, 11079.38
956.7255, 11184.54
957.2076, 11282.89
957.6898, 11375.33
958.1719, 11483.95
958.6540, 11609.16
959.1361, 11721.19
959.6182, 11788.82
960.1003, 11843.68
960.5825, 11913.70
961.0646, 11998.11
961.5467, 12086.46
962.0288, 12187.07
962.5109, 12275.03
962.9930, 12341.84
963.4752, 12392.61
963.9573, 12436.55
964.4394, 12473.72
964.9215, 12506.57
965.4036, 12534.79
965.8857, 12561.25
966.3679, 12600.16
966.8500, 12633.80
967.3321, 12638.11
967.8142, 12594.13
968.2963, 12549.27
968.7784, 12505.33
969.2606, 12457.91
969.7427, 12410.96
970.2248, 12357.55
970.7069, 12263.88
971.1890, 12128.37
971.6711, 11996.02
972.1533, 11911.47
972.6354, 11828.91
973.1175, 11709.68
973.5996, 11554.31
974.0817, 11434.45
974.5638, 11360.10
975.0460, 11285.63
975.5281, 11187.19
976.0102, 11080.07
976.4923, 10999.22
976.9744, 10936.87
977.4565, 10870.22
977.9387, 10774.18
978.4208, 10689.88
978.9029, 10633.57
979.3850, 10596.98
979.8671, 10570.58
980.3492, 10555.91
980.8314, 10546.37
981.3135, 10544.22
981.7956, 10533.39
982.2777, 10481.62
982.7598, 10416.36
983.2419, 10382.57
983.7241, 10392.05
984.2062, 10388.08
984.6883, 10342.47
985.1704, 10290.28
985.6525, 10242.59
986.1346, 10200.45
986.6168, 10183.71
987.0989, 10191.10
987.5810, 10183.54
988.0631, 10127.83
988.5452, 10055.68
989.0273, 9992.081
989.5095, 9936.385
989.9916, 9887.855
990.4737, 9860.276
990.9558, 9815.563
991.4379, 9741.745
991.9200, 9660.543
992.4022, 9605.370
992.8843, 9573.007
993.3664, 9550.154
993.8485, 9536.659
994.3306, 9519.501
994.8127, 9484.514
995.2949, 9445.378
995.7770, 9415.295
996.2591, 9396.768
996.7412, 9372.450
997.2233, 9340.165
997.7054, 9310.852
998.1876, 9295.118
998.6697, 9285.536
999.1518, 9262.904
999.6339, 9230.668
1000.116, 9202.375
1000.598, 9179.646
1001.080, 9167.028
1001.562, 9173.881
1002.044, 9187.971
1002.527, 9186.381
1003.009, 9167.944
1003.491, 9152.408
1003.973, 9145.545
1004.455, 9134.133
1004.937, 9103.430
1005.419, 9059.707
1005.901, 9008.730
1006.384, 8947.926
1006.866, 8896.104
1007.348, 8855.432
1007.830, 8824.289
1008.312, 8812.581
1008.794, 8811.232
1009.276, 8754.075
1009.758, 8647.935
1010.240, 8548.162
1010.723, 8494.784
1011.205, 8450.348
1011.687, 8392.992
1012.169, 8326.264
1012.651, 8263.273
1013.133, 8211.574
1013.615, 8139.835
1014.097, 8040.890
1014.580, 7926.664
1015.062, 7807.612
1015.544, 7688.631
1016.026, 7581.577
1016.508, 7492.777
1016.990, 7394.706
1017.472, 7262.177
1017.954, 7130.435
1018.436, 7020.436
1018.919, 6931.896
1019.401, 6837.414
1019.883, 6736.953
1020.365, 6644.216
1020.847, 6574.421
1021.329, 6510.043
1021.811, 6431.090
1022.293, 6344.279
1022.776, 6264.589
1023.258, 6200.523
1023.740, 6134.346
1024.222, 6064.034
1024.704, 5991.292
1025.186, 5910.482
1025.668, 5829.277
1026.150, 5783.655
1026.632, 5781.154
1027.115, 5773.669
1027.597, 5727.496
1028.079, 5670.136
1028.561, 5617.917
1029.043, 5571.183
1029.525, 5527.050
1030.007, 5485.431
1030.489, 5453.736
1030.972, 5442.584
1031.454, 5435.347
1031.936, 5401.826
1032.418, 5354.830
1032.900, 5322.284
1033.382, 5332.427
1033.864, 5329.329
1034.346, 5304.602
1034.828, 5269.039
1035.311, 5231.243
1035.793, 5192.420
1036.275, 5162.036
1036.757, 5140.593
1037.239, 5128.775
1037.721, 5138.690
1038.203, 5148.307
1038.685, 5142.404
1039.167, 5121.184
1039.650, 5090.391
1040.132, 5044.612
1040.614, 5014.731
1041.096, 5015.081
1041.578, 5030.930
1042.060, 5047.299
1042.542, 5060.134
1043.024, 5061.139
1043.507, 5040.458
1043.989, 5022.369
1044.471, 5011.892
1044.953, 5004.369
1045.435, 4995.511
1045.917, 4985.758
1046.399, 4981.635
1046.881, 4983.033
1047.364, 4984.750
1047.846, 4979.634
1048.328, 4976.987
1048.810, 4986.838
1049.292, 5005.242
1049.774, 5013.900
1050.256, 5009.320
1050.738, 5007.336
1051.220, 5012.024
1051.703, 5017.985
1052.185, 5015.334
1052.667, 5009.210
1053.149, 5009.704
1053.631, 5021.294
1054.113, 5027.273
1054.595, 5014.216
1055.077, 5005.052
1055.559, 5014.150
1056.042, 5037.810
1056.524, 5049.332
1057.006, 5050.316
1057.488, 5053.839
1057.970, 5072.221
1058.452, 5090.012
1058.934, 5091.593
1059.416, 5088.000
1059.899, 5101.546
1060.381, 5140.732
1060.863, 5167.478
1061.345, 5177.483
1061.827, 5180.256
1062.309, 5181.977
1062.791, 5184.807
1063.273, 5190.549
1063.755, 5199.598
1064.238, 5216.862
1064.720, 5255.534
1065.202, 5287.706
1065.684, 5305.551
1066.166, 5310.860
1066.648, 5303.979
1067.130, 5287.766
1067.612, 5274.531
1068.094, 5267.301
1068.577, 5266.145
1069.059, 5281.118
1069.541, 5295.212
1070.023, 5290.448
1070.505, 5261.863
1070.987, 5244.892
1071.469, 5240.927
1071.951, 5232.976
1072.434, 5202.802
1072.916, 5166.751
1073.398, 5143.489
1073.880, 5130.701
1074.362, 5119.260
1074.844, 5104.063
1075.326, 5096.634
1075.808, 5103.677
1076.291, 5109.439
1076.773, 5086.523
1077.255, 5044.747
1077.737, 5013.526
1078.219, 4997.876
1078.701, 4981.730
1079.183, 4945.195
1079.665, 4919.639
1080.147, 4927.799
1080.630, 4960.197
1081.112, 4954.244
1081.594, 4911.493
1082.076, 4881.058
1082.558, 4888.917
1083.040, 4901.583
1083.522, 4881.671
1084.004, 4851.679
1084.486, 4844.145
1084.969, 4876.159
1085.451, 4889.948
1085.933, 4882.749
1086.415, 4867.368
1086.897, 4849.245
1087.379, 4831.623
1087.861, 4820.481
1088.343, 4815.121
1088.826, 4812.038
1089.308, 4812.816
1089.790, 4811.735
1090.272, 4805.880
1090.754, 4800.051
1091.236, 4803.736
1091.718, 4814.466
1092.200, 4819.485
1092.682, 4816.272
1093.165, 4816.098
1093.647, 4833.856
1094.129, 4849.575
1094.611, 4848.001
1095.093, 4832.374
1095.575, 4826.542
1096.057, 4830.959
1096.539, 4833.309
1097.022, 4826.478
1097.504, 4820.812
1097.986, 4830.339
1098.468, 4846.282
1098.950, 4855.662
1099.432, 4850.662
1099.914, 4856.936
1100.396, 4878.282
1100.879, 4898.218
1101.361, 4904.652
1101.843, 4901.488
1102.325, 4891.434
1102.807, 4877.837
1103.289, 4872.876
1103.771, 4893.687
1104.253, 4905.906
1104.735, 4900.578
1105.218, 4888.692
1105.700, 4886.641
1106.182, 4891.804
1106.664, 4889.652
1107.146, 4878.402
1107.628, 4872.269
1108.110, 4884.733
1108.592, 4899.938
1109.074, 4907.201
1109.557, 4909.775
1110.039, 4921.978
1110.521, 4944.031
1111.003, 4968.382
1111.485, 4997.468
1111.967, 5013.345
1112.449, 4988.607
1112.931, 4946.974
1113.414, 4910.513
1113.896, 4878.410
1114.378, 4875.396
1114.860, 4908.319
1115.342, 4940.466
1115.824, 4950.217
1116.306, 4947.493
1116.788, 4945.766
1117.271, 4944.260
1117.753, 4941.204
1118.235, 4931.359
1118.717, 4928.725
1119.199, 4940.507
1119.681, 4947.562
1120.163, 4920.271
1120.645, 4874.584
1121.127, 4860.827
1121.609, 4878.292
1122.092, 4898.093
1122.574, 4915.950
1123.056, 4919.935
1123.538, 4897.054
1124.020, 4866.280
1124.502, 4868.379
1124.984, 4899.610
1125.466, 4930.110
1125.949, 4954.750
1126.431, 4972.369
1126.913, 4988.066
1127.395, 4990.777
1127.877, 4960.374
1128.359, 4904.894
1128.841, 4894.240
1129.323, 4931.269
1129.806, 4960.726
1130.288, 4956.146
1130.770, 4949.585
1131.252, 4987.112
1131.734, 5035.834
1132.216, 5047.694
1132.698, 5000.413
1133.180, 4983.183
1133.662, 5002.487
1134.145, 5025.061
1134.627, 5032.534
1135.109, 5028.458
1135.591, 5010.527
1136.073, 4985.924
1136.555, 4973.310
1137.037, 4994.915
1137.519, 5001.576
1138.001, 4984.387
1138.484, 4964.592
1138.966, 4968.773
1139.448, 4986.343
1139.930, 4992.848
1140.412, 4987.241
1140.894, 4974.229
1141.376, 4946.632
1141.858, 4923.487
1142.341, 4910.623
1142.823, 4903.545
1143.305, 4895.546
1143.787, 4886.063
1144.269, 4873.050
1144.751, 4856.381
1145.233, 4833.796
1145.715, 4791.237
1146.198, 4755.734
1146.680, 4746.898
1147.162, 4756.174
1147.644, 4739.895
1148.126, 4700.260
1148.608, 4668.232
1149.090, 4654.039
1149.572, 4647.688
1150.054, 4649.469
1150.536, 4649.845
1151.019, 4636.081
1151.501, 4605.791
1151.983, 4600.289
1152.465, 4620.869
1152.947, 4633.346
1153.429, 4611.715
1153.911, 4582.262
1154.393, 4570.627
1154.876, 4568.502
1155.358, 4559.890
1155.840, 4534.360
1156.322, 4534.713
1156.804, 4567.111
1157.286, 4595.822
1157.768, 4584.289
1158.250, 4557.963
1158.733, 4530.903
1159.215, 4554.118
1159.697, 4565.768
1160.179, 4566.474
1160.661, 4523.457
1161.143, 4536.898
1161.625, 4527.714
1162.107, 4517.601
1162.589, 4538.989
1163.072, 4502.325
1163.554, 4523.214
1164.036, 4521.130
1164.518, 4529.561
1165.000, 4515.226
1165.482, 4507.921
1165.964, 4523.391
1166.446, 4526.250
1166.928, 4509.294
1167.411, 4518.386
1167.893, 4483.897
1168.375, 4481.854
1168.857, 4482.250
1169.339, 4482.676
1169.821, 4481.001
1170.303, 4479.625
1170.785, 4489.885
1171.268, 4506.725
1171.750, 4512.470
1172.232, 4495.774
1172.714, 4482.419
1173.196, 4489.469
1173.678, 4496.254
1174.160, 4487.732
1174.642, 4467.692
1175.125, 4464.803
1175.607, 4475.688
1176.089, 4481.752
1176.571, 4465.869
1177.053, 4454.362
1177.535, 4470.754
1178.017, 4487.652
1178.499, 4474.119
1178.981, 4430.673
1179.464, 4416.862
1179.946, 4431.307
1180.428, 4442.166
1180.910, 4422.513
1181.392, 4401.442
1181.874, 4394.320
1182.356, 4395.653
1182.838, 4399.682
1183.320, 4406.927
1183.803, 4395.536
1184.285, 4362.933
1184.767, 4342.448
1185.249, 4377.680
1185.731, 4415.734
1186.213, 4416.156
1186.695, 4390.494
1187.177, 4371.545
1187.660, 4359.277
1188.142, 4356.937
1188.624, 4366.757
1189.106, 4372.954
1189.588, 4350.370
1190.070, 4327.650
1190.552, 4336.305
1191.034, 4370.023
1191.516, 4374.144
1191.999, 4344.378
1192.481, 4328.391
1192.963, 4342.313
1193.445, 4357.521
1193.927, 4340.110
1194.409, 4313.124
1194.891, 4300.014
1195.373, 4302.649
1195.855, 4308.768
1196.338, 4320.169
1196.820, 4317.806
1197.302, 4286.021
1197.784, 4254.755
1198.266, 4260.316
1198.748, 4284.072
1199.230, 4305.624
1199.712, 4324.795
1200.195, 4323.813
1200.677, 4299.653
1201.159, 4276.528
1201.641, 4268.845
1202.123, 4267.060
1202.605, 4263.071
1203.087, 4256.563
1203.569, 4245.664
1204.052, 4224.288
1204.534, 4217.460
1205.016, 4226.625
1205.498, 4241.386
1205.980, 4262.116
1206.462, 4278.584
1206.944, 4277.460
1207.426, 4263.269
1207.908, 4244.469
1208.391, 4213.267
1208.873, 4205.508
1209.355, 4226.401
1209.837, 4250.403
1210.319, 4256.162
1210.801, 4252.833
1211.283, 4251.638
1211.765, 4250.250
1212.247, 4236.864
1212.730, 4200.457
1213.212, 4188.135
1213.694, 4208.761
1214.176, 4234.862
1214.658, 4240.722
1215.140, 4237.013
1215.622, 4237.283
1216.104, 4239.989
1216.587, 4229.964
1217.069, 4197.615
1217.551, 4186.623
1218.033, 4208.608
1218.515, 4233.743
1218.997, 4222.058
1219.479, 4199.772
1219.961, 4201.908
1220.443, 4227.934
1220.926, 4229.080
1221.408, 4194.019
1221.890, 4173.839
1222.372, 4182.400
1222.854, 4202.626
1223.336, 4222.843
1223.818, 4237.691
1224.300, 4237.104
1224.782, 4219.379
1225.265, 4216.601
1225.747, 4234.326
1226.229, 4238.346
1226.711, 4212.367
1227.193, 4184.566
1227.675, 4196.232
1228.157, 4221.390
1228.639, 4226.880
1229.122, 4206.674
1229.604, 4198.561
1230.086, 4204.048
1230.568, 4211.460
1231.050, 4216.874
1231.532, 4221.093
1232.014, 4224.573
1232.496, 4227.646
1232.979, 4232.707
1233.461, 4241.496
1233.943, 4232.944
1234.425, 4204.550
1234.907, 4185.369
1235.389, 4195.640
1235.871, 4210.345
1236.353, 4196.004
1236.835, 4175.840
1237.318, 4185.321
1237.800, 4231.753
1238.282, 4255.672
1238.764, 4256.493
1239.246, 4242.598
1239.728, 4206.119
1240.210, 4172.756
1240.692, 4163.941
1241.175, 4172.526
1241.657, 4192.133
1242.139, 4228.171
1242.621, 4230.122
1243.103, 4197.646
1243.585, 4171.407
1244.067, 4187.316
1244.549, 4205.762
1245.031, 4195.515
1245.514, 4173.786
1245.996, 4164.594
1246.478, 4168.644
1246.960, 4179.901
1247.442, 4197.526
1247.924, 4206.433
1248.406, 4183.425
1248.888, 4163.769
1249.370, 4171.842
1249.853, 4192.286
1250.335, 4206.664
1250.817, 4214.881
1251.299, 4215.588
1251.781, 4209.382
1252.263, 4205.866
1252.745, 4218.755
1253.227, 4226.268
1253.710, 4213.477
1254.192, 4194.300
1254.674, 4187.978
1255.156, 4191.802
1255.638, 4183.199
1256.120, 4162.346
1256.602, 4147.628
1257.084, 4153.032
1257.567, 4161.854
1258.049, 4169.759
1258.531, 4176.506
1259.013, 4178.511
1259.495, 4179.145
1259.977, 4198.397
1260.459, 4234.356
1260.941, 4250.646
1261.423, 4205.830
1261.906, 4173.318
1262.388, 4172.475
1262.870, 4185.606
1263.352, 4187.459
1263.834, 4183.513
1264.316, 4188.219
1264.798, 4201.810
1265.280, 4210.557
1265.762, 4209.430
1266.245, 4203.740
1266.727, 4192.871
1267.209, 4181.237
1267.691, 4173.894
1268.173, 4170.401
1268.655, 4171.677
1269.137, 4177.259
1269.619, 4177.776
1270.102, 4164.939
1270.584, 4170.543
1271.066, 4208.047
1271.548, 4242.442
1272.030, 4212.195
1272.512, 4164.781
1272.994, 4165.017
1273.476, 4213.177
1273.958, 4225.300
1274.441, 4190.006
1274.923, 4164.451
1275.405, 4162.138
1275.887, 4168.608
1276.369, 4173.383
1276.851, 4176.093
1277.333, 4175.529
1277.815, 4172.259
1278.297, 4169.951
1278.780, 4168.754
1279.262, 4165.260
1279.744, 4158.269
1280.226, 4151.834
1280.708, 4146.394
1281.190, 4145.592
1281.672, 4155.555
1282.154, 4171.507
1282.637, 4172.240
1283.119, 4160.551
1283.601, 4165.850
1284.083, 4197.333
1284.565, 4224.409
1285.047, 4228.250
1285.529, 4222.174
1286.011, 4210.530
1286.494, 4196.707
1286.976, 4191.346
1287.458, 4192.366
1287.940, 4193.327
1288.422, 4193.071
1288.904, 4191.322
1289.386, 4184.009
1289.868, 4180.920
1290.350, 4186.358
1290.833, 4196.340
1291.315, 4209.344
1291.797, 4218.850
1292.279, 4205.437
1292.761, 4160.202
1293.243, 4146.017
1293.725, 4188.369
1294.207, 4207.042
1294.689, 4166.839
1295.172, 4112.180
1295.654, 4107.671
1296.136, 4128.728
1296.618, 4146.233
1297.100, 4155.955
1297.582, 4152.819
1298.064, 4134.011
1298.546, 4120.569
1299.029, 4119.286
1299.511, 4124.839
1299.993, 4137.244
1300.475, 4149.580
1300.957, 4155.497
1301.439, 4155.078
1301.921, 4146.432
1302.403, 4129.820
1302.885, 4111.918
1303.368, 4091.002
1303.850, 4084.366
1304.332, 4119.216
1304.814, 4157.668
##END=



