##NAMES=Danburite
##RRUFFID=R050602
##IDEAL CHEMISTRY=CaB_2_Si_2_O_8_
##LOCALITY=Mogok, Burma
##OWNER=RRUFF
##SOURCE=Bill Larson
##DESCRIPTION=Yellowish brown fragment
##STATUS=The identification of this mineral has been confirmed by X-ray diffraction and chemical analysis
##URL=rruff.info/R050602
##MEASURED CHEMISTRY=Ca_1.00_B_2.00_(Si_1.00_O_4_)_2_
91.11523, 48.95027
91.59735, 48.88344
92.07947, 48.90905
92.56158, 49.01468
93.04370, 49.16241
93.52582, 49.24129
94.00793, 49.34980
94.49006, 49.70161
94.97218, 50.32649
95.45429, 51.18620
95.93641, 52.43591
96.41853, 54.06028
96.90064, 55.43483
97.38276, 56.01880
97.86488, 55.87096
98.34699, 55.63134
98.82911, 55.34556
99.31123, 55.06239
99.79334, 54.92204
100.2755, 54.90863
100.7576, 55.09808
101.2397, 55.69889
101.7218, 56.88059
102.2039, 57.66784
102.6861, 57.73883
103.1682, 57.10341
103.6503, 56.75295
104.1324, 56.78776
104.6145, 56.99269
105.0966, 57.08153
105.5788, 56.86316
106.0609, 56.85256
106.5430, 57.10724
107.0251, 57.50883
107.5072, 58.65555
107.9893, 61.28040
108.4715, 64.47774
108.9536, 66.61613
109.4357, 66.11076
109.9178, 65.97869
110.3999, 67.18258
110.8820, 70.21400
111.3642, 73.74631
111.8463, 77.73897
112.3284, 82.21358
112.8105, 87.24292
113.2926, 93.65262
113.7747, 100.1464
114.2569, 106.0014
114.7390, 110.2582
115.2211, 114.9019
115.7032, 119.8709
116.1853, 125.3658
116.6674, 132.3721
117.1496, 141.1475
117.6317, 151.7199
118.1138, 164.0070
118.5959, 178.6260
119.0780, 194.5147
119.5602, 210.5699
120.0423, 227.0332
120.5244, 245.9019
121.0065, 268.6273
121.4886, 294.3878
121.9707, 322.2216
122.4529, 352.2142
122.9350, 383.5223
123.4171, 416.3058
123.8992, 450.8069
124.3813, 483.6979
124.8634, 515.4806
125.3456, 543.8815
125.8277, 563.8079
126.3098, 568.7969
126.7919, 564.7488
127.2740, 558.2490
127.7561, 548.5297
128.2383, 541.6486
128.7204, 545.5400
129.2025, 559.1080
129.6846, 576.5943
130.1667, 598.2020
130.6488, 621.2883
131.1310, 638.1943
131.6131, 646.4811
132.0952, 650.9865
132.5773, 659.6382
133.0594, 672.5190
133.5415, 688.2289
134.0237, 705.8320
134.5058, 725.4839
134.9879, 748.0847
135.4700, 774.3382
135.9521, 803.4293
136.4343, 833.8632
136.9164, 865.8800
137.3985, 898.6876
137.8806, 931.5711
138.3627, 964.5021
138.8448, 1001.122
139.3270, 1049.020
139.8091, 1104.317
140.2912, 1127.656
140.7733, 1113.747
141.2554, 1077.622
141.7375, 1030.356
142.2197, 962.7483
142.7018, 907.4470
143.1839, 872.6727
143.6660, 859.3967
144.1481, 852.9998
144.6302, 854.6376
145.1124, 862.2607
145.5945, 873.3451
146.0766, 888.1834
146.5587, 906.2742
147.0408, 927.6542
147.5230, 952.4775
148.0051, 979.3504
148.4872, 1003.007
148.9693, 1022.772
149.4514, 1045.945
149.9335, 1073.902
150.4157, 1103.837
150.8978, 1135.253
151.3799, 1172.687
151.8620, 1203.411
152.3441, 1236.781
152.8262, 1263.449
153.3084, 1264.491
153.7905, 1216.504
154.2726, 1162.639
154.7547, 1116.858
155.2368, 1080.142
155.7189, 1052.663
156.2011, 1036.663
156.6832, 1029.660
157.1653, 1026.241
157.6474, 1026.623
158.1295, 1029.241
158.6116, 1033.199
159.0938, 1037.126
159.5759, 1043.955
160.0580, 1053.611
160.5401, 1066.450
161.0222, 1083.857
161.5044, 1102.779
161.9865, 1128.259
162.4686, 1163.717
162.9507, 1211.607
163.4328, 1267.531
163.9149, 1325.788
164.3971, 1389.135
164.8792, 1469.297
165.3613, 1589.245
165.8434, 1720.857
166.3255, 1840.040
166.8076, 2001.945
167.2898, 2093.911
167.7719, 2016.879
168.2540, 1788.288
168.7361, 1557.764
169.2182, 1395.399
169.7003, 1285.206
170.1825, 1208.199
170.6646, 1171.516
171.1467, 1155.575
171.6288, 1147.073
172.1109, 1145.918
172.5931, 1150.044
173.0752, 1159.268
173.5573, 1172.594
174.0394, 1188.498
174.5215, 1205.267
175.0036, 1224.734
175.4858, 1248.659
175.9679, 1277.255
176.4500, 1309.304
176.9321, 1341.858
177.4142, 1377.326
177.8963, 1420.520
178.3785, 1475.057
178.8606, 1538.848
179.3427, 1605.957
179.8248, 1676.413
180.3069, 1754.747
180.7890, 1848.197
181.2712, 1953.617
181.7533, 2060.262
182.2354, 2186.840
182.7175, 2308.138
183.1996, 2367.810
183.6818, 2363.844
184.1639, 2305.180
184.6460, 2176.816
185.1281, 1992.013
185.6102, 1813.643
186.0923, 1664.732
186.5745, 1545.794
187.0566, 1466.771
187.5387, 1429.739
188.0208, 1422.550
188.5029, 1431.722
188.9850, 1456.847
189.4672, 1493.000
189.9493, 1541.361
190.4314, 1599.739
190.9135, 1662.730
191.3956, 1733.792
191.8777, 1799.230
192.3599, 1839.955
192.8420, 1855.713
193.3241, 1855.638
193.8062, 1847.652
194.2883, 1830.305
194.7704, 1783.839
195.2526, 1701.272
195.7347, 1600.520
196.2168, 1508.592
196.6989, 1424.795
197.1810, 1357.351
197.6632, 1313.068
198.1453, 1291.505
198.6274, 1278.974
199.1095, 1275.130
199.5916, 1279.438
200.0737, 1290.785
200.5559, 1309.154
201.0380, 1334.595
201.5201, 1367.886
202.0022, 1409.656
202.4843, 1454.847
202.9664, 1503.404
203.4486, 1555.052
203.9307, 1615.044
204.4128, 1688.986
204.8949, 1746.785
205.3770, 1770.646
205.8591, 1757.982
206.3413, 1727.121
206.8234, 1670.239
207.3055, 1602.217
207.7876, 1560.171
208.2697, 1546.048
208.7519, 1552.808
209.2340, 1579.001
209.7161, 1626.937
210.1982, 1684.990
210.6803, 1760.302
211.1624, 1840.955
211.6446, 1899.531
212.1267, 1943.265
212.6088, 1946.291
213.0909, 1885.731
213.5730, 1742.581
214.0551, 1607.986
214.5373, 1481.999
215.0194, 1369.508
215.5015, 1282.443
215.9836, 1225.054
216.4657, 1183.896
216.9478, 1152.230
217.4300, 1131.285
217.9121, 1115.959
218.3942, 1106.994
218.8763, 1103.238
219.3584, 1101.747
219.8405, 1102.829
220.3227, 1105.575
220.8048, 1109.312
221.2869, 1113.394
221.7690, 1120.181
222.2511, 1129.143
222.7333, 1141.017
223.2154, 1157.700
223.6975, 1180.011
224.1796, 1206.097
224.6617, 1234.520
225.1438, 1262.953
225.6260, 1300.040
226.1081, 1348.059
226.5902, 1404.289
227.0723, 1463.009
227.5544, 1539.750
228.0365, 1595.497
228.5187, 1608.553
229.0008, 1559.100
229.4829, 1514.693
229.9650, 1473.352
230.4471, 1438.055
230.9292, 1416.796
231.4114, 1413.350
231.8935, 1417.800
232.3756, 1425.776
232.8577, 1436.582
233.3398, 1452.883
233.8220, 1475.525
234.3041, 1503.397
234.7862, 1533.038
235.2683, 1563.108
235.7504, 1596.829
236.2325, 1636.021
236.7147, 1680.366
237.1968, 1729.227
237.6789, 1781.150
238.1610, 1838.220
238.6431, 1903.955
239.1252, 1975.866
239.6074, 2061.580
240.0895, 2164.199
240.5716, 2282.300
241.0537, 2418.285
241.5358, 2571.965
242.0179, 2743.675
242.5001, 2934.417
242.9822, 3146.157
243.4643, 3374.080
243.9464, 3621.925
244.4285, 3904.365
244.9106, 4168.162
245.3928, 4455.130
245.8749, 4700.510
246.3570, 4791.625
246.8391, 4708.153
247.3212, 4502.930
247.8034, 4167.327
248.2855, 3655.366
248.7676, 3198.866
249.2497, 2792.171
249.7318, 2441.365
250.2139, 2158.588
250.6961, 1958.118
251.1782, 1799.606
251.6603, 1674.616
252.1424, 1586.469
252.6245, 1510.807
253.1066, 1448.485
253.5888, 1397.215
254.0709, 1353.547
254.5530, 1318.573
255.0351, 1288.929
255.5172, 1264.931
255.9993, 1246.966
256.4815, 1228.795
256.9636, 1209.473
257.4457, 1191.171
257.9278, 1176.447
258.4099, 1166.465
258.8921, 1157.379
259.3742, 1148.495
259.8563, 1139.900
260.3384, 1130.359
260.8205, 1118.996
261.3026, 1107.992
261.7848, 1099.469
262.2669, 1094.040
262.7490, 1089.589
263.2311, 1085.678
263.7132, 1082.336
264.1953, 1080.550
264.6775, 1080.879
265.1596, 1081.881
265.6417, 1082.174
266.1238, 1081.338
266.6059, 1081.201
267.0880, 1081.969
267.5702, 1083.677
268.0523, 1086.794
268.5344, 1092.080
269.0165, 1097.295
269.4986, 1100.257
269.9807, 1100.047
270.4629, 1101.875
270.9450, 1106.742
271.4271, 1114.072
271.9092, 1121.152
272.3913, 1127.479
272.8734, 1134.973
273.3556, 1144.736
273.8377, 1156.742
274.3198, 1171.253
274.8019, 1188.920
275.2840, 1208.807
275.7661, 1228.199
276.2483, 1246.507
276.7304, 1266.559
277.2125, 1291.683
277.6946, 1322.812
278.1768, 1347.980
278.6589, 1368.044
279.1410, 1379.776
279.6231, 1374.981
280.1052, 1352.225
280.5873, 1322.237
281.0695, 1287.322
281.5516, 1247.477
282.0337, 1214.835
282.5158, 1189.923
282.9979, 1171.776
283.4800, 1159.702
283.9622, 1153.818
284.4443, 1151.315
284.9264, 1151.559
285.4085, 1154.370
285.8906, 1158.451
286.3727, 1163.899
286.8549, 1170.199
287.3370, 1176.082
287.8191, 1181.664
288.3012, 1189.610
288.7833, 1201.033
289.2654, 1215.472
289.7476, 1231.584
290.2297, 1249.362
290.7118, 1268.897
291.1939, 1290.514
291.6760, 1313.960
292.1581, 1338.868
292.6403, 1365.278
293.1224, 1392.944
293.6045, 1423.118
294.0866, 1455.584
294.5687, 1486.848
295.0508, 1518.465
295.5330, 1547.338
296.0151, 1562.300
296.4972, 1560.514
296.9793, 1544.058
297.4614, 1513.544
297.9435, 1469.840
298.4257, 1421.334
298.9078, 1370.153
299.3899, 1318.975
299.8720, 1274.606
300.3541, 1237.511
300.8362, 1208.025
301.3184, 1188.159
301.8005, 1176.598
302.2826, 1168.786
302.7647, 1162.173
303.2469, 1157.431
303.7290, 1155.240
304.2111, 1155.566
304.6932, 1159.076
305.1753, 1170.090
305.6574, 1185.133
306.1396, 1195.569
306.6217, 1198.219
307.1038, 1193.619
307.5859, 1180.169
308.0680, 1156.896
308.5501, 1133.325
309.0323, 1114.855
309.5144, 1101.066
309.9965, 1091.330
310.4786, 1086.228
310.9607, 1084.368
311.4428, 1086.196
311.9250, 1091.497
312.4071, 1095.557
312.8892, 1094.913
313.3713, 1091.771
313.8534, 1088.416
314.3355, 1085.912
314.8177, 1083.127
315.2998, 1079.270
315.7819, 1074.542
316.2640, 1069.896
316.7461, 1064.668
317.2282, 1060.342
317.7104, 1058.123
318.1925, 1059.675
318.6746, 1061.268
319.1567, 1061.805
319.6388, 1061.439
320.1209, 1060.568
320.6031, 1058.444
321.0852, 1056.494
321.5673, 1055.365
322.0494, 1055.059
322.5315, 1055.787
323.0136, 1058.093
323.4958, 1061.390
323.9779, 1064.722
324.4600, 1067.536
324.9421, 1070.756
325.4242, 1074.526
325.9064, 1078.749
326.3885, 1084.125
326.8706, 1091.385
327.3527, 1099.549
327.8348, 1107.672
328.3170, 1114.512
328.7991, 1122.651
329.2812, 1132.685
329.7633, 1144.689
330.2454, 1156.836
330.7275, 1169.898
331.2097, 1182.306
331.6918, 1192.854
332.1739, 1200.530
332.6560, 1207.956
333.1381, 1215.045
333.6202, 1221.937
334.1024, 1229.119
334.5845, 1236.540
335.0666, 1244.170
335.5487, 1251.979
336.0308, 1259.801
336.5129, 1268.019
336.9951, 1276.503
337.4772, 1285.509
337.9593, 1295.687
338.4414, 1306.731
338.9235, 1320.047
339.4056, 1336.122
339.8878, 1354.758
340.3699, 1377.076
340.8520, 1403.231
341.3341, 1433.064
341.8162, 1467.054
342.2983, 1504.806
342.7805, 1547.645
343.2626, 1594.781
343.7447, 1647.212
344.2268, 1708.221
344.7089, 1778.755
345.1910, 1855.696
345.6732, 1936.262
346.1553, 2021.118
346.6374, 2109.036
347.1195, 2205.803
347.6016, 2299.670
348.0837, 2377.546
348.5659, 2438.699
349.0480, 2458.814
349.5301, 2413.262
350.0122, 2314.388
350.4944, 2187.743
350.9765, 2030.668
351.4586, 1867.956
351.9407, 1725.523
352.4228, 1603.301
352.9049, 1501.120
353.3871, 1423.169
353.8692, 1363.318
354.3513, 1315.621
354.8334, 1280.001
355.3155, 1251.441
355.7976, 1227.551
356.2798, 1207.520
356.7619, 1189.794
357.2440, 1173.809
357.7261, 1160.067
358.2082, 1149.448
358.6903, 1141.705
359.1725, 1135.195
359.6546, 1129.305
360.1367, 1124.077
360.6188, 1119.673
361.1009, 1116.643
361.5830, 1113.710
362.0652, 1110.051
362.5473, 1106.073
363.0294, 1102.779
363.5115, 1101.247
363.9936, 1099.922
364.4757, 1098.023
364.9579, 1095.278
365.4400, 1092.561
365.9221, 1089.877
366.4042, 1087.376
366.8863, 1085.248
367.3684, 1083.729
367.8506, 1082.398
368.3327, 1081.295
368.8148, 1080.472
369.2969, 1079.304
369.7790, 1077.069
370.2611, 1074.988
370.7433, 1073.965
371.2254, 1075.121
371.7075, 1075.553
372.1896, 1074.758
372.6717, 1073.026
373.1538, 1071.556
373.6360, 1070.262
374.1181, 1069.341
374.6002, 1068.966
375.0823, 1069.311
375.5645, 1069.472
376.0466, 1069.226
376.5287, 1069.039
377.0108, 1069.866
377.4929, 1071.947
377.9750, 1073.847
378.4572, 1075.011
378.9393, 1075.535
379.4214, 1076.040
379.9035, 1076.425
380.3856, 1077.236
380.8677, 1079.439
381.3499, 1082.879
381.8320, 1085.471
382.3141, 1086.569
382.7962, 1086.805
383.2783, 1087.110
383.7604, 1087.530
384.2426, 1088.906
384.7247, 1092.712
385.2068, 1097.779
385.6889, 1101.486
386.1710, 1103.342
386.6531, 1104.496
387.1353, 1105.612
387.6174, 1106.963
388.0995, 1109.243
388.5816, 1113.421
389.0637, 1118.351
389.5458, 1122.887
390.0280, 1127.066
390.5101, 1131.437
390.9922, 1136.240
391.4743, 1141.481
391.9564, 1147.257
392.4385, 1153.886
392.9207, 1160.667
393.4028, 1167.335
393.8849, 1173.825
394.3670, 1179.998
394.8491, 1186.884
395.3312, 1192.554
395.8134, 1196.079
396.2955, 1197.527
396.7776, 1196.252
397.2597, 1190.473
397.7418, 1182.409
398.2239, 1174.898
398.7061, 1167.271
399.1882, 1161.351
399.6703, 1157.730
400.1524, 1156.444
400.6346, 1156.328
401.1167, 1157.769
401.5988, 1160.044
402.0809, 1162.582
402.5630, 1164.682
403.0451, 1168.420
403.5273, 1173.945
404.0094, 1181.137
404.4915, 1190.001
404.9736, 1201.447
405.4557, 1212.371
405.9378, 1221.836
406.4200, 1229.923
406.9021, 1235.525
407.3842, 1238.512
407.8663, 1239.221
408.3484, 1237.558
408.8305, 1233.488
409.3127, 1228.828
409.7948, 1223.238
410.2769, 1217.922
410.7590, 1216.713
411.2411, 1219.649
411.7232, 1223.976
412.2054, 1227.380
412.6875, 1230.608
413.1696, 1235.630
413.6517, 1242.929
414.1338, 1251.581
414.6159, 1260.780
415.0981, 1270.430
415.5802, 1280.224
416.0623, 1288.443
416.5444, 1297.579
417.0265, 1310.169
417.5086, 1326.333
417.9908, 1343.837
418.4729, 1361.505
418.9550, 1379.559
419.4371, 1397.875
419.9192, 1415.700
420.4013, 1434.971
420.8835, 1457.457
421.3656, 1482.111
421.8477, 1506.265
422.3298, 1529.715
422.8119, 1551.697
423.2940, 1572.537
423.7762, 1593.047
424.2583, 1609.419
424.7404, 1623.887
425.2225, 1632.653
425.7047, 1631.910
426.1868, 1619.292
426.6689, 1600.278
427.1510, 1574.696
427.6331, 1542.902
428.1152, 1507.372
428.5974, 1464.348
429.0795, 1422.536
429.5616, 1386.379
430.0437, 1356.292
430.5258, 1330.447
431.0079, 1309.026
431.4901, 1291.762
431.9722, 1278.208
432.4543, 1268.373
432.9364, 1262.355
433.4185, 1261.133
433.9006, 1263.893
434.3828, 1266.732
434.8649, 1269.507
435.3470, 1274.141
435.8291, 1282.008
436.3112, 1293.177
436.7933, 1307.697
437.2755, 1325.780
437.7576, 1346.898
438.2397, 1370.720
438.7218, 1396.944
439.2039, 1424.529
439.6860, 1454.240
440.1682, 1484.541
440.6503, 1515.553
441.1324, 1547.897
441.6145, 1572.019
442.0966, 1584.134
442.5787, 1584.189
443.0609, 1572.068
443.5430, 1541.675
444.0251, 1505.461
444.5072, 1463.742
444.9893, 1418.776
445.4714, 1378.270
445.9536, 1343.913
446.4357, 1314.046
446.9178, 1287.949
447.3999, 1265.317
447.8820, 1247.298
448.3641, 1235.343
448.8463, 1227.062
449.3284, 1219.724
449.8105, 1212.817
450.2926, 1208.027
450.7747, 1206.030
451.2569, 1206.473
451.7390, 1207.082
452.2211, 1207.529
452.7032, 1208.938
453.1853, 1211.917
453.6674, 1216.491
454.1496, 1222.397
454.6317, 1229.827
455.1138, 1238.077
455.5959, 1245.421
456.0780, 1252.157
456.5602, 1261.119
457.0423, 1274.219
457.5244, 1289.550
458.0065, 1303.173
458.4886, 1315.208
458.9707, 1328.222
459.4529, 1347.828
459.9350, 1368.478
460.4171, 1381.574
460.8992, 1386.057
461.3813, 1382.904
461.8634, 1369.507
462.3456, 1349.494
462.8277, 1329.281
463.3098, 1307.780
463.7919, 1289.656
464.2740, 1278.043
464.7561, 1272.669
465.2383, 1268.964
465.7204, 1264.953
466.2025, 1262.549
466.6846, 1263.048
467.1667, 1267.841
467.6488, 1273.469
468.1310, 1279.772
468.6131, 1286.783
469.0952, 1294.768
469.5773, 1304.041
470.0594, 1313.667
470.5415, 1322.941
471.0237, 1331.960
471.5058, 1344.257
471.9879, 1359.898
472.4700, 1378.770
472.9521, 1400.443
473.4342, 1424.958
473.9164, 1453.060
474.3985, 1485.244
474.8806, 1520.810
475.3627, 1558.270
475.8448, 1597.840
476.3270, 1641.929
476.8091, 1690.928
477.2912, 1744.955
477.7733, 1804.532
478.2554, 1869.521
478.7375, 1937.888
479.2197, 2018.708
479.7018, 2098.609
480.1839, 2162.304
480.6660, 2213.112
481.1481, 2229.288
481.6302, 2187.628
482.1124, 2102.869
482.5945, 1999.928
483.0766, 1865.246
483.5587, 1734.662
484.0408, 1622.265
484.5229, 1528.984
485.0051, 1451.031
485.4872, 1392.724
485.9693, 1345.905
486.4514, 1306.628
486.9335, 1275.250
487.4156, 1249.729
487.8978, 1231.277
488.3799, 1218.135
488.8620, 1207.274
489.3441, 1199.359
489.8262, 1192.010
490.3083, 1184.334
490.7905, 1176.568
491.2726, 1171.033
491.7547, 1168.065
492.2368, 1165.505
492.7189, 1161.613
493.2010, 1156.609
493.6832, 1152.191
494.1653, 1148.307
494.6474, 1145.642
495.1295, 1146.355
495.6116, 1149.164
496.0938, 1150.039
496.5759, 1145.227
497.0580, 1139.494
497.5401, 1138.990
498.0222, 1142.670
498.5044, 1145.246
498.9865, 1141.685
499.4686, 1137.084
499.9507, 1136.057
500.4328, 1140.504
500.9149, 1143.737
501.3971, 1142.334
501.8792, 1138.986
502.3613, 1136.815
502.8434, 1137.156
503.3255, 1137.741
503.8076, 1138.180
504.2898, 1138.545
504.7719, 1139.287
505.2540, 1141.063
505.7361, 1142.211
506.2182, 1141.774
506.7003, 1139.362
507.1825, 1137.911
507.6646, 1137.593
508.1467, 1137.879
508.6288, 1138.614
509.1109, 1139.804
509.5930, 1139.564
510.0752, 1136.938
510.5573, 1133.587
511.0394, 1132.678
511.5215, 1133.984
512.0037, 1136.024
512.4858, 1138.954
512.9679, 1141.707
513.4500, 1142.370
513.9321, 1140.911
514.4142, 1139.374
514.8964, 1139.043
515.3785, 1139.429
515.8606, 1140.049
516.3427, 1140.971
516.8248, 1141.763
517.3069, 1142.471
517.7891, 1142.900
518.2712, 1142.689
518.7533, 1140.371
519.2354, 1138.806
519.7175, 1139.276
520.1996, 1141.724
520.6818, 1143.201
521.1639, 1142.987
521.6460, 1142.697
522.1281, 1143.532
522.6102, 1146.228
523.0923, 1146.960
523.5745, 1144.925
524.0566, 1142.100
524.5387, 1141.583
525.0208, 1143.363
525.5029, 1144.822
525.9850, 1144.954
526.4672, 1144.505
526.9493, 1145.138
527.4314, 1146.776
527.9135, 1148.638
528.3956, 1150.365
528.8777, 1152.001
529.3599, 1153.904
529.8420, 1156.206
530.3241, 1157.448
530.8062, 1155.797
531.2883, 1152.925
531.7704, 1150.721
532.2526, 1149.443
532.7347, 1149.180
533.2168, 1150.628
533.6989, 1153.099
534.1810, 1155.010
534.6631, 1156.149
535.1453, 1156.646
535.6274, 1156.161
536.1095, 1154.633
536.5916, 1154.436
537.0737, 1156.307
537.5558, 1158.373
538.0380, 1158.949
538.5201, 1157.532
539.0022, 1158.457
539.4843, 1162.549
539.9664, 1167.625
540.4485, 1170.270
540.9307, 1170.727
541.4128, 1171.156
541.8949, 1172.289
542.3770, 1173.719
542.8591, 1174.702
543.3412, 1175.323
543.8234, 1176.150
544.3055, 1178.230
544.7876, 1180.247
545.2697, 1180.454
545.7518, 1178.500
546.2339, 1177.296
546.7161, 1179.046
547.1982, 1181.783
547.6803, 1183.808
548.1624, 1184.352
548.6445, 1184.714
549.1266, 1184.899
549.6088, 1185.084
550.0909, 1185.673
550.5730, 1187.408
551.0551, 1188.395
551.5372, 1187.766
552.0193, 1185.802
552.5015, 1185.219
552.9836, 1186.149
553.4657, 1188.012
553.9478, 1191.055
554.4299, 1195.031
554.9120, 1197.230
555.3942, 1197.277
555.8763, 1196.563
556.3584, 1196.677
556.8405, 1197.252
557.3226, 1197.254
557.8047, 1195.704
558.2869, 1194.437
558.7690, 1195.417
559.2511, 1198.038
559.7332, 1200.783
560.2154, 1203.353
560.6975, 1205.554
561.1796, 1207.298
561.6617, 1208.591
562.1439, 1209.594
562.6260, 1208.669
563.1081, 1208.781
563.5902, 1211.883
564.0723, 1220.729
564.5544, 1226.683
565.0366, 1229.027
565.5187, 1229.241
566.0008, 1228.804
566.4829, 1227.315
566.9650, 1227.366
567.4471, 1229.677
567.9293, 1233.673
568.4114, 1238.443
568.8935, 1243.886
569.3756, 1248.495
569.8577, 1250.236
570.3398, 1250.953
570.8220, 1254.339
571.3041, 1260.370
571.7862, 1265.961
572.2683, 1268.846
572.7504, 1270.330
573.2325, 1271.682
573.7147, 1273.063
574.1968, 1274.574
574.6789, 1276.681
575.1610, 1278.811
575.6431, 1280.244
576.1252, 1279.839
576.6074, 1279.945
577.0895, 1280.694
577.5716, 1282.186
578.0537, 1284.810
578.5358, 1288.669
579.0179, 1293.457
579.5001, 1299.405
579.9822, 1306.427
580.4643, 1312.178
580.9464, 1316.489
581.4285, 1320.618
581.9106, 1325.525
582.3928, 1331.162
582.8749, 1337.562
583.3570, 1344.961
583.8391, 1352.095
584.3212, 1357.006
584.8033, 1360.981
585.2855, 1366.263
585.7676, 1374.511
586.2497, 1383.361
586.7318, 1391.576
587.2139, 1399.508
587.6960, 1408.162
588.1782, 1415.579
588.6603, 1425.896
589.1424, 1441.772
589.6245, 1463.609
590.1066, 1482.712
590.5887, 1496.570
591.0709, 1511.023
591.5530, 1529.388
592.0351, 1551.652
592.5172, 1577.850
592.9993, 1608.039
593.4814, 1641.967
593.9636, 1678.548
594.4457, 1718.100
594.9278, 1764.098
595.4099, 1817.599
595.8920, 1877.808
596.3741, 1943.208
596.8563, 2014.036
597.3384, 2090.589
597.8205, 2173.241
598.3026, 2260.890
598.7847, 2351.348
599.2668, 2445.175
599.7490, 2544.431
600.2311, 2647.446
600.7132, 2757.813
601.1953, 2878.083
601.6774, 3009.079
602.1595, 3149.433
602.6417, 3298.587
603.1238, 3460.528
603.6059, 3637.159
604.0880, 3829.685
604.5701, 4034.675
605.0522, 4249.689
605.5344, 4478.356
606.0165, 4717.935
606.4986, 4970.375
606.9807, 5238.792
607.4628, 5529.240
607.9449, 5828.933
608.4271, 6130.221
608.9092, 6427.173
609.3913, 6685.061
609.8735, 6923.946
610.3556, 7087.267
610.8377, 7141.386
611.3198, 7082.525
611.8019, 6923.072
612.2841, 6623.323
612.7662, 6254.271
613.2483, 5847.366
613.7304, 5379.118
614.2125, 4947.034
614.6946, 4545.494
615.1768, 4180.604
615.6589, 3859.777
616.1410, 3581.667
616.6231, 3338.391
617.1052, 3130.938
617.5873, 2953.041
618.0695, 2802.632
618.5516, 2677.762
619.0337, 2571.595
619.5158, 2484.277
619.9979, 2411.684
620.4800, 2351.546
620.9622, 2303.170
621.4443, 2264.366
621.9264, 2234.275
622.4085, 2212.576
622.8906, 2199.294
623.3727, 2194.866
623.8549, 2196.449
624.3370, 2204.184
624.8191, 2217.468
625.3012, 2235.964
625.7833, 2261.617
626.2654, 2288.806
626.7476, 2319.963
627.2297, 2349.204
627.7118, 2371.570
628.1939, 2387.352
628.6760, 2384.776
629.1581, 2360.059
629.6403, 2317.573
630.1224, 2259.804
630.6045, 2189.269
631.0866, 2115.290
631.5687, 2037.501
632.0508, 1961.741
632.5330, 1892.703
633.0151, 1830.843
633.4972, 1776.557
633.9793, 1731.886
634.4614, 1693.386
634.9435, 1659.604
635.4257, 1631.151
635.9078, 1605.638
636.3899, 1583.220
636.8720, 1563.209
637.3541, 1545.496
637.8362, 1529.771
638.3184, 1517.205
638.8005, 1508.795
639.2826, 1501.513
639.7647, 1491.053
640.2468, 1477.905
640.7289, 1465.930
641.2111, 1456.348
641.6932, 1447.714
642.1753, 1437.754
642.6574, 1427.219
643.1395, 1418.096
643.6216, 1411.667
644.1038, 1406.395
644.5859, 1401.731
645.0680, 1397.578
645.5501, 1393.458
646.0322, 1388.850
646.5143, 1384.726
646.9965, 1381.597
647.4786, 1379.508
647.9607, 1377.213
648.4428, 1374.658
648.9249, 1371.962
649.4070, 1369.015
649.8892, 1365.845
650.3713, 1363.119
650.8534, 1360.860
651.3355, 1358.931
651.8176, 1357.811
652.2997, 1356.828
652.7819, 1354.099
653.2640, 1348.299
653.7461, 1343.249
654.2282, 1343.128
654.7103, 1345.321
655.1924, 1345.938
655.6746, 1341.379
656.1567, 1337.820
656.6388, 1338.011
657.1209, 1340.425
657.6030, 1340.649
658.0851, 1337.007
658.5673, 1334.249
659.0494, 1334.034
659.5316, 1335.883
660.0137, 1336.696
660.4958, 1336.345
660.9779, 1336.315
661.4600, 1338.138
661.9421, 1340.870
662.4243, 1341.810
662.9064, 1340.927
663.3885, 1340.019
663.8706, 1340.708
664.3527, 1341.899
664.8348, 1342.373
665.3170, 1341.668
665.7991, 1341.397
666.2812, 1342.629
666.7633, 1344.252
667.2454, 1345.160
667.7275, 1344.238
668.2097, 1344.508
668.6918, 1346.396
669.1739, 1349.195
669.6560, 1352.252
670.1381, 1355.745
670.6202, 1357.314
671.1024, 1355.598
671.5845, 1352.873
672.0666, 1354.126
672.5487, 1358.311
673.0308, 1361.351
673.5129, 1360.164
673.9951, 1357.778
674.4772, 1356.868
674.9593, 1357.063
675.4414, 1356.714
675.9235, 1354.411
676.4056, 1352.119
676.8878, 1350.867
677.3699, 1350.759
677.8520, 1350.327
678.3341, 1349.533
678.8162, 1348.477
679.2983, 1347.048
679.7805, 1345.176
680.2626, 1344.080
680.7447, 1343.845
681.2268, 1343.940
681.7089, 1343.938
682.1910, 1343.853
682.6732, 1343.828
683.1553, 1343.959
683.6374, 1343.727
684.1195, 1342.185
684.6016, 1340.245
685.0837, 1339.031
685.5659, 1339.308
686.0480, 1339.743
686.5301, 1340.302
687.0122, 1340.760
687.4943, 1340.677
687.9764, 1339.429
688.4586, 1338.986
688.9407, 1339.947
689.4228, 1341.738
689.9049, 1342.852
690.3870, 1343.282
690.8691, 1343.486
691.3513, 1343.551
691.8334, 1343.557
692.3155, 1343.729
692.7976, 1343.997
693.2797, 1344.082
693.7618, 1343.740
694.2440, 1343.225
694.7261, 1342.460
695.2082, 1341.511
695.6903, 1341.314
696.1724, 1342.806
696.6545, 1344.505
697.1367, 1345.643
697.6188, 1346.045
698.1009, 1347.373
698.5830, 1350.047
699.0651, 1352.720
699.5472, 1354.255
700.0294, 1354.765
700.5115, 1355.130
700.9936, 1355.356
701.4757, 1355.766
701.9578, 1356.411
702.4399, 1357.509
702.9221, 1359.632
703.4042, 1363.458
703.8863, 1366.710
704.3684, 1367.442
704.8505, 1367.221
705.3326, 1367.893
705.8148, 1370.580
706.2969, 1373.088
706.7790, 1375.079
707.2611, 1376.966
707.7432, 1379.773
708.2253, 1383.879
708.7075, 1386.487
709.1896, 1386.418
709.6718, 1385.162
710.1539, 1385.715
710.6360, 1387.787
711.1181, 1390.148
711.6002, 1392.501
712.0823, 1394.679
712.5645, 1396.208
713.0466, 1397.392
713.5287, 1399.298
714.0108, 1402.871
714.4929, 1406.698
714.9750, 1410.484
715.4572, 1414.181
715.9393, 1416.749
716.4214, 1417.701
716.9035, 1418.532
717.3856, 1420.079
717.8677, 1422.232
718.3499, 1423.566
718.8320, 1424.074
719.3141, 1424.434
719.7962, 1425.444
720.2783, 1426.547
720.7604, 1426.696
721.2426, 1425.769
721.7247, 1425.064
722.2068, 1425.214
722.6889, 1425.974
723.1710, 1427.267
723.6531, 1429.419
724.1353, 1431.210
724.6174, 1432.391
725.0995, 1433.396
725.5816, 1434.527
726.0637, 1435.718
726.5458, 1437.329
727.0280, 1439.358
727.5101, 1441.920
727.9922, 1445.525
728.4743, 1449.769
728.9564, 1453.437
729.4385, 1455.833
729.9207, 1458.526
730.4028, 1463.608
730.8849, 1469.509
731.3670, 1473.979
731.8491, 1474.157
732.3312, 1475.514
732.8134, 1480.249
733.2955, 1486.419
733.7776, 1490.766
734.2597, 1492.651
734.7418, 1494.827
735.2239, 1497.913
735.7061, 1501.559
736.1882, 1505.075
736.6703, 1508.477
737.1524, 1511.611
737.6345, 1513.469
738.1166, 1516.049
738.5988, 1523.240
739.0809, 1533.156
739.5630, 1540.414
740.0451, 1539.272
740.5272, 1538.506
741.0093, 1542.116
741.4915, 1549.522
741.9736, 1556.402
742.4557, 1562.738
742.9378, 1568.474
743.4199, 1573.217
743.9020, 1577.324
744.3842, 1582.928
744.8663, 1590.070
745.3484, 1597.474
745.8305, 1604.822
746.3126, 1611.836
746.7947, 1617.839
747.2769, 1622.954
747.7590, 1627.968
748.2411, 1633.015
748.7232, 1638.357
749.2053, 1644.565
749.6874, 1651.912
750.1696, 1657.965
750.6517, 1661.562
751.1338, 1665.479
751.6159, 1671.734
752.0980, 1680.556
752.5801, 1686.723
753.0623, 1690.061
753.5444, 1691.969
754.0265, 1692.426
754.5086, 1692.620
754.9907, 1695.335
755.4728, 1700.983
755.9550, 1706.338
756.4371, 1708.811
756.9192, 1710.469
757.4013, 1713.182
757.8835, 1718.002
758.3656, 1721.586
758.8477, 1723.392
759.3298, 1724.426
759.8120, 1725.365
760.2941, 1726.143
760.7762, 1727.616
761.2583, 1730.043
761.7404, 1732.407
762.2225, 1732.905
762.7047, 1732.594
763.1868, 1734.418
763.6689, 1739.676
764.1510, 1743.797
764.6331, 1742.073
765.1152, 1738.366
765.5974, 1736.827
766.0795, 1739.729
766.5616, 1742.488
767.0437, 1744.586
767.5258, 1746.568
768.0079, 1748.880
768.4901, 1751.411
768.9722, 1755.120
769.4543, 1760.484
769.9364, 1765.797
770.4185, 1768.451
770.9006, 1769.176
771.3828, 1769.918
771.8649, 1771.387
772.3470, 1772.604
772.8291, 1773.373
773.3112, 1773.373
773.7933, 1772.159
774.2755, 1768.826
774.7576, 1765.434
775.2397, 1762.518
775.7218, 1759.478
776.2039, 1755.175
776.6860, 1749.504
777.1682, 1743.797
777.6503, 1738.506
778.1324, 1732.900
778.6145, 1724.877
779.0966, 1715.568
779.5787, 1708.112
780.0609, 1705.331
780.5430, 1702.065
781.0251, 1694.603
781.5072, 1684.604
781.9893, 1675.224
782.4714, 1665.212
782.9536, 1658.412
783.4357, 1656.827
783.9178, 1657.791
784.3999, 1655.255
784.8820, 1648.867
785.3641, 1644.274
785.8463, 1643.804
786.3284, 1644.497
786.8105, 1641.047
787.2926, 1634.905
787.7747, 1629.689
788.2568, 1627.200
788.7390, 1625.801
789.2211, 1625.753
789.7032, 1626.132
790.1853, 1624.604
790.6674, 1618.825
791.1495, 1614.559
791.6317, 1613.113
792.1138, 1613.501
792.5959, 1613.644
793.0780, 1613.555
793.5601, 1612.777
794.0422, 1611.077
794.5244, 1608.758
795.0065, 1605.982
795.4886, 1602.911
795.9707, 1599.976
796.4528, 1597.171
796.9349, 1594.723
797.4171, 1592.567
797.8992, 1590.850
798.3813, 1590.059
798.8634, 1590.797
799.3455, 1591.039
799.8276, 1590.102
800.3098, 1588.597
800.7919, 1588.212
801.2740, 1588.789
801.7561, 1588.997
802.2382, 1588.295
802.7203, 1587.008
803.2025, 1585.290
803.6846, 1583.259
804.1667, 1581.174
804.6488, 1578.270
805.1309, 1576.296
805.6130, 1576.544
806.0952, 1577.960
806.5773, 1578.221
807.0594, 1576.860
807.5416, 1576.030
808.0237, 1576.556
808.5058, 1577.558
808.9879, 1577.017
809.4700, 1575.220
809.9521, 1573.424
810.4343, 1572.157
810.9164, 1571.026
811.3985, 1569.322
811.8806, 1567.564
812.3627, 1566.855
812.8448, 1568.041
813.3270, 1569.700
813.8091, 1572.194
814.2912, 1574.656
814.7733, 1574.843
815.2554, 1572.506
815.7375, 1570.506
816.2197, 1569.806
816.7018, 1569.449
817.1839, 1567.474
817.6660, 1564.633
818.1481, 1562.741
818.6302, 1563.012
819.1124, 1563.789
819.5945, 1563.988
820.0766, 1564.248
820.5587, 1566.030
821.0408, 1571.450
821.5229, 1574.326
822.0051, 1573.239
822.4872, 1570.033
822.9693, 1567.626
823.4514, 1566.017
823.9335, 1565.435
824.4156, 1566.243
824.8978, 1567.322
825.3799, 1567.268
825.8620, 1566.699
826.3441, 1566.645
826.8262, 1567.943
827.3083, 1569.064
827.7905, 1569.209
828.2726, 1569.200
828.7547, 1570.034
829.2368, 1571.718
829.7189, 1574.409
830.2010, 1578.592
830.6832, 1582.553
831.1653, 1583.763
831.6474, 1582.834
832.1295, 1581.328
832.6116, 1579.460
833.0938, 1577.735
833.5759, 1575.446
834.0580, 1573.979
834.5401, 1574.919
835.0222, 1582.223
835.5043, 1586.160
835.9865, 1585.298
836.4686, 1582.901
836.9507, 1582.490
837.4328, 1583.997
837.9149, 1585.599
838.3970, 1587.116
838.8792, 1588.641
839.3613, 1590.242
839.8434, 1591.924
840.3255, 1593.537
840.8076, 1594.834
841.2897, 1596.922
841.7719, 1601.660
842.2540, 1606.139
842.7361, 1607.963
843.2182, 1606.083
843.7003, 1605.821
844.1824, 1607.496
844.6646, 1609.586
845.1467, 1610.970
845.6288, 1611.669
846.1109, 1611.277
846.5930, 1609.749
847.0751, 1609.068
847.5573, 1611.664
848.0394, 1614.802
848.5215, 1616.229
849.0036, 1615.282
849.4857, 1615.442
849.9678, 1617.111
850.4500, 1619.393
850.9321, 1622.050
851.4142, 1625.020
851.8963, 1627.313
852.3784, 1628.963
852.8605, 1630.415
853.3427, 1631.662
853.8248, 1633.095
854.3069, 1635.332
854.7890, 1638.288
855.2711, 1640.948
855.7532, 1642.471
856.2354, 1644.106
856.7175, 1646.414
857.1996, 1649.215
857.6818, 1651.211
858.1639, 1652.195
858.6460, 1653.789
859.1281, 1657.023
859.6102, 1661.139
860.0923, 1664.952
860.5745, 1668.480
861.0566, 1671.677
861.5387, 1674.450
862.0208, 1677.026
862.5029, 1679.225
862.9850, 1681.366
863.4672, 1684.387
863.9493, 1688.669
864.4314, 1693.061
864.9135, 1697.473
865.3956, 1701.750
865.8777, 1705.566
866.3599, 1709.006
866.8420, 1712.152
867.3241, 1714.984
867.8062, 1717.711
868.2883, 1720.146
868.7704, 1722.662
869.2526, 1725.779
869.7347, 1730.813
870.2168, 1734.586
870.6989, 1736.378
871.1810, 1737.389
871.6631, 1739.415
872.1453, 1742.336
872.6274, 1744.105
873.1095, 1744.290
873.5916, 1744.040
874.0737, 1744.823
874.5558, 1745.740
875.0380, 1745.344
875.5201, 1742.484
876.0022, 1741.287
876.4843, 1745.188
876.9664, 1749.036
877.4485, 1749.005
877.9307, 1744.201
878.4128, 1742.382
878.8949, 1743.821
879.3770, 1746.024
879.8591, 1746.518
880.3412, 1746.576
880.8234, 1748.983
881.3055, 1753.753
881.7876, 1756.752
882.2697, 1754.253
882.7518, 1751.194
883.2339, 1749.894
883.7161, 1750.320
884.1982, 1752.272
884.6803, 1756.222
885.1624, 1759.659
885.6445, 1760.528
886.1266, 1760.484
886.6088, 1764.438
887.0909, 1771.349
887.5730, 1776.818
888.0551, 1776.079
888.5372, 1775.974
889.0193, 1781.451
889.5015, 1790.450
889.9836, 1795.799
890.4657, 1795.051
890.9478, 1796.574
891.4299, 1802.672
891.9120, 1811.033
892.3942, 1817.404
892.8763, 1822.286
893.3584, 1827.479
893.8405, 1833.617
894.3226, 1840.136
894.8047, 1847.068
895.2869, 1853.868
895.7690, 1859.831
896.2511, 1863.825
896.7332, 1868.634
897.2153, 1874.733
897.6974, 1880.760
898.1796, 1885.115
898.6617, 1888.008
899.1438, 1890.633
899.6259, 1893.149
900.1080, 1895.196
900.5901, 1897.124
901.0723, 1898.051
901.5544, 1896.882
902.0365, 1893.232
902.5186, 1889.613
903.0007, 1885.875
903.4828, 1882.903
903.9650, 1881.443
904.4471, 1881.249
904.9292, 1879.839
905.4113, 1877.251
905.8935, 1874.616
906.3756, 1872.914
906.8577, 1871.277
907.3398, 1868.246
907.8220, 1864.392
908.3041, 1862.076
908.7862, 1862.852
909.2683, 1864.061
909.7504, 1865.325
910.2325, 1866.529
910.7147, 1867.223
911.1968, 1867.419
911.6789, 1868.062
912.1610, 1869.403
912.6431, 1871.298
913.1252, 1873.451
913.6074, 1876.088
914.0895, 1879.637
914.5716, 1885.435
915.0537, 1890.051
915.5358, 1892.648
916.0179, 1894.297
916.5001, 1895.480
916.9822, 1896.060
917.4643, 1899.518
917.9464, 1906.342
918.4285, 1913.423
918.9106, 1917.670
919.3928, 1920.535
919.8749, 1923.979
920.3570, 1928.261
920.8391, 1931.637
921.3212, 1932.348
921.8033, 1933.389
922.2855, 1936.079
922.7676, 1940.297
923.2497, 1944.812
923.7318, 1949.652
924.2139, 1953.481
924.6960, 1956.100
925.1782, 1956.889
925.6603, 1953.940
926.1424, 1948.453
926.6245, 1943.645
927.1066, 1940.318
927.5887, 1938.331
928.0709, 1938.198
928.5530, 1938.831
929.0351, 1938.263
929.5172, 1936.440
929.9993, 1934.202
930.4814, 1931.449
930.9636, 1929.389
931.4457, 1930.429
931.9278, 1932.599
932.4099, 1932.876
932.8920, 1929.557
933.3741, 1927.829
933.8563, 1930.273
934.3384, 1933.416
934.8205, 1934.888
935.3026, 1934.594
935.7847, 1935.235
936.2668, 1936.783
936.7490, 1939.990
937.2311, 1947.161
937.7132, 1955.136
938.1953, 1959.500
938.6774, 1960.793
939.1595, 1962.869
939.6417, 1967.818
940.1238, 1972.535
940.6059, 1975.916
941.0880, 1978.585
941.5701, 1982.411
942.0522, 1987.395
942.5344, 1993.021
943.0165, 1999.180
943.4986, 2006.054
943.9807, 2014.601
944.4628, 2023.778
944.9449, 2032.016
945.4271, 2038.966
945.9092, 2045.006
946.3913, 2049.964
946.8734, 2054.487
947.3555, 2059.683
947.8376, 2065.365
948.3198, 2067.986
948.8019, 2067.244
949.2840, 2066.421
949.7661, 2069.680
950.2482, 2073.047
950.7303, 2072.763
951.2125, 2068.587
951.6946, 2063.478
952.1767, 2056.743
952.6588, 2050.931
953.1409, 2047.121
953.6230, 2044.735
954.1052, 2041.653
954.5873, 2038.037
955.0695, 2034.922
955.5516, 2032.558
956.0337, 2031.082
956.5158, 2031.154
956.9979, 2032.017
957.4800, 2032.373
957.9622, 2030.832
958.4443, 2031.114
958.9264, 2033.548
959.4085, 2037.508
959.8906, 2042.929
960.3727, 2049.360
960.8549, 2054.628
961.3370, 2058.521
961.8191, 2063.413
962.3012, 2071.426
962.7833, 2080.624
963.2654, 2089.386
963.7476, 2097.685
964.2297, 2107.801
964.7118, 2119.841
965.1939, 2132.741
965.6760, 2145.887
966.1581, 2159.730
966.6403, 2175.058
967.1224, 2192.075
967.6045, 2211.841
968.0866, 2236.050
968.5687, 2261.386
969.0508, 2287.118
969.5330, 2313.261
970.0151, 2340.134
970.4972, 2367.377
970.9793, 2396.573
971.4614, 2428.230
971.9435, 2459.295
972.4257, 2488.466
972.9078, 2513.895
973.3899, 2533.598
973.8720, 2547.199
974.3541, 2553.527
974.8362, 2552.217
975.3184, 2542.712
975.8005, 2523.538
976.2826, 2495.906
976.7647, 2469.098
977.2468, 2443.224
977.7289, 2418.595
978.2111, 2394.917
978.6932, 2373.546
979.1753, 2356.427
979.6574, 2342.647
980.1395, 2330.445
980.6216, 2318.873
981.1038, 2309.839
981.5859, 2303.498
982.0680, 2299.675
982.5501, 2298.775
983.0322, 2300.500
983.5143, 2302.524
983.9965, 2304.610
984.4786, 2307.994
984.9607, 2315.567
985.4428, 2323.230
985.9249, 2326.902
986.4070, 2326.221
986.8892, 2328.998
987.3713, 2336.199
987.8534, 2344.057
988.3355, 2351.069
988.8176, 2357.849
989.2997, 2366.551
989.7819, 2376.244
990.2640, 2384.074
990.7461, 2386.200
991.2282, 2390.214
991.7103, 2401.263
992.1924, 2414.738
992.6746, 2424.713
993.1567, 2429.980
993.6388, 2438.909
994.1209, 2452.379
994.6030, 2466.609
995.0851, 2476.287
995.5673, 2485.728
996.0494, 2501.870
996.5315, 2524.630
997.0136, 2545.945
997.4957, 2561.547
997.9778, 2577.741
998.4600, 2595.803
998.9421, 2615.664
999.4242, 2636.458
999.9063, 2658.174
1000.388, 2683.017
1000.871, 2713.026
1001.353, 2743.262
1001.835, 2767.943
1002.317, 2790.995
1002.799, 2817.397
1003.281, 2848.705
1003.763, 2881.766
1004.245, 2916.982
1004.728, 2953.654
1005.210, 2991.675
1005.692, 3031.092
1006.174, 3072.280
1006.656, 3115.344
1007.138, 3160.514
1007.620, 3209.585
1008.102, 3259.595
1008.584, 3309.877
1009.067, 3360.655
1009.549, 3411.683
1010.031, 3463.492
1010.513, 3516.458
1010.995, 3570.534
1011.477, 3625.695
1011.959, 3679.869
1012.441, 3735.122
1012.924, 3794.486
1013.406, 3858.928
1013.888, 3925.341
1014.370, 3992.105
1014.852, 4061.850
1015.334, 4137.089
1015.816, 4216.954
1016.298, 4298.686
1016.780, 4381.567
1017.263, 4465.223
1017.745, 4547.648
1018.227, 4632.421
1018.709, 4722.692
1019.191, 4815.896
1019.673, 4907.003
1020.155, 4995.020
1020.637, 5084.231
1021.120, 5176.062
1021.602, 5267.243
1022.084, 5354.752
1022.566, 5438.869
1023.048, 5520.214
1023.530, 5598.869
1024.012, 5674.370
1024.494, 5746.760
1024.976, 5814.406
1025.458, 5877.208
1025.941, 5935.025
1026.423, 5986.228
1026.905, 6030.995
1027.387, 6068.729
1027.869, 6099.115
1028.351, 6121.565
1028.833, 6137.148
1029.316, 6143.405
1029.798, 6137.170
1030.280, 6116.548
1030.762, 6084.846
1031.244, 6039.901
1031.726, 5989.698
1032.208, 5941.984
1032.690, 5892.679
1033.172, 5830.603
1033.655, 5756.806
1034.137, 5678.503
1034.619, 5601.624
1035.101, 5518.745
1035.583, 5427.583
1036.065, 5330.211
1036.547, 5229.632
1037.029, 5126.529
1037.511, 5023.914
1037.994, 4923.138
1038.476, 4823.068
1038.958, 4725.544
1039.440, 4629.005
1039.922, 4533.041
1040.404, 4436.442
1040.886, 4345.692
1041.368, 4261.625
1041.851, 4180.337
1042.333, 4099.229
1042.815, 4018.987
1043.297, 3942.741
1043.779, 3868.875
1044.261, 3795.337
1044.743, 3718.310
1045.225, 3646.197
1045.708, 3584.924
1046.190, 3529.169
1046.672, 3473.879
1047.154, 3418.675
1047.636, 3368.230
1048.118, 3322.345
1048.600, 3278.196
1049.082, 3232.866
1049.564, 3188.408
1050.047, 3148.009
1050.529, 3110.567
1051.011, 3073.026
1051.493, 3033.601
1051.975, 2997.161
1052.457, 2965.376
1052.939, 2935.327
1053.421, 2902.236
1053.903, 2867.649
1054.386, 2833.295
1054.868, 2799.405
1055.350, 2768.545
1055.832, 2742.960
1056.314, 2720.017
1056.796, 2699.239
1057.278, 2679.919
1057.760, 2656.106
1058.243, 2627.953
1058.725, 2601.208
1059.207, 2578.426
1059.689, 2557.864
1060.171, 2537.796
1060.653, 2518.708
1061.135, 2501.446
1061.617, 2487.575
1062.099, 2472.105
1062.582, 2454.467
1063.064, 2436.801
1063.546, 2420.614
1064.028, 2405.503
1064.510, 2390.621
1064.992, 2376.063
1065.474, 2362.190
1065.956, 2349.742
1066.438, 2337.043
1066.921, 2323.043
1067.403, 2309.177
1067.885, 2297.831
1068.367, 2288.724
1068.849, 2280.417
1069.331, 2272.696
1069.813, 2264.339
1070.295, 2252.787
1070.778, 2241.425
1071.260, 2233.336
1071.742, 2228.315
1072.224, 2223.133
1072.706, 2217.711
1073.188, 2212.530
1073.670, 2207.492
1074.152, 2203.163
1074.635, 2201.316
1075.117, 2200.301
1075.599, 2197.231
1076.081, 2189.930
1076.563, 2184.106
1077.045, 2180.270
1077.527, 2177.770
1078.009, 2176.996
1078.491, 2177.172
1078.974, 2174.862
1079.456, 2170.484
1079.938, 2166.243
1080.420, 2164.229
1080.902, 2161.302
1081.384, 2155.932
1081.866, 2149.122
1082.348, 2141.496
1082.831, 2133.008
1083.313, 2126.059
1083.795, 2120.985
1084.277, 2116.311
1084.759, 2110.831
1085.241, 2105.323
1085.723, 2100.465
1086.205, 2096.262
1086.688, 2092.019
1087.170, 2087.338
1087.652, 2083.992
1088.134, 2082.618
1088.616, 2082.214
1089.098, 2080.700
1089.580, 2079.384
1090.062, 2080.695
1090.544, 2085.550
1091.026, 2090.496
1091.509, 2095.343
1091.991, 2099.377
1092.473, 2101.729
1092.955, 2103.252
1093.437, 2107.305
1093.919, 2113.406
1094.401, 2119.434
1094.883, 2124.365
1095.366, 2129.460
1095.848, 2134.338
1096.330, 2140.456
1096.812, 2149.356
1097.294, 2161.336
1097.776, 2173.031
1098.258, 2184.378
1098.740, 2195.836
1099.223, 2207.871
1099.705, 2220.134
1100.187, 2232.713
1100.669, 2245.117
1101.151, 2255.815
1101.633, 2263.682
1102.115, 2273.394
1102.597, 2285.746
1103.079, 2298.934
1103.562, 2312.167
1104.044, 2324.300
1104.526, 2332.526
1105.008, 2337.085
1105.490, 2343.128
1105.972, 2354.884
1106.454, 2363.210
1106.936, 2365.452
1107.418, 2363.823
1107.901, 2362.069
1108.383, 2359.926
1108.865, 2356.415
1109.347, 2351.094
1109.829, 2345.968
1110.311, 2343.636
1110.793, 2339.805
1111.275, 2332.059
1111.758, 2320.932
1112.240, 2309.071
1112.722, 2296.430
1113.204, 2284.226
1113.686, 2273.066
1114.168, 2261.931
1114.650, 2248.832
1115.132, 2236.434
1115.615, 2227.757
1116.097, 2223.562
1116.579, 2218.181
1117.061, 2211.561
1117.543, 2205.438
1118.025, 2201.926
1118.507, 2198.762
1118.989, 2193.305
1119.471, 2186.391
1119.953, 2179.958
1120.436, 2174.271
1120.918, 2169.147
1121.400, 2164.563
1121.882, 2160.566
1122.364, 2157.709
1122.846, 2155.217
1123.328, 2151.156
1123.810, 2145.926
1124.293, 2142.419
1124.775, 2143.810
1125.257, 2143.544
1125.739, 2139.507
1126.221, 2135.008
1126.703, 2136.318
1127.185, 2141.254
1127.667, 2143.018
1128.150, 2140.690
1128.632, 2137.866
1129.114, 2135.346
1129.596, 2133.834
1130.078, 2134.121
1130.560, 2135.275
1131.042, 2133.536
1131.524, 2129.636
1132.006, 2128.792
1132.489, 2133.057
1132.971, 2137.439
1133.453, 2139.506
1133.935, 2139.388
1134.417, 2136.019
1134.899, 2129.779
1135.381, 2129.522
1135.863, 2135.214
1136.346, 2139.402
1136.828, 2137.815
1137.310, 2135.446
1137.792, 2137.093
1138.274, 2140.540
1138.756, 2143.132
1139.238, 2145.092
1139.720, 2143.939
1140.203, 2138.996
1140.685, 2135.365
1141.167, 2137.479
1141.649, 2141.730
1142.131, 2144.591
1142.613, 2145.928
1143.095, 2145.392
1143.577, 2140.798
1144.059, 2138.628
1144.542, 2139.379
1145.024, 2141.711
1145.506, 2145.714
1145.988, 2149.765
1146.470, 2150.291
1146.952, 2148.086
1147.434, 2147.144
1147.916, 2148.819
1148.398, 2152.115
1148.881, 2158.016
1149.363, 2163.421
1149.845, 2162.781
1150.327, 2158.762
1150.809, 2159.497
1151.291, 2165.146
1151.773, 2166.630
1152.255, 2153.847
1152.738, 2144.344
1153.220, 2144.402
1153.702, 2149.259
1154.184, 2149.406
1154.666, 2146.079
1155.148, 2144.162
1155.630, 2144.490
1156.112, 2145.728
1156.594, 2148.571
1157.077, 2150.556
1157.559, 2150.695
1158.041, 2149.053
1158.523, 2144.809
1159.005, 2138.546
1159.487, 2135.071
1159.969, 2136.140
1160.451, 2138.423
1160.933, 2140.126
1161.416, 2141.823
1161.898, 2144.046
1162.380, 2146.734
1162.862, 2149.116
1163.344, 2151.220
1163.826, 2152.826
1164.308, 2152.965
1164.790, 2154.447
1165.273, 2161.055
1165.755, 2169.160
1166.237, 2174.694
1166.719, 2177.179
1167.201, 2181.126
1167.683, 2186.639
1168.165, 2191.637
1168.647, 2193.921
1169.130, 2196.621
1169.612, 2203.305
1170.094, 2211.981
1170.576, 2219.657
1171.058, 2225.932
1171.540, 2231.903
1172.022, 2237.635
1172.504, 2242.445
1172.986, 2245.382
1173.469, 2247.643
1173.951, 2250.701
1174.433, 2254.103
1174.915, 2256.619
1175.397, 2258.196
1175.879, 2259.079
1176.361, 2259.411
1176.843, 2258.427
1177.326, 2254.502
1177.808, 2249.512
1178.290, 2246.073
1178.772, 2243.680
1179.254, 2240.004
1179.736, 2233.940
1180.218, 2228.575
1180.700, 2224.456
1181.182, 2220.114
1181.665, 2213.552
1182.147, 2205.951
1182.629, 2199.063
1183.111, 2192.988
1183.593, 2187.486
1184.075, 2182.480
1184.557, 2178.354
1185.039, 2175.535
1185.521, 2172.738
1186.004, 2167.897
1186.486, 2162.169
1186.968, 2157.521
1187.450, 2154.120
1187.932, 2150.659
1188.414, 2147.430
1188.896, 2142.795
1189.378, 2135.560
1189.861, 2128.284
1190.343, 2126.081
1190.825, 2126.535
1191.307, 2125.378
1191.789, 2121.902
1192.271, 2117.762
1192.753, 2112.630
1193.235, 2108.290
1193.718, 2105.888
1194.200, 2103.755
1194.682, 2097.339
1195.164, 2089.207
1195.646, 2085.456
1196.128, 2088.520
1196.610, 2088.100
1197.092, 2079.366
1197.574, 2071.523
1198.057, 2068.721
1198.539, 2068.271
1199.021, 2063.775
1199.503, 2056.853
1199.985, 2051.326
1200.467, 2048.692
1200.949, 2045.308
1201.431, 2039.933
1201.913, 2034.533
1202.396, 2030.033
1202.878, 2026.182
1203.360, 2022.741
1203.842, 2019.233
1204.324, 2014.262
1204.806, 2005.785
1205.288, 2000.224
1205.770, 2000.490
1206.253, 2000.601
1206.735, 1997.124
1207.217, 1991.022
1207.699, 1984.182
1208.181, 1977.056
1208.663, 1970.419
1209.145, 1963.808
1209.627, 1959.615
1210.109, 1959.553
1210.592, 1959.243
1211.074, 1955.085
1211.556, 1948.662
1212.038, 1945.097
1212.520, 1943.548
1213.002, 1941.797
1213.484, 1939.643
1213.966, 1936.019
1214.448, 1930.251
1214.931, 1924.271
1215.413, 1919.629
1215.895, 1916.010
1216.377, 1912.599
1216.859, 1909.279
1217.341, 1905.652
1217.823, 1901.065
1218.305, 1896.954
1218.788, 1893.663
1219.270, 1890.460
1219.752, 1886.298
1220.234, 1881.836
1220.716, 1879.293
1221.198, 1878.071
1221.680, 1876.015
1222.162, 1871.991
1222.645, 1867.403
1223.127, 1861.835
1223.609, 1856.816
1224.091, 1854.149
1224.573, 1852.941
1225.055, 1852.061
1225.537, 1851.006
1226.019, 1848.072
1226.501, 1841.094
1226.984, 1834.445
1227.466, 1828.138
1227.948, 1823.029
1228.430, 1821.229
1228.912, 1820.582
1229.394, 1816.677
1229.876, 1810.145
1230.358, 1804.422
1230.841, 1800.542
1231.323, 1797.034
1231.805, 1793.809
1232.287, 1790.766
1232.769, 1788.052
1233.251, 1785.291
1233.733, 1782.129
1234.215, 1778.480
1234.698, 1773.971
1235.180, 1767.492
1235.662, 1763.092
1236.144, 1761.753
1236.626, 1760.418
1237.108, 1754.495
1237.590, 1747.680
1238.072, 1745.520
1238.554, 1747.031
1239.036, 1745.677
1239.519, 1739.659
1240.001, 1735.224
1240.483, 1733.414
1240.965, 1731.645
1241.447, 1726.334
1241.929, 1720.378
1242.411, 1717.322
1242.893, 1716.632
1243.376, 1714.922
1243.858, 1711.974
1244.340, 1708.136
1244.822, 1703.251
1245.304, 1699.033
1245.786, 1697.671
1246.268, 1697.184
1246.750, 1696.231
1247.233, 1694.519
1247.715, 1691.122
1248.197, 1685.593
1248.679, 1682.679
1249.161, 1683.197
1249.643, 1684.614
1250.125, 1685.886
1250.607, 1686.167
1251.089, 1684.018
1251.572, 1680.453
1252.054, 1678.340
1252.536, 1677.660
1253.018, 1677.040
1253.500, 1676.294
1253.982, 1675.106
1254.464, 1673.410
1254.946, 1670.948
1255.428, 1666.692
1255.911, 1662.044
1256.393, 1660.290
1256.875, 1661.104
1257.357, 1661.277
1257.839, 1660.375
1258.321, 1659.222
1258.803, 1658.505
1259.285, 1657.500
1259.768, 1656.076
1260.250, 1654.142
1260.732, 1650.902
1261.214, 1646.951
1261.696, 1644.829
1262.178, 1644.846
1262.660, 1645.332
1263.142, 1646.789
1263.625, 1646.699
1264.107, 1643.684
1264.589, 1639.786
1265.071, 1638.772
1265.553, 1639.338
1266.035, 1637.731
1266.517, 1633.706
1266.999, 1631.454
1267.481, 1633.611
1267.964, 1635.352
1268.446, 1635.554
1268.928, 1635.347
1269.410, 1636.806
1269.892, 1638.713
1270.374, 1639.041
1270.856, 1637.703
1271.338, 1636.131
1271.820, 1634.535
1272.303, 1632.670
1272.785, 1630.309
1273.267, 1628.386
1273.749, 1628.615
1274.231, 1629.497
1274.713, 1628.938
1275.195, 1629.553
1275.677, 1630.248
1276.160, 1629.847
1276.642, 1631.311
1277.124, 1631.048
1277.606, 1630.307
1278.088, 1630.565
1278.570, 1630.575
1279.052, 1628.868
1279.534, 1626.104
1280.016, 1624.280
1280.499, 1623.419
1280.981, 1623.677
1281.463, 1625.173
1281.945, 1625.351
1282.427, 1619.600
1282.909, 1615.007
1283.391, 1616.656
1283.873, 1621.369
1284.356, 1623.596
1284.838, 1623.694
1285.320, 1624.029
1285.802, 1624.815
1286.284, 1624.847
1286.766, 1621.894
1287.248, 1620.269
1287.730, 1621.805
1288.213, 1624.388
1288.695, 1624.910
1289.177, 1624.070
1289.659, 1623.542
1290.141, 1623.497
1290.623, 1624.015
1291.105, 1626.457
1291.587, 1627.110
1292.069, 1624.976
1292.552, 1622.276
1293.034, 1622.055
1293.516, 1622.618
1293.998, 1621.188
1294.480, 1618.071
1294.962, 1615.694
1295.444, 1614.200
1295.926, 1613.653
1296.408, 1614.139
1296.891, 1615.115
1297.373, 1616.001
1297.855, 1617.130
1298.337, 1620.019
1298.819, 1623.292
1299.301, 1622.863
1299.783, 1618.295
1300.265, 1614.656
1300.748, 1612.337
1301.230, 1611.161
1301.712, 1611.583
1302.194, 1612.602
1302.676, 1614.199
##END=



