##NAMES=Danburite
##RRUFFID=R040013
##IDEAL CHEMISTRY=CaB_2_Si_2_O_8_
##LOCALITY=Charcas, San Luis Potosi, Mexico
##OWNER=RRUFF
##SOURCE=Marcus Origlieri
##DESCRIPTION=Colorless prismatic single crystal
##STATUS=The identification of this mineral has been confirmed by X-ray diffraction and chemical analysis
##URL=rruff.info/R040013
##MEASURED CHEMISTRY=Ca_1.00_B_2.00_Si_2.00_O_8_
113.1730, 278.4106
113.6551, 294.4266
114.1373, 312.6145
114.6194, 331.6687
115.1015, 350.7573
115.5836, 366.0069
116.0657, 384.4755
116.5478, 407.9849
117.0300, 436.9637
117.5121, 470.4342
117.9942, 508.4144
118.4763, 550.6281
118.9584, 596.5158
119.4405, 639.4094
119.9227, 691.0754
120.4048, 756.1577
120.8869, 833.8949
121.3690, 931.7928
121.8511, 1067.560
122.3332, 1227.563
122.8154, 1383.107
123.2975, 1572.064
123.7796, 1726.173
124.2617, 1767.303
124.7438, 1656.464
125.2259, 1484.414
125.7081, 1302.696
126.1902, 1120.553
126.6723, 974.9122
127.1544, 910.5526
127.6365, 905.2313
128.1186, 915.1183
128.6008, 946.8341
129.0829, 970.0697
129.5650, 931.5269
130.0471, 834.4899
130.5292, 723.2772
131.0113, 622.8187
131.4935, 535.1086
131.9756, 470.2008
132.4577, 433.6332
132.9398, 420.2580
133.4219, 418.6554
133.9040, 428.7302
134.3862, 448.9743
134.8683, 475.3311
135.3504, 507.8219
135.8325, 556.0519
136.3146, 626.6240
136.7967, 717.2538
137.2789, 817.6543
137.7610, 940.9269
138.2431, 1046.498
138.7252, 1080.763
139.2073, 1038.823
139.6894, 952.3044
140.1716, 817.0027
140.6537, 619.9811
141.1358, 464.8509
141.6179, 354.0436
142.1000, 277.9247
142.5821, 221.8142
143.0643, 188.1525
143.5464, 167.5033
144.0285, 156.9315
144.5106, 159.6302
144.9927, 164.5323
145.4748, 173.5535
145.9570, 184.4069
146.4391, 189.7944
146.9212, 186.4403
147.4033, 181.7092
147.8854, 178.8988
148.3675, 178.6361
148.8497, 179.3134
149.3318, 180.7547
149.8139, 183.0260
150.2960, 186.6284
150.7781, 193.3576
151.2602, 200.0814
151.7424, 205.0479
152.2245, 205.8309
152.7066, 207.6482
153.1887, 211.2975
153.6708, 216.5831
154.1529, 221.4391
154.6351, 224.1790
155.1172, 227.3809
155.5993, 232.7489
156.0814, 241.0157
156.5635, 250.9461
157.0456, 262.2345
157.5278, 274.7758
158.0099, 289.1864
158.4920, 304.3069
158.9741, 321.9996
159.4562, 343.9530
159.9383, 368.6200
160.4205, 399.3017
160.9026, 434.0998
161.3847, 472.3093
161.8668, 526.2135
162.3489, 587.4044
162.8310, 670.0524
163.3132, 790.6984
163.7953, 995.7494
164.2774, 1208.477
164.7595, 1425.747
165.2416, 1665.665
165.7237, 1775.411
166.2059, 1604.085
166.6880, 1268.090
167.1701, 944.3688
167.6522, 678.4994
168.1343, 470.7175
168.6164, 328.7909
169.0985, 260.0334
169.5807, 224.0906
170.0628, 205.9670
170.5449, 200.8581
171.0270, 199.6505
171.5091, 199.8198
171.9912, 200.7499
172.4734, 201.6555
172.9555, 202.1632
173.4376, 203.5748
173.9197, 207.5551
174.4018, 213.4299
174.8839, 219.3488
175.3661, 223.4593
175.8482, 227.1988
176.3303, 232.1185
176.8124, 238.1111
177.2945, 246.2660
177.7766, 257.6604
178.2588, 272.2669
178.7409, 289.4799
179.2230, 309.6052
179.7051, 332.1971
180.1872, 357.2759
180.6693, 387.3981
181.1515, 415.7652
181.6336, 433.0568
182.1157, 439.8085
182.5978, 439.7118
183.0799, 430.2732
183.5620, 415.5583
184.0442, 406.2510
184.5263, 403.4257
185.0084, 408.0528
185.4905, 421.6005
185.9726, 444.0368
186.4547, 475.3210
186.9369, 513.4758
187.4190, 560.0223
187.9011, 620.3061
188.3832, 698.1999
188.8653, 788.7129
189.3474, 894.4139
189.8296, 1017.776
190.3117, 1115.872
190.7938, 1154.740
191.2759, 1136.839
191.7580, 1076.682
192.2401, 962.8722
192.7223, 816.2570
193.2044, 693.4144
193.6865, 593.5521
194.1686, 514.1998
194.6507, 456.6977
195.1328, 420.3438
195.6150, 394.3626
196.0971, 377.9207
196.5792, 369.8827
197.0613, 366.2590
197.5434, 367.1546
198.0255, 371.8715
198.5077, 380.3896
198.9898, 392.8377
199.4719, 406.2353
199.9540, 419.5596
200.4361, 433.1603
200.9182, 449.2952
201.4004, 467.7924
201.8825, 489.1028
202.3646, 514.0121
202.8467, 542.4537
203.3288, 573.0308
203.8109, 605.1163
204.2931, 638.9196
204.7752, 675.0170
205.2573, 711.5923
205.7394, 754.7469
206.2215, 808.8455
206.7036, 871.7908
207.1858, 953.5533
207.6679, 1056.428
208.1500, 1180.227
208.6321, 1330.539
209.1142, 1523.175
209.5963, 1712.778
210.0785, 1866.543
210.5606, 2000.599
211.0427, 2031.150
211.5248, 1918.374
212.0069, 1665.683
212.4890, 1413.439
212.9712, 1149.664
213.4533, 903.7443
213.9354, 712.6082
214.4175, 582.9117
214.8996, 483.2232
215.3817, 409.0879
215.8639, 361.1096
216.3460, 322.2246
216.8281, 293.2974
217.3102, 272.2060
217.7923, 257.5671
218.2744, 250.8119
218.7565, 246.4507
219.2387, 243.0482
219.7208, 240.4837
220.2029, 241.6925
220.6850, 246.7661
221.1671, 255.4998
221.6492, 267.0334
222.1314, 279.7470
222.6135, 299.2574
223.0956, 326.5188
223.5777, 361.9417
224.0598, 403.5695
224.5419, 453.7769
225.0241, 507.9312
225.5062, 563.4645
225.9883, 624.4991
226.4704, 677.2399
226.9525, 716.4261
227.4346, 742.0950
227.9168, 765.9811
228.3989, 786.3551
228.8810, 806.7777
229.3631, 830.4551
229.8452, 857.9464
230.3273, 888.0865
230.8095, 920.4808
231.2916, 955.0804
231.7737, 993.1744
232.2558, 1034.243
232.7379, 1079.312
233.2200, 1128.704
233.7022, 1181.548
234.1843, 1240.125
234.6664, 1304.687
235.1485, 1374.654
235.6306, 1450.011
236.1127, 1528.426
236.5949, 1615.629
237.0770, 1716.529
237.5591, 1828.287
238.0412, 1958.248
238.5233, 2104.656
239.0054, 2268.310
239.4876, 2458.921
239.9697, 2670.451
240.4518, 2916.741
240.9339, 3209.405
241.4160, 3547.228
241.8981, 3933.906
242.3803, 4382.697
242.8624, 4893.372
243.3445, 5398.401
243.8266, 5984.237
244.3087, 6472.649
244.7908, 6725.075
245.2730, 6743.481
245.7551, 6512.297
246.2372, 5958.503
246.7193, 5108.589
247.2014, 4313.355
247.6835, 3557.483
248.1657, 2883.292
248.6478, 2335.847
249.1299, 1935.461
249.6120, 1610.889
250.0941, 1365.931
250.5762, 1194.405
251.0584, 1047.821
251.5405, 930.9575
252.0226, 834.3472
252.5047, 754.2094
252.9868, 693.7659
253.4689, 641.0474
253.9511, 595.6247
254.4332, 556.9587
254.9153, 523.2451
255.3974, 495.1380
255.8795, 470.9933
256.3616, 450.7307
256.8438, 435.9960
257.3259, 420.4614
257.8080, 403.2567
258.2901, 384.9889
258.7722, 367.2104
259.2543, 349.2873
259.7365, 332.8154
260.2186, 318.4887
260.7007, 307.0439
261.1828, 295.8384
261.6649, 284.2762
262.1470, 273.0368
262.6292, 263.8647
263.1113, 257.1672
263.5934, 251.8420
264.0755, 247.2244
264.5576, 242.9157
265.0397, 240.7254
265.5219, 241.1695
266.0040, 243.4268
266.4861, 245.5795
266.9682, 247.3109
267.4503, 249.7049
267.9324, 253.2456
268.4146, 258.1372
268.8967, 263.3326
269.3788, 268.3983
269.8609, 274.2061
270.3430, 282.0328
270.8251, 291.6009
271.3073, 304.0224
271.7894, 319.1023
272.2715, 336.5727
272.7536, 359.4279
273.2357, 388.2643
273.7178, 421.2771
274.2000, 455.9190
274.6821, 491.4870
275.1642, 531.3643
275.6463, 580.0209
276.1284, 637.4928
276.6105, 686.0391
277.0927, 729.5241
277.5748, 755.7064
278.0569, 746.6918
278.5390, 700.4126
279.0211, 636.6816
279.5032, 554.3502
279.9854, 457.5747
280.4675, 376.9807
280.9496, 313.4315
281.4317, 263.1070
281.9138, 223.4132
282.3959, 194.4954
282.8781, 172.3060
283.3602, 157.0600
283.8423, 147.5184
284.3244, 138.9711
284.8065, 131.3764
285.2886, 124.7213
285.7708, 118.7357
286.2529, 113.4718
286.7350, 110.1139
287.2171, 109.4095
287.6992, 110.4186
288.1813, 110.3087
288.6635, 108.9881
289.1456, 108.2004
289.6277, 109.7785
290.1098, 113.3521
290.5919, 116.2762
291.0740, 117.9209
291.5562, 119.0800
292.0383, 121.3297
292.5204, 124.6462
293.0025, 128.1137
293.4846, 131.5278
293.9667, 134.6958
294.4489, 137.0100
294.9310, 138.4446
295.4131, 138.8405
295.8952, 137.5661
296.3773, 134.8154
296.8594, 131.8182
297.3416, 128.9857
297.8237, 126.4030
298.3058, 124.1510
298.7879, 122.1205
299.2700, 120.9082
299.7521, 121.4407
300.2343, 123.4390
300.7164, 125.9970
301.1985, 128.7542
301.6806, 131.8060
302.1627, 135.1704
302.6448, 138.8585
303.1270, 143.1154
303.6091, 148.2446
304.0912, 154.1040
304.5733, 160.6456
305.0554, 168.4765
305.5375, 176.5819
306.0197, 182.8619
306.5018, 187.4711
306.9839, 193.7794
307.4660, 205.0044
307.9481, 219.2658
308.4302, 233.9349
308.9124, 249.1696
309.3945, 263.7303
309.8766, 277.6285
310.3587, 290.5419
310.8408, 300.0505
311.3229, 305.6421
311.8051, 306.7676
312.2872, 302.6324
312.7693, 292.3925
313.2514, 278.1114
313.7335, 258.8254
314.2156, 236.0186
314.6978, 213.8135
315.1799, 193.2141
315.6620, 174.3780
316.1441, 157.7542
316.6262, 143.0984
317.1083, 131.0806
317.5905, 123.0577
318.0726, 117.7780
318.5547, 112.9529
319.0368, 107.8542
319.5189, 103.0146
320.0010, 98.43388
320.4832, 93.81062
320.9653, 90.88957
321.4474, 91.45793
321.9295, 93.55800
322.4116, 94.89934
322.8937, 93.93324
323.3759, 93.15707
323.8580, 93.18700
324.3401, 94.05998
324.8222, 95.64851
325.3043, 98.11446
325.7864, 101.1915
326.2686, 104.6744
326.7507, 107.8271
327.2328, 112.1756
327.7149, 118.2922
328.1970, 125.9919
328.6791, 133.8331
329.1613, 141.9784
329.6434, 150.0388
330.1255, 157.8131
330.6076, 165.3917
331.0897, 172.5579
331.5718, 179.4242
332.0540, 185.8689
332.5361, 191.5516
333.0182, 195.9492
333.5003, 200.3539
333.9824, 205.3207
334.4645, 211.2742
334.9467, 216.5731
335.4288, 220.9571
335.9109, 224.8403
336.3930, 228.5922
336.8751, 231.7028
337.3572, 235.9105
337.8394, 241.5119
338.3215, 248.3974
338.8036, 258.1331
339.2857, 271.2885
339.7678, 286.3492
340.2499, 301.2280
340.7320, 314.8621
341.2141, 332.9095
341.6963, 356.0131
342.1784, 384.4215
342.6605, 419.4701
343.1426, 461.1458
343.6247, 508.1240
344.1068, 560.2159
344.5890, 616.5825
345.0711, 675.2463
345.5532, 737.4973
346.0353, 798.7670
346.5174, 853.8107
346.9995, 902.8338
347.4817, 929.2427
347.9638, 921.9122
348.4459, 883.7269
348.9280, 820.1198
349.4101, 728.0809
349.8922, 626.4447
350.3744, 535.2632
350.8565, 455.0651
351.3386, 386.0380
351.8207, 330.7457
352.3028, 286.8083
352.7849, 250.2509
353.2671, 220.7161
353.7492, 196.9389
354.2313, 179.4179
354.7134, 166.6217
355.1955, 155.6968
355.6776, 146.1361
356.1598, 137.7914
356.6419, 130.3329
357.1240, 123.8171
357.6061, 118.5538
358.0882, 115.7849
358.5703, 113.8554
359.0525, 111.0293
359.5346, 106.2778
360.0167, 101.8853
360.4988, 99.32425
360.9809, 98.12372
361.4630, 97.28687
361.9452, 97.30935
362.4273, 96.89729
362.9094, 94.95976
363.3915, 90.89616
363.8736, 87.58472
364.3557, 86.48418
364.8379, 86.49181
365.3200, 86.32936
365.8021, 85.36858
366.2842, 84.53812
366.7663, 84.27679
367.2484, 84.59828
367.7306, 84.52232
368.2127, 83.40286
368.6948, 82.18427
369.1769, 81.48616
369.6590, 82.29787
370.1411, 82.42626
370.6233, 81.28661
371.1054, 79.31263
371.5875, 78.17709
372.0696, 78.46955
372.5517, 78.89606
373.0338, 78.87648
373.5160, 78.11196
373.9981, 77.78688
374.4802, 78.10919
374.9623, 78.70088
375.4444, 78.87724
375.9265, 78.38253
376.4087, 78.20420
376.8908, 78.75954
377.3729, 80.01545
377.8550, 80.90787
378.3371, 81.41367
378.8192, 81.59732
379.3014, 81.32198
379.7835, 80.54527
380.2656, 80.27408
380.7477, 80.88728
381.2298, 81.94762
381.7119, 82.16077
382.1941, 81.50093
382.6762, 81.11561
383.1583, 81.95032
383.6404, 83.73766
384.1225, 85.44628
384.6046, 86.99269
385.0868, 88.38229
385.5689, 89.37068
386.0510, 90.14299
386.5331, 91.39723
387.0152, 93.80818
387.4973, 96.76758
387.9795, 99.54372
388.4616, 102.1235
388.9437, 104.3486
389.4258, 105.7730
389.9079, 106.8557
390.3900, 108.2279
390.8722, 110.1490
391.3543, 112.3466
391.8364, 114.6631
392.3185, 117.0792
392.8006, 119.6016
393.2827, 122.0882
393.7649, 124.7743
394.2470, 127.8700
394.7291, 131.5925
395.2112, 135.2047
395.6933, 138.4061
396.1754, 141.3415
396.6576, 144.2289
397.1397, 146.2912
397.6218, 149.0951
398.1039, 153.0569
398.5860, 158.1965
399.0681, 164.5126
399.5503, 172.4153
400.0324, 181.2917
400.5145, 190.5528
400.9966, 199.1105
401.4787, 209.6484
401.9608, 222.6685
402.4430, 237.8306
402.9251, 253.8807
403.4072, 271.0357
403.8893, 288.8445
404.3714, 307.4788
404.8535, 328.0444
405.3357, 345.7908
405.8178, 361.6595
406.2999, 373.2313
406.7820, 376.0458
407.2641, 369.0566
407.7462, 359.1037
408.2284, 346.6729
408.7105, 332.9979
409.1926, 323.0805
409.6747, 317.0035
410.1568, 314.0480
410.6389, 313.8055
411.1211, 316.2244
411.6032, 321.2450
412.0853, 329.3510
412.5674, 339.1349
413.0495, 348.5132
413.5316, 357.8320
414.0138, 368.5262
414.4959, 381.1628
414.9780, 395.9086
415.4601, 412.9393
415.9422, 432.4466
416.4243, 453.7224
416.9065, 475.8844
417.3886, 499.6242
417.8707, 525.4911
418.3528, 553.8966
418.8349, 584.5505
419.3170, 617.5718
419.7992, 653.2335
420.2813, 690.8414
420.7634, 733.4923
421.2455, 776.5602
421.7276, 817.6888
422.2097, 858.8817
422.6919, 893.2697
423.1740, 923.1041
423.6561, 944.4153
424.1382, 951.7684
424.6203, 942.3021
425.1024, 920.5162
425.5846, 885.3464
426.0667, 836.5409
426.5488, 782.7004
427.0309, 718.2963
427.5130, 653.1091
427.9951, 593.1081
428.4773, 536.8858
428.9594, 489.0140
429.4415, 450.4533
429.9236, 420.2271
430.4057, 395.5121
430.8878, 376.5450
431.3700, 362.8787
431.8521, 354.6255
432.3342, 351.7814
432.8163, 352.7491
433.2984, 357.5086
433.7805, 366.1356
434.2627, 378.3111
434.7448, 394.1773
435.2269, 415.2166
435.7090, 442.5007
436.1911, 474.9168
436.6732, 509.9391
437.1554, 547.7831
437.6375, 589.1929
438.1196, 637.7863
438.6017, 689.3696
439.0838, 738.5402
439.5659, 785.6716
440.0480, 825.5077
440.5302, 861.1221
441.0123, 885.8428
441.4944, 888.4733
441.9765, 857.4578
442.4586, 808.7840
442.9407, 745.7121
443.4229, 670.7713
443.9050, 597.9369
444.3871, 530.4255
444.8692, 469.4877
445.3513, 416.1932
445.8334, 371.2024
446.3156, 332.7957
446.7977, 302.4515
447.2798, 278.4462
447.7619, 258.0230
448.2440, 242.2377
448.7261, 228.8698
449.2083, 217.7076
449.6904, 208.7094
450.1725, 201.6054
450.6546, 196.9027
451.1367, 193.5516
451.6188, 190.7139
452.1010, 188.1019
452.5831, 186.9792
453.0652, 187.4877
453.5473, 189.4730
454.0294, 192.6369
454.5115, 197.0045
454.9937, 202.5091
455.4758, 209.4585
455.9579, 217.6324
456.4400, 226.0502
456.9221, 234.8211
457.4042, 243.4572
457.8864, 251.3195
458.3685, 258.6896
458.8506, 266.9912
459.3327, 277.5771
459.8148, 287.4055
460.2969, 293.3807
460.7791, 295.7103
461.2612, 294.8718
461.7433, 291.0318
462.2254, 284.2355
462.7075, 273.9346
463.1896, 259.7747
463.6718, 244.9017
464.1539, 230.3500
464.6360, 216.2448
465.1181, 202.9602
465.6002, 189.8879
466.0823, 178.3924
466.5645, 168.9759
467.0466, 161.5042
467.5287, 155.4609
468.0108, 151.1926
468.4929, 147.9982
468.9750, 145.6650
469.4572, 144.2422
469.9393, 143.4756
470.4214, 143.2099
470.9035, 143.7517
471.3856, 145.3576
471.8677, 147.9142
472.3499, 151.8990
472.8320, 157.4356
473.3141, 164.4980
473.7962, 173.0507
474.2783, 183.0912
474.7604, 194.6335
475.2426, 208.0034
475.7247, 223.0636
476.2068, 238.4911
476.6889, 254.2841
477.1710, 270.6439
477.6531, 289.3376
478.1353, 308.9139
478.6174, 325.7100
479.0995, 340.6740
479.5816, 349.9316
480.0637, 349.3848
480.5458, 339.4438
481.0280, 321.4445
481.5101, 290.3106
481.9922, 255.0160
482.4743, 222.1364
482.9564, 191.9765
483.4385, 165.8944
483.9207, 145.4620
484.4028, 129.2002
484.8849, 115.6199
485.3670, 105.4487
485.8491, 96.98586
486.3312, 90.27262
486.8134, 85.16883
487.2955, 80.79723
487.7776, 77.44640
488.2597, 74.60413
488.7418, 72.12745
489.2239, 70.09306
489.7061, 68.12145
490.1882, 66.07377
490.6703, 64.29091
491.1524, 63.29912
491.6345, 63.23555
492.1166, 62.82096
492.5988, 61.71576
493.0809, 60.18173
493.5630, 58.73106
494.0451, 57.36364
494.5272, 56.47513
495.0093, 56.64933
495.4915, 57.40876
495.9736, 57.56048
496.4557, 57.01596
496.9378, 56.49473
497.4199, 56.81861
497.9020, 57.53768
498.3842, 57.96507
498.8663, 57.88637
499.3484, 57.48375
499.8305, 56.62019
500.3126, 55.50701
500.7947, 54.68346
501.2769, 54.71154
501.7590, 54.75174
502.2411, 54.28301
502.7232, 53.13401
503.2053, 52.44484
503.6874, 52.58788
504.1696, 53.11434
504.6517, 53.74253
505.1338, 54.84290
505.6159, 55.36047
506.0980, 54.97147
506.5801, 54.07859
507.0623, 53.62026
507.5444, 53.69106
508.0265, 53.89016
508.5086, 54.15033
508.9907, 54.43634
509.4728, 54.43078
509.9550, 54.11565
510.4371, 53.66069
510.9192, 52.95625
511.4013, 52.18995
511.8834, 52.21844
512.3655, 53.35820
512.8477, 54.70085
513.3298, 55.16968
513.8119, 55.01619
514.2940, 54.83728
514.7761, 54.76637
515.2582, 54.88142
515.7404, 55.49512
516.2225, 56.48827
516.7046, 57.00513
517.1867, 56.09857
517.6688, 54.98124
518.1509, 54.43500
518.6331, 54.70920
519.1152, 55.21271
519.5973, 56.26698
520.0794, 57.34020
520.5615, 57.74819
521.0436, 57.06684
521.5258, 56.36746
522.0079, 55.72956
522.4900, 55.19341
522.9721, 54.95364
523.4542, 55.01659
523.9363, 55.36396
524.4185, 56.23147
524.9006, 57.61341
525.3827, 58.08862
525.8648, 57.54804
526.3469, 56.68064
526.8290, 56.12255
527.3112, 55.85398
527.7933, 55.80056
528.2754, 55.98793
528.7575, 56.30185
529.2396, 56.51897
529.7217, 56.73922
530.2039, 57.24631
530.6860, 58.76446
531.1681, 60.19094
531.6502, 60.54594
532.1323, 59.81299
532.6144, 59.29760
533.0966, 59.45094
533.5787, 60.04122
534.0608, 60.97039
534.5429, 62.91865
535.0250, 64.05376
535.5071, 63.56091
535.9893, 62.41768
536.4714, 62.04919
536.9535, 62.82432
537.4356, 63.66581
537.9177, 64.35284
538.3998, 64.91531
538.8820, 65.47182
539.3641, 65.99200
539.8462, 66.61301
540.3283, 67.62231
540.8104, 68.89191
541.2925, 69.28387
541.7747, 68.59619
542.2568, 68.04932
542.7389, 69.22184
543.2210, 71.53539
543.7031, 73.63163
544.1852, 75.06898
544.6674, 76.25310
545.1495, 77.56135
545.6316, 78.89333
546.1137, 79.99747
546.5958, 80.43334
547.0779, 80.89021
547.5601, 82.01050
548.0422, 83.85277
548.5243, 84.85420
549.0064, 83.94468
549.4885, 82.61395
549.9706, 81.77619
550.4528, 81.63475
550.9349, 81.59771
551.4170, 81.48161
551.8991, 81.61082
552.3812, 82.60820
552.8633, 84.75217
553.3455, 86.60503
553.8276, 87.72717
554.3097, 88.37316
554.7918, 89.26270
555.2739, 90.38082
555.7560, 91.89744
556.2382, 94.09491
556.7203, 96.72902
557.2024, 99.21371
557.6845, 101.5150
558.1666, 103.9905
558.6487, 106.9490
559.1309, 110.2394
559.6130, 113.6303
560.0951, 117.1398
560.5772, 120.6453
561.0593, 124.3918
561.5414, 128.0623
562.0236, 131.0443
562.5057, 133.9780
562.9878, 135.4294
563.4699, 134.5859
563.9520, 131.6613
564.4341, 128.5184
564.9163, 124.6197
565.3984, 121.2529
565.8805, 119.0240
566.3626, 118.0129
566.8447, 117.7424
567.3268, 118.3683
567.8090, 119.2822
568.2911, 119.6214
568.7732, 119.5066
569.2553, 120.0269
569.7374, 121.5232
570.2195, 123.5205
570.7017, 125.3594
571.1838, 127.1763
571.6659, 129.3577
572.1480, 132.6676
572.6301, 136.0332
573.1122, 138.1121
573.5944, 139.1437
574.0765, 141.1114
574.5586, 145.9176
575.0407, 151.1598
575.5228, 155.2222
576.0049, 157.0161
576.4871, 160.0924
576.9692, 165.3331
577.4513, 171.6035
577.9334, 178.0580
578.4155, 184.7644
578.8976, 191.2109
579.3798, 197.1329
579.8619, 202.9256
580.3440, 209.6863
580.8261, 217.5209
581.3082, 224.6565
581.7903, 229.8062
582.2725, 233.8293
582.7546, 239.3185
583.2367, 246.1632
583.7188, 252.9903
584.2009, 258.0693
584.6830, 262.7580
585.1652, 268.7432
585.6473, 276.2773
586.1294, 285.0462
586.6115, 293.9533
587.0936, 304.4804
587.5757, 318.0840
588.0578, 335.6236
588.5399, 355.6921
589.0220, 377.9240
589.5042, 402.6063
589.9863, 430.0606
590.4684, 458.7131
590.9505, 492.1825
591.4326, 531.6561
591.9147, 576.8344
592.3969, 625.5258
592.8790, 678.0634
593.3611, 732.6486
593.8432, 789.0941
594.3253, 846.2788
594.8074, 903.2396
595.2896, 959.7946
595.7717, 1017.460
596.2538, 1077.587
596.7359, 1139.915
597.2180, 1204.121
597.7001, 1267.744
598.1823, 1335.339
598.6644, 1408.181
599.1465, 1487.098
599.6286, 1573.865
600.1107, 1663.560
600.5928, 1765.676
601.0750, 1884.356
601.5571, 2018.924
602.0392, 2162.396
602.5213, 2308.610
603.0034, 2473.537
603.4855, 2662.357
603.9677, 2877.303
604.4498, 3108.050
604.9319, 3357.087
605.4140, 3619.820
605.8961, 3889.116
606.3782, 4166.902
606.8604, 4447.686
607.3425, 4737.541
607.8246, 5010.286
608.3067, 5253.382
608.7888, 5453.375
609.2709, 5576.547
609.7531, 5617.383
610.2352, 5570.711
610.7173, 5421.886
611.1994, 5181.829
611.6815, 4881.057
612.1636, 4479.253
612.6458, 4064.505
613.1279, 3651.304
613.6100, 3245.127
614.0921, 2884.794
614.5742, 2571.503
615.0563, 2297.223
615.5385, 2058.933
616.0206, 1855.712
616.5027, 1683.395
616.9848, 1544.782
617.4669, 1428.990
617.9490, 1329.341
618.4312, 1244.902
618.9133, 1173.887
619.3954, 1115.517
619.8775, 1069.528
620.3596, 1036.748
620.8417, 1015.702
621.3239, 1003.532
621.8060, 998.5939
622.2881, 1002.089
622.7702, 1016.525
623.2523, 1040.454
623.7344, 1067.991
624.2166, 1098.076
624.6987, 1131.301
625.1808, 1169.841
625.6629, 1214.740
626.1450, 1252.024
626.6271, 1284.893
627.1093, 1305.464
627.5914, 1309.610
628.0735, 1297.574
628.5556, 1263.821
629.0377, 1206.447
629.5198, 1134.322
630.0020, 1050.662
630.4841, 959.7410
630.9662, 874.6171
631.4483, 798.2172
631.9304, 729.5414
632.4125, 667.8448
632.8947, 613.3849
633.3768, 565.1880
633.8589, 524.4273
634.3410, 489.0928
634.8231, 459.6554
635.3052, 435.4745
635.7874, 412.9926
636.2695, 392.6626
636.7516, 373.1637
637.2337, 354.0637
637.7158, 335.1264
638.1979, 318.4275
638.6801, 304.2087
639.1622, 291.2186
639.6443, 278.5977
640.1264, 266.4389
640.6085, 254.4286
641.0906, 242.4953
641.5728, 231.4680
642.0549, 222.4031
642.5370, 214.7751
643.0191, 207.4433
643.5012, 200.0401
643.9833, 192.9941
644.4655, 186.3417
644.9476, 180.2580
645.4297, 174.7710
645.9118, 170.3087
646.3939, 166.0736
646.8760, 161.9589
647.3582, 157.9313
647.8403, 154.0504
648.3224, 150.3234
648.8045, 146.6148
649.2866, 142.6853
649.7687, 138.6134
650.2509, 135.6658
650.7330, 133.9119
651.2151, 132.2714
651.6972, 130.0532
652.1793, 127.3063
652.6614, 124.0549
653.1436, 120.2663
653.6257, 116.6863
654.1078, 113.9401
654.5899, 111.7506
655.0720, 109.8017
655.5541, 108.0684
656.0363, 106.5043
656.5184, 105.3044
657.0005, 104.2078
657.4826, 102.8459
657.9647, 100.9618
658.4468, 99.23153
658.9290, 97.69206
659.4111, 96.37517
659.8932, 95.54124
660.3753, 95.30318
660.8574, 94.53292
661.3395, 92.45988
661.8217, 89.79920
662.3038, 88.44973
662.7859, 88.25168
663.2680, 88.10824
663.7501, 87.41612
664.2322, 86.39460
664.7144, 85.09544
665.1965, 83.54782
665.6786, 82.27195
666.1607, 81.62871
666.6428, 81.22637
667.1249, 80.87422
667.6071, 80.68662
668.0892, 80.13306
668.5713, 78.90912
669.0534, 77.64702
669.5355, 76.99585
670.0176, 77.07390
670.4998, 76.90721
670.9819, 76.36952
671.4640, 75.66161
671.9461, 74.91580
672.4282, 74.22231
672.9103, 73.93306
673.3925, 74.37569
673.8746, 74.89037
674.3567, 74.66667
674.8388, 74.01269
675.3209, 73.59078
675.8030, 74.28722
676.2852, 74.64734
676.7673, 73.81524
677.2494, 72.01446
677.7315, 70.73700
678.2136, 70.32242
678.6957, 70.01045
679.1779, 69.49657
679.6600, 68.79926
680.1421, 68.55806
680.6242, 68.84106
681.1063, 69.16022
681.5884, 69.12696
682.0706, 68.86116
682.5527, 68.83862
683.0348, 69.09476
683.5169, 69.16497
683.9990, 68.23666
684.4811, 67.14154
684.9633, 66.92521
685.4454, 68.14187
685.9275, 69.10274
686.4096, 69.11473
686.8917, 68.63992
687.3738, 68.16335
687.8560, 67.63703
688.3381, 67.21983
688.8202, 66.80501
689.3023, 66.60346
689.7844, 67.27554
690.2665, 68.95616
690.7487, 69.54959
691.2308, 68.04351
691.7129, 65.87165
692.1950, 65.85278
692.6771, 67.40921
693.1592, 68.43787
693.6414, 67.26735
694.1235, 65.70203
694.6056, 65.16640
695.0877, 65.46254
695.5698, 65.67377
696.0519, 65.60197
696.5341, 65.30574
697.0162, 64.63412
697.4983, 63.60412
697.9804, 63.15352
698.4625, 63.57137
698.9446, 63.97948
699.4268, 63.72856
699.9089, 62.87622
700.3910, 62.76055
700.8731, 63.44051
701.3552, 64.11032
701.8373, 63.77142
702.3195, 63.02814
702.8016, 63.07156
703.2837, 64.18706
703.7658, 65.14247
704.2479, 65.31133
704.7300, 64.88496
705.2122, 63.96864
705.6943, 61.57579
706.1764, 60.41701
706.6585, 61.50610
707.1406, 63.29921
707.6227, 63.92579
708.1049, 63.07311
708.5870, 62.30169
709.0691, 61.79291
709.5512, 61.55195
710.0333, 61.69053
710.5154, 62.14843
710.9976, 62.59777
711.4797, 62.89034
711.9618, 63.16752
712.4439, 63.80437
712.9260, 64.53961
713.4081, 64.75851
713.8903, 63.51572
714.3724, 62.42010
714.8545, 62.17629
715.3366, 62.67277
715.8187, 63.03362
716.3008, 63.22986
716.7830, 63.34356
717.2651, 63.43968
717.7472, 63.48953
718.2293, 63.19220
718.7114, 62.52692
719.1935, 61.86679
719.6757, 61.41409
720.1578, 61.13957
720.6399, 61.02965
721.1220, 61.07308
721.6041, 61.10299
722.0862, 60.71197
722.5684, 60.47564
723.0505, 61.06285
723.5326, 62.88718
724.0147, 63.78098
724.4968, 62.69569
724.9789, 61.21399
725.4611, 60.30900
725.9432, 60.17928
726.4253, 59.78060
726.9074, 58.94155
727.3895, 58.30161
727.8716, 58.74476
728.3538, 60.01385
728.8359, 61.07015
729.3180, 61.74122
729.8001, 62.21688
730.2822, 62.75616
730.7643, 63.18911
731.2465, 63.24086
731.7286, 62.35528
732.2107, 61.83187
732.6928, 62.37966
733.1749, 63.37970
733.6570, 63.86425
734.1392, 63.54798
734.6213, 63.28151
735.1034, 63.01199
735.5855, 63.03223
736.0676, 64.36704
736.5497, 66.88258
737.0319, 68.42728
737.5140, 67.69984
737.9961, 66.45064
738.4782, 67.34118
738.9603, 69.58663
739.4424, 71.16507
739.9246, 70.31538
740.4067, 69.44891
740.8888, 69.67142
741.3709, 70.82613
741.8530, 72.08844
742.3351, 73.64626
742.8173, 74.92455
743.2994, 75.69537
743.7815, 76.06100
744.2636, 76.41959
744.7457, 76.72984
745.2278, 77.61100
745.7100, 79.86362
746.1921, 82.73679
746.6742, 84.85275
747.1563, 86.24972
747.6384, 87.16262
748.1205, 87.13240
748.6027, 87.16402
749.0848, 88.32088
749.5669, 90.72331
750.0490, 91.85825
750.5311, 90.37857
751.0132, 88.75182
751.4954, 88.26933
751.9775, 89.08588
752.4596, 88.50182
752.9417, 86.20592
753.4238, 84.01198
753.9059, 83.60768
754.3881, 84.33801
754.8702, 84.43220
755.3523, 83.74967
755.8344, 83.12851
756.3165, 83.13223
756.7986, 83.51534
757.2808, 84.10712
757.7629, 84.95628
758.2450, 85.75190
758.7271, 86.44237
759.2092, 87.07130
759.6913, 87.63362
760.1735, 88.04500
760.6556, 88.71669
761.1377, 89.64797
761.6198, 90.87114
762.1019, 92.53265
762.5840, 94.52713
763.0662, 96.46574
763.5483, 98.26735
764.0304, 100.0780
764.5125, 101.7018
764.9946, 103.5011
765.4767, 105.9213
765.9589, 109.5494
766.4410, 112.9851
766.9231, 115.9168
767.4052, 118.5892
767.8873, 121.1814
768.3694, 123.4629
768.8516, 126.5130
769.3337, 130.6128
769.8158, 135.1287
770.2979, 139.3327
770.7800, 143.1870
771.2621, 146.5875
771.7443, 149.5849
772.2264, 151.9276
772.7085, 153.3344
773.1906, 153.9682
773.6727, 154.0722
774.1548, 155.2184
774.6370, 153.9200
775.1191, 148.3567
775.6012, 140.5989
776.0833, 133.9907
776.5654, 128.9206
777.0475, 123.0270
777.5297, 115.5299
778.0118, 107.5242
778.4939, 100.7793
778.9760, 95.19405
779.4581, 90.37527
779.9402, 86.21281
780.4224, 82.79285
780.9045, 80.64676
781.3866, 79.26328
781.8687, 77.70216
782.3508, 75.41266
782.8329, 73.27016
783.3151, 71.44046
783.7972, 69.87109
784.2793, 68.43310
784.7614, 67.14690
785.2435, 65.92870
785.7256, 64.68897
786.2077, 63.59561
786.6898, 63.20677
787.1719, 63.31164
787.6541, 63.16160
788.1362, 62.20706
788.6183, 61.08933
789.1004, 60.16171
789.5825, 59.40459
790.0646, 58.79401
790.5468, 58.27295
791.0289, 57.97529
791.5110, 58.05301
791.9931, 58.33694
792.4752, 58.20124
792.9573, 57.56409
793.4395, 57.26560
793.9216, 57.78306
794.4037, 58.61662
794.8858, 58.84492
795.3679, 58.57855
795.8500, 58.15665
796.3322, 57.56851
796.8143, 57.03549
797.2964, 56.63551
797.7785, 56.38169
798.2606, 56.33842
798.7427, 56.57774
799.2249, 56.93841
799.7070, 57.51680
800.1891, 58.13940
800.6712, 58.03584
801.1533, 57.19318
801.6354, 56.73129
802.1176, 57.45567
802.5997, 58.50164
803.0818, 58.32868
803.5639, 57.36439
804.0460, 56.90988
804.5281, 58.42498
805.0103, 59.68480
805.4924, 59.43415
805.9745, 58.04321
806.4566, 57.33110
806.9387, 57.48299
807.4208, 57.98380
807.9030, 58.87629
808.3851, 59.89772
808.8672, 60.15381
809.3493, 59.71761
809.8314, 59.25219
810.3135, 58.93317
810.7957, 58.86517
811.2778, 59.50911
811.7599, 60.51903
812.2420, 60.92513
812.7241, 60.06128
813.2062, 58.89021
813.6884, 57.51390
814.1705, 56.06284
814.6526, 55.00324
815.1347, 54.42743
815.6168, 53.81727
816.0989, 52.94007
816.5811, 52.00029
817.0632, 51.41804
817.5453, 51.16861
818.0274, 51.15765
818.5095, 51.59181
818.9916, 52.00663
819.4738, 52.19136
819.9559, 52.12109
820.4380, 51.72964
820.9201, 50.19097
821.4022, 49.41737
821.8843, 50.06638
822.3665, 51.52074
822.8486, 52.08297
823.3307, 51.71751
823.8128, 51.54234
824.2949, 52.09916
824.7770, 52.78326
825.2592, 52.70777
825.7413, 52.05392
826.2234, 51.25564
826.7055, 50.01218
827.1876, 49.18626
827.6697, 49.34184
828.1519, 50.11783
828.6340, 50.66003
829.1161, 50.88952
829.5982, 51.06509
830.0803, 51.27211
830.5624, 51.39621
831.0446, 51.00427
831.5267, 50.25595
832.0088, 50.03536
832.4909, 50.94783
832.9730, 51.90004
833.4551, 51.71241
833.9373, 50.95137
834.4194, 50.53088
834.9015, 50.66209
835.3836, 51.24733
835.8657, 52.72112
836.3478, 54.30043
836.8300, 54.67530
837.3121, 53.71572
837.7942, 52.73250
838.2763, 51.85953
838.7584, 51.27102
839.2405, 51.26055
839.7227, 51.69695
840.2048, 52.31521
840.6869, 53.04586
841.1690, 53.95577
841.6511, 55.67515
842.1332, 57.31553
842.6154, 57.71314
843.0975, 55.96367
843.5796, 54.97289
844.0617, 55.03737
844.5438, 55.54293
845.0259, 55.83559
845.5081, 55.93130
845.9902, 55.86840
846.4723, 55.63224
846.9544, 55.37326
847.4365, 55.18273
847.9186, 55.06043
848.4008, 54.99871
848.8829, 54.96435
849.3650, 55.08296
849.8471, 55.38463
850.3292, 55.82204
850.8113, 56.45705
851.2935, 57.35300
851.7756, 57.73399
852.2577, 57.51804
852.7398, 57.21490
853.2219, 57.27240
853.7040, 57.55297
854.1862, 57.82298
854.6683, 58.04826
855.1504, 58.41270
855.6325, 59.20528
856.1146, 60.00098
856.5967, 60.53019
857.0789, 60.78074
857.5610, 60.92699
858.0431, 61.00064
858.5252, 60.86631
859.0073, 60.26706
859.4894, 59.38752
859.9716, 58.76827
860.4537, 58.43307
860.9358, 58.60978
861.4179, 59.77297
861.9000, 61.22360
862.3821, 62.71183
862.8643, 64.16384
863.3464, 64.83681
863.8285, 63.87780
864.3106, 63.53677
864.7927, 64.90961
865.2748, 67.47388
865.7570, 68.54290
866.2391, 68.22536
866.7212, 68.22178
867.2033, 69.84070
867.6854, 71.87932
868.1675, 72.97425
868.6497, 73.44218
869.1318, 74.15651
869.6139, 75.50449
870.0960, 77.04533
870.5781, 78.81463
871.0602, 80.63593
871.5424, 81.94411
872.0245, 82.64460
872.5066, 83.78258
872.9887, 85.77348
873.4708, 88.09003
873.9529, 90.17079
874.4351, 91.95070
874.9172, 93.24480
875.3993, 93.84862
875.8814, 94.22523
876.3635, 94.67806
876.8456, 94.93148
877.3278, 94.56944
877.8099, 93.27041
878.2920, 92.34604
878.7741, 91.93352
879.2562, 91.87200
879.7383, 92.12970
880.2205, 92.56105
880.7026, 92.65526
881.1847, 92.22308
881.6668, 92.03102
882.1489, 92.70306
882.6310, 93.77789
883.1132, 94.87006
883.5953, 95.94682
884.0774, 96.99010
884.5595, 97.93778
885.0416, 98.96950
885.5237, 100.2243
886.0059, 101.6802
886.4880, 103.1223
886.9701, 104.5400
887.4522, 106.2286
887.9343, 108.4562
888.4164, 111.0173
888.8986, 113.7938
889.3807, 116.7801
889.8628, 119.7013
890.3449, 122.3949
890.8270, 125.1634
891.3091, 128.0177
891.7913, 131.0241
892.2734, 134.6635
892.7555, 138.8714
893.2376, 142.8735
893.7197, 146.0229
894.2018, 148.9446
894.6840, 152.0898
895.1661, 155.6160
895.6482, 159.8897
896.1303, 165.7736
896.6124, 171.5471
897.0945, 176.8417
897.5767, 181.8958
898.0588, 187.1881
898.5409, 192.8162
899.0230, 197.7143
899.5051, 201.5954
899.9872, 204.8918
900.4694, 208.3209
900.9515, 211.5545
901.4336, 214.0612
901.9157, 215.5811
902.3978, 216.5855
902.8799, 217.3683
903.3621, 217.5258
903.8442, 216.7329
904.3263, 215.0164
904.8084, 211.9792
905.2905, 207.3777
905.7726, 202.4678
906.2548, 198.5771
906.7369, 195.0641
907.2190, 190.8021
907.7011, 185.6677
908.1832, 180.8065
908.6653, 177.1932
909.1475, 173.6304
909.6296, 169.2893
910.1117, 164.2087
910.5938, 159.6479
911.0759, 155.6050
911.5580, 152.2302
912.0402, 149.7080
912.5223, 147.8494
913.0044, 146.5144
913.4865, 145.5642
913.9686, 144.5553
914.4507, 143.2119
914.9329, 141.8303
915.4150, 140.6527
915.8971, 139.5092
916.3792, 137.9895
916.8613, 136.1022
917.3434, 133.7945
917.8256, 130.9182
918.3077, 127.9026
918.7898, 125.6186
919.2719, 123.7256
919.7540, 121.3919
920.2361, 118.2138
920.7183, 114.9383
921.2004, 111.8791
921.6825, 108.8926
922.1646, 105.6721
922.6467, 101.6952
923.1288, 99.27294
923.6110, 98.79312
924.0931, 98.59557
924.5752, 97.07024
925.0573, 94.67860
925.5394, 92.21769
926.0215, 89.76546
926.5037, 87.98722
926.9858, 87.88982
927.4679, 87.98965
927.9500, 87.16447
928.4321, 85.51540
928.9142, 84.80359
929.3964, 85.21220
929.8785, 85.89542
930.3606, 86.61198
930.8427, 87.26037
931.3248, 87.35069
931.8069, 87.13335
932.2891, 87.42488
932.7712, 88.58344
933.2533, 90.34685
933.7354, 93.02513
934.2175, 96.15105
934.6996, 98.76279
935.1818, 100.7386
935.6639, 102.6738
936.1460, 104.6222
936.6281, 106.7224
937.1102, 109.1425
937.5923, 111.8740
938.0745, 114.9195
938.5566, 118.3959
939.0387, 121.7342
939.5208, 123.8886
940.0029, 126.3796
940.4850, 130.4657
940.9672, 136.3928
941.4493, 141.5934
941.9314, 145.8768
942.4135, 150.1835
942.8956, 155.3239
943.3777, 160.8970
943.8599, 166.4874
944.3420, 171.9605
944.8241, 176.8570
945.3062, 180.7888
945.7883, 184.1971
946.2704, 186.9640
946.7526, 189.3941
947.2347, 192.7009
947.7168, 197.3470
948.1989, 199.7750
948.6810, 198.8324
949.1631, 195.8495
949.6453, 192.1695
950.1274, 187.9674
950.6095, 183.6072
951.0916, 179.0954
951.5737, 174.5622
952.0558, 170.0173
952.5380, 165.4816
953.0201, 160.9634
953.5022, 156.4494
953.9843, 151.8916
954.4664, 147.2673
954.9485, 143.1945
955.4307, 139.8813
955.9128, 137.6142
956.3949, 137.3665
956.8770, 138.9409
957.3591, 139.7494
957.8412, 137.4363
958.3234, 135.9675
958.8055, 136.5620
959.2876, 138.9086
959.7697, 142.1643
960.2518, 146.3204
960.7339, 150.1639
961.2161, 153.0912
961.6982, 155.9023
962.1803, 158.9457
962.6624, 162.6431
963.1445, 167.7082
963.6266, 175.0762
964.1088, 182.7856
964.5909, 190.7329
965.0730, 199.0238
965.5551, 207.4796
966.0372, 216.1698
966.5193, 226.0452
967.0015, 237.0821
967.4836, 249.6357
967.9657, 264.3647
968.4478, 280.2914
968.9299, 296.5668
969.4120, 313.1295
969.8942, 330.1322
970.3763, 348.1811
970.8584, 365.7398
971.3405, 382.8710
971.8226, 398.8384
972.3047, 413.2382
972.7869, 425.2962
973.2690, 432.1458
973.7511, 432.2451
974.2332, 427.3924
974.7153, 418.2148
975.1974, 404.7191
975.6796, 386.4513
976.1617, 361.6228
976.6438, 337.4530
977.1259, 314.2794
977.6080, 292.6686
978.0901, 273.8365
978.5723, 257.2840
979.0544, 241.5628
979.5365, 226.6409
980.0186, 213.6656
980.5007, 204.3309
980.9828, 196.2419
981.4650, 188.0932
981.9471, 180.0415
982.4291, 173.1335
982.9113, 167.4361
983.3934, 162.1284
983.8755, 156.8820
984.3576, 151.8631
984.8397, 147.0597
985.3218, 142.6036
985.8040, 138.8366
986.2861, 136.3829
986.7682, 133.8775
987.2503, 130.9669
987.7324, 128.1212
988.2145, 125.8991
988.6967, 124.2625
989.1788, 122.5632
989.6609, 120.7411
990.1430, 119.3191
990.6251, 118.6934
991.1072, 118.6426
991.5894, 119.3185
992.0715, 120.6413
992.5536, 121.0251
993.0357, 119.7556
993.5178, 118.9137
993.9999, 119.2718
994.4821, 120.3773
994.9642, 121.2633
995.4463, 121.9621
995.9284, 122.5348
996.4105, 122.5332
996.8926, 123.2953
997.3748, 126.6560
997.8569, 130.4932
998.3390, 132.1920
998.8211, 130.4100
999.3032, 131.4882
999.7853, 135.9091
1000.267, 140.8797
1000.750, 143.8762
1001.232, 145.8815
1001.714, 148.1319
1002.196, 150.7481
1002.678, 154.1845
1003.160, 158.6795
1003.642, 163.9132
1004.124, 169.5960
1004.607, 175.9497
1005.089, 183.7514
1005.571, 192.9771
1006.053, 201.8346
1006.535, 210.1115
1007.017, 217.3426
1007.499, 223.5248
1007.981, 228.3981
1008.463, 231.9343
1008.946, 234.7845
1009.428, 233.8939
1009.910, 228.6423
1010.392, 220.8534
1010.874, 210.9554
1011.356, 199.6123
1011.838, 189.4685
1012.320, 180.5382
1012.802, 172.5481
1013.285, 164.8106
1013.767, 158.6558
1014.249, 155.0935
1014.731, 153.5749
1015.213, 153.2308
1015.695, 154.1492
1016.177, 155.8113
1016.659, 158.2348
1017.142, 160.9300
1017.624, 162.9571
1018.106, 165.0034
1018.588, 167.9995
1019.070, 172.0863
1019.552, 177.2305
1020.034, 184.0240
1020.516, 191.0614
1020.998, 197.5852
1021.481, 203.8539
1021.963, 211.3436
1022.445, 219.8803
1022.927, 228.0582
1023.409, 234.7400
1023.891, 241.3452
1024.373, 249.1427
1024.855, 257.3856
1025.338, 264.9681
1025.820, 272.5170
1026.302, 277.2598
1026.784, 278.7199
1027.266, 278.4150
1027.748, 278.3473
1028.230, 277.4784
1028.712, 273.5325
1029.194, 266.4718
1029.677, 258.4730
1030.159, 250.5869
1030.641, 241.6286
1031.123, 230.9356
1031.605, 218.9505
1032.087, 206.9274
1032.569, 194.9804
1033.051, 183.3325
1033.534, 171.9297
1034.016, 161.4591
1034.498, 152.6518
1034.980, 144.9413
1035.462, 137.7179
1035.944, 130.5046
1036.426, 124.8878
1036.908, 121.3073
1037.391, 118.1320
1037.873, 114.2861
1038.355, 109.9893
1038.837, 105.6879
1039.319, 101.4578
1039.801, 97.78138
1040.283, 94.84853
1040.765, 92.57793
1041.247, 91.25229
1041.729, 90.34352
1042.212, 88.90510
1042.694, 86.92847
1043.176, 85.45772
1043.658, 84.69170
1044.140, 83.90656
1044.622, 82.05167
1045.104, 80.08477
1045.586, 79.02556
1046.069, 79.03714
1046.551, 78.89005
1047.033, 78.52026
1047.515, 77.99716
1047.997, 77.21371
1048.479, 76.44662
1048.961, 76.65794
1049.443, 77.36222
1049.926, 77.24318
1050.408, 75.04713
1050.890, 73.38692
1051.372, 73.61883
1051.854, 74.41777
1052.336, 74.65054
1052.818, 74.25023
1053.300, 74.96174
1053.782, 76.80884
1054.265, 78.24218
1054.747, 77.59279
1055.229, 76.54079
1055.711, 76.33867
1056.193, 76.93697
1056.675, 78.04140
1057.157, 79.99866
1057.639, 81.38049
1058.121, 81.81433
1058.604, 81.97951
1059.086, 82.71177
1059.568, 83.89476
1060.050, 85.43150
1060.532, 87.35471
1061.014, 89.04016
1061.496, 89.91336
1061.978, 90.83646
1062.461, 92.26336
1062.943, 94.02359
1063.425, 95.04328
1063.907, 95.48280
1064.389, 96.94371
1064.871, 100.7174
1065.353, 104.4997
1065.835, 106.1276
1066.318, 106.9305
1066.800, 108.7247
1067.282, 111.8739
1067.764, 115.0016
1068.246, 118.0183
1068.728, 121.3075
1069.210, 125.6885
1069.692, 130.2312
1070.174, 133.1004
1070.656, 134.7331
1071.139, 136.9867
1071.621, 140.6363
1072.103, 144.7311
1072.585, 148.9078
1073.067, 153.7292
1073.549, 160.9002
1074.031, 169.5887
1074.513, 176.4096
1074.996, 180.7471
1075.478, 185.1958
1075.960, 191.8067
1076.442, 198.6161
1076.924, 204.4094
1077.406, 209.3186
1077.888, 213.7505
1078.370, 217.7386
1078.853, 220.8246
1079.335, 222.8376
1079.817, 223.8425
1080.299, 223.9546
1080.781, 223.0887
1081.263, 221.0874
1081.745, 217.4880
1082.227, 213.6273
1082.709, 209.2686
1083.192, 205.2973
1083.674, 202.4616
1084.156, 200.3348
1084.638, 197.7920
1085.120, 194.9787
1085.602, 192.3264
1086.084, 188.5382
1086.566, 186.9412
1087.048, 188.9615
1087.531, 192.7074
1088.013, 196.0521
1088.495, 199.0864
1088.977, 202.5710
1089.459, 206.5789
1089.941, 211.3613
1090.423, 217.5946
1090.905, 224.2016
1091.387, 230.0738
1091.870, 235.7135
1092.352, 243.2178
1092.834, 252.8952
1093.316, 262.4485
1093.798, 271.2898
1094.280, 280.0994
1094.762, 289.2773
1095.244, 299.1131
1095.727, 310.1076
1096.209, 322.3876
1096.691, 335.0151
1097.173, 347.8212
1097.655, 360.8685
1098.137, 374.3010
1098.619, 387.8500
1099.101, 400.5703
1099.583, 412.8110
1100.066, 426.1602
1100.548, 442.2494
1101.030, 457.5459
1101.512, 470.8589
1101.994, 483.1834
1102.476, 495.1103
1102.958, 506.5661
1103.440, 518.2589
1103.922, 530.0039
1104.405, 540.2834
1104.887, 547.6678
1105.369, 554.0004
1105.851, 561.7678
1106.333, 568.6549
1106.815, 570.3572
1107.297, 566.4467
1107.779, 560.0655
1108.262, 551.2805
1108.744, 541.5890
1109.226, 533.4694
1109.708, 524.2018
1110.190, 509.9212
1110.672, 491.0344
1111.154, 473.8785
1111.636, 459.6360
1112.119, 444.9254
1112.601, 428.8192
1113.083, 411.9241
1113.565, 394.0078
1114.047, 375.9818
1114.529, 359.6891
1115.011, 345.3312
1115.493, 331.9127
1115.975, 319.2531
1116.458, 307.3789
1116.940, 296.1610
1117.422, 285.7138
1117.904, 276.7486
1118.386, 268.8680
1118.868, 260.0912
1119.350, 248.6972
1119.832, 238.4947
1120.314, 231.7410
1120.797, 226.3366
1121.279, 220.7666
1121.761, 215.0358
1122.243, 210.0502
1122.725, 205.7334
1123.207, 200.9490
1123.689, 193.8874
1124.171, 187.3050
1124.654, 183.5514
1125.136, 181.2950
1125.618, 178.0512
1126.100, 173.4855
1126.582, 169.6583
1127.064, 166.7959
1127.546, 163.7197
1128.028, 158.8592
1128.510, 153.6900
1128.993, 149.5908
1129.475, 146.6189
1129.957, 144.3441
1130.439, 143.2005
1130.921, 141.2606
1131.403, 137.9989
1131.885, 134.4749
1132.367, 132.0321
1132.849, 130.2626
1133.332, 128.6559
1133.814, 127.1589
1134.296, 124.9330
1134.778, 121.2138
1135.260, 117.8146
1135.742, 115.3327
1136.224, 113.4256
1136.706, 111.1577
1137.189, 108.8423
1137.671, 107.5017
1138.153, 107.7642
1138.635, 107.2864
1139.117, 104.0107
1139.599, 101.0222
1140.081, 99.86208
1140.563, 100.2253
1141.046, 100.9933
1141.528, 101.9628
1142.010, 102.0544
1142.492, 100.2376
1142.974, 98.51613
1143.456, 98.03679
1143.938, 98.05656
1144.420, 97.98669
1144.902, 97.83676
1145.385, 97.11340
1145.867, 95.85687
1146.349, 94.88024
1146.831, 94.65078
1147.313, 94.92369
1147.795, 95.91315
1148.277, 97.14371
1148.759, 97.78085
1149.241, 97.63326
1149.724, 97.89348
1150.206, 98.64136
1150.688, 99.47677
1151.170, 100.0946
1151.652, 100.6063
1152.134, 100.9627
1152.616, 101.2951
1153.098, 102.0327
1153.581, 103.1996
1154.063, 104.7482
1154.545, 106.7208
1155.027, 108.8420
1155.509, 110.5237
1155.991, 112.2885
1156.473, 114.9122
1156.955, 118.3936
1157.438, 121.7780
1157.920, 125.0033
1158.402, 128.0208
1158.884, 130.7146
1159.366, 133.3733
1159.848, 136.2687
1160.330, 139.4750
1160.812, 143.1140
1161.294, 147.2077
1161.776, 151.7527
1162.259, 156.9830
1162.741, 162.1736
1163.223, 166.8362
1163.705, 171.6603
1164.187, 178.6970
1164.669, 187.0187
1165.151, 194.5232
1165.633, 200.4297
1166.116, 206.4095
1166.598, 212.8551
1167.080, 219.6418
1167.562, 226.7935
1168.044, 234.2783
1168.526, 242.1547
1169.008, 250.2821
1169.490, 258.2648
1169.973, 266.1785
1170.455, 273.6372
1170.937, 279.6447
1171.419, 285.9620
1171.901, 294.3680
1172.383, 304.3011
1172.865, 312.1296
1173.347, 317.7280
1173.829, 321.1125
1174.312, 321.1889
1174.794, 320.3309
1175.276, 319.9344
1175.758, 318.6564
1176.240, 315.0128
1176.722, 309.0515
1177.204, 302.1261
1177.686, 294.3468
1178.168, 286.2036
1178.651, 278.6653
1179.133, 270.2564
1179.615, 259.0612
1180.097, 247.0622
1180.579, 236.9801
1181.061, 228.9570
1181.543, 221.0699
1182.025, 213.1202
1182.508, 205.0153
1182.990, 195.9030
1183.472, 187.3586
1183.954, 180.9698
1184.436, 175.9131
1184.918, 170.0537
1185.400, 163.3468
1185.882, 157.1481
1186.365, 151.6224
1186.847, 146.7865
1187.329, 143.1406
1187.811, 139.6792
1188.293, 135.5445
1188.775, 130.9222
1189.257, 126.6376
1189.739, 122.6938
1190.221, 118.9995
1190.703, 115.4498
1191.186, 112.4540
1191.668, 111.3009
1192.150, 110.1889
1192.632, 107.0597
1193.114, 102.2057
1193.596, 98.82080
1194.078, 97.00156
1194.560, 95.83291
1195.043, 95.27529
1195.525, 94.56721
1196.007, 92.71632
1196.489, 90.47734
1196.971, 88.50684
1197.453, 86.85688
1197.935, 85.73585
1198.417, 85.25138
1198.900, 84.33583
1199.382, 82.50273
1199.864, 80.38717
1200.346, 78.45463
1200.828, 76.71975
1201.310, 75.13802
1201.792, 73.64935
1202.274, 73.05645
1202.756, 73.50920
1203.239, 73.52375
1203.721, 72.13248
1204.203, 70.56644
1204.685, 70.49055
1205.167, 70.91821
1205.649, 70.40511
1206.131, 68.57332
1206.613, 67.24257
1207.095, 66.42965
1207.578, 65.83855
1208.060, 65.26386
1208.542, 64.90320
1209.024, 65.42622
1209.506, 66.13635
1209.988, 65.78496
1210.470, 63.89384
1210.952, 62.73325
1211.435, 62.36641
1211.917, 62.14811
1212.399, 61.46386
1212.881, 60.91539
1213.363, 61.56102
1213.845, 62.64668
1214.327, 62.68038
1214.809, 61.05002
1215.292, 60.40505
1215.774, 60.90008
1216.256, 61.21816
1216.738, 60.02405
1217.220, 58.52792
1217.702, 57.86705
1218.184, 57.77293
1218.666, 57.65579
1219.148, 57.51251
1219.630, 57.11224
1220.113, 56.39577
1220.595, 55.92521
1221.077, 56.64130
1221.559, 57.35342
1222.041, 56.59330
1222.523, 55.07631
1223.005, 54.72230
1223.487, 56.02011
1223.970, 56.15607
1224.452, 54.83813
1224.934, 53.54432
1225.416, 53.57269
1225.898, 54.03118
1226.380, 54.28732
1226.862, 54.34376
1227.344, 54.36006
1227.827, 54.38390
1228.309, 53.95857
1228.791, 53.00816
1229.273, 52.11327
1229.755, 51.61530
1230.237, 51.49689
1230.719, 52.09653
1231.201, 53.01043
1231.683, 53.10836
1232.166, 52.31656
1232.648, 51.48259
1233.130, 50.68602
1233.612, 50.07793
1234.094, 49.71291
1234.576, 49.64449
1235.058, 50.20295
1235.540, 51.02042
1236.022, 51.20978
1236.505, 50.76173
1236.987, 50.04108
1237.469, 49.05379
1237.951, 48.59369
1238.433, 50.13511
1238.915, 51.55579
1239.397, 51.04762
1239.879, 49.53915
1240.362, 49.07098
1240.844, 49.58973
1241.326, 50.34646
1241.808, 51.25666
1242.290, 51.90563
1242.772, 51.81606
1243.254, 51.59071
1243.736, 51.62164
1244.219, 51.71242
1244.701, 51.17123
1245.183, 50.17147
1245.665, 49.98394
1246.147, 50.87762
1246.629, 51.66500
1247.111, 51.81485
1247.593, 51.49031
1248.075, 50.59318
1248.557, 49.48971
1249.040, 49.03150
1249.522, 49.10521
1250.004, 49.29200
1250.486, 49.52016
1250.968, 49.84900
1251.450, 50.44650
1251.932, 50.98611
1252.414, 51.40506
1252.897, 51.64512
1253.379, 51.50283
1253.861, 51.08501
1254.343, 50.58902
1254.825, 50.02802
1255.307, 49.77273
1255.789, 50.02435
1256.271, 50.56758
1256.754, 51.60383
1257.236, 52.48178
1257.718, 51.61315
1258.200, 49.82407
1258.682, 48.64054
1259.164, 48.32614
1259.646, 48.42045
1260.128, 49.17414
1260.610, 49.47813
1261.093, 48.88787
1261.575, 47.94962
1262.057, 47.43724
1262.539, 47.14882
1263.021, 46.85676
1263.503, 46.53486
1263.985, 45.83759
1264.467, 44.53869
1264.949, 43.71772
1265.432, 43.86296
1265.914, 44.09039
1266.396, 43.00526
1266.878, 41.54354
1267.360, 40.78462
1267.842, 40.86353
1268.324, 41.14465
1268.806, 41.68012
1269.289, 41.94030
1269.771, 41.69548
1270.253, 41.41748
1270.735, 41.78594
1271.217, 42.17759
1271.699, 41.91154
1272.181, 41.09351
1272.663, 40.28112
1273.146, 39.48502
1273.628, 38.96485
1274.110, 38.78607
1274.592, 38.91705
1275.074, 39.72702
1275.556, 40.43742
1276.038, 40.34129
1276.520, 39.79586
1277.002, 40.67428
1277.484, 42.55030
1277.967, 42.59847
1278.449, 39.76176
1278.931, 37.25648
1279.413, 36.94434
1279.895, 37.27069
1280.377, 37.69698
1280.859, 38.09944
1281.341, 38.09014
1281.823, 37.79858
1282.306, 37.58014
1282.788, 37.50557
##END=



