##NAMES=Datolite
##RRUFFID=R050033
##IDEAL CHEMISTRY=CaB(SiO_4_)(OH)
##LOCALITY=Westfield, Massachusetts, USA
##OWNER=RRUFF
##SOURCE=University of Arizona Mineral Museum
##DESCRIPTION=Group of pale green single crystals
##STATUS=The identification of this mineral has been confirmed by X-ray diffraction and chemical analysis
##URL=rruff.info/R050033
##MEASURED CHEMISTRY=Ca_1.00_B_1.00_Si_1.00_O_4_(OH) ; trace amounts of Al and Na; B measured and corrected according to stoichiometry;  OH estimated by stoichiometry end charge balance
123.1454, 199.0015
123.6275, 211.6925
124.1096, 224.0222
124.5917, 236.6662
125.0739, 252.3826
125.5560, 275.0133
126.0381, 301.7668
126.5202, 327.0451
127.0023, 347.4800
127.4844, 368.2477
127.9666, 395.8770
128.4487, 430.3962
128.9308, 474.1567
129.4129, 524.6684
129.8950, 584.4396
130.3772, 663.2438
130.8593, 762.9627
131.3414, 884.3809
131.8235, 1047.970
132.3056, 1264.261
132.7877, 1470.190
133.2699, 1599.507
133.7520, 1652.384
134.2341, 1623.005
134.7162, 1475.431
135.1983, 1208.914
135.6804, 991.8715
136.1626, 829.9172
136.6447, 713.0349
137.1268, 628.2691
137.6089, 580.3511
138.0910, 550.3568
138.5731, 532.2996
139.0553, 528.3151
139.5374, 524.8612
140.0195, 520.4487
140.5016, 516.1532
140.9837, 515.5153
141.4658, 516.4760
141.9480, 524.3219
142.4301, 543.8131
142.9122, 580.9123
143.3943, 616.5121
143.8764, 645.6933
144.3585, 668.5557
144.8407, 703.2379
145.3228, 746.1593
145.8049, 803.4933
146.2870, 880.3157
146.7691, 971.2600
147.2512, 1087.152
147.7334, 1230.428
148.2155, 1405.329
148.6976, 1595.270
149.1797, 1804.662
149.6618, 2028.465
150.1439, 2257.885
150.6261, 2470.081
151.1082, 2705.763
151.5903, 2983.095
152.0724, 3339.233
152.5545, 3652.328
153.0366, 3930.212
153.5188, 4156.964
154.0009, 4300.714
154.4830, 4278.642
154.9651, 4232.181
155.4472, 4218.050
155.9293, 4209.703
156.4115, 4284.311
156.8936, 4455.925
157.3757, 4722.418
157.8578, 5076.406
158.3399, 5475.121
158.8221, 5983.663
159.3042, 6647.954
159.7863, 7527.059
160.2684, 8516.086
160.7505, 9505.759
161.2326, 10535.14
161.7148, 11840.61
162.1969, 13363.20
162.6790, 15280.72
163.1611, 17739.98
163.6432, 21813.03
164.1253, 25649.16
164.6075, 28724.23
165.0896, 31035.41
165.5717, 31483.98
166.0538, 28311.65
166.5359, 23077.37
167.0180, 18020.59
167.5002, 13598.76
167.9823, 9951.569
168.4644, 7288.921
168.9465, 5689.041
169.4286, 4636.900
169.9107, 3928.808
170.3929, 3503.399
170.8750, 3213.409
171.3571, 3029.712
171.8392, 2927.866
172.3213, 2885.367
172.8034, 2901.272
173.2856, 2971.932
173.7677, 3087.861
174.2498, 3254.849
174.7319, 3489.367
175.2140, 3816.267
175.6961, 4212.985
176.1783, 4678.846
176.6604, 5282.797
177.1425, 5821.585
177.6246, 6071.086
178.1067, 6036.698
178.5888, 5766.656
179.0710, 5170.979
179.5531, 4368.429
180.0352, 3618.992
180.5173, 2970.690
180.9994, 2426.885
181.4815, 2020.001
181.9637, 1745.062
182.4458, 1557.545
182.9279, 1437.316
183.4100, 1376.142
183.8921, 1340.936
184.3742, 1325.850
184.8564, 1328.985
185.3385, 1346.453
185.8206, 1378.389
186.3027, 1424.820
186.7848, 1484.793
187.2669, 1558.832
187.7491, 1651.783
188.2312, 1762.048
188.7133, 1891.754
189.1954, 2047.489
189.6775, 2225.802
190.1596, 2442.204
190.6418, 2768.367
191.1239, 3197.965
191.6060, 3540.428
192.0881, 3745.963
192.5702, 3809.708
193.0524, 3653.826
193.5345, 3238.982
194.0166, 2709.030
194.4987, 2262.419
194.9808, 1899.227
195.4629, 1617.412
195.9451, 1431.735
196.4272, 1338.498
196.9093, 1282.629
197.3914, 1262.636
197.8735, 1279.629
198.3556, 1350.454
198.8378, 1484.244
199.3199, 1612.068
199.8020, 1704.952
200.2841, 1763.169
200.7662, 1765.314
201.2483, 1696.166
201.7305, 1583.003
202.2126, 1485.398
202.6947, 1399.964
203.1768, 1342.751
203.6589, 1329.243
204.1410, 1364.890
204.6232, 1405.277
205.1053, 1443.178
205.5874, 1484.785
206.0695, 1552.086
206.5516, 1649.018
207.0337, 1761.319
207.5159, 1875.855
207.9980, 1983.825
208.4801, 2126.938
208.9622, 2317.613
209.4443, 2547.102
209.9264, 2776.331
210.4086, 3010.778
210.8907, 3234.840
211.3728, 3428.054
211.8549, 3578.842
212.3370, 3741.336
212.8191, 3913.544
213.3013, 4100.064
213.7834, 4342.898
214.2655, 4615.112
214.7476, 4989.157
215.2297, 5511.633
215.7118, 6173.506
216.1940, 7050.714
216.6761, 8288.860
217.1582, 9857.629
217.6403, 10989.81
218.1224, 11772.81
218.6045, 11988.71
219.0867, 11300.50
219.5688, 9313.081
220.0509, 7350.649
220.5330, 5662.478
221.0151, 4225.185
221.4972, 3124.234
221.9794, 2424.553
222.4615, 1977.135
222.9436, 1628.935
223.4257, 1404.357
223.9078, 1227.649
224.3899, 1088.705
224.8721, 986.9630
225.3542, 906.7639
225.8363, 852.6002
226.3184, 815.0007
226.8005, 782.7438
227.2827, 757.3859
227.7648, 734.8680
228.2469, 714.2459
228.7290, 695.5171
229.2111, 679.5865
229.6932, 668.7313
230.1754, 659.0197
230.6575, 644.9460
231.1396, 624.6595
231.6217, 603.3984
232.1038, 582.4008
232.5859, 561.6668
233.0681, 540.7327
233.5502, 517.0540
234.0323, 495.0602
234.5144, 482.0205
234.9965, 484.6949
235.4786, 484.9237
235.9608, 475.2152
236.4429, 451.3921
236.9250, 438.1431
237.4071, 440.4618
237.8892, 450.3786
238.3713, 455.4796
238.8535, 454.3184
239.3356, 450.7165
239.8177, 445.3846
240.2998, 437.5439
240.7819, 430.7983
241.2640, 424.5265
241.7462, 419.6001
242.2283, 417.5250
242.7104, 418.9016
243.1925, 422.1874
243.6746, 427.5350
244.1567, 436.4458
244.6389, 442.1385
245.1210, 443.2119
245.6031, 441.9052
246.0852, 442.0619
246.5673, 443.9684
247.0494, 446.8614
247.5316, 450.6403
248.0137, 455.6507
248.4958, 460.6374
248.9779, 466.7383
249.4600, 472.1395
249.9421, 472.7144
250.4243, 465.1946
250.9064, 458.7338
251.3885, 457.3485
251.8706, 463.5380
252.3527, 466.1024
252.8348, 462.9237
253.3170, 457.4360
253.7991, 456.2886
254.2812, 460.8747
254.7633, 467.1203
255.2454, 473.0835
255.7275, 477.4164
256.2097, 486.7853
256.6918, 503.5684
257.1739, 523.6440
257.6560, 538.7346
258.1381, 545.2371
258.6202, 554.2958
259.1024, 571.3439
259.5845, 598.9847
260.0666, 622.3635
260.5487, 638.1298
261.0308, 652.1446
261.5129, 676.5540
261.9951, 713.9885
262.4772, 755.0653
262.9593, 795.8088
263.4414, 836.1095
263.9235, 877.7938
264.4056, 920.0292
264.8878, 964.9613
265.3699, 1015.522
265.8520, 1069.448
266.3341, 1136.763
266.8162, 1224.790
267.2983, 1335.936
267.7805, 1446.898
268.2626, 1554.735
268.7447, 1664.714
269.2268, 1789.505
269.7089, 1935.138
270.1910, 2073.470
270.6732, 2195.220
271.1553, 2299.030
271.6374, 2395.300
272.1195, 2488.185
272.6016, 2567.580
273.0837, 2621.811
273.5659, 2656.542
274.0480, 2639.860
274.5301, 2548.901
275.0122, 2381.532
275.4943, 2202.414
275.9764, 2004.356
276.4586, 1808.079
276.9407, 1641.399
277.4228, 1506.602
277.9049, 1397.970
278.3870, 1316.995
278.8691, 1263.221
279.3513, 1227.264
279.8334, 1210.318
280.3155, 1208.130
280.7976, 1213.877
281.2798, 1227.160
281.7619, 1256.241
282.2440, 1307.190
282.7261, 1377.935
283.2082, 1450.891
283.6903, 1523.984
284.1725, 1606.931
284.6546, 1711.592
285.1367, 1836.899
285.6188, 1978.798
286.1009, 2136.047
286.5830, 2308.648
287.0652, 2492.703
287.5473, 2684.026
288.0294, 2901.575
288.5115, 3161.206
288.9936, 3464.601
289.4757, 3815.058
289.9579, 4254.109
290.4400, 4732.606
290.9221, 5164.139
291.4042, 5556.182
291.8863, 5807.612
292.3684, 5805.313
292.8506, 5569.635
293.3327, 5185.156
293.8148, 4603.468
294.2969, 3930.602
294.7790, 3344.211
295.2611, 2842.354
295.7433, 2422.920
296.2254, 2094.521
296.7075, 1841.712
297.1896, 1633.263
297.6717, 1463.886
298.1538, 1324.431
298.6360, 1205.799
299.1181, 1106.775
299.6002, 1025.746
300.0823, 964.1663
300.5644, 918.4860
301.0465, 882.3923
301.5287, 858.7546
302.0108, 838.3630
302.4929, 809.1836
302.9750, 772.8781
303.4571, 740.6308
303.9392, 722.6556
304.4214, 712.2258
304.9035, 699.2498
305.3856, 678.7261
305.8677, 659.7868
306.3498, 650.9131
306.8319, 650.7014
307.3141, 654.1165
307.7962, 663.9024
308.2783, 673.2159
308.7604, 674.1923
309.2425, 661.4440
309.7246, 648.4879
310.2068, 643.1586
310.6889, 644.2567
311.1710, 648.5278
311.6531, 645.3370
312.1352, 650.2357
312.6173, 679.2731
313.0995, 744.5398
313.5816, 804.8953
314.0637, 845.4178
314.5458, 867.5928
315.0279, 874.7709
315.5100, 845.8613
315.9922, 819.1445
316.4743, 815.7996
316.9564, 841.6500
317.4385, 876.8595
317.9206, 916.8128
318.4027, 961.7800
318.8849, 1012.138
319.3670, 1070.125
319.8491, 1131.643
320.3312, 1195.406
320.8133, 1261.617
321.2954, 1329.643
321.7776, 1416.146
322.2597, 1498.537
322.7418, 1552.736
323.2239, 1550.518
323.7060, 1544.511
324.1881, 1541.902
324.6703, 1542.024
325.1524, 1558.771
325.6345, 1595.054
326.1166, 1647.185
326.5987, 1712.461
327.0808, 1786.812
327.5630, 1878.913
328.0451, 1990.751
328.5272, 2122.075
329.0093, 2268.665
329.4914, 2426.111
329.9735, 2599.150
330.4557, 2790.353
330.9378, 3003.700
331.4199, 3233.216
331.9020, 3512.112
332.3841, 3813.424
332.8662, 4012.332
333.3484, 4122.946
333.8305, 4106.742
334.3126, 3922.833
334.7947, 3519.784
335.2768, 3107.095
335.7589, 2673.080
336.2411, 2248.034
336.7232, 1896.319
337.2053, 1625.800
337.6874, 1413.454
338.1695, 1253.623
338.6516, 1151.453
339.1338, 1070.412
339.6159, 1013.563
340.0980, 973.1318
340.5801, 938.1477
341.0622, 908.0952
341.5443, 884.7036
342.0265, 866.8933
342.5086, 855.3494
342.9907, 856.2523
343.4728, 870.6528
343.9549, 893.3864
344.4370, 920.9070
344.9192, 952.4172
345.4013, 981.3377
345.8834, 1001.090
346.3655, 1017.401
346.8476, 1046.235
347.3297, 1087.762
347.8119, 1132.733
348.2940, 1168.669
348.7761, 1200.419
349.2582, 1241.675
349.7403, 1299.156
350.2225, 1366.064
350.7046, 1430.845
351.1867, 1495.277
351.6688, 1568.626
352.1509, 1658.011
352.6331, 1760.617
353.1152, 1872.260
353.5973, 1991.909
354.0794, 2120.585
354.5615, 2260.669
355.0436, 2410.851
355.5258, 2567.136
356.0079, 2722.973
356.4900, 2886.374
356.9721, 3065.058
357.4542, 3261.932
357.9363, 3468.256
358.4185, 3676.103
358.9006, 3890.405
359.3827, 4119.694
359.8648, 4420.624
360.3469, 4695.125
360.8290, 4902.305
361.3112, 5041.531
361.7933, 5092.688
362.2754, 5034.336
362.7575, 4891.714
363.2396, 4691.383
363.7217, 4403.378
364.2039, 4096.681
364.6860, 3774.011
365.1681, 3434.445
365.6502, 3131.570
366.1323, 2876.675
366.6144, 2654.559
367.0966, 2454.273
367.5787, 2276.942
368.0608, 2122.073
368.5429, 1991.707
369.0250, 1884.083
369.5071, 1793.596
369.9893, 1727.816
370.4714, 1670.636
370.9535, 1612.427
371.4356, 1542.336
371.9177, 1497.734
372.3998, 1483.504
372.8820, 1492.815
373.3641, 1512.235
373.8462, 1544.032
374.3283, 1579.728
374.8104, 1613.151
375.2925, 1643.036
375.7747, 1690.131
376.2568, 1757.073
376.7389, 1836.746
377.2210, 1925.218
377.7031, 2024.136
378.1852, 2106.725
378.6674, 2157.740
379.1495, 2186.396
379.6316, 2234.712
380.1137, 2303.258
380.5958, 2382.664
381.0779, 2455.984
381.5601, 2530.003
382.0422, 2631.756
382.5243, 2770.608
383.0064, 2938.746
383.4885, 3123.314
383.9706, 3326.479
384.4528, 3551.046
384.9349, 3801.630
385.4170, 4075.993
385.8991, 4373.703
386.3812, 4695.544
386.8633, 5047.595
387.3455, 5435.645
387.8276, 5857.214
388.3097, 6314.278
388.7918, 6814.658
389.2739, 7341.921
389.7560, 7916.340
390.2382, 8550.555
390.7203, 9095.975
391.2024, 9563.341
391.6845, 9866.406
392.1666, 9909.315
392.6487, 9570.072
393.1309, 9043.247
393.6130, 8344.422
394.0951, 7489.185
394.5772, 6652.108
395.0593, 5823.314
395.5414, 5059.661
396.0236, 4405.050
396.5057, 3908.204
396.9878, 3467.400
397.4699, 3082.586
397.9520, 2751.060
398.4341, 2466.938
398.9163, 2240.375
399.3984, 2051.197
399.8805, 1895.345
400.3626, 1780.706
400.8447, 1676.378
401.3268, 1582.768
401.8090, 1499.307
402.2911, 1423.446
402.7732, 1355.533
403.2553, 1296.605
403.7374, 1249.595
404.2195, 1213.645
404.7017, 1171.030
405.1838, 1117.835
405.6659, 1068.153
406.1480, 1035.520
406.6301, 1019.920
407.1122, 1009.496
407.5944, 1001.753
408.0765, 998.3629
408.5586, 1006.462
409.0407, 1025.834
409.5228, 1043.684
410.0049, 1048.210
410.4871, 1044.468
410.9692, 1045.927
411.4513, 1053.594
411.9334, 1068.075
412.4155, 1090.105
412.8976, 1119.857
413.3798, 1156.564
413.8619, 1201.676
414.3440, 1253.057
414.8261, 1308.528
415.3082, 1368.328
415.7903, 1434.627
416.2725, 1508.610
416.7546, 1590.416
417.2367, 1681.943
417.7188, 1782.026
418.2009, 1891.504
418.6830, 2005.721
419.1652, 2128.287
419.6473, 2268.027
420.1294, 2415.358
420.6115, 2590.878
421.0937, 2812.217
421.5758, 3096.498
422.0579, 3385.659
422.5400, 3729.766
423.0221, 4063.172
423.5042, 4285.726
423.9864, 4424.358
424.4685, 4416.477
424.9506, 4216.002
425.4327, 3810.573
425.9148, 3397.672
426.3969, 2952.299
426.8791, 2528.071
427.3612, 2175.587
427.8433, 1902.863
428.3254, 1680.692
428.8075, 1513.351
429.2896, 1392.184
429.7718, 1294.068
430.2539, 1220.455
430.7360, 1160.374
431.2181, 1108.307
431.7002, 1064.500
432.1823, 1033.352
432.6645, 1015.977
433.1466, 1008.252
433.6287, 1004.233
434.1108, 1004.669
434.5929, 1013.982
435.0750, 1039.706
435.5572, 1072.953
436.0393, 1097.710
436.5214, 1114.307
437.0035, 1129.848
437.4856, 1149.622
437.9677, 1171.707
438.4499, 1194.672
438.9320, 1223.716
439.4141, 1244.064
439.8962, 1245.759
440.3783, 1230.570
440.8604, 1203.086
441.3426, 1149.720
441.8247, 1096.773
442.3068, 1060.046
442.7889, 1043.798
443.2710, 1031.536
443.7531, 1018.257
444.2353, 1007.014
444.7174, 1000.956
445.1995, 999.0982
445.6816, 1004.163
446.1637, 1018.109
446.6458, 1040.177
447.1280, 1064.112
447.6101, 1085.975
448.0922, 1114.206
448.5743, 1153.237
449.0564, 1205.235
449.5385, 1263.924
450.0207, 1330.469
450.5028, 1402.138
450.9849, 1472.444
451.4670, 1539.228
451.9491, 1612.057
452.4312, 1692.561
452.9134, 1781.479
453.3955, 1884.318
453.8776, 1999.489
454.3597, 2136.419
454.8418, 2318.019
455.3239, 2532.991
455.8061, 2732.551
456.2882, 2922.718
456.7703, 3069.826
457.2524, 3131.933
457.7345, 3111.746
458.2166, 3019.584
458.6988, 2831.360
459.1809, 2589.448
459.6630, 2330.497
460.1451, 2050.715
460.6272, 1791.694
461.1093, 1577.933
461.5915, 1401.560
462.0736, 1257.507
462.5557, 1157.242
463.0378, 1075.651
463.5199, 1006.099
464.0020, 948.7581
464.4842, 904.0345
464.9663, 882.6876
465.4484, 866.7179
465.9305, 846.1447
466.4126, 812.9072
466.8947, 788.2792
467.3769, 776.4602
467.8590, 771.4586
468.3411, 762.9522
468.8232, 747.5055
469.3053, 735.5966
469.7874, 730.7643
470.2696, 732.5825
470.7517, 732.3874
471.2338, 728.8063
471.7159, 727.4035
472.1980, 734.4690
472.6801, 749.8125
473.1623, 762.8619
473.6444, 771.2635
474.1265, 778.6108
474.6086, 791.7087
475.0907, 809.7945
475.5728, 827.9327
476.0550, 838.9872
476.5371, 850.0870
477.0192, 872.9187
477.5013, 907.9908
477.9834, 949.7194
478.4655, 995.3380
478.9477, 1044.758
479.4298, 1097.130
479.9119, 1151.749
480.3940, 1210.704
480.8761, 1275.203
481.3582, 1344.651
481.8404, 1416.648
482.3225, 1487.848
482.8046, 1563.498
483.2867, 1645.317
483.7688, 1731.473
484.2509, 1830.645
484.7331, 1951.617
485.2152, 2081.480
485.6973, 2210.159
486.1794, 2327.746
486.6615, 2461.118
487.1436, 2612.586
487.6258, 2783.197
488.1079, 2986.530
488.5900, 3237.085
489.0721, 3476.985
489.5542, 3694.531
490.0363, 3891.688
490.5185, 3980.686
491.0006, 3955.284
491.4827, 3832.212
491.9648, 3604.786
492.4470, 3287.282
492.9291, 2956.698
493.4112, 2630.645
493.8933, 2320.241
494.3754, 2049.001
494.8575, 1814.202
495.3397, 1614.949
495.8218, 1453.345
496.3039, 1322.250
496.7860, 1218.226
497.2681, 1142.656
497.7502, 1078.922
498.2324, 1019.109
498.7145, 964.9780
499.1966, 917.7750
499.6787, 880.9711
500.1608, 848.6594
500.6429, 819.4567
501.1251, 793.3087
501.6072, 770.2905
502.0893, 748.8726
502.5714, 731.6069
503.0535, 720.2346
503.5356, 718.0729
504.0178, 713.9760
504.4999, 707.6794
504.9820, 699.7034
505.4641, 690.1127
505.9462, 678.3408
506.4283, 667.9128
506.9105, 659.3138
507.3926, 653.0304
507.8747, 651.9507
508.3568, 656.3052
508.8389, 661.7056
509.3210, 664.5533
509.8032, 665.9788
510.2853, 669.1873
510.7674, 674.7112
511.2495, 681.4548
511.7316, 688.9023
512.2137, 696.7395
512.6959, 704.2061
513.1780, 709.9454
513.6601, 716.1577
514.1422, 723.3495
514.6243, 731.8561
515.1064, 743.7646
515.5886, 760.3102
516.0707, 780.2982
516.5528, 803.1047
517.0349, 830.1532
517.5170, 857.2675
517.9991, 884.8642
518.4813, 911.8220
518.9634, 935.7471
519.4455, 950.0123
519.9276, 973.1331
520.4097, 1012.876
520.8918, 1065.173
521.3740, 1106.184
521.8561, 1132.444
522.3382, 1158.888
522.8203, 1203.615
523.3024, 1263.673
523.7845, 1293.755
524.2667, 1289.985
524.7488, 1261.191
525.2309, 1211.101
525.7130, 1143.406
526.1951, 1071.476
526.6772, 992.4579
527.1594, 917.5690
527.6415, 862.4324
528.1236, 824.5401
528.6057, 791.6537
529.0878, 756.0624
529.5699, 723.7508
530.0521, 699.7650
530.5342, 685.0552
531.0163, 676.1483
531.4984, 675.4753
531.9805, 678.4161
532.4626, 680.0401
532.9448, 677.3579
533.4269, 676.1373
533.9090, 676.8778
534.3911, 679.5298
534.8732, 683.4459
535.3553, 687.0394
535.8375, 695.1084
536.3196, 711.0496
536.8017, 735.5952
537.2838, 756.1535
537.7659, 772.0174
538.2480, 786.8657
538.7302, 804.0242
539.2123, 823.6234
539.6944, 845.0169
540.1765, 867.0266
540.6586, 892.6931
541.1407, 927.9258
541.6229, 971.3150
542.1050, 1018.203
542.5871, 1066.382
543.0692, 1116.809
543.5513, 1169.184
544.0334, 1223.110
544.5156, 1281.910
544.9977, 1343.961
545.4798, 1413.361
545.9619, 1493.352
546.4440, 1594.946
546.9261, 1691.721
547.4083, 1767.869
547.8904, 1839.923
548.3725, 1935.890
548.8546, 2062.796
549.3367, 2203.491
549.8188, 2357.424
550.3010, 2523.229
550.7831, 2686.391
551.2652, 2848.314
551.7473, 3003.504
552.2294, 3158.805
552.7115, 3310.098
553.1937, 3410.326
553.6758, 3457.062
554.1579, 3447.270
554.6400, 3356.981
555.1221, 3204.434
555.6042, 3042.753
556.0864, 2875.856
556.5685, 2720.870
557.0506, 2592.412
557.5327, 2489.925
558.0148, 2413.957
558.4969, 2373.566
558.9791, 2353.047
559.4612, 2348.207
559.9433, 2363.152
560.4254, 2369.391
560.9075, 2381.059
561.3896, 2370.191
561.8718, 2312.467
562.3539, 2180.674
562.8360, 2047.261
563.3181, 1917.332
563.8002, 1790.393
564.2823, 1660.372
564.7645, 1525.068
565.2466, 1401.253
565.7287, 1296.245
566.2108, 1208.878
566.6929, 1138.125
567.1750, 1084.930
567.6572, 1039.887
568.1393, 994.7150
568.6214, 952.9470
569.1035, 924.8151
569.5856, 913.8069
570.0677, 907.4913
570.5499, 895.4261
571.0320, 881.1097
571.5141, 869.9950
571.9962, 863.2378
572.4783, 860.8832
572.9604, 865.6656
573.4426, 875.9077
573.9247, 883.2427
574.4068, 879.7376
574.8889, 879.1448
575.3710, 887.2572
575.8531, 905.6251
576.3353, 923.7322
576.8174, 940.5388
577.2995, 958.3694
577.7816, 978.6895
578.2637, 1001.055
578.7458, 1030.952
579.2280, 1071.052
579.7101, 1115.574
580.1922, 1150.514
580.6743, 1178.783
581.1564, 1216.825
581.6385, 1277.043
582.1207, 1348.851
582.6028, 1417.976
583.0849, 1484.601
583.5670, 1554.846
584.0491, 1633.120
584.5313, 1715.781
585.0134, 1798.161
585.4955, 1875.072
585.9776, 1965.657
586.4597, 2083.440
586.9418, 2213.570
587.4240, 2336.335
587.9061, 2418.320
588.3882, 2546.813
588.8703, 2752.724
589.3524, 3005.253
589.8345, 3218.375
590.3167, 3392.493
590.7988, 3526.081
591.2809, 3611.108
591.7630, 3653.127
592.2451, 3675.057
592.7272, 3677.044
593.2094, 3655.222
593.6915, 3603.709
594.1736, 3526.631
594.6557, 3428.242
595.1378, 3308.133
595.6199, 3179.697
596.1021, 3033.340
596.5842, 2890.724
597.0663, 2782.322
597.5485, 2740.457
598.0306, 2712.589
598.5127, 2684.354
598.9948, 2657.140
599.4769, 2638.004
599.9590, 2642.831
600.4412, 2637.075
600.9233, 2611.649
601.4054, 2566.680
601.8875, 2497.709
602.3696, 2401.763
602.8517, 2290.003
603.3339, 2171.484
603.8160, 2045.814
604.2981, 1917.820
604.7802, 1787.157
605.2623, 1661.338
605.7444, 1546.837
606.2266, 1445.364
606.7087, 1367.527
607.1908, 1333.205
607.6729, 1304.907
608.1550, 1245.612
608.6371, 1166.197
609.1193, 1099.958
609.6014, 1069.597
610.0835, 1048.048
610.5656, 1023.017
611.0477, 992.4469
611.5298, 968.2104
612.0120, 954.8402
612.4941, 943.8857
612.9762, 928.8903
613.4583, 906.4739
613.9404, 893.3442
614.4225, 892.8329
614.9047, 897.2109
615.3868, 894.6669
615.8689, 885.8229
616.3510, 879.2205
616.8331, 877.6804
617.3152, 879.2162
617.7974, 882.9568
618.2795, 887.6948
618.7616, 888.9900
619.2437, 879.8236
619.7258, 869.6918
620.2079, 866.9446
620.6901, 871.9403
621.1722, 874.8219
621.6543, 867.9894
622.1364, 860.8549
622.6185, 859.6891
623.1006, 866.7292
623.5828, 875.4293
624.0649, 885.7909
624.5470, 897.8118
625.0291, 912.7129
625.5112, 931.9266
625.9933, 945.4737
626.4755, 949.0953
626.9576, 949.2258
627.4397, 961.4025
627.9218, 983.8772
628.4039, 1003.307
628.8860, 1009.664
629.3682, 1011.040
629.8503, 1016.862
630.3324, 1027.192
630.8145, 1042.028
631.2966, 1065.612
631.7787, 1090.571
632.2609, 1111.007
632.7430, 1124.519
633.2251, 1140.126
633.7072, 1157.355
634.1893, 1178.635
634.6714, 1206.287
635.1536, 1242.309
635.6357, 1280.750
636.1178, 1321.734
636.5999, 1363.870
637.0820, 1400.822
637.5641, 1431.731
638.0463, 1476.061
638.5284, 1543.426
639.0105, 1625.561
639.4926, 1709.221
639.9747, 1794.832
640.4568, 1882.128
640.9390, 1967.142
641.4211, 2057.552
641.9032, 2158.930
642.3853, 2271.230
642.8674, 2398.871
643.3495, 2555.406
643.8317, 2719.695
644.3138, 2878.153
644.7959, 3016.562
645.2780, 3172.108
645.7601, 3344.321
646.2422, 3533.265
646.7244, 3743.909
647.2065, 3977.489
647.6886, 4216.625
648.1707, 4454.688
648.6528, 4698.017
649.1349, 4963.975
649.6171, 5250.393
650.0992, 5549.079
650.5813, 5870.708
651.0634, 6193.523
651.5455, 6498.642
652.0276, 6785.764
652.5098, 7038.371
652.9919, 7268.621
653.4740, 7446.143
653.9561, 7552.192
654.4382, 7583.238
654.9203, 7552.047
655.4025, 7457.032
655.8846, 7303.333
656.3667, 7083.950
656.8488, 6764.350
657.3309, 6481.476
657.8130, 6243.077
658.2952, 6033.333
658.7773, 5825.124
659.2594, 5619.690
659.7415, 5452.787
660.2236, 5334.518
660.7057, 5256.994
661.1879, 5213.217
661.6700, 5201.890
662.1521, 5220.414
662.6342, 5272.711
663.1163, 5349.990
663.5984, 5453.250
664.0806, 5579.870
664.5627, 5711.477
665.0448, 5837.970
665.5269, 5972.761
666.0090, 6132.347
666.4911, 6326.443
666.9733, 6463.530
667.4554, 6539.944
667.9375, 6566.581
668.4196, 6551.668
668.9017, 6494.775
669.3839, 6387.598
669.8660, 6225.109
670.3481, 6035.737
670.8302, 5837.713
671.3123, 5639.424
671.7944, 5457.368
672.2766, 5293.505
672.7587, 5155.519
673.2408, 5045.372
673.7229, 4964.434
674.2050, 4912.963
674.6871, 4876.578
675.1693, 4886.193
675.6514, 4951.499
676.1335, 5069.633
676.6156, 5225.917
677.0977, 5409.681
677.5798, 5654.243
678.0620, 5970.297
678.5441, 6359.812
679.0262, 6809.560
679.5083, 7322.461
679.9904, 7910.973
680.4725, 8588.367
680.9547, 9345.357
681.4368, 10183.15
681.9189, 11096.96
682.4010, 12068.05
682.8831, 13061.08
683.3652, 14107.96
683.8474, 15225.84
684.3295, 16384.22
684.8116, 17669.49
685.2937, 19074.22
685.7758, 20626.58
686.2579, 22343.61
686.7401, 24200.32
687.2222, 26270.72
687.7043, 28544.40
688.1864, 31043.00
688.6685, 33829.18
689.1506, 36899.11
689.6328, 40189.42
690.1149, 43978.16
690.5970, 47808.82
691.0791, 51394.32
691.5612, 54578.46
692.0433, 56493.69
692.5255, 56807.77
693.0076, 55659.63
693.4897, 52865.29
693.9718, 48311.89
694.4539, 43479.60
694.9360, 38118.07
695.4182, 32963.39
695.9003, 28303.85
696.3824, 24188.49
696.8645, 20665.08
697.3466, 17772.76
697.8287, 15369.99
698.3109, 13365.41
698.7930, 11735.16
699.2751, 10371.42
699.7572, 9294.835
700.2393, 8385.806
700.7214, 7540.172
701.2036, 6777.449
701.6857, 6131.086
702.1678, 5661.270
702.6499, 5253.479
703.1320, 4874.421
703.6141, 4526.264
704.0963, 4212.984
704.5784, 3933.072
705.0605, 3682.983
705.5426, 3465.348
706.0247, 3275.969
706.5068, 3102.492
706.9890, 2944.533
707.4711, 2797.963
707.9532, 2663.151
708.4353, 2538.247
708.9174, 2422.396
709.3995, 2315.110
709.8817, 2216.283
710.3638, 2128.819
710.8459, 2048.732
711.3280, 1973.738
711.8101, 1902.704
712.2922, 1838.514
712.7744, 1786.268
713.2565, 1737.542
713.7386, 1685.854
714.2207, 1629.082
714.7028, 1573.897
715.1849, 1517.932
715.6671, 1466.754
716.1492, 1428.126
716.6313, 1401.016
717.1134, 1367.626
717.5955, 1323.212
718.0776, 1278.362
718.5598, 1246.497
719.0419, 1224.098
719.5240, 1204.570
720.0061, 1188.017
720.4882, 1170.543
720.9703, 1150.313
721.4525, 1127.723
721.9346, 1103.520
722.4167, 1073.390
722.8988, 1047.127
723.3809, 1027.635
723.8630, 1013.245
724.3452, 996.1638
724.8273, 975.4334
725.3094, 959.3391
725.7915, 954.6457
726.2736, 956.5106
726.7557, 953.2654
727.2379, 945.1114
727.7200, 933.6404
728.2021, 914.3712
728.6842, 896.1824
729.1663, 889.1689
729.6484, 894.6292
730.1306, 893.7076
730.6127, 872.8046
731.0948, 850.8716
731.5769, 838.7294
732.0590, 839.2261
732.5411, 837.1808
733.0233, 832.0641
733.5054, 825.5929
733.9875, 819.4644
734.4696, 813.4607
734.9517, 805.4990
735.4338, 794.7821
735.9160, 785.2670
736.3981, 784.5115
736.8802, 786.4411
737.3623, 781.1973
737.8444, 760.5503
738.3266, 743.3096
738.8087, 737.4930
739.2908, 738.9620
739.7729, 742.1047
740.2551, 749.3401
740.7372, 753.2439
741.2193, 752.9290
741.7014, 748.8763
742.1835, 741.0380
742.6656, 729.3969
743.1478, 718.1964
743.6299, 707.8041
744.1120, 699.7130
744.5941, 697.6631
745.0762, 700.1336
745.5583, 702.3341
746.0405, 700.9312
746.5226, 699.5049
747.0047, 700.6371
747.4868, 703.7580
747.9689, 705.2381
748.4510, 701.6624
748.9332, 700.3366
749.4153, 704.8231
749.8974, 714.2882
750.3795, 717.5916
750.8616, 713.5902
751.3438, 712.1363
751.8259, 721.4352
752.3080, 737.4298
752.7901, 750.9157
753.2722, 761.7236
753.7543, 772.1909
754.2365, 781.6562
754.7186, 792.9690
755.2007, 809.5287
755.6828, 833.2821
756.1649, 853.3861
756.6470, 861.9882
757.1292, 872.0635
757.6113, 892.3191
758.0934, 925.7355
758.5755, 955.3549
759.0576, 980.3845
759.5397, 1005.163
760.0219, 1030.991
760.5040, 1060.341
760.9861, 1104.252
761.4682, 1167.471
761.9503, 1226.042
762.4324, 1258.554
762.9146, 1277.057
763.3967, 1296.834
763.8788, 1334.818
764.3609, 1352.478
764.8430, 1337.508
765.3251, 1302.199
765.8073, 1256.989
766.2894, 1198.839
766.7715, 1143.222
767.2536, 1092.554
767.7357, 1045.475
768.2178, 999.4507
768.7000, 954.7770
769.1821, 913.5106
769.6642, 874.9595
770.1463, 841.5506
770.6284, 816.9707
771.1105, 798.8332
771.5927, 782.5237
772.0748, 770.0729
772.5569, 755.1693
773.0390, 734.2878
773.5211, 710.4448
774.0032, 691.2384
774.4854, 676.9707
774.9675, 666.3506
775.4496, 659.5364
775.9317, 655.6489
776.4138, 653.2859
776.8959, 652.1620
777.3781, 650.6152
777.8602, 645.7430
778.3423, 641.7266
778.8244, 644.5948
779.3065, 652.0619
779.7886, 654.4241
780.2708, 644.1386
780.7529, 632.9565
781.2350, 624.0827
781.7171, 617.4977
782.1992, 612.3423
782.6813, 607.7012
783.1635, 608.4520
783.6456, 621.9625
784.1277, 642.0510
784.6098, 647.4830
785.0919, 639.2900
785.5740, 628.2479
786.0562, 617.2410
786.5383, 609.2286
787.0204, 608.4231
787.5025, 614.9289
787.9846, 619.5786
788.4667, 617.2324
788.9489, 615.4646
789.4310, 618.3075
789.9131, 626.2165
790.3952, 629.0319
790.8773, 625.7603
791.3594, 621.9247
791.8416, 621.0676
792.3237, 622.9025
792.8058, 629.0198
793.2879, 639.3649
793.7700, 644.5940
794.2521, 631.5901
794.7343, 615.2177
795.2164, 607.8472
795.6985, 612.3545
796.1806, 619.7935
796.6627, 633.8166
797.1448, 645.2551
797.6270, 646.4575
798.1091, 635.3754
798.5912, 630.9756
799.0733, 633.9861
799.5554, 640.2916
800.0375, 647.5059
800.5197, 654.6754
801.0018, 659.3739
801.4839, 660.8560
801.9660, 663.2595
802.4481, 673.0534
802.9302, 682.4164
803.4124, 683.8591
803.8945, 669.3251
804.3766, 662.9736
804.8587, 667.8041
805.3408, 676.8705
805.8229, 684.0310
806.3051, 689.3042
806.7872, 695.8021
807.2693, 703.9510
807.7514, 712.4837
808.2335, 719.1160
808.7156, 725.7177
809.1978, 735.9520
809.6799, 752.4092
810.1620, 766.3077
810.6441, 770.5322
811.1262, 772.4567
811.6083, 779.1488
812.0905, 791.5638
812.5726, 807.1453
813.0547, 826.3298
813.5368, 847.4230
814.0189, 869.2614
814.5010, 891.4680
814.9832, 911.0305
815.4653, 926.5015
815.9474, 943.4363
816.4295, 963.6238
816.9116, 989.8674
817.3937, 1027.139
817.8759, 1085.392
818.3580, 1136.747
818.8401, 1164.302
819.3222, 1189.426
819.8043, 1232.442
820.2864, 1295.659
820.7686, 1369.260
821.2507, 1455.543
821.7328, 1540.694
822.2149, 1600.506
822.6970, 1644.162
823.1791, 1693.993
823.6613, 1751.971
824.1434, 1825.420
824.6255, 1938.217
825.1076, 2060.016
825.5897, 2155.232
826.0718, 2201.540
826.5540, 2246.420
827.0361, 2304.348
827.5182, 2345.500
828.0003, 2328.858
828.4824, 2255.162
828.9645, 2173.926
829.4467, 2092.665
829.9288, 2005.443
830.4109, 1902.592
830.8930, 1790.657
831.3751, 1676.547
831.8572, 1556.823
832.3394, 1449.641
832.8215, 1362.107
833.3036, 1289.538
833.7857, 1225.283
834.2678, 1172.291
834.7499, 1120.637
835.2321, 1068.654
835.7142, 1021.287
836.1963, 986.1992
836.6784, 961.0156
837.1605, 938.7320
837.6426, 918.6990
838.1248, 899.1887
838.6069, 874.4388
839.0890, 851.6156
839.5711, 839.8776
840.0532, 852.6296
840.5353, 854.4739
841.0175, 834.3441
841.4996, 812.0237
841.9817, 810.7708
842.4638, 831.7448
842.9459, 843.0670
843.4280, 840.8041
843.9102, 833.5891
844.3923, 827.1374
844.8744, 823.3136
845.3565, 826.1912
845.8386, 838.5508
846.3207, 850.0635
846.8029, 854.0732
847.2850, 857.0335
847.7671, 864.7437
848.2492, 879.2991
848.7313, 893.3206
849.2134, 906.9716
849.6956, 919.4095
850.1777, 927.2595
850.6598, 933.1083
851.1419, 946.1218
851.6240, 967.6473
852.1061, 994.4224
852.5883, 1027.813
853.0704, 1063.158
853.5525, 1095.610
854.0346, 1120.579
854.5167, 1154.664
854.9988, 1204.328
855.4810, 1255.763
855.9631, 1297.577
856.4452, 1329.665
856.9273, 1371.543
857.4094, 1423.715
857.8915, 1482.484
858.3737, 1547.620
858.8558, 1615.072
859.3379, 1679.008
859.8200, 1737.886
860.3021, 1798.615
860.7842, 1862.734
861.2664, 1929.232
861.7485, 2000.637
862.2306, 2080.553
862.7127, 2133.974
863.1948, 2160.096
863.6769, 2165.101
864.1591, 2150.354
864.6412, 2118.588
865.1233, 2072.960
865.6054, 2014.093
866.0875, 1952.580
866.5696, 1888.618
867.0518, 1828.270
867.5339, 1773.675
868.0160, 1724.761
868.4981, 1688.538
868.9802, 1665.417
869.4623, 1653.586
869.9445, 1652.598
870.4266, 1662.361
870.9087, 1682.529
871.3908, 1713.354
871.8729, 1754.007
872.3550, 1809.557
872.8372, 1870.647
873.3193, 1931.741
873.8014, 1992.362
874.2835, 2048.438
874.7656, 2082.944
875.2477, 2133.344
875.7299, 2215.451
876.2120, 2319.060
876.6941, 2409.183
877.1762, 2485.537
877.6583, 2551.247
878.1404, 2607.451
878.6226, 2652.865
879.1047, 2681.532
879.5869, 2697.830
880.0690, 2713.750
880.5511, 2754.640
881.0332, 2771.269
881.5153, 2737.446
881.9974, 2674.124
882.4796, 2622.628
882.9617, 2586.752
883.4438, 2539.861
883.9259, 2473.220
884.4080, 2398.952
884.8901, 2337.501
885.3723, 2283.709
885.8544, 2224.335
886.3365, 2146.286
886.8186, 2076.774
887.3007, 2033.282
887.7828, 2004.088
888.2650, 1972.318
888.7471, 1935.146
889.2292, 1902.720
889.7113, 1875.708
890.1934, 1853.913
890.6755, 1839.849
891.1577, 1830.611
891.6398, 1814.723
892.1219, 1788.100
892.6040, 1765.780
893.0861, 1752.596
893.5682, 1752.208
894.0504, 1770.953
894.5325, 1823.189
895.0146, 1858.896
895.4967, 1871.862
895.9788, 1879.717
896.4609, 1895.282
896.9431, 1918.211
897.4252, 1944.131
897.9073, 1972.803
898.3894, 2013.614
898.8715, 2079.993
899.3536, 2157.814
899.8358, 2233.970
900.3179, 2305.321
900.8000, 2393.765
901.2821, 2506.457
901.7642, 2626.381
902.2463, 2744.102
902.7285, 2861.121
903.2106, 3002.661
903.6927, 3168.392
904.1748, 3359.845
904.6569, 3586.267
905.1390, 3835.197
905.6212, 4088.455
906.1033, 4349.675
906.5854, 4651.573
907.0675, 5012.954
907.5496, 5403.840
908.0317, 5818.885
908.5139, 6255.262
908.9960, 6704.734
909.4781, 7165.559
909.9602, 7684.258
910.4423, 8281.423
910.9244, 8926.736
911.4066, 9582.778
911.8887, 10255.50
912.3708, 10966.26
912.8529, 11738.47
913.3350, 12525.47
913.8171, 13343.83
914.2993, 14147.72
914.7814, 14896.45
915.2635, 15598.88
915.7456, 16137.13
916.2277, 16502.75
916.7098, 16665.50
917.1920, 16582.62
917.6741, 16276.13
918.1562, 15758.90
918.6383, 15009.14
919.1204, 14156.41
919.6025, 13162.63
920.0847, 12139.00
920.5668, 11145.78
921.0489, 10170.63
921.5310, 9289.264
922.0131, 8505.531
922.4952, 7807.406
922.9774, 7204.638
923.4595, 6675.027
923.9416, 6183.346
924.4237, 5730.783
924.9058, 5335.325
925.3879, 5006.286
925.8701, 4733.017
926.3522, 4510.487
926.8343, 4334.480
927.3164, 4180.152
927.7985, 4047.351
928.2806, 3929.998
928.7628, 3824.312
929.2449, 3735.113
929.7270, 3671.664
930.2091, 3630.514
930.6912, 3600.504
931.1733, 3590.554
931.6555, 3575.986
932.1376, 3546.387
932.6197, 3509.075
933.1018, 3476.465
933.5839, 3449.366
934.0660, 3419.917
934.5482, 3387.757
935.0303, 3348.610
935.5124, 3291.768
935.9945, 3224.652
936.4766, 3162.107
936.9587, 3111.037
937.4409, 3052.376
937.9230, 2967.375
938.4051, 2881.262
938.8872, 2813.624
939.3693, 2766.603
939.8514, 2723.788
940.3336, 2686.213
940.8157, 2647.510
941.2978, 2597.144
941.7799, 2544.610
942.2620, 2504.211
942.7441, 2476.493
943.2263, 2451.469
943.7084, 2420.536
944.1905, 2398.066
944.6726, 2392.846
945.1547, 2401.243
945.6368, 2398.565
946.1190, 2383.878
946.6011, 2374.171
947.0832, 2383.080
947.5653, 2394.383
948.0474, 2380.663
948.5295, 2352.609
949.0117, 2335.090
949.4938, 2347.795
949.9759, 2357.991
950.4580, 2360.558
950.9401, 2356.715
951.4222, 2347.266
951.9044, 2332.104
952.3865, 2316.294
952.8686, 2300.728
953.3507, 2284.240
953.8328, 2266.590
954.3149, 2246.800
954.7971, 2224.819
955.2792, 2203.643
955.7613, 2169.320
956.2434, 2109.254
956.7255, 2048.669
957.2076, 2003.719
957.6898, 1973.735
958.1719, 1939.105
958.6540, 1899.677
959.1361, 1863.766
959.6182, 1838.501
960.1003, 1817.800
960.5825, 1795.401
961.0646, 1771.922
961.5467, 1752.123
962.0288, 1733.969
962.5109, 1724.870
962.9930, 1730.242
963.4752, 1742.866
963.9573, 1744.133
964.4394, 1735.672
964.9215, 1726.765
965.4036, 1717.458
965.8857, 1714.851
966.3679, 1725.572
966.8500, 1745.927
967.3321, 1771.540
967.8142, 1801.904
968.2963, 1836.087
968.7784, 1871.600
969.2606, 1915.430
969.7427, 1974.520
970.2248, 2047.443
970.7069, 2127.494
971.1890, 2213.889
971.6711, 2315.580
972.1533, 2440.099
972.6354, 2579.423
973.1175, 2726.714
973.5996, 2882.072
974.0817, 3053.245
974.5638, 3240.070
975.0460, 3442.427
975.5281, 3662.019
976.0102, 3898.365
976.4923, 4147.532
976.9744, 4413.655
977.4565, 4708.868
977.9387, 5046.596
978.4208, 5404.805
978.9029, 5781.686
979.3850, 6171.085
979.8671, 6569.881
980.3492, 6976.536
980.8314, 7396.771
981.3135, 7838.615
981.7956, 8266.173
982.2777, 8690.373
982.7598, 9058.964
983.2419, 9305.607
983.7241, 9423.076
984.2062, 9394.936
984.6883, 9188.718
985.1704, 8851.045
985.6525, 8372.511
986.1346, 7766.326
986.6168, 7156.904
987.0989, 6545.344
987.5810, 5965.947
988.0631, 5437.485
988.5452, 4949.101
989.0273, 4492.409
989.5095, 4071.065
989.9916, 3700.960
990.4737, 3391.102
990.9558, 3124.990
991.4379, 2911.780
991.9200, 2730.209
992.4022, 2545.708
992.8843, 2365.416
993.3664, 2214.899
993.8485, 2102.449
994.3306, 2006.684
994.8127, 1915.519
995.2949, 1832.879
995.7770, 1764.038
996.2591, 1709.760
996.7412, 1663.537
997.2233, 1627.615
997.7054, 1593.027
998.1876, 1552.975
998.6697, 1511.200
999.1518, 1472.089
999.6339, 1437.318
1000.116, 1412.860
1000.598, 1409.107
1001.080, 1407.063
1001.562, 1402.783
1002.044, 1394.817
1002.527, 1379.635
1003.009, 1357.049
1003.491, 1330.372
1003.973, 1299.260
1004.455, 1270.200
1004.937, 1255.241
1005.419, 1244.740
1005.901, 1226.650
1006.384, 1197.642
1006.866, 1165.823
1007.348, 1127.906
1007.830, 1094.412
1008.312, 1073.123
1008.794, 1061.693
1009.276, 1045.717
1009.758, 1025.698
1010.240, 1005.373
1010.723, 986.8383
1011.205, 968.7670
1011.687, 949.8654
1012.169, 930.8647
1012.651, 912.9639
1013.133, 893.6407
1013.615, 883.6165
1014.097, 886.8920
1014.580, 893.4968
1015.062, 890.1126
1015.544, 879.9278
1016.026, 867.3941
1016.508, 852.1499
1016.990, 842.2216
1017.472, 846.0965
1017.954, 851.4445
1018.436, 851.1327
1018.919, 845.4477
1019.401, 841.1115
1019.883, 838.1331
1020.365, 832.9501
1020.847, 821.0063
1021.329, 807.9573
1021.811, 797.6451
1022.293, 790.8098
1022.776, 789.3261
1023.258, 800.9449
1023.740, 804.9620
1024.222, 796.7114
1024.704, 784.6364
1025.186, 780.8686
1025.668, 783.0961
1026.150, 783.2543
1026.632, 780.0106
1027.115, 777.5109
1027.597, 778.1385
1028.079, 780.5122
1028.561, 784.1986
1029.043, 789.0450
1029.525, 792.3174
1030.007, 793.5255
1030.489, 797.0269
1030.972, 807.4640
1031.454, 818.2974
1031.936, 820.2101
1032.418, 815.6097
1032.900, 809.6761
1033.382, 806.3700
1033.864, 797.5117
1034.346, 778.0212
1034.828, 758.6925
1035.311, 754.2331
1035.793, 761.9547
1036.275, 763.0524
1036.757, 755.9767
1037.239, 750.9844
1037.721, 759.5048
1038.203, 769.1328
1038.685, 769.6000
1039.167, 761.8985
1039.650, 760.2126
1040.132, 766.7961
1040.614, 768.9522
1041.096, 760.0134
1041.578, 748.5385
1042.060, 747.1591
1042.542, 753.6200
1043.024, 764.3852
1043.507, 782.9701
1043.989, 796.3442
1044.471, 799.6848
1044.953, 800.3319
1045.435, 803.2693
1045.917, 808.4714
1046.399, 816.9410
1046.881, 828.4716
1047.364, 839.1682
1047.846, 844.8337
1048.328, 850.2083
1048.810, 859.5024
1049.292, 871.4454
1049.774, 879.9861
1050.256, 883.8978
1050.738, 888.3635
1051.220, 894.0292
1051.703, 901.6627
1052.185, 912.7596
1052.667, 926.2530
1053.149, 940.4130
1053.631, 954.9722
1054.113, 969.8589
1054.595, 985.8317
1055.077, 1001.093
1055.559, 1012.799
1056.042, 1022.595
1056.524, 1044.435
1057.006, 1077.055
1057.488, 1110.098
1057.970, 1135.430
1058.452, 1161.996
1058.934, 1195.278
1059.416, 1234.250
1059.899, 1275.115
1060.381, 1315.090
1060.863, 1366.229
1061.345, 1429.617
1061.827, 1504.689
1062.309, 1595.387
1062.791, 1696.472
1063.273, 1790.599
1063.755, 1878.417
1064.238, 2002.694
1064.720, 2192.785
1065.202, 2401.409
1065.684, 2610.932
1066.166, 2830.871
1066.648, 3084.808
1067.130, 3368.915
1067.612, 3685.635
1068.094, 4036.780
1068.577, 4418.761
1069.059, 4830.132
1069.541, 5276.038
1070.023, 5762.210
1070.505, 6290.151
1070.987, 6863.667
1071.469, 7489.537
1071.951, 8160.311
1072.434, 8899.769
1072.916, 9668.070
1073.398, 10469.11
1073.880, 11273.80
1074.362, 11981.17
1074.844, 12689.60
1075.326, 13125.23
1075.808, 13262.23
1076.291, 13104.77
1076.773, 12588.10
1077.255, 11789.13
1077.737, 10904.54
1078.219, 9967.144
1078.701, 9056.118
1079.183, 8190.945
1079.665, 7406.037
1080.147, 6709.853
1080.630, 6096.889
1081.112, 5516.021
1081.594, 4967.593
1082.076, 4461.829
1082.558, 4002.341
1083.040, 3587.433
1083.522, 3213.260
1084.004, 2883.795
1084.486, 2609.695
1084.969, 2396.437
1085.451, 2211.947
1085.933, 2060.223
1086.415, 1928.103
1086.897, 1807.042
1087.379, 1698.743
1087.861, 1608.562
1088.343, 1534.435
1088.826, 1467.248
1089.308, 1404.411
1089.790, 1349.701
1090.272, 1306.397
1090.754, 1268.026
1091.236, 1222.399
1091.718, 1172.352
1092.200, 1131.524
1092.682, 1102.642
1093.165, 1077.550
1093.647, 1050.677
1094.129, 1026.657
1094.611, 1008.355
1095.093, 995.2226
1095.575, 985.0216
1096.057, 977.8992
1096.539, 970.1370
1097.022, 961.0802
1097.504, 949.7800
1097.986, 932.6995
1098.468, 913.8649
1098.950, 899.3380
1099.432, 892.2195
1099.914, 882.6635
1100.396, 869.6731
1100.879, 858.0189
1101.361, 852.1598
1101.843, 849.6296
1102.325, 846.9719
1102.807, 843.4561
1103.289, 836.7011
1103.771, 820.7752
1104.253, 808.3290
1104.735, 801.7906
1105.218, 798.8127
1105.700, 797.6776
1106.182, 797.5084
1106.664, 793.1376
1107.146, 783.8682
1107.628, 776.1588
1108.110, 778.1276
1108.592, 778.4135
1109.074, 768.1664
1109.557, 751.0888
1110.039, 743.9015
1110.521, 746.7208
1111.003, 744.4241
1111.485, 729.5391
1111.967, 717.6252
1112.449, 729.2723
1112.931, 748.7219
1113.414, 759.0359
1113.896, 757.3702
1114.378, 750.7944
1114.860, 738.0570
1115.342, 725.8433
1115.824, 717.6729
1116.306, 712.5079
1116.788, 707.7670
1117.271, 704.8444
1117.753, 706.8342
1118.235, 721.8382
1118.717, 730.9523
1119.199, 731.4311
1119.681, 728.9893
1120.163, 728.4303
1120.645, 729.6234
1121.127, 731.7841
1121.609, 735.0820
1122.092, 741.1594
1122.574, 758.2493
1123.056, 768.6611
1123.538, 763.2617
1124.020, 750.8887
1124.502, 749.8068
1124.984, 758.6456
1125.466, 765.9927
1125.949, 769.6838
1126.431, 771.9048
1126.913, 773.1969
1127.395, 774.3574
1127.877, 775.3135
1128.359, 776.3924
1128.841, 780.4173
1129.323, 787.4179
1129.806, 798.2579
1130.288, 815.9965
1130.770, 831.7292
1131.252, 836.7714
1131.734, 834.1108
1132.216, 826.1730
1132.698, 809.8706
1133.180, 801.3636
1133.662, 801.2863
1134.145, 806.6471
1134.627, 818.7646
1135.109, 833.0617
1135.591, 843.3685
1136.073, 849.8641
1136.555, 852.7280
1137.037, 846.5901
1137.519, 845.1833
1138.001, 850.0815
1138.484, 858.1735
1138.966, 868.2681
1139.448, 878.4902
1139.930, 881.5245
1140.412, 878.3870
1140.894, 880.6702
1141.376, 896.8312
1141.858, 914.9734
1142.341, 933.5695
1142.823, 950.6560
1143.305, 963.3333
1143.787, 971.6146
1144.269, 973.4299
1144.751, 967.3050
1145.233, 967.5989
1145.715, 989.3574
1146.198, 1013.072
1146.680, 1027.200
1147.162, 1034.387
1147.644, 1046.044
1148.126, 1062.141
1148.608, 1082.213
1149.090, 1109.224
1149.572, 1132.648
1150.054, 1134.646
1150.536, 1136.423
1151.019, 1162.046
1151.501, 1214.472
1151.983, 1248.213
1152.465, 1262.715
1152.947, 1276.003
1153.429, 1294.947
1153.911, 1320.227
1154.393, 1355.427
1154.876, 1396.276
1155.358, 1435.747
1155.840, 1473.537
1156.322, 1507.580
1156.804, 1537.007
1157.286, 1567.234
1157.768, 1596.950
1158.250, 1633.952
1158.733, 1692.486
1159.215, 1767.324
1159.697, 1839.998
1160.179, 1907.122
1160.661, 1972.942
1161.143, 2037.697
1161.625, 2102.422
1162.107, 2168.881
1162.589, 2237.155
1163.072, 2306.037
1163.554, 2375.859
1164.036, 2448.801
1164.518, 2524.655
1165.000, 2604.373
1165.482, 2690.385
1165.964, 2777.099
1166.446, 2854.308
1166.928, 2923.143
1167.411, 2986.739
1167.893, 3045.708
1168.375, 3100.329
1168.857, 3162.001
1169.339, 3205.195
1169.821, 3218.282
1170.303, 3206.534
1170.785, 3181.377
1171.268, 3144.480
1171.750, 3100.203
1172.232, 3049.668
1172.714, 2993.576
1173.196, 2937.485
1173.678, 2870.307
1174.160, 2787.573
1174.642, 2688.402
1175.125, 2564.316
1175.607, 2420.411
1176.089, 2290.852
1176.571, 2194.430
1177.053, 2109.990
1177.535, 2038.766
1178.017, 1967.237
1178.499, 1878.839
1178.981, 1773.332
1179.464, 1690.253
1179.946, 1628.788
1180.428, 1577.370
1180.910, 1534.373
1181.392, 1493.212
1181.874, 1445.731
1182.356, 1399.454
1182.838, 1367.667
1183.320, 1350.747
1183.803, 1328.079
1184.285, 1297.700
1184.767, 1270.906
1185.249, 1260.026
1185.731, 1251.610
1186.213, 1234.080
1186.695, 1212.197
1187.177, 1199.883
1187.660, 1197.539
1188.142, 1199.008
1188.624, 1203.482
1189.106, 1210.097
1189.588, 1215.942
1190.070, 1225.338
1190.552, 1244.864
1191.034, 1272.459
1191.516, 1291.925
1191.999, 1301.913
1192.481, 1319.077
1192.963, 1349.504
1193.445, 1382.080
1193.927, 1402.415
1194.409, 1421.513
1194.891, 1453.291
1195.373, 1499.017
1195.855, 1533.203
1196.338, 1554.783
1196.820, 1575.610
1197.302, 1600.589
1197.784, 1625.532
1198.266, 1646.993
1198.748, 1664.984
1199.230, 1678.448
1199.712, 1685.851
1200.195, 1699.142
1200.677, 1719.981
1201.159, 1735.294
1201.641, 1739.710
1202.123, 1732.951
1202.605, 1707.454
1203.087, 1673.126
1203.569, 1646.552
1204.052, 1636.103
1204.534, 1611.084
1205.016, 1568.743
1205.498, 1527.181
1205.980, 1504.190
1206.462, 1483.856
1206.944, 1443.883
1207.426, 1392.693
1207.908, 1351.750
1208.391, 1328.737
1208.873, 1296.686
1209.355, 1252.445
1209.837, 1208.497
1210.319, 1175.789
1210.801, 1149.190
1211.283, 1125.065
1211.765, 1102.534
1212.247, 1080.138
1212.730, 1058.402
1213.212, 1034.470
1213.694, 1007.507
1214.176, 981.3007
1214.658, 960.3021
1215.140, 940.7805
1215.622, 915.7563
1216.104, 887.2061
1216.587, 870.0315
1217.069, 870.2551
1217.551, 861.9902
1218.033, 839.4130
1218.515, 814.5375
1218.997, 799.3263
1219.479, 790.1631
1219.961, 784.2868
1220.443, 781.1622
1220.926, 776.9785
1221.408, 771.7126
1221.890, 765.5042
1222.372, 758.8141
1222.854, 749.6938
1223.336, 730.5929
1223.818, 711.0696
1224.300, 703.6742
1224.782, 710.4437
1225.265, 713.7910
1225.747, 713.6407
1226.229, 709.6849
1226.711, 701.1713
1227.193, 690.6309
1227.675, 678.9353
1228.157, 668.2261
1228.639, 662.4512
1229.122, 662.6746
1229.604, 655.8711
1230.086, 639.9705
1230.568, 631.5893
1231.050, 641.1910
1231.532, 652.4523
1232.014, 644.1245
1232.496, 627.8380
1232.979, 617.8616
1233.461, 615.8958
1233.943, 615.4449
1234.425, 616.9102
1234.907, 615.6478
1235.389, 607.4019
1235.871, 598.8373
1236.353, 596.3939
1236.835, 597.5565
1237.318, 599.5950
1237.800, 602.6813
1238.282, 603.4819
1238.764, 601.9639
1239.246, 598.6910
1239.728, 593.4279
1240.210, 587.3085
1240.692, 580.4000
1241.175, 573.7795
1241.657, 569.1442
1242.139, 566.8840
1242.621, 562.9078
1243.103, 557.1423
1243.585, 554.4762
1244.067, 565.6776
1244.549, 572.5380
1245.031, 555.2963
1245.514, 530.2615
1245.996, 520.4798
1246.478, 527.1784
1246.960, 535.1331
1247.442, 543.8273
1247.924, 548.1702
1248.406, 540.0483
1248.888, 531.9225
1249.370, 534.3491
1249.853, 538.5598
1250.335, 530.3303
1250.817, 510.4879
1251.299, 504.4559
1251.781, 512.4933
1252.263, 521.1374
1252.745, 521.7635
1253.227, 521.5026
1253.710, 522.6489
1254.192, 525.3442
1254.674, 531.3008
1255.156, 539.5281
1255.638, 543.2026
1256.120, 541.9346
1256.602, 536.5270
1257.084, 519.1706
1257.567, 508.8670
1258.049, 514.7864
1258.531, 526.0480
1259.013, 526.9336
1259.495, 520.3560
1259.977, 516.5048
1260.459, 516.0979
1260.941, 517.2577
1261.423, 521.6371
1261.906, 524.0438
1262.388, 523.2777
1262.870, 520.2499
1263.352, 513.6129
1263.834, 506.5421
1264.316, 509.3218
1264.798, 521.5616
1265.280, 527.0915
1265.762, 514.5599
1266.245, 505.5932
1266.727, 504.6425
1267.209, 507.0389
1267.691, 505.9369
1268.173, 504.0414
1268.655, 508.1075
1269.137, 517.9150
1269.619, 518.3503
1270.102, 501.8964
1270.584, 493.9494
1271.066, 501.7215
1271.548, 513.0583
1272.030, 511.0148
1272.512, 504.7963
1272.994, 506.9334
1273.476, 517.3983
1273.958, 519.6445
1274.441, 510.8838
1274.923, 506.6376
1275.405, 511.6909
1275.887, 515.7675
1276.369, 504.8319
1276.851, 490.3430
1277.333, 483.8966
1277.815, 484.5710
1278.297, 481.6136
1278.780, 474.6038
1279.262, 474.6786
1279.744, 485.6351
1280.226, 496.1791
1280.708, 497.5608
1281.190, 494.6004
1281.672, 488.4996
1282.154, 481.5016
1282.637, 483.0535
1283.119, 492.0468
1283.601, 498.4524
1284.083, 500.5012
1284.565, 497.5747
1285.047, 483.6703
1285.529, 470.7642
1286.011, 463.3871
1286.494, 461.9749
1286.976, 471.8931
1287.458, 488.9435
1287.940, 498.7476
1288.422, 497.9383
1288.904, 493.3971
1289.386, 481.3853
1289.868, 475.2754
1290.350, 482.0771
1290.833, 493.6261
1291.315, 491.7059
1291.797, 482.8785
1292.279, 481.4751
1292.761, 491.6086
1293.243, 494.5202
1293.725, 485.5380
1294.207, 476.5949
1294.689, 471.1101
1295.172, 468.4997
1295.654, 468.8825
1296.136, 471.0762
1296.618, 473.3039
1297.100, 475.3205
1297.582, 480.6122
1298.064, 490.3978
1298.546, 495.2524
1299.029, 490.7161
1299.511, 485.1866
1299.993, 487.5140
1300.475, 493.1480
1300.957, 499.3934
1301.439, 505.2428
1301.921, 503.8307
1302.403, 495.4288
1302.885, 487.7952
1303.368, 482.1863
1303.850, 481.4624
1304.332, 495.2589
1304.814, 506.4368
1305.296, 502.2274
1305.778, 488.7146
1306.260, 488.1716
##END=



