##NAMES=Datolite
##RRUFFID=R050136
##IDEAL CHEMISTRY=CaB(SiO_4_)(OH)
##LOCALITY=Charcas, San Luis Potosi, Mexico
##OWNER=RRUFF
##SOURCE=Dave Bunk Minerals
##DESCRIPTION=Pale green tabular crystals
##STATUS=The identification of this mineral has been confirmed by X-ray diffraction and chemical analysis
##URL=rruff.info/R050136
##MEASURED CHEMISTRY=Ca_1.00_BSi_1.00_O_4_(OH) ; trace amounts of Fe; B and OH estimated by stoichiometry end charge balance
93.08527, 0.0000000E+00
93.56738, 151.9524
94.04950, 157.2310
94.53162, 160.9731
95.01373, 160.7891
95.49585, 157.7682
95.97797, 153.8483
96.46008, 150.7442
96.94220, 149.0771
97.42432, 146.8946
97.90643, 143.4337
98.38855, 139.8788
98.87067, 137.0557
99.35278, 135.1766
99.83490, 133.7302
100.3170, 131.6064
100.7991, 128.2816
101.2813, 124.5808
101.7634, 119.8830
102.2455, 115.0332
102.7276, 110.9963
103.2097, 108.2921
103.6918, 106.7384
104.1740, 105.4059
104.6561, 104.0717
105.1382, 103.0757
105.6203, 102.8279
106.1024, 103.1505
106.5845, 103.2054
107.0667, 102.2062
107.5488, 100.3998
108.0309, 99.06664
108.5130, 98.18721
108.9951, 97.85258
109.4772, 98.19480
109.9594, 99.25820
110.4415, 100.8930
110.9236, 103.2431
111.4057, 106.0454
111.8878, 108.8275
112.3699, 111.5748
112.8521, 114.2204
113.3342, 116.1006
113.8163, 116.8839
114.2984, 117.1362
114.7805, 116.7060
115.2626, 115.8611
115.7448, 115.3148
116.2269, 115.9841
116.7090, 118.4692
117.1911, 120.0299
117.6732, 120.3511
118.1553, 120.1417
118.6375, 119.3889
119.1196, 118.2599
119.6017, 117.3378
120.0838, 117.6036
120.5659, 120.0759
121.0480, 122.3095
121.5302, 124.2658
122.0123, 125.9967
122.4944, 127.4987
122.9765, 128.7464
123.4586, 129.8732
123.9407, 131.2189
124.4228, 132.7491
124.9050, 134.4609
125.3871, 136.3270
125.8692, 138.3577
126.3513, 140.6270
126.8334, 143.1224
127.3155, 145.9543
127.7977, 149.1370
128.2798, 152.5352
128.7619, 156.4947
129.2440, 160.7090
129.7261, 164.7790
130.2083, 171.5924
130.6904, 182.6304
131.1725, 197.0522
131.6546, 215.6537
132.1367, 240.2918
132.6188, 267.2855
133.1010, 288.9749
133.5831, 309.6737
134.0652, 315.8456
134.5473, 300.4138
135.0294, 271.3272
135.5115, 238.1881
135.9937, 206.2596
136.4758, 175.7771
136.9579, 151.9513
137.4400, 137.8617
137.9221, 127.7223
138.4042, 121.1389
138.8864, 117.5602
139.3685, 116.1405
139.8506, 116.0985
140.3327, 117.3098
140.8148, 121.8728
141.2969, 129.4597
141.7791, 139.8326
142.2612, 153.0802
142.7433, 169.1220
143.2254, 187.6236
143.7075, 209.3772
144.1896, 235.4026
144.6718, 256.3356
145.1539, 271.7534
145.6360, 281.8624
146.1181, 285.4622
146.6002, 281.4811
147.0823, 274.5412
147.5645, 269.0828
148.0466, 264.8972
148.5287, 262.9010
149.0108, 263.4858
149.4929, 266.5602
149.9750, 271.9594
150.4572, 280.1195
150.9393, 290.2849
151.4214, 301.7276
151.9035, 314.3861
152.3856, 327.5282
152.8677, 341.2894
153.3499, 355.7732
153.8320, 368.4065
154.3141, 377.3774
154.7962, 385.1972
155.2783, 392.2896
155.7604, 398.9901
156.2425, 406.3039
156.7247, 415.5537
157.2068, 427.2202
157.6889, 440.0965
158.1710, 453.1374
158.6531, 467.6726
159.1352, 483.8247
159.6174, 501.8452
160.0995, 523.1534
160.5816, 550.0377
161.0637, 576.6161
161.5458, 619.0792
162.0279, 670.6864
162.5101, 739.8986
162.9922, 843.2981
163.4743, 989.2076
163.9564, 1157.570
164.4385, 1291.893
164.9206, 1434.993
165.4028, 1495.354
165.8849, 1424.177
166.3670, 1261.227
166.8491, 1068.448
167.3312, 865.8836
167.8133, 667.9273
168.2955, 516.2164
168.7776, 417.4152
169.2597, 345.5975
169.7418, 295.0504
170.2239, 263.8992
170.7060, 243.0042
171.1882, 230.7310
171.6703, 225.2587
172.1524, 221.3637
172.6345, 218.7288
173.1166, 217.7769
173.5987, 218.6033
174.0809, 221.1132
174.5630, 226.3469
175.0451, 235.2901
175.5272, 247.1933
176.0093, 262.9337
176.4914, 284.7885
176.9736, 306.9559
177.4557, 320.7555
177.9378, 326.1743
178.4199, 322.2025
178.9020, 305.1962
179.3841, 281.3058
179.8663, 255.4369
180.3484, 229.2492
180.8305, 203.9664
181.3126, 183.7792
181.7947, 170.3804
182.2768, 160.3617
182.7590, 153.4101
183.2411, 148.8282
183.7232, 145.9211
184.2053, 144.3488
184.6874, 144.0146
185.1695, 144.3730
185.6517, 145.4471
186.1338, 147.2980
186.6159, 149.8216
187.0980, 153.1574
187.5801, 157.3555
188.0622, 162.3742
188.5444, 168.3000
189.0265, 176.9093
189.5086, 186.9267
189.9907, 200.3745
190.4728, 221.0054
190.9549, 246.1216
191.4371, 269.7988
191.9192, 289.2480
192.4013, 303.3300
192.8834, 304.6497
193.3655, 288.3603
193.8476, 265.9915
194.3298, 239.7865
194.8119, 211.1370
195.2940, 186.1509
195.7761, 168.6905
196.2582, 159.3947
196.7403, 154.2479
197.2225, 155.0071
197.7046, 158.6558
198.1867, 163.8331
198.6688, 170.5524
199.1509, 176.5947
199.6330, 180.8683
200.1152, 183.2142
200.5973, 183.2496
201.0794, 179.7686
201.5615, 174.6518
202.0436, 169.8356
202.5257, 165.1889
203.0079, 161.5336
203.4900, 159.4492
203.9721, 158.6297
204.4542, 158.9772
204.9363, 160.6633
205.4184, 163.3406
205.9006, 166.3359
206.3827, 169.4705
206.8648, 173.3723
207.3469, 178.2060
207.8290, 183.8705
208.3111, 190.3594
208.7933, 197.7573
209.2754, 205.8743
209.7575, 214.4516
210.2396, 224.6552
210.7217, 233.2478
211.2038, 239.4247
211.6860, 243.7067
212.1681, 246.4164
212.6502, 247.4025
213.1323, 247.3922
213.6144, 249.4512
214.0965, 251.7445
214.5787, 259.1108
215.0608, 271.6111
215.5429, 289.6091
216.0250, 314.5772
216.5071, 348.0787
216.9892, 387.9245
217.4714, 422.2552
217.9535, 463.0385
218.4356, 484.0485
218.9177, 476.2935
219.3998, 446.7246
219.8819, 403.1996
220.3641, 349.0452
220.8462, 287.0675
221.3283, 236.8894
221.8104, 201.5396
222.2925, 173.6705
222.7746, 154.0733
223.2568, 140.8031
223.7389, 131.2653
224.2210, 124.1666
224.7031, 119.3136
225.1852, 115.9254
225.6673, 114.1117
226.1495, 113.2475
226.6316, 113.1854
227.1137, 113.9566
227.5958, 115.8016
228.0779, 119.0234
228.5600, 123.2136
229.0422, 126.6775
229.5243, 129.8209
230.0064, 131.9643
230.4885, 133.3049
230.9706, 133.5282
231.4527, 131.5525
231.9349, 126.4190
232.4170, 119.0601
232.8991, 111.9445
233.3812, 104.7417
233.8633, 98.30733
234.3454, 93.23129
234.8276, 89.36504
235.3097, 86.09592
235.7918, 83.20092
236.2739, 80.83751
236.7560, 79.17780
237.2381, 78.42422
237.7203, 77.75642
238.2024, 76.56553
238.6845, 74.94179
239.1666, 73.48843
239.6487, 72.28425
240.1308, 71.49735
240.6130, 71.36326
241.0951, 71.98011
241.5772, 72.59886
242.0593, 72.60078
242.5414, 72.02785
243.0235, 71.51774
243.5057, 71.23546
243.9878, 71.07238
244.4699, 70.88311
244.9520, 70.66224
245.4341, 70.59859
245.9162, 70.85296
246.3984, 71.42449
246.8805, 72.20191
247.3626, 73.51834
247.8447, 74.71572
248.3268, 75.28592
248.8089, 75.27055
249.2911, 75.16756
249.7732, 75.42268
250.2553, 76.04964
250.7374, 76.65780
251.2195, 77.36768
251.7016, 77.90282
252.1838, 78.12679
252.6659, 78.05383
253.1480, 77.77695
253.6301, 77.16979
254.1122, 76.15891
254.5943, 75.92876
255.0765, 77.66470
255.5586, 79.13320
256.0407, 79.32870
256.5228, 78.52009
257.0049, 77.58015
257.4870, 77.16674
257.9691, 77.28342
258.4513, 77.74344
258.9334, 79.08299
259.4155, 80.28843
259.8976, 80.98674
260.3797, 81.32483
260.8618, 81.63148
261.3440, 82.12214
261.8261, 82.80054
262.3082, 83.71813
262.7903, 85.25423
263.2724, 86.65654
263.7545, 87.52410
264.2367, 88.16017
264.7188, 89.08358
265.2009, 90.62959
265.6830, 92.75750
266.1651, 95.08079
266.6472, 97.65422
267.1294, 100.3994
267.6115, 103.0157
268.0936, 105.8569
268.5757, 109.5585
269.0578, 114.5040
269.5399, 120.3657
270.0221, 125.6733
270.5042, 130.4808
270.9863, 134.5788
271.4684, 137.8248
271.9505, 140.3802
272.4326, 142.5832
272.9148, 144.6106
273.3969, 146.0932
273.8790, 146.0072
274.3611, 143.4191
274.8432, 140.2063
275.3253, 135.9734
275.8075, 131.3166
276.2896, 126.7090
276.7717, 122.3264
277.2538, 118.3244
277.7359, 114.9473
278.2180, 112.0709
278.7002, 110.1986
279.1823, 109.8109
279.6644, 110.1917
280.1465, 110.6937
280.6286, 111.1453
281.1107, 111.7645
281.5929, 112.8928
282.0750, 114.8886
282.5571, 116.5340
283.0392, 117.2427
283.5213, 117.9797
284.0034, 119.5301
284.4856, 122.0136
284.9677, 125.0784
285.4498, 128.3537
285.9319, 131.8372
286.4140, 135.7790
286.8961, 139.7352
287.3783, 144.4594
287.8604, 150.2197
288.3425, 157.1212
288.8246, 165.6212
289.3067, 176.2828
289.7888, 189.2381
290.2710, 201.6587
290.7531, 215.2627
291.2352, 226.9368
291.7173, 236.2543
292.1994, 242.5000
292.6815, 243.2011
293.1637, 236.2387
293.6458, 222.2412
294.1279, 206.7434
294.6100, 187.9072
295.0921, 169.7367
295.5742, 153.3486
296.0564, 138.8774
296.5385, 126.7704
297.0206, 117.3886
297.5027, 110.2775
297.9848, 104.0146
298.4669, 98.29836
298.9491, 93.65489
299.4312, 90.48830
299.9133, 88.44986
300.3954, 86.93718
300.8775, 85.77966
301.3596, 84.90104
301.8418, 84.22447
302.3239, 83.77278
302.8060, 83.34376
303.2881, 82.86427
303.7702, 82.38767
304.2523, 81.99446
304.7345, 81.70600
305.2166, 81.48330
305.6987, 81.26324
306.1808, 81.03166
306.6629, 80.96436
307.1451, 81.23586
307.6272, 81.60236
308.1093, 81.72598
308.5914, 81.56714
309.0735, 81.50227
309.5556, 81.77095
310.0378, 82.43498
310.5199, 83.71445
311.0020, 86.32726
311.4841, 89.03136
311.9662, 90.77417
312.4483, 91.61291
312.9305, 92.41411
313.4126, 93.77042
313.8947, 95.54809
314.3768, 97.09007
314.8589, 98.36910
315.3410, 99.44656
315.8232, 100.0227
316.3053, 100.3396
316.7874, 101.3065
317.2695, 103.4800
317.7516, 106.3932
318.2337, 108.8685
318.7159, 110.6124
319.1980, 112.6511
319.6801, 115.2746
320.1622, 118.4648
320.6443, 122.4565
321.1264, 127.5468
321.6086, 132.7065
322.0907, 136.1988
322.5728, 138.0814
323.0549, 139.0759
323.5370, 138.9924
324.0191, 138.2421
324.5013, 137.1194
324.9834, 135.6376
325.4655, 134.3916
325.9476, 133.7669
326.4297, 133.8276
326.9118, 135.3936
327.3940, 139.2887
327.8761, 144.1987
328.3582, 149.3713
328.8403, 154.6665
329.3224, 159.6633
329.8045, 164.3208
330.2867, 168.3343
330.7688, 170.6398
331.2509, 171.3600
331.7330, 170.3790
332.2151, 167.1127
332.6972, 161.9884
333.1794, 156.1841
333.6615, 150.0403
334.1436, 143.8762
334.6257, 138.5570
335.1078, 134.2910
335.5899, 130.2455
336.0721, 125.6306
336.5542, 121.1710
337.0363, 118.0437
337.5184, 116.5727
338.0005, 116.5535
338.4826, 117.8917
338.9648, 120.7959
339.4469, 124.0526
339.9290, 127.5419
340.4111, 131.3178
340.8932, 135.3587
341.3753, 139.6770
341.8575, 144.5754
342.3396, 150.3902
342.8217, 157.2701
343.3038, 164.1732
343.7859, 171.5623
344.2680, 178.5698
344.7502, 184.1757
345.2323, 188.7927
345.7144, 194.2043
346.1965, 201.8555
346.6786, 211.0550
347.1607, 217.6059
347.6429, 220.5504
348.1250, 222.6373
348.6071, 223.8197
349.0892, 224.7834
349.5713, 226.5811
350.0534, 229.6342
350.5356, 233.7446
351.0177, 238.6150
351.4998, 244.1354
351.9819, 250.6757
352.4640, 258.4806
352.9461, 267.2025
353.4283, 276.5826
353.9104, 286.5832
354.3925, 297.2231
354.8746, 308.4540
355.3567, 320.1337
355.8388, 333.5528
356.3210, 348.9496
356.8031, 365.6654
357.2852, 383.0718
357.7673, 401.4344
358.2494, 421.9890
358.7315, 445.7903
359.2137, 472.4394
359.6958, 496.4213
360.1779, 519.5659
360.6600, 538.1492
361.1421, 552.6177
361.6242, 561.7717
362.1064, 563.8380
362.5885, 558.0586
363.0706, 545.4697
363.5527, 528.2922
364.0348, 504.4097
364.5169, 478.4662
364.9991, 448.3418
365.4812, 417.9117
365.9633, 389.0774
366.4454, 362.6803
366.9275, 339.4659
367.4096, 320.1960
367.8918, 305.1319
368.3739, 293.1534
368.8560, 284.2798
369.3381, 278.1639
369.8202, 275.2545
370.3023, 275.0340
370.7845, 276.4731
371.2666, 278.8860
371.7487, 282.3766
372.2308, 287.5628
372.7129, 294.9743
373.1950, 303.6175
373.6772, 313.5667
374.1593, 324.4419
374.6414, 336.0062
375.1235, 348.1787
375.6056, 360.4925
376.0877, 371.9865
376.5699, 382.3203
377.0520, 392.9415
377.5341, 405.4683
378.0162, 417.1002
378.4983, 427.0638
378.9804, 434.8135
379.4626, 439.2269
379.9447, 438.1815
380.4268, 431.8687
380.9089, 427.6071
381.3910, 425.7272
381.8731, 425.7911
382.3553, 427.3609
382.8374, 430.5808
383.3195, 435.6697
383.8016, 442.6665
384.2837, 451.7072
384.7658, 463.1402
385.2480, 476.8765
385.7301, 493.1125
386.2122, 511.2135
386.6943, 532.2477
387.1764, 557.4992
387.6585, 587.2685
388.1407, 620.0402
388.6228, 655.2752
389.1049, 692.8727
389.5870, 730.0108
390.0691, 768.9008
390.5512, 803.2455
391.0334, 832.8821
391.5155, 856.0142
391.9976, 865.6177
392.4797, 857.9631
392.9618, 834.8347
393.4439, 797.3572
393.9261, 743.7598
394.4082, 684.3544
394.8903, 620.4736
395.3724, 555.9426
395.8545, 496.5902
396.3366, 442.3732
396.8188, 394.1974
397.3009, 352.9392
397.7830, 318.2653
398.2651, 288.0793
398.7472, 262.3492
399.2293, 240.2369
399.7115, 221.1963
400.1936, 205.0377
400.6757, 191.0760
401.1578, 179.5886
401.6399, 170.0241
402.1220, 162.0981
402.6042, 155.7562
403.0863, 150.0780
403.5684, 144.1762
404.0505, 138.2708
404.5326, 133.9027
405.0147, 131.8017
405.4969, 130.4639
405.9790, 129.6148
406.4611, 128.9681
406.9432, 127.8469
407.4253, 125.8973
407.9074, 123.4740
408.3896, 121.3572
408.8717, 119.4095
409.3538, 118.0338
409.8359, 117.6504
410.3180, 117.6129
410.8001, 117.2647
411.2823, 116.5580
411.7644, 115.9607
412.2465, 115.9340
412.7286, 116.5062
413.2107, 117.3739
413.6928, 118.3970
414.1750, 119.8182
414.6571, 121.8678
415.1392, 124.3531
415.6213, 126.8246
416.1034, 129.0313
416.5855, 131.3505
417.0677, 134.8226
417.5498, 139.9875
418.0319, 145.4585
418.5140, 150.5816
418.9961, 156.3157
419.4782, 163.1967
419.9604, 171.3609
420.4425, 180.9182
420.9246, 192.2104
421.4067, 205.3416
421.8888, 218.4817
422.3709, 233.1003
422.8531, 245.8833
423.3352, 257.0944
423.8173, 265.6400
424.2994, 270.0414
424.7815, 269.6325
425.2636, 264.7295
425.7458, 255.0208
426.2279, 239.3243
426.7100, 223.7765
427.1921, 208.8631
427.6742, 195.5729
428.1563, 184.7354
428.6385, 176.3625
429.1206, 169.9725
429.6027, 165.4398
430.0848, 162.6369
430.5669, 161.1088
431.0490, 160.9373
431.5312, 161.7431
432.0133, 163.1982
432.4954, 165.4402
432.9775, 168.9954
433.4596, 174.2719
433.9417, 180.5913
434.4239, 187.3371
434.9060, 194.5787
435.3881, 202.6233
435.8702, 211.6829
436.3523, 221.4497
436.8344, 231.5876
437.3166, 242.2072
437.7987, 252.3823
438.2808, 263.9578
438.7629, 273.8868
439.2450, 278.7348
439.7271, 278.0950
440.2093, 273.0535
440.6914, 264.0938
441.1735, 251.2887
441.6556, 236.9719
442.1377, 219.5574
442.6198, 202.7005
443.1020, 187.0783
443.5841, 172.8673
444.0662, 160.4447
444.5483, 149.8304
445.0304, 140.7993
445.5125, 132.8051
445.9947, 125.7279
446.4768, 120.2502
446.9589, 116.7948
447.4410, 114.2761
447.9231, 112.2387
448.4052, 110.5686
448.8874, 109.2666
449.3695, 108.3484
449.8516, 107.7800
450.3337, 107.3540
450.8158, 106.8160
451.2979, 106.8704
451.7801, 107.6311
452.2622, 108.9686
452.7443, 110.8124
453.2264, 113.1358
453.7085, 115.8141
454.1906, 118.6789
454.6728, 121.7210
455.1549, 125.3214
455.6370, 130.0897
456.1191, 134.6706
456.6012, 139.1596
457.0833, 142.9063
457.5655, 144.4245
458.0476, 142.8165
458.5297, 138.9535
459.0118, 133.6192
459.4939, 126.7846
459.9760, 119.9445
460.4582, 113.5114
460.9403, 107.4741
461.4224, 101.5717
461.9045, 95.71669
462.3866, 90.73150
462.8687, 87.25684
463.3508, 84.72190
463.8329, 82.21038
464.3151, 79.60848
464.7972, 77.44553
465.2793, 76.18601
465.7614, 75.77271
466.2435, 75.50898
466.7256, 75.54512
467.2078, 75.55102
467.6899, 75.23878
468.1720, 74.86082
468.6541, 74.83245
469.1362, 75.29267
469.6183, 76.07201
470.1005, 76.91890
470.5826, 77.74179
471.0647, 78.96525
471.5468, 80.92799
472.0289, 82.91145
472.5110, 84.59425
472.9932, 86.00808
473.4753, 87.29464
473.9574, 88.53989
474.4395, 89.73662
474.9216, 90.89078
475.4037, 92.11448
475.8859, 93.05070
476.3680, 93.17394
476.8501, 93.38527
477.3322, 94.50187
477.8143, 96.47701
478.2964, 98.46127
478.7786, 99.69348
479.2607, 100.2903
479.7428, 100.7908
480.2249, 100.8135
480.7070, 101.5872
481.1891, 104.4230
481.6713, 108.0922
482.1534, 110.9843
482.6355, 112.5636
483.1176, 114.0338
483.5997, 116.3650
484.0818, 119.4230
484.5640, 122.6457
485.0461, 125.7966
485.5282, 129.3978
486.0103, 134.1475
486.4924, 139.9285
486.9745, 145.8824
487.4567, 151.9220
487.9388, 158.1638
488.4209, 164.5108
488.9030, 171.0675
489.3851, 177.6644
489.8672, 184.4959
490.3494, 190.3541
490.8315, 192.8637
491.3136, 191.3168
491.7957, 187.1341
492.2778, 179.5916
492.7599, 169.9810
493.2421, 158.1991
493.7242, 144.9854
494.2063, 132.2254
494.6884, 121.1513
495.1705, 111.6756
495.6526, 103.2159
496.1348, 95.62531
496.6169, 89.37835
497.0990, 84.76998
497.5811, 81.16797
498.0632, 78.18487
498.5453, 75.68517
499.0275, 73.51950
499.5096, 71.58587
499.9917, 69.86681
500.4738, 68.26213
500.9559, 66.78754
501.4380, 65.41376
501.9202, 63.92670
502.4023, 62.58957
502.8844, 61.87656
503.3665, 62.07644
503.8486, 62.37802
504.3307, 62.01362
504.8129, 61.18981
505.2950, 60.60955
505.7771, 60.41439
506.2592, 60.53930
506.7413, 61.15517
507.2234, 62.19556
507.7056, 62.55299
508.1877, 61.38776
508.6698, 60.24905
509.1519, 60.17420
509.6340, 60.81060
510.1161, 61.32085
510.5983, 61.36651
511.0804, 61.13276
511.5625, 60.92617
512.0446, 60.70691
512.5267, 60.63197
513.0089, 60.75835
513.4910, 60.95742
513.9731, 61.24094
514.4552, 61.53833
514.9373, 61.69056
515.4194, 61.58239
515.9016, 61.35815
516.3837, 61.39656
516.8658, 61.74123
517.3479, 62.23166
517.8300, 62.79971
518.3121, 63.54747
518.7943, 64.69267
519.2764, 66.14086
519.7585, 67.42597
520.2406, 68.07266
520.7227, 68.41916
521.2048, 69.32475
521.6870, 70.88438
522.1691, 72.21981
522.6512, 72.96371
523.1333, 73.21825
523.6154, 73.22871
524.0975, 72.98940
524.5797, 72.54102
525.0618, 71.99158
525.5439, 71.19292
526.0260, 69.90895
526.5081, 68.13083
526.9902, 66.08574
527.4724, 63.84830
527.9545, 61.50881
528.4366, 59.68888
528.9187, 58.62191
529.4008, 57.72014
529.8829, 56.98677
530.3651, 56.34464
530.8472, 55.70801
531.3293, 55.07166
531.8114, 54.50396
532.2935, 54.04385
532.7756, 53.69983
533.2578, 53.67126
533.7399, 54.14275
534.2220, 54.66301
534.7041, 55.10138
535.1862, 55.52433
535.6683, 56.02938
536.1505, 56.63253
536.6326, 57.19625
537.1147, 57.55682
537.5968, 57.75801
538.0789, 57.94328
538.5610, 58.04509
539.0432, 58.39500
539.5253, 59.55421
540.0074, 61.06602
540.4895, 61.82751
540.9716, 61.24434
541.4537, 60.78887
541.9359, 61.40769
542.4180, 62.61396
542.9001, 63.47557
543.3822, 63.80254
543.8643, 64.23734
544.3464, 65.46781
544.8286, 67.52561
545.3107, 69.27570
545.7928, 70.58488
546.2749, 71.79913
546.7570, 73.08028
547.2391, 74.28342
547.7213, 75.15926
548.2034, 75.67580
548.6855, 76.14202
549.1676, 76.86067
549.6497, 77.81945
550.1318, 79.30341
550.6140, 81.64172
551.0961, 84.06873
551.5782, 86.45524
552.0603, 88.68974
552.5424, 90.59420
553.0245, 92.11881
553.5067, 93.33524
553.9888, 94.39978
554.4709, 95.22389
554.9530, 95.36660
555.4351, 94.63481
555.9172, 93.73180
556.3994, 93.18649
556.8815, 92.95048
557.3636, 92.68095
557.8457, 91.91030
558.3278, 91.64926
558.8099, 92.56525
559.2921, 94.14127
559.7742, 95.79738
560.2563, 97.34284
560.7384, 98.57523
561.2205, 99.32945
561.7026, 99.62601
562.1848, 98.96845
562.6669, 96.87589
563.1490, 94.31680
563.6311, 91.01458
564.1132, 87.56277
564.5953, 84.65778
565.0775, 82.43430
565.5596, 80.39941
566.0417, 77.72066
566.5238, 74.56297
567.0059, 72.84895
567.4880, 73.18045
567.9702, 73.63831
568.4523, 72.89445
568.9344, 71.74950
569.4165, 71.30553
569.8986, 71.76692
570.3807, 72.68697
570.8629, 73.94404
571.3450, 75.44981
571.8271, 77.05160
572.3092, 78.73328
572.7913, 80.50355
573.2734, 82.37705
573.7556, 84.35914
574.2377, 86.54330
574.7198, 88.77161
575.2019, 91.38864
575.6840, 94.61720
576.1661, 98.14112
576.6483, 101.8412
577.1304, 105.5918
577.6125, 109.0938
578.0946, 112.0707
578.5767, 114.5987
579.0588, 116.9452
579.5410, 118.8089
580.0231, 121.1924
580.5052, 124.6820
580.9873, 128.6222
581.4694, 132.5061
581.9515, 136.2893
582.4337, 140.3143
582.9158, 144.5562
583.3979, 149.2486
583.8800, 154.8452
584.3621, 161.3430
584.8442, 167.9336
585.3264, 174.1454
585.8085, 180.3477
586.2906, 187.4536
586.7727, 195.6827
587.2548, 203.9936
587.7369, 211.9739
588.2191, 220.2703
588.7012, 229.4991
589.1833, 239.4498
589.6654, 249.7658
590.1475, 260.3130
590.6296, 270.4760
591.1118, 279.1840
591.5939, 286.7106
592.0760, 291.7135
592.5581, 293.7845
593.0402, 293.3942
593.5223, 290.6244
594.0045, 285.5464
594.4866, 278.1228
594.9687, 267.7000
595.4508, 256.1715
595.9329, 245.4718
596.4150, 235.4517
596.8972, 225.6178
597.3793, 215.6631
597.8614, 206.5779
598.3435, 199.3472
598.8256, 194.0386
599.3077, 189.3435
599.7899, 186.0287
600.2720, 182.4512
600.7541, 177.9097
601.2362, 172.7756
601.7183, 167.8015
602.2004, 163.0715
602.6826, 157.6136
603.1647, 150.1853
603.6468, 140.8720
604.1289, 132.7488
604.6110, 126.3432
605.0931, 120.3275
605.5753, 114.1090
606.0574, 108.2109
606.5395, 103.1312
607.0216, 98.95158
607.5037, 95.09488
607.9858, 91.01214
608.4680, 87.04939
608.9501, 84.07198
609.4322, 82.09129
609.9143, 80.11080
610.3964, 77.56469
610.8785, 74.84047
611.3607, 72.71538
611.8428, 71.18450
612.3249, 70.12967
612.8070, 69.96223
613.2891, 69.89335
613.7712, 69.34718
614.2534, 68.45967
614.7355, 67.67244
615.2176, 67.20853
615.6997, 66.87545
616.1818, 66.24634
616.6639, 65.16933
617.1461, 64.50816
617.6282, 64.70104
618.1103, 64.85758
618.5924, 64.35742
619.0745, 63.58821
619.5566, 63.30934
620.0388, 63.88623
620.5209, 64.52979
621.0030, 64.47815
621.4851, 63.98963
621.9672, 63.69246
622.4493, 63.68202
622.9315, 63.93452
623.4136, 64.52589
623.8957, 65.35826
624.3778, 65.81253
624.8599, 65.60133
625.3420, 65.44807
625.8242, 65.37823
626.3063, 65.44704
626.7884, 65.71006
627.2705, 66.16133
627.7526, 66.76004
628.2347, 67.50083
628.7169, 68.33082
629.1990, 69.07372
629.6811, 69.66274
630.1632, 70.49528
630.6453, 72.04926
631.1274, 73.43562
631.6096, 73.59047
632.0917, 72.89495
632.5738, 72.97894
633.0559, 74.84898
633.5380, 77.15603
634.0201, 78.78635
634.5023, 80.07354
634.9844, 81.80759
635.4665, 84.20921
635.9486, 86.89452
636.4307, 89.43996
636.9128, 91.84383
637.3950, 94.64369
637.8771, 98.51091
638.3592, 101.9905
638.8413, 104.3814
639.3234, 106.5858
639.8055, 109.5645
640.2877, 113.3497
640.7698, 117.0901
641.2519, 120.0086
641.7340, 122.4752
642.2161, 125.3218
642.6982, 128.5543
643.1804, 132.2815
643.6625, 136.6757
644.1446, 141.4108
644.6267, 145.9211
645.1088, 150.1977
645.5909, 155.1820
646.0731, 161.5499
646.5552, 168.1045
647.0373, 173.7839
647.5194, 179.2853
648.0015, 185.7992
648.4836, 193.7096
648.9658, 202.5076
649.4479, 211.5516
649.9300, 220.8549
650.4121, 230.6695
650.8942, 241.4268
651.3763, 251.9736
651.8585, 262.5280
652.3406, 272.4091
652.8227, 281.1773
653.3048, 288.7643
653.7869, 294.7400
654.2690, 298.9927
654.7512, 301.4345
655.2333, 301.8584
655.7154, 300.3243
656.1975, 296.9861
656.6796, 291.7515
657.1617, 285.4142
657.6439, 279.1293
658.1260, 272.7379
658.6081, 266.9800
659.0902, 261.2960
659.5723, 256.8210
660.0544, 254.0747
660.5366, 252.7175
661.0187, 252.3321
661.5008, 252.7947
661.9829, 254.1511
662.4650, 256.2057
662.9471, 259.1599
663.4293, 264.0103
663.9114, 270.9145
664.3935, 278.7616
664.8756, 287.2397
665.3577, 296.2737
665.8398, 306.1458
666.3220, 317.1032
666.8041, 327.0010
667.2862, 335.2970
667.7683, 342.6095
668.2504, 349.7451
668.7325, 356.1407
669.2147, 360.4201
669.6968, 362.1333
670.1789, 362.6923
670.6610, 363.6159
671.1431, 364.8698
671.6252, 367.5341
672.1074, 370.7566
672.5895, 377.0283
673.0716, 386.7755
673.5537, 400.4991
674.0358, 419.0591
674.5179, 442.6375
675.0001, 470.1539
675.4822, 502.6066
675.9643, 537.7280
676.4464, 574.2919
676.9285, 611.2268
677.4106, 645.7398
677.8928, 676.7484
678.3749, 703.8732
678.8570, 726.1564
679.3391, 742.4523
679.8212, 760.5128
680.3033, 779.8026
680.7855, 801.6619
681.2676, 825.7919
681.7497, 853.1725
682.2318, 884.5680
682.7139, 920.2167
683.1960, 960.2116
683.6782, 1004.676
684.1603, 1053.591
684.6424, 1106.334
685.1245, 1162.925
685.6066, 1224.592
686.0887, 1291.000
686.5709, 1364.183
687.0530, 1445.956
687.5351, 1536.191
688.0172, 1638.916
688.4993, 1751.509
688.9814, 1878.054
689.4636, 2030.303
689.9457, 2191.226
690.4278, 2347.969
690.9099, 2495.300
691.3920, 2620.569
691.8741, 2726.110
692.3563, 2798.176
692.8384, 2795.963
693.3205, 2718.678
693.8026, 2584.508
694.2847, 2388.848
694.7668, 2157.678
695.2490, 1914.353
695.7311, 1656.876
696.2132, 1426.553
696.6953, 1227.172
697.1774, 1053.755
697.6595, 908.5837
698.1417, 787.2136
698.6238, 686.0732
699.1059, 603.4795
699.5880, 534.9805
700.0701, 478.3753
700.5522, 432.2188
701.0344, 392.6791
701.5165, 360.0204
701.9986, 330.8774
702.4807, 304.7111
702.9628, 281.3625
703.4449, 261.2845
703.9271, 243.9969
704.4092, 228.3210
704.8913, 214.3977
705.3734, 201.7746
705.8555, 190.4922
706.3376, 180.3180
706.8198, 171.1477
707.3019, 162.9149
707.7840, 155.7311
708.2661, 149.7573
708.7482, 144.7012
709.2303, 139.7504
709.7125, 134.9671
710.1946, 130.0007
710.6767, 124.2619
711.1588, 119.0262
711.6409, 115.4523
712.1230, 113.0082
712.6052, 110.3216
713.0873, 106.9718
713.5694, 103.6914
714.0515, 100.8827
714.5336, 98.28092
715.0157, 95.35110
715.4979, 92.22825
715.9800, 89.72272
716.4621, 88.38718
716.9442, 87.72489
717.4263, 86.60549
717.9084, 84.89273
718.3906, 83.28847
718.8727, 81.80372
719.3548, 80.47501
719.8369, 79.59146
720.3190, 78.78275
720.8011, 77.35148
721.2833, 75.01846
721.7654, 72.92004
722.2475, 71.58741
722.7296, 70.79074
723.2117, 70.47074
723.6938, 70.47290
724.1760, 70.39413
724.6581, 70.05148
725.1402, 69.50076
725.6223, 68.79386
726.1044, 67.89774
726.5865, 67.10259
727.0687, 66.36982
727.5508, 65.79322
728.0329, 65.39077
728.5150, 65.15890
728.9971, 65.15969
729.4792, 65.39135
729.9614, 65.56704
730.4435, 65.82082
730.9256, 65.74948
731.4077, 64.56265
731.8898, 62.80885
732.3719, 61.90631
732.8541, 62.23568
733.3362, 62.94731
733.8183, 63.17517
734.3004, 62.95306
734.7825, 62.62329
735.2646, 62.10315
735.7468, 61.65485
736.2289, 61.42928
736.7110, 61.21259
737.1931, 60.82607
737.6752, 60.31256
738.1573, 59.86630
738.6395, 59.58534
739.1216, 59.33537
739.6037, 58.99700
740.0858, 58.64810
740.5679, 58.39616
741.0500, 58.26196
741.5322, 58.27230
742.0143, 58.47670
742.4964, 58.72809
742.9785, 58.52970
743.4606, 57.65004
743.9427, 57.20667
744.4249, 57.72114
744.9070, 58.10913
745.3891, 57.46751
745.8712, 56.43730
746.3533, 56.11415
746.8354, 56.76195
747.3176, 57.66211
747.7997, 58.69213
748.2818, 59.66495
748.7639, 60.29332
749.2460, 60.69158
749.7281, 61.28773
750.2103, 62.25532
750.6924, 63.14204
751.1745, 63.22842
751.6566, 62.50391
752.1387, 62.14452
752.6208, 62.09050
753.1030, 62.56640
753.5851, 64.06620
754.0672, 65.81968
754.5493, 67.05594
755.0314, 67.77571
755.5135, 68.28683
755.9957, 68.14334
756.4778, 68.37533
756.9599, 69.89487
757.4420, 72.00472
757.9241, 73.67370
758.4063, 74.76814
758.8884, 75.81208
759.3705, 77.18740
759.8526, 78.86900
760.3347, 80.86086
760.8168, 83.20290
761.2990, 85.46995
761.7811, 87.68785
762.2632, 89.62592
762.7453, 91.14864
763.2274, 92.23809
763.7095, 92.92029
764.1917, 93.28484
764.6738, 93.04830
765.1559, 92.17979
765.6380, 90.65296
766.1201, 88.24710
766.6022, 85.20890
767.0844, 81.88659
767.5665, 78.44164
768.0486, 75.16111
768.5307, 72.47246
769.0128, 70.27371
769.4949, 67.84428
769.9771, 65.06727
770.4592, 62.98040
770.9413, 62.15671
771.4234, 61.89661
771.9055, 61.27534
772.3876, 60.23680
772.8698, 59.31940
773.3519, 58.55606
773.8340, 57.86232
774.3161, 57.23431
774.7982, 56.65105
775.2803, 56.07775
775.7625, 55.52930
776.2446, 55.08411
776.7267, 54.82694
777.2088, 54.61408
777.6909, 54.14947
778.1730, 53.55351
778.6552, 53.33444
779.1373, 53.57932
779.6194, 53.95145
780.1015, 54.27333
780.5836, 54.49347
781.0657, 54.45717
781.5479, 54.06786
782.0300, 53.63759
782.5121, 52.90928
782.9942, 52.42253
783.4763, 52.66452
783.9584, 53.13570
784.4406, 53.07212
784.9227, 52.33114
785.4048, 51.67797
785.8869, 51.55489
786.3690, 51.74859
786.8511, 52.18031
787.3333, 52.71959
787.8154, 53.00815
788.2975, 52.95037
788.7796, 52.75668
789.2617, 52.61556
789.7438, 52.53720
790.2260, 52.61506
790.7081, 52.92643
791.1902, 53.14539
791.6723, 53.01188
792.1544, 53.01568
792.6365, 53.73027
793.1187, 54.82729
793.6008, 55.44385
794.0829, 55.30431
794.5650, 55.03965
795.0471, 54.76174
795.5292, 54.54786
796.0114, 54.46534
796.4935, 54.50580
796.9756, 54.66766
797.4577, 54.94548
797.9398, 55.21824
798.4219, 55.25814
798.9041, 55.14278
799.3862, 55.35822
799.8683, 55.93889
800.3504, 56.50866
800.8325, 56.93773
801.3146, 57.30752
801.7968, 57.72027
802.2789, 58.18026
802.7610, 58.56419
803.2431, 58.62021
803.7252, 58.94937
804.2073, 59.89174
804.6895, 60.94584
805.1716, 61.81902
805.6537, 62.45209
806.1358, 62.71431
806.6179, 62.40577
807.1000, 62.29442
807.5822, 63.26421
808.0643, 64.89074
808.5464, 66.31321
809.0285, 67.50124
809.5106, 68.81316
809.9927, 70.42796
810.4749, 72.27054
810.9570, 74.28777
811.4391, 76.52756
811.9212, 78.33413
812.4033, 79.46236
812.8854, 80.64361
813.3676, 81.82091
813.8497, 83.35244
814.3318, 85.91126
814.8139, 89.26603
815.2960, 91.79643
815.7781, 92.26382
816.2603, 92.95520
816.7424, 94.97186
817.2245, 97.69246
817.7066, 100.6540
818.1887, 103.6689
818.6708, 106.4404
819.1530, 108.8076
819.6351, 111.0009
820.1172, 113.1946
820.5993, 115.4746
821.0814, 118.4834
821.5635, 122.3154
822.0457, 126.1256
822.5278, 129.4620
823.0099, 132.8512
823.4920, 137.1513
823.9741, 142.4983
824.4562, 147.5117
824.9384, 152.1703
825.4205, 156.5978
825.9026, 161.2353
826.3847, 165.3141
826.8668, 168.6009
827.3489, 170.7814
827.8311, 171.0355
828.3132, 168.8353
828.7953, 165.1511
829.2774, 160.5438
829.7595, 154.9985
830.2416, 148.3395
830.7238, 140.7144
831.2059, 132.4345
831.6880, 123.6345
832.1701, 115.1895
832.6522, 108.4686
833.1343, 103.4135
833.6165, 98.39507
834.0985, 93.28610
834.5806, 88.80553
835.0627, 85.27071
835.5449, 82.32053
836.0270, 79.61421
836.5091, 77.16801
836.9912, 75.12731
837.4733, 73.50424
837.9554, 72.28383
838.4376, 71.93061
838.9197, 71.57237
839.4018, 70.30927
839.8839, 68.56831
840.3660, 67.41418
840.8481, 67.24836
841.3303, 67.36134
841.8124, 67.02827
842.2945, 66.64047
842.7766, 67.09295
843.2587, 68.16683
843.7408, 68.62154
844.2230, 68.05530
844.7051, 67.48320
845.1872, 68.05028
845.6693, 69.56994
846.1514, 70.70184
846.6335, 71.21978
847.1157, 72.19462
847.5978, 74.21288
848.0799, 76.13407
848.5620, 76.83892
849.0441, 76.91648
849.5262, 77.90671
850.0084, 80.37814
850.4905, 82.29277
850.9726, 82.62851
851.4547, 82.96489
851.9368, 84.26836
852.4189, 86.14809
852.9011, 87.92814
853.3832, 89.48844
853.8653, 91.27444
854.3474, 93.74918
854.8295, 96.48886
855.3116, 98.94884
855.7938, 101.1507
856.2759, 102.7546
856.7580, 103.8181
857.2401, 106.0387
857.7222, 110.7551
858.2043, 116.7569
858.6865, 121.0595
859.1686, 123.2543
859.6507, 125.8873
860.1328, 128.9521
860.6149, 132.5166
861.0970, 136.9363
861.5792, 141.6171
862.0613, 146.0259
862.5434, 150.1537
863.0255, 153.4058
863.5076, 155.5511
863.9897, 157.0190
864.4719, 158.3293
864.9540, 158.7260
865.4361, 157.2598
865.9182, 154.2779
866.4003, 150.7369
866.8824, 146.8781
867.3646, 143.4524
867.8467, 141.0997
868.3288, 139.6643
868.8109, 138.9686
869.2930, 138.9315
869.7751, 139.3262
870.2573, 140.0706
870.7394, 141.1317
871.2215, 142.5040
871.7036, 144.1389
872.1857, 145.7017
872.6678, 147.0268
873.1500, 149.0620
873.6321, 152.0923
874.1142, 155.6200
874.5963, 159.3885
875.0784, 163.4001
875.5605, 167.7448
876.0427, 172.7691
876.5248, 177.1367
877.0069, 180.4497
877.4890, 183.4532
877.9711, 186.5841
878.4532, 189.4951
878.9354, 191.8531
879.4175, 193.5777
879.8996, 194.5136
880.3817, 194.5500
880.8638, 193.8241
881.3459, 192.5740
881.8281, 190.5837
882.3102, 187.3111
882.7923, 182.9062
883.2744, 178.1999
883.7565, 173.6107
884.2386, 168.8042
884.7208, 163.0632
885.2029, 156.5688
885.6850, 150.9101
886.1671, 146.1505
886.6492, 141.4772
887.1313, 136.5772
887.6135, 131.8908
888.0956, 127.8271
888.5777, 124.3458
889.0598, 121.0215
889.5419, 117.8398
890.0240, 114.8824
890.5062, 111.9685
890.9883, 109.4895
891.4704, 107.8814
891.9525, 106.6791
892.4346, 105.0624
892.9167, 102.8958
893.3989, 101.3866
893.8810, 101.1613
894.3631, 101.4593
894.8452, 101.8852
895.3273, 102.5331
895.8094, 103.6290
896.2916, 105.1028
896.7737, 106.5440
897.2558, 107.6916
897.7379, 109.0176
898.2200, 111.0368
898.7021, 113.6842
899.1843, 116.7735
899.6664, 120.3188
900.1485, 124.4229
900.6306, 129.1129
901.1127, 134.5049
901.5948, 140.8124
902.0770, 147.8949
902.5591, 154.9690
903.0412, 162.0928
903.5233, 168.8577
904.0054, 174.9207
904.4875, 181.2586
904.9697, 188.6259
905.4518, 196.6287
905.9339, 204.3385
906.4160, 211.6638
906.8981, 219.1869
907.3802, 226.6146
907.8624, 234.6684
908.3445, 243.2025
908.8266, 252.7249
909.3087, 263.8207
909.7908, 276.3242
910.2729, 289.2765
910.7551, 302.2750
911.2372, 315.7734
911.7193, 329.9516
912.2014, 344.6910
912.6835, 359.5483
913.1656, 374.8623
913.6478, 391.9436
914.1299, 410.9753
914.6120, 430.4969
915.0941, 450.1193
915.5762, 468.2428
916.0583, 481.8637
916.5405, 491.0130
917.0226, 495.8898
917.5047, 496.4845
917.9868, 491.3055
918.4689, 479.2711
918.9510, 461.4840
919.4332, 439.5140
919.9153, 413.0702
920.3974, 386.3661
920.8795, 359.1001
921.3616, 332.6807
921.8438, 306.8627
922.3259, 282.9503
922.8080, 262.3190
923.2901, 244.7625
923.7722, 228.5838
924.2543, 213.5409
924.7365, 200.2272
925.2186, 188.8367
925.7007, 179.0079
926.1828, 170.9510
926.6649, 164.1032
927.1470, 157.8155
927.6292, 151.9688
928.1113, 146.5661
928.5934, 141.5225
929.0755, 136.9512
929.5576, 132.6674
930.0397, 129.0300
930.5219, 126.6607
931.0040, 125.3269
931.4861, 124.2730
931.9682, 123.1877
932.4503, 122.1178
932.9324, 121.1705
933.4146, 120.2288
933.8967, 119.0585
934.3788, 117.6836
934.8609, 116.1476
935.3430, 114.4856
935.8251, 112.9279
936.3073, 111.6701
936.7894, 110.5868
937.2715, 109.3282
937.7536, 107.8873
938.2357, 106.9502
938.7178, 106.6966
939.2000, 106.0700
939.6821, 104.5132
940.1642, 102.7467
940.6463, 101.5592
941.1284, 100.9363
941.6105, 100.6100
942.0927, 100.9767
942.5748, 100.8425
943.0569, 99.33283
943.5390, 98.21622
944.0211, 98.80973
944.5032, 100.1234
944.9854, 100.5825
945.4675, 100.0155
945.9496, 99.82045
946.4317, 100.4774
946.9138, 101.2260
947.3959, 101.9135
947.8781, 102.4844
948.3602, 102.8614
948.8423, 103.0929
949.3244, 103.2564
949.8065, 103.3469
950.2886, 103.6155
950.7708, 104.4140
951.2529, 105.2867
951.7350, 105.9411
952.2171, 106.2892
952.6992, 106.1048
953.1813, 105.4488
953.6635, 104.7886
954.1456, 104.4332
954.6277, 104.1275
955.1098, 103.3477
955.5919, 102.3853
956.0740, 102.2789
956.5562, 102.8728
957.0383, 102.8140
957.5204, 101.6495
958.0025, 100.0920
958.4846, 98.78057
958.9667, 97.76773
959.4489, 97.35493
959.9310, 97.58121
960.4131, 97.35212
960.8952, 96.41962
961.3773, 95.76128
961.8594, 95.89772
962.3416, 96.45264
962.8237, 96.87389
963.3058, 97.15728
963.7879, 97.66774
964.2700, 98.22801
964.7521, 99.41972
965.2343, 101.6238
965.7164, 104.0956
966.1985, 106.0307
966.6806, 108.0513
967.1627, 111.4692
967.6448, 116.5322
968.1270, 121.7777
968.6091, 126.8883
969.0912, 132.4570
969.5733, 139.0492
970.0554, 145.8631
970.5375, 152.0378
971.0197, 157.8559
971.5018, 164.1908
971.9839, 171.4146
972.4660, 178.4855
972.9481, 184.7319
973.4302, 190.9022
973.9124, 197.0548
974.3945, 203.6687
974.8766, 211.5184
975.3587, 220.4972
975.8408, 229.7695
976.3229, 238.9008
976.8051, 248.3102
977.2872, 258.3314
977.7693, 268.9316
978.2514, 279.7599
978.7335, 291.1862
979.2156, 304.2461
979.6978, 319.0837
980.1799, 335.2547
980.6620, 352.6156
981.1441, 370.5674
981.6262, 389.0214
982.1083, 407.3017
982.5905, 423.6019
983.0726, 437.5728
983.5547, 448.1936
984.0368, 455.0717
984.5189, 455.9192
985.0010, 447.9037
985.4832, 432.2474
985.9653, 412.7370
986.4474, 389.3994
986.9295, 363.7033
987.4116, 335.4570
987.8937, 307.8311
988.3759, 282.0310
988.8580, 258.5985
989.3401, 238.0505
989.8222, 220.3579
990.3043, 204.6870
990.7864, 191.1823
991.2686, 179.1097
991.7507, 168.4239
992.2328, 159.0502
992.7149, 151.1042
993.1970, 144.3699
993.6791, 138.4817
994.1613, 133.4591
994.6434, 129.0806
995.1255, 125.5812
995.6076, 122.3762
996.0897, 119.1314
996.5718, 116.4142
997.0540, 114.8129
997.5361, 113.9166
998.0182, 112.9713
998.5003, 111.9468
998.9824, 110.7672
999.4645, 109.1595
999.9467, 107.7389
1000.429, 106.7095
1000.911, 105.9522
1001.393, 105.4511
1001.875, 105.1217
1002.357, 104.9311
1002.839, 104.9974
1003.321, 104.3547
1003.804, 101.9176
1004.286, 99.46136
1004.768, 98.33543
1005.250, 97.57272
1005.732, 96.18130
1006.214, 94.06917
1006.696, 91.33762
1007.178, 87.93270
1007.661, 84.72681
1008.143, 82.37595
1008.625, 80.43639
1009.107, 78.75719
1009.589, 77.06810
1010.071, 74.82060
1010.553, 72.12112
1011.035, 69.69936
1011.517, 67.97356
1012.000, 66.44965
1012.482, 64.59888
1012.964, 62.66553
1013.446, 60.92051
1013.928, 59.43962
1014.410, 58.48466
1014.892, 58.00698
1015.374, 57.40547
1015.857, 56.27221
1016.339, 55.05595
1016.821, 54.43727
1017.303, 54.23085
1017.785, 54.01970
1018.267, 53.76014
1018.749, 53.28139
1019.231, 52.56345
1019.713, 51.90297
1020.196, 51.53294
1020.678, 51.29255
1021.160, 50.82948
1021.642, 50.20635
1022.124, 49.89913
1022.606, 49.89836
1023.088, 49.59639
1023.570, 48.80098
1024.052, 48.07113
1024.535, 47.88501
1025.017, 48.00896
1025.499, 47.84491
1025.981, 47.38635
1026.463, 47.03313
1026.945, 46.78680
1027.427, 46.69894
1027.909, 46.78040
1028.392, 47.09414
1028.874, 47.80194
1029.356, 48.62358
1029.838, 48.58842
1030.320, 47.47895
1030.802, 46.78461
1031.284, 46.59270
1031.766, 46.55455
1032.249, 46.60184
1032.731, 46.68424
1033.213, 46.80111
1033.695, 46.88676
1034.177, 46.63617
1034.659, 46.76400
1035.141, 47.00930
1035.623, 46.66539
1036.105, 47.40751
1036.588, 47.21675
1037.070, 46.78500
1037.552, 46.69452
1038.034, 46.88117
1038.516, 47.07799
1038.998, 47.18583
1039.480, 47.59443
1039.962, 48.76950
1040.444, 49.51009
1040.927, 49.20511
1041.409, 48.59749
1041.891, 48.22898
1042.373, 48.09053
1042.855, 48.15070
1043.337, 48.37817
1043.819, 48.88267
1044.301, 50.12185
1044.784, 51.04054
1045.266, 50.92067
1045.748, 50.73862
1046.230, 51.41246
1046.712, 52.68814
1047.194, 53.71339
1047.676, 54.35371
1048.158, 54.98671
1048.641, 55.64323
1049.123, 56.29703
1049.605, 57.01629
1050.087, 57.66678
1050.569, 57.74018
1051.051, 57.69443
1051.533, 59.02188
1052.015, 62.50584
1052.497, 64.97540
1052.979, 65.05660
1053.462, 65.06841
1053.944, 64.86232
1054.426, 65.78463
1054.908, 70.23945
1055.390, 76.49335
1055.872, 79.88101
1056.354, 79.02651
1056.836, 79.01921
1057.319, 81.04804
1057.801, 84.27335
1058.283, 88.65998
1058.765, 93.82970
1059.247, 99.31229
1059.729, 105.3921
1060.211, 112.9001
1060.693, 122.0570
1061.176, 131.5441
1061.658, 140.1463
1062.140, 150.0882
1062.622, 163.0894
1063.104, 177.1934
1063.586, 191.5436
1064.068, 205.5091
1064.550, 217.8322
1065.032, 228.2972
1065.515, 239.0949
1065.997, 250.3241
1066.479, 262.9877
1066.961, 277.6339
1067.443, 293.7511
1067.925, 311.3053
1068.407, 329.8170
1068.889, 348.5104
1069.371, 367.2520
1069.854, 387.1754
1070.336, 408.0550
1070.818, 430.9288
1071.300, 456.3160
1071.782, 483.9426
1072.264, 513.5955
1072.746, 545.4180
1073.228, 580.8142
1073.711, 619.3749
1074.193, 658.1583
1074.675, 698.8029
1075.157, 734.3020
1075.639, 766.3802
1076.121, 787.2877
1076.603, 791.1397
1077.085, 779.6668
1077.568, 752.7811
1078.050, 712.8635
1078.532, 669.8913
1079.014, 625.3332
1079.496, 583.4812
1079.978, 548.0024
1080.460, 513.9537
1080.942, 478.4991
1081.424, 442.1096
1081.906, 404.6200
1082.389, 366.9265
1082.871, 330.8530
1083.353, 297.0898
1083.835, 265.7543
1084.317, 236.5061
1084.799, 210.4460
1085.281, 188.0717
1085.763, 169.1345
1086.245, 153.7384
1086.728, 141.3413
1087.210, 130.8549
1087.692, 122.1008
1088.174, 114.0448
1088.656, 105.6865
1089.138, 98.56470
1089.620, 94.33253
1090.102, 91.07470
1090.585, 86.80004
1091.067, 81.95938
1091.549, 78.05766
1092.031, 75.43278
1092.513, 73.07664
1092.995, 70.57954
1093.477, 68.29470
1093.959, 66.41184
1094.442, 64.76328
1094.924, 63.13223
1095.406, 61.65512
1095.888, 60.71463
1096.370, 60.32196
1096.852, 59.71853
1097.334, 58.64676
1097.816, 57.33575
1098.298, 55.51421
1098.781, 53.85024
1099.263, 52.85225
1099.745, 52.24715
1100.227, 51.35749
1100.709, 50.34579
1101.191, 50.72768
1101.673, 54.35050
1102.155, 56.23884
1102.637, 53.69559
1103.120, 50.64978
1103.602, 48.77977
1104.084, 47.68882
1104.566, 46.97199
1105.048, 46.55501
1105.530, 46.37177
1106.012, 46.51415
1106.494, 46.53443
1106.977, 46.16389
1107.459, 45.89919
1107.941, 46.11652
1108.423, 46.32511
1108.905, 46.20857
1109.387, 45.75926
1109.869, 44.85719
1110.351, 43.33825
1110.833, 42.47227
1111.316, 42.89017
1111.798, 43.25158
1112.280, 43.06669
1112.762, 42.99419
1113.244, 43.66208
1113.726, 44.55769
1114.208, 44.94263
1114.690, 44.79414
1115.172, 44.35334
1115.655, 43.11498
1116.137, 42.40854
1116.619, 42.71867
1117.101, 43.00722
1117.583, 42.75423
1118.065, 42.39684
1118.547, 42.42815
1119.029, 42.76832
1119.512, 42.98181
1119.994, 43.01847
1120.476, 43.05596
1120.958, 43.10921
1121.440, 43.11651
1121.922, 42.90733
1122.404, 42.90281
1122.886, 43.56876
1123.369, 44.57429
1123.851, 45.09325
1124.333, 45.07396
1124.815, 44.98820
1125.297, 44.82580
1125.779, 44.57226
1126.261, 44.03988
1126.743, 44.00142
1127.225, 45.11621
1127.708, 46.48841
1128.190, 46.73605
1128.672, 45.98968
1129.154, 45.58046
1129.636, 45.51369
1130.118, 45.81448
1130.600, 46.56079
1131.082, 47.19350
1131.564, 47.47192
1132.047, 47.65530
1132.529, 47.99908
1133.011, 48.44173
1133.493, 48.73124
1133.975, 48.88244
1134.457, 49.51635
1134.939, 50.64056
1135.421, 51.24497
1135.904, 51.06359
1136.386, 50.99683
1136.868, 51.66675
1137.350, 52.65845
1137.832, 53.37699
1138.314, 53.83117
1138.796, 53.88312
1139.278, 53.68819
1139.760, 54.15366
1140.243, 55.32721
1140.725, 56.51314
1141.207, 57.40843
1141.689, 58.05567
1142.171, 58.34184
1142.653, 58.69456
1143.135, 60.15721
1143.617, 62.17656
1144.099, 63.44466
1144.582, 64.06985
1145.064, 64.50225
1145.546, 65.00677
1146.028, 66.30744
1146.510, 69.00616
1146.992, 71.85923
1147.474, 73.51881
1147.956, 74.59061
1148.439, 75.41698
1148.921, 76.44949
1149.403, 78.61226
1149.885, 81.67622
1150.367, 84.54037
1150.849, 86.80775
1151.331, 89.21058
1151.813, 92.28555
1152.296, 95.63126
1152.778, 99.20268
1153.260, 102.7169
1153.742, 105.8063
1154.224, 108.6803
1154.706, 111.4339
1155.188, 114.2416
1155.670, 118.0279
1156.152, 123.3584
1156.635, 129.1708
1157.117, 136.0615
1157.599, 142.1475
1158.081, 145.3305
1158.563, 148.0356
1159.045, 152.9133
1159.527, 159.4836
1160.009, 165.8431
1160.491, 171.7467
1160.974, 177.5992
1161.456, 183.4041
1161.938, 189.2909
1162.420, 195.2087
1162.902, 201.3283
1163.384, 208.0963
1163.866, 214.9428
1164.348, 220.9436
1164.831, 226.1834
1165.313, 232.0815
1165.795, 239.0112
1166.277, 245.8029
1166.759, 252.6302
1167.241, 258.7608
1167.723, 263.8549
1168.205, 268.3267
1168.688, 272.4340
1169.170, 276.2585
1169.652, 280.2384
1170.134, 284.3933
1170.616, 286.3934
1171.098, 286.1963
1171.580, 284.1124
1172.062, 280.1496
1172.544, 275.2829
1173.026, 269.9929
1173.509, 263.9760
1173.991, 256.7931
1174.473, 248.6584
1174.955, 240.1291
1175.437, 231.1288
1175.919, 221.1915
1176.401, 210.5417
1176.883, 200.3909
1177.366, 191.0366
1177.848, 181.8353
1178.330, 172.3594
1178.812, 163.3072
1179.294, 155.5915
1179.776, 148.6396
1180.258, 141.7831
1180.740, 135.0805
1181.223, 128.4327
1181.705, 122.1305
1182.187, 116.9524
1182.669, 113.0602
1183.151, 109.4891
1183.633, 105.5814
1184.115, 101.9825
1184.597, 99.17226
1185.079, 96.79433
1185.562, 94.70560
1186.044, 92.75124
1186.526, 90.63047
1187.008, 88.47238
1187.490, 86.85397
1187.972, 85.96143
1188.454, 85.32948
1188.936, 85.36938
1189.418, 84.92126
1189.901, 82.88197
1190.383, 81.03367
1190.865, 80.90015
1191.347, 81.49563
1191.829, 81.26772
1192.311, 80.27293
1192.793, 79.41579
1193.275, 78.42578
1193.758, 78.31990
1194.240, 79.53959
1194.722, 80.58761
1195.204, 80.94045
1195.686, 81.19672
1196.168, 81.79737
1196.650, 82.64178
1197.132, 83.60514
1197.615, 84.64347
1198.097, 85.12508
1198.579, 85.05379
1199.061, 84.32487
1199.543, 82.96503
1200.025, 82.27645
1200.507, 82.76386
1200.989, 83.35610
1201.471, 83.10632
1201.953, 82.35253
1202.436, 81.66837
1202.918, 80.94264
1203.400, 79.86758
1203.882, 78.53555
1204.364, 77.16435
1204.846, 75.81362
1205.328, 74.57639
1205.810, 73.47668
1206.293, 72.15535
1206.775, 70.08780
1207.257, 68.01957
1207.739, 66.65037
1208.221, 65.49132
1208.703, 64.12968
1209.185, 62.62135
1209.667, 61.01664
1210.150, 59.38676
1210.632, 57.99589
1211.114, 56.94151
1211.596, 56.01295
1212.078, 55.23543
1212.560, 54.47895
1213.042, 53.84171
1213.524, 53.06468
1214.006, 51.85749
1214.489, 50.47424
1214.971, 49.17954
1215.453, 48.00484
1215.935, 47.37101
1216.417, 47.57533
1216.899, 47.31199
1217.381, 46.39444
1217.863, 45.52208
1218.345, 44.86566
1218.828, 44.40645
1219.310, 44.15630
1219.792, 44.00905
1220.274, 43.81837
1220.756, 43.56541
1221.238, 43.15184
1221.720, 42.59688
1222.202, 41.89665
1222.685, 41.12563
1223.167, 40.68791
1223.649, 40.68627
1224.131, 40.91703
1224.613, 41.31684
1225.095, 41.44909
1225.577, 40.56821
1226.059, 39.38448
1226.542, 38.80149
1227.024, 38.47268
1227.506, 37.74826
1227.988, 36.81957
1228.470, 36.29485
1228.952, 36.30131
1229.434, 36.52122
1229.916, 37.02900
1230.398, 37.35628
1230.880, 37.27556
1231.363, 37.05159
1231.845, 36.66063
1232.327, 36.32415
1232.809, 36.36457
1233.291, 36.05188
1233.773, 35.88763
1234.255, 35.84810
1234.737, 35.53882
1235.220, 35.63842
1235.702, 35.57781
1236.184, 35.30412
1236.666, 34.81185
1237.148, 33.98792
1237.630, 33.43602
1238.112, 33.71865
1238.594, 34.45374
1239.077, 34.96264
1239.559, 35.21290
1240.041, 34.88603
1240.523, 34.13160
1241.005, 33.60050
1241.487, 33.38649
1241.969, 33.58645
1242.451, 34.14022
1242.933, 34.20402
1243.416, 32.96834
1243.898, 31.75184
1244.380, 32.19445
1244.862, 33.00343
1245.344, 32.73624
1245.826, 32.08405
1246.308, 32.07572
1246.790, 32.51514
1247.272, 32.63051
1247.755, 32.28581
1248.237, 32.06943
1248.719, 32.03720
1249.201, 32.31273
1249.683, 33.46007
1250.165, 34.19532
1250.647, 33.70048
1251.129, 33.02698
1251.612, 33.10142
1252.094, 33.42942
1252.576, 32.88816
1253.058, 32.90587
1253.540, 32.73541
1254.022, 32.13813
1254.504, 32.27060
1254.986, 31.38369
1255.469, 30.98262
1255.951, 31.55185
1256.433, 32.39074
1256.915, 33.03476
1257.397, 33.31978
1257.879, 32.78019
1258.361, 31.87623
1258.843, 31.39028
1259.325, 31.25245
1259.807, 31.48987
1260.290, 31.90528
1260.772, 32.06231
1261.254, 31.89936
1261.736, 31.70955
1262.218, 31.60932
1262.700, 31.53066
1263.182, 31.43459
1263.664, 31.36194
1264.147, 31.32626
1264.629, 31.32822
1265.111, 31.46589
1265.593, 31.58394
1266.075, 31.42500
1266.557, 31.01615
1267.039, 30.56279
1267.521, 29.99230
1268.004, 29.64062
1268.486, 29.55981
1268.968, 29.43823
1269.450, 29.17605
1269.932, 29.14668
1270.414, 29.58094
1270.896, 30.06218
1271.378, 30.11937
1271.860, 29.84330
1272.343, 29.21024
1272.825, 28.50560
1273.307, 28.59083
1273.789, 29.18110
1274.271, 29.47391
1274.753, 29.39295
1275.235, 29.21930
1275.717, 29.05893
1276.199, 28.99309
1276.682, 29.26301
1277.164, 29.33955
1277.646, 28.61485
1278.128, 28.02142
1278.610, 28.37099
1279.092, 28.96254
1279.574, 28.94464
1280.056, 28.58644
1280.539, 28.76305
1281.021, 29.53144
1281.503, 29.69870
1281.985, 29.05594
1282.467, 28.58024
1282.949, 28.33965
1283.431, 28.35543
1283.913, 28.66661
1284.396, 28.88389
1284.878, 28.71682
1285.360, 28.43675
1285.842, 28.47738
1286.324, 28.66860
1286.806, 28.70087
##END=



