##NAMES=Davidite-(La)
##RRUFFID=R070698
##IDEAL CHEMISTRY=La^3+^(Y^3+^,U^4+^)Fe^3+^_2_(Ti^4+^,Fe^3+^,Cr^3+^,V^5+^)_18_(O,OH,F)_38_
##LOCALITY=Pandora prospect, Covered Wells, Quijotoa District, Quijotoa Mts, Pima County, Arizona, USA
##OWNER=RRUFF
##SOURCE=Michael Scott
##DESCRIPTION=Black submetallic massive
##STATUS=The identification of this mineral is confirmed by single-crystal X-ray diffraction and chemical analysis.
##URL=rruff.info/R070698
##MEASURED CHEMISTRY=(La_0.48_Ce_0.35_Nd_0.03_Pr_0.01_Ca_0.13_)_∑=1.00_(U_0.32_Y_0.23_Sc_0.07_Ca_0.07_Th_0.05_)_∑=0.74_Fe_2_(Ti_12.42_Fe_4.24_Mg_0.29_Cr_0.25_Al_0.18_Zr_0.07_Mn_0.05_)_∑=17.50_O_38_
129.6975, 1103.384
130.1796, 1157.958
130.6617, 1208.166
131.1439, 1257.673
131.6260, 1309.047
132.1081, 1361.409
132.5902, 1407.771
133.0723, 1452.236
133.5544, 1485.644
134.0366, 1503.319
134.5187, 1508.530
135.0008, 1507.312
135.4829, 1504.068
135.9650, 1498.420
136.4471, 1480.026
136.9293, 1440.184
137.4114, 1397.975
137.8935, 1353.616
138.3756, 1310.919
138.8577, 1276.580
139.3398, 1256.022
139.8220, 1249.424
140.3041, 1245.828
140.7862, 1240.942
141.2683, 1242.124
141.7504, 1252.480
142.2325, 1271.793
142.7147, 1298.252
143.1968, 1330.551
143.6789, 1369.112
144.1610, 1416.493
144.6431, 1479.993
145.1252, 1544.852
145.6074, 1604.095
146.0895, 1657.219
146.5716, 1705.161
147.0537, 1747.625
147.5358, 1784.370
148.0179, 1822.670
148.5001, 1871.810
148.9822, 1915.726
149.4643, 1943.457
149.9464, 1954.557
150.4285, 1953.436
150.9106, 1941.183
151.3928, 1917.935
151.8749, 1892.511
152.3570, 1866.271
152.8391, 1837.503
153.3212, 1804.103
153.8033, 1765.932
154.2855, 1724.760
154.7676, 1678.413
155.2497, 1629.225
155.7318, 1587.896
156.2139, 1558.802
156.6960, 1537.068
157.1782, 1517.574
157.6603, 1500.093
158.1424, 1484.984
158.6245, 1472.764
159.1066, 1463.248
159.5887, 1456.750
160.0709, 1453.996
160.5530, 1454.100
161.0351, 1455.570
161.5172, 1457.980
161.9993, 1463.244
162.4814, 1478.566
162.9636, 1497.726
163.4457, 1508.508
163.9278, 1502.441
164.4099, 1486.500
164.8920, 1472.640
165.3741, 1460.964
165.8563, 1451.243
166.3384, 1442.128
166.8205, 1434.787
167.3026, 1432.005
167.7847, 1438.239
168.2668, 1448.687
168.7490, 1452.789
169.2311, 1449.102
169.7132, 1442.039
170.1953, 1431.896
170.6774, 1420.502
171.1595, 1410.760
171.6417, 1404.081
172.1238, 1399.866
172.6059, 1396.873
173.0880, 1395.729
173.5701, 1394.577
174.0522, 1394.380
174.5344, 1393.361
175.0165, 1388.091
175.4986, 1374.199
175.9807, 1356.600
176.4628, 1349.987
176.9449, 1361.342
177.4271, 1371.037
177.9092, 1370.444
178.3913, 1364.143
178.8734, 1358.149
179.3555, 1355.297
179.8376, 1354.668
180.3197, 1353.508
180.8019, 1351.443
181.2840, 1349.501
181.7661, 1345.552
182.2482, 1342.537
182.7303, 1345.186
183.2124, 1357.222
183.6946, 1374.067
184.1767, 1382.126
184.6588, 1376.477
185.1409, 1370.066
185.6230, 1366.412
186.1051, 1364.082
186.5873, 1361.958
187.0694, 1359.907
187.5515, 1356.670
188.0336, 1347.562
188.5157, 1325.130
188.9978, 1310.286
189.4800, 1312.183
189.9621, 1320.749
190.4442, 1325.524
190.9263, 1321.738
191.4084, 1312.699
191.8905, 1306.352
192.3727, 1304.011
192.8548, 1302.200
193.3369, 1298.337
193.8190, 1295.470
194.3011, 1297.475
194.7832, 1305.970
195.2654, 1317.431
195.7475, 1324.108
196.2296, 1323.719
196.7117, 1322.566
197.1938, 1321.438
197.6759, 1320.097
198.1581, 1319.013
198.6402, 1318.249
199.1223, 1316.169
199.6044, 1308.186
200.0865, 1285.766
200.5686, 1275.245
201.0508, 1284.226
201.5329, 1300.251
202.0150, 1316.874
202.4971, 1331.452
202.9792, 1340.343
203.4613, 1335.451
203.9435, 1305.724
204.4256, 1287.379
204.9077, 1288.295
205.3898, 1294.849
205.8719, 1298.955
206.3540, 1298.564
206.8362, 1295.516
207.3183, 1291.859
207.8004, 1286.687
208.2825, 1283.398
208.7646, 1285.845
209.2467, 1287.040
209.7289, 1280.683
210.2110, 1267.362
210.6931, 1254.302
211.1752, 1251.030
211.6573, 1261.721
212.1395, 1266.866
212.6216, 1262.008
213.1037, 1255.826
213.5858, 1252.818
214.0679, 1252.761
214.5500, 1252.197
215.0322, 1246.427
215.5143, 1233.318
215.9964, 1229.651
216.4785, 1247.140
216.9606, 1263.071
217.4427, 1268.326
217.9249, 1264.298
218.4070, 1257.419
218.8891, 1252.807
219.3712, 1250.531
219.8533, 1248.056
220.3354, 1242.928
220.8176, 1240.060
221.2997, 1242.545
221.7818, 1248.354
222.2639, 1253.717
222.7460, 1256.255
223.2281, 1255.944
223.7103, 1252.236
224.1924, 1236.983
224.6745, 1227.385
225.1566, 1231.958
225.6387, 1243.426
226.1208, 1250.519
226.6030, 1246.284
227.0851, 1233.851
227.5672, 1226.339
228.0493, 1226.267
228.5314, 1228.273
229.0135, 1232.869
229.4957, 1238.359
229.9778, 1243.632
230.4599, 1248.305
230.9420, 1251.001
231.4241, 1247.759
231.9062, 1234.011
232.3884, 1221.977
232.8705, 1210.048
233.3526, 1201.889
233.8347, 1201.834
234.3168, 1211.113
234.7989, 1225.191
235.2811, 1236.608
235.7632, 1245.193
236.2453, 1251.347
236.7274, 1253.842
237.2095, 1255.196
237.6916, 1258.257
238.1738, 1263.043
238.6559, 1265.812
239.1380, 1260.660
239.6201, 1244.485
240.1022, 1231.865
240.5843, 1222.723
241.0665, 1217.709
241.5486, 1219.278
242.0307, 1226.303
242.5128, 1233.984
242.9949, 1237.561
243.4770, 1236.647
243.9592, 1236.336
244.4413, 1239.475
244.9234, 1240.370
245.4055, 1234.693
245.8876, 1224.738
246.3697, 1216.440
246.8519, 1214.240
247.3340, 1217.559
247.8161, 1221.560
248.2982, 1228.812
248.7803, 1233.067
249.2624, 1230.415
249.7446, 1223.956
250.2267, 1218.850
250.7088, 1218.270
251.1909, 1220.346
251.6730, 1219.116
252.1551, 1211.756
252.6373, 1206.919
253.1194, 1210.297
253.6015, 1216.159
254.0836, 1217.872
254.5657, 1212.500
255.0478, 1204.261
255.5300, 1199.809
256.0121, 1199.914
256.4942, 1200.969
256.9763, 1203.404
257.4584, 1205.578
257.9406, 1206.128
258.4227, 1204.737
258.9048, 1202.504
259.3869, 1199.820
259.8690, 1196.569
260.3511, 1195.680
260.8333, 1199.128
261.3154, 1204.014
261.7975, 1209.595
262.2796, 1215.464
262.7617, 1218.367
263.2438, 1213.649
263.7260, 1203.002
264.2081, 1196.677
264.6902, 1197.485
265.1723, 1200.158
265.6544, 1201.099
266.1365, 1200.648
266.6187, 1199.843
267.1008, 1198.566
267.5829, 1197.373
268.0650, 1197.924
268.5471, 1200.986
269.0292, 1203.405
269.5114, 1200.856
269.9935, 1196.325
270.4756, 1195.299
270.9577, 1201.922
271.4398, 1210.387
271.9219, 1214.096
272.4041, 1212.944
272.8862, 1210.561
273.3683, 1208.582
273.8504, 1206.467
274.3325, 1202.804
274.8146, 1195.391
275.2968, 1190.324
275.7789, 1193.969
276.2610, 1204.083
276.7431, 1211.354
277.2252, 1212.081
277.7073, 1208.995
278.1895, 1206.833
278.6716, 1206.101
279.1537, 1203.977
279.6358, 1197.840
280.1179, 1190.008
280.6000, 1184.614
281.0822, 1182.680
281.5643, 1182.392
282.0464, 1181.469
282.5285, 1179.710
283.0106, 1179.925
283.4927, 1186.366
283.9749, 1192.421
284.4570, 1190.495
284.9391, 1180.600
285.4212, 1170.363
285.9033, 1165.448
286.3854, 1166.133
286.8676, 1170.310
287.3497, 1184.243
287.8318, 1195.308
288.3139, 1193.625
288.7960, 1183.721
289.2781, 1178.954
289.7603, 1187.784
290.2424, 1205.580
290.7245, 1212.493
291.2066, 1201.107
291.6887, 1188.890
292.1708, 1174.201
292.6530, 1161.570
293.1351, 1158.357
293.6172, 1166.951
294.0993, 1180.599
294.5814, 1187.211
295.0635, 1181.830
295.5457, 1178.401
296.0278, 1178.727
296.5099, 1179.573
296.9920, 1177.970
297.4741, 1174.038
297.9562, 1170.855
298.4384, 1172.299
298.9205, 1179.840
299.4026, 1181.604
299.8847, 1168.744
300.3668, 1159.098
300.8489, 1161.435
301.3311, 1171.816
301.8131, 1181.167
302.2953, 1183.402
302.7774, 1179.927
303.2595, 1177.759
303.7416, 1176.230
304.2237, 1177.304
304.7058, 1186.004
305.1880, 1195.227
305.6701, 1195.579
306.1522, 1183.280
306.6343, 1167.198
307.1164, 1163.601
307.5985, 1177.307
308.0807, 1185.559
308.5628, 1177.019
309.0449, 1166.874
309.5270, 1164.809
310.0091, 1171.365
310.4912, 1179.402
310.9734, 1181.811
311.4555, 1179.366
311.9376, 1181.462
312.4197, 1193.528
312.9018, 1203.075
313.3839, 1201.227
313.8661, 1191.063
314.3482, 1180.432
314.8303, 1172.342
315.3124, 1166.169
315.7945, 1160.531
316.2766, 1155.155
316.7588, 1151.983
317.2409, 1153.175
317.7230, 1157.017
318.2051, 1160.819
318.6872, 1164.686
319.1693, 1167.713
319.6515, 1168.541
320.1336, 1167.705
320.6157, 1167.806
321.0978, 1170.122
321.5799, 1173.107
322.0620, 1173.575
322.5442, 1170.688
323.0263, 1170.474
323.5084, 1179.778
323.9905, 1190.532
324.4726, 1190.885
324.9547, 1178.891
325.4369, 1163.333
325.9190, 1151.316
326.4011, 1143.161
326.8832, 1141.639
327.3653, 1153.769
327.8474, 1165.831
328.3296, 1169.156
328.8117, 1165.748
329.2938, 1162.541
329.7759, 1163.555
330.2580, 1167.976
330.7401, 1172.096
331.2223, 1176.665
331.7044, 1180.010
332.1865, 1181.783
332.6686, 1182.337
333.1507, 1181.689
333.6328, 1179.955
334.1150, 1177.991
334.5971, 1177.327
335.0792, 1179.322
335.5613, 1178.839
336.0434, 1172.194
336.5255, 1166.607
337.0077, 1167.038
337.4898, 1172.191
337.9719, 1177.056
338.4540, 1177.604
338.9361, 1174.293
339.4182, 1171.291
339.9004, 1169.458
340.3825, 1166.615
340.8646, 1158.641
341.3467, 1150.609
341.8288, 1150.422
342.3109, 1162.267
342.7931, 1176.987
343.2752, 1180.016
343.7573, 1169.666
344.2394, 1159.416
344.7215, 1150.438
345.2036, 1144.465
345.6858, 1144.312
346.1679, 1149.852
346.6500, 1154.272
347.1321, 1150.586
347.6142, 1142.534
348.0963, 1141.627
348.5785, 1151.054
349.0606, 1161.240
349.5427, 1165.165
350.0248, 1163.869
350.5069, 1159.699
350.9890, 1148.102
351.4712, 1137.678
351.9533, 1136.678
352.4354, 1143.651
352.9175, 1151.127
353.3996, 1155.971
353.8817, 1158.718
354.3639, 1160.398
354.8460, 1160.029
355.3281, 1160.825
355.8102, 1167.930
356.2923, 1174.583
356.7744, 1169.335
357.2566, 1150.672
357.7387, 1132.234
358.2208, 1130.063
358.7029, 1148.097
359.1850, 1160.965
359.6671, 1169.803
360.1493, 1173.262
360.6314, 1168.080
361.1135, 1157.136
361.5956, 1145.934
362.0777, 1137.551
362.5598, 1131.683
363.0420, 1127.135
363.5241, 1123.566
364.0062, 1122.105
364.4883, 1125.289
364.9704, 1128.885
365.4525, 1128.286
365.9347, 1122.968
366.4168, 1117.711
366.8989, 1118.197
367.3810, 1124.758
367.8631, 1131.914
368.3452, 1142.301
368.8274, 1149.660
369.3095, 1149.458
369.7916, 1144.083
370.2737, 1139.312
370.7558, 1138.368
371.2379, 1139.141
371.7201, 1137.965
372.2022, 1134.638
372.6843, 1131.200
373.1664, 1127.286
373.6485, 1124.646
374.1306, 1126.005
374.6128, 1132.457
375.0949, 1139.259
375.5770, 1144.613
376.0591, 1148.441
376.5412, 1150.727
377.0233, 1151.542
377.5055, 1150.105
377.9876, 1144.661
378.4697, 1134.657
378.9518, 1127.982
379.4339, 1125.274
379.9160, 1125.447
380.3982, 1129.771
380.8803, 1136.644
381.3624, 1142.324
381.8445, 1144.924
382.3266, 1144.501
382.8087, 1141.112
383.2909, 1130.216
383.7730, 1122.323
384.2551, 1118.740
384.7372, 1117.498
385.2193, 1118.060
385.7014, 1119.722
386.1836, 1120.283
386.6657, 1116.406
387.1478, 1107.585
387.6299, 1104.578
388.1120, 1113.890
388.5941, 1121.638
389.0763, 1122.872
389.5584, 1119.747
390.0405, 1115.325
390.5226, 1110.310
391.0047, 1106.255
391.4868, 1106.338
391.9690, 1111.090
392.4511, 1115.025
392.9332, 1117.716
393.4153, 1117.931
393.8974, 1112.882
394.3795, 1102.701
394.8617, 1095.965
395.3438, 1100.270
395.8259, 1109.528
396.3080, 1112.604
396.7901, 1108.179
397.2722, 1104.329
397.7544, 1107.307
398.2365, 1115.675
398.7186, 1121.076
399.2007, 1123.669
399.6828, 1123.195
400.1649, 1117.419
400.6471, 1108.995
401.1292, 1101.935
401.6113, 1097.524
402.0934, 1095.571
402.5755, 1095.910
403.0576, 1099.300
403.5398, 1102.838
404.0219, 1109.958
404.5040, 1114.097
404.9861, 1110.564
405.4682, 1101.177
405.9503, 1089.645
406.4325, 1077.271
406.9146, 1066.843
407.3967, 1070.354
407.8788, 1098.420
408.3609, 1118.501
408.8430, 1121.682
409.3252, 1116.990
409.8073, 1108.341
410.2894, 1097.244
410.7715, 1089.891
411.2536, 1094.780
411.7357, 1108.983
412.2179, 1116.693
412.7000, 1114.882
413.1821, 1111.379
413.6642, 1112.816
414.1463, 1116.324
414.6284, 1115.702
415.1106, 1106.166
415.5927, 1096.646
416.0748, 1095.289
416.5569, 1099.477
417.0390, 1100.671
417.5211, 1095.528
418.0033, 1087.991
418.4854, 1083.963
418.9675, 1084.690
419.4496, 1084.923
419.9317, 1083.313
420.4138, 1082.145
420.8960, 1083.772
421.3781, 1087.359
421.8602, 1089.694
422.3423, 1088.413
422.8244, 1084.921
423.3065, 1085.519
423.7887, 1094.960
424.2708, 1101.056
424.7529, 1101.848
425.2350, 1099.621
425.7171, 1094.775
426.1992, 1088.108
426.6814, 1082.809
427.1635, 1083.550
427.6456, 1089.519
428.1277, 1090.349
428.6098, 1083.347
429.0919, 1076.359
429.5741, 1073.594
430.0562, 1073.345
430.5383, 1073.241
431.0204, 1072.555
431.5025, 1072.267
431.9846, 1073.901
432.4668, 1076.731
432.9489, 1077.466
433.4310, 1074.485
433.9131, 1071.942
434.3952, 1075.699
434.8773, 1086.639
435.3595, 1094.199
435.8416, 1097.310
436.3237, 1097.327
436.8058, 1094.688
437.2879, 1089.657
437.7701, 1081.765
438.2522, 1070.448
438.7343, 1058.278
439.2164, 1051.912
439.6985, 1053.932
440.1806, 1057.531
440.6628, 1065.974
441.1449, 1072.970
441.6270, 1073.283
442.1091, 1067.965
442.5912, 1062.266
443.0733, 1059.573
443.5555, 1059.806
444.0376, 1063.992
444.5197, 1075.143
445.0018, 1081.746
445.4839, 1072.304
445.9660, 1059.816
446.4482, 1058.900
446.9303, 1072.959
447.4124, 1085.634
447.8945, 1084.324
448.3766, 1075.044
448.8587, 1071.101
449.3409, 1074.614
449.8230, 1077.848
450.3051, 1073.945
450.7872, 1063.917
451.2693, 1058.473
451.7514, 1061.985
452.2336, 1064.620
452.7157, 1059.380
453.1978, 1052.692
453.6799, 1056.090
454.1620, 1072.090
454.6441, 1089.340
455.1263, 1091.938
455.6084, 1075.962
456.0905, 1067.573
456.5726, 1076.824
457.0547, 1083.646
457.5368, 1077.875
458.0190, 1066.645
458.5011, 1062.418
458.9832, 1071.242
459.4653, 1084.979
459.9474, 1092.911
460.4295, 1094.974
460.9117, 1093.462
461.3938, 1087.590
461.8759, 1079.794
462.3580, 1071.471
462.8401, 1062.878
463.3222, 1055.477
463.8044, 1046.622
464.2865, 1041.465
464.7686, 1048.292
465.2507, 1063.777
465.7328, 1074.511
466.2149, 1074.300
466.6971, 1067.641
467.1792, 1063.163
467.6613, 1062.140
468.1434, 1060.729
468.6255, 1058.614
469.1076, 1056.392
469.5898, 1054.210
470.0719, 1052.243
470.5540, 1050.810
471.0361, 1050.097
471.5182, 1050.057
472.0003, 1051.039
472.4825, 1054.407
472.9646, 1055.036
473.4467, 1046.021
473.9288, 1038.152
474.4109, 1040.111
474.8930, 1051.368
475.3752, 1062.534
475.8573, 1070.196
476.3394, 1073.579
476.8215, 1068.171
477.3036, 1053.806
477.7857, 1045.425
478.2679, 1053.471
478.7500, 1069.774
479.2321, 1073.679
479.7142, 1060.360
480.1963, 1048.955
480.6784, 1044.029
481.1606, 1041.932
481.6427, 1038.230
482.1248, 1033.506
482.6069, 1033.030
483.0890, 1041.442
483.5711, 1056.620
484.0533, 1067.060
484.5354, 1072.203
485.0175, 1073.083
485.4996, 1066.809
485.9817, 1059.066
486.4638, 1054.370
486.9460, 1053.139
487.4281, 1052.932
487.9102, 1053.063
488.3923, 1052.697
488.8744, 1048.022
489.3565, 1037.849
489.8387, 1030.160
490.3208, 1029.122
490.8029, 1033.284
491.2850, 1039.097
491.7671, 1047.000
492.2492, 1055.263
492.7314, 1068.100
493.2135, 1078.250
493.6956, 1074.244
494.1777, 1056.927
494.6598, 1039.377
495.1419, 1031.328
495.6241, 1031.768
496.1062, 1034.114
496.5883, 1041.442
497.0704, 1046.287
497.5525, 1047.391
498.0346, 1046.244
498.5168, 1043.187
498.9989, 1038.787
499.4810, 1034.909
499.9631, 1032.479
500.4452, 1031.816
500.9273, 1035.470
501.4095, 1045.207
501.8916, 1051.677
502.3737, 1049.228
502.8558, 1041.945
503.3379, 1036.107
503.8200, 1031.698
504.3022, 1029.368
504.7843, 1029.035
505.2664, 1031.114
505.7485, 1038.401
506.2306, 1049.788
506.7127, 1057.812
507.1949, 1057.239
507.6770, 1049.749
508.1591, 1042.463
508.6412, 1030.483
509.1233, 1026.330
509.6054, 1037.828
510.0876, 1051.456
510.5697, 1058.009
511.0518, 1056.918
511.5339, 1052.139
512.0161, 1046.007
512.4982, 1038.565
512.9803, 1028.170
513.4624, 1013.410
513.9445, 1004.988
514.4266, 1009.120
514.9088, 1019.510
515.3909, 1028.631
515.8730, 1036.649
516.3551, 1041.793
516.8372, 1042.061
517.3193, 1040.333
517.8015, 1039.596
518.2836, 1039.447
518.7657, 1036.925
519.2478, 1030.081
519.7299, 1021.708
520.2120, 1018.801
520.6942, 1026.050
521.1763, 1029.817
521.6584, 1026.360
522.1405, 1023.325
522.6226, 1023.494
523.1047, 1027.531
523.5869, 1037.082
524.0690, 1055.435
524.5511, 1074.395
525.0332, 1079.069
525.5153, 1069.548
525.9974, 1060.174
526.4796, 1054.561
526.9617, 1049.719
527.4438, 1042.108
527.9259, 1032.105
528.4080, 1023.144
528.8901, 1013.135
529.3723, 1006.826
529.8544, 1007.849
530.3365, 1014.428
530.8186, 1024.782
531.3007, 1038.091
531.7828, 1049.658
532.2650, 1052.372
532.7471, 1044.492
533.2292, 1038.566
533.7113, 1033.306
534.1934, 1031.739
534.6755, 1039.290
535.1577, 1049.273
535.6398, 1051.566
536.1219, 1042.583
536.6040, 1032.447
537.0861, 1032.165
537.5682, 1038.371
538.0504, 1039.347
538.5325, 1033.059
539.0146, 1026.731
539.4967, 1025.498
539.9788, 1028.477
540.4609, 1031.129
540.9431, 1035.041
541.4252, 1036.564
541.9073, 1031.730
542.3894, 1026.265
542.8715, 1027.721
543.3536, 1035.202
543.8358, 1039.310
544.3179, 1030.868
544.8000, 1014.670
545.2821, 1013.659
545.7642, 1035.158
546.2463, 1051.770
546.7285, 1054.386
547.2106, 1050.944
547.6927, 1046.369
548.1748, 1041.064
548.6569, 1035.567
549.1390, 1028.761
549.6211, 1022.876
550.1032, 1021.144
550.5853, 1022.765
551.0674, 1024.172
551.5496, 1023.929
552.0317, 1022.997
552.5138, 1023.197
552.9959, 1025.876
553.4780, 1024.990
553.9601, 1014.191
554.4423, 1007.110
554.9244, 1013.954
555.4065, 1026.657
555.8886, 1031.245
556.3707, 1022.390
556.8528, 1010.689
557.3350, 1009.762
557.8171, 1018.168
558.2992, 1023.973
558.7813, 1025.509
559.2634, 1026.348
559.7455, 1029.465
560.2277, 1033.535
560.7098, 1034.287
561.1919, 1028.660
561.6740, 1025.030
562.1561, 1028.428
562.6382, 1033.643
563.1204, 1033.696
563.6025, 1029.137
564.0846, 1027.253
564.5667, 1033.984
565.0488, 1046.435
565.5309, 1053.322
566.0131, 1053.526
566.4952, 1050.968
566.9773, 1041.814
567.4594, 1033.712
567.9415, 1033.725
568.4236, 1039.865
568.9058, 1042.241
569.3879, 1031.955
569.8700, 1020.345
570.3521, 1019.704
570.8342, 1027.513
571.3163, 1036.461
571.7985, 1044.696
572.2806, 1049.458
572.7627, 1046.396
573.2448, 1034.076
573.7269, 1027.466
574.2090, 1031.390
574.6912, 1034.882
575.1733, 1033.978
575.6554, 1031.875
576.1375, 1033.601
576.6196, 1039.711
577.1017, 1043.791
577.5839, 1036.840
578.0660, 1023.239
578.5481, 1020.038
579.0302, 1029.124
579.5123, 1033.060
579.9944, 1019.828
580.4766, 1000.417
580.9587, 997.5801
581.4408, 1014.780
581.9229, 1030.051
582.4050, 1044.954
582.8871, 1052.858
583.3693, 1043.160
583.8514, 1023.697
584.3335, 1011.778
584.8156, 1015.445
585.2977, 1026.067
585.7798, 1029.986
586.2620, 1026.540
586.7441, 1023.952
587.2262, 1022.652
587.7083, 1022.145
588.1904, 1020.905
588.6725, 1020.587
589.1547, 1025.041
589.6368, 1037.723
590.1189, 1047.381
590.6010, 1045.727
591.0831, 1039.570
591.5652, 1038.280
592.0474, 1041.871
592.5295, 1043.434
593.0116, 1037.782
593.4937, 1028.663
593.9758, 1028.513
594.4579, 1043.145
594.9401, 1052.911
595.4222, 1054.552
595.9043, 1052.297
596.3864, 1045.319
596.8685, 1036.104
597.3506, 1031.062
597.8328, 1035.668
598.3149, 1039.099
598.7970, 1026.182
599.2791, 1004.897
599.7612, 997.2608
600.2433, 1007.525
600.7255, 1023.343
601.2076, 1035.490
601.6897, 1043.789
602.1718, 1046.658
602.6539, 1034.288
603.1360, 1030.046
603.6182, 1046.444
604.1003, 1062.975
604.5824, 1061.352
605.0645, 1044.449
605.5466, 1029.896
606.0287, 1028.568
606.5109, 1033.946
606.9930, 1038.065
607.4751, 1040.608
607.9572, 1037.876
608.4393, 1027.578
608.9214, 1017.077
609.4036, 1013.702
609.8857, 1017.511
610.3678, 1022.558
610.8499, 1033.403
611.3320, 1039.607
611.8141, 1033.668
612.2963, 1025.135
612.7784, 1024.252
613.2605, 1031.514
613.7426, 1039.967
614.2247, 1045.007
614.7068, 1046.990
615.1890, 1046.054
615.6711, 1042.047
616.1532, 1038.571
616.6353, 1036.797
617.1174, 1035.629
617.5995, 1032.806
618.0817, 1028.286
618.5638, 1029.198
619.0459, 1041.688
619.5280, 1052.857
620.0101, 1059.010
620.4922, 1060.397
620.9744, 1055.068
621.4565, 1044.199
621.9386, 1035.700
622.4207, 1038.396
622.9028, 1048.414
623.3849, 1049.970
623.8671, 1041.776
624.3492, 1031.943
624.8313, 1019.414
625.3134, 1010.240
625.7955, 1014.958
626.2776, 1032.627
626.7598, 1044.835
627.2419, 1046.285
627.7240, 1044.690
628.2061, 1041.970
628.6882, 1039.398
629.1703, 1038.809
629.6525, 1040.475
630.1346, 1042.983
630.6167, 1045.231
631.0988, 1047.085
631.5809, 1047.868
632.0630, 1047.622
632.5452, 1045.993
633.0273, 1041.441
633.5094, 1036.831
633.9915, 1035.469
634.4736, 1037.190
634.9557, 1039.405
635.4379, 1043.142
635.9200, 1045.623
636.4021, 1044.145
636.8842, 1040.807
637.3663, 1039.498
637.8484, 1040.813
638.3306, 1041.043
638.8127, 1035.238
639.2948, 1025.349
639.7769, 1025.428
640.2590, 1040.174
640.7411, 1047.833
641.2233, 1037.628
641.7054, 1022.119
642.1875, 1013.843
642.6696, 1012.325
643.1517, 1012.414
643.6339, 1015.369
644.1160, 1017.189
644.5981, 1014.404
645.0802, 1009.565
645.5623, 1005.857
646.0444, 1004.326
646.5266, 1005.854
647.0087, 1012.204
647.4908, 1021.737
647.9729, 1025.590
648.4550, 1021.367
648.9371, 1021.508
649.4193, 1033.975
649.9014, 1046.633
650.3835, 1045.847
650.8656, 1033.736
651.3477, 1025.179
651.8298, 1025.941
652.3120, 1027.011
652.7941, 1022.210
653.2762, 1016.129
653.7583, 1017.094
654.2404, 1024.878
654.7225, 1029.132
655.2047, 1019.710
655.6868, 1002.804
656.1689, 1002.492
656.6510, 1023.473
657.1331, 1030.502
657.6152, 1007.574
658.0974, 981.2144
658.5795, 976.6742
659.0616, 989.6177
659.5437, 1001.690
660.0258, 1016.434
660.5079, 1023.661
660.9901, 1012.148
661.4722, 996.3495
661.9543, 992.6719
662.4364, 1000.863
662.9185, 1009.784
663.4006, 1012.197
663.8828, 1010.373
664.3649, 1009.215
664.8470, 1008.791
665.3291, 1006.338
665.8112, 1000.248
666.2933, 994.8265
666.7755, 993.0891
667.2576, 994.7254
667.7397, 997.9969
668.2218, 1005.715
668.7039, 1010.490
669.1860, 1009.480
669.6682, 1006.174
670.1503, 1001.755
670.6324, 997.5256
671.1145, 996.7720
671.5966, 1001.709
672.0787, 1006.294
672.5609, 998.1769
673.0430, 980.3209
673.5251, 976.3248
674.0072, 990.8252
674.4893, 1004.920
674.9714, 1007.357
675.4536, 1001.853
675.9357, 997.8949
676.4178, 996.4323
676.8999, 994.4095
677.3820, 991.4576
677.8641, 988.2228
678.3463, 985.8041
678.8284, 983.1108
679.3105, 976.7961
679.7926, 965.8256
680.2747, 958.0588
680.7568, 965.9058
681.2390, 981.2625
681.7211, 982.4911
682.2032, 969.5706
682.6853, 958.5695
683.1674, 956.1619
683.6495, 959.9778
684.1317, 967.7372
684.6138, 982.0677
685.0959, 986.2086
685.5780, 966.7963
686.0601, 953.2318
686.5422, 956.6096
687.0244, 966.8134
687.5065, 974.0645
687.9886, 976.9000
688.4707, 977.7090
688.9528, 977.4387
689.4349, 976.1517
689.9171, 972.4219
690.3992, 967.7393
690.8813, 968.9320
691.3634, 977.5338
691.8455, 981.0546
692.3276, 964.3806
692.8098, 931.5388
693.2919, 920.0734
693.7740, 941.5107
694.2561, 958.8967
694.7382, 966.4238
695.2203, 966.8092
695.7025, 955.9312
696.1846, 938.6603
696.6667, 933.1655
697.1488, 953.6450
697.6309, 972.1896
698.1130, 970.8856
698.5952, 960.9691
699.0773, 955.8970
699.5594, 956.7204
700.0415, 957.9825
700.5236, 956.1256
701.0057, 953.8192
701.4879, 959.0272
701.9700, 972.6115
702.4521, 974.2251
702.9342, 957.0055
703.4163, 940.7740
703.8984, 937.7215
704.3806, 943.4836
704.8627, 947.2806
705.3448, 947.6346
705.8269, 950.3855
706.3090, 959.7184
706.7911, 968.3002
707.2733, 974.3829
707.7554, 975.8004
708.2375, 966.7905
708.7196, 946.3488
709.2017, 927.3619
709.6838, 921.8578
710.1660, 927.0983
710.6481, 939.8100
711.1302, 959.1037
711.6123, 970.6186
712.0944, 968.4360
712.5765, 960.1559
713.0587, 955.3846
713.5408, 954.5230
714.0229, 948.4032
714.5050, 926.9720
714.9871, 914.2558
715.4692, 919.7617
715.9514, 930.6678
716.4335, 938.9008
716.9156, 943.1911
717.3977, 942.5569
717.8798, 932.6036
718.3619, 923.3514
718.8441, 926.3360
719.3262, 934.0558
719.8083, 931.0104
720.2904, 917.2493
720.7725, 907.9979
721.2546, 914.1556
721.7368, 928.6896
722.2189, 934.3761
722.7010, 929.8708
723.1831, 925.3798
723.6652, 920.2460
724.1473, 918.0699
724.6295, 924.1955
725.1116, 933.3414
725.5937, 933.9297
726.0758, 922.4294
726.5579, 914.6353
727.0400, 917.2018
727.5222, 920.3689
728.0043, 916.9555
728.4864, 910.6860
728.9685, 908.6353
729.4506, 912.3751
729.9327, 916.4745
730.4149, 915.1539
730.8970, 911.0563
731.3791, 910.1662
731.8612, 912.2537
732.3433, 916.1799
732.8254, 922.3139
733.3076, 925.4066
733.7897, 919.1107
734.2718, 904.4152
734.7539, 894.0496
735.2360, 888.4346
735.7181, 886.5186
736.2003, 891.0242
736.6824, 896.3784
737.1645, 899.0992
737.6466, 899.8945
738.1287, 901.2446
738.6108, 904.4130
739.0930, 906.7635
739.5751, 907.5211
740.0572, 906.2044
740.5393, 899.8716
741.0214, 890.7964
741.5035, 886.4364
741.9857, 890.3491
742.4678, 897.6567
742.9499, 903.1093
743.4320, 906.3808
743.9141, 901.2321
744.3962, 885.3084
744.8784, 873.7990
745.3605, 873.9525
745.8426, 879.1296
746.3247, 880.8564
746.8068, 878.8926
747.2889, 875.3638
747.7711, 865.7657
748.2532, 860.4644
748.7353, 866.6778
749.2174, 874.6255
749.6995, 872.7339
750.1816, 863.5172
750.6638, 861.6579
751.1459, 879.2870
751.6280, 896.7288
752.1101, 892.9320
752.5922, 877.0768
753.0743, 866.0894
753.5565, 861.6248
754.0386, 857.0383
754.5207, 848.1308
755.0028, 839.2934
755.4849, 840.5768
755.9670, 853.5567
756.4492, 861.8672
756.9313, 864.5049
757.4134, 863.9788
757.8955, 858.3427
758.3776, 852.3876
758.8597, 856.3717
759.3419, 872.2778
759.8240, 876.5675
760.3061, 856.2482
760.7882, 837.2968
761.2703, 829.4724
761.7524, 827.9044
762.2346, 827.6390
762.7167, 827.9084
763.1988, 830.0961
763.6809, 836.2266
764.1630, 842.3871
764.6451, 843.1321
765.1273, 840.5598
765.6094, 839.7994
766.0915, 841.5153
766.5736, 844.5866
767.0557, 848.6732
767.5378, 852.0660
768.0200, 850.5908
768.5021, 843.3724
768.9842, 836.4473
769.4663, 829.4701
769.9484, 823.7330
770.4305, 819.7056
770.9127, 817.3212
771.3948, 816.2740
771.8769, 816.4614
772.3590, 818.8616
772.8411, 829.6133
773.3232, 835.3640
773.8054, 823.5396
774.2875, 809.0411
774.7696, 811.4603
775.2517, 828.4662
775.7338, 839.0334
776.2159, 829.1786
776.6981, 813.4524
777.1802, 808.1958
777.6623, 809.5134
778.1444, 808.3995
778.6265, 804.0579
779.1086, 800.0933
779.5908, 798.5234
780.0729, 798.5624
780.5550, 798.6995
781.0371, 798.8069
781.5192, 800.4684
782.0013, 804.2467
782.4835, 808.3138
782.9656, 813.7639
783.4477, 817.4541
783.9298, 813.1837
784.4119, 800.6333
784.8940, 794.8683
785.3762, 804.4973
785.8583, 810.6649
786.3404, 804.4537
786.8225, 795.7705
787.3046, 792.3503
787.7867, 794.4036
788.2689, 800.2492
788.7510, 811.5344
789.2331, 818.6673
789.7152, 808.4622
790.1973, 791.5191
790.6794, 785.7944
791.1616, 790.1171
791.6437, 793.0908
792.1258, 789.8058
792.6079, 783.3073
793.0900, 776.8751
793.5721, 770.7724
794.0543, 768.2124
794.5364, 769.8651
795.0185, 770.5360
795.5006, 767.9570
795.9827, 765.7576
796.4648, 768.6707
796.9470, 775.7712
797.4291, 777.0101
797.9112, 767.5491
798.3933, 759.0690
798.8754, 747.4819
799.3575, 741.5474
799.8397, 752.3114
800.3218, 770.6130
800.8039, 778.1778
801.2860, 769.3022
801.7681, 760.6231
802.2502, 761.4625
802.7324, 765.2717
803.2145, 766.9232
803.6966, 766.7936
804.1787, 766.4546
804.6608, 766.1665
805.1429, 764.5385
805.6251, 759.9031
806.1072, 753.8305
806.5893, 748.8937
807.0714, 745.3364
807.5535, 746.6448
808.0356, 753.8643
808.5178, 757.8811
808.9999, 751.6851
809.4820, 740.2472
809.9641, 736.5626
810.4462, 743.2531
810.9283, 748.3414
811.4105, 753.5402
811.8926, 754.3323
812.3747, 746.1454
812.8568, 734.4772
813.3389, 723.8820
813.8210, 714.5165
814.3032, 711.9436
814.7853, 724.0526
815.2674, 734.1042
815.7495, 735.5300
816.2316, 733.1082
816.7137, 729.9375
817.1959, 727.0569
817.6780, 725.6909
818.1601, 726.6176
818.6422, 727.8846
819.1243, 727.3735
819.6064, 726.3984
820.0886, 727.4930
820.5707, 730.0631
821.0528, 731.9582
821.5349, 732.3416
822.0170, 730.3378
822.4991, 723.8517
822.9813, 714.7717
823.4634, 712.2086
823.9455, 716.5718
824.4276, 718.4525
824.9097, 715.6351
825.3918, 711.1093
825.8740, 706.9402
826.3561, 702.9125
826.8382, 698.0397
827.3203, 689.5741
827.8024, 686.7001
828.2845, 694.9371
828.7667, 702.0182
829.2488, 703.8745
829.7309, 702.0552
830.2130, 698.2200
830.6951, 692.4920
831.1772, 684.8705
831.6594, 666.2590
832.1415, 656.8821
832.6236, 676.2579
833.1057, 701.1883
833.5878, 707.0924
834.0699, 696.2749
834.5521, 684.7030
835.0342, 678.9744
835.5163, 677.0726
835.9984, 680.1895
836.4805, 684.2509
836.9626, 682.3046
837.4448, 675.0242
837.9269, 664.4371
838.4090, 651.7511
838.8911, 644.0201
839.3732, 651.0538
839.8553, 667.0347
840.3375, 667.8375
840.8196, 653.0143
841.3017, 648.2328
841.7838, 660.4441
842.2659, 670.6309
842.7480, 664.7593
843.2302, 649.5094
843.7123, 641.8729
844.1944, 644.4308
844.6765, 646.1126
845.1586, 648.1210
845.6407, 647.4594
846.1229, 639.8772
846.6050, 631.3896
847.0871, 627.3746
847.5692, 627.8511
848.0513, 631.4964
848.5334, 645.5668
849.0156, 652.7277
849.4977, 640.1637
849.9798, 626.2084
850.4619, 628.0178
850.9440, 639.1140
851.4261, 642.4502
851.9083, 632.2935
852.3904, 622.5882
852.8725, 624.1031
853.3546, 629.2299
853.8367, 630.9136
854.3188, 629.6182
854.8010, 626.5590
855.2831, 622.2381
855.7652, 617.1346
856.2473, 611.1877
856.7294, 605.9129
857.2115, 604.0635
857.6937, 605.2493
858.1758, 608.1774
858.6579, 612.6516
859.1400, 617.7701
859.6221, 623.4899
860.1042, 627.0878
860.5864, 624.1743
861.0685, 615.0179
861.5506, 605.9990
862.0327, 595.7748
862.5148, 591.4838
862.9969, 597.0947
863.4791, 604.5184
863.9612, 608.9644
864.4433, 609.7850
864.9254, 603.8624
865.4075, 581.6115
865.8896, 572.7147
866.3718, 591.6831
866.8539, 606.0674
867.3360, 598.2125
867.8181, 583.9567
868.3002, 583.0690
868.7823, 595.6336
869.2645, 603.1589
869.7466, 598.5441
870.2287, 591.1754
870.7108, 580.3352
871.1929, 571.8225
871.6750, 572.9887
872.1572, 580.3568
872.6393, 585.3013
873.1214, 584.9026
873.6035, 583.4020
874.0856, 582.9524
874.5677, 583.7637
875.0499, 588.0994
875.5320, 593.2755
876.0141, 593.3781
876.4962, 587.7737
876.9783, 580.0020
877.4604, 571.8662
877.9426, 565.2604
878.4247, 564.0576
878.9068, 567.0382
879.3889, 570.5099
879.8710, 573.9385
880.3531, 575.0105
880.8353, 572.7736
881.3174, 567.6104
881.7995, 558.5727
882.2816, 547.5374
882.7637, 548.0963
883.2458, 562.2538
883.7280, 573.1444
884.2101, 577.9628
884.6922, 579.0270
885.1743, 576.3314
885.6564, 572.5463
886.1385, 574.3800
886.6207, 584.8223
887.1028, 587.0056
887.5849, 574.5903
888.0670, 564.1113
888.5491, 559.4498
889.0313, 558.8282
889.5134, 562.1351
889.9955, 568.3595
890.4776, 572.8157
890.9597, 573.6091
891.4418, 575.4661
891.9240, 580.9380
892.4061, 585.5570
892.8882, 587.4949
893.3703, 586.8812
893.8524, 583.9260
894.3345, 578.7225
894.8167, 571.7911
895.2988, 560.0378
895.7809, 550.6612
896.2630, 547.8687
896.7451, 549.0549
897.2272, 553.8345
897.7094, 559.8349
898.1915, 561.4174
898.6736, 556.5177
899.1557, 552.7001
899.6378, 558.8931
900.1199, 567.2164
900.6021, 567.7270
901.0842, 562.8339
901.5663, 556.4926
902.0484, 550.4061
902.5305, 548.1727
903.0126, 552.5897
903.4948, 558.5033
903.9769, 558.9149
904.4590, 554.5769
904.9411, 546.1027
905.4232, 534.4611
905.9053, 525.0731
906.3875, 519.7498
906.8696, 521.2388
907.3517, 534.1270
907.8338, 552.6319
908.3159, 556.8377
908.7980, 546.6427
909.2802, 536.3875
909.7623, 526.8967
910.2444, 522.7953
910.7265, 527.2954
911.2086, 535.4033
911.6907, 540.0689
912.1729, 541.3250
912.6550, 542.8008
913.1371, 545.8636
913.6192, 544.1731
914.1013, 533.0473
914.5834, 523.7538
915.0656, 523.9757
915.5477, 531.0054
916.0298, 539.6651
916.5119, 552.7604
916.9940, 556.7593
917.4761, 542.2935
917.9583, 532.0014
918.4404, 535.4044
918.9225, 541.1764
919.4046, 538.8320
919.8867, 531.2371
920.3688, 529.7686
920.8510, 539.3397
921.3331, 545.9669
921.8152, 548.9277
922.2973, 547.0685
922.7794, 535.1160
923.2615, 521.1276
923.7437, 513.9266
924.2258, 514.0235
924.7079, 517.9932
925.1900, 529.9297
925.6721, 537.1052
926.1542, 528.7947
926.6364, 518.8758
927.1185, 520.3176
927.6006, 527.4360
928.0827, 527.7729
928.5648, 519.3997
929.0469, 514.4025
929.5291, 524.3248
930.0112, 534.5005
930.4933, 531.7977
930.9754, 524.5189
931.4575, 522.9637
931.9396, 526.4377
932.4218, 530.0492
932.9039, 531.9713
933.3860, 531.7593
933.8681, 526.9225
934.3502, 521.4360
934.8323, 521.5337
935.3145, 524.5602
935.7966, 524.9727
936.2787, 522.3439
936.7608, 518.8197
937.2429, 515.3774
937.7250, 514.1462
938.2072, 519.8282
938.6893, 528.8114
939.1714, 533.1743
939.6535, 533.2502
940.1356, 530.4350
940.6177, 525.3275
941.0999, 519.4105
941.5820, 513.3079
942.0641, 509.2119
942.5462, 512.7095
943.0283, 521.9915
943.5104, 528.1469
943.9926, 530.7905
944.4747, 529.5448
944.9568, 524.1971
945.4389, 518.8370
945.9210, 517.7303
946.4031, 517.9861
946.8853, 509.2800
947.3674, 491.6888
947.8495, 483.2889
948.3316, 485.7118
948.8137, 492.4131
949.2958, 501.6088
949.7780, 510.5257
950.2601, 516.1057
950.7422, 518.6266
951.2243, 519.0750
951.7064, 516.8970
952.1885, 516.5239
952.6707, 519.0176
953.1528, 520.8532
953.6349, 520.2813
954.1170, 518.4873
954.5991, 517.0762
955.0812, 516.0023
955.5634, 514.0290
956.0455, 510.8622
956.5276, 507.4826
957.0097, 502.8269
957.4918, 500.5702
957.9739, 504.0249
958.4561, 509.6091
958.9382, 511.4957
959.4203, 509.4706
959.9024, 506.4479
960.3845, 498.5179
960.8666, 497.8152
961.3488, 511.9589
961.8309, 525.7120
962.3130, 529.6600
962.7951, 527.0311
963.2772, 523.9575
963.7593, 520.5472
964.2415, 516.0648
964.7236, 506.7192
965.2057, 501.8194
965.6878, 507.3942
966.1699, 513.5182
966.6520, 513.5776
967.1342, 509.5982
967.6163, 505.6584
968.0984, 500.9605
968.5805, 499.9383
969.0626, 509.3087
969.5447, 513.6513
970.0269, 502.7533
970.5090, 491.2091
970.9911, 492.3010
971.4732, 501.3069
971.9553, 504.4909
972.4374, 498.2571
972.9196, 494.6079
973.4017, 497.4254
973.8838, 500.1958
974.3659, 500.0518
974.8480, 499.3834
975.3301, 499.4640
975.8123, 500.9082
976.2944, 505.9278
976.7765, 517.5399
977.2586, 523.7393
977.7407, 517.7455
978.2228, 510.7718
978.7050, 509.4676
979.1871, 508.1690
979.6692, 497.4178
980.1513, 481.4029
980.6334, 476.4538
981.1155, 490.0798
981.5977, 502.2817
982.0798, 507.3473
982.5619, 509.2899
983.0440, 508.7608
983.5261, 507.2592
984.0082, 506.8069
984.4904, 506.8321
984.9725, 504.3548
985.4546, 497.3299
985.9367, 491.5382
986.4188, 489.4906
986.9009, 488.7448
987.3831, 487.7612
987.8652, 487.3492
988.3473, 488.3551
988.8294, 490.9249
989.3115, 495.6063
989.7936, 504.3941
990.2758, 509.8458
990.7579, 505.2892
991.2400, 500.3423
991.7221, 501.8362
992.2042, 506.0868
992.6863, 509.1871
993.1685, 510.3178
993.6506, 508.6286
994.1327, 501.8905
994.6148, 498.0639
995.0969, 503.8871
995.5790, 510.3884
996.0612, 510.7790
996.5433, 508.6538
997.0254, 509.9755
997.5075, 513.9034
997.9896, 513.2620
998.4717, 503.2723
998.9539, 495.5759
999.4360, 497.4151
999.9181, 501.3883
1000.400, 503.6451
1000.882, 504.1172
1001.364, 502.4326
1001.847, 499.1907
1002.329, 496.3515
1002.811, 494.1559
1003.293, 493.7906
1003.775, 498.2150
1004.257, 502.0574
1004.739, 498.8197
1005.221, 494.6258
1005.703, 499.5434
1006.186, 511.4469
1006.668, 518.1356
1007.150, 514.6929
1007.632, 508.4481
1008.114, 498.3792
1008.596, 491.4354
1009.078, 494.6287
1009.560, 501.8735
1010.043, 507.7174
1010.525, 510.4343
1011.007, 506.2098
1011.489, 489.7896
1011.971, 481.6426
1012.453, 499.8693
1012.935, 518.3525
1013.417, 521.1281
1013.899, 515.5210
1014.382, 506.8375
1014.864, 498.1980
1015.346, 496.4193
1015.828, 505.7208
1016.310, 511.7000
1016.792, 506.0918
1017.274, 498.9600
1017.756, 492.9776
1018.239, 490.4171
1018.721, 496.1290
1019.203, 506.8398
1019.685, 512.4456
1020.167, 509.4233
1020.649, 507.4251
1021.131, 513.8859
1021.613, 516.7259
1022.095, 503.3645
1022.578, 489.8036
1023.060, 493.8607
1023.542, 509.4590
1024.024, 519.0563
1024.506, 518.9838
1024.988, 515.9031
1025.470, 505.8532
1025.952, 500.5155
1026.435, 511.5435
1026.917, 522.3125
1027.399, 515.9619
1027.881, 500.0640
1028.363, 492.0931
1028.845, 495.0186
1029.327, 499.6335
1029.809, 508.2404
1030.292, 512.8370
1030.774, 507.7412
1031.256, 501.5220
1031.738, 498.3806
1032.220, 498.8279
1032.702, 505.4201
1033.184, 519.2777
1033.666, 525.1089
1034.148, 513.9944
1034.630, 505.5470
1035.113, 504.6620
1035.595, 505.3209
1036.077, 504.7531
1036.559, 503.3933
1037.041, 502.1678
1037.523, 501.1230
1038.005, 498.6381
1038.487, 488.5071
1038.970, 487.0925
1039.452, 504.0289
1039.934, 518.5172
1040.416, 520.3400
1040.898, 516.0013
1041.380, 512.7894
1041.862, 510.5374
1042.344, 507.0436
1042.826, 499.3412
1043.309, 497.3365
1043.791, 505.1076
1044.273, 511.5534
1044.755, 511.9817
1045.237, 510.4499
1045.719, 511.6426
1046.201, 514.2664
1046.683, 511.4352
1047.166, 498.9594
1047.648, 496.6321
1048.130, 510.1642
1048.612, 516.3290
1049.094, 504.9349
1049.576, 492.7443
1050.058, 495.0414
1050.540, 505.4667
1051.022, 505.1701
1051.505, 491.8680
1051.987, 493.3698
1052.469, 513.7277
1052.951, 521.5880
1053.433, 507.2956
1053.915, 492.2067
1054.397, 490.6224
1054.879, 496.8504
1055.361, 501.6443
1055.844, 504.6658
1056.326, 500.0435
1056.808, 487.8037
1057.290, 481.6277
1057.772, 483.8549
1058.254, 492.8089
1058.736, 508.4132
1059.218, 520.6035
1059.701, 513.4356
1060.183, 494.2804
1060.665, 488.6652
1061.147, 494.2342
1061.629, 498.8478
1062.111, 501.0968
1062.593, 503.3291
1063.075, 506.3185
1063.557, 505.2678
1064.040, 492.6781
1064.522, 479.1198
1065.004, 490.8680
1065.486, 514.4612
1065.968, 514.1537
1066.450, 494.2377
1066.932, 477.4807
1067.414, 470.5440
1067.896, 470.2973
1068.379, 475.6922
1068.861, 482.8665
1069.343, 488.4792
1069.825, 492.3913
1070.307, 493.2220
1070.789, 492.7086
1071.271, 495.8522
1071.753, 501.5433
1072.236, 501.5232
1072.718, 491.2462
1073.200, 480.7075
1073.682, 476.3146
1074.164, 475.5503
1074.646, 478.4348
1075.128, 482.1257
1075.610, 482.9875
1076.093, 481.7344
1076.575, 482.2887
1077.057, 485.8900
1077.539, 484.5390
1078.021, 466.6909
1078.503, 453.8181
1078.985, 459.4453
1079.467, 470.0151
1079.949, 476.6963
1080.432, 480.1499
1080.914, 482.1294
1081.396, 482.9927
1081.878, 484.9251
1082.360, 490.7809
1082.842, 493.9635
1083.324, 491.9338
1083.806, 488.8773
1084.288, 485.4637
1084.771, 482.8606
1085.253, 481.7988
1085.735, 482.5588
1086.217, 487.1332
1086.699, 499.6685
1087.181, 504.7845
1087.663, 500.0619
1088.145, 492.2361
1088.628, 479.9713
1089.110, 470.7744
1089.592, 470.6128
1090.074, 476.7416
1090.556, 483.8654
1091.038, 492.1298
1091.520, 497.2180
1092.002, 499.2556
1092.484, 495.8463
1092.967, 485.3565
1093.449, 477.6099
1093.931, 477.4886
1094.413, 483.2100
1094.895, 494.2029
1095.377, 507.1096
1095.859, 508.0388
1096.341, 498.5863
1096.823, 490.5626
1097.306, 484.9449
1097.788, 479.8100
1098.270, 474.6599
1098.752, 471.9492
1099.234, 474.0345
1099.716, 477.9597
1100.198, 479.1328
1100.680, 478.8769
1101.163, 480.0749
1101.645, 482.1181
1102.127, 484.0763
1102.609, 485.0486
1103.091, 481.8708
1103.573, 472.7948
1104.055, 464.5365
1104.537, 464.1487
1105.020, 465.5221
1105.502, 460.1797
1105.984, 455.5267
1106.466, 465.4679
1106.948, 482.1862
1107.430, 484.6374
1107.912, 469.4651
1108.394, 460.1507
1108.876, 472.6228
1109.359, 482.9828
1109.841, 483.0373
1110.323, 477.5288
1110.805, 462.2045
1111.287, 447.8772
1111.769, 450.6456
1112.251, 467.1059
1112.733, 475.7666
1113.215, 470.5378
1113.698, 467.9901
1114.180, 471.0500
1114.662, 472.9462
1115.144, 471.6898
1115.626, 469.4903
1116.108, 467.2770
1116.590, 465.6790
1117.072, 466.2319
1117.555, 468.9550
1118.037, 468.9711
1118.519, 465.3562
1119.001, 464.9307
1119.483, 469.3135
1119.965, 470.6050
1120.447, 464.7493
1120.929, 459.8549
1121.411, 464.7920
1121.894, 475.5721
1122.376, 484.1714
1122.858, 489.3765
1123.340, 482.1612
1123.822, 464.8792
1124.304, 449.2471
1124.786, 439.1554
1125.268, 441.0383
1125.750, 459.2598
1126.233, 478.4366
1126.715, 479.4348
1127.197, 472.4937
1127.679, 470.7576
1128.161, 471.5763
1128.643, 470.6361
1129.125, 468.1456
1129.607, 466.6014
1130.090, 466.3749
1130.572, 463.9036
1131.054, 453.0970
1131.536, 447.3067
1132.018, 460.0925
1132.500, 472.8995
1132.982, 471.5120
1133.464, 464.0051
1133.947, 458.8411
1134.429, 457.0875
1134.911, 459.8173
1135.393, 470.3039
1135.875, 474.4333
1136.357, 466.6414
1136.839, 458.6745
1137.321, 448.6239
1137.803, 444.8578
1138.286, 455.4050
1138.768, 471.1257
1139.250, 478.7927
1139.732, 479.0161
1140.214, 477.7056
1140.696, 474.9117
1141.178, 469.2970
1141.660, 460.2855
1142.142, 454.1114
1142.625, 452.8897
1143.107, 453.0523
1143.589, 451.7803
1144.071, 450.5670
1144.553, 453.0343
1145.035, 457.3339
1145.517, 457.3628
1145.999, 445.3734
1146.482, 455.3227
1146.964, 460.9079
1147.446, 462.3635
1147.928, 447.3209
1148.410, 453.5822
1148.892, 451.3060
1149.374, 448.6796
1149.856, 457.9394
1150.339, 445.2964
1150.821, 454.3677
1151.303, 454.7711
1151.785, 459.1416
1152.267, 454.9216
1152.749, 453.3550
1153.231, 460.3816
1153.713, 462.6500
1154.195, 457.4412
1154.677, 462.0638
1155.160, 449.1207
1155.642, 451.5918
1156.124, 460.7134
1156.606, 455.9365
1157.088, 460.7162
1157.570, 461.8562
1158.052, 446.4554
1158.534, 459.8208
1159.017, 460.7457
1159.499, 448.8970
1159.981, 461.2767
1160.463, 451.1890
1160.945, 449.1208
1161.427, 453.0878
1161.909, 450.7633
1162.391, 458.3580
1162.874, 456.3968
1163.356, 453.5819
1163.838, 454.4928
1164.320, 454.6850
1164.802, 460.6481
1165.284, 458.8226
1165.766, 446.4471
1166.248, 438.4489
1166.730, 446.1765
1167.213, 457.8483
1167.695, 468.0134
1168.177, 473.3747
1168.659, 465.0646
1169.141, 454.4524
1169.623, 460.0805
1170.105, 475.3459
1170.587, 476.2156
1171.069, 456.2877
1171.552, 440.5919
1172.034, 432.0492
1172.516, 430.0905
1172.998, 439.3827
1173.480, 448.3439
1173.962, 452.5961
1174.444, 453.5018
1174.926, 451.4416
1175.409, 447.9953
1175.891, 449.1598
1176.373, 455.4038
1176.855, 459.6198
1177.337, 461.7968
1177.819, 463.5922
1178.301, 465.2235
1178.783, 462.0320
1179.266, 451.7240
1179.748, 441.8785
1180.230, 440.4818
1180.712, 444.5473
1181.194, 452.4178
1181.676, 460.3134
1182.158, 461.6212
1182.640, 457.6118
1183.122, 448.7482
1183.604, 438.0911
1184.087, 436.0990
1184.569, 447.9452
1185.051, 457.9916
1185.533, 458.4646
1186.015, 456.4924
1186.497, 452.7975
1186.979, 450.1338
1187.461, 450.2507
1187.944, 452.6382
1188.426, 457.8643
1188.908, 464.8477
1189.390, 466.4107
1189.872, 459.4393
1190.354, 458.9593
1190.836, 467.3271
1191.318, 471.4632
1191.801, 468.1127
1192.283, 462.5514
1192.765, 457.4318
1193.247, 454.2611
1193.729, 455.2154
1194.211, 459.0420
1194.693, 463.9230
1195.175, 468.7439
1195.657, 470.7995
1196.140, 470.0635
1196.622, 465.8843
1197.104, 459.3102
1197.586, 454.6249
1198.068, 453.6654
1198.550, 455.3131
1199.032, 461.4713
1199.514, 466.6560
1199.996, 466.9253
1200.479, 465.8548
1200.961, 468.5750
1201.443, 470.3825
1201.925, 460.9652
1202.407, 442.6757
1202.889, 435.7841
1203.371, 444.5102
1203.853, 451.5887
1204.336, 457.0535
1204.818, 460.3975
1205.300, 460.9193
1205.782, 462.7496
1206.264, 468.7022
1206.746, 472.7531
1207.228, 466.5366
1207.710, 455.5029
1208.193, 454.0080
1208.675, 458.6926
1209.157, 460.4454
1209.639, 459.5079
1210.121, 458.4382
1210.603, 457.3147
1211.085, 453.2989
1211.567, 445.1299
1212.049, 440.2455
1212.531, 444.9384
1213.014, 451.7717
1213.496, 458.2946
1213.978, 463.9399
1214.460, 467.9041
1214.942, 471.0570
1215.424, 475.2565
1215.906, 479.4896
1216.388, 479.7317
1216.871, 475.0828
1217.353, 472.1706
1217.835, 471.7652
1218.317, 469.5154
1218.799, 464.4571
1219.281, 459.5225
1219.763, 455.6726
1220.245, 456.1042
1220.728, 464.8087
1221.210, 475.0890
1221.692, 473.2125
1222.174, 465.4574
1222.656, 464.9190
1223.138, 468.6688
1223.620, 470.8583
1224.102, 470.8307
1224.584, 468.9178
1225.067, 465.5499
1225.549, 463.9783
1226.031, 466.6732
1226.513, 469.2450
1226.995, 471.0988
1227.477, 471.4021
1227.959, 469.0835
##END=



