##NAMES=Dawsonite
##RRUFFID=R050645
##IDEAL CHEMISTRY=NaAlCO_3_(OH)_2_
##LOCALITY=Cerro Sapo, Cochabamba Department, Bolivia
##OWNER=RRUFF
##SOURCE=Marcus Origlieri
##DESCRIPTION=White fibrous aggregates associated with blue sodalite on pale green ankerite.
##STATUS=The identification of this mineral is confirmed by single-crystal X-ray diffraction and chemical analysis.
##URL=rruff.info/R050645
##MEASURED CHEMISTRY=Na_1.00_(Al_0.99_Fe^3+^_0.01_)_Î£=1_CO_3_(OH)_2_
142.9236, 1785.640
143.4057, 1863.791
143.8878, 1922.602
144.3699, 1993.801
144.8521, 2081.646
145.3342, 2181.253
145.8163, 2274.352
146.2984, 2358.367
146.7805, 2439.930
147.2626, 2524.172
147.7448, 2610.443
148.2269, 2700.080
148.7090, 2804.507
149.1911, 2920.949
149.6732, 2997.412
150.1554, 3032.374
150.6375, 3028.286
151.1196, 2987.259
151.6017, 2879.199
152.0838, 2764.529
152.5659, 2642.696
153.0481, 2508.930
153.5302, 2400.557
154.0123, 2326.156
154.4944, 2275.535
154.9765, 2238.345
155.4586, 2220.409
155.9408, 2209.547
156.4229, 2200.373
156.9050, 2179.329
157.3871, 2164.604
157.8692, 2184.033
158.3513, 2219.007
158.8335, 2238.919
159.3156, 2220.290
159.7977, 2198.437
160.2798, 2189.591
160.7619, 2200.974
161.2440, 2215.065
161.7262, 2226.383
162.2083, 2236.423
162.6904, 2249.012
163.1725, 2264.627
163.6546, 2283.603
164.1367, 2306.129
164.6189, 2333.839
165.1010, 2363.337
165.5831, 2389.650
166.0652, 2414.693
166.5473, 2448.955
167.0294, 2505.804
167.5116, 2570.523
167.9937, 2628.446
168.4758, 2659.789
168.9579, 2693.924
169.4400, 2750.022
169.9221, 2827.434
170.4043, 2914.789
170.8864, 3007.651
171.3685, 3104.789
171.8506, 3206.421
172.3327, 3307.733
172.8148, 3414.902
173.2970, 3531.887
173.7791, 3658.497
174.2612, 3798.240
174.7433, 3957.632
175.2254, 4130.921
175.7076, 4307.870
176.1897, 4480.109
176.6718, 4653.661
177.1539, 4840.171
177.6360, 5043.030
178.1181, 5252.231
178.6003, 5454.794
179.0824, 5657.070
179.5645, 5873.047
180.0466, 6108.814
180.5287, 6368.779
181.0108, 6659.094
181.4930, 6985.711
181.9751, 7337.673
182.4572, 7702.737
182.9393, 8082.284
183.4214, 8460.150
183.9035, 8816.772
184.3857, 9160.941
184.8678, 9530.531
185.3499, 9944.552
185.8320, 10370.87
186.3141, 10749.39
186.7962, 11083.43
187.2784, 11365.50
187.7605, 11598.37
188.2426, 11777.66
188.7247, 11890.03
189.2068, 11955.10
189.6889, 11940.37
190.1711, 11742.96
190.6532, 11357.81
191.1353, 10853.47
191.6174, 10275.78
192.0995, 9636.656
192.5816, 8974.278
193.0638, 8280.646
193.5459, 7574.889
194.0280, 6954.177
194.5101, 6419.567
194.9922, 5942.202
195.4743, 5478.046
195.9565, 5032.135
196.4386, 4632.493
196.9207, 4294.719
197.4028, 4017.380
197.8849, 3789.622
198.3671, 3615.028
198.8492, 3476.378
199.3313, 3348.217
199.8134, 3229.659
200.2955, 3124.557
200.7776, 3032.306
201.2598, 2952.612
201.7419, 2892.193
202.2240, 2852.820
202.7061, 2829.342
203.1882, 2811.967
203.6703, 2800.496
204.1525, 2795.504
204.6346, 2798.169
205.1167, 2809.131
205.5988, 2821.290
206.0809, 2832.619
206.5630, 2846.169
207.0452, 2867.776
207.5273, 2895.258
208.0094, 2937.574
208.4915, 3004.252
208.9736, 3099.519
209.4557, 3191.902
209.9379, 3274.664
210.4200, 3354.207
210.9021, 3455.246
211.3842, 3583.949
211.8663, 3720.734
212.3484, 3852.074
212.8306, 3976.194
213.3127, 4100.479
213.7948, 4227.312
214.2769, 4355.237
214.7590, 4477.053
215.2411, 4593.467
215.7233, 4700.818
216.2054, 4803.321
216.6875, 4918.234
217.1696, 4975.011
217.6517, 4962.293
218.1338, 4881.186
218.6160, 4745.629
219.0981, 4540.627
219.5802, 4300.679
220.0623, 4052.476
220.5444, 3785.878
221.0265, 3537.088
221.5087, 3309.366
221.9908, 3101.942
222.4729, 2921.551
222.9550, 2770.485
223.4371, 2641.788
223.9192, 2526.837
224.4014, 2429.650
224.8835, 2342.121
225.3656, 2264.383
225.8477, 2195.994
226.3298, 2133.048
226.8119, 2072.631
227.2941, 2019.864
227.7762, 1980.494
228.2583, 1960.257
228.7404, 1943.266
229.2225, 1925.876
229.7046, 1907.653
230.1868, 1893.098
230.6689, 1884.076
231.1510, 1877.252
231.6331, 1868.274
232.1152, 1856.154
232.5974, 1843.791
233.0795, 1831.666
233.5616, 1819.858
234.0437, 1808.252
234.5258, 1794.918
235.0079, 1783.182
235.4901, 1777.930
235.9722, 1780.960
236.4543, 1787.666
236.9364, 1798.471
237.4185, 1816.253
237.9006, 1825.002
238.3828, 1818.315
238.8649, 1806.609
239.3470, 1806.890
239.8291, 1824.314
240.3112, 1845.431
240.7933, 1865.532
241.2755, 1883.285
241.7576, 1904.896
242.2397, 1930.153
242.7218, 1959.277
243.2039, 1992.581
243.6860, 2029.536
244.1682, 2071.699
244.6503, 2120.344
245.1324, 2178.793
245.6145, 2232.952
246.0966, 2279.159
246.5787, 2322.951
247.0609, 2374.650
247.5430, 2434.414
248.0251, 2501.859
248.5072, 2577.748
248.9893, 2662.973
249.4714, 2751.135
249.9536, 2840.089
250.4357, 2932.905
250.9178, 3035.390
251.3999, 3142.863
251.8820, 3265.860
252.3641, 3412.501
252.8463, 3592.966
253.3284, 3762.122
253.8105, 3909.945
254.2926, 4049.912
254.7747, 4213.292
255.2568, 4418.020
255.7390, 4615.322
256.2211, 4786.239
256.7032, 4920.726
257.1853, 5057.116
257.6674, 5204.607
258.1495, 5348.362
258.6317, 5460.136
259.1138, 5555.162
259.5959, 5587.054
260.0780, 5533.248
260.5601, 5381.373
261.0422, 5176.437
261.5244, 4907.079
262.0065, 4590.870
262.4886, 4268.248
262.9707, 3922.053
263.4528, 3600.442
263.9349, 3322.243
264.4171, 3090.806
264.8992, 2886.970
265.3813, 2707.916
265.8634, 2554.538
266.3455, 2429.907
266.8276, 2338.564
267.3098, 2261.783
267.7919, 2190.623
268.2740, 2124.919
268.7561, 2068.293
269.2382, 2022.638
269.7203, 1985.738
270.2025, 1954.602
270.6846, 1931.714
271.1667, 1907.689
271.6488, 1875.596
272.1309, 1832.576
272.6130, 1800.988
273.0952, 1785.457
273.5773, 1776.861
274.0594, 1753.396
274.5415, 1709.596
275.0236, 1673.943
275.5057, 1664.769
275.9879, 1685.772
276.4700, 1694.661
276.9521, 1688.203
277.4342, 1673.143
277.9163, 1661.191
278.3984, 1652.672
278.8806, 1645.385
279.3627, 1637.084
279.8448, 1627.611
280.3269, 1625.753
280.8090, 1634.614
281.2911, 1645.974
281.7733, 1643.999
282.2554, 1627.291
282.7375, 1612.200
283.2196, 1606.220
283.7017, 1609.020
284.1838, 1615.458
284.6660, 1626.911
285.1481, 1638.479
285.6302, 1642.244
286.1123, 1638.149
286.5944, 1632.878
287.0765, 1628.793
287.5587, 1625.939
288.0408, 1626.058
288.5229, 1630.645
289.0050, 1633.359
289.4871, 1623.694
289.9692, 1602.605
290.4514, 1581.420
290.9335, 1560.346
291.4156, 1542.195
291.8977, 1543.217
292.3798, 1566.529
292.8619, 1592.657
293.3441, 1594.057
293.8262, 1574.919
294.3083, 1559.305
294.7904, 1561.170
295.2726, 1573.445
295.7547, 1578.179
296.2368, 1575.028
296.7189, 1567.180
297.2010, 1556.240
297.6831, 1543.087
298.1653, 1530.361
298.6474, 1516.400
299.1295, 1504.478
299.6116, 1502.591
300.0937, 1511.077
300.5758, 1519.831
301.0580, 1518.246
301.5401, 1509.725
302.0222, 1501.862
302.5043, 1495.016
302.9864, 1491.796
303.4685, 1498.597
303.9507, 1515.028
304.4328, 1530.264
304.9149, 1535.603
305.3970, 1534.015
305.8791, 1530.210
306.3612, 1523.389
306.8434, 1516.995
307.3255, 1514.295
307.8076, 1515.153
308.2897, 1518.434
308.7718, 1526.495
309.2539, 1535.553
309.7361, 1540.831
310.2182, 1539.729
310.7003, 1535.659
311.1824, 1528.618
311.6645, 1519.668
312.1466, 1514.269
312.6288, 1517.152
313.1109, 1524.186
313.5930, 1531.983
314.0751, 1543.231
314.5572, 1550.272
315.0393, 1546.026
315.5215, 1533.450
316.0036, 1522.857
316.4857, 1517.924
316.9678, 1517.076
317.4499, 1519.467
317.9320, 1526.699
318.4142, 1534.065
318.8963, 1541.772
319.3784, 1548.483
319.8605, 1551.051
320.3426, 1543.650
320.8247, 1535.193
321.3069, 1530.138
321.7890, 1528.818
322.2711, 1531.324
322.7532, 1541.854
323.2353, 1555.829
323.7174, 1564.684
324.1996, 1560.901
324.6817, 1556.684
325.1638, 1557.600
325.6459, 1567.740
326.1280, 1572.510
326.6101, 1565.978
327.0923, 1554.432
327.5744, 1547.050
328.0565, 1546.796
328.5386, 1548.283
329.0207, 1551.061
329.5028, 1556.053
329.9850, 1558.384
330.4671, 1556.265
330.9492, 1552.534
331.4313, 1550.077
331.9134, 1547.834
332.3955, 1548.587
332.8777, 1555.255
333.3598, 1568.325
333.8419, 1572.160
334.3240, 1558.714
334.8061, 1544.248
335.2882, 1544.832
335.7704, 1569.643
336.2525, 1588.493
336.7346, 1596.229
337.2167, 1593.596
337.6988, 1585.462
338.1809, 1566.739
338.6631, 1552.384
339.1452, 1556.927
339.6273, 1585.442
340.1094, 1607.669
340.5915, 1619.133
341.0736, 1622.146
341.5558, 1624.136
342.0379, 1625.353
342.5200, 1624.699
343.0021, 1619.090
343.4842, 1608.598
343.9663, 1605.363
344.4485, 1611.447
344.9306, 1623.971
345.4127, 1640.143
345.8948, 1659.989
346.3769, 1674.347
346.8590, 1671.056
347.3412, 1655.891
347.8233, 1658.064
348.3054, 1682.020
348.7875, 1712.757
349.2696, 1727.939
349.7517, 1730.666
350.2339, 1737.226
350.7160, 1758.623
351.1981, 1788.123
351.6802, 1813.987
352.1623, 1835.726
352.6444, 1853.666
353.1266, 1869.330
353.6087, 1881.331
354.0908, 1886.095
354.5729, 1869.735
355.0550, 1852.746
355.5371, 1862.786
356.0193, 1898.167
356.5014, 1930.870
356.9835, 1938.718
357.4656, 1932.969
357.9477, 1927.284
358.4298, 1926.116
358.9120, 1926.072
359.3941, 1926.669
359.8762, 1927.200
360.3583, 1924.443
360.8404, 1913.067
361.3225, 1899.941
361.8047, 1890.788
362.2868, 1890.887
362.7689, 1888.014
363.2510, 1876.704
363.7331, 1858.990
364.2152, 1839.777
364.6974, 1813.347
365.1795, 1791.577
365.6616, 1780.883
366.1437, 1786.433
366.6258, 1791.137
367.1079, 1791.312
367.5901, 1789.434
368.0722, 1789.217
368.5543, 1791.064
369.0364, 1794.677
369.5185, 1801.870
370.0006, 1814.813
370.4828, 1819.567
370.9649, 1806.777
371.4470, 1791.900
371.9291, 1790.710
372.4112, 1816.680
372.8933, 1833.592
373.3755, 1828.633
373.8576, 1804.707
374.3397, 1805.774
374.8218, 1844.658
375.3039, 1887.981
375.7861, 1907.571
376.2682, 1892.958
376.7503, 1895.493
377.2324, 1924.706
377.7145, 1972.147
378.1967, 2014.595
378.6788, 2051.064
379.1609, 2085.429
379.6430, 2120.512
380.1251, 2155.985
380.6072, 2186.946
381.0894, 2211.322
381.5715, 2235.061
382.0536, 2270.430
382.5357, 2316.744
383.0178, 2358.245
383.4999, 2384.653
383.9821, 2400.932
384.4642, 2424.167
384.9463, 2455.758
385.4284, 2484.555
385.9105, 2500.746
386.3926, 2505.808
386.8748, 2504.299
387.3569, 2500.597
387.8390, 2488.934
388.3211, 2459.168
388.8032, 2412.229
389.2853, 2361.544
389.7675, 2322.461
390.2496, 2282.076
390.7317, 2222.929
391.2138, 2127.390
391.6959, 2034.490
392.1780, 1968.181
392.6602, 1923.845
393.1423, 1887.848
393.6244, 1855.138
394.1065, 1827.679
394.5886, 1808.793
395.0707, 1804.016
395.5529, 1792.416
396.0350, 1755.566
396.5171, 1710.482
396.9992, 1682.012
397.4813, 1691.517
397.9634, 1703.357
398.4456, 1707.638
398.9277, 1703.059
399.4098, 1696.463
399.8919, 1683.435
400.3740, 1671.265
400.8561, 1666.055
401.3383, 1674.935
401.8204, 1680.571
402.3025, 1680.525
402.7846, 1675.471
403.2667, 1669.527
403.7488, 1662.278
404.2310, 1654.950
404.7131, 1648.182
405.1952, 1642.045
405.6773, 1635.889
406.1594, 1627.903
406.6415, 1621.626
407.1237, 1627.573
407.6058, 1648.582
408.0879, 1664.436
408.5700, 1662.416
409.0521, 1644.378
409.5342, 1636.423
410.0164, 1639.598
410.4985, 1647.896
410.9806, 1657.429
411.4627, 1667.291
411.9448, 1671.157
412.4269, 1663.674
412.9091, 1651.140
413.3912, 1646.518
413.8733, 1649.198
414.3554, 1652.950
414.8375, 1653.167
415.3196, 1651.263
415.8018, 1649.372
416.2839, 1647.837
416.7660, 1646.724
417.2481, 1646.351
417.7302, 1646.506
418.2123, 1646.665
418.6945, 1647.131
419.1766, 1647.145
419.6587, 1644.783
420.1408, 1638.683
420.6229, 1637.199
421.1050, 1646.908
421.5872, 1662.131
422.0693, 1676.417
422.5514, 1693.576
423.0335, 1703.907
423.5156, 1701.814
423.9977, 1687.611
424.4799, 1675.715
424.9620, 1663.578
425.4441, 1657.423
425.9262, 1661.118
426.4083, 1686.448
426.8904, 1704.005
427.3726, 1709.990
427.8547, 1708.242
428.3368, 1709.309
428.8189, 1715.701
429.3010, 1720.445
429.7831, 1719.335
430.2653, 1710.719
430.7474, 1710.465
431.2295, 1721.490
431.7116, 1735.872
432.1937, 1742.006
432.6758, 1738.935
433.1580, 1741.155
433.6401, 1755.101
434.1222, 1776.344
434.6043, 1789.536
435.0864, 1794.399
435.5685, 1797.686
436.0507, 1803.746
436.5328, 1812.381
437.0149, 1823.760
437.4970, 1839.219
437.9791, 1853.966
438.4612, 1862.333
438.9434, 1864.980
439.4255, 1864.055
439.9076, 1853.057
440.3897, 1843.339
440.8718, 1851.312
441.3539, 1879.323
441.8361, 1901.292
442.3182, 1898.523
442.8003, 1882.379
443.2824, 1865.801
443.7645, 1851.386
444.2466, 1838.799
444.7288, 1828.789
445.2109, 1820.840
445.6930, 1812.791
446.1751, 1804.295
446.6572, 1795.326
447.1393, 1785.521
447.6215, 1771.806
448.1036, 1762.566
448.5857, 1760.252
449.0678, 1761.620
449.5499, 1761.524
450.0320, 1759.936
450.5142, 1757.012
450.9963, 1753.050
451.4784, 1748.073
451.9605, 1739.660
452.4426, 1725.533
452.9247, 1712.348
453.4069, 1706.287
453.8890, 1707.958
454.3711, 1710.221
454.8532, 1712.411
455.3353, 1714.072
455.8174, 1712.946
456.2996, 1709.061
456.7817, 1707.307
457.2638, 1715.438
457.7459, 1727.498
458.2281, 1724.539
458.7102, 1703.604
459.1923, 1683.220
459.6744, 1686.038
460.1565, 1703.118
460.6386, 1715.909
461.1208, 1715.105
461.6029, 1709.711
462.0850, 1705.748
462.5671, 1703.317
463.0492, 1702.932
463.5313, 1708.242
464.0135, 1713.723
464.4956, 1714.852
464.9777, 1709.119
465.4598, 1703.125
465.9419, 1696.366
466.4240, 1690.904
466.9062, 1690.227
467.3883, 1701.228
467.8704, 1710.523
468.3525, 1713.680
468.8346, 1709.979
469.3167, 1708.634
469.7989, 1708.762
470.2810, 1711.972
470.7631, 1721.578
471.2452, 1744.090
471.7273, 1753.374
472.2094, 1742.648
472.6916, 1720.612
473.1737, 1708.283
473.6558, 1706.756
474.1379, 1708.242
474.6200, 1711.354
475.1021, 1715.340
475.5843, 1711.667
476.0664, 1699.090
476.5485, 1687.101
477.0306, 1687.584
477.5127, 1697.317
477.9948, 1706.623
478.4770, 1713.445
478.9591, 1717.523
479.4412, 1715.603
479.9233, 1709.520
480.4054, 1707.380
480.8875, 1717.516
481.3697, 1731.436
481.8518, 1742.002
482.3339, 1747.839
482.8160, 1752.155
483.2981, 1756.958
483.7802, 1760.906
484.2624, 1762.209
484.7445, 1758.290
485.2266, 1754.010
485.7087, 1748.740
486.1908, 1742.987
486.6729, 1743.200
487.1551, 1756.096
487.6372, 1768.701
488.1193, 1774.232
488.6014, 1768.240
489.0835, 1766.566
489.5656, 1772.513
490.0478, 1779.763
490.5299, 1776.759
491.0120, 1760.633
491.4941, 1747.915
491.9762, 1744.811
492.4583, 1749.103
492.9405, 1749.564
493.4226, 1745.906
493.9047, 1742.229
494.3868, 1741.265
494.8689, 1742.852
495.3510, 1746.853
495.8332, 1753.674
496.3153, 1761.402
496.7974, 1766.883
497.2795, 1771.508
497.7616, 1778.535
498.2437, 1796.182
498.7259, 1811.964
499.2080, 1812.448
499.6901, 1798.202
500.1722, 1789.300
500.6543, 1801.207
501.1364, 1818.437
501.6186, 1829.384
502.1007, 1828.154
502.5828, 1825.915
503.0649, 1820.051
503.5470, 1814.829
504.0291, 1819.591
504.5113, 1842.570
504.9934, 1865.319
505.4755, 1882.562
505.9576, 1893.940
506.4397, 1908.707
506.9218, 1928.235
507.4040, 1948.575
507.8861, 1965.913
508.3682, 1979.746
508.8503, 1995.768
509.3324, 2015.104
509.8145, 2036.044
510.2967, 2055.772
510.7788, 2074.266
511.2609, 2091.687
511.7430, 2109.227
512.2252, 2125.396
512.7073, 2133.317
513.1894, 2133.181
513.6715, 2140.348
514.1536, 2174.881
514.6357, 2220.896
515.1179, 2258.815
515.6000, 2284.740
516.0821, 2300.066
516.5642, 2304.926
517.0463, 2300.058
517.5284, 2286.942
518.0106, 2263.991
518.4927, 2234.710
518.9748, 2199.224
519.4569, 2156.649
519.9390, 2114.543
520.4211, 2071.294
520.9033, 2029.920
521.3854, 1992.369
521.8675, 1958.838
522.3496, 1927.962
522.8317, 1897.331
523.3138, 1870.791
523.7960, 1860.912
524.2781, 1871.266
524.7602, 1874.428
525.2423, 1854.224
525.7244, 1818.018
526.2065, 1799.573
526.6887, 1799.484
527.1708, 1807.509
527.6529, 1820.961
528.1350, 1835.333
528.6171, 1840.071
529.0992, 1830.808
529.5814, 1818.008
530.0635, 1808.460
530.5456, 1802.438
531.0277, 1800.291
531.5098, 1805.051
531.9919, 1811.187
532.4741, 1816.500
532.9562, 1820.757
533.4383, 1823.347
533.9204, 1822.244
534.4025, 1820.649
534.8846, 1820.724
535.3668, 1825.961
535.8489, 1826.979
536.3310, 1822.071
536.8131, 1814.084
537.2952, 1806.173
537.7773, 1796.191
538.2595, 1792.985
538.7416, 1800.828
539.2237, 1817.272
539.7058, 1829.228
540.1879, 1836.623
540.6700, 1842.041
541.1522, 1849.262
541.6343, 1856.321
542.1164, 1854.135
542.5985, 1840.652
543.0806, 1825.057
543.5627, 1813.147
544.0449, 1806.419
544.5270, 1808.134
545.0091, 1828.896
545.4912, 1849.284
545.9733, 1850.811
546.4554, 1839.221
546.9376, 1836.242
547.4197, 1867.066
547.9018, 1895.270
548.3839, 1898.343
548.8660, 1864.119
549.3481, 1842.261
549.8303, 1844.926
550.3124, 1856.069
550.7945, 1861.644
551.2766, 1857.863
551.7587, 1857.155
552.2408, 1861.863
552.7230, 1869.977
553.2051, 1875.986
553.6872, 1879.575
554.1693, 1883.179
554.6514, 1888.167
555.1335, 1894.146
555.6157, 1897.998
556.0978, 1899.534
556.5799, 1903.768
557.0620, 1920.999
557.5441, 1942.915
558.0262, 1951.990
558.5084, 1938.624
558.9905, 1926.408
559.4726, 1939.250
559.9547, 1964.922
560.4368, 1981.589
560.9189, 1970.968
561.4011, 1959.163
561.8832, 1953.456
562.3653, 1954.476
562.8474, 1966.739
563.3295, 2008.106
563.8116, 2046.151
564.2938, 2064.516
564.7759, 2053.517
565.2580, 2049.973
565.7401, 2055.345
566.2222, 2066.403
566.7043, 2078.384
567.1865, 2090.622
567.6686, 2110.041
568.1507, 2140.233
568.6328, 2176.620
569.1149, 2207.868
569.5970, 2234.956
570.0792, 2266.672
570.5613, 2312.728
571.0434, 2364.555
571.5255, 2405.708
572.0076, 2434.636
572.4897, 2475.616
572.9719, 2548.791
573.4540, 2640.273
573.9361, 2735.542
574.4182, 2831.798
574.9003, 2930.371
575.3824, 3028.572
575.8646, 3130.001
576.3467, 3239.810
576.8288, 3357.913
577.3109, 3484.823
577.7930, 3619.494
578.2751, 3762.106
578.7573, 3916.217
579.2394, 4084.287
579.7215, 4257.102
580.2036, 4437.068
580.6857, 4623.148
581.1678, 4783.710
581.6500, 4913.776
582.1321, 5033.444
582.6142, 5157.329
583.0963, 5287.614
583.5784, 5436.563
584.0605, 5617.733
584.5427, 5804.136
585.0248, 5971.688
585.5069, 6121.153
585.9890, 6255.076
586.4711, 6390.131
586.9532, 6495.341
587.4354, 6562.196
587.9175, 6591.129
588.3996, 6551.418
588.8817, 6423.347
589.3638, 6233.832
589.8459, 5994.841
590.3281, 5685.864
590.8102, 5371.516
591.2923, 5046.295
591.7744, 4725.238
592.2565, 4432.943
592.7386, 4170.523
593.2208, 3927.786
593.7029, 3701.961
594.1850, 3493.390
594.6671, 3306.396
595.1492, 3140.100
595.6313, 2994.186
596.1135, 2871.886
596.5956, 2768.708
597.0777, 2678.170
597.5598, 2599.670
598.0419, 2530.462
598.5240, 2464.965
599.0062, 2409.209
599.4883, 2369.247
599.9704, 2359.381
600.4525, 2344.312
600.9346, 2310.303
601.4167, 2267.904
601.8989, 2235.305
602.3810, 2217.404
602.8631, 2202.923
603.3452, 2192.338
603.8273, 2183.703
604.3094, 2163.223
604.7916, 2127.531
605.2737, 2094.081
605.7558, 2072.975
606.2379, 2062.951
606.7200, 2057.831
607.2021, 2058.156
607.6843, 2055.239
608.1664, 2034.292
608.6485, 2006.053
609.1306, 1989.406
609.6127, 1993.230
610.0948, 2000.730
610.5770, 2001.799
611.0591, 1999.143
611.5412, 1997.350
612.0233, 2003.299
612.5054, 2004.611
612.9875, 1993.861
613.4697, 1972.720
613.9518, 1959.842
614.4339, 1960.167
614.9160, 1961.208
615.3981, 1956.396
615.8802, 1944.854
616.3624, 1940.135
616.8445, 1944.041
617.3266, 1948.809
617.8087, 1945.208
618.2908, 1935.209
618.7729, 1929.366
619.2551, 1930.793
619.7372, 1932.836
620.2193, 1928.156
620.7014, 1918.361
621.1835, 1906.870
621.6656, 1889.712
622.1478, 1876.462
622.6299, 1874.934
623.1120, 1882.640
623.5941, 1888.560
624.0762, 1891.989
624.5583, 1891.070
625.0405, 1882.124
625.5226, 1862.634
626.0047, 1856.499
626.4868, 1871.335
626.9689, 1887.741
627.4510, 1888.620
627.9332, 1872.480
628.4153, 1860.543
628.8974, 1854.389
629.3795, 1853.506
629.8616, 1861.205
630.3438, 1874.320
630.8259, 1880.641
631.3080, 1869.926
631.7901, 1858.201
632.2722, 1868.277
632.7543, 1891.839
633.2365, 1904.004
633.7186, 1881.552
634.2007, 1855.964
634.6828, 1842.098
635.1649, 1841.199
635.6470, 1845.597
636.1292, 1863.090
636.6113, 1877.638
637.0934, 1879.571
637.5755, 1864.114
638.0576, 1852.900
638.5397, 1846.032
639.0219, 1843.193
639.5040, 1844.987
639.9861, 1851.094
640.4682, 1857.578
640.9503, 1864.031
641.4324, 1869.370
641.9146, 1871.578
642.3967, 1871.359
642.8788, 1870.645
643.3609, 1870.574
643.8430, 1870.090
644.3251, 1866.566
644.8073, 1861.112
645.2894, 1860.360
645.7715, 1874.742
646.2536, 1886.940
646.7357, 1885.988
647.2178, 1867.586
647.7000, 1863.294
648.1821, 1883.622
648.6642, 1903.206
649.1463, 1896.414
649.6284, 1859.791
650.1105, 1843.297
650.5927, 1855.158
651.0748, 1875.563
651.5569, 1874.985
652.0390, 1859.438
652.5211, 1849.336
653.0032, 1852.999
653.4854, 1862.054
653.9675, 1872.247
654.4496, 1881.915
654.9317, 1886.920
655.4138, 1883.078
655.8959, 1876.526
656.3781, 1867.386
656.8602, 1856.032
657.3423, 1852.403
657.8244, 1862.037
658.3065, 1872.792
658.7886, 1878.517
659.2708, 1878.268
659.7529, 1880.883
660.2350, 1887.392
660.7171, 1893.435
661.1992, 1894.885
661.6813, 1892.228
662.1635, 1886.864
662.6456, 1878.076
663.1277, 1870.152
663.6099, 1869.961
664.0920, 1873.458
664.5741, 1873.536
665.0562, 1861.771
665.5383, 1852.205
666.0204, 1853.599
666.5026, 1862.001
666.9847, 1866.288
667.4668, 1854.931
667.9489, 1850.634
668.4310, 1863.600
668.9131, 1891.193
669.3953, 1898.705
669.8774, 1880.254
670.3595, 1861.273
670.8416, 1859.445
671.3237, 1871.534
671.8058, 1876.228
672.2880, 1872.619
672.7701, 1869.473
673.2522, 1878.556
673.7343, 1891.708
674.2164, 1895.321
674.6985, 1882.842
675.1807, 1873.621
675.6628, 1884.218
676.1449, 1901.658
676.6270, 1910.569
677.1091, 1896.309
677.5912, 1888.111
678.0734, 1893.059
678.5555, 1904.276
679.0376, 1905.655
679.5197, 1893.957
680.0018, 1883.972
680.4839, 1880.366
680.9661, 1881.441
681.4482, 1882.760
681.9303, 1884.170
682.4124, 1883.822
682.8945, 1877.758
683.3766, 1870.742
683.8588, 1868.800
684.3409, 1872.097
684.8230, 1878.280
685.3051, 1891.264
685.7872, 1903.181
686.2693, 1907.752
686.7515, 1900.947
687.2336, 1896.368
687.7157, 1895.462
688.1978, 1896.397
688.6799, 1897.964
689.1620, 1900.671
689.6442, 1901.679
690.1263, 1900.482
690.6084, 1897.955
691.0905, 1894.681
691.5726, 1891.024
692.0547, 1888.394
692.5369, 1885.335
693.0190, 1886.220
693.5011, 1902.419
693.9832, 1926.564
694.4653, 1940.411
694.9474, 1925.582
695.4296, 1909.183
695.9117, 1901.490
696.3938, 1902.647
696.8759, 1909.370
697.3580, 1928.318
697.8401, 1943.007
698.3223, 1944.111
698.8044, 1931.306
699.2865, 1934.910
699.7686, 1958.365
700.2507, 1979.050
700.7328, 1973.568
701.2150, 1951.183
701.6971, 1938.724
702.1792, 1938.868
702.6613, 1945.347
703.1434, 1959.457
703.6255, 1974.070
704.1077, 1981.257
704.5898, 1978.725
705.0719, 1969.296
705.5540, 1941.366
706.0361, 1912.025
706.5182, 1904.566
707.0004, 1932.227
707.4825, 1954.863
707.9646, 1966.905
708.4467, 1971.644
708.9288, 1975.051
709.4109, 1977.182
709.8931, 1978.836
710.3752, 1979.013
710.8573, 1980.170
711.3394, 1987.213
711.8215, 1999.047
712.3036, 2011.143
712.7858, 2018.646
713.2679, 2027.811
713.7500, 2044.351
714.2321, 2067.780
714.7142, 2087.989
715.1964, 2098.480
715.6785, 2109.327
716.1606, 2122.787
716.6427, 2138.063
717.1248, 2164.400
717.6069, 2203.269
718.0891, 2247.965
718.5712, 2293.038
719.0533, 2338.865
719.5354, 2384.544
720.0175, 2430.529
720.4996, 2475.619
720.9818, 2520.179
721.4639, 2563.390
721.9460, 2603.062
722.4281, 2632.899
722.9102, 2671.921
723.3923, 2732.932
723.8745, 2804.618
724.3566, 2872.517
724.8387, 2928.140
725.3208, 2994.401
725.8029, 3080.067
726.2850, 3172.832
726.7672, 3249.936
727.2493, 3311.760
727.7314, 3368.376
728.2135, 3432.123
728.6956, 3481.414
729.1777, 3480.840
729.6599, 3435.369
730.1420, 3363.437
730.6241, 3267.429
731.1062, 3154.068
731.5883, 3017.622
732.0704, 2863.000
732.5526, 2725.356
733.0347, 2609.485
733.5168, 2513.970
733.9989, 2439.567
734.4810, 2386.423
734.9631, 2345.365
735.4453, 2318.054
735.9274, 2297.104
736.4095, 2278.890
736.8916, 2262.872
737.3737, 2245.601
737.8558, 2226.724
738.3380, 2214.438
738.8201, 2221.540
739.3022, 2235.017
739.7843, 2240.166
740.2664, 2230.904
740.7485, 2226.750
741.2307, 2240.711
741.7128, 2257.333
742.1949, 2263.350
742.6770, 2253.506
743.1591, 2246.337
743.6412, 2242.649
744.1234, 2241.605
744.6055, 2242.852
745.0876, 2246.099
745.5697, 2249.668
746.0518, 2254.493
746.5339, 2255.997
747.0161, 2246.694
747.4982, 2230.679
747.9803, 2215.318
748.4624, 2202.814
748.9445, 2191.967
749.4266, 2184.746
749.9088, 2178.497
750.3909, 2166.974
750.8730, 2148.712
751.3551, 2127.090
751.8372, 2099.752
752.3193, 2071.167
752.8015, 2060.160
753.2836, 2066.415
753.7657, 2071.377
754.2478, 2065.358
754.7299, 2053.665
755.2120, 2043.047
755.6942, 2033.712
756.1763, 2027.108
756.6584, 2026.188
757.1405, 2026.096
757.6226, 2023.659
758.1047, 2018.654
758.5869, 2015.563
759.0690, 2016.716
759.5511, 2016.517
760.0332, 2011.182
760.5153, 2000.936
760.9974, 1997.573
761.4796, 2001.895
761.9617, 2006.010
762.4438, 2000.397
762.9259, 1991.395
763.4080, 1994.441
763.8901, 2011.047
764.3723, 2022.999
764.8544, 2013.221
765.3365, 1997.862
765.8186, 1989.635
766.3007, 1992.221
766.7828, 1996.415
767.2650, 2003.505
767.7471, 2009.803
768.2292, 2012.380
768.7113, 2011.109
769.1934, 2005.299
769.6755, 1993.183
770.1577, 1983.261
770.6398, 1990.216
771.1219, 2006.455
771.6040, 2012.466
772.0861, 2000.227
772.5682, 1990.405
773.0504, 2006.406
773.5325, 2028.388
774.0146, 2032.856
774.4967, 1989.307
774.9788, 1963.289
775.4609, 1967.033
775.9431, 1983.170
776.4252, 1985.123
776.9073, 1970.730
777.3894, 1961.206
777.8715, 1960.443
778.3536, 1966.953
778.8358, 1985.098
779.3179, 2008.919
779.8000, 2021.968
780.2821, 2013.194
780.7642, 1998.396
781.2463, 1983.102
781.7285, 1968.926
782.2106, 1959.540
782.6927, 1955.362
783.1748, 1956.886
783.6569, 1967.257
784.1390, 1982.149
784.6212, 1989.169
785.1033, 1987.589
785.5854, 1985.199
786.0675, 1984.383
786.5496, 1984.765
787.0317, 1986.088
787.5139, 1988.080
787.9960, 1989.865
788.4781, 1990.734
788.9602, 1991.492
789.4423, 1992.715
789.9244, 1994.296
790.4066, 1995.479
790.8887, 1994.674
791.3708, 1995.911
791.8529, 2001.630
792.3350, 2010.536
792.8171, 2012.959
793.2993, 2008.459
793.7814, 2007.434
794.2635, 2026.317
794.7456, 2047.480
795.2277, 2032.756
795.7098, 1989.183
796.1920, 1956.889
796.6741, 1963.719
797.1562, 1981.431
797.6383, 1996.184
798.1204, 2007.135
798.6025, 2016.447
799.0847, 2025.178
799.5668, 2030.477
800.0489, 2028.554
800.5310, 2020.806
801.0131, 2024.566
801.4952, 2040.057
801.9774, 2052.426
802.4595, 2042.243
802.9416, 2027.281
803.4237, 2033.211
803.9058, 2060.394
804.3879, 2085.665
804.8701, 2101.301
805.3522, 2109.873
805.8343, 2108.915
806.3164, 2096.766
806.7985, 2099.435
807.2806, 2123.907
807.7628, 2147.405
808.2449, 2152.549
808.7270, 2142.577
809.2091, 2135.612
809.6912, 2132.035
810.1733, 2138.063
810.6555, 2167.212
811.1376, 2203.136
811.6197, 2229.455
812.1018, 2243.764
812.5839, 2254.555
813.0660, 2261.915
813.5482, 2268.248
814.0303, 2273.205
814.5124, 2275.106
814.9945, 2289.012
815.4766, 2317.252
815.9587, 2348.551
816.4409, 2377.518
816.9230, 2402.171
817.4051, 2412.059
817.8872, 2406.520
818.3693, 2404.150
818.8514, 2424.448
819.3336, 2449.248
819.8157, 2463.219
820.2978, 2461.626
820.7799, 2460.348
821.2620, 2459.737
821.7441, 2460.728
822.2263, 2467.177
822.7084, 2480.230
823.1905, 2475.537
823.6726, 2451.293
824.1547, 2418.802
824.6368, 2383.468
825.1190, 2348.375
825.6011, 2317.995
826.0832, 2293.197
826.5653, 2268.481
827.0474, 2240.031
827.5295, 2211.294
828.0117, 2183.621
828.4938, 2155.248
828.9760, 2136.161
829.4581, 2128.880
829.9402, 2125.674
830.4223, 2123.030
830.9044, 2119.785
831.3865, 2104.984
831.8687, 2077.450
832.3508, 2055.076
832.8329, 2060.589
833.3150, 2074.762
833.7971, 2078.282
834.2792, 2066.537
834.7614, 2053.608
835.2435, 2036.896
835.7256, 2024.803
836.2077, 2024.254
836.6898, 2038.227
837.1719, 2041.302
837.6541, 2031.200
838.1362, 2022.494
838.6183, 2035.208
839.1004, 2056.724
839.5825, 2056.588
840.0646, 2031.107
840.5468, 2011.298
841.0289, 2024.079
841.5110, 2042.565
841.9931, 2045.044
842.4752, 2023.148
842.9573, 2015.333
843.4395, 2028.105
843.9216, 2043.187
844.4037, 2047.012
844.8858, 2041.000
845.3679, 2035.926
845.8500, 2031.940
846.3322, 2034.101
846.8143, 2054.239
847.2964, 2077.774
847.7785, 2088.452
848.2606, 2083.792
848.7427, 2078.990
849.2249, 2079.095
849.7070, 2079.130
850.1891, 2076.628
850.6712, 2071.522
851.1533, 2065.336
851.6354, 2057.089
852.1176, 2054.116
852.5997, 2066.084
853.0818, 2085.530
853.5639, 2098.365
854.0460, 2104.262
854.5281, 2105.262
855.0103, 2094.732
855.4924, 2086.174
855.9745, 2090.239
856.4566, 2108.041
856.9387, 2118.139
857.4208, 2117.083
857.9030, 2115.808
858.3851, 2121.941
858.8672, 2132.384
859.3493, 2130.789
859.8314, 2118.061
860.3135, 2105.121
860.7957, 2096.022
861.2778, 2091.854
861.7599, 2097.906
862.2420, 2111.990
862.7241, 2117.298
863.2062, 2100.732
863.6884, 2085.260
864.1705, 2077.474
864.6526, 2076.148
865.1347, 2073.526
865.6168, 2069.430
866.0989, 2067.964
866.5811, 2074.239
867.0632, 2082.046
867.5453, 2081.599
868.0274, 2074.939
868.5095, 2069.034
868.9916, 2065.059
869.4738, 2064.247
869.9559, 2069.388
870.4380, 2078.174
870.9201, 2083.069
871.4022, 2082.789
871.8843, 2085.201
872.3665, 2095.752
872.8486, 2106.452
873.3307, 2095.293
873.8128, 2069.356
874.2949, 2052.860
874.7770, 2063.214
875.2592, 2077.877
875.7413, 2086.145
876.2234, 2090.015
876.7055, 2093.606
877.1876, 2098.037
877.6697, 2100.302
878.1519, 2098.816
878.6340, 2096.415
879.1161, 2098.191
879.5982, 2103.697
880.0803, 2110.560
880.5624, 2118.493
881.0446, 2126.750
881.5267, 2138.673
882.0088, 2149.047
882.4909, 2150.935
882.9730, 2134.170
883.4551, 2120.692
883.9373, 2110.237
884.4194, 2105.017
884.9015, 2107.946
885.3836, 2119.070
885.8657, 2136.318
886.3478, 2160.524
886.8300, 2183.971
887.3121, 2198.142
887.7942, 2206.704
888.2763, 2215.151
888.7584, 2225.475
889.2405, 2231.900
889.7227, 2222.711
890.2048, 2217.127
890.6869, 2228.948
891.1690, 2261.332
891.6511, 2293.775
892.1332, 2327.151
892.6154, 2353.174
893.0975, 2355.471
893.5796, 2348.854
894.0617, 2362.086
894.5438, 2396.878
895.0259, 2428.776
895.5081, 2450.027
895.9902, 2461.869
896.4723, 2464.746
896.9544, 2459.215
897.4365, 2443.330
897.9186, 2414.627
898.4008, 2385.135
898.8829, 2361.446
899.3650, 2341.589
899.8471, 2319.954
900.3292, 2296.904
900.8113, 2273.827
901.2935, 2248.866
901.7756, 2226.485
902.2577, 2210.008
902.7398, 2198.608
903.2219, 2187.820
903.7040, 2178.063
904.1862, 2166.896
904.6683, 2151.492
905.1504, 2136.584
905.6325, 2135.526
906.1146, 2145.044
906.5967, 2151.440
907.0789, 2147.187
907.5610, 2140.925
908.0431, 2138.389
908.5252, 2137.744
909.0073, 2135.697
909.4894, 2132.203
909.9716, 2126.027
910.4537, 2114.105
910.9358, 2104.100
911.4179, 2110.748
911.9000, 2130.553
912.3821, 2142.808
912.8643, 2142.279
913.3464, 2140.417
913.8285, 2151.411
914.3106, 2163.415
914.7927, 2162.425
915.2748, 2135.169
915.7570, 2122.614
916.2391, 2131.426
916.7212, 2146.890
917.2033, 2157.889
917.6854, 2165.025
918.1675, 2176.908
918.6497, 2193.961
919.1318, 2204.408
919.6139, 2195.378
920.0960, 2178.476
920.5781, 2159.270
921.0602, 2138.312
921.5424, 2133.544
922.0245, 2158.222
922.5066, 2182.572
922.9887, 2194.600
923.4708, 2196.640
923.9529, 2201.054
924.4351, 2207.746
924.9172, 2215.583
925.3993, 2224.211
925.8814, 2233.494
926.3635, 2243.361
926.8456, 2253.915
927.3278, 2265.281
927.8099, 2281.413
928.2920, 2292.971
928.7741, 2297.624
929.2562, 2297.711
929.7383, 2297.100
930.2205, 2295.918
930.7026, 2296.592
931.1847, 2300.720
931.6668, 2303.974
932.1489, 2297.806
932.6310, 2289.835
933.1132, 2291.232
933.5953, 2316.960
934.0774, 2328.067
934.5595, 2314.627
935.0416, 2295.242
935.5237, 2287.308
936.0059, 2290.204
936.4880, 2289.435
936.9701, 2284.234
937.4522, 2274.302
937.9343, 2252.720
938.4164, 2230.699
938.8986, 2204.602
939.3807, 2222.456
939.8628, 2232.198
940.3449, 2234.266
940.8270, 2205.669
941.3091, 2216.669
941.7913, 2211.800
942.2734, 2206.281
942.7555, 2222.853
943.2376, 2198.717
943.7197, 2214.939
944.2018, 2215.050
944.6840, 2222.535
945.1661, 2214.054
945.6482, 2210.504
946.1303, 2222.926
946.6124, 2226.504
947.0945, 2216.185
947.5767, 2224.138
948.0588, 2199.445
948.5409, 2203.399
949.0230, 2219.715
949.5051, 2210.198
949.9872, 2218.444
950.4694, 2219.925
950.9515, 2190.663
951.4336, 2214.866
951.9157, 2215.947
952.3978, 2193.287
952.8799, 2215.658
953.3621, 2196.271
953.8442, 2191.789
954.3263, 2198.524
954.8084, 2193.565
955.2905, 2207.043
955.7726, 2202.760
956.2548, 2196.890
956.7369, 2197.945
957.2190, 2179.377
957.7011, 2197.214
958.1832, 2190.183
958.6653, 2195.514
959.1475, 2203.646
959.6296, 2190.325
960.1117, 2199.716
960.5938, 2173.885
961.0759, 2177.526
961.5580, 2177.993
962.0402, 2197.298
962.5223, 2171.639
963.0044, 2174.461
963.4865, 2189.410
963.9686, 2187.390
964.4507, 2192.465
964.9329, 2176.538
965.4150, 2180.341
965.8971, 2178.705
966.3792, 2195.862
966.8613, 2198.183
967.3434, 2182.612
967.8256, 2167.116
968.3077, 2185.626
968.7898, 2171.906
969.2719, 2175.573
969.7540, 2161.282
970.2361, 2162.497
970.7183, 2163.465
971.2004, 2172.383
971.6825, 2157.198
972.1646, 2173.277
972.6467, 2171.287
973.1288, 2174.619
973.6110, 2177.359
974.0931, 2155.851
974.5752, 2154.221
975.0573, 2194.145
975.5394, 2207.679
976.0215, 2211.151
976.5037, 2201.602
976.9858, 2177.877
977.4679, 2160.262
977.9500, 2152.649
978.4321, 2152.017
978.9142, 2160.122
979.3964, 2170.670
979.8785, 2173.639
980.3606, 2162.068
980.8427, 2159.676
981.3248, 2177.770
981.8069, 2195.947
982.2891, 2199.733
982.7712, 2189.986
983.2533, 2187.770
983.7354, 2192.858
984.2175, 2198.134
984.6996, 2199.453
985.1818, 2198.357
985.6639, 2192.405
986.1460, 2183.942
986.6281, 2186.265
987.1102, 2209.070
987.5923, 2224.505
988.0745, 2224.506
988.5566, 2216.601
989.0387, 2216.849
989.5208, 2222.520
990.0029, 2223.569
990.4850, 2215.933
990.9672, 2206.279
991.4493, 2190.159
991.9314, 2179.208
992.4135, 2188.710
992.8957, 2230.226
993.3778, 2247.927
993.8599, 2236.957
994.3420, 2221.881
994.8242, 2224.978
995.3063, 2236.972
995.7884, 2240.074
996.2705, 2234.639
996.7526, 2229.359
997.2347, 2227.585
997.7169, 2227.662
998.1990, 2232.399
998.6811, 2237.586
999.1632, 2225.190
999.6453, 2193.966
1000.127, 2180.327
1000.610, 2200.601
1001.092, 2228.653
1001.574, 2233.743
1002.056, 2226.635
1002.538, 2222.556
1003.020, 2225.117
1003.502, 2231.287
1003.984, 2243.808
1004.466, 2255.134
1004.949, 2256.531
1005.431, 2250.083
1005.913, 2253.379
1006.395, 2266.306
1006.877, 2276.625
1007.359, 2275.737
1007.841, 2269.733
1008.323, 2258.939
1008.806, 2245.488
1009.288, 2241.713
1009.770, 2250.085
1010.252, 2261.242
1010.734, 2275.083
1011.216, 2285.875
1011.698, 2278.807
1012.180, 2261.724
1012.662, 2253.743
1013.145, 2266.913
1013.627, 2273.966
1014.109, 2255.430
1014.591, 2234.376
1015.073, 2229.420
1015.555, 2242.765
1016.037, 2252.448
1016.519, 2258.351
1017.002, 2263.807
1017.484, 2274.844
1017.966, 2284.203
1018.448, 2283.084
1018.930, 2272.807
1019.412, 2262.477
1019.894, 2250.512
1020.376, 2244.470
1020.858, 2248.104
1021.341, 2255.956
1021.823, 2254.451
1022.305, 2247.106
1022.787, 2248.199
1023.269, 2262.586
1023.751, 2281.850
1024.233, 2311.781
1024.715, 2336.466
1025.198, 2337.974
1025.680, 2309.587
1026.162, 2298.509
1026.644, 2307.186
1027.126, 2319.962
1027.608, 2329.314
1028.090, 2333.987
1028.572, 2329.467
1029.054, 2317.953
1029.536, 2308.458
1030.019, 2295.570
1030.501, 2297.830
1030.983, 2329.913
1031.465, 2369.018
1031.947, 2367.241
1032.429, 2330.399
1032.911, 2313.707
1033.393, 2330.276
1033.876, 2350.939
1034.358, 2353.124
1034.840, 2347.585
1035.322, 2343.733
1035.804, 2342.972
1036.286, 2340.504
1036.768, 2334.119
1037.250, 2333.577
1037.733, 2348.124
1038.215, 2368.992
1038.697, 2377.181
1039.179, 2375.645
1039.661, 2373.865
1040.143, 2375.680
1040.625, 2377.679
1041.107, 2378.955
1041.589, 2379.900
1042.072, 2381.224
1042.554, 2382.938
1043.036, 2382.175
1043.518, 2378.257
1044.000, 2377.799
1044.482, 2393.241
1044.964, 2409.776
1045.446, 2412.673
1045.928, 2400.507
1046.411, 2393.011
1046.893, 2391.387
1047.375, 2393.009
1047.857, 2397.397
1048.339, 2403.846
1048.821, 2409.869
1049.303, 2416.728
1049.785, 2428.424
1050.268, 2452.172
1050.750, 2469.642
1051.232, 2471.165
1051.714, 2466.242
1052.196, 2459.437
1052.678, 2450.154
1053.160, 2455.993
1053.642, 2477.502
1054.125, 2497.437
1054.607, 2494.663
1055.089, 2492.716
1055.571, 2516.319
1056.053, 2560.224
1056.535, 2595.129
1057.017, 2615.713
1057.499, 2635.346
1057.981, 2654.967
1058.464, 2677.724
1058.946, 2709.212
1059.428, 2747.400
1059.910, 2787.885
1060.392, 2830.482
1060.874, 2872.730
1061.356, 2912.624
1061.838, 2952.999
1062.320, 2996.501
1062.803, 3042.615
1063.285, 3085.827
1063.767, 3125.924
1064.249, 3157.136
1064.731, 3171.419
1065.213, 3181.050
1065.695, 3196.515
1066.177, 3213.646
1066.660, 3224.996
1067.142, 3232.074
1067.624, 3227.454
1068.106, 3208.255
1068.588, 3185.761
1069.070, 3173.704
1069.552, 3165.702
1070.034, 3145.549
1070.516, 3114.158
1070.999, 3100.598
1071.481, 3132.014
1071.963, 3163.096
1072.445, 3176.684
1072.927, 3183.933
1073.409, 3216.636
1073.891, 3271.102
1074.373, 3320.806
1074.855, 3351.989
1075.338, 3399.732
1075.820, 3497.150
1076.302, 3616.960
1076.784, 3735.018
1077.266, 3846.573
1077.748, 3977.535
1078.230, 4128.016
1078.713, 4293.041
1079.195, 4467.800
1079.677, 4659.547
1080.159, 4874.900
1080.641, 5114.907
1081.123, 5375.565
1081.605, 5664.670
1082.087, 5963.556
1082.569, 6276.784
1083.052, 6594.060
1083.534, 6900.606
1084.016, 7200.046
1084.498, 7521.913
1084.980, 7866.877
1085.462, 8208.852
1085.944, 8560.886
1086.426, 8876.276
1086.908, 9134.411
1087.391, 9342.172
1087.873, 9524.995
1088.355, 9682.393
1088.837, 9789.764
1089.319, 9836.620
1089.801, 9841.674
1090.283, 9836.809
1090.765, 9791.104
1091.248, 9664.388
1091.730, 9443.725
1092.212, 9184.146
1092.694, 8874.217
1093.176, 8570.853
1093.658, 8322.774
1094.140, 8093.675
1094.622, 7813.530
1095.104, 7499.992
1095.587, 7208.284
1096.069, 6961.958
1096.551, 6728.516
1097.033, 6500.711
1097.515, 6287.632
1097.997, 6107.576
1098.479, 5952.188
1098.961, 5779.402
1099.443, 5586.411
1099.926, 5399.345
1100.408, 5236.994
1100.890, 5083.887
1101.372, 4930.933
1101.854, 4780.251
1102.336, 4648.095
1102.818, 4533.490
1103.300, 4411.876
1103.783, 4275.018
1104.265, 4143.018
1104.747, 4040.680
1105.229, 3951.514
1105.711, 3859.309
1106.193, 3761.080
1106.675, 3673.614
1107.157, 3598.866
1107.640, 3530.157
1108.122, 3466.481
1108.604, 3405.472
1109.086, 3341.242
1109.568, 3277.857
1110.050, 3224.193
1110.532, 3187.804
1111.014, 3154.175
1111.496, 3124.091
1111.979, 3092.099
1112.461, 3050.153
1112.943, 3001.608
1113.425, 2961.353
1113.907, 2929.411
1114.389, 2902.423
1114.871, 2884.097
1115.353, 2864.560
1115.835, 2838.305
1116.318, 2809.499
1116.800, 2784.434
1117.282, 2763.497
1117.764, 2750.116
1118.246, 2746.326
1118.728, 2737.504
1119.210, 2707.473
1119.692, 2671.606
1120.175, 2640.204
1120.657, 2614.272
1121.139, 2596.706
1121.621, 2588.427
1122.103, 2581.248
1122.585, 2571.971
1123.067, 2563.541
1123.549, 2561.144
1124.031, 2561.111
1124.514, 2558.746
1124.996, 2553.491
1125.478, 2543.592
1125.960, 2527.613
1126.442, 2511.267
1126.924, 2497.496
1127.406, 2486.063
1127.888, 2476.580
1128.370, 2469.108
1128.853, 2464.000
1129.335, 2464.890
1129.817, 2462.981
1130.299, 2456.422
1130.781, 2447.851
1131.263, 2428.146
1131.745, 2445.434
1132.227, 2454.611
1132.710, 2456.111
1133.192, 2426.948
1133.674, 2437.383
1134.156, 2431.948
1134.638, 2425.863
1135.120, 2441.870
1135.602, 2417.168
1136.084, 2432.824
1136.567, 2432.368
1137.049, 2439.288
1137.531, 2430.241
1138.013, 2426.126
1138.495, 2437.982
1138.977, 2423.023
1139.459, 2433.207
1139.941, 2431.583
1140.423, 2416.986
1140.906, 2404.787
1141.388, 2399.951
1141.870, 2399.242
1142.352, 2401.326
1142.834, 2404.330
1143.316, 2405.626
1143.798, 2403.905
1144.280, 2406.551
1144.762, 2415.703
1145.245, 2419.882
1145.727, 2405.770
1146.209, 2389.115
1146.691, 2404.074
1147.173, 2433.076
1147.655, 2438.986
1148.137, 2375.194
1148.619, 2347.171
1149.102, 2367.688
1149.584, 2399.954
1150.066, 2411.696
1150.548, 2410.151
1151.030, 2409.827
1151.512, 2410.988
1151.994, 2412.272
1152.476, 2412.806
1152.958, 2413.790
1153.441, 2414.958
1153.923, 2417.351
1154.405, 2423.191
1154.887, 2431.532
1155.369, 2442.292
1155.851, 2455.186
1156.333, 2455.704
1156.815, 2417.212
1157.297, 2387.432
1157.780, 2390.119
1158.262, 2410.649
1158.744, 2407.211
1159.226, 2384.923
1159.708, 2381.162
1160.190, 2408.028
1160.672, 2431.951
1161.154, 2428.777
1161.637, 2415.923
1162.119, 2402.131
1162.601, 2389.063
1163.083, 2389.905
1163.565, 2403.974
1164.047, 2415.954
1164.529, 2421.650
1165.011, 2419.958
1165.494, 2400.622
1165.976, 2379.470
1166.458, 2373.967
1166.940, 2385.793
1167.422, 2401.284
1167.904, 2421.306
1168.386, 2432.233
1168.868, 2419.744
1169.350, 2401.995
1169.833, 2393.641
1170.315, 2392.663
1170.797, 2397.063
1171.279, 2411.076
1171.761, 2412.041
1172.243, 2396.705
1172.725, 2385.483
1173.207, 2400.909
1173.689, 2424.219
1174.172, 2434.771
1174.654, 2434.517
1175.136, 2431.021
1175.618, 2423.743
1176.100, 2417.372
1176.582, 2411.531
1177.064, 2409.828
1177.546, 2419.915
1178.029, 2434.233
1178.511, 2442.120
1178.993, 2443.391
1179.475, 2445.386
1179.957, 2454.315
1180.439, 2450.510
1180.921, 2423.757
1181.403, 2397.642
1181.885, 2417.813
1182.368, 2457.518
1182.850, 2465.319
1183.332, 2432.490
1183.814, 2412.102
1184.296, 2421.466
1184.778, 2429.973
1185.260, 2427.262
1185.742, 2419.494
1186.224, 2418.246
1186.707, 2421.602
1187.189, 2425.841
1187.671, 2430.291
1188.153, 2435.103
1188.635, 2441.392
1189.117, 2446.358
1189.599, 2448.772
1190.081, 2448.913
1190.564, 2447.715
1191.046, 2444.867
1191.528, 2439.055
1192.010, 2427.083
1192.492, 2418.559
1192.974, 2415.325
1193.456, 2416.302
1193.938, 2422.878
1194.421, 2432.783
1194.903, 2438.708
1195.385, 2440.220
1195.867, 2435.624
1196.349, 2412.764
1196.831, 2400.520
1197.313, 2413.045
1197.795, 2428.540
1198.277, 2424.079
1198.760, 2405.887
1199.242, 2410.241
1199.724, 2433.061
1200.206, 2448.369
1200.688, 2434.329
1201.170, 2421.738
1201.652, 2415.781
1202.134, 2418.557
1202.616, 2440.756
1203.099, 2475.435
1203.581, 2482.014
1204.063, 2460.726
1204.545, 2442.195
1205.027, 2451.785
1205.509, 2454.649
1205.991, 2431.977
1206.473, 2403.100
1206.956, 2402.588
1207.438, 2424.355
1207.920, 2434.808
1208.402, 2430.329
1208.884, 2426.038
1209.366, 2433.657
1209.848, 2439.029
1210.330, 2434.374
1210.813, 2425.737
1211.295, 2429.003
1211.777, 2440.849
1212.259, 2441.623
1212.741, 2427.282
1213.223, 2414.658
1213.705, 2409.224
1214.187, 2413.162
1214.669, 2431.193
1215.151, 2455.871
1215.634, 2462.761
1216.116, 2455.281
1216.598, 2449.217
1217.080, 2447.706
1217.562, 2451.169
1218.044, 2467.892
1218.526, 2480.607
1219.008, 2478.112
1219.491, 2465.376
1219.973, 2460.194
1220.455, 2461.908
1220.937, 2469.468
1221.419, 2486.298
1221.901, 2496.304
1222.383, 2484.414
1222.865, 2470.434
1223.348, 2464.625
1223.830, 2466.220
1224.312, 2475.158
1224.794, 2488.669
1225.276, 2493.809
1225.758, 2482.471
1226.240, 2469.874
1226.722, 2462.841
1227.204, 2456.191
1227.687, 2443.308
1228.169, 2428.160
1228.651, 2440.065
1229.133, 2471.666
1229.615, 2491.425
1230.097, 2478.059
1230.579, 2463.045
1231.061, 2453.516
1231.543, 2448.109
1232.026, 2445.940
1232.508, 2447.128
1232.990, 2455.270
1233.472, 2468.263
1233.954, 2476.413
1234.436, 2470.902
1234.918, 2466.290
1235.400, 2464.695
1235.883, 2466.319
1236.365, 2472.873
1236.847, 2482.808
1237.329, 2489.308
1237.811, 2493.020
1238.293, 2497.530
1238.775, 2511.528
1239.257, 2515.352
1239.740, 2502.582
1240.222, 2484.990
1240.704, 2469.312
1241.186, 2459.443
1241.668, 2475.004
1242.150, 2509.800
1242.632, 2529.200
1243.114, 2509.026
1243.596, 2486.299
1244.079, 2463.214
1244.561, 2445.684
1245.043, 2439.160
1245.525, 2443.501
1246.007, 2465.815
1246.489, 2501.613
1246.971, 2523.670
1247.453, 2514.347
1247.936, 2504.464
1248.418, 2496.887
1248.900, 2492.063
1249.382, 2490.340
1249.864, 2491.760
1250.346, 2497.894
1250.828, 2507.955
1251.310, 2516.320
1251.792, 2526.343
1252.275, 2523.335
1252.757, 2501.351
1253.239, 2477.824
1253.721, 2473.646
1254.203, 2480.319
1254.685, 2488.121
1255.167, 2496.035
1255.649, 2502.453
1256.131, 2506.878
1256.614, 2512.100
1257.096, 2519.096
1257.578, 2525.227
1258.060, 2523.915
1258.542, 2522.613
1259.024, 2533.834
1259.506, 2555.652
1259.988, 2560.256
1260.471, 2543.693
1260.953, 2530.290
1261.435, 2524.827
1261.917, 2524.884
1262.399, 2533.559
1262.881, 2542.184
1263.363, 2539.996
1263.845, 2529.388
1264.328, 2529.362
1264.810, 2540.773
1265.292, 2543.436
1265.774, 2530.810
1266.256, 2519.529
1266.738, 2527.462
1267.220, 2538.634
1267.702, 2538.052
1268.184, 2530.425
1268.667, 2537.245
1269.149, 2557.305
1269.631, 2572.792
1270.113, 2579.796
1270.595, 2579.989
1271.077, 2565.999
1271.559, 2554.638
1272.041, 2557.666
1272.523, 2569.252
1273.006, 2568.248
1273.488, 2557.587
1273.970, 2552.339
1274.452, 2557.058
1274.934, 2560.554
1275.416, 2557.804
1275.898, 2551.987
1276.380, 2542.957
1276.863, 2533.071
1277.345, 2527.692
1277.827, 2526.761
1278.309, 2530.421
1278.791, 2538.933
1279.273, 2550.794
1279.755, 2570.439
1280.237, 2584.233
1280.719, 2585.439
1281.202, 2579.972
1281.684, 2580.152
1282.166, 2581.460
1282.648, 2572.609
1283.130, 2547.274
1283.612, 2541.848
1284.094, 2567.082
1284.576, 2584.581
1285.058, 2576.716
1285.541, 2560.804
1286.023, 2560.203
1286.505, 2567.470
1286.987, 2573.386
1287.469, 2576.566
1287.951, 2579.240
1288.433, 2582.024
1288.915, 2577.628
##END=



