##NAMES=Dawsonite
##RRUFFID=R050641
##IDEAL CHEMISTRY=NaAlCO_3_(OH)_2_
##LOCALITY=Francon Quarry, Montréal, Québec, Canada
##OWNER=RRUFF
##SOURCE=University of Arizona Mineral Museum
##DESCRIPTION=Colorless acicular crystals
##STATUS=The identification of this mineral has been confirmed by X-ray diffraction and chemical analysis
##URL=rruff.info/R050641
##MEASURED CHEMISTRY=Na_1.00_Al_1.00_(CO_3_)(OH)_2_ ; trace amounts of Ti ; H_2_O assumed ideal 12.5%; CO_2_ by difference
92.02539, 211.9018
92.50751, 213.4891
92.98962, 215.7748
93.47174, 215.8285
93.95386, 215.2206
94.43597, 213.7483
94.91809, 211.4992
95.40021, 208.8957
95.88232, 206.5786
96.36444, 204.9801
96.84656, 203.0766
97.32867, 200.5982
97.81078, 197.8034
98.29290, 195.0835
98.77502, 192.6084
99.25713, 190.0792
99.73925, 187.7651
100.2214, 185.7510
100.7035, 183.8674
101.1856, 181.9846
101.6677, 180.0929
102.1498, 178.3086
102.6320, 176.7706
103.1141, 175.4850
103.5962, 174.4730
104.0783, 173.4494
104.5604, 172.7653
105.0425, 173.0350
105.5247, 174.5886
106.0068, 176.5544
106.4889, 177.4893
106.9710, 177.5292
107.4531, 176.7245
107.9352, 174.5078
108.4173, 171.1854
108.8995, 168.4560
109.3816, 167.0741
109.8637, 166.4959
110.3458, 166.1832
110.8279, 166.1461
111.3100, 166.1230
111.7922, 165.7346
112.2743, 164.8202
112.7564, 164.0635
113.2385, 163.6582
113.7206, 163.4776
114.2027, 163.4644
114.6849, 163.6102
115.1670, 163.8528
115.6491, 163.9663
116.1312, 163.7524
116.6133, 163.6349
117.0954, 163.6873
117.5776, 163.8769
118.0597, 164.1681
118.5418, 164.5532
119.0239, 165.0355
119.5060, 165.3217
119.9881, 165.0670
120.4703, 164.9693
120.9524, 165.3880
121.4345, 166.2706
121.9166, 167.2985
122.3987, 168.2127
122.8808, 168.9901
123.3630, 169.5833
123.8451, 169.7801
124.3272, 169.9001
124.8093, 170.1318
125.2914, 170.4563
125.7735, 171.1798
126.2557, 172.9450
126.7378, 175.5281
127.2199, 178.0987
127.7020, 180.0754
128.1841, 181.7466
128.6662, 184.0831
129.1483, 187.7199
129.6305, 191.4958
130.1126, 194.6600
130.5947, 197.2151
131.0768, 199.2713
131.5589, 201.2047
132.0410, 203.1896
132.5232, 203.6087
133.0053, 200.9464
133.4874, 197.5063
133.9695, 194.1979
134.4516, 191.2652
134.9337, 188.6709
135.4159, 186.3627
135.8980, 184.4524
136.3801, 182.6321
136.8622, 180.6776
137.3443, 178.8854
137.8264, 177.5031
138.3086, 176.6216
138.7907, 176.1753
139.2728, 176.0118
139.7549, 176.6933
140.2370, 177.0145
140.7191, 176.4040
141.2013, 175.4538
141.6834, 175.0997
142.1655, 175.8920
142.6476, 177.5518
143.1297, 178.8111
143.6118, 179.4058
144.0939, 179.9701
144.5761, 180.7772
145.0582, 181.7825
145.5403, 182.7505
146.0224, 183.3887
146.5045, 183.9618
146.9866, 185.1279
147.4688, 186.9072
147.9509, 189.2914
148.4330, 192.6444
148.9151, 197.1987
149.3972, 201.2851
149.8793, 204.3109
150.3615, 206.1933
150.8436, 206.4954
151.3257, 204.8146
151.8078, 201.5707
152.2899, 197.5806
152.7720, 192.2901
153.2542, 187.1500
153.7363, 182.3620
154.2184, 178.1061
154.7005, 174.6331
155.1826, 172.1845
155.6647, 170.6950
156.1469, 169.5639
156.6290, 168.9966
157.1111, 168.6452
157.5932, 168.3859
158.0753, 168.2657
158.5574, 168.4597
159.0396, 169.2198
159.5217, 170.7046
160.0038, 171.2382
160.4859, 169.6129
160.9680, 168.2489
161.4501, 168.3754
161.9323, 169.8623
162.4144, 171.6783
162.8965, 172.7388
163.3786, 172.7789
163.8607, 173.2178
164.3428, 174.1650
164.8250, 175.3886
165.3071, 176.7271
165.7892, 178.1560
166.2713, 179.7289
166.7534, 181.5318
167.2355, 183.5839
167.7177, 185.7504
168.1998, 188.0599
168.6819, 190.4736
169.1640, 192.9564
169.6461, 195.5160
170.1282, 198.0784
170.6104, 200.5765
171.0925, 203.0145
171.5746, 205.2993
172.0567, 207.0964
172.5388, 208.6709
173.0209, 210.8362
173.5031, 213.9187
173.9852, 217.4222
174.4673, 220.8903
174.9494, 224.3285
175.4315, 227.8869
175.9136, 231.5798
176.3958, 235.4204
176.8779, 239.6221
177.3600, 244.2446
177.8421, 249.2818
178.3242, 254.7199
178.8063, 260.5693
179.2885, 266.7361
179.7706, 272.8940
180.2527, 278.6936
180.7348, 286.1582
181.2169, 296.6340
181.6990, 307.8790
182.1812, 318.6981
182.6633, 328.9582
183.1454, 339.2155
183.6275, 350.1461
184.1096, 361.3557
184.5917, 374.3001
185.0738, 389.8819
185.5560, 406.2309
186.0381, 422.2944
186.5202, 437.6967
187.0023, 452.3899
187.4844, 466.2975
187.9665, 480.8616
188.4487, 491.8705
188.9308, 500.4257
189.4129, 505.0615
189.8950, 504.1024
190.3771, 497.0286
190.8592, 484.9965
191.3414, 469.8239
191.8235, 450.7297
192.3056, 430.0051
192.7877, 406.4884
193.2698, 381.9340
193.7519, 358.2569
194.2341, 335.9497
194.7162, 315.3506
195.1983, 297.5005
195.6804, 282.2683
196.1625, 268.6339
196.6446, 256.2312
197.1268, 245.1706
197.6089, 235.7712
198.0910, 228.4082
198.5731, 222.4387
199.0552, 216.6654
199.5373, 210.9095
200.0195, 205.8904
200.5016, 202.1673
200.9837, 199.5651
201.4658, 197.2770
201.9479, 195.2824
202.4300, 193.2877
202.9122, 190.8141
203.3943, 187.7574
203.8764, 185.0881
204.3585, 183.7014
204.8406, 183.5862
205.3227, 183.6531
205.8048, 183.9292
206.2870, 184.0846
206.7691, 183.7195
207.2512, 182.8055
207.7333, 181.9775
208.2154, 181.9398
208.6975, 182.7945
209.1797, 183.8398
209.6618, 184.9805
210.1439, 186.2769
210.6260, 187.7715
211.1081, 189.4715
211.5902, 191.3546
212.0724, 193.2782
212.5545, 194.9506
213.0366, 197.5722
213.5187, 201.5434
214.0008, 206.1432
214.4829, 211.1536
214.9651, 216.4354
215.4472, 221.8101
215.9293, 227.1228
216.4114, 232.9096
216.8935, 237.3911
217.3756, 241.3287
217.8578, 243.7751
218.3399, 244.0796
218.8220, 242.1098
219.3041, 238.1759
219.7862, 232.6217
220.2683, 224.2604
220.7505, 216.4997
221.2326, 209.4579
221.7147, 202.8377
222.1968, 196.1740
222.6789, 189.4335
223.1610, 183.2703
223.6432, 178.7335
224.1253, 176.9903
224.6074, 174.5973
225.0895, 170.8310
225.5716, 166.8191
226.0537, 163.5040
226.5358, 161.1088
227.0180, 159.4540
227.5001, 158.4168
227.9822, 158.3055
228.4643, 157.8386
228.9464, 156.5906
229.4285, 155.1126
229.9107, 154.0120
230.3928, 153.4290
230.8749, 153.0847
231.3570, 152.6624
231.8391, 152.1589
232.3212, 151.6383
232.8034, 150.8953
233.2855, 150.2254
233.7676, 150.1155
234.2497, 150.7238
234.7318, 151.4681
235.2139, 151.5017
235.6961, 150.9341
236.1782, 150.8573
236.6603, 152.1064
237.1424, 153.8423
237.6245, 154.5722
238.1066, 153.8145
238.5888, 153.0765
239.0709, 154.1931
239.5530, 156.5928
240.0351, 158.5286
240.5172, 159.1502
240.9993, 158.9757
241.4815, 158.8967
241.9636, 158.8869
242.4457, 159.1925
242.9278, 160.2024
243.4099, 161.6482
243.8920, 162.9914
244.3742, 163.9184
244.8563, 164.5996
245.3384, 165.4428
245.8205, 166.5253
246.3026, 167.5942
246.7847, 168.4489
247.2668, 169.2018
247.7490, 170.0276
248.2311, 170.9805
248.7132, 172.0666
249.1953, 173.2748
249.6774, 174.4588
250.1595, 176.1047
250.6417, 178.5638
251.1238, 181.4888
251.6059, 184.4515
252.0880, 187.2574
252.5701, 189.9861
253.0522, 192.7930
253.5344, 195.3836
254.0165, 198.6696
254.4986, 202.9624
254.9807, 207.9421
255.4628, 213.3755
255.9449, 219.1805
256.4271, 225.2320
256.9092, 231.3628
257.3913, 237.8587
257.8734, 243.8054
258.3555, 249.8180
258.8376, 254.9533
259.3198, 258.5233
259.8019, 260.2488
260.2840, 259.9751
260.7661, 257.2881
261.2482, 251.6094
261.7303, 244.3137
262.2125, 234.6130
262.6946, 224.1891
263.1767, 214.2728
263.6588, 205.2500
264.1409, 197.1084
264.6230, 189.7641
265.1052, 183.3047
265.5873, 177.5898
266.0694, 172.4640
266.5515, 168.0271
267.0336, 164.5428
267.5157, 162.0009
267.9979, 159.9783
268.4800, 157.8568
268.9621, 155.4897
269.4442, 153.3780
269.9263, 151.4309
270.4084, 149.7474
270.8906, 148.4774
271.3727, 147.5981
271.8548, 146.9080
272.3369, 146.1786
272.8190, 145.4333
273.3011, 144.5766
273.7833, 143.2785
274.2654, 142.1611
274.7475, 141.7540
275.2296, 141.9559
275.7117, 142.1657
276.1938, 141.7513
276.6760, 140.5518
277.1581, 139.7202
277.6402, 139.2511
278.1223, 139.0532
278.6044, 139.2815
279.0865, 139.7875
279.5686, 140.1556
280.0508, 140.0271
280.5329, 139.3889
281.0150, 138.9109
281.4971, 138.6219
281.9792, 138.4237
282.4613, 138.3293
282.9435, 138.2990
283.4256, 138.2287
283.9077, 138.0279
284.3898, 137.7389
284.8719, 137.7693
285.3540, 138.7672
285.8362, 139.3133
286.3183, 138.6681
286.8004, 137.3476
287.2825, 136.3059
287.7646, 136.0515
288.2467, 136.3528
288.7289, 136.3993
289.2110, 135.8243
289.6931, 135.4660
290.1752, 135.6895
290.6573, 136.1464
291.1394, 136.3720
291.6216, 136.1908
292.1037, 135.6747
292.5858, 134.9027
293.0679, 133.5070
293.5500, 132.5799
294.0321, 132.4750
294.5143, 132.7859
294.9964, 133.1626
295.4785, 133.5085
295.9606, 133.6870
296.4427, 133.4450
296.9248, 132.5256
297.4070, 131.9849
297.8891, 132.1755
298.3712, 132.5700
298.8533, 132.6676
299.3354, 132.4050
299.8175, 132.1047
300.2997, 132.1197
300.7818, 132.5239
301.2639, 132.7107
301.7460, 132.5664
302.2281, 132.2987
302.7102, 132.0037
303.1924, 131.7028
303.6745, 131.4305
304.1566, 131.2156
304.6387, 131.0574
305.1208, 130.8991
305.6029, 130.5190
306.0851, 130.3447
306.5672, 130.8293
307.0493, 131.7503
307.5314, 132.3703
308.0135, 132.2180
308.4956, 131.4881
308.9778, 131.0446
309.4599, 131.0505
309.9420, 131.0799
310.4241, 130.9899
310.9062, 130.8297
311.3883, 130.6123
311.8705, 130.2836
312.3526, 130.0927
312.8347, 130.8050
313.3168, 133.2325
313.7989, 134.5566
314.2810, 133.4583
314.7632, 131.2109
315.2453, 129.3622
315.7274, 128.3232
316.2095, 127.9337
316.6916, 128.1221
317.1737, 129.0945
317.6559, 129.7222
318.1380, 129.7065
318.6201, 129.4333
319.1022, 129.1647
319.5843, 128.9557
320.0664, 128.9438
320.5485, 129.3502
321.0306, 130.2140
321.5128, 130.6182
321.9949, 130.3493
322.4770, 129.8211
322.9591, 129.1259
323.4412, 128.3530
323.9233, 127.8201
324.4055, 127.8101
324.8876, 128.2163
325.3697, 128.2631
325.8518, 127.4640
326.3339, 126.8860
326.8160, 127.1846
327.2982, 127.9938
327.7803, 128.4662
328.2624, 128.1608
328.7445, 127.4073
329.2266, 127.1087
329.7087, 127.5453
330.1909, 127.8598
330.6730, 127.7977
331.1551, 127.5613
331.6372, 127.3897
332.1193, 127.3516
332.6014, 127.4284
333.0836, 127.6164
333.5657, 127.9879
334.0478, 128.2473
334.5299, 128.3280
335.0120, 128.3292
335.4941, 128.3643
335.9763, 128.4317
336.4584, 128.3870
336.9405, 128.0555
337.4226, 127.3967
337.9047, 126.9945
338.3868, 127.0038
338.8690, 127.0868
339.3511, 127.0259
339.8332, 126.8810
340.3153, 126.9044
340.7974, 127.3031
341.2795, 127.9680
341.7617, 128.1680
342.2438, 127.2094
342.7259, 126.6723
343.2080, 127.3269
343.6901, 128.5234
344.1722, 129.2313
344.6544, 129.0155
345.1365, 128.3067
345.6186, 127.9928
346.1007, 128.3743
346.5828, 128.7350
347.0649, 129.0739
347.5471, 129.3880
348.0292, 129.6832
348.5113, 129.9550
348.9934, 130.1855
349.4755, 130.3508
349.9576, 130.4491
350.4398, 130.4745
350.9219, 130.1967
351.4040, 130.0604
351.8861, 130.3424
352.3682, 130.9835
352.8503, 131.7879
353.3325, 132.6443
353.8146, 133.5265
354.2967, 134.0267
354.7788, 133.7117
355.2609, 133.5093
355.7430, 133.7224
356.2252, 134.1366
356.7073, 134.4042
357.1894, 134.3570
357.6715, 134.1668
358.1536, 134.2923
358.6357, 135.2330
359.1179, 135.7140
359.5999, 135.5777
360.0821, 135.0802
360.5642, 134.2671
361.0463, 133.2259
361.5284, 132.2740
362.0105, 131.8415
362.4926, 132.0973
362.9748, 132.2276
363.4569, 132.3746
363.9390, 132.2785
364.4211, 131.6855
364.9032, 130.7302
365.3853, 129.7464
365.8675, 128.9441
366.3496, 128.3404
366.8317, 128.1210
367.3138, 128.6528
367.7959, 129.1218
368.2780, 129.5217
368.7602, 129.7023
369.2423, 129.3448
369.7244, 128.2837
370.2065, 127.0368
370.6886, 126.7525
371.1707, 128.0007
371.6529, 128.7694
372.1350, 128.3277
372.6171, 127.6700
373.0992, 127.4870
373.5813, 127.8477
374.0634, 128.2858
374.5456, 128.1398
375.0277, 127.3489
375.5098, 127.3441
375.9919, 128.9971
376.4740, 130.5364
376.9561, 131.0095
377.4383, 130.7438
377.9204, 130.5172
378.4025, 130.7381
378.8846, 131.3244
379.3667, 132.1225
379.8488, 133.2897
380.3310, 134.2560
380.8131, 134.5459
381.2952, 134.6319
381.7773, 134.9402
382.2594, 135.5529
382.7415, 136.5245
383.2237, 138.1320
383.7058, 140.3723
384.1879, 142.1983
384.6700, 143.2032
385.1521, 143.8425
385.6342, 144.4377
386.1164, 145.0106
386.5985, 145.8267
387.0806, 147.5845
387.5627, 149.6312
388.0448, 150.3355
388.5269, 149.3936
389.0091, 147.6857
389.4912, 145.5226
389.9733, 143.0656
390.4554, 140.6436
390.9375, 138.3004
391.4196, 136.0361
391.9018, 133.7813
392.3839, 131.5547
392.8660, 129.5869
393.3481, 127.9001
393.8302, 126.6317
394.3123, 126.1409
394.7945, 126.7823
395.2766, 126.9952
395.7587, 125.6661
396.2408, 123.6351
396.7229, 122.4205
397.2050, 122.3964
397.6872, 122.7427
398.1693, 122.5579
398.6514, 121.7815
399.1335, 121.1544
399.6156, 120.6468
400.0977, 120.3410
400.5798, 120.5002
401.0620, 120.9814
401.5441, 121.1594
402.0262, 120.5775
402.5083, 119.4409
402.9904, 118.8067
403.4725, 119.0375
403.9547, 119.2381
404.4368, 119.1376
404.9189, 118.9548
405.4010, 119.0577
405.8831, 119.5410
406.3652, 120.0389
406.8474, 119.9740
407.3295, 119.0257
407.8116, 118.4454
408.2937, 118.4680
408.7758, 118.6041
409.2579, 118.6608
409.7401, 118.5914
410.2222, 118.3573
410.7043, 117.8990
411.1864, 117.2622
411.6685, 116.8337
412.1506, 116.7739
412.6328, 116.7433
413.1149, 116.6603
413.5970, 116.5945
414.0791, 116.6640
414.5612, 116.9010
415.0433, 117.1620
415.5255, 117.1436
416.0076, 116.6414
416.4897, 116.5732
416.9718, 117.7218
417.4539, 118.6947
417.9360, 118.6524
418.4182, 117.7924
418.9003, 116.9324
419.3824, 116.6106
419.8645, 116.7655
420.3466, 117.1946
420.8287, 118.1336
421.3109, 118.8420
421.7930, 118.8314
422.2751, 118.5227
422.7572, 118.4158
423.2393, 118.6943
423.7214, 118.9697
424.2036, 118.7055
424.6857, 117.9314
425.1678, 117.4408
425.6499, 117.5465
426.1320, 117.8230
426.6141, 117.8972
427.0963, 117.7850
427.5784, 117.5896
428.0605, 117.2226
428.5426, 116.8520
429.0247, 116.7285
429.5068, 116.8664
429.9890, 117.2301
430.4711, 117.9611
430.9532, 118.8615
431.4353, 119.3306
431.9174, 119.2214
432.3995, 118.8964
432.8817, 118.3615
433.3638, 117.7580
433.8459, 117.3764
434.3280, 117.3079
434.8101, 117.4867
435.2922, 117.8753
435.7744, 118.5643
436.2565, 119.0734
436.7386, 119.4631
437.2207, 119.6062
437.7028, 119.1042
438.1849, 118.1878
438.6671, 117.7435
439.1492, 118.4410
439.6313, 120.0272
440.1134, 120.9989
440.5955, 121.1779
441.0776, 120.9430
441.5598, 119.8696
442.0418, 118.6352
442.5240, 118.0315
443.0061, 118.2181
443.4882, 118.6220
443.9703, 118.4657
444.4524, 117.5755
444.9345, 116.9419
445.4167, 116.8636
445.8988, 116.7518
446.3809, 116.3205
446.8630, 115.7100
447.3451, 115.2113
447.8272, 115.0026
448.3094, 114.9834
448.7915, 114.8947
449.2736, 114.6903
449.7557, 114.5465
450.2378, 114.5030
450.7199, 114.5373
451.2021, 114.7927
451.6842, 115.2367
452.1663, 115.3642
452.6484, 114.3912
453.1305, 112.6766
453.6126, 111.9462
454.0948, 112.6313
454.5769, 113.5273
455.0590, 113.9216
455.5411, 113.9535
456.0232, 113.7974
456.5053, 113.3926
456.9875, 112.9483
457.4696, 112.5214
457.9517, 112.1697
458.4338, 112.2229
458.9159, 112.9212
459.3980, 113.8151
459.8802, 114.2011
460.3623, 114.0593
460.8444, 113.8647
461.3265, 113.6787
461.8086, 113.4882
462.2907, 113.2626
462.7729, 113.0114
463.2550, 112.8043
463.7371, 112.7042
464.2192, 112.6769
464.7013, 112.5184
465.1834, 112.0909
465.6656, 111.7174
466.1477, 111.4087
466.6298, 111.1912
467.1119, 111.1076
467.5940, 111.1603
468.0761, 111.3020
468.5583, 111.4964
469.0404, 111.7738
469.5225, 111.9158
470.0046, 111.6882
470.4867, 111.5683
470.9688, 111.9161
471.4510, 112.4233
471.9331, 112.5015
472.4152, 111.8256
472.8973, 110.8968
473.3794, 110.8102
473.8615, 111.8782
474.3437, 112.4485
474.8258, 111.7190
475.3079, 110.7931
475.7900, 110.3548
476.2721, 110.3748
476.7542, 110.4308
477.2364, 110.1857
477.7185, 109.8142
478.2006, 109.7808
478.6827, 110.1585
479.1648, 110.4387
479.6469, 110.2321
480.1291, 109.8247
480.6112, 109.7850
481.0933, 110.3284
481.5754, 110.7029
482.0575, 110.3961
482.5396, 109.6925
483.0217, 108.9929
483.5038, 108.3573
483.9860, 108.1367
484.4681, 108.8690
484.9502, 110.5915
485.4323, 111.3816
485.9144, 110.4577
486.3965, 109.4929
486.8787, 109.2621
487.3608, 109.4743
487.8429, 109.4981
488.3250, 109.0807
488.8071, 108.5683
489.2892, 108.6127
489.7714, 109.5724
490.2535, 110.2121
490.7356, 110.5334
491.2177, 110.5915
491.6998, 110.2406
492.1819, 109.6474
492.6641, 109.1840
493.1462, 109.1107
493.6283, 109.2728
494.1104, 109.2215
494.5925, 108.9171
495.0746, 108.5077
495.5568, 107.7704
496.0389, 107.1229
496.5210, 106.8806
497.0031, 107.0572
497.4852, 107.4296
497.9673, 108.0361
498.4495, 108.7060
498.9316, 108.8956
499.4137, 108.4967
499.8958, 108.0194
500.3779, 107.5042
500.8600, 107.2061
501.3422, 107.6961
501.8243, 109.4622
502.3064, 111.0120
502.7885, 111.4674
503.2706, 111.2461
503.7527, 111.0894
504.2349, 111.1574
504.7170, 111.2327
505.1991, 111.0570
505.6812, 110.6053
506.1633, 110.5142
506.6454, 111.2534
507.1276, 111.7925
507.6097, 111.4664
508.0918, 110.7777
508.5739, 110.6151
509.0560, 111.2882
509.5381, 112.2038
510.0203, 112.3334
510.5024, 111.2760
510.9845, 110.8100
511.4666, 111.2722
511.9487, 111.9967
512.4308, 112.8512
512.9130, 113.7667
513.3951, 114.6919
513.8772, 115.6337
514.3593, 116.4763
514.8414, 116.9281
515.3235, 116.9174
515.8057, 117.1107
516.2878, 118.0719
516.7699, 118.8514
517.2520, 118.5133
517.7341, 117.2002
518.2162, 115.9779
518.6984, 115.4800
519.1805, 115.2051
519.6626, 114.5168
520.1447, 113.4211
520.6268, 112.1082
521.1089, 110.5047
521.5911, 108.9281
522.0732, 108.2503
522.5553, 108.7726
523.0374, 109.1095
523.5195, 108.9032
524.0016, 108.5085
524.4838, 108.2933
524.9659, 108.2263
525.4480, 107.9468
525.9301, 107.1523
526.4122, 105.9949
526.8943, 105.2524
527.3765, 105.2886
527.8586, 105.2468
528.3407, 104.9239
528.8228, 104.5868
529.3049, 104.4885
529.7870, 104.6311
530.2692, 104.8016
530.7513, 104.8156
531.2334, 104.6971
531.7155, 104.5771
532.1976, 104.4360
532.6797, 104.3418
533.1619, 104.3438
533.6440, 104.3990
534.1261, 104.4880
534.6082, 104.6184
535.0903, 104.6987
535.5724, 104.6724
536.0546, 104.5532
536.5367, 104.3293
537.0188, 103.9873
537.5009, 103.7060
537.9830, 103.6461
538.4651, 103.7602
538.9473, 103.7723
539.4294, 103.5515
539.9115, 103.4016
540.3936, 103.4624
540.8757, 103.6133
541.3578, 103.7124
541.8400, 103.7291
542.3221, 103.7104
542.8042, 103.7064
543.2863, 103.7182
543.7684, 103.6786
544.2505, 103.4833
544.7326, 103.3653
545.2147, 103.4601
545.6968, 103.6089
546.1790, 103.5927
546.6611, 103.3705
547.1432, 103.1751
547.6253, 103.3458
548.1074, 103.8342
548.5895, 104.0279
549.0717, 103.7570
549.5538, 103.5060
550.0359, 103.6929
550.5180, 104.0514
551.0001, 104.1525
551.4822, 103.8142
551.9644, 103.4892
552.4465, 103.5914
552.9286, 103.8827
553.4107, 103.7430
553.8928, 103.0385
554.3749, 102.4903
554.8571, 102.8430
555.3392, 104.0605
555.8213, 104.7067
556.3034, 104.3253
556.7855, 104.0190
557.2676, 104.1959
557.7498, 104.5415
558.2319, 104.6240
558.7140, 104.3705
559.1961, 104.1049
559.6782, 104.2279
560.1603, 104.7464
560.6425, 104.9708
561.1246, 104.5564
561.6067, 104.3562
562.0888, 104.8025
562.5709, 105.4920
563.0530, 105.9458
563.5352, 106.0421
564.0173, 106.1073
564.4994, 106.4119
564.9815, 106.9088
565.4636, 107.4606
565.9457, 108.0684
566.4279, 108.6677
566.9100, 109.2031
567.3921, 109.6985
567.8742, 110.2262
568.3563, 110.6653
568.8384, 111.3340
569.3206, 112.4337
569.8027, 113.7740
570.2848, 115.2098
570.7669, 116.6722
571.2490, 118.0148
571.7311, 119.0518
572.2133, 119.8421
572.6954, 120.9937
573.1775, 122.8031
573.6596, 124.5893
574.1417, 126.2243
574.6238, 127.8353
575.1060, 129.5200
575.5881, 131.3036
576.0702, 133.1643
576.5523, 135.1335
577.0344, 137.1639
577.5165, 138.9595
577.9987, 140.3571
578.4808, 142.2407
578.9629, 145.1548
579.4450, 148.6499
579.9271, 152.0462
580.4092, 155.3027
580.8914, 158.6826
581.3735, 162.1165
581.8556, 165.8264
582.3377, 170.0811
582.8198, 174.8688
583.3019, 180.2107
583.7841, 186.2391
584.2662, 192.5375
584.7483, 197.9505
585.2304, 201.5320
585.7125, 205.8069
586.1946, 212.0284
586.6768, 217.8145
587.1589, 222.2093
587.6410, 224.9043
588.1231, 225.6059
588.6052, 224.0964
589.0873, 220.6599
589.5695, 215.7831
590.0516, 209.3937
590.5337, 201.9180
591.0158, 192.7493
591.4979, 183.2579
591.9800, 174.4770
592.4622, 166.3520
592.9443, 158.7387
593.4264, 151.5679
593.9085, 144.9470
594.3906, 138.9648
594.8727, 133.6735
595.3549, 129.2138
595.8370, 125.6580
596.3191, 122.8305
596.8012, 120.5671
597.2833, 118.9400
597.7654, 117.3630
598.2476, 115.7943
598.7297, 114.3162
599.2118, 112.8556
599.6939, 111.5369
600.1760, 110.6356
600.6581, 110.1833
601.1403, 109.7055
601.6224, 108.4414
602.1045, 106.4504
602.5866, 105.3082
603.0687, 105.3166
603.5508, 105.5210
604.0330, 105.6638
604.5151, 105.6471
604.9972, 105.2643
605.4793, 104.4086
605.9614, 103.6010
606.4435, 103.1354
606.9257, 102.8523
607.4078, 102.5509
607.8899, 102.2108
608.3720, 101.8533
608.8541, 101.4846
609.3362, 101.1252
609.8184, 100.8387
610.3005, 100.7101
610.7826, 100.5308
611.2647, 100.2533
611.7468, 99.96969
612.2289, 99.79319
612.7111, 99.66240
613.1932, 99.37881
613.6753, 98.78860
614.1574, 98.11619
614.6395, 97.83714
615.1216, 97.98877
615.6038, 97.97916
616.0859, 97.51944
616.5680, 97.13371
617.0501, 97.46281
617.5322, 98.26118
618.0143, 98.67696
618.4965, 98.27485
618.9786, 97.74207
619.4607, 97.48412
619.9428, 97.38351
620.4249, 97.22517
620.9070, 96.95701
621.3892, 96.63075
621.8713, 96.26027
622.3534, 95.84988
622.8355, 95.80838
623.3176, 96.72701
623.7997, 97.24964
624.2819, 96.82913
624.7640, 96.16368
625.2461, 95.93591
625.7282, 96.18895
626.2103, 96.40943
626.6924, 96.14007
627.1745, 95.58231
627.6566, 95.31709
628.1387, 95.38371
628.6208, 95.11308
629.1030, 93.97942
629.5851, 92.71096
630.0672, 92.58646
630.5493, 93.66994
631.0314, 94.33094
631.5135, 94.00549
631.9957, 93.50060
632.4778, 93.16866
632.9599, 93.07362
633.4420, 93.42370
633.9241, 94.26794
634.4063, 95.05196
634.8884, 94.86172
635.3705, 93.50180
635.8526, 92.81387
636.3347, 93.23032
636.8168, 93.73704
637.2990, 94.02441
637.7811, 94.17754
638.2632, 94.35047
638.7453, 94.58669
639.2274, 94.58804
639.7095, 93.91048
640.1917, 92.95075
640.6738, 92.46375
641.1559, 92.48367
641.6380, 92.51820
642.1201, 92.27961
642.6022, 91.93305
643.0844, 91.86401
643.5665, 92.27495
644.0486, 92.55222
644.5307, 92.54597
645.0128, 92.55138
645.4949, 92.88338
645.9771, 93.32401
646.4592, 93.35282
646.9413, 92.72578
647.4234, 91.97531
647.9055, 91.98524
648.3876, 92.73352
648.8698, 93.05857
649.3519, 92.68051
649.8340, 92.30864
650.3161, 92.48108
650.7982, 92.93205
651.2803, 93.11883
651.7625, 92.91346
652.2446, 92.68098
652.7267, 92.62025
653.2088, 92.56850
653.6909, 92.26480
654.1730, 91.76437
654.6552, 91.41392
655.1373, 91.43847
655.6194, 91.68430
656.1015, 91.74270
656.5836, 91.51057
657.0657, 91.35810
657.5479, 91.45736
658.0300, 91.49079
658.5121, 91.15820
658.9942, 90.68663
659.4763, 90.58050
659.9584, 91.10979
660.4406, 91.69427
660.9227, 91.83252
661.4048, 91.62090
661.8869, 91.22554
662.3690, 90.66555
662.8511, 90.24596
663.3333, 90.22282
663.8154, 90.48332
664.2975, 90.55457
664.7796, 90.12758
665.2617, 89.94871
665.7438, 90.38841
666.2260, 90.77454
666.7081, 90.52242
667.1902, 89.82925
667.6723, 89.28811
668.1544, 89.20995
668.6365, 89.39763
669.1187, 89.59718
669.6008, 89.80424
670.0829, 89.90559
670.5650, 89.86507
671.0471, 89.76909
671.5292, 89.65672
672.0114, 89.53940
672.4935, 89.44742
672.9756, 89.29353
673.4577, 89.31706
673.9398, 89.78560
674.4219, 90.32761
674.9041, 90.58596
675.3862, 90.55949
675.8683, 90.40489
676.3504, 90.20061
676.8325, 90.02141
677.3146, 90.07680
677.7968, 90.43224
678.2789, 90.72784
678.7610, 91.14149
679.2431, 91.20271
679.7252, 90.33090
680.2073, 88.98786
680.6895, 88.12344
681.1716, 88.02081
681.6537, 88.18737
682.1358, 88.46352
682.6179, 88.77795
683.1000, 89.06811
683.5822, 89.30656
684.0643, 89.40453
684.5464, 89.29235
685.0285, 89.03589
685.5106, 88.81116
685.9927, 88.58262
686.4749, 88.47057
686.9570, 88.56882
687.4391, 88.69800
687.9212, 88.79115
688.4033, 88.85835
688.8854, 88.95988
689.3676, 89.15500
689.8497, 89.20619
690.3318, 88.72569
690.8139, 88.00395
691.2960, 87.67583
691.7781, 87.80155
692.2603, 88.15371
692.7424, 88.67387
693.2245, 89.19062
693.7066, 89.24329
694.1887, 88.56116
694.6708, 87.94382
695.1530, 87.15422
695.6351, 86.66771
696.1172, 86.86250
696.5993, 87.47461
697.0814, 88.10332
697.5635, 88.61858
698.0457, 88.93232
698.5278, 88.89889
699.0099, 88.59466
699.4920, 88.15357
699.9741, 87.56151
700.4562, 87.36389
700.9384, 88.01437
701.4205, 89.02084
701.9026, 89.31010
702.3847, 88.51370
702.8668, 87.97453
703.3489, 87.64361
703.8311, 87.64155
704.3132, 88.37110
704.7953, 89.34933
705.2774, 89.78506
705.7595, 89.44933
706.2416, 88.91232
706.7238, 88.81384
707.2059, 89.03609
707.6880, 88.98981
708.1701, 88.60690
708.6522, 88.44138
709.1343, 88.82082
709.6164, 89.41987
710.0985, 89.67719
710.5806, 89.50488
711.0627, 89.64718
711.5449, 90.38651
712.0270, 91.19923
712.5091, 91.87875
712.9912, 92.45706
713.4733, 93.01641
713.9554, 93.56807
714.4376, 94.00813
714.9197, 94.19678
715.4018, 94.21047
715.8839, 94.30329
716.3660, 94.44753
716.8481, 94.90833
717.3303, 95.94717
717.8124, 97.08492
718.2945, 97.75618
718.7766, 97.99315
719.2587, 98.22697
719.7408, 98.33887
720.2230, 98.63414
720.7051, 99.23014
721.1872, 100.0740
721.6693, 101.2207
722.1514, 102.5907
722.6335, 103.8562
723.1157, 104.7286
723.5978, 105.3967
724.0799, 106.3176
724.5620, 107.4920
725.0441, 109.0017
725.5262, 111.0082
726.0084, 113.0895
726.4905, 114.9941
726.9726, 116.6938
727.4547, 118.0166
727.9368, 118.8345
728.4189, 119.4729
728.9011, 120.4056
729.3832, 120.9304
729.8653, 120.3762
730.3474, 118.7696
730.8295, 116.3263
731.3116, 113.1021
731.7938, 109.6492
732.2759, 107.0318
732.7580, 105.2721
733.2401, 102.9971
733.7222, 99.74149
734.2043, 96.90826
734.6865, 95.41657
735.1686, 94.86108
735.6507, 94.31492
736.1328, 93.77522
736.6149, 93.26280
737.0970, 92.77734
737.5792, 92.32169
738.0613, 91.83267
738.5434, 91.38718
739.0255, 91.11569
739.5076, 91.06334
739.9897, 91.20779
740.4719, 91.62959
740.9540, 92.25694
741.4361, 92.52829
741.9182, 92.36330
742.4003, 92.24586
742.8824, 92.36694
743.3646, 92.60183
743.8467, 92.79815
744.3288, 92.95618
744.8109, 93.11062
745.2930, 93.44917
745.7751, 93.56906
746.2573, 93.17452
746.7394, 92.54744
747.2215, 92.01509
747.7036, 91.62416
748.1857, 91.21091
748.6678, 90.61698
749.1500, 89.98470
749.6321, 89.73250
750.1142, 89.85954
750.5963, 89.67200
751.0784, 88.94723
751.5605, 88.13903
752.0427, 87.60564
752.5248, 87.29816
753.0069, 86.92465
753.4890, 86.44408
753.9711, 85.96843
754.4532, 85.37090
754.9354, 84.90396
755.4175, 84.86191
755.8996, 85.08204
756.3817, 85.18466
756.8638, 85.00781
757.3459, 84.70079
757.8281, 84.39825
758.3102, 84.11134
758.7923, 83.83369
759.2744, 83.55257
759.7565, 83.60751
760.2386, 84.32466
760.7208, 85.16238
761.2029, 85.10332
761.6850, 83.76953
762.1671, 83.09048
762.6492, 83.66285
763.1313, 84.12629
763.6135, 83.93196
764.0956, 83.48420
764.5777, 83.22443
765.0598, 83.21745
765.5419, 83.27807
766.0240, 83.35161
766.5062, 83.36680
766.9883, 83.11104
767.4704, 82.68630
767.9525, 82.58822
768.4346, 82.94617
768.9167, 83.34327
769.3989, 83.43877
769.8810, 83.23946
770.3631, 82.74158
770.8452, 81.40364
771.3273, 80.75864
771.8094, 81.74854
772.2916, 82.60817
772.7737, 82.03708
773.2558, 80.70173
773.7379, 80.09330
774.2200, 80.74361
774.7021, 81.63542
775.1843, 82.35505
775.6664, 82.77344
776.1485, 82.49299
776.6306, 81.69566
777.1127, 81.17323
777.5948, 81.28130
778.0770, 81.67720
778.5591, 81.85737
779.0412, 81.81215
779.5233, 81.77578
780.0054, 81.79233
780.4875, 81.72193
780.9697, 81.41405
781.4518, 81.07970
781.9339, 80.93432
782.4160, 80.96656
782.8981, 81.01750
783.3802, 81.06570
783.8624, 81.10452
784.3445, 81.08552
784.8266, 81.07999
785.3087, 81.16055
785.7908, 81.34721
786.2729, 81.69630
786.7551, 82.28957
787.2372, 82.88669
787.7193, 82.87527
788.2014, 82.26563
788.6835, 82.05271
789.1656, 82.49046
789.6478, 82.79714
790.1299, 82.41109
790.6120, 81.62880
791.0941, 81.15447
791.5762, 81.02751
792.0583, 81.06634
792.5404, 81.50608
793.0225, 81.84302
793.5046, 81.72671
793.9868, 81.42231
794.4689, 81.29369
794.9510, 81.41431
795.4331, 81.60855
795.9152, 81.79684
796.3973, 81.94052
796.8795, 81.91625
797.3616, 81.77232
797.8437, 81.80936
798.3258, 82.11401
798.8079, 82.28259
799.2900, 81.88055
799.7722, 81.08572
800.2543, 80.95882
800.7364, 82.10702
801.2185, 82.67869
801.7006, 81.83511
802.1827, 81.08537
802.6649, 81.39591
803.1470, 82.21833
803.6291, 82.47124
804.1112, 81.83801
804.5933, 81.19800
805.0754, 80.89131
805.5576, 80.86797
806.0397, 81.20437
806.5218, 81.76476
807.0039, 82.23620
807.4860, 82.51672
807.9681, 82.79813
808.4503, 83.34213
808.9324, 84.05664
809.4145, 84.42606
809.8966, 84.41961
810.3787, 84.22849
810.8608, 83.76634
811.3430, 83.37727
811.8251, 83.42982
812.3072, 83.85336
812.7893, 84.13041
813.2714, 84.10897
813.7535, 84.16752
814.2357, 84.37122
814.7178, 84.65894
815.1999, 85.04046
815.6820, 85.45979
816.1641, 85.75230
816.6462, 85.85230
817.1284, 86.14006
817.6105, 87.17001
818.0926, 88.53625
818.5747, 89.47496
819.0568, 89.99314
819.5389, 90.28848
820.0211, 90.41997
820.5032, 90.50350
820.9853, 90.69012
821.4674, 90.96111
821.9495, 91.01160
822.4316, 90.70786
822.9138, 90.47817
823.3959, 90.55935
823.8780, 90.56969
824.3601, 90.38866
824.8422, 89.93830
825.3243, 88.92538
825.8065, 86.89223
826.2886, 85.31116
826.7707, 85.08633
827.2528, 85.25808
827.7349, 85.16737
828.2170, 84.74223
828.6992, 83.92137
829.1813, 82.71049
829.6634, 81.47789
830.1455, 80.53452
830.6276, 79.90263
831.1097, 79.76548
831.5919, 80.11394
832.0740, 80.41656
832.5561, 80.55547
833.0382, 80.45146
833.5203, 79.94434
834.0024, 79.12354
834.4846, 78.65984
834.9667, 78.76783
835.4488, 78.89192
835.9309, 79.11962
836.4130, 79.23744
836.8951, 79.02975
837.3773, 78.66866
837.8594, 78.49339
838.3415, 78.60689
838.8236, 78.64939
839.3057, 78.34513
839.7878, 77.96120
840.2700, 77.62890
840.7521, 77.45078
841.2342, 77.81179
841.7163, 78.70450
842.1984, 79.27408
842.6805, 78.58652
843.1627, 77.18839
843.6448, 76.86034
844.1269, 77.64321
844.6090, 78.04023
845.0911, 77.73190
845.5732, 77.20181
846.0554, 76.61784
846.5375, 76.16324
847.0196, 76.44671
847.5017, 78.20852
847.9838, 78.99352
848.4659, 77.90556
848.9481, 76.91840
849.4302, 77.00993
849.9123, 77.48186
850.3944, 77.39146
850.8765, 76.66680
851.3586, 76.08412
851.8408, 76.09350
852.3229, 76.33894
852.8050, 76.62313
853.2871, 76.89008
853.7692, 77.09518
854.2513, 77.19633
854.7335, 77.02285
855.2156, 76.44051
855.6977, 75.71909
856.1798, 75.27483
856.6619, 75.11330
857.1440, 75.64442
857.6262, 77.10537
858.1083, 78.08157
858.5904, 77.82900
859.0725, 76.99043
859.5546, 76.38037
860.0367, 75.99577
860.5189, 75.90612
861.0010, 76.41010
861.4831, 76.79253
861.9652, 77.04676
862.4473, 77.05234
862.9294, 76.46873
863.4116, 75.57674
863.8937, 75.17232
864.3758, 75.62509
864.8579, 76.14864
865.3400, 76.26198
865.8221, 76.17963
866.3043, 76.08687
866.7864, 76.01498
867.2685, 76.00701
867.7506, 76.06990
868.2327, 76.12690
868.7148, 76.11926
869.1970, 76.02834
869.6791, 75.67932
870.1612, 75.07267
870.6433, 74.91325
871.1254, 75.44051
871.6075, 75.99075
872.0897, 76.03062
872.5718, 75.73392
873.0539, 75.68845
873.5360, 76.20118
874.0181, 76.26039
874.5002, 75.13731
874.9823, 74.40557
875.4644, 75.08871
875.9465, 76.11967
876.4286, 76.17458
876.9108, 75.19353
877.3929, 74.33884
877.8750, 73.74229
878.3571, 73.67795
878.8392, 74.87744
879.3214, 76.32586
879.8035, 76.73574
880.2856, 76.19410
880.7677, 75.52630
881.2498, 75.12865
881.7319, 74.92426
882.2141, 74.88789
882.6962, 74.95593
883.1783, 74.88582
883.6604, 74.69439
884.1425, 74.67072
884.6246, 74.92225
885.1068, 75.35772
885.5889, 75.95776
886.0710, 76.63042
886.5531, 76.52303
887.0352, 75.15371
887.5173, 74.43892
887.9995, 74.98281
888.4816, 75.70899
888.9637, 75.88429
889.4458, 75.80946
889.9279, 76.14439
890.4100, 77.05807
890.8922, 77.73035
891.3743, 77.86399
891.8564, 77.94685
892.3385, 77.99295
892.8206, 78.23800
893.3027, 79.06422
893.7849, 80.38272
894.2670, 81.64137
894.7491, 82.67225
895.2312, 83.31570
895.7133, 83.10054
896.1954, 82.56107
896.6776, 82.79830
897.1597, 83.61348
897.6418, 83.80386
898.1239, 82.86040
898.6060, 81.43932
899.0881, 80.25373
899.5703, 79.31426
900.0524, 78.76888
900.5345, 78.65334
901.0166, 78.19006
901.4987, 77.10403
901.9808, 75.99082
902.4630, 75.32121
902.9451, 74.99876
903.4272, 74.69362
903.9093, 74.43063
904.3914, 74.12254
904.8735, 73.70166
905.3557, 73.31995
905.8378, 73.08897
906.3199, 72.88632
906.8020, 72.53660
907.2841, 72.05042
907.7662, 71.69917
908.2484, 71.47916
908.7305, 71.49439
909.2126, 72.03420
909.6947, 72.63130
910.1768, 72.80602
910.6589, 72.66817
911.1411, 72.59025
911.6232, 72.71159
912.1053, 72.88920
912.5874, 73.08009
913.0695, 73.20049
913.5516, 73.02263
914.0338, 72.66592
914.5159, 72.50297
914.9980, 72.61501
915.4801, 72.85393
915.9622, 73.13280
916.4443, 73.36829
916.9265, 73.23120
917.4086, 72.72478
917.8907, 72.96799
918.3728, 74.28455
918.8549, 74.79210
919.3370, 73.27792
919.8192, 71.36521
920.3013, 71.46036
920.7834, 73.64085
921.2655, 74.62378
921.7476, 73.43784
922.2297, 72.73513
922.7119, 73.35607
923.1940, 74.08377
923.6761, 74.30781
924.1582, 74.12069
924.6403, 73.60728
925.1224, 72.58250
925.6046, 72.13978
926.0867, 73.14931
926.5688, 74.12974
927.0509, 74.12412
927.5330, 73.76216
928.0151, 73.84361
928.4973, 74.37818
928.9794, 74.86153
929.4615, 75.07188
929.9436, 75.08439
930.4257, 74.71677
930.9078, 74.34157
931.3900, 74.70525
931.8721, 75.56902
932.3542, 76.04184
932.8363, 75.83575
933.3184, 75.39548
933.8005, 75.11904
934.2827, 74.98113
934.7648, 75.00939
935.2469, 75.16105
935.7290, 74.91273
936.2111, 74.15697
936.6932, 73.64827
937.1754, 73.91497
937.6575, 74.38627
938.1396, 73.89209
938.6217, 72.28620
939.1038, 71.64839
939.5859, 72.45161
940.0681, 72.93430
940.5502, 72.45872
941.0323, 71.80714
941.5144, 71.74834
941.9965, 72.06652
942.4786, 71.78448
942.9608, 70.23840
943.4429, 69.48853
943.9250, 70.33128
944.4071, 71.14186
944.8892, 71.18313
945.3713, 70.90019
945.8535, 70.80611
946.3356, 70.92746
946.8177, 71.01543
947.2998, 71.03493
947.7819, 70.93698
948.2640, 70.63715
948.7462, 70.26085
949.2283, 69.84606
949.7104, 69.47166
950.1925, 69.29200
950.6746, 69.34107
951.1567, 69.42626
951.6389, 69.39809
952.1210, 69.32435
952.6031, 69.24705
953.0852, 69.20461
953.5673, 69.34631
954.0494, 69.63786
954.5316, 69.79493
955.0137, 69.66071
955.4958, 69.41671
955.9779, 69.32802
956.4600, 69.35949
956.9421, 69.29766
957.4242, 69.15099
957.9063, 69.22651
958.3884, 69.63067
958.8705, 69.92793
959.3527, 69.71439
959.8348, 69.23911
960.3169, 69.35561
960.7990, 70.32178
961.2811, 70.38855
961.7632, 69.14104
962.2454, 68.06715
962.7275, 67.68630
963.2096, 67.76699
963.6917, 68.21691
964.1738, 68.96591
964.6559, 69.22135
965.1381, 68.49014
965.6202, 68.06365
966.1023, 68.24567
966.5844, 68.42941
967.0665, 68.37424
967.5486, 68.15661
968.0308, 67.78862
968.5129, 67.28250
968.9950, 67.08766
969.4771, 67.58205
969.9592, 68.02342
970.4413, 68.15579
970.9235, 68.14267
971.4056, 68.12574
971.8877, 68.06512
972.3698, 67.76641
972.8519, 67.17586
973.3340, 66.83615
973.8162, 67.17855
974.2983, 67.76524
974.7804, 68.17706
975.2625, 68.64137
975.7446, 69.74007
976.2267, 71.23814
976.7089, 72.25538
977.1910, 72.38401
977.6731, 71.79781
978.1552, 70.10898
978.6373, 68.15443
979.1194, 67.54313
979.6016, 67.92257
980.0837, 68.18031
980.5658, 68.05605
981.0479, 67.66380
981.5300, 67.03486
982.0121, 66.48541
982.4943, 66.76031
982.9764, 67.66032
983.4585, 68.00630
983.9406, 67.77628
984.4227, 67.56571
984.9048, 67.56167
985.3870, 67.60396
985.8691, 67.54259
986.3512, 67.42158
986.8333, 67.38483
987.3154, 67.43874
987.7975, 67.53315
988.2797, 67.67857
988.7618, 67.81135
989.2439, 67.89742
989.7260, 67.98809
990.2081, 68.18571
990.6902, 68.45203
991.1724, 68.40493
991.6545, 67.85838
992.1366, 67.42342
992.6187, 67.07912
993.1008, 66.94431
993.5829, 67.25723
994.0651, 67.68266
994.5472, 67.67840
995.0293, 67.23247
995.5114, 67.09053
995.9935, 67.63932
996.4756, 67.94071
996.9578, 67.71210
997.4399, 67.37710
997.9220, 67.05190
998.4041, 66.82980
998.8862, 66.92130
999.3683, 67.35558
999.8505, 67.58396
1000.333, 67.34627
1000.815, 67.04489
1001.297, 66.53704
1001.779, 66.28587
1002.261, 67.01620
1002.743, 68.19560
1003.225, 68.65226
1003.707, 68.08958
1004.190, 67.58482
1004.672, 67.82256
1005.154, 68.12810
1005.636, 68.15099
1006.118, 67.91793
1006.600, 67.18717
1007.082, 66.27313
1007.564, 66.05360
1008.046, 66.85638
1008.529, 67.76023
1009.011, 68.04105
1009.493, 68.05378
1009.975, 68.32331
1010.457, 68.54884
1010.939, 68.00576
1011.421, 66.82032
1011.903, 65.82869
1012.385, 65.44058
1012.868, 65.10566
1013.350, 65.37785
1013.832, 65.51097
1014.314, 66.19363
1014.796, 67.16378
1015.278, 67.60244
1015.760, 67.41647
1016.242, 67.03328
1016.725, 66.68419
1017.207, 66.53117
1017.689, 66.99311
1018.171, 67.82463
1018.653, 68.11526
1019.135, 67.91481
1019.617, 67.59051
1020.099, 67.23327
1020.581, 66.92826
1021.064, 66.72990
1021.546, 66.63880
1022.028, 66.65486
1022.510, 66.77793
1022.992, 67.08868
1023.474, 67.59589
1023.956, 67.75729
1024.438, 67.39805
1024.921, 67.05592
1025.403, 67.14445
1025.885, 67.49581
1026.367, 67.72811
1026.849, 67.83516
1027.331, 67.91577
1027.813, 67.97991
1028.295, 67.92739
1028.777, 67.66728
1029.260, 67.53281
1029.742, 67.87569
1030.224, 68.43321
1030.706, 68.40098
1031.188, 67.60235
1031.670, 67.15386
1032.152, 67.07626
1032.634, 67.33220
1033.116, 68.13297
1033.599, 68.83511
1034.081, 68.84072
1034.563, 68.37305
1035.045, 68.12334
1035.527, 68.12578
1036.009, 68.25356
1036.491, 68.72668
1036.973, 68.88769
1037.456, 68.33365
1037.938, 67.68702
1038.420, 67.48391
1038.902, 67.59700
1039.384, 67.55203
1039.866, 67.06430
1040.348, 67.24361
1040.830, 69.16422
1041.313, 70.20688
1041.795, 68.76296
1042.277, 67.03913
1042.759, 66.80782
1043.241, 67.72270
1043.723, 68.79761
1044.205, 70.32039
1044.687, 71.15469
1045.169, 70.74295
1045.651, 70.30881
1046.134, 70.26637
1046.616, 70.26643
1047.098, 69.91409
1047.580, 69.37798
1048.062, 69.18176
1048.544, 69.45818
1049.026, 69.76130
1049.508, 70.12248
1049.991, 70.38731
1050.473, 70.48296
1050.955, 70.48254
1051.437, 70.48201
1051.919, 70.43311
1052.401, 70.13557
1052.883, 69.43443
1053.365, 69.06941
1053.848, 69.14675
1054.330, 69.65120
1054.812, 71.13541
1055.294, 72.55784
1055.776, 72.75508
1056.258, 72.22247
1056.740, 72.34378
1057.222, 73.48415
1057.704, 74.45988
1058.187, 74.79098
1058.669, 75.07860
1059.151, 75.56754
1059.633, 76.12547
1060.115, 76.61681
1060.597, 77.08335
1061.079, 77.58176
1061.561, 78.09904
1062.043, 78.96728
1062.526, 80.92999
1063.008, 82.46793
1063.490, 82.35873
1063.972, 82.01899
1064.454, 82.86668
1064.936, 84.41640
1065.418, 85.52654
1065.900, 85.96444
1066.383, 86.04948
1066.865, 85.63401
1067.347, 85.24498
1067.829, 85.26106
1068.311, 85.28672
1068.793, 84.89780
1069.275, 84.28891
1069.757, 83.80383
1070.240, 83.52225
1070.722, 83.53160
1071.204, 83.80370
1071.686, 84.45962
1072.168, 86.01383
1072.650, 87.54202
1073.132, 87.98710
1073.614, 87.99515
1074.096, 88.64804
1074.578, 90.14835
1075.061, 92.27648
1075.543, 95.38622
1076.025, 98.41061
1076.507, 100.8524
1076.989, 102.9903
1077.471, 104.3795
1077.953, 105.9765
1078.435, 109.6212
1078.918, 115.1598
1079.400, 119.8973
1079.882, 122.3097
1080.364, 124.8949
1080.846, 128.4921
1081.328, 133.0868
1081.810, 139.2684
1082.292, 146.0932
1082.774, 152.3688
1083.257, 158.0252
1083.739, 163.5947
1084.221, 169.0039
1084.703, 175.1809
1085.185, 183.2964
1085.667, 191.4666
1086.149, 198.1429
1086.631, 204.3843
1087.114, 212.1166
1087.596, 220.6638
1088.078, 227.3626
1088.560, 231.3270
1089.042, 234.0311
1089.524, 236.0478
1090.006, 237.0707
1090.488, 237.1764
1090.970, 235.9937
1091.453, 232.9504
1091.935, 228.3395
1092.417, 222.9102
1092.899, 216.7789
1093.381, 210.2138
1093.863, 202.8855
1094.345, 195.6983
1094.827, 189.1464
1095.309, 182.9155
1095.792, 176.7141
1096.274, 170.6397
1096.756, 164.8331
1097.238, 159.3363
1097.720, 154.2948
1098.202, 150.1983
1098.684, 145.9532
1099.166, 140.7736
1099.649, 135.6997
1100.131, 131.2132
1100.613, 127.4295
1101.095, 124.7435
1101.577, 123.0293
1102.059, 120.6838
1102.541, 116.8397
1103.023, 113.1461
1103.505, 109.8388
1103.988, 106.9297
1104.470, 104.6830
1104.952, 102.6702
1105.434, 100.2933
1105.916, 97.66282
1106.398, 95.54233
1106.880, 94.29527
1107.362, 92.97343
1107.844, 91.50642
1108.327, 89.83921
1108.809, 87.74613
1109.291, 85.60828
1109.773, 83.55517
1110.255, 81.75933
1110.737, 80.77638
1111.219, 80.92805
1111.701, 80.78381
1112.184, 80.15350
1112.666, 79.34733
1113.148, 78.27291
1113.630, 77.20126
1114.112, 76.22689
1114.594, 75.41358
1115.076, 74.95945
1115.558, 74.93774
1116.041, 74.55252
1116.523, 73.56815
1117.005, 72.61292
1117.487, 71.53768
1117.969, 70.81695
1118.451, 70.99332
1118.933, 71.33986
1119.415, 70.78921
1119.897, 69.47034
1120.380, 68.83231
1120.862, 69.28068
1121.344, 69.40730
1121.826, 69.07938
1122.308, 68.58901
1122.790, 67.92384
1123.272, 67.33170
1123.754, 67.07807
1124.236, 67.06487
1124.719, 66.93565
1125.201, 66.61619
1125.683, 66.64193
1126.165, 67.20287
1126.647, 67.31506
1127.129, 66.58643
1127.611, 65.91441
1128.093, 65.94209
1128.576, 66.34808
1129.058, 66.55367
1129.540, 66.56392
1130.022, 66.47805
1130.504, 66.28457
1130.986, 66.12810
1131.468, 66.02780
1131.950, 66.00211
1132.432, 66.06969
1132.915, 66.16225
1133.397, 66.23138
1133.879, 66.21127
1134.361, 65.74411
1134.843, 64.89315
1135.325, 64.47896
1135.807, 64.54469
1136.289, 64.78805
1136.771, 65.10432
1137.254, 65.24427
1137.736, 64.97511
1138.218, 64.55860
1138.700, 64.49084
1139.182, 64.66814
1139.664, 64.77986
1140.146, 64.81347
1140.628, 64.68132
1141.111, 64.42450
1141.593, 64.43066
1142.075, 64.91037
1142.557, 65.42896
1143.039, 65.52369
1143.521, 65.31552
1144.003, 64.86524
1144.485, 64.32719
1144.968, 64.02762
1145.450, 63.94560
1145.932, 63.88308
1146.414, 63.78080
1146.896, 63.74800
1147.378, 63.90820
1147.860, 64.07096
1148.342, 64.02068
1148.824, 63.89830
1149.307, 63.83914
1149.789, 63.84711
1150.271, 63.91112
1150.753, 64.02492
1151.235, 64.19439
1151.717, 64.44884
1152.199, 64.62966
1152.681, 64.64279
1153.163, 64.55788
1153.646, 64.37296
1154.128, 64.15284
1154.610, 63.95434
1155.092, 63.77683
1155.574, 63.55855
1156.056, 63.28107
1156.538, 63.23117
1157.020, 63.81860
1157.503, 64.17303
1157.985, 63.76440
1158.467, 63.36189
1158.949, 63.56698
1159.431, 63.95598
1159.913, 63.83999
1160.395, 63.29967
1160.877, 63.24402
1161.359, 64.31325
1161.842, 64.66485
1162.324, 63.69958
1162.806, 62.89796
1163.288, 62.57772
1163.770, 62.65918
1164.252, 63.24009
1164.734, 64.06768
1165.216, 64.57633
1165.698, 64.74222
1166.181, 64.91319
1166.663, 65.15029
1167.145, 65.15591
1167.627, 64.85783
1168.109, 64.40402
1168.591, 63.79369
1169.073, 63.30769
1169.555, 63.30676
1170.037, 63.16723
1170.520, 63.72838
1171.002, 63.57210
1171.484, 63.75841
1171.966, 64.29638
1172.448, 64.50446
1172.930, 64.20663
1173.412, 63.85406
1173.894, 63.73836
1174.377, 63.82636
1174.859, 64.22763
1175.341, 64.72429
1175.823, 64.55902
1176.305, 64.00445
1176.787, 63.92796
1177.269, 64.32609
1177.751, 64.69853
1178.234, 64.85298
1178.716, 64.81081
1179.198, 64.47543
1179.680, 64.20168
1180.162, 64.56248
1180.644, 65.06137
1181.126, 64.92833
1181.608, 64.52911
1182.090, 64.70187
1182.573, 65.35854
1183.055, 65.61813
1183.537, 65.10472
1184.019, 64.53230
1184.501, 64.23162
1184.983, 64.02907
1185.465, 63.71557
1185.947, 63.56430
1186.429, 63.96660
1186.912, 64.63309
1187.394, 65.04762
1187.876, 65.15883
1188.358, 65.18880
1188.840, 65.13506
1189.322, 65.06189
1189.804, 64.93024
1190.286, 64.84156
1190.769, 64.90650
1191.251, 64.93932
1191.733, 64.66808
1192.215, 64.30933
1192.697, 64.51657
1193.179, 64.29431
1193.661, 64.19254
1194.143, 64.54617
1194.625, 64.17286
1195.108, 64.91445
1195.590, 65.41039
1196.072, 64.94237
1196.554, 64.24651
1197.036, 64.19810
1197.518, 64.53053
1198.000, 64.28649
1198.482, 63.58619
1198.964, 63.62557
1199.447, 64.34687
1199.929, 64.90184
1200.411, 65.07516
1200.893, 64.80954
1201.375, 64.05395
1201.857, 63.34259
1202.339, 63.44014
1202.821, 63.83775
1203.304, 63.51656
1203.786, 62.99705
1204.268, 63.31744
1204.750, 64.24548
1205.232, 65.09353
1205.714, 65.62114
1206.196, 65.62793
1206.678, 64.84790
1207.161, 64.05309
1207.643, 63.54617
1208.125, 63.39801
1208.607, 64.04536
1209.089, 64.75248
1209.571, 64.62749
1210.053, 63.96713
1210.535, 63.59294
1211.017, 63.63335
1211.500, 63.72420
1211.982, 63.91043
1212.464, 63.98936
1212.946, 63.82868
1213.428, 63.68969
1213.910, 63.60368
1214.392, 63.66667
1214.874, 64.06554
1215.356, 64.62716
1215.839, 64.81425
1216.321, 64.59326
1216.803, 64.27316
1217.285, 63.80715
1217.767, 63.59147
1218.249, 63.72075
1218.731, 63.78539
1219.213, 63.56194
1219.696, 63.52622
1220.178, 64.29585
1220.660, 65.39503
1221.142, 65.64839
1221.624, 65.31288
1222.106, 65.18687
1222.588, 65.27439
1223.070, 65.50811
1223.552, 65.80332
1224.035, 65.85480
1224.517, 65.51880
1224.999, 65.11675
1225.481, 64.93770
1225.963, 64.79179
1226.445, 64.55185
1226.927, 64.21680
1227.409, 63.56856
1227.891, 62.94246
1228.374, 62.91291
1228.856, 63.46528
1229.338, 64.13314
1229.820, 64.95695
1230.302, 65.35538
1230.784, 64.78830
1231.266, 64.33957
1231.748, 64.50443
1232.231, 64.71360
1232.713, 64.57236
1233.195, 64.30309
1233.677, 64.25751
1234.159, 64.38800
1234.641, 64.24405
1235.123, 63.75050
1235.605, 63.32703
1236.088, 62.98336
1236.570, 62.68077
1237.052, 62.37788
1237.534, 62.46749
1238.016, 63.24501
1238.498, 64.21252
1238.980, 64.67623
1239.462, 64.78826
1239.944, 64.99723
1240.427, 65.19819
1240.909, 64.96574
1241.391, 64.44399
1241.873, 64.22502
1242.355, 64.39540
1242.837, 64.52964
1243.319, 64.39584
1243.801, 64.23986
1244.283, 64.29917
1244.766, 64.34719
1245.248, 63.95546
1245.730, 63.70026
1246.212, 64.50176
1246.694, 65.68417
1247.176, 65.90875
1247.658, 65.14938
1248.140, 64.75837
1248.622, 65.27339
1249.105, 65.42805
1249.587, 64.68280
1250.069, 64.35760
1250.551, 65.01790
1251.033, 65.70646
1251.515, 65.86537
1251.997, 65.63402
1252.479, 65.11699
1252.962, 64.45673
1253.444, 64.66458
1253.926, 64.21032
1254.408, 64.15904
1254.890, 64.46699
1255.372, 64.35747
1255.854, 65.70165
1256.336, 66.51248
1256.818, 65.63058
1257.301, 64.41759
1257.783, 64.36602
1258.265, 64.83959
1258.747, 65.00010
1259.229, 65.12479
1259.711, 65.88691
1260.193, 66.77940
1260.675, 66.62706
1261.157, 65.54206
1261.640, 64.87518
1262.122, 65.12492
1262.604, 65.36445
1263.086, 65.36605
1263.568, 65.22159
1264.050, 64.79746
1264.532, 64.42043
1265.014, 64.26033
1265.497, 64.27587
1265.979, 64.25252
1266.461, 64.91637
1266.943, 64.57553
1267.425, 64.75472
1267.907, 65.04960
1268.389, 64.64112
1268.871, 65.55387
1269.354, 65.65810
1269.836, 65.55272
1270.318, 65.50932
1270.800, 65.53831
1271.282, 65.69495
1271.764, 65.79163
1272.246, 65.35691
1272.728, 64.76842
1273.210, 64.71439
1273.693, 65.00558
1274.175, 65.30925
1274.657, 65.55248
1275.139, 65.71481
1275.621, 65.79501
1276.103, 65.86818
1276.585, 65.98373
1277.067, 66.06809
1277.549, 66.15013
1278.032, 66.12910
1278.514, 65.94581
1278.996, 65.64004
1279.478, 65.06545
1279.960, 64.52718
1280.442, 64.70024
1280.924, 65.55142
1281.406, 66.02470
1281.889, 66.10960
1282.371, 65.75233
1282.853, 64.90249
1283.335, 64.73188
1283.817, 65.56226
1284.299, 66.20631
1284.781, 65.88820
1285.263, 65.26077
1285.745, 64.98476
1286.228, 65.06012
##END=



