##NAMES=Delafossite
##RRUFFID=R050403
##IDEAL CHEMISTRY=Cu^1+^Fe^3+^O_2_
##LOCALITY=Cole Shaft, Bisbee, Cochise County, Arizona, USA
##OWNER=RRUFF
##SOURCE=Marcus Origlieri
##DESCRIPTION=Black bladed rosettes
##STATUS=The identification of this mineral has been confirmed by X-ray diffraction and chemical analysis
##URL=rruff.info/R050403
##MEASURED CHEMISTRY=Cu^1+^(Fe^3+^_0.94_Al_0.06_)O_2_
92.35352, 11.69759
92.83563, 11.85163
93.31775, 11.91762
93.79987, 11.80705
94.28198, 11.59673
94.76410, 11.52639
95.24622, 11.69545
95.72833, 11.97499
96.21045, 12.06549
96.69257, 11.95680
97.17468, 11.83069
97.65680, 12.01123
98.13892, 12.48590
98.62103, 12.46255
99.10315, 11.49688
99.58527, 9.795490
100.0674, 8.879596
100.5495, 8.911955
101.0316, 9.391048
101.5137, 9.709446
101.9958, 9.796065
102.4780, 9.981841
102.9601, 10.39770
103.4422, 11.08734
103.9243, 11.73820
104.4064, 12.43647
104.8885, 13.04581
105.3707, 13.27965
105.8528, 12.78111
106.3349, 12.40603
106.8170, 12.51712
107.2991, 13.53673
107.7813, 14.24376
108.2634, 14.57789
108.7455, 14.59251
109.2276, 14.45980
109.7097, 13.70138
110.1918, 13.14381
110.6740, 13.12947
111.1561, 14.37052
111.6382, 15.36496
112.1203, 15.78011
112.6024, 15.74832
113.0845, 16.05418
113.5667, 17.04816
114.0488, 18.29198
114.5309, 19.50256
115.0130, 20.73654
115.4951, 21.80687
115.9772, 22.64410
116.4594, 23.25799
116.9415, 23.75663
117.4236, 24.12882
117.9057, 24.42416
118.3878, 24.69460
118.8699, 24.88193
119.3521, 25.10904
119.8342, 25.38693
120.3163, 25.69839
120.7984, 26.26503
121.2805, 27.21935
121.7626, 28.52049
122.2448, 30.09857
122.7269, 32.67353
123.2090, 35.14594
123.6911, 36.38646
124.1732, 36.17295
124.6553, 35.15957
125.1375, 33.53162
125.6196, 31.49082
126.1017, 29.67563
126.5838, 28.19435
127.0659, 27.23591
127.5480, 27.26290
128.0302, 28.58617
128.5123, 30.38634
128.9944, 31.65076
129.4765, 32.39989
129.9586, 32.82541
130.4407, 32.96917
130.9229, 32.87642
131.4050, 32.71277
131.8871, 32.47008
132.3692, 32.21480
132.8513, 32.10501
133.3334, 32.09587
133.8156, 32.02928
134.2977, 31.82038
134.7798, 31.58706
135.2619, 31.64435
135.7440, 32.08681
136.2261, 32.85952
136.7083, 33.77378
137.1904, 34.83187
137.6725, 36.02387
138.1546, 37.50635
138.6367, 39.42705
139.1188, 40.90143
139.6010, 41.86267
140.0831, 42.32143
140.5652, 41.49007
141.0473, 38.88202
141.5294, 35.67286
142.0115, 33.40643
142.4937, 32.26875
142.9758, 31.54794
143.4579, 31.07969
143.9400, 30.91242
144.4221, 30.73807
144.9042, 30.42307
145.3864, 30.17083
145.8685, 30.39248
146.3506, 31.62400
146.8327, 32.60275
147.3148, 32.88876
147.7969, 32.14431
148.2791, 31.46729
148.7612, 30.80039
149.2433, 30.20527
149.7254, 29.81563
150.2075, 29.50452
150.6896, 29.50705
151.1718, 29.93363
151.6539, 31.26550
152.1360, 32.31576
152.6181, 33.01304
153.1002, 33.40965
153.5823, 33.65586
154.0645, 33.52691
154.5466, 33.42462
155.0287, 33.54979
155.5108, 34.62897
155.9929, 35.09076
156.4750, 34.31004
156.9572, 32.59903
157.4393, 31.24059
157.9214, 30.64420
158.4035, 30.38417
158.8856, 30.19169
159.3677, 30.04572
159.8499, 29.92203
160.3320, 29.74703
160.8141, 29.55322
161.2962, 29.54889
161.7783, 29.89838
162.2604, 30.42652
162.7426, 30.98875
163.2247, 31.91814
163.7068, 32.54642
164.1889, 32.43532
164.6710, 31.63128
165.1531, 30.79834
165.6353, 30.07419
166.1174, 29.55263
166.5995, 29.33480
167.0816, 29.69982
167.5637, 30.19796
168.0458, 30.51492
168.5280, 30.64376
169.0101, 30.83994
169.4922, 31.28924
169.9743, 31.89893
170.4564, 32.53798
170.9385, 33.57803
171.4207, 34.37354
171.9028, 34.10297
172.3849, 32.68823
172.8670, 31.32067
173.3491, 31.01051
173.8312, 31.39025
174.3134, 31.75872
174.7955, 31.73370
175.2776, 31.55155
175.7597, 31.48106
176.2418, 31.53957
176.7239, 31.66985
177.2061, 31.88129
177.6882, 32.13375
178.1703, 32.31433
178.6524, 32.42055
179.1345, 32.40989
179.6166, 32.13866
180.0988, 31.54817
180.5809, 30.95533
181.0630, 30.74976
181.5451, 30.86142
182.0272, 31.01890
182.5093, 31.08508
182.9915, 31.09426
183.4736, 31.12111
183.9557, 31.16698
184.4378, 31.24440
184.9199, 31.39798
185.4020, 31.61319
185.8842, 31.80841
186.3663, 31.97508
186.8484, 32.09169
187.3305, 32.07072
187.8126, 31.89976
188.2947, 31.60631
188.7769, 31.20495
189.2590, 30.69952
189.7411, 30.16697
190.2232, 29.50747
190.7053, 28.79440
191.1874, 28.54762
191.6696, 28.91693
192.1517, 29.55556
192.6338, 29.83721
193.1159, 29.75426
193.5980, 29.53644
194.0801, 29.28141
194.5623, 28.99410
195.0444, 28.71129
195.5265, 28.40829
196.0086, 28.15351
196.4907, 28.17878
196.9728, 28.53001
197.4550, 28.77603
197.9371, 28.54310
198.4192, 27.81976
198.9013, 27.36612
199.3834, 27.29913
199.8655, 27.48400
200.3477, 27.59802
200.8298, 27.62344
201.3119, 27.65760
201.7940, 27.79996
202.2761, 28.07278
202.7582, 28.20049
203.2404, 28.14071
203.7225, 27.93583
204.2046, 27.67726
204.6867, 27.34187
205.1688, 27.03156
205.6509, 26.80783
206.1331, 26.67185
206.6152, 26.61224
207.0973, 26.65231
207.5794, 26.75568
208.0615, 26.81044
208.5436, 26.80784
209.0258, 26.77971
209.5079, 26.74528
209.9900, 26.70683
210.4721, 26.64143
210.9542, 26.51150
211.4363, 26.36509
211.9185, 26.38668
212.4006, 26.64023
212.8827, 26.92434
213.3648, 27.11630
213.8469, 27.20676
214.3290, 27.24658
214.8112, 27.22759
215.2933, 27.16294
215.7754, 27.09353
216.2575, 27.00774
216.7396, 26.93851
217.2217, 26.91401
217.7038, 26.95860
218.1860, 26.97106
218.6681, 26.93234
219.1502, 26.85867
219.6323, 26.81438
220.1144, 26.82291
220.5965, 26.82187
221.0787, 26.74840
221.5608, 26.51042
222.0429, 26.46566
222.5250, 26.72044
223.0071, 27.17561
223.4892, 27.45281
223.9714, 27.49587
224.4535, 27.45515
224.9356, 27.39754
225.4177, 27.28925
225.8998, 27.25318
226.3819, 27.33002
226.8641, 27.47906
227.3462, 27.55749
227.8283, 27.54785
228.3104, 27.49423
228.7925, 27.40964
229.2746, 27.25467
229.7568, 27.15757
230.2389, 27.14135
230.7210, 27.18171
231.2031, 27.20998
231.6852, 27.25320
232.1673, 27.24428
232.6495, 27.11899
233.1316, 26.72086
233.6137, 26.57489
234.0958, 26.82971
234.5779, 27.31729
235.0600, 27.54517
235.5422, 27.35504
236.0243, 27.13813
236.5064, 27.08645
236.9885, 27.34696
237.4706, 27.43575
237.9527, 27.25647
238.4349, 26.93006
238.9170, 26.76747
239.3991, 26.85927
239.8812, 26.97944
240.3633, 27.03505
240.8454, 27.00352
241.3276, 26.95782
241.8097, 26.86687
242.2918, 26.77390
242.7739, 26.79439
243.2560, 27.04925
243.7381, 27.22992
244.2203, 27.19112
244.7024, 26.80582
245.1845, 26.56894
245.6666, 26.56298
246.1487, 26.33967
246.6308, 26.74071
247.1130, 26.96377
247.5951, 27.01840
248.0772, 26.40019
248.5593, 26.65082
249.0414, 26.55326
249.5235, 26.44142
250.0057, 26.81434
250.4878, 26.29399
250.9699, 26.65922
251.4520, 26.67094
251.9341, 26.84446
252.4162, 26.66763
252.8984, 26.59901
253.3805, 26.88085
253.8626, 26.96863
254.3447, 26.75147
254.8268, 26.93527
255.3089, 26.40268
255.7911, 26.49874
256.2732, 26.87802
256.7553, 27.05568
257.2374, 27.03943
257.7195, 26.92941
258.2017, 26.84877
258.6838, 26.81595
259.1659, 26.76639
259.6480, 26.66228
260.1301, 26.49876
260.6122, 26.45426
261.0944, 26.61243
261.5765, 26.78597
262.0586, 26.72935
262.5407, 26.29367
263.0228, 26.05098
263.5049, 26.19725
263.9871, 26.71165
264.4692, 27.02097
264.9513, 27.08533
265.4334, 27.01406
265.9155, 26.90456
266.3976, 26.76933
266.8798, 26.54601
267.3619, 26.15672
267.8440, 25.64655
268.3261, 25.42621
268.8082, 25.55681
269.2903, 25.84727
269.7725, 26.16546
270.2546, 26.51450
270.7367, 26.88360
271.2188, 27.36028
271.7009, 27.83776
272.1830, 27.73228
272.6652, 26.79650
273.1473, 25.95800
273.6294, 25.99267
274.1115, 27.10486
274.5936, 27.80895
275.0757, 27.85545
275.5579, 27.47952
276.0400, 27.37803
276.5221, 27.62043
277.0042, 27.85580
277.4863, 27.84871
277.9684, 27.57733
278.4506, 27.35366
278.9327, 27.18416
279.4148, 27.09083
279.8969, 27.17664
280.3790, 27.47759
280.8611, 27.70601
281.3433, 27.63985
281.8254, 27.28256
282.3075, 27.13236
282.7896, 27.24054
283.2717, 27.47531
283.7538, 27.68144
284.2360, 27.86379
284.7181, 27.89936
285.2002, 27.62099
285.6823, 27.08521
286.1644, 26.83392
286.6465, 26.90765
287.1287, 27.12512
287.6108, 27.25453
288.0929, 27.30280
288.5750, 27.40808
289.0571, 27.71605
289.5392, 28.12527
290.0214, 28.18680
290.5035, 27.87427
290.9856, 27.43995
291.4677, 27.06092
291.9498, 26.75553
292.4319, 26.67251
292.9141, 27.02781
293.3962, 27.53981
293.8783, 27.38966
294.3604, 26.56674
294.8425, 25.83420
295.3246, 25.96899
295.8068, 26.75124
296.2889, 27.45677
296.7710, 27.95449
297.2531, 28.25350
297.7352, 28.29556
298.2173, 28.10404
298.6995, 27.87632
299.1816, 27.70881
299.6637, 27.61216
300.1458, 27.64129
300.6279, 27.85923
301.1100, 28.08695
301.5922, 28.04098
302.0743, 27.78640
302.5564, 27.58815
303.0385, 27.75827
303.5206, 28.02942
304.0027, 27.93449
304.4849, 27.31810
304.9670, 26.73316
305.4491, 26.86768
305.9312, 27.46054
306.4133, 27.88574
306.8954, 27.61199
307.3776, 27.13652
307.8597, 26.99901
308.3418, 27.25917
308.8239, 27.55474
309.3060, 27.53268
309.7881, 27.38340
310.2703, 27.40730
310.7524, 27.96129
311.2345, 28.56018
311.7166, 28.81339
312.1987, 28.72598
312.6808, 28.62557
313.1630, 28.68797
313.6451, 28.83714
314.1272, 28.99284
314.6093, 29.19545
315.0914, 29.33327
315.5735, 29.29092
316.0557, 29.10700
316.5378, 28.98730
317.0199, 29.01323
317.5020, 29.13996
317.9841, 29.35144
318.4662, 29.75480
318.9484, 30.06974
319.4305, 30.12996
319.9126, 30.02433
320.3947, 29.98622
320.8768, 30.15108
321.3589, 30.34929
321.8411, 30.47758
322.3232, 30.44401
322.8053, 30.53231
323.2874, 30.93818
323.7695, 31.47294
324.2516, 31.83781
324.7338, 31.87548
325.2159, 31.83936
325.6980, 31.76413
326.1801, 31.60881
326.6622, 31.61289
327.1443, 31.97388
327.6265, 32.42300
328.1086, 32.68839
328.5907, 32.38956
329.0728, 32.32955
329.5549, 32.78899
330.0370, 33.77823
330.5192, 34.34858
331.0013, 34.13642
331.4834, 33.81852
331.9655, 33.87463
332.4476, 34.59165
332.9297, 35.19188
333.4119, 35.57570
333.8940, 35.78777
334.3761, 36.01684
334.8582, 36.27549
335.3403, 36.52250
335.8224, 36.74067
336.3046, 36.93903
336.7867, 37.06356
337.2688, 37.04801
337.7509, 37.00786
338.2330, 37.21010
338.7151, 37.73014
339.1973, 38.25214
339.6794, 38.65358
340.1615, 38.92548
340.6436, 39.21597
341.1257, 39.53912
341.6078, 39.84590
342.0899, 40.02312
342.5721, 40.04874
343.0542, 40.21783
343.5363, 40.67579
344.0184, 41.33965
344.5005, 41.93282
344.9826, 42.47794
345.4648, 42.75568
345.9469, 42.34366
346.4290, 41.35338
346.9111, 40.72736
347.3932, 40.71580
347.8753, 41.05418
348.3575, 41.38669
348.8396, 41.69022
349.3217, 41.70797
349.8038, 40.94710
350.2859, 39.78261
350.7680, 39.20275
351.2502, 39.41924
351.7323, 39.85513
352.2144, 40.02669
352.6965, 39.90708
353.1786, 39.40865
353.6607, 38.12486
354.1429, 36.60825
354.6250, 35.55764
355.1071, 35.01110
355.5892, 34.66103
356.0713, 34.42022
356.5534, 34.19195
357.0356, 33.83144
357.5177, 33.18357
357.9998, 32.46920
358.4819, 31.77036
358.9640, 31.11333
359.4461, 30.66882
359.9283, 30.78227
360.4104, 31.00902
360.8925, 30.97445
361.3746, 30.52382
361.8567, 29.92404
362.3388, 29.13524
362.8210, 28.27623
363.3031, 27.59819
363.7852, 27.21273
364.2673, 27.00034
364.7494, 26.94268
365.2315, 27.09154
365.7137, 27.19467
366.1958, 27.17888
366.6779, 27.09941
367.1600, 27.02100
367.6421, 26.98911
368.1242, 26.91946
368.6064, 26.80524
369.0885, 26.64606
369.5706, 26.40721
370.0527, 25.97732
370.5348, 25.55291
371.0169, 25.26164
371.4991, 25.19598
371.9812, 25.10700
372.4633, 24.92868
372.9454, 24.71727
373.4275, 24.69683
373.9096, 24.99700
374.3918, 25.26258
374.8739, 25.31925
375.3560, 25.12544
375.8381, 24.89414
376.3202, 24.57259
376.8023, 24.28478
377.2845, 24.27934
377.7666, 24.62345
378.2487, 24.88038
378.7308, 24.88332
379.2129, 24.66878
379.6950, 24.47803
380.1772, 24.31371
380.6593, 24.15054
381.1414, 23.91192
381.6235, 23.62127
382.1056, 23.51468
382.5877, 23.73158
383.0699, 24.03378
383.5520, 23.86266
384.0341, 23.26961
384.5162, 22.79338
384.9983, 22.90299
385.4804, 23.35646
385.9626, 23.62028
386.4447, 23.62132
386.9268, 23.54289
387.4089, 23.56603
387.8910, 23.65250
388.3731, 23.71588
388.8553, 23.76152
389.3374, 23.73893
389.8195, 23.51177
390.3016, 23.10266
390.7837, 22.82262
391.2658, 22.90141
391.7480, 23.19841
392.2301, 23.59282
392.7122, 24.26648
393.1943, 24.73580
393.6764, 24.58004
394.1585, 24.00958
394.6407, 23.62519
395.1228, 23.94869
395.6049, 24.25928
396.0870, 24.12567
396.5691, 23.29433
397.0512, 22.69129
397.5334, 22.55354
398.0155, 22.71873
398.4976, 22.98359
398.9797, 23.63411
399.4618, 24.05516
399.9439, 24.06124
400.4261, 23.65460
400.9082, 23.28717
401.3903, 22.84148
401.8724, 22.54590
402.3545, 22.59732
402.8366, 23.30219
403.3188, 23.66509
403.8009, 23.50207
404.2830, 23.02106
404.7651, 22.76352
405.2472, 22.80899
405.7293, 22.85558
406.2115, 22.72989
406.6936, 22.42159
407.1757, 22.39271
407.6578, 22.71788
408.1399, 23.12125
408.6220, 23.29016
409.1042, 23.22845
409.5863, 23.09488
410.0684, 22.89604
410.5505, 22.67960
411.0326, 22.55784
411.5147, 22.52840
411.9969, 22.52811
412.4790, 22.55033
412.9611, 22.56532
413.4432, 22.44812
413.9253, 22.12423
414.4074, 21.89156
414.8896, 22.27081
415.3717, 22.99967
415.8538, 23.45707
416.3359, 23.12811
416.8180, 22.53182
417.3001, 22.08384
417.7823, 21.79127
418.2644, 21.63486
418.7465, 21.65911
419.2286, 21.78092
419.7107, 21.92414
420.1928, 22.11690
420.6750, 22.26445
421.1571, 22.29053
421.6392, 22.24108
422.1213, 22.23478
422.6034, 22.39338
423.0855, 22.52423
423.5677, 22.54462
424.0498, 22.42510
424.5319, 22.27766
425.0140, 21.98025
425.4961, 21.72034
425.9782, 21.70135
426.4604, 22.23525
426.9425, 22.54906
427.4246, 22.45858
427.9067, 22.02958
428.3888, 21.71440
428.8709, 21.50216
429.3531, 21.42227
429.8352, 21.53515
430.3173, 21.89962
430.7994, 22.15911
431.2815, 22.31792
431.7636, 22.34689
432.2458, 22.10556
432.7279, 21.56809
433.2100, 21.19354
433.6921, 21.18032
434.1742, 21.44912
434.6563, 21.76601
435.1385, 22.14011
435.6206, 22.42054
436.1027, 22.44687
436.5848, 22.27876
437.0669, 22.04411
437.5490, 21.71117
438.0312, 21.45936
438.5133, 21.58840
438.9954, 21.97625
439.4775, 22.28350
439.9596, 22.28559
440.4417, 22.16168
440.9239, 22.05990
441.4060, 21.98912
441.8881, 21.92126
442.3702, 21.81532
442.8523, 21.71694
443.3344, 21.67085
443.8166, 21.75795
444.2987, 21.81768
444.7808, 21.78104
445.2629, 21.67658
445.7450, 21.58759
446.2271, 21.48853
446.7093, 21.44649
447.1914, 21.53544
447.6735, 21.87087
448.1556, 21.94024
448.6377, 21.44933
449.1198, 20.88948
449.6020, 20.79231
450.0841, 21.44115
450.5662, 21.96773
451.0483, 22.25714
451.5304, 22.32566
452.0125, 22.18567
452.4947, 21.74073
452.9768, 21.38110
453.4589, 21.37362
453.9410, 21.72927
454.4231, 21.98373
454.9052, 22.11603
455.3874, 22.19033
455.8695, 22.30087
456.3516, 22.43709
456.8337, 22.51511
457.3158, 22.48006
457.7979, 22.39545
458.2801, 22.35833
458.7622, 22.36950
459.2443, 22.43564
459.7264, 22.65339
460.2085, 22.89368
460.6906, 22.94840
461.1728, 22.74579
461.6549, 22.55894
462.1370, 22.63283
462.6191, 22.83871
463.1012, 22.98676
463.5833, 22.96153
464.0655, 22.90532
464.5476, 22.87197
465.0297, 22.86135
465.5118, 22.85886
465.9939, 22.82745
466.4760, 22.82711
466.9582, 22.91050
467.4403, 23.27024
467.9224, 23.36482
468.4045, 22.91935
468.8866, 22.31796
469.3687, 22.13625
469.8509, 22.67360
470.3330, 23.09103
470.8151, 23.17185
471.2972, 22.95059
471.7793, 22.76844
472.2614, 22.60769
472.7436, 22.53051
473.2257, 22.61556
473.7078, 22.86683
474.1899, 23.06828
474.6720, 23.20723
475.1541, 23.28693
475.6363, 23.29608
476.1184, 23.24229
476.6005, 23.17319
477.0826, 23.08901
477.5647, 23.01216
478.0468, 22.94579
478.5290, 22.89968
479.0111, 22.96305
479.4932, 23.33527
479.9753, 23.79369
480.4574, 24.09788
480.9395, 24.22323
481.4217, 24.12836
481.9038, 23.47700
482.3859, 22.65909
482.8680, 22.25839
483.3501, 22.95803
483.8322, 23.62973
484.3144, 23.81657
484.7965, 23.54025
485.2786, 23.31986
485.7607, 23.24289
486.2428, 23.23294
486.7249, 23.25523
487.2071, 23.32644
487.6892, 23.39274
488.1713, 23.44780
488.6534, 23.50265
489.1355, 23.56871
489.6176, 23.63595
490.0998, 23.76244
490.5819, 24.03134
491.0640, 24.36888
491.5461, 24.29887
492.0282, 23.75485
492.5103, 23.29434
492.9925, 23.39347
493.4746, 23.94111
493.9567, 24.37584
494.4388, 24.66993
494.9209, 24.81340
495.4030, 24.72962
495.8852, 24.48597
496.3673, 24.24898
496.8494, 24.07963
497.3315, 23.94561
497.8136, 23.79965
498.2957, 23.65539
498.7779, 23.57595
499.2600, 23.51093
499.7421, 23.57902
500.2242, 23.98629
500.7063, 24.92262
501.1884, 25.45190
501.6706, 24.81593
502.1527, 23.84566
502.6348, 23.39005
503.1169, 24.21321
503.5990, 24.77090
504.0811, 24.80750
504.5633, 24.44925
505.0454, 24.15082
505.5275, 23.93184
506.0096, 23.74761
506.4917, 23.57904
506.9738, 23.42220
507.4560, 23.29865
507.9381, 23.19053
508.4202, 23.16314
508.9023, 23.38694
509.3844, 23.83465
509.8665, 24.00043
510.3487, 23.72421
510.8308, 23.24745
511.3129, 22.90918
511.7950, 22.70797
512.2772, 22.63710
512.7593, 22.81472
513.2414, 23.05620
513.7235, 23.09465
514.2056, 22.93669
514.6877, 22.83721
515.1699, 23.05853
515.6520, 23.36113
516.1341, 23.52001
516.6162, 23.43835
517.0983, 23.30272
517.5804, 23.18780
518.0626, 23.05508
518.5447, 22.84158
519.0268, 22.31151
519.5089, 21.94356
519.9910, 21.90269
520.4731, 22.16389
520.9553, 22.35186
521.4374, 22.46106
521.9195, 22.50319
522.4016, 22.44895
522.8837, 22.25182
523.3658, 22.22640
523.8480, 22.41885
524.3301, 22.69173
524.8122, 22.88150
525.2943, 22.98886
525.7764, 23.00873
526.2585, 22.87849
526.7407, 22.73089
527.2228, 22.90859
527.7049, 23.34223
528.1870, 23.62260
528.6691, 23.33602
529.1512, 22.84898
529.6334, 22.63242
530.1155, 22.72694
530.5976, 22.76698
531.0797, 22.44196
531.5618, 21.99605
532.0439, 21.67196
532.5261, 21.53893
533.0082, 21.51327
533.4903, 21.68876
533.9724, 21.94591
534.4545, 22.03063
534.9366, 21.70643
535.4188, 21.45320
535.9009, 21.39504
536.3830, 21.52767
536.8651, 21.67259
537.3472, 21.86928
537.8293, 22.00174
538.3115, 21.96716
538.7936, 21.75222
539.2757, 21.57714
539.7578, 21.46589
540.2399, 21.36096
540.7220, 21.10091
541.2042, 20.74317
541.6863, 20.61969
542.1684, 20.96141
542.6505, 21.43297
543.1326, 21.52481
543.6147, 21.31727
544.0969, 21.11795
544.5790, 21.17416
545.0611, 21.27129
545.5432, 21.21070
546.0253, 20.96854
546.5074, 20.74596
546.9896, 20.61721
547.4717, 20.55111
547.9538, 20.52208
548.4359, 20.50289
548.9180, 20.55424
549.4001, 20.74767
549.8823, 20.99390
550.3644, 21.14171
550.8465, 21.16781
551.3286, 21.13640
551.8107, 21.03052
552.2928, 20.87235
552.7750, 20.85385
553.2571, 21.00621
553.7392, 21.14423
554.2213, 21.11600
554.7034, 20.95666
555.1855, 20.89523
555.6677, 20.95844
556.1498, 20.99924
556.6319, 20.79215
557.1140, 20.45485
557.5961, 20.24798
558.0782, 20.33215
558.5604, 20.42290
559.0425, 20.11822
559.5246, 19.64498
560.0067, 19.51332
560.4888, 20.35902
560.9709, 21.20654
561.4531, 21.60157
561.9352, 21.52916
562.4173, 21.36426
562.8994, 20.97989
563.3815, 20.66076
563.8636, 20.58108
564.3458, 20.92124
564.8279, 20.98042
565.3100, 20.59526
565.7921, 20.13600
566.2742, 20.17602
566.7563, 20.79318
567.2385, 21.11317
567.7206, 20.84359
568.2027, 20.30316
568.6848, 20.21054
569.1669, 20.51620
569.6490, 20.86382
570.1312, 21.14619
570.6133, 21.32010
571.0954, 21.26441
571.5775, 20.99114
572.0596, 20.72698
572.5417, 20.57477
573.0239, 20.51807
573.5060, 20.57761
573.9881, 20.84348
574.4702, 20.98519
574.9523, 20.70405
575.4344, 20.31870
575.9166, 20.23784
576.3987, 20.84803
576.8808, 21.28017
577.3629, 21.38008
577.8450, 21.24469
578.3271, 21.20516
578.8093, 21.30616
579.2914, 21.36973
579.7735, 21.31521
580.2556, 21.15609
580.7377, 20.94068
581.2198, 20.65449
581.7020, 20.48374
582.1841, 20.62885
582.6662, 21.00085
583.1483, 21.44487
583.6304, 21.96893
584.1125, 22.36736
584.5947, 22.36294
585.0768, 22.13992
585.5589, 21.96780
586.0410, 21.97296
586.5231, 22.00923
587.0052, 22.00159
587.4873, 21.97888
587.9694, 22.01750
588.4515, 22.31133
588.9337, 22.48004
589.4158, 22.34490
589.8979, 21.90302
590.3800, 21.70316
590.8621, 21.87955
591.3442, 22.06004
591.8264, 21.92083
592.3085, 21.41688
592.7906, 21.35526
593.2727, 21.84704
593.7548, 22.46994
594.2369, 22.72150
594.7191, 22.68235
595.2012, 22.66134
595.6833, 22.74738
596.1654, 22.85650
596.6475, 22.97527
597.1296, 23.04597
597.6118, 22.93821
598.0939, 22.31909
598.5760, 21.74976
599.0581, 21.56533
599.5402, 21.74417
600.0223, 21.96909
600.5045, 22.30203
600.9866, 22.54925
601.4687, 22.59318
601.9508, 22.35550
602.4329, 22.28293
602.9150, 22.50004
603.3972, 22.70982
603.8793, 22.54801
604.3614, 21.94465
604.8435, 21.76818
605.3256, 22.23164
605.8077, 22.89340
606.2899, 22.98647
606.7720, 22.63067
607.2541, 22.39650
607.7362, 22.61672
608.2183, 22.93419
608.7004, 22.84703
609.1826, 22.47711
609.6647, 22.25052
610.1468, 22.57282
610.6289, 22.94996
611.1110, 23.05603
611.5931, 22.86543
612.0753, 22.70286
612.5574, 22.58528
613.0395, 22.55295
613.5216, 22.65306
614.0037, 23.02966
614.4858, 23.14646
614.9680, 22.89141
615.4501, 22.52760
615.9322, 22.36683
616.4143, 22.41714
616.8964, 22.51131
617.3785, 22.61460
617.8607, 22.75430
618.3428, 23.05862
618.8249, 23.46624
619.3070, 23.72015
619.7891, 23.53514
620.2712, 23.25712
620.7534, 23.28213
621.2355, 23.54257
621.7176, 23.72335
622.1997, 23.54981
622.6818, 23.35294
623.1639, 23.35876
623.6461, 23.63364
624.1282, 23.76761
624.6103, 23.55389
625.0924, 23.33142
625.5745, 23.32701
626.0566, 23.64885
626.5388, 23.87870
627.0209, 23.99187
627.5030, 24.03460
627.9851, 24.03768
628.4672, 24.00568
628.9493, 24.05303
629.4315, 24.24222
629.9136, 24.45777
630.3957, 24.46733
630.8778, 24.34517
631.3599, 24.31411
631.8420, 24.59729
632.3242, 24.92010
632.8063, 25.07590
633.2884, 25.08343
633.7705, 25.07039
634.2526, 25.03364
634.7347, 25.02799
635.2169, 25.08538
635.6990, 25.21503
636.1811, 25.36645
636.6632, 25.61362
637.1453, 25.78926
637.6274, 25.70553
638.1096, 25.28400
638.5917, 25.17885
639.0738, 25.48279
639.5559, 25.91894
640.0380, 26.17145
640.5201, 26.26136
641.0023, 26.25623
641.4844, 26.11627
641.9665, 26.00558
642.4486, 26.15186
642.9307, 26.45785
643.4128, 26.70891
643.8950, 26.78153
644.3771, 26.81333
644.8592, 26.79691
645.3413, 26.77024
645.8234, 26.92349
646.3055, 27.60815
646.7877, 28.13602
647.2698, 28.21270
647.7519, 27.81598
648.2340, 27.66334
648.7161, 27.80238
649.1982, 28.05300
649.6804, 28.30833
650.1625, 28.56625
650.6446, 28.80787
651.1267, 29.03064
651.6088, 29.24176
652.0909, 29.43523
652.5731, 29.62149
653.0552, 29.83458
653.5373, 30.11682
654.0194, 30.33913
654.5015, 30.35589
654.9836, 30.28447
655.4658, 30.29734
655.9479, 30.43521
656.4300, 30.66676
656.9121, 31.05571
657.3942, 31.53423
657.8763, 31.91906
658.3585, 32.19759
658.8406, 32.41238
659.3227, 32.55039
659.8048, 32.63628
660.2869, 32.79636
660.7690, 33.03172
661.2512, 33.29559
661.7333, 33.48178
662.2154, 33.69501
662.6975, 34.21338
663.1796, 35.03437
663.6617, 35.79404
664.1439, 36.17347
664.6260, 36.41857
665.1081, 36.72765
665.5902, 37.11105
666.0723, 37.62788
666.5544, 38.54805
667.0366, 39.45904
667.5187, 39.96547
668.0008, 39.77112
668.4829, 39.79940
668.9650, 40.16293
669.4471, 40.69619
669.9293, 41.12899
670.4114, 41.45959
670.8935, 41.89500
671.3756, 42.56412
671.8577, 43.25185
672.3398, 43.53434
672.8220, 43.52298
673.3041, 43.59428
673.7862, 44.03290
674.2683, 44.53815
674.7504, 44.85888
675.2325, 45.04063
675.7147, 45.31767
676.1968, 45.71068
676.6789, 46.27061
677.1610, 47.09988
677.6431, 48.22484
678.1252, 49.07047
678.6074, 49.53637
679.0895, 49.89744
679.5716, 50.33059
680.0537, 50.83938
680.5358, 51.20985
681.0179, 51.42197
681.5001, 51.61205
681.9822, 51.97177
682.4643, 52.39564
682.9464, 52.62322
683.4285, 52.55629
683.9106, 52.51891
684.3928, 52.90969
684.8749, 53.39561
685.3570, 53.58020
685.8391, 53.08374
686.3212, 52.62629
686.8033, 52.25523
687.2855, 52.00590
687.7676, 51.97819
688.2497, 52.32147
688.7318, 52.51070
689.2139, 52.43471
689.6960, 52.14554
690.1782, 51.78075
690.6603, 51.33850
691.1424, 50.77769
691.6245, 50.01125
692.1066, 49.14881
692.5887, 48.30329
693.0709, 47.49892
693.5530, 46.84151
694.0351, 46.65691
694.5172, 46.42667
694.9993, 45.74800
695.4814, 44.58394
695.9636, 43.57751
696.4457, 42.95770
696.9278, 42.38282
697.4099, 41.69428
697.8920, 40.86925
698.3741, 40.05777
698.8563, 39.22750
699.3384, 38.51091
699.8205, 38.11198
700.3026, 37.95245
700.7847, 37.61947
701.2668, 37.05006
701.7490, 36.46395
702.2311, 36.05910
702.7132, 35.77269
703.1953, 35.53996
703.6774, 35.43152
704.1595, 35.18773
704.6417, 34.52162
705.1238, 33.72338
705.6059, 33.22417
706.0880, 33.40310
706.5701, 33.25855
707.0522, 32.53614
707.5344, 31.55531
708.0165, 31.04904
708.4986, 31.05743
708.9807, 30.91945
709.4628, 30.35347
709.9449, 29.63565
710.4271, 29.27745
710.9092, 29.22268
711.3913, 29.25014
711.8734, 29.39772
712.3555, 29.45824
712.8376, 29.22646
713.3198, 28.75557
713.8019, 28.32509
714.2840, 27.98120
714.7661, 27.71935
715.2482, 27.53489
715.7303, 27.42757
716.2125, 27.43653
716.6946, 27.63415
717.1767, 27.75055
717.6588, 27.59595
718.1409, 27.20456
718.6230, 26.79891
719.1052, 26.37116
719.5873, 26.08004
720.0694, 26.21081
720.5515, 26.46956
721.0336, 26.46413
721.5157, 26.12588
721.9979, 25.71235
722.4800, 25.18356
722.9621, 24.72681
723.4442, 24.49536
723.9263, 24.56108
724.4084, 24.74849
724.8906, 25.16243
725.3727, 25.57700
725.8548, 25.75773
726.3369, 25.69429
726.8190, 25.55252
727.3011, 25.33517
727.7833, 25.10792
728.2654, 24.94866
728.7475, 24.84958
729.2296, 24.80135
729.7117, 24.83315
730.1938, 24.84786
730.6760, 24.76714
731.1581, 24.63006
731.6402, 24.49569
732.1223, 24.37062
732.6044, 24.26172
733.0865, 24.21544
733.5687, 24.16979
734.0508, 23.95970
734.5329, 23.51723
735.0150, 23.18667
735.4971, 23.04343
735.9792, 23.07909
736.4614, 23.40859
736.9435, 23.95237
737.4256, 24.30035
737.9077, 24.05142
738.3898, 23.66754
738.8719, 23.59110
739.3541, 23.74430
739.8362, 23.85445
740.3183, 23.90038
740.8004, 23.80947
741.2825, 23.45383
741.7646, 22.88454
742.2468, 22.53173
742.7289, 22.44695
743.2110, 22.44828
743.6931, 22.43269
744.1752, 22.42997
744.6573, 22.68793
745.1395, 23.19497
745.6216, 23.62296
746.1037, 23.71989
746.5858, 23.61571
747.0679, 23.41910
747.5500, 23.14399
748.0322, 22.91065
748.5143, 22.74448
748.9964, 22.66084
749.4785, 22.72540
749.9606, 23.01787
750.4427, 22.98951
750.9249, 22.37627
751.4070, 21.88645
751.8891, 22.20944
752.3712, 23.32491
752.8533, 23.70725
753.3354, 23.26605
753.8176, 22.60258
754.2997, 22.19536
754.7818, 21.96847
755.2639, 21.80221
755.7460, 21.67715
756.2281, 21.63342
756.7103, 21.81111
757.1924, 22.01040
757.6745, 22.04334
758.1566, 21.71633
758.6387, 21.57127
759.1208, 21.67944
759.6030, 21.88178
760.0851, 22.03114
760.5672, 22.12854
761.0493, 22.17173
761.5314, 22.16207
762.0135, 22.20603
762.4957, 22.44271
762.9778, 22.56177
763.4599, 22.57270
763.9420, 21.97110
764.4241, 22.29863
764.9063, 22.33832
765.3884, 22.42402
765.8705, 21.51084
766.3526, 21.94571
766.8347, 22.23221
767.3168, 22.28974
767.7990, 22.20728
768.2811, 22.05359
768.7632, 21.81456
769.2453, 21.84669
769.7274, 22.31109
770.2095, 22.84545
770.6917, 22.96457
771.1738, 22.75751
771.6559, 22.40228
772.1380, 21.80233
772.6201, 21.29932
773.1022, 21.06379
773.5844, 21.05215
774.0665, 21.20328
774.5486, 21.78885
775.0307, 22.11651
775.5128, 22.03791
775.9949, 21.69526
776.4771, 21.33710
776.9592, 20.95350
777.4413, 20.78394
777.9234, 20.95178
778.4055, 21.27882
778.8876, 21.54380
779.3698, 21.74768
779.8519, 21.89327
780.3340, 22.04297
780.8161, 22.06888
781.2982, 21.82797
781.7803, 21.41770
782.2625, 21.08876
782.7446, 20.71325
783.2267, 20.68081
783.7088, 21.21431
784.1909, 22.06370
784.6730, 22.55705
785.1552, 22.69829
785.6373, 22.52759
786.1194, 21.84286
786.6015, 21.10113
787.0836, 21.09573
787.5657, 21.60280
788.0479, 22.00568
788.5300, 21.91168
789.0121, 21.75357
789.4942, 21.70004
789.9763, 21.73468
790.4584, 21.77359
790.9406, 21.81869
791.4227, 21.86948
791.9048, 21.97026
792.3869, 22.05208
792.8690, 21.78903
793.3511, 21.21119
793.8333, 20.81586
794.3154, 20.91838
794.7975, 21.25607
795.2796, 21.59917
795.7617, 21.92385
796.2438, 22.13746
796.7260, 22.18520
797.2081, 22.13866
797.6902, 21.97223
798.1723, 21.72580
798.6544, 21.54114
799.1365, 21.42542
799.6187, 21.35345
800.1008, 21.30458
800.5829, 21.30148
801.0650, 21.48646
801.5471, 21.81700
802.0292, 22.02221
802.5114, 21.80153
802.9935, 21.51010
803.4756, 21.51791
803.9577, 21.73676
804.4398, 21.86831
804.9219, 21.72356
805.4041, 21.59052
805.8862, 21.58395
806.3683, 21.65661
806.8504, 21.57145
807.3325, 21.26902
807.8146, 21.10971
808.2968, 21.28975
808.7789, 21.64678
809.2610, 21.85579
809.7431, 21.92641
810.2252, 21.89761
810.7073, 21.76554
811.1895, 21.56336
811.6716, 21.23996
812.1537, 20.85099
812.6358, 20.59550
813.1179, 20.48497
813.6000, 20.54403
814.0822, 20.84300
814.5643, 21.29980
815.0464, 21.62482
815.5285, 21.81670
816.0106, 21.91354
816.4927, 21.88935
816.9749, 21.82142
817.4570, 21.85858
817.9391, 21.95250
818.4212, 21.96491
818.9033, 21.66848
819.3854, 21.44954
819.8676, 21.54384
820.3497, 21.85022
820.8318, 22.00924
821.3139, 21.94996
821.7960, 21.91655
822.2781, 22.01046
822.7603, 22.12654
823.2424, 21.89266
823.7245, 21.38871
824.2066, 21.15577
824.6887, 21.65698
825.1708, 22.21167
825.6530, 22.05411
826.1351, 21.48512
826.6172, 21.17878
827.0993, 21.71573
827.5814, 22.05552
828.0635, 21.93555
828.5457, 21.52875
829.0278, 21.17236
829.5099, 20.87016
829.9920, 20.57314
830.4741, 20.19158
830.9562, 19.96091
831.4384, 20.46946
831.9205, 21.43212
832.4026, 22.12223
832.8847, 22.20479
833.3668, 22.06427
833.8489, 21.75700
834.3311, 21.39184
834.8132, 21.15651
835.2953, 21.05163
835.7774, 21.10077
836.2595, 21.37728
836.7416, 21.71674
837.2238, 21.80548
837.7059, 21.68020
838.1880, 21.68515
838.6701, 21.93243
839.1522, 22.22179
839.6343, 22.45738
840.1165, 22.56844
840.5986, 22.42911
841.0807, 21.74884
841.5628, 21.24626
842.0449, 21.13253
842.5270, 21.21599
843.0092, 21.35435
843.4913, 21.58213
843.9734, 21.64059
844.4555, 21.46966
844.9376, 21.26680
845.4197, 21.28270
845.9019, 21.43894
846.3840, 21.57823
846.8661, 21.67392
847.3482, 21.73709
847.8303, 21.82492
848.3124, 21.85250
848.7946, 21.69506
849.2767, 21.12052
849.7588, 21.03346
850.2409, 21.68914
850.7230, 22.34906
851.2051, 22.23292
851.6873, 21.48641
852.1694, 21.10477
852.6515, 21.16160
853.1336, 21.25841
853.6157, 20.95624
854.0978, 20.60295
854.5800, 20.57858
855.0621, 20.97195
855.5442, 21.29313
856.0263, 21.44012
856.5084, 21.49154
856.9905, 21.46803
857.4727, 21.37013
857.9548, 21.25935
858.4369, 21.13505
858.9190, 21.00315
859.4011, 20.82592
859.8832, 20.66193
860.3654, 20.61641
860.8475, 20.68293
861.3296, 20.78125
861.8117, 20.90626
862.2938, 21.02478
862.7759, 21.13148
863.2581, 21.22234
863.7402, 21.27474
864.2223, 21.30748
864.7044, 21.22757
865.1865, 20.95162
865.6686, 20.56646
866.1508, 20.27082
866.6329, 20.06332
867.1150, 19.94994
867.5971, 19.97664
868.0792, 20.05576
868.5613, 20.17561
869.0435, 20.30902
869.5256, 20.36799
870.0077, 20.32797
870.4898, 20.24496
870.9719, 20.09622
871.4540, 19.94173
871.9362, 19.94226
872.4183, 20.07600
872.9004, 20.15793
873.3825, 20.08875
873.8646, 20.03802
874.3467, 20.22061
874.8289, 20.51523
875.3110, 20.73632
875.7931, 20.81312
876.2752, 20.82670
876.7573, 20.72821
877.2394, 20.62600
877.7216, 20.72341
878.2037, 21.04860
878.6858, 20.99337
879.1679, 20.42440
879.6500, 19.78052
880.1321, 19.51764
880.6143, 19.49023
881.0964, 19.50196
881.5785, 19.52612
882.0606, 19.54342
882.5427, 19.58142
883.0248, 19.58030
883.5070, 19.48289
883.9891, 19.25620
884.4712, 19.13543
884.9533, 19.13033
885.4354, 19.18561
885.9175, 19.27759
886.3997, 19.39315
886.8818, 19.54290
887.3639, 19.71497
887.8460, 19.77227
888.3281, 19.40949
888.8102, 19.11796
889.2924, 19.31504
889.7745, 19.94851
890.2566, 20.10956
890.7387, 19.64478
891.2208, 19.16793
891.7029, 18.94608
892.1851, 18.87718
892.6672, 18.64770
893.1493, 18.31059
893.6314, 18.09806
894.1135, 18.20587
894.5956, 18.39089
895.0778, 18.54537
895.5599, 18.67103
896.0420, 18.77102
896.5241, 18.84192
897.0062, 18.90336
897.4883, 18.96877
897.9705, 19.01070
898.4526, 18.94613
898.9347, 18.80425
899.4168, 18.74036
899.8989, 18.83650
900.3810, 18.88549
900.8632, 18.61150
901.3453, 18.25073
901.8274, 18.08298
902.3095, 18.39598
902.7916, 18.44453
903.2737, 18.03561
903.7559, 17.64047
904.2380, 17.77246
904.7201, 18.36113
905.2022, 18.75829
905.6843, 18.92297
906.1664, 18.84928
906.6486, 18.29572
907.1307, 17.66130
907.6128, 17.30716
908.0949, 17.28171
908.5770, 17.35549
909.0591, 17.55639
909.5413, 17.76432
910.0234, 17.96505
910.5055, 18.13478
910.9876, 18.05158
911.4697, 17.73313
911.9518, 17.51236
912.4340, 17.69726
912.9161, 17.97306
913.3982, 17.97704
913.8803, 17.80936
914.3624, 17.74989
914.8445, 17.97838
915.3267, 18.20052
915.8088, 18.41316
916.2909, 18.55571
916.7730, 18.41516
917.2551, 18.00294
917.7372, 17.90977
918.2194, 18.40205
918.7015, 18.81983
919.1836, 18.17340
919.6657, 17.10977
920.1478, 16.53032
920.6299, 16.84537
921.1121, 17.23371
921.5942, 17.71963
922.0763, 18.08266
922.5584, 18.08885
923.0405, 17.72228
923.5226, 17.50995
924.0048, 17.47574
924.4869, 17.43900
924.9690, 17.13564
925.4511, 16.82124
925.9332, 16.84651
926.4153, 17.21240
926.8975, 17.50402
927.3796, 17.50671
927.8617, 17.53242
928.3438, 17.73409
928.8259, 18.04253
929.3080, 18.06075
929.7902, 17.79454
930.2723, 17.54070
930.7544, 17.41946
931.2365, 17.39133
931.7186, 17.49749
932.2007, 17.65247
932.6829, 17.68067
933.1650, 17.41634
933.6471, 17.16745
934.1292, 16.95303
934.6113, 16.79488
935.0934, 16.72278
935.5756, 16.73631
936.0577, 16.87847
936.5398, 17.17990
937.0219, 17.43262
937.5040, 17.36277
937.9861, 17.16162
938.4683, 17.07841
938.9504, 17.20374
939.4325, 17.16204
939.9146, 16.70899
940.3967, 16.31754
940.8788, 16.24511
941.3610, 16.47141
941.8431, 16.77402
942.3252, 17.14935
942.8073, 17.42625
943.2894, 17.47386
943.7715, 17.38931
944.2537, 17.16541
944.7358, 16.86968
945.2179, 16.73759
945.7000, 16.98785
946.1821, 17.18390
946.6642, 17.28542
947.1464, 17.26420
947.6285, 16.97761
948.1106, 16.47403
948.5927, 16.13268
949.0748, 16.06329
949.5569, 16.13160
950.0391, 16.37244
950.5212, 16.60802
951.0033, 16.59587
951.4854, 16.03273
951.9675, 15.87717
952.4496, 16.30204
952.9318, 16.85107
953.4139, 17.19748
953.8960, 17.36328
954.3781, 17.48887
954.8602, 17.57141
955.3423, 17.53932
955.8245, 17.22866
956.3066, 16.88693
956.7887, 16.62962
957.2708, 16.48528
957.7529, 16.58573
958.2350, 17.09008
958.7172, 17.46767
959.1993, 17.58706
959.6814, 17.48574
960.1635, 17.12810
960.6456, 16.60988
961.1277, 16.23816
961.6099, 16.11619
962.0920, 16.15786
962.5741, 16.40804
963.0562, 16.74665
963.5383, 17.05399
964.0204, 17.41464
964.5026, 17.43483
964.9847, 17.01011
965.4668, 16.60560
965.9489, 16.81891
966.4310, 17.31057
966.9131, 17.30552
967.3953, 16.79459
967.8774, 16.31897
968.3595, 16.03321
968.8416, 15.97391
969.3237, 16.24992
969.8058, 16.77217
970.2880, 17.19959
970.7701, 17.54899
971.2522, 17.67684
971.7343, 17.49529
972.2164, 17.13935
972.6985, 16.64763
973.1807, 16.15230
973.6628, 15.91567
974.1449, 16.15802
974.6270, 16.42810
975.1091, 16.68409
975.5912, 16.89548
976.0734, 17.03808
976.5555, 17.11204
977.0376, 17.05523
977.5197, 16.85365
978.0018, 16.76254
978.4839, 17.21056
978.9661, 17.71939
979.4482, 17.72690
979.9303, 17.23509
980.4124, 16.92026
980.8945, 16.95036
981.3766, 17.06469
981.8588, 17.23160
982.3409, 17.39987
982.8230, 17.41611
983.3051, 17.29774
983.7872, 17.12775
984.2693, 16.89644
984.7515, 16.69864
985.2336, 16.56898
985.7157, 16.52581
986.1978, 16.61037
986.6799, 16.92305
987.1620, 17.12226
987.6442, 17.19819
988.1263, 17.18678
988.6084, 17.08547
989.0905, 16.92933
989.5726, 16.81358
990.0547, 16.73754
990.5369, 16.64352
991.0190, 16.29512
991.5011, 16.13592
991.9832, 16.52621
992.4653, 17.27031
992.9474, 17.69872
993.4296, 17.77723
993.9117, 17.85184
994.3938, 18.07801
994.8759, 18.22492
995.3580, 17.84589
995.8401, 17.21997
996.3223, 16.78391
996.8044, 16.69047
997.2865, 16.70501
997.7686, 16.77726
998.2507, 16.94969
998.7328, 17.35903
999.2150, 17.97593
999.6971, 18.10588
1000.179, 17.75845
1000.661, 17.42351
1001.143, 17.47847
1001.626, 17.64486
1002.108, 17.75529
1002.590, 17.79350
1003.072, 17.72135
1003.554, 17.47205
1004.036, 17.28857
1004.518, 17.23919
1005.000, 17.24506
1005.482, 17.15303
1005.965, 17.00983
1006.447, 16.96447
1006.929, 17.09326
1007.411, 17.14953
1007.893, 16.81206
1008.375, 16.52529
1008.857, 16.67660
1009.339, 17.32299
1009.822, 17.56617
1010.304, 17.37115
1010.786, 17.15543
1011.268, 17.24006
1011.750, 17.41412
1012.232, 17.36245
1012.714, 17.17357
1013.196, 17.10507
1013.678, 17.52312
1014.161, 17.63946
1014.643, 17.16172
1015.125, 16.55611
1015.607, 16.60487
1016.089, 17.18158
1016.571, 17.45892
1017.053, 17.28735
1017.535, 17.14264
1018.018, 17.62602
1018.500, 18.09874
1018.982, 17.93866
1019.464, 17.09615
1019.946, 16.64780
1020.428, 16.68578
1020.910, 16.77190
1021.392, 16.66814
1021.874, 16.55395
1022.357, 16.86126
1022.839, 17.42809
1023.321, 17.87588
1023.803, 18.08395
1024.285, 18.12480
1024.767, 17.90928
1025.249, 17.62272
1025.731, 17.39370
1026.214, 17.21885
1026.696, 17.37785
1027.178, 17.89755
1027.660, 18.28254
1028.142, 18.02486
1028.624, 17.56296
1029.106, 17.21105
1029.588, 16.99900
1030.070, 16.96606
1030.553, 17.22721
1031.035, 17.36415
1031.517, 17.22237
1031.999, 16.99720
1032.481, 17.11118
1032.963, 17.41696
1033.445, 17.50556
1033.927, 17.19793
1034.410, 16.96760
1034.892, 17.17447
1035.374, 17.40451
1035.856, 17.32859
1036.338, 16.93468
1036.820, 16.84105
1037.302, 17.05429
1037.784, 17.29266
1038.266, 17.41397
1038.749, 17.45325
1039.231, 17.40503
1039.713, 17.30420
1040.195, 17.23499
1040.677, 17.22446
1041.159, 17.23605
1041.641, 17.29646
1042.123, 17.31887
1042.605, 17.12962
1043.088, 16.82346
1043.570, 16.69854
1044.052, 16.78580
1044.534, 16.88036
1045.016, 16.82973
1045.498, 16.80427
1045.980, 16.94123
1046.462, 17.17792
1046.945, 17.17206
1047.427, 16.91112
1047.909, 16.80370
1048.391, 17.07669
1048.873, 17.33961
1049.355, 16.98467
1049.837, 16.44361
1050.319, 16.33942
1050.802, 17.16820
1051.284, 17.50128
1051.766, 17.12748
1052.248, 16.69139
1052.730, 16.68916
1053.212, 16.98130
1053.694, 17.14243
1054.176, 17.19484
1054.658, 17.25011
1055.141, 17.40488
1055.623, 17.52251
1056.105, 17.54393
1056.587, 17.50588
1057.069, 17.46556
1057.551, 17.42476
1058.033, 17.28083
1058.515, 17.00101
1058.997, 16.79445
1059.480, 16.95544
1059.962, 17.20037
1060.444, 17.27208
1060.926, 17.14093
1061.408, 16.91813
1061.890, 16.48606
1062.372, 16.33567
1062.854, 16.78328
1063.337, 17.37770
1063.819, 17.05861
1064.301, 16.24529
1064.783, 15.91034
1065.265, 16.62345
1065.747, 17.12124
1066.229, 16.85135
1066.711, 16.40296
1067.193, 16.09733
1067.676, 15.93595
1068.158, 15.94573
1068.640, 16.11636
1069.122, 16.29139
1069.604, 16.41462
1070.086, 16.47200
1070.568, 16.41269
1071.050, 16.29094
1071.532, 16.23880
1072.015, 16.30637
1072.497, 16.25500
1072.979, 16.03295
1073.461, 15.81209
1073.943, 15.78695
1074.425, 15.87105
1074.907, 15.97062
1075.389, 16.07216
1075.872, 16.11301
1076.354, 16.01954
1076.836, 15.94046
1077.318, 15.89641
1077.800, 15.91116
1078.282, 16.10365
1078.764, 16.40893
1079.246, 16.59609
1079.729, 16.60915
1080.211, 16.48669
1080.693, 16.03407
1081.175, 15.63918
1081.657, 15.64416
1082.139, 16.04790
1082.621, 16.17163
1083.103, 16.01073
1083.585, 15.89798
1084.068, 16.04156
1084.550, 16.28594
1085.032, 16.60043
1085.514, 16.87695
1085.996, 16.88424
1086.478, 16.38661
1086.960, 16.11566
1087.442, 16.13624
1087.924, 16.25183
1088.406, 16.30506
1088.889, 16.31399
1089.371, 16.31205
1089.853, 16.29933
1090.335, 16.26459
1090.817, 16.19159
1091.299, 16.10485
1091.781, 15.97807
1092.263, 15.87482
1092.746, 15.99023
1093.228, 16.25080
1093.710, 16.23333
1094.192, 15.82589
1094.674, 15.53507
1095.156, 15.94582
1095.638, 16.35258
1096.120, 16.18161
1096.603, 15.54291
1097.085, 15.28958
1097.567, 15.43836
1098.049, 15.52431
1098.531, 15.32485
1099.013, 15.10715
1099.495, 15.14502
1099.977, 15.33546
1100.459, 15.57265
1100.942, 15.92099
1101.424, 16.02337
1101.906, 15.81189
1102.388, 15.57496
1102.870, 15.48798
1103.352, 15.50753
1103.834, 15.57507
1104.316, 15.67736
1104.798, 15.77501
1105.281, 15.87152
1105.763, 15.94009
1106.245, 15.98912
1106.727, 15.99514
1107.209, 15.86716
1107.691, 15.66795
1108.173, 15.73597
1108.655, 16.06584
1109.138, 16.29890
1109.620, 16.11703
1110.102, 15.91945
1110.584, 15.93829
1111.066, 16.04988
1111.548, 15.96572
1112.030, 15.68950
1112.512, 15.45544
1112.995, 15.30148
1113.477, 15.20908
1113.959, 15.18396
1114.441, 15.19546
1114.923, 15.23107
1115.405, 15.28663
1115.887, 15.31012
1116.369, 15.30113
1116.851, 15.25257
1117.333, 15.13090
1117.816, 15.03330
1118.298, 15.13660
1118.780, 15.32825
1119.262, 15.43203
1119.744, 15.34585
1120.226, 15.40549
1120.708, 15.71986
1121.190, 15.93376
1121.673, 15.74056
1122.155, 15.35677
1122.637, 15.37877
1123.119, 15.64551
1123.601, 15.71214
1124.083, 15.02847
1124.565, 14.68545
1125.047, 15.04981
1125.530, 15.52159
1126.012, 15.48608
1126.494, 15.05484
1126.976, 14.81977
1127.458, 14.79161
1127.940, 14.88497
1128.422, 15.35057
1128.904, 15.58266
1129.386, 15.03368
1129.869, 14.25170
1130.351, 14.14595
1130.833, 14.70264
1131.315, 15.12535
1131.797, 15.32242
1132.279, 15.39925
1132.761, 15.34128
1133.243, 15.28269
1133.725, 15.40535
1134.208, 15.62945
1134.690, 15.49818
1135.172, 14.93420
1135.654, 14.62202
1136.136, 14.77205
1136.618, 15.02685
1137.100, 14.95543
1137.582, 14.79483
1138.065, 14.80420
1138.547, 15.04021
1139.029, 15.35550
1139.511, 15.86031
1139.993, 16.02725
1140.475, 15.46646
1140.957, 14.74992
1141.439, 14.90535
1141.922, 15.51257
1142.404, 15.83820
1142.886, 15.56608
1143.368, 15.37282
1143.850, 15.35206
1144.332, 15.33167
1144.814, 15.18849
1145.296, 14.97965
1145.778, 14.85379
1146.260, 14.78844
1146.743, 14.71412
1147.225, 14.49877
1147.707, 14.43454
1148.189, 14.64050
1148.671, 14.89054
1149.153, 14.97875
1149.635, 14.93684
1150.117, 14.91386
1150.600, 14.91003
1151.082, 14.89926
1151.564, 14.82487
1152.046, 14.79485
1152.528, 14.86373
1153.010, 14.98435
1153.492, 15.12807
1153.974, 15.28340
1154.457, 15.30257
1154.939, 15.17356
1155.421, 15.01312
1155.903, 14.88851
1156.385, 14.76714
1156.867, 14.61394
1157.349, 14.45384
1157.831, 14.32478
1158.313, 14.22532
1158.796, 14.26899
1159.278, 14.48384
1159.760, 14.76304
1160.242, 15.18138
1160.724, 15.49141
1161.206, 15.38988
1161.688, 14.94815
1162.170, 14.74769
1162.652, 14.81349
1163.135, 14.83198
1163.617, 14.69086
1164.099, 14.55795
1164.581, 14.62565
1165.063, 14.78288
1165.545, 14.92434
1166.027, 15.03876
1166.509, 15.12058
1166.992, 15.18121
1167.474, 15.13426
1167.956, 14.88162
1168.438, 14.61740
1168.920, 14.59441
1169.402, 14.72066
1169.884, 14.88857
1170.366, 15.14631
1170.849, 15.17352
1171.331, 14.89702
1171.813, 14.64961
1172.295, 14.66570
1172.777, 14.77778
1173.259, 14.65253
1173.741, 14.42754
1174.223, 14.38201
1174.705, 14.81543
1175.188, 15.02383
1175.670, 14.95573
1176.152, 14.78046
1176.634, 14.47638
1177.116, 14.22655
1177.598, 14.54741
1178.080, 15.23512
1178.562, 15.66891
1179.044, 15.41298
1179.527, 15.24659
1180.009, 15.26169
1180.491, 15.31393
1180.973, 15.22202
1181.455, 15.07628
1181.937, 15.15680
1182.419, 15.40565
1182.901, 15.50018
1183.384, 15.13209
1183.866, 14.85820
1184.348, 14.78345
1184.830, 14.80451
1185.312, 14.78826
1185.794, 14.76561
1186.276, 14.85943
1186.758, 15.06031
1187.240, 15.16481
1187.723, 14.96912
1188.205, 14.81913
1188.687, 14.81046
1189.169, 14.86911
1189.651, 14.84407
1190.133, 14.78724
1190.615, 14.93030
1191.097, 15.30376
1191.579, 15.48375
1192.062, 15.13686
1192.544, 14.72425
1193.026, 14.34033
1193.508, 14.04601
1193.990, 13.99935
1194.472, 14.15815
1194.954, 14.40357
1195.436, 14.73071
1195.919, 14.99249
1196.401, 15.10198
1196.883, 15.15496
1197.365, 15.20001
1197.847, 15.21350
1198.329, 15.04257
1198.811, 14.77018
1199.293, 14.78767
1199.776, 15.30754
1200.258, 15.57358
1200.740, 14.85885
1201.222, 14.20219
1201.704, 14.14884
1202.186, 14.55102
1202.668, 14.94907
1203.150, 15.29399
1203.632, 15.34752
1204.115, 14.88933
1204.597, 14.55461
1205.079, 14.75733
1205.561, 15.06252
1206.043, 15.25662
1206.525, 15.33661
1207.007, 15.19226
1207.489, 14.88843
1207.971, 14.72163
1208.454, 14.89267
1208.936, 15.04884
1209.418, 15.03130
1209.900, 14.95229
1210.382, 14.87551
1210.864, 14.79865
1211.346, 14.63422
1211.828, 14.43640
1212.311, 14.49376
1212.793, 15.32903
1213.275, 15.83509
1213.757, 15.32297
1214.239, 14.59870
1214.721, 14.16965
1215.203, 14.03801
1215.685, 14.42915
1216.167, 15.20508
1216.650, 15.63975
1217.132, 15.03575
1217.614, 14.47030
1218.096, 14.26838
1218.578, 14.24886
1219.060, 14.30496
1219.542, 14.41891
1220.024, 14.45251
1220.506, 14.42093
1220.989, 14.42287
1221.471, 14.56842
1221.953, 14.67306
1222.435, 14.67233
1222.917, 14.62642
1223.399, 14.57548
1223.881, 14.52997
1224.363, 14.59144
1224.846, 14.73063
1225.328, 14.75273
1225.810, 14.28121
1226.292, 14.08846
1226.774, 14.53559
1227.256, 15.07464
1227.738, 14.95480
1228.220, 14.38881
1228.703, 14.17600
1229.185, 14.30879
1229.667, 14.41911
1230.149, 14.23284
1230.631, 14.16021
1231.113, 14.32818
1231.595, 14.58132
1232.077, 14.76740
1232.559, 14.86978
1233.042, 14.79100
1233.524, 14.55106
1234.006, 14.35546
1234.488, 14.35033
1234.970, 14.30063
1235.452, 14.10904
1235.934, 13.95311
1236.416, 14.17625
1236.898, 14.58364
1237.381, 14.74517
1237.863, 14.63725
1238.345, 14.41994
1238.827, 13.97779
1239.309, 13.68413
1239.791, 13.59549
1240.273, 13.68508
1240.755, 14.04154
1241.238, 14.49715
1241.720, 14.75218
1242.202, 14.78420
1242.684, 14.66647
1243.166, 14.27102
1243.648, 14.03998
1244.130, 14.07946
1244.612, 14.24279
1245.094, 14.42204
1245.577, 14.55401
1246.059, 14.47869
1246.541, 14.20798
1247.023, 14.13590
1247.505, 14.38096
1247.987, 14.56613
1248.469, 14.61208
1248.951, 14.57584
1249.433, 14.51097
1249.916, 14.41568
1250.398, 14.24871
1250.880, 14.02447
1251.362, 13.94755
1251.844, 14.05606
1252.326, 14.17617
1252.808, 14.28772
1253.290, 14.32382
1253.773, 14.08310
1254.255, 13.82953
1254.737, 13.84974
1255.219, 14.13977
1255.701, 14.43588
1256.183, 14.76096
1256.665, 14.85308
1257.147, 14.61020
1257.630, 14.35914
1258.112, 14.44170
1258.594, 14.61479
1259.076, 14.67587
1259.558, 14.64343
1260.040, 14.61466
1260.522, 14.58993
1261.004, 14.59880
1261.486, 14.65857
1261.969, 14.67732
1262.451, 14.52757
1262.933, 14.36859
1263.415, 14.29893
1263.897, 14.30500
1264.379, 14.37350
1264.861, 14.48869
1265.343, 14.52906
1265.825, 14.46455
1266.308, 14.35497
1266.790, 14.16671
1267.272, 14.01734
1267.754, 13.94172
1268.236, 13.95573
1268.718, 14.21905
1269.200, 14.61320
1269.682, 14.59667
1270.165, 13.99478
1270.647, 13.71914
1271.129, 14.68505
1271.611, 15.34339
1272.093, 15.08952
1272.575, 14.39897
1273.057, 14.17076
1273.539, 14.26222
1274.021, 14.38508
1274.504, 14.49627
1274.986, 14.56359
1275.468, 14.59830
1275.950, 14.55640
1276.432, 14.40404
1276.914, 14.21249
1277.396, 13.98451
1277.878, 13.84262
1278.360, 14.05759
1278.843, 14.68367
1279.325, 15.02667
1279.807, 15.00308
1280.289, 14.85668
1280.771, 14.59275
1281.253, 13.57035
1281.735, 14.26161
1282.217, 14.68865
1282.700, 14.86107
1283.182, 14.27405
1283.664, 14.46959
1284.146, 14.23061
1284.628, 13.89103
1285.110, 15.05490
1285.592, 15.15760
1286.074, 14.70186
1286.557, 14.22328
1287.039, 14.23450
1287.521, 14.57138
1288.003, 14.57180
1288.485, 14.27254
1288.967, 14.12721
1289.449, 14.24933
1289.931, 14.40009
1290.413, 14.51788
1290.896, 14.51162
1291.378, 14.25972
1291.860, 13.93564
1292.342, 14.06787
1292.824, 14.50338
1293.306, 14.69109
1293.788, 14.52142
1294.270, 14.34787
1294.752, 14.27686
1295.235, 14.28423
1295.717, 14.40979
1296.199, 14.53408
1296.681, 14.37854
1297.163, 14.10276
1297.645, 14.00947
1298.127, 14.13715
1298.609, 14.26082
1299.092, 14.35550
1299.574, 14.41459
1300.056, 14.41456
1300.538, 14.45817
1301.020, 14.85578
1301.502, 15.24073
1301.984, 15.06046
1302.466, 14.36294
1302.948, 14.08377
1303.431, 14.29261
1303.913, 14.45116
1304.395, 14.47172
1304.877, 14.34547
##END=



