##NAMES=Delhayelite
##RRUFFID=R060816
##IDEAL CHEMISTRY=K_7_Na_3_Ca_5_Al_2_Si_14_O_38_F_4_Cl_2_
##LOCALITY=Chibiny, Kola Peninsula, Russia
##OWNER=RRUFF
##SOURCE=Bob Jenkins
##DESCRIPTION=Dark brown platy fragment
##STATUS=The identification of this mineral has been confirmed by X-ray diffraction.
##URL=rruff.info/R060816
208.3087, 2096.982
208.7908, 2083.095
209.2730, 2072.631
209.7551, 2066.970
210.2372, 2065.955
210.7193, 2069.804
211.2014, 2083.399
211.6835, 2102.608
212.1657, 2112.761
212.6478, 2106.182
213.1299, 2098.025
213.6120, 2104.873
214.0941, 2125.204
214.5762, 2144.811
215.0584, 2157.203
215.5405, 2164.049
216.0226, 2168.773
216.5047, 2170.321
216.9868, 2173.194
217.4689, 2182.814
217.9511, 2197.829
218.4332, 2212.235
218.9153, 2222.554
219.3974, 2230.949
219.8795, 2241.902
220.3616, 2256.570
220.8438, 2271.829
221.3259, 2287.763
221.8080, 2302.979
222.2901, 2311.360
222.7722, 2302.036
223.2543, 2287.863
223.7365, 2291.668
224.2186, 2318.268
224.7007, 2345.030
225.1828, 2348.176
225.6649, 2337.846
226.1470, 2339.676
226.6292, 2375.747
227.1113, 2418.321
227.5934, 2429.236
228.0755, 2405.050
228.5576, 2383.545
229.0397, 2395.313
229.5219, 2427.055
230.0040, 2445.710
230.4861, 2434.373
230.9682, 2418.588
231.4503, 2424.368
231.9324, 2451.165
232.4146, 2477.272
232.8967, 2491.546
233.3788, 2496.556
233.8609, 2500.206
234.3430, 2501.598
234.8251, 2503.200
235.3073, 2506.260
235.7894, 2510.830
236.2715, 2518.260
236.7536, 2532.327
237.2357, 2546.809
237.7178, 2548.126
238.2000, 2529.390
238.6821, 2512.673
239.1642, 2512.645
239.6463, 2524.350
240.1284, 2531.706
240.6105, 2527.881
241.0927, 2518.993
241.5748, 2516.759
242.0569, 2523.272
242.5390, 2527.621
243.0211, 2525.781
243.5033, 2519.180
243.9854, 2509.247
244.4675, 2495.301
244.9496, 2481.640
245.4317, 2475.645
245.9138, 2478.084
246.3960, 2479.990
246.8781, 2480.002
247.3602, 2478.298
247.8423, 2475.383
248.3244, 2471.424
248.8065, 2465.228
249.2887, 2454.768
249.7708, 2439.218
250.2529, 2425.171
250.7350, 2409.228
251.2171, 2397.318
251.6992, 2397.776
252.1814, 2410.301
252.6635, 2423.115
253.1456, 2426.055
253.6277, 2418.197
254.1098, 2409.401
254.5919, 2394.173
255.0741, 2382.618
255.5562, 2384.812
256.0383, 2397.637
256.5204, 2407.023
257.0025, 2402.328
257.4846, 2385.312
257.9668, 2376.287
258.4489, 2380.542
258.9310, 2385.503
259.4131, 2386.444
259.8952, 2384.852
260.3773, 2384.332
260.8595, 2386.959
261.3416, 2391.534
261.8237, 2393.405
262.3058, 2392.761
262.7879, 2389.385
263.2701, 2380.065
263.7522, 2369.039
264.2343, 2360.906
264.7164, 2357.413
265.1985, 2358.826
265.6806, 2366.115
266.1628, 2389.690
266.6449, 2403.398
267.1270, 2397.569
267.6091, 2388.134
268.0912, 2390.899
268.5733, 2407.977
269.0555, 2427.098
269.5376, 2430.981
270.0197, 2411.947
270.5018, 2400.023
270.9839, 2398.275
271.4660, 2399.449
271.9482, 2398.839
272.4303, 2396.906
272.9124, 2397.927
273.3945, 2407.092
273.8766, 2425.733
274.3587, 2436.103
274.8409, 2426.440
275.3230, 2419.909
275.8051, 2428.209
276.2872, 2444.772
276.7693, 2454.645
277.2514, 2445.680
277.7336, 2423.442
278.2157, 2420.427
278.6978, 2454.154
279.1799, 2483.306
279.6620, 2496.055
280.1441, 2500.114
280.6263, 2503.871
281.1084, 2510.563
281.5905, 2520.759
282.0726, 2537.545
282.5547, 2565.959
283.0368, 2587.375
283.5190, 2590.129
284.0011, 2589.514
284.4832, 2596.767
284.9653, 2614.541
285.4474, 2638.149
285.9295, 2667.195
286.4117, 2703.282
286.8938, 2723.327
287.3759, 2705.898
287.8580, 2687.108
288.3401, 2691.030
288.8222, 2716.873
289.3044, 2747.723
289.7865, 2773.583
290.2686, 2795.086
290.7507, 2813.657
291.2328, 2826.419
291.7149, 2841.799
292.1971, 2865.522
292.6792, 2896.094
293.1613, 2930.165
293.6434, 2970.454
294.1255, 3011.971
294.6076, 3046.059
295.0898, 3071.666
295.5719, 3095.442
296.0540, 3118.241
296.5361, 3142.470
297.0182, 3173.594
297.5003, 3216.732
297.9825, 3261.232
298.4646, 3295.977
298.9467, 3323.042
299.4288, 3355.600
299.9109, 3400.613
300.3930, 3452.214
300.8752, 3498.723
301.3573, 3537.527
301.8394, 3577.996
302.3215, 3623.547
302.8036, 3672.954
303.2857, 3726.087
303.7679, 3783.961
304.2500, 3839.452
304.7321, 3880.303
305.2142, 3899.994
305.6963, 3934.130
306.1784, 3992.784
306.6606, 4061.625
307.1427, 4130.551
307.6248, 4198.192
308.1069, 4266.133
308.5890, 4337.260
309.0711, 4412.168
309.5533, 4475.333
310.0354, 4523.547
310.5175, 4565.453
310.9996, 4596.158
311.4817, 4623.348
311.9638, 4663.390
312.4460, 4726.468
312.9281, 4805.888
313.4102, 4875.187
313.8923, 4916.169
314.3744, 4970.156
314.8565, 5045.239
315.3387, 5132.046
315.8208, 5223.438
316.3029, 5316.564
316.7850, 5408.877
317.2671, 5495.516
317.7492, 5572.952
318.2314, 5654.343
318.7135, 5749.637
319.1956, 5841.046
319.6777, 5914.874
320.1598, 5973.799
320.6419, 6032.938
321.1241, 6106.989
321.6062, 6194.737
322.0883, 6280.364
322.5704, 6371.395
323.0525, 6447.625
323.5346, 6489.692
324.0168, 6514.572
324.4989, 6554.323
324.9810, 6630.771
325.4631, 6721.596
325.9452, 6782.339
326.4273, 6805.655
326.9095, 6830.150
327.3916, 6880.806
327.8737, 6935.276
328.3558, 6967.828
328.8379, 6970.219
329.3200, 6968.632
329.8022, 6991.228
330.2843, 7030.610
330.7664, 7046.854
331.2485, 7025.588
331.7306, 6985.925
332.2127, 6946.359
332.6949, 6906.411
333.1770, 6873.320
333.6591, 6857.671
334.1412, 6846.084
334.6233, 6820.604
335.1054, 6779.500
335.5876, 6733.261
336.0697, 6690.507
336.5518, 6650.588
337.0339, 6603.246
337.5160, 6543.286
337.9981, 6481.516
338.4803, 6423.955
338.9624, 6368.979
339.4445, 6310.471
339.9266, 6244.315
340.4087, 6176.525
340.8908, 6123.713
341.3730, 6108.736
341.8551, 6079.690
342.3372, 6030.947
342.8193, 5969.461
343.3014, 5895.523
343.7835, 5812.116
344.2657, 5730.825
344.7478, 5667.177
345.2299, 5624.656
345.7120, 5584.238
346.1941, 5545.455
346.6762, 5508.488
347.1584, 5478.564
347.6405, 5450.556
348.1226, 5413.374
348.6047, 5358.645
349.0868, 5289.787
349.5689, 5221.456
350.0511, 5150.721
350.5332, 5086.564
351.0153, 5030.657
351.4974, 4981.717
351.9795, 4942.696
352.4616, 4916.080
352.9438, 4884.674
353.4259, 4823.071
353.9080, 4730.875
354.3901, 4646.463
354.8722, 4577.427
355.3543, 4519.201
355.8365, 4467.539
356.3186, 4422.051
356.8007, 4378.457
357.2828, 4335.021
357.7649, 4292.205
358.2470, 4251.362
358.7292, 4212.583
359.2113, 4174.937
359.6934, 4137.906
360.1755, 4101.703
360.6576, 4066.935
361.1397, 4034.121
361.6219, 4002.096
362.1040, 3972.408
362.5861, 3943.221
363.0682, 3908.464
363.5503, 3864.545
364.0324, 3817.734
364.5146, 3780.141
364.9967, 3755.962
365.4788, 3733.673
365.9609, 3710.750
366.4430, 3690.875
366.9251, 3679.887
367.4073, 3676.740
367.8894, 3671.893
368.3715, 3655.354
368.8536, 3626.141
369.3357, 3602.154
369.8178, 3587.876
370.3000, 3573.795
370.7821, 3556.272
371.2642, 3537.548
371.7463, 3521.824
372.2284, 3511.348
372.7105, 3503.448
373.1927, 3491.351
373.6748, 3471.511
374.1569, 3458.103
374.6390, 3465.238
375.1211, 3471.709
375.6032, 3461.095
376.0854, 3432.750
376.5675, 3402.687
377.0496, 3382.104
377.5317, 3370.031
378.0138, 3361.950
378.4959, 3357.841
378.9781, 3357.193
379.4602, 3368.056
379.9423, 3382.210
380.4244, 3379.553
380.9065, 3337.594
381.3886, 3293.674
381.8708, 3285.900
382.3529, 3307.003
382.8350, 3319.529
383.3171, 3304.536
383.7992, 3277.561
384.2813, 3273.770
384.7635, 3303.671
385.2456, 3324.907
385.7277, 3328.552
386.2098, 3321.396
386.6919, 3304.853
387.1740, 3281.630
387.6562, 3263.897
388.1383, 3263.642
388.6204, 3281.865
389.1025, 3301.138
389.5846, 3330.969
390.0667, 3351.436
390.5489, 3351.378
391.0310, 3339.675
391.5131, 3328.060
391.9952, 3321.574
392.4773, 3321.538
392.9594, 3333.247
393.4416, 3364.267
393.9237, 3384.871
394.4058, 3381.513
394.8879, 3374.255
395.3700, 3376.067
395.8521, 3386.204
396.3343, 3393.519
396.8164, 3384.242
397.2985, 3365.259
397.7806, 3362.862
398.2627, 3381.669
398.7448, 3403.407
399.2270, 3419.099
399.7091, 3430.159
400.1912, 3438.495
400.6733, 3443.274
401.1554, 3447.106
401.6375, 3455.298
402.1197, 3464.271
402.6018, 3460.918
403.0839, 3438.928
403.5660, 3412.486
404.0481, 3402.435
404.5302, 3414.698
405.0124, 3419.539
405.4945, 3410.576
405.9766, 3397.972
406.4587, 3388.589
406.9408, 3382.135
407.4229, 3374.800
407.9051, 3363.950
408.3872, 3350.350
408.8693, 3337.569
409.3514, 3318.548
409.8335, 3310.675
410.3156, 3328.970
410.7978, 3351.011
411.2799, 3354.711
411.7620, 3336.110
412.2441, 3310.035
412.7262, 3291.151
413.2083, 3279.537
413.6905, 3274.526
414.1726, 3280.963
414.6547, 3287.361
415.1368, 3285.485
415.6189, 3279.320
416.1010, 3277.990
416.5832, 3290.211
417.0653, 3301.850
417.5474, 3291.974
418.0295, 3262.608
418.5116, 3238.552
418.9937, 3229.841
419.4759, 3229.172
419.9580, 3224.655
420.4401, 3215.292
420.9222, 3208.694
421.4043, 3209.598
421.8864, 3212.274
422.3686, 3212.313
422.8507, 3208.844
423.3328, 3200.034
423.8149, 3182.829
424.2970, 3159.057
424.7791, 3147.772
425.2613, 3162.471
425.7434, 3173.170
426.2255, 3175.304
426.7076, 3171.260
427.1897, 3163.399
427.6718, 3152.502
428.1540, 3138.657
428.6361, 3118.095
429.1182, 3087.750
429.6003, 3075.908
430.0824, 3104.596
430.5645, 3126.802
431.0467, 3116.864
431.5288, 3085.567
432.0109, 3055.557
432.4930, 3034.804
432.9751, 3021.224
433.4572, 3015.991
433.9394, 3018.557
434.4215, 3013.099
434.9036, 2991.887
435.3857, 2963.255
435.8678, 2937.206
436.3499, 2912.537
436.8321, 2896.684
437.3142, 2897.304
437.7963, 2903.737
438.2784, 2906.835
438.7605, 2905.670
439.2426, 2902.063
439.7248, 2897.654
440.2069, 2891.646
440.6890, 2878.926
441.1711, 2839.971
441.6532, 2818.874
442.1353, 2832.046
442.6175, 2857.783
443.0996, 2877.764
443.5817, 2887.351
444.0638, 2890.503
444.5459, 2888.863
445.0280, 2882.187
445.5102, 2884.672
445.9923, 2904.025
446.4744, 2921.325
446.9565, 2926.408
447.4386, 2924.853
447.9207, 2925.432
448.4029, 2931.823
448.8850, 2938.577
449.3671, 2939.278
449.8492, 2935.215
450.3313, 2932.587
450.8134, 2932.418
451.2956, 2935.492
451.7777, 2943.569
452.2598, 2956.880
452.7419, 2970.529
453.2240, 2996.216
453.7061, 3011.456
454.1883, 2993.517
454.6704, 2952.403
455.1525, 2915.556
455.6346, 2896.993
456.1167, 2890.282
456.5988, 2879.781
457.0810, 2864.385
457.5631, 2846.872
458.0452, 2827.000
458.5273, 2805.607
459.0095, 2781.920
459.4916, 2756.731
459.9737, 2732.554
460.4558, 2711.205
460.9379, 2692.012
461.4200, 2672.391
461.9022, 2651.826
462.3843, 2632.610
462.8664, 2614.795
463.3485, 2599.566
463.8306, 2590.472
464.3127, 2589.749
464.7949, 2582.654
465.2770, 2553.295
465.7591, 2516.301
466.2412, 2495.705
466.7233, 2494.014
467.2054, 2497.373
467.6876, 2495.794
468.1697, 2489.915
468.6518, 2485.940
469.1339, 2487.944
469.6160, 2486.527
470.0981, 2478.163
470.5803, 2466.251
471.0624, 2453.047
471.5445, 2439.688
472.0266, 2429.262
472.5087, 2426.975
472.9908, 2433.484
473.4730, 2431.676
473.9551, 2413.458
474.4372, 2398.385
474.9193, 2395.658
475.4014, 2399.907
475.8835, 2403.682
476.3657, 2404.882
476.8478, 2405.124
477.3299, 2406.584
477.8120, 2408.505
478.2941, 2406.636
478.7762, 2398.802
479.2584, 2392.172
479.7405, 2395.059
480.2226, 2407.664
480.7047, 2415.051
481.1868, 2413.773
481.6689, 2410.595
482.1511, 2407.890
482.6332, 2405.700
483.1153, 2402.880
483.5974, 2399.086
484.0795, 2397.384
484.5616, 2403.653
485.0438, 2421.601
485.5259, 2434.511
486.0080, 2437.093
486.4901, 2439.622
486.9722, 2446.559
487.4543, 2456.090
487.9365, 2464.714
488.4186, 2471.435
488.9007, 2475.128
489.3828, 2473.023
489.8649, 2465.461
490.3470, 2457.937
490.8292, 2450.435
491.3113, 2445.744
491.7934, 2449.609
492.2755, 2461.313
492.7576, 2468.233
493.2397, 2467.029
493.7219, 2461.697
494.2040, 2454.226
494.6861, 2444.811
495.1682, 2432.335
495.6503, 2416.068
496.1324, 2399.728
496.6146, 2390.751
497.0967, 2393.249
497.5788, 2393.252
498.0609, 2389.060
498.5430, 2384.171
499.0251, 2382.046
499.5073, 2380.422
499.9894, 2374.028
500.4715, 2359.701
500.9536, 2340.252
501.4357, 2316.924
501.9178, 2289.646
502.4000, 2272.932
502.8821, 2275.195
503.3642, 2282.768
503.8463, 2277.084
504.3284, 2259.219
504.8105, 2250.228
505.2927, 2263.359
505.7748, 2278.571
506.2569, 2278.491
506.7390, 2268.484
507.2211, 2266.352
507.7032, 2280.522
508.1854, 2299.552
508.6675, 2300.683
509.1496, 2275.151
509.6317, 2253.001
510.1138, 2228.685
510.5959, 2212.881
511.0781, 2218.378
511.5602, 2235.759
512.0423, 2243.435
512.5244, 2227.721
513.0065, 2204.954
513.4886, 2200.198
513.9708, 2212.873
514.4529, 2225.988
514.9350, 2238.260
515.4171, 2244.932
515.8992, 2236.031
516.3813, 2212.925
516.8635, 2198.975
517.3456, 2201.788
517.8277, 2210.101
518.3098, 2219.642
518.7919, 2229.219
519.2740, 2236.861
519.7562, 2241.774
520.2383, 2245.956
520.7204, 2253.853
521.2025, 2269.226
521.6846, 2273.998
522.1667, 2253.097
522.6489, 2236.678
523.1310, 2237.525
523.6131, 2249.594
524.0952, 2262.356
524.5773, 2272.378
525.0594, 2280.295
525.5416, 2289.933
526.0237, 2299.022
526.5058, 2292.090
526.9879, 2260.893
527.4700, 2232.977
527.9521, 2236.963
528.4343, 2272.168
528.9164, 2294.854
529.3985, 2297.896
529.8806, 2296.796
530.3627, 2291.302
530.8448, 2287.563
531.3270, 2298.422
531.8091, 2325.096
532.2912, 2348.763
532.7733, 2343.848
533.2554, 2309.535
533.7375, 2292.463
534.2197, 2303.305
534.7018, 2314.448
535.1839, 2311.507
535.6660, 2304.958
536.1481, 2308.569
536.6302, 2326.407
537.1124, 2345.050
537.5945, 2355.233
538.0766, 2360.037
538.5587, 2365.069
539.0408, 2370.918
539.5229, 2376.428
540.0051, 2381.668
540.4872, 2385.406
540.9693, 2381.492
541.4514, 2352.690
541.9335, 2339.378
542.4156, 2356.787
542.8978, 2381.816
543.3799, 2396.464
543.8620, 2399.838
544.3441, 2400.863
544.8262, 2406.573
545.3083, 2414.468
545.7905, 2414.897
546.2726, 2405.244
546.7547, 2404.396
547.2368, 2427.674
547.7189, 2453.408
548.2010, 2451.062
548.6832, 2419.917
549.1653, 2401.532
549.6474, 2419.310
550.1295, 2443.926
550.6116, 2448.290
551.0938, 2438.892
551.5759, 2439.221
552.0580, 2460.228
552.5401, 2488.128
553.0222, 2496.554
553.5043, 2475.887
553.9865, 2465.355
554.4686, 2469.040
554.9507, 2479.465
555.4328, 2500.327
555.9149, 2524.865
556.3970, 2541.032
556.8792, 2543.330
557.3613, 2540.844
557.8434, 2540.043
558.3255, 2541.765
558.8076, 2551.703
559.2897, 2572.274
559.7719, 2588.756
560.2540, 2585.829
560.7361, 2565.765
561.2182, 2560.049
561.7003, 2576.737
562.1824, 2595.134
562.6646, 2617.265
563.1467, 2635.350
563.6288, 2639.162
564.1109, 2629.299
564.5930, 2617.611
565.0751, 2614.078
565.5573, 2616.952
566.0394, 2618.168
566.5215, 2616.183
567.0036, 2619.471
567.4857, 2636.156
567.9678, 2655.299
568.4500, 2662.167
568.9321, 2655.901
569.4142, 2651.876
569.8963, 2647.625
570.3784, 2652.905
570.8605, 2686.033
571.3427, 2735.839
571.8248, 2770.488
572.3069, 2775.946
572.7890, 2765.035
573.2711, 2759.644
573.7532, 2761.487
574.2354, 2762.287
574.7175, 2758.055
575.1996, 2757.493
575.6817, 2768.070
576.1638, 2783.393
576.6459, 2792.319
577.1281, 2790.456
577.6102, 2786.330
578.0923, 2786.382
578.5744, 2789.243
579.0565, 2792.300
579.5386, 2795.152
580.0208, 2796.805
580.5029, 2796.010
580.9850, 2793.591
581.4671, 2794.169
581.9492, 2811.015
582.4313, 2812.716
582.9135, 2779.599
583.3956, 2744.930
583.8777, 2736.531
584.3598, 2751.209
584.8419, 2765.727
585.3240, 2764.360
585.8062, 2755.453
586.2883, 2755.117
586.7704, 2763.072
587.2525, 2767.741
587.7346, 2762.783
588.2167, 2760.390
588.6989, 2775.465
589.1810, 2809.252
589.6631, 2841.209
590.1452, 2873.302
590.6273, 2901.091
591.1094, 2917.701
591.5916, 2931.162
592.0737, 2950.605
592.5558, 2978.998
593.0379, 3016.279
593.5200, 3063.110
594.0021, 3118.953
594.4843, 3179.958
594.9664, 3247.693
595.4485, 3314.422
595.9306, 3374.973
596.4127, 3433.954
596.8948, 3496.214
597.3770, 3561.271
597.8591, 3634.452
598.3412, 3723.885
598.8233, 3816.372
599.3054, 3905.397
599.7875, 3987.727
600.2697, 4056.507
600.7518, 4108.899
601.2339, 4150.516
601.7160, 4192.068
602.1981, 4236.038
602.6802, 4266.771
603.1624, 4283.474
603.6445, 4287.512
604.1266, 4282.188
604.6087, 4264.945
605.0908, 4232.986
605.5729, 4187.614
606.0551, 4119.909
606.5372, 4007.601
607.0193, 3878.425
607.5014, 3772.588
607.9835, 3691.152
608.4656, 3606.646
608.9478, 3501.258
609.4299, 3385.592
609.9120, 3290.161
610.3941, 3224.783
610.8762, 3158.120
611.3583, 3087.232
611.8405, 3016.159
612.3226, 2945.570
612.8047, 2876.506
613.2868, 2809.534
613.7689, 2742.311
614.2510, 2683.632
614.7332, 2648.522
615.2153, 2626.647
615.6974, 2590.644
616.1795, 2536.227
616.6616, 2484.691
617.1437, 2453.816
617.6259, 2439.402
618.1080, 2415.822
618.5901, 2372.056
619.0722, 2336.161
619.5543, 2315.747
620.0364, 2298.740
620.5186, 2275.964
621.0007, 2248.987
621.4828, 2225.709
621.9649, 2210.235
622.4470, 2199.688
622.9291, 2194.504
623.4113, 2191.866
623.8934, 2177.898
624.3755, 2148.165
624.8576, 2119.980
625.3397, 2111.911
625.8218, 2122.472
626.3040, 2119.166
626.7861, 2088.477
627.2682, 2060.919
627.7503, 2040.490
628.2324, 2023.942
628.7145, 2007.122
629.1967, 1990.957
629.6788, 1982.403
630.1609, 1992.780
630.6430, 2006.260
631.1251, 1990.155
631.6072, 1926.778
632.0894, 1957.609
632.5715, 1973.777
633.0536, 1976.067
633.5357, 1922.917
634.0178, 1941.356
634.4999, 1931.106
634.9821, 1919.678
635.4642, 1948.194
635.9463, 1903.107
636.4284, 1930.990
636.9105, 1929.744
637.3926, 1941.830
637.8748, 1917.363
638.3569, 1904.845
638.8390, 1886.516
639.3211, 1868.494
639.8032, 1851.474
640.2853, 1843.356
640.7675, 1847.874
641.2496, 1856.597
641.7317, 1860.390
642.2138, 1859.205
642.6959, 1853.485
643.1780, 1837.494
643.6602, 1824.462
644.1423, 1818.405
644.6244, 1816.027
645.1065, 1813.690
645.5886, 1811.180
646.0707, 1811.506
646.5529, 1820.867
647.0350, 1831.921
647.5171, 1829.621
647.9992, 1815.764
648.4813, 1804.731
648.9634, 1801.205
649.4456, 1801.305
649.9277, 1800.318
650.4098, 1797.919
650.8919, 1798.948
651.3740, 1806.545
651.8561, 1813.570
652.3383, 1818.538
652.8204, 1822.229
653.3025, 1826.711
653.7846, 1831.475
654.2667, 1831.886
654.7488, 1818.917
655.2310, 1803.690
655.7131, 1805.877
656.1952, 1822.231
656.6773, 1835.023
657.1594, 1838.653
657.6415, 1838.618
658.1237, 1841.597
658.6058, 1847.950
659.0879, 1848.274
659.5700, 1830.589
660.0521, 1822.460
660.5342, 1835.803
661.0164, 1855.132
661.4985, 1867.581
661.9806, 1872.004
662.4627, 1873.862
662.9448, 1875.471
663.4269, 1876.612
663.9091, 1877.492
664.3912, 1877.712
664.8733, 1875.055
665.3554, 1868.854
665.8375, 1863.299
666.3196, 1862.948
666.8018, 1867.525
667.2839, 1870.499
667.7660, 1868.784
668.2481, 1870.654
668.7302, 1882.258
669.2123, 1894.039
669.6945, 1898.720
670.1766, 1896.612
670.6587, 1892.180
671.1408, 1884.766
671.6229, 1878.282
672.1050, 1876.906
672.5872, 1878.594
673.0693, 1880.053
673.5514, 1880.286
674.0335, 1877.922
674.5156, 1871.783
674.9977, 1861.999
675.4799, 1847.776
675.9620, 1823.787
676.4441, 1809.851
676.9262, 1814.965
677.4083, 1826.027
677.8904, 1836.793
678.3726, 1845.901
678.8547, 1848.663
679.3368, 1841.339
679.8189, 1831.046
680.3010, 1817.528
680.7831, 1805.258
681.2653, 1801.398
681.7474, 1805.376
682.2295, 1809.713
682.7116, 1809.357
683.1937, 1805.776
683.6758, 1802.401
684.1580, 1799.226
684.6401, 1796.013
685.1222, 1792.579
685.6043, 1789.358
686.0864, 1786.205
686.5685, 1783.562
687.0507, 1782.776
687.5328, 1783.616
688.0149, 1786.777
688.4970, 1793.581
688.9791, 1801.831
689.4612, 1812.037
689.9434, 1822.027
690.4255, 1826.090
690.9076, 1820.993
691.3897, 1813.613
691.8718, 1813.861
692.3539, 1820.482
692.8361, 1825.202
693.3182, 1826.715
693.8003, 1831.839
694.2824, 1846.336
694.7645, 1864.933
695.2466, 1874.835
695.7288, 1869.315
696.2109, 1870.172
696.6930, 1884.593
697.1751, 1897.498
697.6572, 1902.437
698.1393, 1901.362
698.6215, 1894.711
699.1036, 1882.475
699.5857, 1877.563
700.0678, 1897.575
700.5499, 1927.463
701.0320, 1940.280
701.5142, 1938.153
701.9963, 1940.455
702.4784, 1955.443
702.9605, 1972.690
703.4426, 1977.171
703.9247, 1967.932
704.4069, 1957.563
704.8890, 1941.898
705.3711, 1932.028
705.8532, 1933.646
706.3353, 1940.660
706.8174, 1946.521
707.2996, 1951.329
707.7817, 1963.288
708.2638, 1993.108
708.7459, 2023.028
709.2280, 2040.473
709.7101, 2049.723
710.1923, 2057.430
710.6744, 2065.321
711.1565, 2072.359
711.6386, 2076.925
712.1207, 2080.893
712.6028, 2091.819
713.0850, 2110.679
713.5671, 2126.393
714.0492, 2135.701
714.5313, 2143.491
715.0134, 2154.528
715.4955, 2167.945
715.9777, 2177.329
716.4598, 2174.750
716.9419, 2179.386
717.4240, 2200.219
717.9061, 2224.268
718.3882, 2243.520
718.8704, 2257.290
719.3525, 2265.379
719.8346, 2266.012
720.3167, 2268.593
720.7988, 2284.538
721.2809, 2310.191
721.7631, 2338.793
722.2452, 2369.042
722.7273, 2393.049
723.2094, 2405.884
723.6915, 2411.503
724.1736, 2417.938
724.6558, 2426.074
725.1379, 2431.383
725.6200, 2424.885
726.1021, 2427.738
726.5842, 2456.159
727.0663, 2492.883
727.5485, 2515.153
728.0306, 2519.594
728.5127, 2526.843
728.9948, 2546.198
729.4769, 2569.815
729.9590, 2595.613
730.4412, 2620.073
730.9233, 2635.464
731.4054, 2640.717
731.8875, 2645.226
732.3696, 2658.338
732.8517, 2677.613
733.3339, 2694.797
733.8160, 2709.844
734.2981, 2722.834
734.7802, 2733.188
735.2623, 2742.756
735.7444, 2752.309
736.2266, 2762.200
736.7087, 2776.633
737.1908, 2801.669
737.6729, 2822.447
738.1550, 2829.408
738.6371, 2838.598
739.1193, 2868.826
739.6014, 2910.220
740.0835, 2934.124
740.5656, 2924.923
741.0477, 2912.634
741.5298, 2924.529
742.0120, 2948.951
742.4941, 2968.789
742.9762, 2982.002
743.4583, 2989.177
743.9404, 2990.602
744.4225, 2986.426
744.9047, 2973.576
745.3868, 2949.885
745.8689, 2942.791
746.3510, 2955.168
746.8331, 2978.348
747.3152, 3022.038
747.7974, 3064.876
748.2795, 3072.986
748.7616, 3043.941
749.2437, 3020.839
749.7258, 3010.045
750.2079, 3004.231
750.6901, 3003.803
751.1722, 3004.717
751.6543, 3002.660
752.1364, 2997.212
752.6185, 2990.942
753.1006, 2987.200
753.5828, 2981.023
754.0649, 2963.889
754.5470, 2938.580
755.0291, 2912.867
755.5112, 2888.324
755.9933, 2867.900
756.4755, 2854.229
756.9576, 2845.158
757.4397, 2835.187
757.9218, 2826.928
758.4039, 2808.432
758.8860, 2772.153
759.3682, 2735.407
759.8503, 2704.585
760.3324, 2680.269
760.8145, 2666.631
761.2966, 2668.884
761.7787, 2659.663
762.2609, 2619.576
762.7430, 2579.106
763.2251, 2555.718
763.7072, 2545.183
764.1893, 2545.407
764.6714, 2552.696
765.1536, 2547.173
765.6357, 2502.781
766.1178, 2441.194
766.5999, 2403.751
767.0820, 2386.789
767.5641, 2372.073
768.0463, 2355.240
768.5284, 2336.050
769.0105, 2312.716
769.4926, 2288.392
769.9747, 2281.963
770.4568, 2305.506
770.9390, 2314.236
771.4211, 2297.731
771.9032, 2272.490
772.3853, 2244.561
772.8674, 2215.889
773.3495, 2189.618
773.8317, 2164.750
774.3138, 2146.301
774.7959, 2140.442
775.2780, 2136.822
775.7601, 2130.761
776.2422, 2120.942
776.7244, 2103.398
777.2065, 2078.014
777.6886, 2056.537
778.1707, 2052.095
778.6528, 2057.050
779.1349, 2059.711
779.6171, 2059.114
780.0992, 2048.537
780.5813, 2025.978
781.0634, 2003.210
781.5455, 1992.083
782.0276, 1990.011
782.5098, 1981.368
782.9919, 1961.231
783.4740, 1951.247
783.9561, 1961.649
784.4382, 1972.727
784.9203, 1973.794
785.4025, 1965.241
785.8846, 1945.804
786.3667, 1904.459
786.8488, 1878.903
787.3309, 1892.983
787.8130, 1907.420
788.2952, 1894.120
788.7773, 1866.789
789.2594, 1848.550
789.7415, 1845.516
790.2236, 1849.456
790.7057, 1860.398
791.1879, 1870.702
791.6700, 1867.571
792.1521, 1854.917
792.6342, 1845.115
793.1163, 1840.987
793.5984, 1835.655
794.0806, 1821.934
794.5627, 1804.399
795.0448, 1800.470
795.5269, 1812.266
796.0090, 1821.537
796.4911, 1827.874
796.9733, 1825.785
797.4554, 1807.667
797.9375, 1780.576
798.4196, 1763.437
798.9017, 1761.349
799.3839, 1758.054
799.8660, 1755.894
800.3481, 1749.746
800.8302, 1729.808
801.3123, 1708.865
801.7944, 1706.717
802.2766, 1724.807
802.7587, 1737.166
803.2408, 1722.875
803.7229, 1706.352
804.2050, 1707.144
804.6871, 1718.510
805.1693, 1733.009
805.6514, 1746.997
806.1335, 1752.210
806.6156, 1741.078
807.0977, 1725.520
807.5798, 1730.378
808.0620, 1751.564
808.5441, 1758.840
809.0262, 1748.393
809.5083, 1743.045
809.9904, 1756.018
810.4725, 1777.436
810.9547, 1790.275
811.4368, 1794.648
811.9189, 1788.086
812.4010, 1759.318
812.8831, 1739.257
813.3652, 1742.156
813.8474, 1753.874
814.3295, 1763.977
814.8116, 1771.829
815.2937, 1772.976
815.7758, 1758.873
816.2579, 1748.368
816.7401, 1750.378
817.2222, 1755.547
817.7043, 1754.026
818.1864, 1748.984
818.6685, 1751.147
819.1506, 1765.422
819.6328, 1781.674
820.1149, 1796.643
820.5970, 1805.303
821.0791, 1793.599
821.5612, 1768.554
822.0433, 1754.992
822.5255, 1760.989
823.0076, 1774.406
823.4897, 1784.185
823.9718, 1789.462
824.4539, 1781.817
824.9360, 1760.059
825.4182, 1757.488
825.9003, 1786.373
826.3824, 1813.304
826.8645, 1810.545
827.3466, 1787.593
827.8287, 1778.248
828.3109, 1790.992
828.7930, 1799.409
829.2751, 1803.347
829.7573, 1802.978
830.2394, 1795.886
830.7215, 1785.978
831.2036, 1775.710
831.6857, 1764.820
832.1678, 1765.268
832.6500, 1794.042
833.1321, 1818.105
833.6142, 1816.485
834.0963, 1805.639
834.5784, 1803.898
835.0605, 1811.496
835.5427, 1818.887
836.0248, 1822.835
836.5069, 1820.553
836.9890, 1802.546
837.4711, 1779.672
837.9532, 1771.180
838.4354, 1776.469
838.9175, 1787.526
839.3996, 1800.754
839.8817, 1810.282
840.3638, 1805.605
840.8459, 1790.693
841.3281, 1787.507
841.8102, 1796.268
842.2923, 1811.031
842.7744, 1832.919
843.2565, 1847.772
843.7386, 1841.005
844.2208, 1818.014
844.7029, 1803.398
845.1850, 1799.630
845.6671, 1798.321
846.1492, 1797.135
846.6313, 1800.915
847.1135, 1818.616
847.5956, 1839.855
848.0777, 1847.880
848.5598, 1839.857
849.0419, 1835.259
849.5240, 1840.108
850.0062, 1844.699
850.4883, 1843.907
850.9704, 1842.031
851.4525, 1844.095
851.9346, 1849.532
852.4167, 1853.407
852.8989, 1851.788
853.3810, 1852.479
853.8631, 1866.508
854.3452, 1882.281
854.8273, 1883.345
855.3094, 1873.286
855.7916, 1864.951
856.2737, 1863.225
856.7558, 1864.218
857.2379, 1863.471
857.7200, 1862.614
858.2021, 1866.691
858.6843, 1874.679
859.1664, 1881.272
859.6485, 1885.252
860.1306, 1885.555
860.6127, 1880.176
861.0948, 1873.494
861.5770, 1880.145
862.0591, 1902.672
862.5412, 1915.713
863.0233, 1915.787
863.5054, 1913.304
863.9875, 1912.955
864.4697, 1912.428
864.9518, 1906.821
865.4339, 1894.743
865.9160, 1893.329
866.3981, 1914.283
866.8802, 1928.536
867.3624, 1927.983
867.8445, 1922.619
868.3266, 1916.500
868.8087, 1911.268
869.2908, 1910.805
869.7729, 1916.043
870.2551, 1925.121
870.7372, 1940.547
871.2193, 1956.610
871.7014, 1973.053
872.1835, 1986.131
872.6656, 1988.953
873.1478, 1981.430
873.6299, 1974.244
874.1120, 1970.716
874.5941, 1972.980
875.0762, 1986.213
875.5583, 2004.561
876.0405, 2021.333
876.5226, 2034.686
877.0047, 2042.162
877.4868, 2042.241
877.9689, 2041.137
878.4510, 2049.010
878.9332, 2060.649
879.4153, 2058.446
879.8974, 2045.803
880.3795, 2048.399
880.8616, 2073.271
881.3438, 2094.450
881.8259, 2085.900
882.3080, 2058.363
882.7901, 2045.899
883.2722, 2048.663
883.7543, 2065.705
884.2365, 2101.580
884.7186, 2126.393
885.2007, 2120.124
885.6828, 2103.015
886.1649, 2112.178
886.6470, 2152.783
887.1292, 2167.269
887.6113, 2138.289
888.0934, 2119.344
888.5755, 2126.730
889.0576, 2143.266
889.5397, 2155.647
890.0219, 2165.459
890.5040, 2179.803
890.9861, 2204.650
891.4682, 2222.613
891.9503, 2230.651
892.4324, 2233.692
892.9146, 2229.570
893.3967, 2224.196
893.8788, 2224.918
894.3609, 2232.307
894.8430, 2241.276
895.3251, 2251.494
895.8073, 2261.408
896.2894, 2272.724
896.7715, 2281.525
897.2536, 2279.845
897.7357, 2273.123
898.2178, 2276.608
898.7000, 2296.552
899.1821, 2314.634
899.6642, 2313.097
900.1463, 2306.882
900.6284, 2312.710
901.1105, 2326.047
901.5927, 2337.572
902.0748, 2345.319
902.5569, 2351.285
903.0390, 2356.642
903.5211, 2361.476
904.0032, 2366.228
904.4854, 2370.526
904.9675, 2371.775
905.4496, 2371.063
905.9317, 2374.922
906.4138, 2385.909
906.8959, 2402.589
907.3781, 2426.198
907.8602, 2452.206
908.3423, 2461.567
908.8244, 2454.879
909.3065, 2447.012
909.7886, 2439.916
910.2708, 2438.726
910.7529, 2447.698
911.2350, 2461.355
911.7171, 2468.882
912.1992, 2469.806
912.6813, 2469.833
913.1635, 2467.995
913.6456, 2469.625
914.1277, 2479.191
914.6098, 2486.091
915.0919, 2477.651
915.5740, 2458.796
916.0562, 2455.361
916.5383, 2480.225
917.0204, 2491.516
917.5025, 2476.554
917.9846, 2465.131
918.4667, 2473.285
918.9489, 2489.141
919.4310, 2497.365
919.9131, 2497.905
920.3952, 2499.290
920.8773, 2502.549
921.3594, 2505.675
921.8416, 2512.235
922.3237, 2514.733
922.8058, 2501.702
923.2879, 2483.277
923.7700, 2480.993
924.2521, 2500.881
924.7343, 2515.944
925.2164, 2510.510
925.6985, 2508.337
926.1806, 2524.836
926.6627, 2546.957
927.1448, 2566.559
927.6270, 2579.124
928.1091, 2573.114
928.5912, 2535.548
929.0733, 2510.029
929.5554, 2535.639
930.0375, 2569.786
930.5197, 2574.362
931.0018, 2561.462
931.4839, 2554.708
931.9660, 2557.792
932.4481, 2558.276
932.9302, 2547.223
933.4124, 2533.739
933.8945, 2520.099
934.3766, 2513.420
934.8587, 2534.233
935.3408, 2570.736
935.8229, 2583.763
936.3051, 2561.614
936.7872, 2539.782
937.2693, 2555.992
937.7514, 2586.984
938.2335, 2594.386
938.7156, 2586.269
939.1978, 2582.444
939.6799, 2585.087
940.1620, 2588.046
940.6441, 2588.270
941.1262, 2583.615
941.6083, 2564.745
942.0905, 2539.843
942.5726, 2537.493
943.0547, 2554.889
943.5368, 2577.126
944.0189, 2600.159
944.5010, 2615.829
944.9832, 2617.911
945.4653, 2610.417
945.9474, 2599.215
946.4295, 2585.008
946.9116, 2576.006
947.3937, 2572.487
947.8759, 2572.380
948.3580, 2575.120
948.8401, 2579.815
949.3222, 2585.182
949.8043, 2592.463
950.2864, 2610.356
950.7686, 2641.280
951.2507, 2648.518
951.7328, 2624.560
952.2149, 2601.640
952.6970, 2593.033
953.1791, 2593.880
953.6613, 2598.593
954.1434, 2607.108
954.6255, 2620.648
955.1076, 2643.222
955.5897, 2653.180
956.0718, 2641.408
956.5540, 2633.906
957.0361, 2647.178
957.5182, 2670.153
958.0003, 2683.694
958.4824, 2686.957
958.9645, 2692.982
959.4467, 2707.620
959.9288, 2710.167
960.4109, 2684.168
960.8930, 2665.567
961.3751, 2685.177
961.8572, 2726.356
962.3394, 2748.407
962.8215, 2745.630
963.3036, 2745.772
963.7857, 2749.045
964.2678, 2754.886
964.7499, 2763.472
965.2321, 2774.308
965.7142, 2791.637
966.1963, 2811.069
966.6784, 2815.127
967.1605, 2792.278
967.6426, 2780.028
968.1248, 2782.616
968.6069, 2790.784
969.0890, 2806.308
969.5711, 2822.624
970.0532, 2832.251
970.5353, 2836.695
971.0175, 2845.064
971.4996, 2863.374
971.9817, 2876.100
972.4638, 2873.629
972.9459, 2874.742
973.4280, 2893.736
973.9102, 2916.876
974.3923, 2925.236
974.8744, 2919.867
975.3565, 2922.020
975.8386, 2942.898
976.3207, 2960.122
976.8029, 2963.299
977.2850, 2968.283
977.7671, 2991.507
978.2492, 3018.181
978.7313, 3024.688
979.2134, 3009.511
979.6956, 2997.101
980.1777, 2988.314
980.6598, 2990.037
981.1419, 3014.404
981.6240, 3039.939
982.1061, 3050.751
982.5883, 3052.723
983.0704, 3057.621
983.5525, 3067.355
984.0346, 3075.498
984.5167, 3080.904
984.9988, 3083.345
985.4810, 3076.477
985.9631, 3072.310
986.4452, 3084.038
986.9273, 3104.926
987.4094, 3121.075
987.8915, 3129.731
988.3737, 3133.314
988.8558, 3126.770
989.3379, 3122.758
989.8200, 3124.963
990.3021, 3134.368
990.7842, 3161.133
991.2664, 3193.610
991.7485, 3203.167
992.2306, 3180.106
992.7127, 3160.645
993.1948, 3161.731
993.6769, 3167.851
994.1591, 3167.064
994.6412, 3169.857
995.1233, 3193.041
995.6054, 3228.758
996.0875, 3252.580
996.5696, 3255.919
997.0518, 3259.424
997.5339, 3276.319
998.0160, 3291.395
998.4981, 3291.862
998.9802, 3288.305
999.4623, 3290.131
999.9445, 3298.992
1000.427, 3317.931
1000.909, 3352.142
1001.391, 3374.207
1001.873, 3350.651
1002.355, 3334.094
1002.837, 3372.216
1003.319, 3425.680
1003.801, 3444.819
1004.284, 3435.150
1004.766, 3437.133
1005.248, 3467.155
1005.730, 3494.375
1006.212, 3497.374
1006.694, 3501.107
1007.176, 3529.734
1007.658, 3562.823
1008.140, 3572.871
1008.623, 3563.321
1009.105, 3557.032
1009.587, 3559.013
1010.069, 3573.147
1010.551, 3616.346
1011.033, 3655.418
1011.515, 3664.421
1011.997, 3660.137
1012.479, 3660.032
1012.962, 3666.940
1013.444, 3680.751
1013.926, 3703.592
1014.408, 3726.133
1014.890, 3748.545
1015.372, 3764.933
1015.854, 3764.134
1016.336, 3760.386
1016.819, 3775.831
1017.301, 3805.210
1017.783, 3818.083
1018.265, 3797.409
1018.747, 3784.273
1019.229, 3804.514
1019.711, 3824.371
1020.193, 3817.242
1020.675, 3804.397
1021.158, 3812.329
1021.640, 3838.842
1022.122, 3864.349
1022.604, 3886.292
1023.086, 3900.989
1023.568, 3895.049
1024.050, 3895.930
1024.532, 3928.085
1025.015, 3966.733
1025.497, 3981.744
1025.979, 3977.621
1026.461, 3983.386
1026.943, 4011.133
1027.425, 4031.643
1027.907, 4020.278
1028.389, 4021.536
1028.871, 4074.828
1029.354, 4135.133
1029.836, 4149.792
1030.318, 4129.654
1030.800, 4131.435
1031.282, 4178.822
1031.764, 4205.956
1032.246, 4179.299
1032.728, 4160.337
1033.210, 4168.176
1033.693, 4196.857
1034.175, 4255.342
1034.657, 4329.973
1035.139, 4371.886
1035.621, 4362.221
1036.103, 4360.118
1036.585, 4374.649
1037.067, 4390.549
1037.550, 4397.880
1038.032, 4409.703
1038.514, 4442.941
1038.996, 4489.222
1039.478, 4520.370
1039.960, 4527.867
1040.442, 4545.222
1040.924, 4578.229
1041.406, 4612.139
1041.889, 4646.946
1042.371, 4677.684
1042.853, 4699.673
1043.335, 4715.107
1043.817, 4729.059
1044.299, 4739.495
1044.781, 4758.461
1045.263, 4792.440
1045.745, 4820.369
1046.228, 4832.679
1046.710, 4847.631
1047.192, 4880.758
1047.674, 4922.552
1048.156, 4952.795
1048.638, 4971.136
1049.120, 4981.962
1049.602, 4982.942
1050.085, 4982.694
1050.567, 4978.158
1051.049, 4988.194
1051.531, 5028.924
1052.013, 5082.735
1052.495, 5119.016
1052.977, 5138.123
1053.459, 5155.236
1053.942, 5169.447
1054.424, 5189.080
1054.906, 5216.107
1055.388, 5244.786
1055.870, 5272.788
1056.352, 5298.664
1056.834, 5320.791
1057.316, 5339.072
1057.798, 5349.704
1058.281, 5353.439
1058.763, 5376.203
1059.245, 5421.019
1059.727, 5458.301
1060.209, 5474.224
1060.691, 5487.535
1061.173, 5522.144
1061.655, 5567.218
1062.137, 5588.376
1062.620, 5592.036
1063.102, 5611.793
1063.584, 5647.216
1064.066, 5667.334
1064.548, 5662.515
1065.030, 5665.005
1065.512, 5708.051
1065.994, 5766.571
1066.477, 5797.842
1066.959, 5810.952
1067.441, 5820.300
1067.923, 5831.335
1068.405, 5856.727
1068.887, 5898.782
1069.369, 5949.374
1069.851, 6008.615
1070.333, 6057.873
1070.816, 6063.056
1071.298, 6055.806
1071.780, 6080.668
1072.262, 6126.307
1072.744, 6165.491
1073.226, 6194.957
1073.708, 6229.762
1074.190, 6280.132
1074.672, 6324.593
1075.155, 6341.884
1075.637, 6353.143
1076.119, 6375.696
1076.601, 6403.753
1077.083, 6429.798
1077.565, 6453.236
1078.047, 6476.692
1078.530, 6501.113
1079.012, 6524.438
1079.494, 6545.443
1079.976, 6565.743
1080.458, 6582.665
1080.940, 6602.282
1081.422, 6632.502
1081.904, 6668.992
1082.386, 6700.424
1082.869, 6724.325
1083.351, 6752.351
1083.833, 6792.453
1084.315, 6828.598
1084.797, 6851.922
1085.279, 6876.093
1085.761, 6920.067
1086.243, 6963.997
1086.725, 6969.562
1087.208, 6936.014
1087.690, 6936.726
1088.172, 6991.986
1088.654, 7037.605
1089.136, 7064.624
1089.618, 7089.957
1090.100, 7121.471
1090.582, 7152.949
1091.065, 7177.721
1091.547, 7196.277
1092.029, 7209.160
1092.511, 7212.210
1092.993, 7239.969
1093.475, 7298.220
1093.957, 7351.693
1094.439, 7389.080
1094.922, 7421.432
1095.404, 7458.370
1095.886, 7495.612
1096.368, 7521.334
1096.850, 7537.678
1097.332, 7557.716
1097.814, 7582.876
1098.296, 7630.566
1098.778, 7701.253
1099.260, 7756.037
1099.743, 7771.351
1100.225, 7779.920
1100.707, 7833.267
1101.189, 7904.126
1101.671, 7929.090
1102.153, 7929.723
1102.635, 7958.339
1103.117, 8013.482
1103.600, 8061.844
1104.082, 8091.632
1104.564, 8123.107
1105.046, 8176.641
1105.528, 8231.915
1106.010, 8266.489
1106.492, 8295.169
1106.974, 8333.722
1107.457, 8380.202
1107.939, 8429.702
1108.421, 8480.242
1108.903, 8526.274
1109.385, 8555.225
1109.867, 8600.859
1110.349, 8698.031
1110.831, 8791.216
1111.313, 8836.883
1111.796, 8869.008
1112.278, 8932.048
1112.760, 9017.708
1113.242, 9080.705
1113.724, 9105.089
1114.206, 9138.705
1114.688, 9182.548
1115.170, 9239.523
1115.652, 9321.506
1116.135, 9401.631
1116.617, 9460.112
1117.099, 9508.479
1117.581, 9571.180
1118.063, 9649.100
1118.545, 9700.369
1119.027, 9712.743
1119.509, 9761.119
1119.992, 9863.624
1120.474, 9956.011
1120.956, 10007.22
1121.438, 10046.29
1121.920, 10103.96
1122.402, 10177.67
1122.884, 10264.67
1123.366, 10320.54
1123.849, 10467.35
1124.331, 10584.91
1124.813, 10674.95
1125.295, 10655.08
1125.777, 10777.13
1126.259, 10842.32
1126.741, 10905.15
1127.223, 11047.19
1127.705, 11043.29
1128.188, 11180.87
1128.670, 11314.73
1129.152, 11402.74
1129.634, 11451.13
1130.116, 11526.12
1130.598, 11652.31
1131.080, 11774.62
1131.562, 11841.84
1132.044, 11915.22
1132.527, 12064.09
1133.009, 12205.87
1133.491, 12239.23
1133.973, 12227.84
1134.455, 12286.14
1134.937, 12423.33
1135.419, 12565.22
1135.901, 12708.35
1136.384, 12838.84
1136.866, 12953.87
1137.348, 13056.63
1137.830, 13133.10
1138.312, 13215.29
1138.794, 13335.37
1139.276, 13480.34
1139.758, 13615.83
1140.240, 13745.68
1140.723, 13832.16
1141.205, 13858.46
1141.687, 13930.26
1142.169, 14075.46
1142.651, 14214.28
1143.133, 14301.63
1143.615, 14372.15
1144.097, 14473.17
1144.579, 14593.77
1145.062, 14700.01
1145.544, 14795.50
1146.026, 14899.74
1146.508, 15011.53
1146.990, 15116.51
1147.472, 15211.35
1147.954, 15301.00
1148.436, 15389.50
1148.919, 15472.63
1149.401, 15543.25
1149.883, 15609.72
1150.365, 15678.42
1150.847, 15752.04
1151.329, 15842.11
1151.811, 15939.48
1152.293, 16012.20
1152.776, 16048.33
1153.258, 16093.69
1153.740, 16177.46
1154.222, 16257.59
1154.704, 16304.75
1155.186, 16359.01
1155.668, 16460.22
1156.150, 16577.09
1156.632, 16662.27
1157.115, 16717.96
1157.597, 16771.02
1158.079, 16820.65
1158.561, 16868.14
1159.043, 16910.84
1159.525, 16959.78
1160.007, 17022.07
1160.489, 17076.06
1160.971, 17103.74
1161.454, 17119.13
1161.936, 17144.95
1162.418, 17183.31
1162.900, 17260.21
1163.382, 17366.07
1163.864, 17438.20
1164.346, 17470.71
1164.828, 17483.92
1165.311, 17486.84
1165.793, 17487.33
1166.275, 17490.43
1166.757, 17497.48
1167.239, 17516.39
1167.721, 17534.71
1168.203, 17529.40
1168.685, 17515.83
1169.167, 17524.84
1169.650, 17553.12
1170.132, 17568.66
1170.614, 17556.68
1171.096, 17558.05
1171.578, 17604.26
1172.060, 17642.05
1172.542, 17652.57
1173.024, 17648.79
1173.506, 17631.69
1173.989, 17611.46
1174.471, 17605.74
1174.953, 17612.31
1175.435, 17599.22
1175.917, 17557.15
1176.399, 17533.83
1176.881, 17537.26
1177.363, 17527.09
1177.846, 17488.58
1178.328, 17454.69
1178.810, 17452.18
1179.292, 17454.54
1179.774, 17407.90
1180.256, 17331.28
1180.738, 17287.97
1181.220, 17270.10
1181.703, 17262.94
1182.185, 17256.99
1182.667, 17224.18
1183.149, 17158.87
1183.631, 17099.47
1184.113, 17073.07
1184.595, 17056.67
1185.077, 17036.98
1185.559, 17016.11
1186.042, 16996.17
1186.524, 16975.68
1187.006, 16951.66
1187.488, 16925.29
1187.970, 16901.90
1188.452, 16883.89
1188.934, 16858.81
1189.416, 16814.18
1189.898, 16783.83
1190.381, 16784.78
1190.863, 16772.94
1191.345, 16717.61
1191.827, 16663.97
1192.309, 16671.53
1192.791, 16711.03
1193.273, 16665.78
1193.755, 16545.13
1194.238, 16501.39
1194.720, 16530.46
1195.202, 16558.96
1195.684, 16570.97
1196.166, 16576.76
1196.648, 16581.61
1197.130, 16576.58
1197.612, 16538.07
1198.094, 16502.18
1198.577, 16517.03
1199.059, 16550.29
1199.541, 16562.02
1200.023, 16563.61
1200.505, 16583.02
1200.987, 16620.12
1201.469, 16650.57
1201.951, 16669.73
1202.433, 16677.26
1202.916, 16672.92
1203.398, 16655.40
1203.880, 16593.04
1204.362, 16565.56
1204.844, 16643.29
1205.326, 16750.98
1205.808, 16773.62
1206.290, 16726.47
1206.773, 16709.82
1207.255, 16723.84
1207.737, 16715.77
1208.219, 16686.33
1208.701, 16701.81
1209.183, 16775.70
1209.665, 16850.03
1210.147, 16889.10
1210.630, 16918.75
1211.112, 16979.46
1211.594, 17035.76
1212.076, 17021.86
1212.558, 16993.29
1213.040, 17028.11
1213.522, 17104.94
1214.004, 17171.98
1214.486, 17220.42
1214.969, 17264.49
1215.451, 17294.34
1215.933, 17349.84
1216.415, 17478.18
1216.897, 17573.10
1217.379, 17575.52
1217.861, 17586.35
1218.343, 17677.67
1218.825, 17804.90
1219.308, 17899.92
1219.790, 17966.03
1220.272, 18022.63
1220.754, 18070.59
1221.236, 18123.54
1221.718, 18182.34
1222.200, 18245.18
1222.682, 18311.48
1223.165, 18382.37
1223.647, 18457.53
1224.129, 18542.18
1224.611, 18651.33
1225.093, 18761.51
1225.575, 18839.23
1226.057, 18913.45
1226.539, 19019.91
1227.021, 19145.82
1227.504, 19274.07
1227.986, 19397.50
1228.468, 19486.96
1228.950, 19504.27
1229.432, 19563.32
1229.914, 19683.26
1230.396, 19815.43
1230.878, 19963.25
1231.360, 20082.37
1231.843, 20140.76
1232.325, 20176.10
1232.807, 20234.87
1233.289, 20317.39
1233.771, 20439.79
1234.253, 20584.70
1234.735, 20668.60
1235.217, 20712.70
1235.700, 20817.13
1236.182, 20987.12
1236.664, 21135.92
1237.146, 21221.53
1237.628, 21328.10
1238.110, 21559.28
1238.592, 21762.59
1239.074, 21820.46
1239.557, 21856.05
1240.039, 21957.99
1240.521, 22094.40
1241.003, 22235.96
1241.485, 22368.22
1241.967, 22427.58
1242.449, 22387.67
1242.931, 22443.66
1243.413, 22614.78
1243.896, 22759.32
1244.378, 22855.33
1244.860, 22900.48
1245.342, 22893.10
1245.824, 22881.33
1246.306, 22906.27
1246.788, 22962.71
1247.270, 23073.53
1247.752, 23185.73
1248.235, 23203.76
1248.717, 23180.65
1249.199, 23221.79
1249.681, 23300.72
1250.163, 23310.08
1250.645, 23226.67
1251.127, 23147.49
1251.609, 23086.13
1252.092, 23047.13
1252.574, 23042.91
1253.056, 23041.93
1253.538, 23043.17
1254.020, 23025.39
1254.502, 22967.09
1254.984, 22896.33
1255.466, 22869.82
1255.948, 22869.41
1256.431, 22802.05
1256.913, 22689.11
1257.395, 22617.55
1257.877, 22582.49
1258.359, 22536.10
1258.841, 22468.68
1259.323, 22398.80
1259.805, 22335.06
1260.287, 22269.29
1260.770, 22204.50
1261.252, 22125.11
1261.734, 22003.57
1262.216, 21884.98
1262.698, 21815.79
1263.180, 21755.80
1263.662, 21649.83
1264.144, 21512.33
1264.627, 21401.70
1265.109, 21319.44
1265.591, 21252.27
1266.073, 21201.22
1266.555, 21118.98
1267.037, 21001.22
1267.519, 20867.98
1268.001, 20730.37
1268.484, 20638.79
1268.966, 20650.60
1269.448, 20668.44
1269.930, 20583.50
1270.412, 20469.91
1270.894, 20389.46
1271.376, 20323.29
1271.858, 20246.27
1272.340, 20160.25
1272.823, 20077.57
##END=



