##NAMES=Delhayelite
##RRUFFID=R070096
##IDEAL CHEMISTRY=K_7_Na_3_Ca_5_Al_2_Si_14_O_38_F_4_Cl_2_
##LOCALITY=Yukspor Mountain, Khibiny Massif, Kola Peninsula, Russia
##OWNER=RRUFF
##SOURCE=Michael Scott
##DESCRIPTION=Dark gray to colorless cleavage fragments associated with brown lamprophyllite, elongated blue aegerine, light yellow fenakite, grayish brown lomonosovite and very pale yellow to colorless Fenaksite (R080135).
##STATUS=The identification of this mineral has been confirmed by X-ray diffraction and chemical analysis
##URL=rruff.info/R070096
##MEASURED CHEMISTRY=K_7.25_Na_3.44_(Ca_4.32_Na_0.66_Mn_0.02_)_Σ=5_(Al_1.97_Fe^3+^_0.03_)_Σ=2_(Si_13.97_Al_0.03_)_Σ=14_O_38_F_4_(Cl_1.70_F_0.30_)_Σ=2_
145.4159, 1516.209
145.8980, 1555.200
146.3801, 1577.240
146.8622, 1603.651
147.3444, 1643.315
147.8265, 1690.012
148.3086, 1733.319
148.7907, 1773.349
149.2728, 1810.990
149.7549, 1847.548
150.2371, 1882.705
150.7192, 1913.550
151.2013, 1940.226
151.6834, 1960.116
152.1655, 1969.445
152.6476, 1965.775
153.1298, 1960.409
153.6119, 1963.483
154.0940, 1974.842
154.5761, 1984.633
155.0582, 1988.388
155.5403, 1989.866
156.0225, 1992.125
156.5046, 1995.353
156.9867, 2000.266
157.4688, 2007.934
157.9509, 2018.552
158.4330, 2029.764
158.9152, 2039.050
159.3973, 2049.917
159.8794, 2066.553
160.3615, 2090.311
160.8436, 2114.658
161.3257, 2130.977
161.8079, 2137.352
162.2900, 2146.028
162.7721, 2160.804
163.2542, 2178.831
163.7363, 2199.135
164.2184, 2221.621
164.7006, 2244.748
165.1827, 2267.562
165.6648, 2291.637
166.1469, 2310.026
166.6290, 2314.708
167.1111, 2317.479
167.5933, 2328.050
168.0754, 2348.754
168.5575, 2370.649
169.0396, 2379.797
169.5217, 2371.374
170.0038, 2364.398
170.4860, 2365.304
170.9681, 2366.248
171.4502, 2361.259
171.9323, 2348.936
172.4144, 2333.256
172.8965, 2319.308
173.3787, 2305.147
173.8608, 2297.986
174.3429, 2305.902
174.8250, 2315.416
175.3071, 2314.129
175.7892, 2299.969
176.2714, 2284.802
176.7535, 2289.655
177.2356, 2328.527
177.7177, 2354.625
178.1998, 2359.635
178.6819, 2356.725
179.1641, 2353.335
179.6462, 2351.694
180.1283, 2350.869
180.6104, 2348.524
181.0925, 2340.144
181.5746, 2340.842
182.0567, 2361.075
182.5389, 2381.930
183.0210, 2389.169
183.5031, 2380.546
183.9852, 2365.394
184.4673, 2356.424
184.9494, 2353.991
185.4316, 2358.137
185.9137, 2375.930
186.3958, 2393.924
186.8779, 2403.595
187.3600, 2403.382
187.8421, 2396.876
188.3243, 2387.840
188.8064, 2371.740
189.2885, 2364.735
189.7706, 2374.649
190.2527, 2385.956
190.7348, 2388.993
191.2170, 2382.496
191.6991, 2371.039
192.1812, 2359.604
192.6633, 2346.263
193.1454, 2339.020
193.6275, 2343.401
194.1097, 2348.305
194.5918, 2346.653
195.0739, 2338.243
195.5560, 2327.725
196.0381, 2320.243
196.5202, 2316.481
197.0024, 2313.474
197.4845, 2314.631
197.9666, 2313.614
198.4487, 2305.282
198.9308, 2290.593
199.4129, 2274.761
199.8951, 2262.362
200.3772, 2252.416
200.8593, 2252.096
201.3414, 2274.777
201.8235, 2293.140
202.3056, 2289.027
202.7878, 2266.443
203.2699, 2244.261
203.7520, 2239.823
204.2341, 2255.851
204.7162, 2264.131
205.1983, 2259.778
205.6805, 2253.974
206.1626, 2250.636
206.6447, 2249.774
207.1268, 2249.984
207.6089, 2250.305
208.0910, 2250.748
208.5732, 2250.605
209.0553, 2241.662
209.5374, 2240.405
210.0195, 2260.628
210.5016, 2293.527
210.9837, 2318.434
211.4659, 2320.515
211.9480, 2302.105
212.4301, 2293.809
212.9122, 2301.119
213.3943, 2311.617
213.8764, 2324.529
214.3586, 2338.298
214.8407, 2350.795
215.3228, 2360.906
215.8049, 2368.564
216.2870, 2373.035
216.7691, 2366.739
217.2513, 2366.026
217.7334, 2377.431
218.2155, 2395.220
218.6976, 2411.162
219.1797, 2421.226
219.6618, 2427.266
220.1440, 2435.040
220.6261, 2449.061
221.1082, 2459.469
221.5903, 2463.095
222.0724, 2463.667
222.5546, 2464.715
223.0367, 2467.672
223.5188, 2472.882
224.0009, 2481.263
224.4830, 2498.122
224.9651, 2511.144
225.4473, 2517.012
225.9294, 2520.756
226.4115, 2528.637
226.8936, 2541.924
227.3757, 2554.717
227.8578, 2556.935
228.3400, 2539.873
228.8221, 2528.485
229.3042, 2520.355
229.7863, 2518.825
230.2684, 2530.620
230.7505, 2554.845
231.2327, 2579.998
231.7148, 2590.974
232.1969, 2581.404
232.6790, 2577.533
233.1611, 2583.007
233.6432, 2590.076
234.1254, 2593.560
234.6075, 2593.779
235.0896, 2595.112
235.5717, 2602.366
236.0538, 2617.063
236.5359, 2627.191
237.0181, 2632.117
237.5002, 2633.795
237.9823, 2631.064
238.4644, 2625.471
238.9465, 2620.369
239.4286, 2618.471
239.9108, 2619.698
240.3929, 2620.229
240.8750, 2618.114
241.3571, 2617.365
241.8392, 2620.062
242.3213, 2624.728
242.8035, 2628.778
243.2856, 2630.622
243.7677, 2630.685
244.2498, 2631.224
244.7319, 2635.449
245.2140, 2636.111
245.6962, 2627.913
246.1783, 2617.231
246.6604, 2612.975
247.1425, 2619.376
247.6246, 2630.587
248.1067, 2631.613
248.5889, 2615.958
249.0710, 2599.978
249.5531, 2584.327
250.0352, 2569.513
250.5173, 2553.964
250.9994, 2537.799
251.4816, 2525.649
251.9637, 2526.838
252.4458, 2550.625
252.9279, 2565.074
253.4100, 2564.318
253.8921, 2558.394
254.3743, 2552.748
254.8564, 2548.220
255.3385, 2542.855
255.8206, 2532.788
256.3027, 2515.616
256.7849, 2506.481
257.2670, 2516.069
257.7491, 2524.791
258.2312, 2522.390
258.7133, 2511.640
259.1954, 2503.033
259.6776, 2507.262
260.1597, 2523.132
260.6418, 2528.257
261.1239, 2511.870
261.6060, 2497.236
262.0881, 2492.015
262.5703, 2494.094
263.0524, 2500.029
263.5345, 2509.599
264.0166, 2520.178
264.4987, 2522.301
264.9808, 2510.299
265.4630, 2500.939
265.9451, 2501.043
266.4272, 2505.867
266.9093, 2509.530
267.3914, 2509.098
267.8735, 2509.573
268.3557, 2521.540
268.8378, 2549.116
269.3199, 2570.268
269.8020, 2576.319
270.2841, 2574.096
270.7662, 2563.716
271.2484, 2544.633
271.7305, 2530.150
272.2126, 2537.691
272.6947, 2566.787
273.1768, 2588.257
273.6589, 2591.285
274.1411, 2590.542
274.6232, 2597.583
275.1053, 2612.214
275.5874, 2628.858
276.0695, 2646.259
276.5516, 2663.327
277.0338, 2675.861
277.5159, 2682.581
277.9980, 2686.438
278.4801, 2683.509
278.9622, 2678.353
279.4443, 2686.077
279.9265, 2726.983
280.4086, 2777.599
280.8907, 2798.915
281.3728, 2786.327
281.8549, 2775.238
282.3370, 2791.125
282.8192, 2824.119
283.3013, 2850.367
283.7834, 2863.033
284.2655, 2873.074
284.7476, 2887.324
285.2297, 2905.840
285.7119, 2929.675
286.1940, 2962.331
286.6761, 2997.683
287.1582, 3020.763
287.6403, 3022.889
288.1224, 3034.027
288.6046, 3075.789
289.0867, 3133.761
289.5688, 3179.308
290.0509, 3203.604
290.5330, 3216.554
291.0151, 3230.599
291.4973, 3244.629
291.9794, 3264.811
292.4615, 3299.274
292.9436, 3336.172
293.4257, 3361.773
293.9078, 3374.936
294.3900, 3387.698
294.8721, 3411.701
295.3542, 3448.363
295.8363, 3481.145
296.3184, 3511.268
296.8005, 3536.707
297.2827, 3553.575
297.7648, 3564.472
298.2469, 3575.175
298.7290, 3588.817
299.2111, 3605.999
299.6932, 3630.749
300.1754, 3673.460
300.6575, 3711.151
301.1396, 3734.427
301.6217, 3752.354
302.1038, 3776.772
302.5859, 3812.254
303.0680, 3854.256
303.5501, 3894.457
304.0323, 3933.109
304.5144, 3968.978
304.9965, 3995.016
305.4786, 4023.396
305.9607, 4065.916
306.4428, 4122.077
306.9250, 4179.171
307.4071, 4222.767
307.8892, 4250.204
308.3713, 4283.245
308.8534, 4330.488
309.3355, 4375.745
309.8177, 4409.765
310.2998, 4437.681
310.7819, 4473.059
311.2640, 4528.805
311.7461, 4595.833
312.2282, 4633.105
312.7104, 4618.266
313.1925, 4614.019
313.6746, 4640.070
314.1567, 4684.000
314.6388, 4735.706
315.1209, 4793.262
315.6031, 4849.299
316.0852, 4891.393
316.5673, 4917.578
317.0494, 4947.323
317.5315, 4986.788
318.0136, 5030.350
318.4958, 5074.390
318.9779, 5118.869
319.4600, 5163.086
319.9421, 5207.438
320.4242, 5251.365
320.9063, 5293.420
321.3885, 5332.724
321.8706, 5371.242
322.3527, 5410.945
322.8348, 5450.941
323.3169, 5488.612
323.7990, 5521.686
324.2812, 5552.854
324.7633, 5587.850
325.2454, 5626.395
325.7275, 5655.405
326.2096, 5663.616
326.6917, 5658.410
327.1739, 5663.203
327.6560, 5683.434
328.1381, 5704.929
328.6202, 5726.431
329.1023, 5744.286
329.5844, 5748.611
330.0666, 5734.725
330.5487, 5713.221
331.0308, 5700.610
331.5129, 5698.629
331.9950, 5701.332
332.4771, 5721.328
332.9593, 5737.341
333.4414, 5727.818
333.9235, 5693.204
334.4056, 5651.691
334.8877, 5619.128
335.3698, 5595.770
335.8520, 5573.760
336.3341, 5557.292
336.8162, 5537.563
337.2983, 5510.011
337.7804, 5477.534
338.2625, 5446.443
338.7447, 5420.214
339.2268, 5394.673
339.7089, 5357.223
340.1910, 5295.664
340.6731, 5243.273
341.1552, 5208.536
341.6374, 5179.385
342.1195, 5147.960
342.6016, 5112.399
343.0837, 5073.631
343.5658, 5032.273
344.0479, 4988.539
344.5301, 4942.176
345.0122, 4888.963
345.4943, 4838.191
345.9764, 4791.332
346.4585, 4749.696
346.9406, 4716.008
347.4228, 4695.154
347.9049, 4680.476
348.3870, 4657.700
348.8691, 4626.289
349.3512, 4588.368
349.8333, 4540.901
350.3155, 4488.891
350.7976, 4436.439
351.2797, 4382.265
351.7618, 4333.520
352.2439, 4297.025
352.7260, 4270.894
353.2082, 4247.798
353.6903, 4227.426
354.1724, 4206.752
354.6545, 4184.007
355.1366, 4159.486
355.6187, 4126.917
356.1009, 4079.768
356.5830, 4026.949
357.0651, 3974.210
357.5472, 3922.840
358.0293, 3878.098
358.5114, 3845.773
358.9936, 3823.099
359.4757, 3788.731
359.9578, 3723.795
360.4399, 3671.129
360.9220, 3650.960
361.4041, 3648.174
361.8863, 3641.614
362.3684, 3623.547
362.8505, 3598.542
363.3326, 3574.357
363.8147, 3553.101
364.2968, 3527.717
364.7790, 3486.698
365.2611, 3451.792
365.7432, 3441.358
366.2253, 3450.439
366.7074, 3458.712
367.1895, 3450.492
367.6717, 3426.916
368.1538, 3397.163
368.6359, 3347.736
369.1180, 3312.882
369.6001, 3313.826
370.0822, 3327.217
370.5644, 3324.271
371.0465, 3294.080
371.5286, 3255.247
372.0107, 3232.801
372.4928, 3227.784
372.9749, 3222.617
373.4571, 3212.778
373.9392, 3203.354
374.4213, 3199.426
374.9034, 3200.165
375.3855, 3199.286
375.8676, 3193.261
376.3498, 3183.758
376.8319, 3171.567
377.3140, 3156.004
377.7961, 3145.883
378.2782, 3150.283
378.7603, 3164.195
379.2425, 3169.699
379.7246, 3161.394
380.2067, 3151.687
380.6888, 3145.343
381.1709, 3141.987
381.6530, 3141.036
382.1352, 3142.323
382.6173, 3145.760
383.0994, 3151.576
383.5815, 3161.301
384.0636, 3168.962
384.5457, 3179.938
385.0279, 3184.446
385.5100, 3169.078
385.9921, 3140.192
386.4742, 3119.607
386.9563, 3124.216
387.4384, 3148.640
387.9206, 3158.898
388.4027, 3139.465
388.8848, 3126.760
389.3669, 3127.728
389.8490, 3136.208
390.3311, 3148.362
390.8133, 3162.536
391.2954, 3174.675
391.7775, 3178.548
392.2596, 3173.423
392.7417, 3170.213
393.2238, 3170.204
393.7060, 3171.549
394.1881, 3175.432
394.6702, 3179.872
395.1523, 3179.521
395.6344, 3167.781
396.1165, 3153.539
396.5987, 3150.800
397.0808, 3159.835
397.5629, 3171.688
398.0450, 3185.810
398.5271, 3198.056
399.0092, 3201.860
399.4914, 3196.036
399.9735, 3186.921
400.4556, 3170.886
400.9377, 3155.289
401.4198, 3156.126
401.9019, 3175.251
402.3841, 3188.623
402.8662, 3170.569
403.3483, 3119.922
403.8304, 3094.891
404.3125, 3112.318
404.7946, 3133.373
405.2768, 3146.052
405.7589, 3152.772
406.2410, 3159.731
406.7231, 3169.480
407.2052, 3177.721
407.6873, 3175.560
408.1695, 3157.553
408.6516, 3141.599
409.1337, 3132.124
409.6158, 3120.926
410.0979, 3100.417
410.5800, 3073.576
411.0622, 3050.658
411.5443, 3039.535
412.0264, 3037.300
412.5085, 3034.599
412.9906, 3031.687
413.4727, 3027.583
413.9549, 3024.618
414.4370, 3018.779
414.9191, 3002.750
415.4012, 2972.972
415.8833, 2947.971
416.3654, 2946.034
416.8476, 2958.342
417.3297, 2961.357
417.8118, 2950.550
418.2939, 2932.787
418.7760, 2911.656
419.2581, 2887.776
419.7403, 2870.177
420.2224, 2860.410
420.7045, 2855.867
421.1866, 2858.194
421.6687, 2864.508
422.1508, 2869.200
422.6330, 2870.000
423.1151, 2867.218
423.5972, 2860.940
424.0793, 2846.528
424.5614, 2838.346
425.0435, 2844.798
425.5257, 2849.550
426.0078, 2840.271
426.4899, 2819.976
426.9720, 2800.797
427.4541, 2791.501
427.9362, 2789.671
428.4184, 2785.285
428.9005, 2776.622
429.3826, 2769.251
429.8647, 2768.677
430.3468, 2767.741
430.8289, 2759.037
431.3111, 2741.263
431.7932, 2722.572
432.2753, 2708.399
432.7574, 2698.141
433.2395, 2692.108
433.7216, 2692.666
434.2038, 2687.128
434.6859, 2657.965
435.1680, 2613.718
435.6501, 2591.574
436.1322, 2614.879
436.6143, 2638.354
437.0965, 2637.522
437.5786, 2621.494
438.0607, 2606.930
438.5428, 2599.146
439.0249, 2595.405
439.5070, 2592.913
439.9892, 2595.499
440.4713, 2585.155
440.9534, 2542.535
441.4355, 2507.852
441.9176, 2506.704
442.3997, 2527.277
442.8819, 2544.077
443.3640, 2543.488
443.8461, 2530.289
444.3282, 2513.119
444.8103, 2488.000
445.2924, 2472.118
445.7746, 2477.845
446.2567, 2487.036
446.7388, 2487.123
447.2209, 2478.835
447.7030, 2472.925
448.1852, 2479.934
448.6673, 2491.870
449.1494, 2493.579
449.6315, 2484.423
450.1136, 2470.084
450.5957, 2449.431
451.0779, 2428.038
451.5600, 2420.538
452.0421, 2433.968
452.5242, 2444.062
453.0063, 2441.309
453.4884, 2432.845
453.9706, 2425.291
454.4527, 2420.252
454.9348, 2419.450
455.4169, 2425.868
455.8990, 2438.943
456.3811, 2440.774
456.8633, 2419.660
457.3454, 2400.330
457.8275, 2386.756
458.3096, 2376.747
458.7917, 2367.217
459.2738, 2357.479
459.7560, 2350.201
460.2381, 2352.258
460.7202, 2363.478
461.2023, 2360.778
461.6844, 2334.803
462.1665, 2308.577
462.6487, 2292.418
463.1308, 2285.672
463.6129, 2289.684
464.0950, 2313.510
464.5771, 2333.849
465.0592, 2326.455
465.5414, 2299.629
466.0235, 2278.819
466.5056, 2270.882
466.9877, 2271.294
467.4698, 2277.958
467.9519, 2294.127
468.4341, 2292.239
468.9162, 2246.046
469.3983, 2208.674
469.8804, 2216.541
470.3625, 2250.635
470.8446, 2274.117
471.3268, 2270.344
471.8089, 2249.840
472.2910, 2229.036
472.7731, 2202.117
473.2552, 2192.817
473.7373, 2225.295
474.2195, 2255.454
474.7016, 2259.712
475.1837, 2245.618
475.6658, 2235.779
476.1479, 2243.165
476.6300, 2258.046
477.1122, 2266.631
477.5943, 2269.043
478.0764, 2269.169
478.5585, 2267.973
479.0406, 2265.349
479.5227, 2259.259
480.0049, 2249.048
480.4870, 2244.965
480.9691, 2251.419
481.4512, 2262.714
481.9333, 2276.661
482.4154, 2291.698
482.8976, 2304.765
483.3797, 2314.240
483.8618, 2319.957
484.3439, 2321.451
484.8260, 2317.998
485.3081, 2311.298
485.7903, 2299.295
486.2724, 2286.377
486.7545, 2272.082
487.2366, 2258.902
487.7187, 2253.342
488.2008, 2262.176
488.6830, 2278.412
489.1651, 2284.414
489.6472, 2278.428
490.1293, 2275.840
490.6114, 2285.699
491.0935, 2297.198
491.5757, 2295.661
492.0578, 2280.492
492.5399, 2269.740
493.0220, 2274.538
493.5041, 2283.025
493.9862, 2284.040
494.4684, 2277.490
494.9505, 2265.934
495.4326, 2249.751
495.9147, 2232.175
496.3968, 2222.291
496.8789, 2228.631
497.3611, 2229.331
497.8432, 2221.726
498.3253, 2211.081
498.8074, 2200.649
499.2895, 2190.301
499.7716, 2177.784
500.2538, 2160.577
500.7359, 2141.818
501.2180, 2131.048
501.7001, 2130.331
502.1822, 2127.154
502.6643, 2117.240
503.1465, 2104.128
503.6286, 2090.276
504.1107, 2075.817
504.5928, 2064.375
505.0749, 2057.304
505.5570, 2053.784
506.0392, 2057.577
506.5213, 2065.681
507.0034, 2063.187
507.4855, 2041.429
507.9676, 2009.349
508.4497, 1985.413
508.9319, 1968.780
509.4140, 1963.700
509.8961, 1979.896
510.3782, 1998.008
510.8603, 2009.426
511.3424, 2013.351
511.8246, 2010.239
512.3067, 1999.195
512.7888, 1984.805
513.2709, 1976.732
513.7531, 1975.731
514.2352, 1975.686
514.7173, 1977.612
515.1994, 1977.435
515.6815, 1968.289
516.1636, 1952.499
516.6458, 1944.472
517.1279, 1955.023
517.6100, 1969.629
518.0921, 1976.719
518.5742, 1977.690
519.0563, 1978.120
519.5385, 1980.390
520.0206, 1980.200
520.5027, 1969.317
520.9848, 1940.509
521.4669, 1926.834
521.9490, 1936.083
522.4312, 1950.141
522.9133, 1964.449
523.3954, 1977.859
523.8775, 1990.666
524.3596, 2003.230
524.8417, 2011.887
525.3239, 2008.294
525.8060, 1993.013
526.2881, 1986.769
526.7702, 1996.059
527.2523, 2007.013
527.7344, 2006.915
528.2166, 2000.175
528.6987, 1999.041
529.1808, 2011.662
529.6629, 2021.983
530.1450, 2020.238
530.6271, 2011.265
531.1093, 2000.764
531.5914, 1990.717
532.0735, 1985.657
532.5556, 1991.493
533.0377, 2008.295
533.5198, 2019.353
534.0020, 2017.369
534.4841, 2018.910
534.9662, 2029.166
535.4483, 2043.109
535.9304, 2057.385
536.4125, 2070.784
536.8947, 2079.727
537.3768, 2075.791
537.8589, 2065.388
538.3410, 2071.590
538.8231, 2097.964
539.3052, 2116.559
539.7874, 2108.181
540.2695, 2085.371
540.7516, 2078.743
541.2337, 2094.542
541.7158, 2107.821
542.1979, 2111.572
542.6801, 2112.433
543.1622, 2116.707
543.6443, 2123.527
544.1264, 2127.126
544.6085, 2123.399
545.0906, 2116.243
545.5728, 2117.407
546.0549, 2130.891
546.5370, 2140.531
547.0191, 2140.269
547.5012, 2139.189
547.9833, 2144.524
548.4655, 2153.872
548.9476, 2158.299
549.4297, 2150.870
549.9117, 2140.757
550.3939, 2137.841
550.8760, 2140.238
551.3581, 2139.621
551.8402, 2132.767
552.3223, 2128.707
552.8044, 2139.925
553.2866, 2169.554
553.7687, 2187.025
554.2508, 2182.636
554.7329, 2179.305
555.2150, 2186.507
555.6971, 2197.304
556.1793, 2201.302
556.6614, 2196.427
557.1435, 2191.874
557.6256, 2198.757
558.1077, 2215.211
558.5898, 2228.386
559.0720, 2237.878
559.5541, 2244.958
560.0362, 2249.853
560.5183, 2252.768
561.0004, 2253.394
561.4825, 2249.653
561.9647, 2250.762
562.4468, 2262.852
562.9289, 2278.776
563.4110, 2294.245
563.8931, 2307.363
564.3752, 2313.301
564.8574, 2308.453
565.3395, 2298.578
565.8216, 2299.031
566.3037, 2314.266
566.7858, 2327.543
567.2679, 2333.857
567.7501, 2341.625
568.2322, 2356.129
568.7143, 2375.240
569.1964, 2393.932
569.6785, 2412.120
570.1606, 2426.033
570.6428, 2430.620
571.1249, 2427.848
571.6070, 2421.650
572.0891, 2412.384
572.5712, 2407.499
573.0533, 2415.143
573.5355, 2434.781
574.0176, 2450.156
574.4997, 2459.340
574.9818, 2467.027
575.4639, 2477.861
575.9460, 2485.055
576.4282, 2477.433
576.9103, 2457.055
577.3924, 2441.910
577.8745, 2451.135
578.3566, 2473.642
578.8387, 2477.241
579.3209, 2460.293
579.8030, 2441.871
580.2851, 2427.534
580.7672, 2415.594
581.2493, 2403.256
581.7314, 2390.252
582.2136, 2380.834
582.6957, 2373.582
583.1778, 2371.956
583.6599, 2384.510
584.1420, 2402.488
584.6241, 2407.864
585.1063, 2395.100
585.5884, 2379.255
586.0705, 2384.041
586.5526, 2410.974
587.0347, 2418.146
587.5168, 2393.372
587.9990, 2370.954
588.4811, 2360.818
588.9632, 2363.820
589.4453, 2387.015
589.9274, 2435.499
590.4095, 2476.184
590.8917, 2484.172
591.3738, 2481.956
591.8559, 2495.558
592.3380, 2524.747
592.8201, 2557.751
593.3022, 2588.857
593.7844, 2618.902
594.2665, 2649.178
594.7486, 2678.015
595.2307, 2711.517
595.7128, 2749.664
596.1949, 2793.131
596.6771, 2848.378
597.1592, 2908.006
597.6413, 2959.265
598.1234, 2997.917
598.6055, 3029.079
599.0876, 3048.780
599.5698, 3065.553
600.0519, 3104.808
600.5340, 3169.437
601.0161, 3232.093
601.4982, 3274.683
601.9803, 3299.334
602.4625, 3314.485
602.9446, 3314.427
603.4267, 3312.562
603.9088, 3314.922
604.3909, 3310.490
604.8730, 3291.922
605.3552, 3260.544
605.8373, 3221.164
606.3194, 3176.377
606.8015, 3125.032
607.2836, 3062.239
607.7657, 2990.339
608.2479, 2925.786
608.7300, 2873.713
609.2121, 2819.027
609.6942, 2745.584
610.1763, 2657.077
610.6584, 2584.509
611.1406, 2535.930
611.6227, 2490.119
612.1048, 2446.883
612.5869, 2402.430
613.0690, 2350.224
613.5511, 2292.607
614.0333, 2240.823
614.5154, 2202.277
614.9975, 2173.463
615.4796, 2149.230
615.9617, 2129.921
616.4438, 2106.536
616.9260, 2076.787
617.4081, 2043.318
617.8902, 2004.696
618.3723, 1962.635
618.8544, 1934.605
619.3365, 1937.390
619.8187, 1934.426
620.3008, 1907.092
620.7829, 1871.584
621.2650, 1844.774
621.7471, 1829.319
622.2292, 1820.698
622.7114, 1816.615
623.1935, 1815.059
623.6756, 1810.035
624.1577, 1801.464
624.6398, 1789.992
625.1219, 1775.206
625.6041, 1758.323
626.0862, 1737.673
626.5683, 1714.764
627.0504, 1698.764
627.5325, 1693.694
628.0146, 1692.670
628.4968, 1697.818
628.9789, 1702.756
629.4610, 1696.406
629.9431, 1678.801
630.4252, 1662.801
630.9073, 1660.393
631.3895, 1667.334
631.8716, 1665.660
632.3537, 1653.127
632.8358, 1641.270
633.3179, 1631.721
633.8000, 1624.975
634.2822, 1623.042
634.7643, 1624.892
635.2464, 1624.283
635.7285, 1619.065
636.2106, 1612.198
636.6927, 1604.044
637.1749, 1595.723
637.6570, 1588.906
638.1391, 1583.826
638.6212, 1579.394
639.1033, 1574.756
639.5854, 1569.941
640.0676, 1564.796
640.5497, 1558.655
641.0318, 1554.722
641.5139, 1554.642
641.9960, 1556.033
642.4781, 1558.734
642.9603, 1561.711
643.4424, 1559.159
643.9245, 1545.010
644.4066, 1530.572
644.8887, 1520.565
645.3708, 1514.180
645.8530, 1511.055
646.3351, 1510.631
646.8172, 1510.927
647.2993, 1510.221
647.7814, 1509.110
648.2635, 1510.078
648.7457, 1513.751
649.2278, 1516.981
649.7099, 1520.512
650.1920, 1521.750
650.6741, 1516.714
651.1563, 1507.255
651.6384, 1500.638
652.1205, 1504.857
652.6026, 1503.983
653.0847, 1482.883
653.5668, 1457.340
654.0490, 1447.647
654.5311, 1454.933
655.0132, 1466.672
655.4953, 1473.953
655.9774, 1478.880
656.4595, 1489.670
656.9417, 1509.062
657.4238, 1514.922
657.9059, 1496.466
658.3880, 1474.662
658.8701, 1465.903
659.3522, 1467.048
659.8344, 1469.262
660.3165, 1476.093
660.7986, 1477.362
661.2807, 1461.494
661.7628, 1444.083
662.2449, 1442.578
662.7271, 1455.326
663.2092, 1470.437
663.6913, 1481.553
664.1734, 1487.103
664.6555, 1480.955
665.1376, 1462.646
665.6198, 1451.504
666.1019, 1450.984
666.5840, 1454.976
667.0661, 1461.103
667.5482, 1468.420
668.0303, 1473.886
668.5125, 1476.574
668.9946, 1479.280
669.4767, 1487.572
669.9588, 1491.705
670.4409, 1478.983
670.9230, 1456.627
671.4052, 1442.217
671.8873, 1444.080
672.3694, 1452.908
672.8515, 1458.379
673.3336, 1460.323
673.8157, 1456.014
674.2979, 1443.871
674.7800, 1433.873
675.2621, 1430.360
675.7442, 1433.264
676.2263, 1443.919
676.7084, 1469.306
677.1906, 1483.641
677.6727, 1478.776
678.1548, 1470.740
678.6369, 1465.851
679.1190, 1463.314
679.6011, 1461.165
680.0833, 1458.826
680.5654, 1457.016
681.0475, 1457.319
681.5296, 1458.353
682.0117, 1456.206
682.4938, 1451.061
682.9760, 1447.523
683.4581, 1447.823
683.9402, 1448.823
684.4223, 1445.349
684.9044, 1435.910
685.3865, 1433.117
685.8687, 1443.417
686.3508, 1452.559
686.8329, 1458.640
687.3150, 1461.645
687.7971, 1459.545
688.2792, 1453.351
688.7614, 1450.528
689.2435, 1458.504
689.7256, 1469.084
690.2077, 1474.221
690.6898, 1474.510
691.1719, 1469.591
691.6541, 1459.766
692.1362, 1452.373
692.6183, 1454.838
693.1004, 1465.607
693.5825, 1474.447
694.0646, 1481.174
694.5468, 1486.237
695.0289, 1486.562
695.5110, 1488.172
695.9931, 1496.598
696.4752, 1509.534
696.9573, 1519.745
697.4395, 1525.416
697.9216, 1528.198
698.4037, 1527.798
698.8858, 1525.672
699.3679, 1523.003
699.8500, 1520.275
700.3322, 1517.527
700.8143, 1514.444
701.2964, 1513.902
701.7785, 1523.572
702.2606, 1544.137
702.7427, 1558.211
703.2249, 1562.667
703.7070, 1565.691
704.1891, 1572.671
704.6712, 1580.779
705.1533, 1583.410
705.6354, 1578.599
706.1176, 1575.329
706.5997, 1576.534
707.0818, 1577.792
707.5639, 1575.246
708.0460, 1571.522
708.5281, 1570.118
709.0103, 1572.285
709.4924, 1579.211
709.9745, 1594.222
710.4566, 1614.231
710.9387, 1632.757
711.4208, 1649.585
711.9030, 1661.712
712.3851, 1667.604
712.8672, 1670.860
713.3493, 1676.224
713.8314, 1683.855
714.3135, 1685.596
714.7957, 1670.129
715.2778, 1664.666
715.7599, 1681.202
716.2420, 1702.335
716.7241, 1714.585
717.2062, 1718.876
717.6884, 1723.757
718.1705, 1732.076
718.6526, 1742.876
719.1347, 1756.113
719.6168, 1771.121
720.0989, 1787.342
720.5811, 1804.327
721.0632, 1820.345
721.5453, 1834.156
722.0274, 1846.849
722.5095, 1861.745
722.9916, 1879.787
723.4738, 1893.034
723.9559, 1899.575
724.4380, 1903.849
724.9201, 1905.872
725.4022, 1908.183
725.8843, 1916.383
726.3665, 1932.677
726.8486, 1946.341
727.3307, 1952.267
727.8128, 1958.172
728.2949, 1968.120
728.7770, 1981.283
729.2592, 1994.906
729.7413, 2008.691
730.2234, 2027.611
730.7055, 2065.143
731.1876, 2106.941
731.6697, 2114.712
732.1519, 2092.493
732.6340, 2078.325
733.1161, 2083.216
733.5982, 2098.296
734.0803, 2116.597
734.5624, 2137.348
735.0446, 2148.643
735.5267, 2138.932
736.0088, 2139.639
736.4909, 2165.784
736.9730, 2192.447
737.4551, 2201.477
737.9373, 2198.812
738.4194, 2202.827
738.9015, 2221.913
739.3836, 2239.694
739.8657, 2244.335
740.3478, 2244.598
740.8300, 2249.038
741.3121, 2258.529
741.7942, 2273.352
742.2763, 2293.762
742.7584, 2314.424
743.2405, 2328.718
743.7227, 2336.563
744.2048, 2336.270
744.6869, 2326.393
745.1690, 2315.843
745.6511, 2306.760
746.1332, 2300.668
746.6154, 2298.906
747.0975, 2301.049
747.5796, 2312.472
748.0617, 2349.567
748.5438, 2374.294
749.0259, 2373.113
749.5081, 2359.072
749.9902, 2338.772
750.4723, 2316.347
750.9544, 2302.065
751.4365, 2305.305
751.9186, 2309.938
752.4008, 2298.718
752.8829, 2279.173
753.3650, 2263.618
753.8471, 2254.212
754.3292, 2252.377
754.8113, 2259.805
755.2935, 2270.273
755.7756, 2272.153
756.2577, 2265.382
756.7398, 2248.333
757.2219, 2213.791
757.7040, 2188.000
758.1862, 2191.737
758.6683, 2204.543
759.1504, 2190.533
759.6325, 2145.948
760.1146, 2109.971
760.5967, 2088.699
761.0789, 2073.031
761.5610, 2061.437
762.0431, 2052.403
762.5252, 2045.796
763.0073, 2040.609
763.4894, 2033.689
763.9716, 2023.849
764.4537, 2010.349
764.9358, 1989.010
765.4179, 1963.916
765.9000, 1947.377
766.3821, 1940.040
766.8643, 1928.048
767.3464, 1901.234
767.8285, 1869.182
768.3106, 1855.849
768.7927, 1865.820
769.2748, 1866.039
769.7570, 1852.758
770.2391, 1835.421
770.7212, 1815.954
771.2033, 1796.503
771.6854, 1779.519
772.1675, 1764.530
772.6497, 1755.152
773.1318, 1767.033
773.6139, 1766.491
774.0960, 1721.414
774.5781, 1668.899
775.0602, 1655.584
775.5424, 1679.841
776.0245, 1699.568
776.5066, 1688.764
776.9887, 1667.589
777.4708, 1662.673
777.9529, 1664.167
778.4351, 1643.859
778.9172, 1601.625
779.3993, 1566.008
779.8814, 1554.585
780.3635, 1558.667
780.8456, 1563.471
781.3278, 1569.984
781.8099, 1566.603
782.2920, 1548.401
782.7741, 1533.028
783.2562, 1529.928
783.7383, 1531.389
784.2205, 1526.855
784.7026, 1516.003
785.1847, 1503.751
785.6668, 1487.534
786.1489, 1473.457
786.6310, 1462.677
787.1132, 1455.136
787.5953, 1451.974
788.0774, 1452.074
788.5595, 1452.209
789.0416, 1451.651
789.5237, 1448.929
790.0059, 1439.868
790.4880, 1429.236
790.9701, 1427.179
791.4522, 1431.859
791.9343, 1430.648
792.4164, 1417.442
792.8986, 1401.114
793.3807, 1394.858
793.8628, 1397.902
794.3449, 1399.513
794.8270, 1399.164
795.3091, 1401.200
795.7913, 1408.786
796.2734, 1415.690
796.7555, 1415.234
797.2376, 1407.608
797.7197, 1397.571
798.2018, 1380.584
798.6840, 1367.551
799.1661, 1358.074
799.6482, 1353.893
800.1303, 1360.916
800.6124, 1373.021
801.0945, 1376.592
801.5767, 1366.306
802.0588, 1356.226
802.5409, 1352.491
803.0230, 1353.005
803.5051, 1358.229
803.9872, 1365.574
804.4694, 1371.250
804.9515, 1373.732
805.4336, 1370.852
805.9157, 1356.838
806.3978, 1339.437
806.8799, 1340.804
807.3621, 1357.818
807.8442, 1363.755
808.3263, 1352.411
808.8084, 1344.992
809.2905, 1359.896
809.7726, 1386.184
810.2548, 1388.303
810.7369, 1354.781
811.2190, 1335.184
811.7011, 1338.311
812.1832, 1343.087
812.6653, 1338.608
813.1475, 1331.530
813.6296, 1332.073
814.1117, 1341.240
814.5938, 1345.743
815.0759, 1339.623
815.5580, 1333.637
816.0402, 1331.438
816.5223, 1331.550
817.0044, 1332.420
817.4865, 1334.014
817.9686, 1337.819
818.4507, 1346.321
818.9329, 1351.937
819.4150, 1342.521
819.8971, 1328.688
820.3792, 1327.874
820.8613, 1338.947
821.3434, 1354.678
821.8256, 1371.657
822.3077, 1380.680
822.7898, 1365.022
823.2719, 1331.735
823.7540, 1320.374
824.2361, 1332.401
824.7183, 1339.542
825.2004, 1332.766
825.6825, 1327.433
826.1646, 1338.975
826.6467, 1362.192
827.1288, 1371.654
827.6110, 1359.060
828.0931, 1350.208
828.5752, 1348.378
829.0573, 1347.521
829.5394, 1343.541
830.0215, 1339.657
830.5037, 1340.870
830.9858, 1347.984
831.4679, 1355.390
831.9500, 1364.275
832.4321, 1370.183
832.9142, 1370.410
833.3964, 1366.907
833.8785, 1361.094
834.3606, 1353.697
834.8427, 1345.440
835.3248, 1335.665
835.8069, 1328.134
836.2891, 1325.341
836.7712, 1327.871
837.2533, 1341.306
837.7354, 1361.759
838.2175, 1372.900
838.6996, 1368.278
839.1818, 1358.267
839.6639, 1354.845
840.1460, 1356.777
840.6281, 1358.691
841.1102, 1360.616
841.5923, 1360.942
842.0745, 1358.617
842.5566, 1358.657
843.0387, 1367.185
843.5208, 1379.392
844.0029, 1376.643
844.4850, 1348.681
844.9672, 1332.356
845.4493, 1334.026
845.9314, 1338.891
846.4135, 1339.984
846.8956, 1341.431
847.3777, 1350.984
847.8599, 1369.359
848.3420, 1377.808
848.8241, 1366.264
849.3062, 1354.242
849.7883, 1342.608
850.2704, 1337.408
850.7526, 1350.938
851.2347, 1374.949
851.7168, 1385.111
852.1989, 1369.638
852.6810, 1354.787
853.1631, 1357.816
853.6453, 1371.486
854.1274, 1396.637
854.6095, 1423.821
855.0916, 1430.548
855.5737, 1412.974
856.0558, 1393.228
856.5380, 1390.246
857.0201, 1396.910
857.5022, 1401.599
857.9843, 1403.738
858.4664, 1397.730
858.9485, 1383.275
859.4307, 1374.311
859.9128, 1379.150
860.3949, 1392.280
860.8770, 1404.359
861.3591, 1415.374
861.8412, 1427.719
862.3234, 1445.016
862.8055, 1447.774
863.2876, 1420.661
863.7697, 1394.635
864.2518, 1403.073
864.7339, 1439.967
865.2161, 1462.326
865.6982, 1467.439
866.1803, 1462.188
866.6624, 1432.960
867.1445, 1409.060
867.6266, 1405.005
868.1088, 1413.252
868.5909, 1424.631
869.0730, 1438.515
869.5551, 1448.885
870.0372, 1451.913
870.5193, 1454.035
871.0015, 1459.677
871.4836, 1464.650
871.9657, 1463.705
872.4478, 1458.141
872.9299, 1451.970
873.4120, 1445.294
873.8942, 1445.876
874.3763, 1467.328
874.8584, 1493.544
875.3405, 1505.999
875.8226, 1506.794
876.3047, 1500.753
876.7869, 1490.821
877.2690, 1485.936
877.7511, 1495.545
878.2332, 1510.866
878.7153, 1512.961
879.1974, 1506.208
879.6796, 1509.798
880.1617, 1525.134
880.6438, 1537.462
881.1259, 1539.134
881.6080, 1535.154
882.0901, 1532.123
882.5723, 1530.195
883.0544, 1532.561
883.5365, 1540.006
884.0186, 1546.452
884.5007, 1550.423
884.9828, 1553.290
885.4650, 1556.192
885.9471, 1558.862
886.4292, 1559.970
886.9113, 1557.143
887.3934, 1559.032
887.8755, 1568.438
888.3577, 1578.388
888.8398, 1590.226
889.3219, 1598.460
889.8040, 1593.069
890.2861, 1575.125
890.7682, 1567.283
891.2504, 1577.475
891.7325, 1588.611
892.2146, 1598.819
892.6967, 1608.065
893.1788, 1616.452
893.6609, 1623.810
894.1431, 1629.509
894.6252, 1633.317
895.1073, 1637.343
895.5894, 1644.023
896.0715, 1649.383
896.5536, 1650.085
897.0358, 1648.686
897.5179, 1647.317
898.0000, 1646.905
898.4821, 1649.575
898.9642, 1657.395
899.4464, 1662.952
899.9285, 1657.004
900.4106, 1647.058
900.8927, 1639.032
901.3748, 1636.113
901.8569, 1646.175
902.3391, 1669.975
902.8212, 1699.278
903.3033, 1731.167
903.7854, 1756.929
904.2675, 1756.383
904.7496, 1737.694
905.2318, 1728.183
905.7139, 1730.002
906.1960, 1736.592
906.6781, 1745.207
907.1602, 1752.794
907.6423, 1755.386
908.1245, 1753.594
908.6066, 1748.842
909.0887, 1740.908
909.5708, 1740.727
910.0529, 1751.434
910.5350, 1762.141
911.0172, 1765.922
911.4993, 1764.763
911.9814, 1762.147
912.4635, 1757.410
912.9456, 1756.648
913.4277, 1759.862
913.9099, 1767.822
914.3920, 1784.439
914.8741, 1799.406
915.3562, 1802.320
915.8383, 1795.978
916.3204, 1793.318
916.8026, 1798.227
917.2847, 1798.811
917.7668, 1789.939
918.2489, 1783.441
918.7310, 1783.671
919.2131, 1788.414
919.6953, 1799.206
920.1774, 1814.877
920.6595, 1818.310
921.1416, 1787.800
921.6237, 1774.184
922.1058, 1800.328
922.5880, 1830.443
923.0701, 1845.552
923.5522, 1849.211
924.0343, 1845.878
924.5164, 1836.168
924.9985, 1834.148
925.4807, 1856.372
925.9628, 1872.204
926.4449, 1863.538
926.9270, 1845.253
927.4091, 1826.714
927.8912, 1811.857
928.3734, 1805.414
928.8555, 1808.826
929.3376, 1820.537
929.8197, 1851.679
930.3018, 1878.699
930.7839, 1878.077
931.2661, 1862.221
931.7482, 1847.096
932.2303, 1836.243
932.7124, 1829.533
933.1945, 1827.534
933.6766, 1826.572
934.1588, 1822.487
934.6409, 1817.839
935.1230, 1817.574
935.6051, 1819.513
936.0872, 1816.932
936.5693, 1809.135
937.0515, 1802.445
937.5336, 1800.991
938.0157, 1803.876
938.4978, 1810.465
938.9799, 1820.127
939.4620, 1834.159
939.9442, 1850.401
940.4263, 1858.522
940.9084, 1855.278
941.3905, 1847.916
941.8726, 1842.623
942.3547, 1839.325
942.8369, 1836.659
943.3190, 1835.517
943.8011, 1843.001
944.2832, 1859.237
944.7653, 1874.625
945.2474, 1885.124
945.7296, 1888.031
946.2117, 1877.766
946.6938, 1857.991
947.1759, 1847.252
947.6580, 1845.567
948.1401, 1847.727
948.6223, 1853.016
949.1044, 1862.013
949.5865, 1876.115
950.0686, 1889.955
950.5507, 1893.443
951.0328, 1886.950
951.5150, 1886.026
951.9971, 1891.836
952.4792, 1897.019
952.9613, 1901.084
953.4434, 1899.862
953.9255, 1887.569
954.4077, 1872.618
954.8898, 1874.990
955.3719, 1897.533
955.8540, 1916.724
956.3361, 1933.505
956.8182, 1943.133
957.3004, 1939.885
957.7825, 1937.468
958.2646, 1947.485
958.7467, 1966.246
959.2288, 1983.588
959.7109, 2002.401
960.1931, 2009.148
960.6752, 1993.614
961.1573, 1984.928
961.6394, 1996.214
962.1215, 2012.096
962.6036, 2021.683
963.0858, 2024.197
963.5679, 2015.360
964.0500, 1983.909
964.5321, 1964.436
965.0142, 1959.941
965.4963, 1963.380
965.9785, 1975.587
966.4606, 1992.353
966.9427, 2014.764
967.4248, 2039.963
967.9069, 2048.560
968.3890, 2019.759
968.8712, 2008.560
969.3533, 2036.035
969.8354, 2059.415
970.3175, 2052.496
970.7996, 2038.406
971.2817, 2045.186
971.7639, 2071.506
972.2460, 2093.512
972.7281, 2110.609
973.2102, 2120.109
973.6923, 2115.814
974.1744, 2110.366
974.6566, 2111.923
975.1387, 2115.033
975.6208, 2109.197
976.1029, 2095.209
976.5850, 2092.512
977.0671, 2116.616
977.5493, 2135.300
978.0314, 2136.533
978.5135, 2135.403
978.9956, 2141.439
979.4777, 2150.605
979.9598, 2155.688
980.4420, 2156.218
980.9241, 2159.823
981.4062, 2173.058
981.8883, 2183.290
982.3704, 2180.636
982.8525, 2179.730
983.3347, 2193.729
983.8168, 2214.967
984.2989, 2231.844
984.7810, 2242.352
985.2631, 2247.137
985.7452, 2238.150
986.2274, 2234.567
986.7095, 2245.855
987.1916, 2263.171
987.6737, 2285.915
988.1558, 2307.275
988.6379, 2313.862
989.1201, 2304.179
989.6022, 2299.685
990.0843, 2317.595
990.5664, 2330.166
991.0485, 2317.328
991.5306, 2301.634
992.0128, 2302.003
992.4949, 2313.334
992.9770, 2325.674
993.4591, 2336.709
993.9412, 2342.389
994.4233, 2331.437
994.9055, 2327.079
995.3876, 2347.417
995.8697, 2372.828
996.3518, 2387.374
996.8339, 2393.441
997.3160, 2396.487
997.7982, 2397.988
998.2803, 2403.699
998.7624, 2422.638
999.2445, 2438.021
999.7266, 2436.740
1000.209, 2432.606
1000.691, 2437.505
1001.173, 2449.206
1001.655, 2465.439
1002.137, 2484.846
1002.619, 2490.023
1003.101, 2452.841
1003.584, 2425.798
1004.066, 2450.611
1004.548, 2483.281
1005.030, 2479.249
1005.512, 2455.294
1005.994, 2447.650
1006.476, 2463.478
1006.958, 2486.335
1007.440, 2521.009
1007.923, 2545.674
1008.405, 2538.327
1008.887, 2526.964
1009.369, 2539.525
1009.851, 2564.187
1010.333, 2574.699
1010.815, 2566.992
1011.297, 2563.959
1011.780, 2577.456
1012.262, 2594.080
1012.744, 2611.227
1013.226, 2625.804
1013.708, 2632.570
1014.190, 2636.221
1014.672, 2646.894
1015.154, 2665.278
1015.636, 2676.648
1016.119, 2665.664
1016.601, 2660.177
1017.083, 2677.338
1017.565, 2697.678
1018.047, 2705.824
1018.529, 2708.003
1019.011, 2716.534
1019.493, 2732.296
1019.976, 2743.610
1020.458, 2744.387
1020.940, 2743.802
1021.422, 2741.650
1021.904, 2742.455
1022.386, 2745.319
1022.868, 2755.219
1023.350, 2784.663
1023.832, 2831.364
1024.315, 2864.478
1024.797, 2867.753
1025.279, 2871.283
1025.761, 2884.954
1026.243, 2898.567
1026.725, 2905.503
1027.207, 2909.623
1027.689, 2913.586
1028.172, 2918.837
1028.654, 2932.550
1029.136, 2966.277
1029.618, 2989.247
1030.100, 2987.720
1030.582, 2984.052
1031.064, 2983.462
1031.546, 2989.535
1032.028, 3008.735
1032.511, 3038.435
1032.993, 3064.611
1033.475, 3086.413
1033.957, 3103.537
1034.439, 3113.984
1034.921, 3122.228
1035.403, 3123.723
1035.885, 3128.824
1036.368, 3154.120
1036.850, 3191.657
1037.332, 3208.731
1037.814, 3192.304
1038.296, 3187.150
1038.778, 3198.427
1039.260, 3214.163
1039.742, 3237.762
1040.224, 3258.051
1040.707, 3260.935
1041.189, 3255.602
1041.671, 3267.218
1042.153, 3299.813
1042.635, 3332.238
1043.117, 3368.988
1043.599, 3396.303
1044.081, 3408.015
1044.563, 3415.095
1045.046, 3423.523
1045.528, 3433.225
1046.010, 3444.011
1046.492, 3455.860
1046.974, 3469.279
1047.456, 3486.265
1047.938, 3497.630
1048.420, 3497.516
1048.902, 3503.784
1049.385, 3528.155
1049.867, 3560.875
1050.349, 3586.993
1050.831, 3607.026
1051.313, 3629.296
1051.795, 3654.721
1052.277, 3676.604
1052.759, 3694.370
1053.242, 3706.627
1053.724, 3711.849
1054.206, 3714.608
1054.688, 3718.394
1055.170, 3726.376
1055.652, 3758.128
1056.134, 3813.413
1056.616, 3846.539
1057.099, 3853.612
1057.581, 3857.479
1058.063, 3866.213
1058.545, 3873.968
1059.027, 3873.652
1059.509, 3873.385
1059.991, 3894.944
1060.473, 3934.385
1060.955, 3971.531
1061.438, 4004.978
1061.920, 4035.581
1062.402, 4062.814
1062.884, 4076.304
1063.366, 4066.378
1063.848, 4054.860
1064.330, 4079.232
1064.812, 4125.398
1065.294, 4162.637
1065.777, 4190.345
1066.259, 4205.584
1066.741, 4211.047
1067.223, 4222.354
1067.705, 4247.611
1068.187, 4272.843
1068.669, 4277.671
1069.151, 4279.167
1069.634, 4304.183
1070.116, 4341.013
1070.598, 4370.768
1071.080, 4392.437
1071.562, 4410.662
1072.044, 4427.318
1072.526, 4444.788
1073.008, 4467.499
1073.490, 4488.304
1073.973, 4494.776
1074.455, 4501.596
1074.937, 4529.354
1075.419, 4567.948
1075.901, 4593.321
1076.383, 4603.346
1076.865, 4621.968
1077.347, 4664.291
1077.829, 4706.904
1078.312, 4747.348
1078.794, 4775.482
1079.276, 4772.541
1079.758, 4761.587
1080.240, 4774.858
1080.722, 4807.984
1081.204, 4826.971
1081.686, 4817.540
1082.169, 4816.030
1082.651, 4828.730
1083.133, 4850.791
1083.615, 4892.964
1084.097, 4932.427
1084.579, 4946.053
1085.061, 4943.523
1085.543, 4950.502
1086.026, 4969.616
1086.508, 4985.072
1086.990, 4994.887
1087.472, 5005.085
1087.954, 5018.925
1088.436, 5028.048
1088.918, 5021.020
1089.400, 5016.226
1089.882, 5044.243
1090.365, 5101.191
1090.847, 5137.024
1091.329, 5145.926
1091.811, 5165.871
1092.293, 5202.782
1092.775, 5237.792
1093.257, 5265.370
1093.739, 5278.900
1094.221, 5267.103
1094.704, 5247.844
1095.186, 5279.275
1095.668, 5354.513
1096.150, 5395.301
1096.632, 5401.980
1097.114, 5407.774
1097.596, 5420.615
1098.078, 5428.523
1098.561, 5422.574
1099.043, 5423.495
1099.525, 5474.243
1100.007, 5545.593
1100.489, 5563.438
1100.971, 5549.814
1101.453, 5561.897
1101.935, 5601.192
1102.417, 5638.269
1102.900, 5662.194
1103.382, 5688.393
1103.864, 5733.014
1104.346, 5779.618
1104.828, 5811.685
1105.310, 5836.989
1105.792, 5869.195
1106.274, 5899.569
1106.756, 5903.306
1107.239, 5883.171
1107.721, 5880.024
1108.203, 5914.774
1108.685, 5955.711
1109.167, 5991.429
1109.649, 6026.034
1110.131, 6057.750
1110.613, 6092.919
1111.096, 6142.507
1111.578, 6200.296
1112.060, 6246.978
1112.542, 6277.590
1113.024, 6309.802
1113.506, 6345.242
1113.988, 6381.876
1114.470, 6410.470
1114.953, 6452.391
1115.435, 6533.199
1115.917, 6619.833
1116.399, 6662.925
1116.881, 6666.725
1117.363, 6686.291
1117.845, 6727.367
1118.327, 6756.624
1118.809, 6764.568
1119.292, 6799.736
1119.774, 6883.815
1120.256, 6972.250
1120.738, 7026.081
1121.220, 7058.003
1121.702, 7091.165
1122.184, 7126.975
1122.666, 7184.029
1123.148, 7257.664
1123.631, 7309.704
1124.113, 7336.996
1124.595, 7377.493
1125.077, 7449.893
1125.559, 7530.719
1126.041, 7599.503
1126.523, 7657.317
1127.005, 7699.111
1127.488, 7735.736
1127.970, 7789.063
1128.452, 7853.097
1128.934, 7907.762
1129.416, 7950.410
1129.898, 7995.898
1130.380, 8051.239
1130.862, 8112.111
1131.344, 8175.556
1131.827, 8243.873
1132.309, 8326.683
1132.791, 8409.147
1133.273, 8472.537
1133.755, 8521.237
1134.237, 8569.793
1134.719, 8618.418
1135.201, 8679.435
1135.683, 8774.258
1136.166, 8852.787
1136.648, 8889.996
1137.130, 8929.022
1137.612, 8988.497
1138.094, 9062.057
1138.576, 9144.494
1139.058, 9234.114
1139.540, 9320.005
1140.023, 9405.137
1140.505, 9466.945
1140.987, 9497.368
1141.469, 9554.920
1141.951, 9659.212
1142.433, 9762.097
1142.915, 9830.534
1143.397, 9873.585
1143.880, 9893.361
1144.362, 9905.175
1144.844, 9978.098
1145.326, 10094.00
1145.808, 10183.70
1146.290, 10243.06
1146.772, 10293.20
1147.254, 10343.12
1147.736, 10401.34
1148.219, 10478.59
1148.701, 10556.04
1149.183, 10616.10
1149.665, 10664.94
1150.147, 10702.23
1150.629, 10737.08
1151.111, 10779.51
1151.593, 10831.53
1152.075, 10898.19
1152.558, 10985.51
1153.040, 11052.57
1153.522, 11052.26
1154.004, 11076.21
1154.486, 11193.76
1154.968, 11302.79
1155.450, 11315.86
1155.932, 11295.07
1156.415, 11331.96
1156.897, 11417.58
1157.379, 11478.30
1157.861, 11504.77
1158.343, 11534.95
1158.825, 11569.26
1159.307, 11607.69
1159.789, 11650.52
1160.271, 11699.78
1160.754, 11760.43
1161.236, 11813.85
1161.718, 11823.27
1162.200, 11803.31
1162.682, 11814.15
1163.164, 11851.45
1163.646, 11902.18
1164.128, 11960.52
1164.610, 12012.67
1165.093, 12053.17
1165.575, 12077.74
1166.057, 12079.20
1166.539, 12079.56
1167.021, 12101.04
1167.503, 12132.10
1167.985, 12176.50
1168.467, 12211.89
1168.950, 12196.19
1169.432, 12148.55
1169.914, 12127.54
1170.396, 12146.52
1170.878, 12176.15
1171.360, 12228.54
1171.842, 12260.72
1172.324, 12254.60
1172.807, 12235.83
1173.289, 12200.34
1173.771, 12174.46
1174.253, 12187.39
1174.735, 12229.79
1175.217, 12275.16
1175.699, 12328.76
1176.181, 12334.53
1176.663, 12285.58
1177.146, 12246.66
1177.628, 12229.38
1178.110, 12219.26
1178.592, 12209.39
1179.074, 12201.93
1179.556, 12201.71
1180.038, 12200.38
1180.520, 12170.34
1181.002, 12132.17
1181.485, 12138.17
1181.967, 12173.56
1182.449, 12200.08
1182.931, 12209.61
1183.413, 12206.14
1183.895, 12190.84
1184.377, 12168.62
1184.859, 12131.65
1185.342, 12102.68
1185.824, 12091.76
1186.306, 12096.23
1186.788, 12133.04
1187.270, 12172.07
1187.752, 12157.31
1188.234, 12097.47
1188.716, 12089.73
1189.198, 12174.02
1189.681, 12193.93
1190.163, 12118.41
1190.645, 12066.93
1191.127, 12072.30
1191.609, 12077.82
1192.091, 12047.43
1192.573, 12015.81
1193.055, 12033.37
1193.537, 12081.83
1194.020, 12104.72
1194.502, 12107.03
1194.984, 12110.91
1195.466, 12114.07
1195.948, 12098.92
1196.430, 12064.57
1196.912, 12024.70
1197.394, 11983.90
1197.877, 11967.32
1198.359, 12015.80
1198.841, 12070.59
1199.323, 12092.87
1199.805, 12095.75
1200.287, 12070.93
1200.769, 12047.84
1201.251, 12088.55
1201.734, 12183.09
1202.216, 12213.83
1202.698, 12118.09
1203.180, 12082.36
1203.662, 12142.99
1204.144, 12183.98
1204.626, 12172.23
1205.108, 12162.12
1205.590, 12184.28
1206.073, 12224.17
1206.555, 12266.01
1207.037, 12304.75
1207.519, 12320.97
1208.001, 12319.03
1208.483, 12312.86
1208.965, 12309.07
1209.447, 12334.85
1209.929, 12390.00
1210.412, 12442.79
1210.894, 12478.24
1211.376, 12515.03
1211.858, 12574.70
1212.340, 12632.49
1212.822, 12687.93
1213.304, 12715.77
1213.786, 12657.63
1214.269, 12582.03
1214.751, 12596.93
1215.233, 12687.84
1215.715, 12739.67
1216.197, 12723.09
1216.679, 12748.15
1217.161, 12834.94
1217.643, 12912.26
1218.125, 12966.24
1218.608, 13019.48
1219.090, 13083.90
1219.572, 13141.30
1220.054, 13168.87
1220.536, 13186.56
1221.018, 13249.81
1221.500, 13339.12
1221.982, 13386.36
1222.464, 13405.19
1222.947, 13434.96
1223.429, 13482.24
1223.911, 13547.24
1224.393, 13628.31
1224.875, 13698.46
1225.357, 13720.28
1225.839, 13767.36
1226.321, 13916.20
1226.804, 14055.76
1227.286, 14112.88
1227.768, 14133.22
1228.250, 14141.50
1228.732, 14159.05
1229.214, 14237.61
1229.696, 14378.53
1230.178, 14470.40
1230.661, 14501.83
1231.143, 14545.04
1231.625, 14606.75
1232.107, 14659.97
1232.589, 14695.78
1233.071, 14761.74
1233.553, 14894.55
1234.035, 15039.78
1234.517, 15127.91
1235.000, 15180.59
1235.482, 15221.26
1235.964, 15258.20
1236.446, 15297.68
1236.928, 15346.62
1237.410, 15418.17
1237.892, 15511.18
1238.374, 15609.28
1238.856, 15716.03
1239.339, 15799.82
1239.821, 15830.00
1240.303, 15873.15
1240.785, 15945.09
1241.267, 16030.69
1241.749, 16132.28
1242.231, 16225.41
1242.713, 16280.97
1243.196, 16310.92
##END=



