##NAMES=Denningite
##RRUFFID=R061023
##IDEAL CHEMISTRY=CaMn^2+^Te^4+^_4_O_10_
##LOCALITY=Bambolla mine, Moctezuma, Sonora, Mexico
##OWNER=RRUFF
##SOURCE=Michael Scott
##DESCRIPTION=Pale green thin platy crystals associated with quartz, tellurium, tellurite, and zemannite
##STATUS=The identification of this mineral has been confirmed by single-crystal X-ray diffraction.
##URL=rruff.info/R061023
124.9026, 501.8997
125.3847, 550.9313
125.8668, 613.8895
126.3489, 684.5188
126.8311, 764.0903
127.3132, 848.3984
127.7953, 929.8746
128.2774, 1002.366
128.7595, 1070.691
129.2416, 1146.445
129.7238, 1234.375
130.2059, 1320.560
130.6880, 1401.394
131.1701, 1474.841
131.6522, 1532.557
132.1343, 1568.724
132.6165, 1585.142
133.0986, 1590.122
133.5807, 1587.240
134.0628, 1565.756
134.5449, 1513.668
135.0270, 1438.328
135.5092, 1363.830
135.9913, 1302.108
136.4734, 1253.465
136.9555, 1226.813
137.4376, 1227.933
137.9197, 1249.723
138.4019, 1288.387
138.8840, 1343.559
139.3661, 1416.329
139.8482, 1505.009
140.3303, 1608.707
140.8124, 1737.970
141.2946, 1900.208
141.7767, 2085.710
142.2588, 2294.122
142.7409, 2523.915
143.2230, 2774.476
143.7051, 3047.954
144.1873, 3351.646
144.6694, 3650.920
145.1515, 3957.067
145.6336, 4251.483
146.1157, 4530.958
146.5978, 4791.873
147.0800, 5024.144
147.5621, 5210.725
148.0442, 5336.540
148.5263, 5452.230
149.0084, 5561.324
149.4906, 5661.213
149.9727, 5746.972
150.4548, 5818.756
150.9369, 5884.170
151.4190, 5956.359
151.9011, 6045.750
152.3833, 6121.452
152.8654, 6206.265
153.3475, 6266.447
153.8296, 6286.999
154.3117, 6260.319
154.7938, 6170.905
155.2760, 5987.782
155.7581, 5656.311
156.2402, 5300.825
156.7223, 4896.140
157.2044, 4485.328
157.6865, 4094.872
158.1687, 3737.484
158.6508, 3418.449
159.1329, 3154.904
159.6150, 2970.422
160.0971, 2819.815
160.5792, 2709.642
161.0614, 2629.071
161.5435, 2570.375
162.0256, 2530.658
162.5077, 2507.108
162.9898, 2493.749
163.4719, 2492.756
163.9541, 2500.766
164.4362, 2513.142
164.9183, 2536.050
165.4004, 2578.701
165.8825, 2645.360
166.3646, 2728.735
166.8468, 2811.677
167.3289, 2885.781
167.8110, 2969.701
168.2931, 3069.181
168.7752, 3178.225
169.2573, 3289.104
169.7395, 3399.192
170.2216, 3509.393
170.7037, 3623.068
171.1858, 3755.110
171.6679, 3871.221
172.1500, 3972.268
172.6322, 4053.675
173.1143, 4112.970
173.5964, 4151.198
174.0785, 4159.519
174.5606, 4107.608
175.0427, 3978.672
175.5249, 3823.428
176.0070, 3634.094
176.4891, 3427.071
176.9712, 3225.213
177.4533, 3038.338
177.9354, 2865.586
178.4176, 2711.464
178.8997, 2570.293
179.3818, 2450.261
179.8639, 2365.494
180.3460, 2302.472
180.8281, 2236.426
181.3103, 2155.546
181.7924, 2068.403
182.2745, 1998.870
182.7566, 1947.130
183.2387, 1906.908
183.7208, 1883.797
184.2030, 1870.846
184.6851, 1854.013
185.1672, 1826.464
185.6493, 1794.075
186.1314, 1772.672
186.6135, 1767.845
187.0957, 1761.313
187.5778, 1745.125
188.0599, 1723.565
188.5420, 1705.094
189.0241, 1693.276
189.5062, 1685.921
189.9884, 1678.277
190.4705, 1670.892
190.9526, 1662.418
191.4347, 1648.432
191.9168, 1633.309
192.3989, 1626.230
192.8811, 1631.437
193.3632, 1644.902
193.8453, 1658.562
194.3274, 1671.993
194.8095, 1686.573
195.2916, 1705.477
195.7738, 1725.646
196.2559, 1739.471
196.7380, 1742.464
197.2201, 1742.145
197.7022, 1754.914
198.1843, 1783.683
198.6665, 1812.366
199.1486, 1836.663
199.6307, 1857.485
200.1128, 1875.889
200.5949, 1891.075
201.0770, 1906.404
201.5592, 1928.545
202.0413, 1957.956
202.5234, 1989.271
203.0055, 2024.375
203.4876, 2059.831
203.9697, 2088.423
204.4519, 2106.879
204.9340, 2122.071
205.4161, 2147.067
205.8982, 2184.761
206.3803, 2216.513
206.8624, 2235.687
207.3446, 2246.622
207.8267, 2255.509
208.3088, 2263.884
208.7909, 2270.660
209.2730, 2272.697
209.7551, 2268.534
210.2373, 2268.783
210.7194, 2279.687
211.2015, 2294.885
211.6836, 2304.914
212.1657, 2307.286
212.6478, 2307.814
213.1300, 2313.112
213.6121, 2322.859
214.0942, 2338.499
214.5763, 2360.972
215.0584, 2389.217
215.5405, 2422.395
216.0227, 2460.510
216.5048, 2502.153
216.9869, 2544.808
217.4690, 2587.960
217.9511, 2639.410
218.4332, 2703.668
218.9154, 2774.781
219.3975, 2848.012
219.8796, 2922.657
220.3617, 2997.582
220.8438, 3068.354
221.3259, 3134.338
221.8081, 3220.265
222.2902, 3343.656
222.7723, 3476.234
223.2544, 3595.036
223.7365, 3698.665
224.2186, 3799.381
224.7008, 3904.849
225.1829, 4015.650
225.6650, 4143.536
226.1471, 4307.125
226.6292, 4472.192
227.1113, 4609.502
227.5935, 4721.789
228.0756, 4837.534
228.5577, 4980.393
229.0398, 5148.037
229.5219, 5293.680
230.0040, 5411.256
230.4862, 5515.182
230.9683, 5615.145
231.4504, 5708.658
231.9325, 5786.714
232.4146, 5845.001
232.8967, 5882.342
233.3789, 5893.996
233.8610, 5872.767
234.3431, 5839.347
234.8252, 5807.129
235.3073, 5768.627
235.7894, 5703.196
236.2716, 5596.536
236.7537, 5458.984
237.2358, 5333.867
237.7179, 5236.461
238.2000, 5131.438
238.6821, 5006.985
239.1643, 4870.824
239.6464, 4736.850
240.1285, 4611.693
240.6106, 4490.621
241.0927, 4360.988
241.5748, 4218.005
242.0570, 4072.808
242.5391, 3921.334
243.0212, 3769.760
243.5033, 3625.353
243.9854, 3490.590
244.4675, 3365.011
244.9497, 3248.337
245.4318, 3153.150
245.9139, 3047.332
246.3960, 2918.060
246.8781, 2786.488
247.3602, 2671.689
247.8424, 2578.139
248.3245, 2495.440
248.8066, 2408.096
249.2887, 2309.017
249.7708, 2225.266
250.2529, 2163.891
250.7351, 2110.386
251.2172, 2055.226
251.6993, 1998.182
252.1814, 1946.078
252.6635, 1907.736
253.1456, 1887.064
253.6278, 1861.398
254.1099, 1824.812
254.5920, 1789.386
255.0741, 1759.721
255.5562, 1735.899
256.0384, 1715.807
256.5205, 1697.597
257.0026, 1681.237
257.4847, 1669.458
257.9668, 1673.296
258.4489, 1670.736
258.9311, 1650.259
259.4132, 1619.628
259.8953, 1593.635
260.3774, 1582.511
260.8595, 1582.990
261.3416, 1576.695
261.8238, 1557.164
262.3059, 1539.156
262.7880, 1527.102
263.2701, 1517.930
263.7522, 1508.832
264.2343, 1499.098
264.7165, 1486.273
265.1986, 1462.401
265.6807, 1417.249
266.1628, 1382.756
266.6449, 1371.253
267.1270, 1368.501
267.6092, 1363.290
268.0913, 1352.218
268.5734, 1337.986
269.0555, 1324.478
269.5376, 1312.272
270.0197, 1298.152
270.5019, 1276.111
270.9840, 1255.589
271.4661, 1243.480
271.9482, 1240.376
272.4303, 1239.559
272.9124, 1234.038
273.3946, 1223.966
273.8767, 1218.381
274.3588, 1223.732
274.8409, 1227.677
275.3230, 1220.196
275.8051, 1203.117
276.2873, 1187.186
276.7694, 1180.235
277.2515, 1179.670
277.7336, 1176.321
278.2157, 1168.493
278.6978, 1160.334
279.1800, 1154.084
279.6621, 1149.605
280.1442, 1146.959
280.6263, 1148.170
281.1084, 1150.370
281.5905, 1148.483
282.0727, 1141.820
282.5548, 1136.327
283.0369, 1138.401
283.5190, 1143.532
284.0011, 1141.521
284.4832, 1126.904
284.9654, 1109.517
285.4475, 1096.427
285.9296, 1087.262
286.4117, 1079.512
286.8938, 1071.263
287.3759, 1064.683
287.8581, 1064.813
288.3402, 1074.846
288.8223, 1084.272
289.3044, 1088.944
289.7865, 1089.961
290.2686, 1088.991
290.7508, 1086.216
291.2329, 1083.007
291.7150, 1081.656
292.1971, 1082.605
292.6792, 1083.801
293.1613, 1088.138
293.6435, 1090.942
294.1256, 1083.426
294.6077, 1065.121
295.0898, 1050.180
295.5719, 1055.422
296.0540, 1086.660
296.5362, 1107.552
297.0183, 1112.291
297.5004, 1112.573
297.9825, 1113.734
298.4646, 1116.250
298.9467, 1118.659
299.4289, 1119.358
299.9110, 1118.731
300.3931, 1124.935
300.8752, 1146.052
301.3573, 1164.770
301.8394, 1176.005
302.3216, 1182.584
302.8037, 1188.852
303.2858, 1196.924
303.7679, 1206.460
304.2500, 1216.308
304.7321, 1224.681
305.2143, 1236.644
305.6964, 1255.842
306.1785, 1276.526
306.6606, 1293.482
307.1427, 1305.580
307.6248, 1316.049
308.1070, 1329.135
308.5891, 1345.293
309.0712, 1362.465
309.5533, 1380.484
310.0354, 1399.686
310.5175, 1421.003
310.9997, 1443.978
311.4818, 1466.799
311.9639, 1486.890
312.4460, 1504.863
312.9281, 1527.483
313.4102, 1556.167
313.8924, 1587.519
314.3745, 1619.622
314.8566, 1652.867
315.3387, 1688.585
315.8208, 1728.413
316.3029, 1770.006
316.7851, 1809.333
317.2672, 1845.861
317.7493, 1883.432
318.2314, 1923.969
318.7135, 1966.930
319.1956, 2011.131
319.6778, 2056.242
320.1599, 2103.355
320.6420, 2153.172
321.1241, 2205.922
321.6062, 2262.522
322.0883, 2323.193
322.5705, 2387.903
323.0526, 2456.503
323.5347, 2529.394
324.0168, 2604.156
324.4989, 2679.021
324.9810, 2755.836
325.4632, 2835.559
325.9453, 2918.529
326.4274, 3008.576
326.9095, 3110.672
327.3916, 3226.616
327.8737, 3338.635
328.3559, 3439.266
328.8380, 3542.112
329.3201, 3645.822
329.8022, 3756.520
330.2843, 3892.495
330.7664, 4067.107
331.2486, 4272.691
331.7307, 4467.224
332.2128, 4621.838
332.6949, 4798.790
333.1770, 5008.585
333.6591, 5243.675
334.1413, 5492.092
334.6234, 5750.544
335.1055, 6028.533
335.5876, 6342.856
336.0697, 6699.312
336.5518, 7084.937
337.0340, 7493.041
337.5161, 7933.389
337.9982, 8411.301
338.4803, 8927.926
338.9624, 9483.269
339.4445, 10079.23
339.9267, 10717.64
340.4088, 11379.73
340.8909, 12067.14
341.3730, 12779.18
341.8551, 13513.88
342.3372, 14269.44
342.8194, 15048.42
343.3015, 15860.82
343.7836, 16678.77
344.2657, 17459.30
344.7478, 18204.56
345.2299, 18900.18
345.7121, 19552.25
346.1942, 20134.51
346.6763, 20636.24
347.1584, 21069.75
347.6405, 21365.59
348.1227, 21471.14
348.6048, 21402.63
349.0869, 21209.44
349.5690, 20899.26
350.0511, 20476.87
350.5332, 19922.15
351.0154, 19240.71
351.4975, 18519.35
351.9796, 17750.30
352.4617, 16962.11
352.9438, 16172.18
353.4259, 15385.01
353.9081, 14624.68
354.3902, 13900.64
354.8723, 13214.90
355.3544, 12591.92
355.8365, 12040.53
356.3186, 11527.48
356.8008, 11037.50
357.2829, 10580.28
357.7650, 10166.99
358.2471, 9801.896
358.7292, 9482.405
359.2113, 9202.622
359.6935, 8987.667
360.1756, 8770.878
360.6577, 8548.699
361.1398, 8326.486
361.6219, 8106.395
362.1040, 7889.782
362.5862, 7679.457
363.0683, 7479.471
363.5504, 7288.461
364.0325, 7097.207
364.5146, 6902.132
364.9967, 6710.994
365.4789, 6520.690
365.9610, 6336.361
366.4431, 6168.823
366.9252, 6022.535
367.4073, 5892.483
367.8894, 5766.110
368.3716, 5641.991
368.8537, 5542.853
369.3358, 5483.802
369.8179, 5450.123
370.3000, 5421.482
370.7821, 5395.729
371.2643, 5389.684
371.7464, 5414.669
372.2285, 5465.564
372.7106, 5536.583
373.1927, 5629.319
373.6748, 5725.430
374.1570, 5804.172
374.6391, 5866.813
375.1212, 5953.153
375.6033, 6090.833
376.0854, 6228.844
376.5675, 6337.798
377.0497, 6421.807
377.5318, 6500.649
378.0139, 6587.595
378.4960, 6669.143
378.9781, 6703.987
379.4602, 6673.538
379.9424, 6615.449
380.4245, 6541.618
380.9066, 6433.917
381.3887, 6268.870
381.8708, 6045.811
382.3529, 5791.669
382.8351, 5531.240
383.3172, 5263.957
383.7993, 4999.760
384.2814, 4733.087
384.7635, 4476.096
385.2456, 4232.373
385.7278, 4002.195
386.2099, 3785.454
386.6920, 3580.381
387.1741, 3389.409
387.6562, 3216.407
388.1383, 3061.527
388.6205, 2923.776
389.1026, 2809.975
389.5847, 2710.181
390.0668, 2615.715
390.5489, 2526.126
391.0310, 2443.637
391.5132, 2368.445
391.9953, 2301.793
392.4774, 2249.206
392.9595, 2213.132
393.4416, 2182.081
393.9237, 2147.133
394.4059, 2108.204
394.8880, 2068.203
395.3701, 2022.623
395.8522, 1980.441
396.3343, 1947.480
396.8164, 1922.080
397.2986, 1900.573
397.7807, 1881.542
398.2628, 1863.439
398.7449, 1842.380
399.2270, 1814.348
399.7091, 1789.233
400.1913, 1767.692
400.6734, 1748.390
401.1555, 1731.110
401.6376, 1715.212
402.1197, 1698.884
402.6018, 1679.758
403.0840, 1657.896
403.5661, 1640.515
404.0482, 1631.205
404.5303, 1621.590
405.0124, 1608.433
405.4945, 1593.614
405.9767, 1579.738
406.4588, 1567.688
406.9409, 1557.029
407.4230, 1546.854
407.9051, 1537.166
408.3872, 1529.886
408.8694, 1525.183
409.3515, 1523.629
409.8336, 1527.717
410.3157, 1537.028
410.7978, 1542.120
411.2799, 1534.288
411.7621, 1523.602
412.2442, 1522.398
412.7263, 1530.916
413.2084, 1541.708
413.6905, 1549.743
414.1726, 1556.216
414.6548, 1568.375
415.1369, 1592.046
415.6190, 1612.984
416.1011, 1624.281
416.5832, 1633.111
417.0653, 1649.647
417.5475, 1675.861
418.0296, 1703.066
418.5117, 1718.585
418.9938, 1717.268
419.4759, 1729.885
419.9580, 1773.286
420.4402, 1814.161
420.9223, 1837.967
421.4044, 1851.535
421.8865, 1868.499
422.3686, 1896.059
422.8507, 1930.258
423.3329, 1965.224
423.8150, 2002.161
424.2971, 2032.292
424.7792, 2047.681
425.2613, 2059.228
425.7434, 2077.859
426.2256, 2103.935
426.7077, 2130.015
427.1898, 2156.102
427.6719, 2178.331
428.1540, 2185.010
428.6361, 2174.964
429.1183, 2173.777
429.6004, 2203.264
430.0825, 2257.571
430.5646, 2296.132
431.0467, 2302.448
431.5288, 2314.501
432.0110, 2346.532
432.4931, 2389.437
432.9752, 2432.232
433.4573, 2471.367
433.9394, 2507.330
434.4215, 2540.463
434.9037, 2569.525
435.3858, 2600.891
435.8679, 2639.417
436.3500, 2675.537
436.8321, 2701.148
437.3142, 2722.375
437.7964, 2752.448
438.2785, 2800.910
438.7606, 2855.181
439.2427, 2888.933
439.7248, 2898.213
440.2069, 2915.766
440.6891, 2959.586
441.1712, 3006.890
441.6533, 3033.985
442.1354, 3040.663
442.6175, 3046.300
443.0996, 3063.018
443.5818, 3081.572
444.0639, 3090.017
444.5460, 3087.596
445.0281, 3076.611
445.5102, 3055.468
445.9923, 3027.929
446.4745, 3013.250
446.9566, 3029.065
447.4387, 3033.251
447.9208, 3009.998
448.4029, 2976.018
448.8850, 2947.552
449.3672, 2928.655
449.8493, 2915.649
450.3314, 2905.844
450.8135, 2899.859
451.2956, 2888.369
451.7777, 2869.219
452.2599, 2846.862
452.7420, 2820.923
453.2241, 2793.364
453.7062, 2765.964
454.1883, 2738.698
454.6704, 2714.765
455.1526, 2702.862
455.6347, 2701.272
456.1168, 2685.109
456.5989, 2641.875
457.0811, 2595.299
457.5632, 2572.171
458.0453, 2568.733
458.5274, 2563.632
459.0095, 2555.507
459.4916, 2541.655
459.9738, 2513.587
460.4559, 2477.078
460.9380, 2451.841
461.4201, 2448.369
461.9022, 2456.537
462.3843, 2453.232
462.8665, 2426.840
463.3486, 2409.245
463.8307, 2408.204
464.3128, 2408.964
464.7949, 2400.859
465.2770, 2385.603
465.7592, 2371.924
466.2413, 2366.094
466.7234, 2366.540
467.2055, 2368.158
467.6876, 2371.393
468.1697, 2374.507
468.6519, 2377.296
469.1340, 2379.470
469.6161, 2380.598
470.0982, 2380.590
470.5803, 2380.311
471.0624, 2381.339
471.5446, 2382.020
472.0267, 2378.767
472.5088, 2371.226
472.9909, 2363.749
473.4730, 2360.384
473.9551, 2359.552
474.4373, 2350.971
474.9194, 2333.829
475.4015, 2311.532
475.8836, 2278.400
476.3657, 2243.712
476.8478, 2219.488
477.3300, 2206.833
477.8121, 2195.635
478.2942, 2175.958
478.7763, 2147.642
479.2584, 2112.214
479.7405, 2064.592
480.2227, 2016.791
480.7048, 1973.943
481.1869, 1932.672
481.6690, 1888.141
482.1511, 1837.932
482.6332, 1789.687
483.1154, 1752.480
483.5975, 1723.617
484.0796, 1693.276
484.5617, 1659.946
485.0438, 1624.167
485.5259, 1584.990
486.0081, 1542.812
486.4902, 1504.985
486.9723, 1473.145
487.4544, 1444.149
487.9365, 1418.594
488.4186, 1394.439
488.9008, 1367.808
489.3829, 1337.646
489.8650, 1307.514
490.3471, 1282.443
490.8292, 1263.285
491.3113, 1245.528
491.7935, 1232.474
492.2756, 1217.261
492.7577, 1194.471
493.2398, 1168.740
493.7219, 1148.493
494.2040, 1138.339
494.6862, 1130.073
495.1683, 1112.229
495.6504, 1086.148
496.1325, 1063.497
496.6146, 1046.547
497.0967, 1033.642
497.5789, 1024.365
498.0610, 1018.407
498.5431, 1012.114
499.0252, 1008.393
499.5073, 1001.054
499.9894, 983.9827
500.4716, 961.1412
500.9537, 939.0427
501.4358, 920.2183
501.9179, 906.6446
502.4000, 902.7888
502.8821, 913.3600
503.3643, 917.4614
503.8464, 910.7852
504.3285, 901.7038
504.8106, 892.1306
505.2927, 882.4533
505.7748, 872.8166
506.2570, 863.3451
506.7391, 853.9108
507.2212, 843.0154
507.7033, 831.1335
508.1854, 825.0248
508.6675, 828.0602
509.1497, 833.1138
509.6318, 833.4692
510.1139, 829.2158
510.5960, 821.8538
511.0781, 807.2344
511.5602, 793.7718
512.0424, 785.9230
512.5245, 782.5618
513.0066, 782.2290
513.4887, 784.2791
513.9708, 786.4696
514.4529, 784.9557
514.9351, 778.3408
515.4172, 773.8010
515.8993, 773.8748
516.3814, 773.4355
516.8635, 770.8816
517.3456, 766.4941
517.8278, 760.4497
518.3099, 752.0826
518.7920, 744.3231
519.2741, 740.6190
519.7562, 740.4084
520.2383, 741.6989
520.7205, 745.1672
521.2026, 745.9937
521.6847, 737.7019
522.1668, 720.2824
522.6489, 709.8000
523.1310, 711.8038
523.6132, 714.6500
524.0953, 713.2817
524.5774, 710.0181
525.0595, 709.0840
525.5416, 711.5304
526.0237, 713.7524
526.5059, 710.2565
526.9880, 700.2397
527.4701, 695.5745
527.9522, 701.3707
528.4343, 705.0835
528.9164, 701.7731
529.3986, 693.6439
529.8807, 682.4872
530.3628, 667.3036
530.8449, 654.9772
531.3270, 652.4099
531.8091, 656.2205
532.2913, 658.7291
532.7734, 658.7083
533.2555, 659.7323
533.7376, 665.6901
534.2197, 675.5264
534.7018, 678.4721
535.1840, 664.0747
535.6661, 656.7643
536.1482, 667.5778
536.6303, 682.8807
537.1124, 689.6888
537.5945, 686.2168
538.0767, 678.3386
538.5588, 669.6424
539.0409, 661.0069
539.5230, 656.6915
540.0051, 657.0953
540.4872, 660.8768
540.9694, 672.9492
541.4515, 684.6459
541.9336, 682.7930
542.4157, 664.4416
542.8978, 650.6269
543.3799, 654.2948
543.8621, 662.9024
544.3442, 661.8459
544.8263, 652.2842
545.3084, 644.8798
545.7905, 645.9266
546.2726, 652.4178
546.7548, 656.3587
547.2369, 658.3101
547.7190, 656.4037
548.2011, 645.1333
548.6832, 635.2247
549.1653, 633.6810
549.6475, 638.6656
550.1296, 644.3730
550.6117, 649.1938
551.0938, 651.2087
551.5759, 644.3492
552.0580, 630.1299
552.5402, 624.1819
553.0223, 632.7028
553.5044, 645.0219
553.9865, 649.5051
554.4686, 645.1656
554.9507, 640.4191
555.4329, 631.5764
555.9150, 626.3530
556.3971, 631.4772
556.8792, 641.0561
557.3613, 646.5786
557.8434, 645.3586
558.3256, 640.2156
558.8077, 632.8639
559.2898, 623.1918
559.7719, 620.3822
560.2540, 628.8229
560.7361, 635.8028
561.2183, 632.6901
561.7004, 625.3193
562.1825, 621.2203
562.6646, 621.9574
563.1467, 623.5869
563.6288, 625.5322
564.1110, 626.5580
564.5931, 623.6921
565.0752, 617.4307
565.5573, 613.0015
566.0394, 614.2119
566.5215, 619.3908
567.0037, 622.1082
567.4858, 620.5940
567.9679, 619.7059
568.4500, 618.5728
568.9321, 619.1147
569.4142, 622.9870
569.8964, 629.7175
570.3785, 637.6849
570.8606, 647.6949
571.3427, 656.5652
571.8248, 658.6382
572.3069, 654.7983
572.7891, 650.7853
573.2712, 647.6841
573.7533, 646.8600
574.2354, 650.7122
574.7175, 660.1514
575.1996, 666.2610
575.6818, 667.0682
576.1639, 667.0040
576.6460, 669.1993
577.1281, 670.7545
577.6102, 665.8393
578.0923, 653.6845
578.5745, 642.5602
579.0566, 642.6619
579.5387, 652.5941
580.0208, 660.8260
580.5029, 667.7492
580.9850, 671.2963
581.4672, 667.2931
581.9493, 660.9982
582.4314, 662.3956
582.9135, 673.8969
583.3956, 684.2656
583.8777, 689.2166
584.3599, 692.5109
584.8420, 698.0082
585.3241, 704.9484
585.8062, 709.3423
586.2883, 708.7706
586.7704, 706.5286
587.2526, 710.9202
587.7347, 725.1025
588.2168, 733.2914
588.6989, 729.7631
589.1810, 725.1968
589.6631, 726.2231
590.1453, 730.6192
590.6274, 732.8364
591.1095, 729.4625
591.5916, 727.1270
592.0737, 730.6896
592.5558, 738.3860
593.0380, 748.1282
593.5201, 759.1628
594.0022, 768.1924
594.4843, 771.7532
594.9664, 770.9719
595.4485, 775.3528
595.9307, 791.3129
596.4128, 802.0439
596.8949, 797.6590
597.3770, 793.7901
597.8591, 805.6406
598.3412, 830.7170
598.8234, 851.0563
599.3055, 854.5688
599.7876, 849.6636
600.2697, 844.0791
600.7518, 839.0652
601.2339, 843.1634
601.7161, 860.4904
602.1982, 879.7862
602.6803, 886.2676
603.1624, 877.2247
603.6445, 877.6376
604.1266, 899.9314
604.6088, 915.9501
605.0909, 912.7199
605.5730, 902.2697
606.0551, 899.0527
606.5372, 905.8328
607.0193, 914.1187
607.5015, 915.5806
607.9836, 913.1048
608.4657, 914.1550
608.9478, 918.8439
609.4299, 927.8221
609.9120, 943.0994
610.3942, 960.4329
610.8763, 972.1047
611.3584, 976.3646
611.8405, 980.2401
612.3226, 983.9758
612.8047, 987.2888
613.2869, 988.1799
613.7690, 989.0817
614.2511, 994.7422
614.7332, 1006.930
615.2153, 1020.613
615.6974, 1030.351
616.1796, 1036.373
616.6617, 1039.507
617.1438, 1038.979
617.6259, 1038.993
618.1080, 1040.617
618.5901, 1045.029
619.0723, 1056.134
619.5544, 1078.640
620.0365, 1095.274
620.5186, 1099.773
621.0007, 1100.239
621.4828, 1099.512
621.9650, 1099.946
622.4471, 1105.964
622.9292, 1120.057
623.4113, 1137.666
623.8934, 1151.788
624.3755, 1162.427
624.8577, 1171.171
625.3398, 1176.103
625.8219, 1184.208
626.3040, 1200.942
626.7861, 1224.490
627.2682, 1248.731
627.7504, 1277.711
628.2325, 1300.212
628.7146, 1304.458
629.1967, 1307.272
629.6788, 1327.476
630.1609, 1361.415
630.6431, 1390.171
631.1252, 1401.787
631.6073, 1405.100
632.0894, 1418.118
632.5715, 1441.473
633.0536, 1466.479
633.5358, 1494.370
634.0179, 1519.177
634.5000, 1532.014
634.9821, 1538.075
635.4642, 1554.369
635.9464, 1586.335
636.4285, 1622.002
636.9106, 1660.507
637.3927, 1698.733
637.8748, 1734.637
638.3569, 1767.563
638.8391, 1795.778
639.3212, 1817.028
639.8033, 1836.793
640.2854, 1869.635
640.7675, 1917.346
641.2496, 1962.036
641.7318, 1998.617
642.2139, 2034.935
642.6960, 2076.764
643.1781, 2123.376
643.6602, 2171.640
644.1423, 2220.782
644.6245, 2272.309
645.1066, 2328.316
645.5887, 2386.037
646.0708, 2441.078
646.5529, 2494.165
647.0350, 2550.286
647.5172, 2612.882
647.9993, 2680.548
648.4814, 2749.333
648.9635, 2818.868
649.4456, 2891.136
649.9277, 2967.405
650.4099, 3044.689
650.8920, 3115.343
651.3741, 3183.770
651.8562, 3271.509
652.3383, 3397.553
652.8204, 3519.693
653.3026, 3621.739
653.7847, 3716.550
654.2668, 3814.073
654.7489, 3916.986
655.2310, 4027.771
655.7131, 4148.074
656.1953, 4275.784
656.6774, 4404.737
657.1595, 4534.595
657.6416, 4678.899
658.1237, 4846.677
658.6058, 5015.343
659.0880, 5162.654
659.5701, 5293.619
660.0522, 5443.021
660.5343, 5623.960
661.0164, 5806.485
661.4985, 5981.235
661.9807, 6158.047
662.4628, 6351.435
662.9449, 6556.715
663.4270, 6755.799
663.9091, 6937.068
664.3912, 7107.029
664.8734, 7271.495
665.3555, 7432.102
665.8376, 7609.730
666.3197, 7813.719
666.8018, 8009.421
667.2839, 8168.721
667.7661, 8297.544
668.2482, 8428.749
668.7303, 8579.723
669.2124, 8708.224
669.6945, 8810.684
670.1766, 8888.744
670.6588, 8938.154
671.1409, 8964.261
671.6230, 8982.429
672.1051, 9002.726
672.5872, 9006.813
673.0693, 8966.727
673.5515, 8890.853
674.0336, 8812.730
674.5157, 8736.928
674.9978, 8649.843
675.4799, 8541.597
675.9620, 8416.097
676.4442, 8289.684
676.9263, 8170.632
677.4084, 8036.175
677.8905, 7886.538
678.3726, 7722.729
678.8547, 7535.565
679.3369, 7337.313
679.8190, 7149.876
680.3011, 6980.776
680.7832, 6821.880
681.2653, 6665.877
681.7474, 6515.523
682.2296, 6381.647
682.7117, 6262.180
683.1938, 6136.813
683.6759, 5993.243
684.1580, 5841.774
684.6401, 5698.476
685.1223, 5554.024
685.6044, 5452.606
686.0865, 5432.629
686.5686, 5408.524
687.0507, 5341.688
687.5328, 5253.482
688.0150, 5169.698
688.4971, 5092.702
688.9792, 5031.479
689.4613, 4996.098
689.9434, 4973.969
690.4255, 4956.755
690.9077, 4941.699
691.3898, 4919.399
691.8719, 4886.532
692.3540, 4863.046
692.8361, 4882.047
693.3182, 4943.339
693.8004, 4978.749
694.2825, 4974.764
694.7646, 4983.120
695.2467, 5029.452
695.7288, 5093.267
696.2109, 5144.949
696.6931, 5183.280
697.1752, 5232.720
697.6573, 5298.903
698.1394, 5375.019
698.6215, 5461.365
699.1036, 5553.889
699.5858, 5644.776
700.0679, 5733.942
700.5500, 5833.559
701.0321, 5954.224
701.5142, 6091.621
701.9963, 6231.930
702.4785, 6375.442
702.9606, 6538.233
703.4427, 6726.152
703.9248, 6929.906
704.4069, 7140.749
704.8890, 7358.081
705.3712, 7587.764
705.8533, 7826.806
706.3354, 8082.626
706.8175, 8348.891
707.2996, 8639.555
707.7817, 8971.630
708.2639, 9340.347
708.7460, 9718.458
709.2281, 10094.86
709.7102, 10474.37
710.1923, 10855.21
710.6744, 11243.39
711.1566, 11658.49
711.6387, 12100.97
712.1208, 12552.17
712.6029, 12999.38
713.0850, 13446.57
713.5671, 13916.72
714.0493, 14418.21
714.5314, 14912.67
715.0135, 15389.70
715.4956, 15872.05
715.9777, 16354.08
716.4598, 16855.40
716.9420, 17411.53
717.4241, 18033.07
717.9062, 18683.20
718.3883, 19337.25
718.8704, 20025.30
719.3525, 20764.69
719.8347, 21562.10
720.3168, 22416.32
720.7989, 23331.20
721.2810, 24309.44
721.7631, 25347.65
722.2452, 26451.39
722.7274, 27660.08
723.2095, 28970.02
723.6916, 30354.35
724.1737, 31796.14
724.6558, 33311.05
725.1379, 34919.62
725.6201, 36636.25
726.1022, 38363.09
726.5843, 40077.46
727.0664, 41830.02
727.5485, 43701.49
728.0306, 45573.18
728.5128, 47372.71
728.9949, 49078.51
729.4770, 50698.32
729.9591, 52261.04
730.4412, 53708.51
730.9233, 55027.66
731.4055, 56173.40
731.8876, 57063.03
732.3697, 57675.56
732.8518, 57999.95
733.3339, 58036.78
733.8160, 57759.47
734.2982, 57066.39
734.7803, 55915.13
735.2624, 54522.78
735.7445, 52906.73
736.2266, 51058.43
736.7087, 48880.29
737.1909, 46482.29
737.6730, 44077.35
738.1551, 41650.33
738.6372, 39274.64
739.1193, 36943.34
739.6014, 34677.60
740.0836, 32459.34
740.5657, 30317.50
741.0478, 28342.21
741.5299, 26560.93
742.0120, 24921.75
742.4941, 23383.87
742.9763, 21948.86
743.4584, 20609.85
743.9405, 19369.27
744.4226, 18226.31
744.9047, 17186.43
745.3868, 16242.23
745.8690, 15386.52
746.3511, 14620.61
746.8332, 13905.82
747.3153, 13247.46
747.7974, 12629.07
748.2795, 12034.38
748.7617, 11482.57
749.2438, 10989.97
749.7259, 10552.23
750.2080, 10143.39
750.6901, 9755.324
751.1722, 9390.463
751.6544, 9041.500
752.1365, 8720.988
752.6186, 8452.695
753.1007, 8228.023
753.5828, 8015.886
754.0649, 7799.117
754.5471, 7584.534
755.0292, 7377.465
755.5113, 7180.662
755.9934, 7011.123
756.4755, 6872.214
756.9576, 6750.283
757.4398, 6637.806
757.9219, 6539.973
758.4040, 6465.834
758.8861, 6420.407
759.3682, 6380.721
759.8503, 6353.146
760.3325, 6323.996
760.8146, 6292.882
761.2967, 6256.317
761.7788, 6204.279
762.2609, 6138.645
762.7430, 6087.465
763.2252, 6080.018
763.7073, 6072.432
764.1894, 6034.606
764.6715, 5975.096
765.1536, 5906.574
765.6357, 5831.346
766.1179, 5749.281
766.6000, 5661.811
767.0821, 5562.497
767.5642, 5434.434
768.0463, 5279.346
768.5284, 5125.936
769.0106, 4980.728
769.4927, 4825.014
769.9748, 4642.808
770.4569, 4449.053
770.9390, 4277.927
771.4211, 4139.738
771.9033, 4000.677
772.3854, 3858.428
772.8675, 3717.349
773.3496, 3573.361
773.8317, 3433.639
774.3138, 3307.545
774.7960, 3196.374
775.2781, 3089.978
775.7602, 2987.103
776.2423, 2884.984
776.7244, 2776.850
777.2065, 2670.180
777.6887, 2574.722
778.1708, 2492.792
778.6529, 2423.580
779.1350, 2368.664
779.6171, 2320.277
780.0992, 2258.953
780.5814, 2186.538
781.0635, 2128.710
781.5456, 2091.528
782.0277, 2053.384
782.5098, 1998.913
782.9919, 1935.438
783.4741, 1882.934
783.9562, 1842.393
784.4383, 1810.456
784.9204, 1800.018
785.4025, 1782.689
785.8846, 1743.187
786.3668, 1694.528
786.8489, 1652.578
787.3310, 1619.169
787.8131, 1586.387
788.2952, 1549.043
788.7773, 1514.711
789.2595, 1487.512
789.7416, 1466.639
790.2237, 1454.538
790.7058, 1448.529
791.1879, 1435.441
791.6700, 1403.968
792.1522, 1366.171
792.6343, 1343.942
793.1164, 1332.755
793.5985, 1311.262
794.0806, 1276.850
794.5627, 1248.205
795.0449, 1237.875
795.5270, 1236.907
796.0091, 1225.712
796.4912, 1202.107
796.9733, 1177.714
797.4554, 1149.754
797.9376, 1126.370
798.4197, 1114.386
798.9018, 1106.257
799.3839, 1092.040
799.8660, 1071.535
800.3481, 1053.042
800.8303, 1036.925
801.3124, 1024.042
801.7945, 1016.285
802.2766, 1010.860
802.7587, 1006.852
803.2408, 1002.700
803.7230, 994.4204
804.2051, 979.4385
804.6872, 961.7521
805.1693, 941.8459
805.6514, 923.2838
806.1335, 915.7590
806.6157, 916.9365
807.0978, 910.7727
807.5799, 889.5046
808.0620, 866.4455
808.5441, 864.3231
809.0262, 880.7465
809.5084, 879.8754
809.9905, 858.9495
810.4726, 837.9116
810.9547, 820.7836
811.4368, 811.3171
811.9189, 817.3328
812.4011, 837.1747
812.8832, 840.1697
813.3653, 809.7010
813.8474, 787.0090
814.3295, 779.2084
814.8116, 776.0130
815.2938, 773.4919
815.7759, 770.5497
816.2580, 765.4495
816.7401, 757.4684
817.2222, 748.9023
817.7043, 740.4721
818.1865, 732.0886
818.6686, 722.0411
819.1507, 712.6081
819.6328, 709.9866
820.1149, 714.5313
820.5970, 715.2951
821.0792, 699.1267
821.5613, 677.4697
822.0434, 672.5748
822.5255, 679.7561
823.0076, 681.0137
823.4897, 672.9506
823.9719, 660.9462
824.4540, 648.0726
824.9361, 636.0809
825.4182, 630.4099
825.9003, 632.2228
826.3824, 631.3924
826.8646, 626.6696
827.3467, 621.4622
827.8289, 616.8982
828.3110, 613.1875
828.7931, 611.5326
829.2752, 613.0298
829.7573, 609.0478
830.2394, 592.5203
830.7216, 580.0537
831.2037, 577.2165
831.6858, 578.2195
832.1679, 579.8917
832.6500, 581.1383
833.1321, 580.0652
833.6143, 576.6774
834.0964, 569.6254
834.5785, 550.9807
835.0606, 534.0777
835.5427, 536.3859
836.0248, 550.7572
836.5070, 558.8328
836.9891, 554.3472
837.4712, 545.2712
837.9533, 538.4093
838.4354, 532.7275
838.9175, 524.7430
839.3997, 515.8561
839.8818, 513.0344
840.3639, 517.7512
840.8460, 522.9044
841.3281, 522.6580
841.8102, 518.6207
842.2924, 515.6888
842.7745, 514.1999
843.2566, 510.4316
843.7387, 503.1594
844.2208, 496.5809
844.7029, 493.2512
845.1851, 491.2747
845.6672, 487.1930
846.1493, 480.4139
846.6314, 474.7692
847.1135, 470.6327
847.5956, 467.1586
848.0778, 463.5129
848.5599, 461.0087
849.0420, 461.9877
849.5241, 465.2843
850.0062, 465.8955
850.4883, 461.0081
850.9705, 456.5438
851.4526, 456.3219
851.9347, 455.8704
852.4168, 450.5542
852.8989, 442.5738
853.3810, 436.6537
853.8632, 434.1653
854.3453, 432.3546
854.8274, 429.6111
855.3095, 426.0724
855.7916, 420.6996
856.2737, 414.9168
856.7559, 412.2586
857.2380, 413.1324
857.7201, 415.6778
858.2022, 419.1193
858.6843, 421.2468
859.1664, 416.3882
859.6486, 405.6522
860.1307, 398.1663
860.6128, 394.6857
861.0949, 392.2662
861.5770, 389.4696
862.0591, 387.6357
862.5413, 388.9364
863.0234, 393.3358
863.5055, 396.6985
863.9876, 399.8398
864.4697, 399.4950
864.9518, 393.2581
865.4340, 385.8848
865.9161, 380.9116
866.3982, 377.6931
866.8803, 373.7704
867.3624, 366.9340
867.8445, 363.9909
868.3267, 370.9108
868.8088, 375.1813
869.2909, 366.6376
869.7730, 355.4442
870.2551, 356.6268
870.7372, 370.5038
871.2194, 378.2972
871.7015, 368.5685
872.1836, 357.1434
872.6657, 350.9681
873.1478, 347.7269
873.6299, 345.8925
874.1121, 344.6084
874.5942, 342.0541
875.0763, 337.2428
875.5584, 333.9920
876.0405, 338.7798
876.5226, 344.9441
877.0048, 341.1193
877.4869, 330.7523
877.9690, 323.5400
878.4511, 322.0014
878.9332, 323.5752
879.4153, 326.9011
879.8975, 330.3513
880.3796, 329.7602
880.8617, 325.9233
881.3438, 323.6641
881.8259, 323.5161
882.3080, 324.0440
882.7902, 324.7564
883.2723, 324.4688
883.7544, 320.7763
884.2365, 313.7743
884.7186, 310.7455
885.2007, 313.0892
885.6829, 313.1577
886.1650, 308.0001
886.6471, 302.7238
887.1292, 302.2834
887.6113, 304.8109
888.0934, 302.7224
888.5756, 290.6071
889.0577, 285.5332
889.5398, 293.3109
890.0219, 300.8025
890.5040, 304.1732
890.9861, 304.2640
891.4683, 300.6293
891.9504, 293.4792
892.4325, 289.0996
892.9146, 290.8507
893.3967, 292.0909
893.8788, 291.5611
894.3610, 289.4919
894.8431, 285.3961
895.3252, 280.0921
895.8073, 274.6345
896.2894, 268.9933
896.7715, 265.9398
897.2537, 269.0195
897.7358, 272.9515
898.2179, 274.9766
898.7000, 274.6819
899.1821, 270.6959
899.6642, 263.7987
900.1464, 257.1955
900.6285, 252.0254
901.1106, 249.8517
901.5927, 254.7658
902.0748, 262.3148
902.5569, 265.0611
903.0391, 263.6702
903.5212, 262.7031
904.0033, 263.5552
904.4854, 262.8842
904.9675, 255.9156
905.4496, 246.8961
905.9318, 247.6579
906.4139, 255.6657
906.8960, 257.1034
907.3781, 250.3014
907.8602, 244.2604
908.3423, 244.2222
908.8245, 247.0307
909.3066, 247.0458
909.7887, 244.5419
910.2708, 246.2181
910.7529, 252.9387
911.2350, 254.7489
911.7172, 247.8618
912.1993, 240.1590
912.6814, 238.7490
913.1635, 241.5290
913.6456, 240.7117
914.1277, 235.3268
914.6099, 229.4276
915.0920, 220.9493
915.5741, 217.0166
916.0562, 223.1495
916.5383, 232.2355
917.0204, 235.2741
917.5026, 232.3083
917.9847, 230.4200
918.4668, 228.7191
918.9489, 229.5006
919.4310, 238.7243
919.9131, 244.3890
920.3953, 235.7585
920.8774, 221.0750
921.3595, 215.8215
921.8416, 222.9417
922.3237, 225.6575
922.8058, 215.1633
923.2880, 208.2657
923.7701, 213.0778
924.2522, 221.6317
924.7343, 228.7281
925.2164, 233.4267
925.6985, 234.8680
926.1807, 231.9589
926.6628, 228.8643
927.1449, 226.5153
927.6270, 225.2135
928.1091, 225.8817
928.5912, 227.2977
929.0734, 227.7223
929.5555, 227.1119
930.0376, 226.9543
930.5197, 228.5946
931.0018, 229.5405
931.4839, 226.4967
931.9661, 222.9618
932.4482, 223.9252
932.9303, 227.3987
933.4124, 228.1291
933.8945, 224.8430
934.3766, 221.1357
934.8588, 220.0568
935.3409, 219.5737
935.8230, 216.8095
936.3051, 213.0234
936.7872, 210.3131
937.2693, 208.9267
937.7515, 208.3668
938.2336, 208.4140
938.7157, 209.7505
939.1978, 215.1222
939.6799, 221.4464
940.1620, 221.5384
940.6442, 216.5005
941.1263, 208.3705
941.6084, 198.4485
942.0905, 193.8459
942.5726, 199.3895
943.0547, 209.5518
943.5369, 216.9932
944.0190, 221.1908
944.5011, 217.7278
944.9832, 207.2268
945.4653, 198.9027
945.9474, 195.3262
946.4296, 194.7217
946.9117, 195.7767
947.3938, 198.2482
947.8759, 201.9600
948.3580, 206.8691
948.8401, 210.7193
949.3223, 213.5550
949.8044, 212.5890
950.2865, 205.9873
950.7686, 199.1634
951.2507, 198.6200
951.7328, 202.7138
952.2150, 201.3349
952.6971, 193.0165
953.1792, 189.3972
953.6613, 192.9181
954.1434, 196.4141
954.6255, 196.6933
955.1077, 194.5647
955.5898, 190.5168
956.0719, 184.6186
956.5540, 183.4238
957.0361, 188.5119
957.5182, 193.7224
958.0004, 199.2342
958.4825, 202.4327
958.9646, 201.0761
959.4467, 197.0243
959.9288, 193.5493
960.4109, 190.4953
960.8931, 189.2298
961.3752, 190.3627
961.8573, 192.1490
962.3394, 194.4783
962.8215, 197.1281
963.3036, 201.1390
963.7858, 204.9945
964.2679, 204.3825
964.7500, 197.5773
965.2321, 191.8687
965.7142, 186.0920
966.1964, 183.0334
966.6785, 185.5627
967.1606, 189.1669
967.6427, 189.9899
968.1248, 188.9098
968.6069, 189.2553
969.0891, 192.2116
969.5712, 194.0519
970.0533, 193.9160
970.5354, 193.4838
971.0175, 194.0038
971.4996, 193.9711
971.9818, 191.0066
972.4639, 185.9133
972.9460, 183.0667
973.4281, 184.1761
973.9102, 185.2248
974.3923, 186.5113
974.8745, 186.6329
975.3566, 181.6384
975.8387, 177.3068
976.3208, 183.2723
976.8029, 197.9967
977.2850, 204.7712
977.7672, 195.9556
978.2493, 186.2552
978.7314, 175.1234
979.2135, 168.1143
979.6956, 171.5094
980.1777, 179.2185
980.6599, 182.3814
981.1420, 180.4744
981.6241, 180.5595
982.1062, 189.3124
982.5883, 193.5928
983.0704, 183.6909
983.5526, 173.8353
984.0347, 176.1235
984.5168, 183.9846
984.9989, 185.5777
985.4810, 179.4063
985.9631, 174.9356
986.4453, 177.3948
986.9274, 179.2763
987.4095, 177.4413
987.8916, 174.1306
988.3737, 170.5409
988.8558, 166.9997
989.3380, 163.0188
989.8201, 158.5815
990.3022, 157.4495
990.7843, 165.5846
991.2664, 171.4933
991.7485, 168.6012
992.2307, 162.4943
992.7128, 155.1757
993.1949, 149.4424
993.6770, 150.7249
994.1591, 160.3193
994.6412, 169.2956
995.1234, 173.6272
995.6055, 176.7800
996.0876, 182.1114
996.5697, 185.7775
997.0518, 182.0620
997.5339, 174.2188
998.0161, 169.7402
998.4982, 170.5134
998.9803, 173.2840
999.4624, 179.1817
999.9445, 183.5812
1000.427, 183.0079
1000.909, 180.4743
1001.391, 179.0186
1001.873, 178.1199
1002.355, 175.2417
1002.837, 169.4781
1003.319, 165.6290
1003.801, 166.6420
1004.284, 169.1571
1004.766, 172.3875
1005.248, 175.2735
1005.730, 177.1796
1006.212, 177.8067
1006.694, 175.8811
1007.176, 170.6531
1007.658, 168.0635
1008.141, 174.5316
1008.623, 179.8142
1009.105, 175.4501
1009.587, 169.1832
1010.069, 169.5869
1010.551, 174.7667
1011.033, 178.4005
1011.515, 178.8864
1011.997, 177.4565
1012.480, 172.0328
1012.962, 167.9777
1013.444, 169.5042
1013.926, 172.6757
1014.408, 173.9872
1014.890, 173.4940
1015.372, 171.8416
1015.854, 168.8181
1016.336, 168.0346
1016.819, 174.7955
1017.301, 179.2804
1017.783, 175.4427
1018.265, 168.0959
1018.747, 158.6631
1019.229, 150.2107
1019.711, 149.4706
1020.193, 158.7662
1020.676, 167.3506
1021.158, 175.0083
1021.640, 176.8947
1022.122, 163.7699
1022.604, 150.2419
1023.086, 152.3978
1023.568, 163.4992
1024.050, 165.3396
1024.532, 153.2769
1025.015, 144.7451
1025.497, 146.3632
1025.979, 149.7986
1026.461, 154.9023
1026.943, 157.9332
1027.425, 152.6864
1027.907, 144.2297
1028.389, 144.4505
1028.871, 156.2233
1029.354, 164.2672
1029.836, 162.8241
1030.318, 161.0681
1030.800, 163.4103
1031.282, 164.6014
1031.764, 156.9807
1032.246, 146.9671
1032.728, 149.1588
1033.211, 166.6727
1033.693, 175.9693
1034.175, 165.8005
1034.657, 159.4361
1035.139, 165.5121
1035.621, 172.4408
1036.103, 174.5983
1036.585, 172.3505
1037.068, 164.6677
1037.550, 150.4606
1038.032, 143.4963
1038.514, 149.1141
1038.996, 154.5623
1039.478, 159.0041
1039.960, 162.5440
1040.442, 164.9527
1040.924, 166.6958
1041.406, 169.1253
1041.889, 172.3215
1042.371, 170.8094
1042.853, 160.0699
1043.335, 153.6928
1043.817, 154.1063
1044.299, 156.9715
1044.781, 162.0370
1045.263, 166.6230
1045.746, 167.3502
1046.228, 164.3725
1046.710, 158.6770
1047.192, 146.5110
1047.674, 143.6529
1048.156, 155.4392
1048.638, 165.6036
1049.120, 167.3866
1049.603, 165.3573
1050.085, 164.6684
1050.567, 164.5431
1051.049, 160.0957
1051.531, 149.5542
1052.013, 144.5084
1052.495, 146.0207
1052.977, 151.3133
1053.459, 160.9451
1053.942, 167.6999
1054.424, 163.9590
1054.906, 153.6659
1055.388, 148.6620
1055.870, 149.0106
1056.352, 151.7663
1056.834, 157.0837
1057.316, 158.0491
1057.798, 152.2845
1058.281, 148.4517
1058.763, 153.6807
1059.245, 163.0839
1059.727, 167.2582
1060.209, 166.5625
1060.691, 161.5364
1061.173, 153.0931
1061.655, 150.4609
1062.138, 155.1994
1062.620, 158.6879
1063.102, 155.4257
1063.584, 150.8409
1064.066, 155.0031
1064.548, 163.2031
1065.030, 161.1204
1065.512, 151.9506
1065.995, 145.5715
1066.477, 143.7431
1066.959, 146.2576
1067.441, 153.0157
1067.923, 159.3439
1068.405, 159.8512
1068.887, 157.4432
1069.369, 155.8570
1069.851, 154.8325
1070.333, 154.2353
1070.816, 153.7260
1071.298, 152.1424
1071.780, 149.2585
1072.262, 147.1705
1072.744, 146.9977
1073.226, 148.8329
1073.708, 154.7878
1074.190, 161.1614
1074.673, 163.5984
1075.155, 163.0504
1075.637, 161.6175
1076.119, 159.9760
1076.601, 158.9125
1077.083, 159.1753
1077.565, 159.3083
1078.047, 157.6152
1078.530, 156.4943
1079.012, 159.5425
1079.494, 163.0585
1079.976, 160.8624
1080.458, 153.9676
1080.940, 150.2036
1081.422, 152.3136
1081.904, 155.2072
1082.386, 159.6867
1082.869, 162.1763
1083.351, 158.5529
1083.833, 154.5248
1084.315, 157.0656
1084.797, 163.3024
1085.279, 163.1610
1085.761, 152.5078
1086.243, 148.7653
1086.726, 159.7680
1087.208, 165.1054
1087.690, 157.4522
1088.172, 148.3490
1088.654, 143.6790
1089.136, 143.1143
1089.618, 146.9612
1090.100, 155.3584
1090.583, 159.7787
1091.065, 159.1837
1091.547, 158.1531
1092.029, 156.6556
1092.511, 157.1874
1092.993, 161.5656
1093.475, 166.2889
1093.957, 167.2217
1094.439, 165.0794
1094.922, 162.4547
1095.404, 159.3888
1095.886, 157.9447
1096.368, 158.2067
1096.850, 156.4666
1097.332, 151.5505
1097.814, 148.8817
1098.296, 153.0852
1098.778, 160.8963
1099.261, 168.2457
1099.743, 173.8668
1100.225, 172.8277
1100.707, 166.6880
1101.189, 159.6235
1101.671, 153.4410
1102.153, 152.5918
1102.635, 159.6355
1103.118, 167.0099
1103.600, 166.5459
1104.082, 162.6697
1104.564, 158.8633
1105.046, 156.5924
1105.528, 160.3737
1106.010, 167.2001
1106.492, 167.6822
1106.974, 159.5959
1107.457, 152.9570
1107.939, 152.7373
1108.421, 156.4052
1108.903, 168.3075
1109.385, 177.7365
1109.867, 173.1983
1110.349, 162.2350
1110.831, 154.3155
1111.313, 151.2947
1111.796, 156.1564
1112.278, 178.0876
1112.760, 189.9449
1113.242, 178.1556
1113.724, 167.0604
1114.206, 167.4730
1114.688, 170.5322
1115.170, 168.6834
1115.653, 163.5327
1116.135, 159.0938
1116.617, 155.0653
1117.099, 153.4948
1117.581, 154.4353
1118.063, 158.5625
1118.545, 168.5880
1119.027, 173.5790
1119.510, 165.5576
1119.992, 154.7200
1120.474, 156.4275
1120.956, 167.7288
1121.438, 170.8971
1121.920, 166.1766
1122.402, 164.7586
1122.884, 167.3891
1123.366, 165.9745
1123.849, 157.8955
1124.331, 151.6216
1124.813, 154.6341
1125.295, 161.5620
1125.777, 163.3469
1126.259, 162.2646
1126.741, 164.0136
1127.223, 167.2487
1127.705, 166.9260
1128.188, 163.3836
1128.670, 162.1816
1129.152, 165.9278
1129.634, 170.4781
1130.116, 174.4918
1130.598, 175.7565
1131.080, 168.3477
1131.562, 160.5482
1132.045, 163.8462
1132.527, 173.0555
1133.009, 176.3663
1133.491, 172.0269
1133.973, 167.4405
1134.455, 165.0088
1134.937, 162.3949
1135.419, 156.9569
1135.901, 153.6921
1136.384, 157.9536
1136.866, 163.2727
1137.348, 160.9849
1137.830, 154.2602
1138.312, 154.5663
1138.794, 164.9341
1139.276, 169.5847
1139.758, 166.6079
1140.240, 163.1971
1140.723, 160.6976
1141.205, 157.7708
1141.687, 153.0008
1142.169, 149.4006
1142.651, 151.7902
1143.133, 158.8168
1143.615, 164.2218
1144.097, 167.9801
1144.580, 169.9182
1145.062, 169.8735
1145.544, 164.6381
1146.026, 153.8788
1146.508, 147.3506
1146.990, 153.2610
1147.472, 161.9730
1147.954, 159.2849
1148.437, 152.0008
1148.919, 150.9793
1149.401, 153.4193
1149.883, 152.7806
1150.365, 149.7155
1150.847, 150.3460
1151.329, 156.7713
1151.811, 161.0479
1152.293, 155.4217
1152.776, 151.0731
1153.258, 156.8569
1153.740, 162.7431
1154.222, 158.8819
1154.704, 151.7456
1155.186, 152.5471
1155.668, 160.5475
1156.150, 162.8983
1156.632, 154.1784
1157.115, 149.2151
1157.597, 147.8598
1158.079, 151.1206
1158.561, 162.6267
1159.043, 172.0075
1159.525, 171.6165
1160.007, 165.4904
1160.489, 160.0492
1160.972, 155.6646
1161.454, 157.5549
1161.936, 165.5316
1162.418, 166.7943
1162.900, 160.3920
1163.382, 155.1653
1163.864, 154.2367
1164.346, 154.2330
1164.828, 152.1951
1165.311, 150.2855
1165.793, 152.1808
1166.275, 155.9105
1166.757, 158.9128
1167.239, 160.8141
1167.721, 159.4065
1168.203, 156.5445
1168.685, 160.2228
1169.167, 173.3750
1169.650, 181.4430
1170.132, 171.6060
1170.614, 162.2320
1171.096, 164.1035
1171.578, 166.9339
1172.060, 160.9915
1172.542, 153.2284
1173.024, 154.8019
1173.507, 164.4672
1173.989, 169.2536
1174.471, 166.9190
1174.953, 166.0621
1175.435, 168.4639
1175.917, 167.0557
1176.399, 158.4228
1176.881, 151.7627
1177.364, 153.1419
1177.846, 157.9287
1178.328, 159.7951
1178.810, 158.7780
1179.292, 152.8239
1179.774, 143.7284
1180.256, 143.4691
1180.738, 151.1264
1181.220, 157.4058
1181.703, 159.5562
1182.185, 158.2211
1182.667, 153.0490
1183.149, 149.3580
1183.631, 155.4994
1184.113, 162.3166
1184.595, 157.3350
1185.077, 150.0404
1185.559, 154.1826
1186.042, 165.2560
1186.524, 171.1302
1187.006, 169.7463
1187.488, 167.6991
1187.970, 165.2296
1188.452, 164.3305
1188.934, 165.8122
1189.416, 168.3271
1189.899, 173.1765
1190.381, 176.4216
1190.863, 174.0453
1191.345, 168.7211
1191.827, 167.0071
1192.309, 168.8010
1192.791, 166.5565
1193.273, 160.2084
1193.755, 153.3253
1194.238, 146.5378
1194.720, 145.1208
1195.202, 150.8821
1195.684, 157.2819
1196.166, 158.5384
1196.648, 159.0421
1197.130, 167.9174
1197.612, 177.4842
1198.094, 174.0940
1198.577, 164.4907
1199.059, 160.7067
1199.541, 162.0915
1200.023, 161.6792
1200.505, 157.5979
1200.987, 152.7878
1201.469, 146.1109
1201.951, 142.2142
1202.434, 144.9374
1202.916, 147.6840
1203.398, 145.2192
1203.880, 143.1814
1204.362, 147.8059
1204.844, 156.1218
1205.326, 159.9971
1205.808, 159.2274
1206.291, 155.9279
1206.773, 149.4638
1207.255, 149.4989
1207.737, 157.5029
1208.219, 163.2829
1208.701, 162.7023
1209.183, 159.6843
1209.665, 156.9697
1210.147, 156.3885
1210.630, 163.7810
1211.112, 172.8210
1211.594, 172.0790
1212.076, 166.2531
1212.558, 163.8352
1213.040, 164.9048
1213.522, 165.3753
1214.004, 164.1481
1214.486, 164.3049
1214.969, 169.6356
1215.451, 172.4810
1215.933, 168.1844
1216.415, 164.2797
1216.897, 164.3394
1217.379, 166.2873
1217.861, 169.9801
1218.343, 172.8404
1218.826, 166.8847
1219.308, 151.9804
1219.790, 150.6494
1220.272, 163.2642
1220.754, 171.6152
1221.236, 173.6676
1221.718, 173.9935
1222.200, 174.3059
1222.682, 174.0429
1223.165, 172.6939
1223.647, 170.9337
1224.129, 168.2857
1224.611, 166.9210
1225.093, 170.5898
1225.575, 176.4823
1226.057, 181.4715
1226.539, 185.0267
1227.021, 186.6667
1227.504, 186.4414
1227.986, 187.0215
1228.468, 190.1822
1228.950, 192.2669
1229.432, 194.6086
1229.914, 192.6770
1230.396, 181.3962
1230.878, 173.0068
1231.361, 177.0778
1231.843, 187.0429
1232.325, 192.9344
1232.807, 194.5243
1233.289, 188.0648
1233.771, 175.7794
1234.253, 172.5782
1234.735, 177.2551
1235.218, 177.5539
1235.700, 171.6080
1236.182, 168.8339
1236.664, 174.4206
1237.146, 181.3388
1237.628, 184.2200
1238.110, 186.4672
1238.592, 192.7019
1239.074, 197.0266
1239.557, 189.6109
1240.039, 179.9598
1240.521, 185.1099
1241.003, 202.5254
1241.485, 209.4477
1241.967, 202.2871
1242.449, 199.7306
1242.931, 203.3793
1243.413, 204.2849
1243.896, 200.3960
1244.378, 198.9276
1244.860, 203.4374
1245.342, 207.5707
1245.824, 204.5202
1246.306, 199.1266
1246.788, 199.1211
##END=



