##NAMES=Derriksite
##RRUFFID=R100223
##IDEAL CHEMISTRY=Cu^2+^_4_(U^6+^O_2_)(Se^4+^O_3_)_2_(OH)_6_
##LOCALITY=Musonoi mine, Kolwezi, Katanga, Congo
##OWNER=RRUFF
##SOURCE=William W. Pinch
##DESCRIPTION=Dark green crystal associated with metatorbernite, malachite and brochantite
##STATUS=The identification of this mineral has been confirmed by single-crystal X-ray diffraction.
##URL=rruff.info/R100223
145.5144, 25.27989
145.9965, 27.62073
146.4786, 29.78608
146.9608, 31.21890
147.4429, 31.76433
147.9250, 32.34617
148.4071, 33.17191
148.8892, 33.95888
149.3713, 34.26232
149.8535, 33.41185
150.3356, 32.74154
150.8177, 32.47513
151.2998, 32.18017
151.7819, 33.24272
152.2640, 37.27850
152.7462, 42.52270
153.2283, 45.73806
153.7104, 44.84900
154.1925, 43.44239
154.6746, 42.82474
155.1567, 43.88110
155.6389, 44.37348
156.1210, 43.14064
156.6031, 41.09044
157.0852, 40.43905
157.5673, 42.88710
158.0495, 45.95018
158.5316, 48.44414
159.0137, 49.96608
159.4958, 51.15761
159.9779, 51.84299
160.4600, 52.25542
160.9422, 53.15644
161.4243, 55.67846
161.9064, 58.27200
162.3885, 59.84083
162.8706, 59.12761
163.3527, 58.53747
163.8349, 59.42195
164.3170, 61.44167
164.7991, 62.97423
165.2812, 62.34780
165.7633, 61.28225
166.2454, 61.33801
166.7276, 63.54325
167.2097, 66.50050
167.6918, 69.95071
168.1739, 73.72918
168.6560, 76.73575
169.1381, 78.11768
169.6203, 78.38637
170.1024, 77.66982
170.5845, 75.54589
171.0666, 73.75822
171.5487, 73.92965
172.0309, 75.90128
172.5130, 77.69495
172.9951, 77.21957
173.4772, 75.78000
173.9593, 75.41649
174.4414, 77.68754
174.9236, 80.98494
175.4057, 83.66167
175.8878, 85.73569
176.3699, 87.42598
176.8520, 88.67833
177.3341, 89.69779
177.8163, 90.93858
178.2984, 93.16051
178.7805, 95.51431
179.2626, 96.24902
179.7447, 95.16403
180.2268, 94.35587
180.7090, 96.44699
181.1911, 100.6552
181.6732, 104.5716
182.1553, 106.7832
182.6374, 107.9841
183.1195, 109.4967
183.6017, 111.3686
184.0838, 113.5659
184.5659, 116.4461
185.0480, 119.8056
185.5301, 122.7447
186.0123, 124.6767
186.4944, 125.8338
186.9765, 126.8554
187.4586, 127.7799
187.9407, 128.5544
188.4228, 129.1094
188.9050, 129.4488
189.3871, 129.6205
189.8692, 129.8182
190.3513, 129.9301
190.8334, 129.2660
191.3155, 127.6746
191.7977, 125.6318
192.2798, 123.8373
192.7619, 122.2902
193.2440, 120.8166
193.7261, 119.3933
194.2082, 118.0057
194.6904, 116.4153
195.1725, 114.6444
195.6546, 112.6098
196.1367, 109.9528
196.6188, 106.5751
197.1009, 103.6682
197.5831, 102.1621
198.0652, 102.0340
198.5473, 101.4655
199.0294, 100.4146
199.5115, 98.80097
199.9937, 96.03096
200.4758, 91.86327
200.9579, 88.26548
201.4400, 86.83501
201.9221, 87.80757
202.4042, 87.40160
202.8864, 84.86842
203.3685, 81.38379
203.8506, 79.98618
204.3327, 81.18453
204.8148, 82.44157
205.2969, 82.14927
205.7791, 79.99244
206.2612, 78.64713
206.7433, 78.47710
207.2254, 79.04092
207.7075, 79.13943
208.1896, 78.55441
208.6718, 78.14027
209.1539, 78.45884
209.6360, 79.68910
210.1181, 80.74348
210.6002, 81.60617
211.0823, 82.24008
211.5645, 82.48282
212.0466, 82.20930
212.5287, 81.84750
213.0108, 81.54432
213.4929, 81.18875
213.9750, 81.33843
214.4572, 82.14719
214.9393, 83.42790
215.4214, 84.76187
215.9035, 86.38605
216.3856, 87.58939
216.8678, 87.86179
217.3499, 86.87707
217.8320, 86.04581
218.3141, 85.46678
218.7962, 85.07332
219.2783, 84.61245
219.7605, 83.88445
220.2426, 83.45332
220.7247, 83.85320
221.2068, 85.81816
221.6889, 86.39883
222.1710, 84.81413
222.6532, 81.91785
223.1353, 80.45055
223.6174, 80.81693
224.0995, 81.90998
224.5816, 83.28844
225.0637, 85.25984
225.5459, 86.75478
226.0280, 87.60709
226.5101, 87.99825
226.9922, 88.49102
227.4743, 89.32851
227.9564, 89.89513
228.4386, 89.67165
228.9207, 87.68389
229.4028, 87.39906
229.8849, 89.77878
230.3670, 93.66517
230.8492, 95.81464
231.3313, 95.47339
231.8134, 94.51236
232.2955, 93.66609
232.7776, 92.74759
233.2597, 92.47834
233.7419, 93.28822
234.2240, 94.63350
234.7061, 95.03632
235.1882, 94.09978
235.6703, 92.83861
236.1524, 91.67503
236.6346, 90.75681
237.1167, 89.57681
237.5988, 87.92142
238.0809, 86.07848
238.5630, 84.71793
239.0451, 84.07309
239.5273, 83.57590
240.0094, 83.08348
240.4915, 82.85008
240.9736, 81.90252
241.4557, 79.93452
241.9378, 77.38233
242.4200, 75.08344
242.9021, 72.75378
243.3842, 71.09134
243.8663, 70.60008
244.3484, 72.09245
244.8306, 72.24991
245.3127, 70.48402
245.7948, 67.69857
246.2769, 65.45279
246.7590, 63.55155
247.2411, 62.57225
247.7233, 63.03453
248.2054, 65.68175
248.6875, 66.91412
249.1696, 66.06693
249.6517, 64.24634
250.1338, 63.25402
250.6160, 63.44872
251.0981, 63.83052
251.5802, 64.12399
252.0623, 64.33331
252.5444, 64.46149
253.0265, 64.58024
253.5087, 64.55900
253.9908, 64.13727
254.4729, 62.98955
254.9550, 62.09811
255.4371, 61.78045
255.9192, 62.10670
256.4014, 62.50064
256.8835, 63.16227
257.3656, 63.69248
257.8477, 63.52351
258.3298, 62.25111
258.8120, 61.17365
259.2941, 60.55665
259.7762, 60.40107
260.2583, 60.83355
260.7404, 62.37498
261.2225, 63.86199
261.7047, 63.93272
262.1868, 61.98272
262.6689, 60.18090
263.1510, 58.95955
263.6331, 58.31684
264.1152, 57.87642
264.5974, 57.69897
265.0795, 57.63508
265.5616, 57.67825
266.0437, 58.07079
266.5258, 57.69487
267.0079, 55.93917
267.4901, 53.07587
267.9722, 51.77415
268.4543, 52.43353
268.9364, 53.83006
269.4185, 55.17248
269.9006, 56.62142
270.3828, 57.24751
270.8649, 56.60271
271.3470, 55.05668
271.8291, 54.48148
272.3112, 55.21181
272.7933, 56.01617
273.2755, 56.09646
273.7576, 55.45686
274.2397, 53.92184
274.7218, 50.89239
275.2039, 47.29240
275.6860, 46.27771
276.1682, 48.41152
276.6503, 50.97468
277.1324, 52.33843
277.6145, 52.43308
278.0966, 52.04738
278.5787, 51.03161
279.0609, 49.82119
279.5430, 49.48154
280.0251, 50.14884
280.5072, 50.86799
280.9893, 51.18633
281.4715, 51.10357
281.9536, 50.63692
282.4357, 49.64503
282.9178, 48.54432
283.3999, 48.11125
283.8820, 48.37693
284.3642, 48.72961
284.8463, 49.02010
285.3284, 49.21669
285.8105, 48.78376
286.2926, 47.52009
286.7747, 46.25572
287.2569, 46.51632
287.7390, 48.22405
288.2211, 49.30691
288.7032, 48.41212
289.1853, 46.12571
289.6674, 45.21897
290.1496, 45.84038
290.6317, 46.82438
291.1138, 46.68692
291.5959, 45.62224
292.0780, 44.99957
292.5602, 45.47657
293.0423, 46.61787
293.5244, 47.33594
294.0065, 47.61678
294.4886, 47.71499
294.9707, 47.79752
295.4529, 47.87740
295.9350, 47.99862
296.4171, 48.17440
296.8992, 48.39787
297.3813, 48.90557
297.8634, 49.63184
298.3456, 49.82192
298.8277, 48.29300
299.3098, 45.82988
299.7919, 44.21949
300.2740, 44.03761
300.7561, 44.50430
301.2383, 44.68370
301.7204, 44.64432
302.2025, 44.68620
302.6846, 45.03825
303.1667, 45.58008
303.6488, 46.22475
304.1310, 47.06029
304.6131, 47.65995
305.0952, 47.28231
305.5773, 46.27234
306.0594, 45.56501
306.5415, 45.81720
307.0237, 46.53596
307.5058, 47.22246
307.9879, 47.81958
308.4700, 48.43196
308.9521, 49.48173
309.4343, 50.56976
309.9164, 51.02546
310.3985, 49.86344
310.8806, 48.43488
311.3627, 47.81982
311.8448, 48.06834
312.3270, 48.46339
312.8091, 48.60859
313.2912, 48.64754
313.7733, 48.74987
314.2554, 49.17477
314.7375, 49.50653
315.2197, 49.42861
315.7018, 48.99430
316.1839, 48.66310
316.6660, 48.32085
317.1481, 48.33644
317.6302, 49.07258
318.1124, 51.78635
318.5945, 53.77518
319.0766, 53.39082
319.5587, 51.38026
320.0408, 50.33021
320.5229, 52.36993
321.0051, 54.66829
321.4872, 55.49953
321.9693, 53.39463
322.4514, 52.07106
322.9335, 53.39067
323.4156, 55.90848
323.8978, 56.83913
324.3799, 53.75627
324.8620, 50.70345
325.3441, 49.27519
325.8262, 50.27158
326.3083, 50.75787
326.7905, 50.00409
327.2726, 48.78510
327.7547, 48.06427
328.2368, 48.28720
328.7189, 48.57471
329.2010, 48.83313
329.6832, 49.07921
330.1653, 49.07074
330.6474, 48.32118
331.1295, 47.66780
331.6116, 47.84922
332.0938, 49.73728
332.5759, 51.06351
333.0580, 51.35529
333.5401, 50.76903
334.0222, 50.47075
334.5043, 50.63855
334.9865, 50.84454
335.4686, 50.82659
335.9507, 50.50135
336.4328, 50.12416
336.9149, 49.50078
337.3970, 48.93109
337.8792, 49.37967
338.3613, 51.26145
338.8434, 53.00399
339.3255, 53.68499
339.8076, 53.04975
340.2898, 53.62541
340.7719, 56.03279
341.2540, 58.59686
341.7361, 58.31285
342.2182, 54.80598
342.7003, 52.09754
343.1825, 51.90849
343.6646, 53.82101
344.1467, 55.02894
344.6288, 55.44601
345.1109, 55.64708
345.5930, 56.37364
346.0752, 57.52826
346.5573, 58.21199
347.0394, 58.13414
347.5215, 57.52203
348.0036, 56.43727
348.4857, 54.91949
348.9679, 54.27007
349.4500, 56.12832
349.9321, 59.66870
350.4142, 62.46287
350.8963, 64.06021
351.3784, 65.04118
351.8606, 65.81763
352.3427, 66.50072
352.8248, 67.52724
353.3069, 69.58290
353.7890, 71.94613
354.2711, 73.77762
354.7533, 75.03118
355.2354, 75.56419
355.7175, 75.13977
356.1996, 73.90955
356.6817, 72.13730
357.1638, 69.38657
357.6460, 66.53500
358.1281, 64.00703
358.6102, 61.85221
359.0923, 60.42617
359.5744, 60.45000
360.0565, 61.09288
360.5387, 61.56040
361.0208, 61.66103
361.5029, 61.51151
361.9850, 60.98457
362.4671, 60.21448
362.9492, 59.62152
363.4314, 59.39212
363.9135, 59.34962
364.3956, 59.37153
364.8777, 59.34040
365.3598, 59.62067
365.8419, 60.78267
366.3241, 62.19417
366.8062, 62.89716
367.2883, 61.54427
367.7704, 60.64085
368.2526, 61.13761
368.7347, 63.42804
369.2168, 64.92178
369.6989, 64.40684
370.1810, 63.81005
370.6631, 64.77874
371.1453, 68.80246
371.6274, 72.17545
372.1095, 74.29020
372.5916, 75.35236
373.0737, 76.65987
373.5558, 78.31385
374.0380, 80.07813
374.5201, 81.87718
375.0022, 83.75105
375.4843, 85.44451
375.9664, 86.86588
376.4485, 88.17478
376.9307, 89.60374
377.4128, 91.02033
377.8949, 93.09073
378.3770, 96.44160
378.8591, 100.9495
379.3412, 104.2076
379.8234, 105.9311
380.3055, 107.3121
380.7876, 109.6400
381.2697, 112.8933
381.7518, 116.3533
382.2339, 119.9147
382.7161, 123.4889
383.1982, 126.9587
383.6803, 130.2947
384.1624, 133.4964
384.6445, 136.4840
385.1266, 139.3089
385.6088, 142.2370
386.0909, 145.4763
386.5730, 148.2787
387.0551, 149.5200
387.5372, 149.5368
388.0193, 149.3059
388.5015, 149.7016
388.9836, 149.9077
389.4657, 149.0645
389.9478, 147.1183
390.4299, 144.3854
390.9120, 140.5758
391.3942, 136.2534
391.8763, 132.1719
392.3584, 129.0081
392.8405, 125.7427
393.3226, 121.5187
393.8047, 116.6187
394.2869, 112.3351
394.7690, 109.1830
395.2511, 106.7949
395.7332, 105.1852
396.2154, 105.3704
396.6975, 104.2087
397.1796, 99.56395
397.6617, 93.36753
398.1438, 88.96516
398.6259, 88.03168
399.1081, 87.68398
399.5902, 87.32356
400.0723, 86.99000
400.5544, 86.27550
401.0365, 85.10606
401.5186, 83.60168
402.0008, 81.73405
402.4829, 78.54935
402.9650, 76.85557
403.4471, 77.54871
403.9292, 79.96327
404.4113, 81.30016
404.8935, 81.38437
405.3756, 80.82621
405.8577, 79.42937
406.3398, 76.81155
406.8219, 76.72607
407.3040, 80.09781
407.7862, 84.31738
408.2683, 85.28114
408.7504, 82.88778
409.2325, 80.67844
409.7146, 79.78671
410.1967, 80.00911
410.6789, 80.91687
411.1610, 82.54573
411.6431, 83.96623
412.1252, 83.94601
412.6073, 83.04198
413.0894, 82.84782
413.5716, 83.72770
414.0537, 85.29734
414.5358, 87.68430
415.0179, 90.49759
415.5000, 92.54200
415.9821, 92.31420
416.4643, 91.41911
416.9464, 91.61031
417.4285, 93.07693
417.9106, 94.67658
418.3927, 95.43896
418.8748, 95.99271
419.3570, 97.06933
419.8391, 100.1215
420.3212, 102.5899
420.8033, 102.9235
421.2854, 101.5830
421.7675, 100.7563
422.2497, 101.4555
422.7318, 102.5882
423.2139, 103.6049
423.6960, 104.4392
424.1781, 105.1653
424.6602, 105.9085
425.1424, 106.5131
425.6245, 106.7599
426.1066, 106.9930
426.5887, 106.4273
427.0709, 104.7095
427.5530, 101.8396
428.0351, 99.08580
428.5172, 96.56787
428.9993, 93.95516
429.4814, 90.82355
429.9636, 86.80055
430.4457, 83.78340
430.9278, 82.21199
431.4099, 81.44554
431.8920, 80.07822
432.3741, 78.02580
432.8563, 75.93005
433.3384, 74.10579
433.8205, 72.49393
434.3026, 70.60639
434.7847, 68.35903
435.2668, 66.42410
435.7490, 65.68867
436.2311, 65.87655
436.7132, 66.05577
437.1953, 66.03672
437.6774, 65.81809
438.1595, 65.37829
438.6417, 64.73074
439.1238, 63.93031
439.6059, 62.53920
440.0880, 61.25296
440.5701, 60.90717
441.0522, 61.68346
441.5344, 62.75716
442.0165, 64.18456
442.4986, 65.42641
442.9807, 65.80997
443.4628, 64.00269
443.9449, 62.38348
444.4271, 62.02870
444.9092, 62.74327
445.3913, 63.35494
445.8734, 63.65125
446.3555, 63.70442
446.8376, 63.52616
447.3198, 62.99761
447.8019, 62.45917
448.2840, 61.54293
448.7661, 60.77992
449.2482, 60.99243
449.7303, 62.90809
450.2125, 64.57144
450.6946, 65.61766
451.1767, 66.06268
451.6588, 65.97392
452.1409, 65.04606
452.6230, 64.29076
453.1052, 64.73021
453.5873, 66.52905
454.0694, 67.17754
454.5515, 66.14049
455.0337, 64.58982
455.5158, 64.65939
455.9979, 66.24216
456.4800, 67.74460
456.9621, 68.34671
457.4442, 68.44882
457.9264, 69.21371
458.4085, 70.60203
458.8906, 71.60441
459.3727, 70.63358
459.8548, 68.91441
460.3369, 68.57488
460.8191, 70.53584
461.3012, 72.85048
461.7833, 73.92742
462.2654, 74.20423
462.7475, 74.58719
463.2296, 76.13578
463.7118, 77.35847
464.1939, 76.83421
464.6760, 74.44453
465.1581, 73.39849
465.6402, 75.95425
466.1223, 79.46111
466.6045, 82.02840
467.0866, 82.54524
467.5687, 83.16617
468.0508, 84.40062
468.5329, 85.78320
469.0150, 86.23626
469.4972, 85.14270
469.9793, 84.03653
470.4614, 83.29345
470.9435, 82.90327
471.4256, 83.23544
471.9077, 84.65658
472.3899, 86.07145
472.8720, 86.35336
473.3541, 85.38662
473.8362, 84.75253
474.3183, 84.78149
474.8004, 85.06560
475.2826, 84.79362
475.7647, 83.99323
476.2468, 83.05872
476.7289, 82.28926
477.2110, 81.50314
477.6931, 80.08383
478.1753, 78.02622
478.6574, 76.27808
479.1395, 75.80192
479.6216, 76.08297
480.1037, 76.42095
480.5858, 76.80473
481.0680, 76.88943
481.5501, 76.23109
482.0322, 75.11048
482.5143, 74.11649
482.9964, 73.54973
483.4786, 73.10299
483.9607, 72.71964
484.4428, 72.41739
484.9249, 71.84690
485.4070, 70.16772
485.8892, 68.68537
486.3713, 68.39058
486.8534, 71.02039
487.3355, 72.22658
487.8176, 71.03390
488.2997, 68.65053
488.7819, 67.77374
489.2640, 69.22257
489.7461, 70.29978
490.2282, 69.94456
490.7103, 68.26922
491.1924, 67.35507
491.6746, 67.33460
492.1567, 67.50019
492.6388, 67.09584
493.1209, 66.22718
493.6030, 65.98226
494.0851, 66.67634
494.5673, 67.54747
495.0494, 67.30708
495.5315, 66.24831
496.0136, 65.43850
496.4957, 65.47602
496.9778, 65.95859
497.4600, 66.53132
497.9421, 67.17651
498.4242, 67.77824
498.9063, 68.31722
499.3884, 68.75894
499.8705, 69.09136
500.3527, 69.33513
500.8348, 69.40225
501.3169, 69.13120
501.7990, 68.69834
502.2811, 68.34964
502.7632, 67.50423
503.2454, 67.42691
503.7275, 69.02561
504.2096, 72.03573
504.6917, 73.55094
505.1738, 72.79338
505.6559, 71.58493
506.1381, 70.75328
506.6202, 70.21880
507.1023, 70.54627
507.5844, 72.09341
508.0665, 73.85931
508.5486, 74.24986
509.0308, 73.22487
509.5129, 72.67900
509.9950, 73.34193
510.4771, 74.53993
510.9592, 74.68599
511.4413, 73.88337
511.9235, 73.14944
512.4056, 73.42449
512.8877, 74.06080
513.3698, 73.95818
513.8519, 72.98400
514.3340, 72.06897
514.8162, 72.23233
515.2983, 72.72187
515.7804, 72.61325
516.2625, 71.10573
516.7446, 69.62263
517.2267, 68.74834
517.7089, 68.32809
518.1910, 67.99394
518.6731, 68.01077
519.1552, 67.77904
519.6373, 66.98582
520.1194, 65.56259
520.6016, 64.35119
521.0837, 63.69827
521.5658, 62.88660
522.0479, 61.13618
522.5300, 57.81283
523.0121, 56.03896
523.4943, 56.40561
523.9764, 57.89454
524.4585, 58.84328
524.9406, 59.23371
525.4227, 59.21526
525.9048, 58.55429
526.3870, 57.65989
526.8691, 57.87770
527.3513, 59.11020
527.8334, 59.88593
528.3155, 58.65306
528.7976, 56.48607
529.2797, 54.89654
529.7618, 54.07895
530.2440, 53.73222
530.7261, 53.97429
531.2082, 54.46193
531.6903, 54.75167
532.1724, 55.05702
532.6545, 54.76878
533.1367, 53.14153
533.6188, 50.66037
534.1009, 48.99537
534.5830, 48.97466
535.0651, 49.27381
535.5472, 49.47317
536.0294, 49.53650
536.5115, 49.84756
536.9936, 50.74845
537.4757, 51.42059
537.9578, 50.95749
538.4399, 49.06434
538.9221, 47.96663
539.4042, 48.07825
539.8863, 48.73010
540.3684, 48.67216
540.8505, 47.97042
541.3326, 47.41831
541.8148, 47.41610
542.2969, 47.71565
542.7790, 48.01670
543.2611, 48.28336
543.7432, 48.24971
544.2253, 46.94246
544.7075, 45.66460
545.1896, 46.29271
545.6717, 49.61536
546.1538, 51.76989
546.6359, 49.32955
547.1180, 45.37880
547.6002, 43.22604
548.0823, 45.93395
548.5644, 47.85337
549.0465, 47.49743
549.5286, 45.60505
550.0107, 44.29854
550.4929, 43.61784
550.9750, 43.48186
551.4571, 44.04199
551.9392, 45.30595
552.4213, 46.13004
552.9034, 46.49062
553.3856, 46.50632
553.8677, 46.05003
554.3498, 45.19517
554.8319, 44.95448
555.3140, 45.56297
555.7961, 46.30038
556.2783, 45.88198
556.7604, 44.79284
557.2425, 44.46074
557.7246, 46.06483
558.2067, 47.97296
558.6888, 48.65812
559.1710, 48.31742
559.6531, 47.59127
560.1352, 46.44332
560.6173, 45.28214
561.0994, 44.29419
561.5815, 43.46902
562.0637, 43.01180
562.5458, 43.15360
563.0279, 43.55981
563.5100, 44.01249
563.9921, 44.85419
564.4742, 45.04734
564.9564, 44.05895
565.4385, 42.80994
565.9206, 43.08916
566.4027, 45.27028
566.8848, 47.10026
567.3669, 47.93272
567.8491, 47.95018
568.3312, 47.56314
568.8133, 46.78732
569.2954, 45.97296
569.7775, 45.32013
570.2596, 44.79435
570.7418, 44.29897
571.2239, 43.81799
571.7060, 43.57021
572.1881, 43.78016
572.6702, 44.28417
573.1523, 44.94130
573.6345, 45.89029
574.1166, 46.66043
574.5987, 47.08950
575.0808, 47.21736
575.5629, 47.11280
576.0450, 46.62615
576.5272, 46.07327
577.0093, 45.34970
577.4914, 44.55323
577.9735, 44.40278
578.4556, 45.21230
578.9377, 46.02193
579.4199, 46.30375
579.9020, 46.04129
580.3841, 46.07986
580.8662, 46.48069
581.3483, 46.85740
581.8304, 46.63600
582.3126, 46.04026
582.7947, 45.87027
583.2768, 46.32479
583.7589, 47.08507
584.2410, 48.02679
584.7231, 49.00729
585.2053, 49.74432
585.6874, 50.01787
586.1696, 50.10793
586.6517, 50.07444
587.1338, 49.95661
587.6159, 49.92088
588.0980, 49.42432
588.5801, 49.54018
589.0623, 51.14758
589.5444, 54.67746
590.0265, 56.68969
590.5086, 56.55129
590.9907, 55.70569
591.4728, 55.15399
591.9550, 54.89001
592.4371, 55.03469
592.9192, 55.66692
593.4013, 56.54118
593.8834, 57.37539
594.3655, 58.15873
594.8477, 58.77334
595.3298, 58.95790
595.8119, 59.23079
596.2940, 60.68380
596.7761, 62.90249
597.2582, 64.54061
597.7404, 64.19117
598.2225, 63.53779
598.7046, 63.80918
599.1867, 65.06736
599.6688, 66.31743
600.1509, 67.01224
600.6331, 67.79649
601.1152, 69.13281
601.5973, 71.49130
602.0794, 73.31051
602.5615, 74.29996
603.0436, 75.01294
603.5258, 75.91764
604.0079, 76.89439
604.4900, 78.80459
604.9721, 82.08488
605.4542, 85.89400
605.9363, 88.53333
606.4185, 90.06940
606.9006, 91.27415
607.3827, 92.10232
607.8648, 93.01855
608.3469, 94.41637
608.8290, 96.39478
609.3112, 99.43526
609.7933, 105.5123
610.2754, 111.5997
610.7575, 114.8446
611.2396, 114.3423
611.7217, 115.3893
612.2039, 120.5697
612.6860, 127.1202
613.1681, 132.9926
613.6502, 137.3048
614.1323, 142.3160
614.6144, 148.4982
615.0966, 154.9217
615.5787, 160.0923
616.0608, 163.6131
616.5429, 168.3684
617.0250, 175.3261
617.5071, 183.5637
617.9893, 191.0115
618.4714, 197.7417
618.9535, 204.0042
619.4356, 209.5345
619.9177, 215.0375
620.3998, 221.6265
620.8820, 229.2007
621.3641, 236.7166
621.8462, 243.6439
622.3283, 250.3723
622.8104, 257.2048
623.2925, 264.3655
623.7747, 271.0363
624.2568, 277.3885
624.7389, 282.9638
625.2210, 287.2984
625.7031, 289.6398
626.1852, 292.5204
626.6674, 296.5525
627.1495, 300.5874
627.6316, 302.6073
628.1137, 302.5575
628.5958, 301.8553
629.0779, 300.9176
629.5601, 299.5585
630.0422, 297.4582
630.5243, 294.6359
631.0064, 291.0794
631.4885, 286.4763
631.9706, 281.3542
632.4528, 276.1407
632.9349, 270.8900
633.4170, 265.4921
633.8991, 259.9160
634.3812, 254.1806
634.8633, 248.1745
635.3455, 241.8132
635.8276, 235.5958
636.3097, 229.2984
636.7918, 223.3652
637.2739, 218.2646
637.7560, 214.3120
638.2382, 210.0838
638.7203, 205.4797
639.2024, 200.6073
639.6845, 195.3425
640.1666, 189.7624
640.6487, 184.7619
641.1309, 180.7813
641.6130, 177.1533
642.0951, 172.8793
642.5772, 168.2247
643.0594, 164.1246
643.5415, 161.6304
644.0236, 159.2611
644.5057, 155.9272
644.9879, 151.7241
645.4700, 147.9474
645.9521, 145.3330
646.4342, 142.7739
646.9163, 139.7035
647.3984, 135.9623
647.8806, 132.6269
648.3627, 129.6740
648.8448, 127.1238
649.3269, 125.2670
649.8090, 124.0998
650.2911, 121.8197
650.7733, 118.0790
651.2554, 114.0351
651.7375, 110.8254
652.2196, 108.3562
652.7017, 106.3838
653.1838, 104.9162
653.6660, 103.7710
654.1481, 103.1006
654.6302, 102.6097
655.1123, 101.7651
655.5944, 99.66762
656.0765, 97.96088
656.5587, 97.72027
657.0408, 98.44811
657.5229, 97.72205
658.0050, 94.62407
658.4871, 91.63826
658.9692, 89.59266
659.4514, 88.43246
659.9335, 87.54699
660.4156, 86.92700
660.8977, 86.66910
661.3798, 87.25826
661.8619, 88.23176
662.3441, 88.35672
662.8262, 87.55625
663.3083, 86.18860
663.7904, 83.63763
664.2725, 81.10920
664.7546, 80.11698
665.2368, 81.60449
665.7189, 82.87552
666.2010, 82.95451
666.6831, 82.39053
667.1652, 81.78611
667.6473, 81.05972
668.1295, 80.52888
668.6116, 80.43448
669.0937, 80.38041
669.5758, 79.39677
670.0579, 77.33349
670.5400, 75.75886
671.0222, 75.20662
671.5043, 75.34241
671.9864, 75.75811
672.4685, 76.32944
672.9506, 76.44462
673.4327, 75.08509
673.9149, 73.60704
674.3970, 73.52308
674.8791, 74.62564
675.3612, 75.25312
675.8433, 73.92785
676.3254, 72.64964
676.8076, 72.59050
677.2897, 74.04929
677.7718, 75.20831
678.2539, 76.03526
678.7360, 76.59547
679.2181, 76.94534
679.7003, 77.09551
680.1824, 76.79871
680.6645, 75.93782
681.1466, 75.09993
681.6287, 75.07396
682.1108, 75.58480
682.5930, 75.90919
683.0751, 75.93848
683.5572, 75.63717
684.0393, 74.69577
684.5214, 73.48317
685.0035, 72.52305
685.4857, 71.99767
685.9678, 71.72227
686.4499, 71.58494
686.9320, 71.69029
687.4141, 72.32906
687.8962, 74.17807
688.3784, 75.19836
688.8605, 74.56352
689.3426, 72.94083
689.8247, 72.80261
690.3068, 74.20623
690.7889, 75.55315
691.2711, 76.11672
691.7532, 76.08116
692.2353, 75.56118
692.7174, 74.65918
693.1995, 73.98967
693.6816, 73.76820
694.1638, 74.04032
694.6459, 74.97299
695.1280, 76.59689
695.6101, 78.24942
696.0922, 80.37785
696.5743, 81.95752
697.0565, 82.29910
697.5386, 80.92875
698.0207, 80.34132
698.5028, 80.67055
698.9849, 81.50069
699.4670, 82.58357
699.9492, 83.88452
700.4313, 85.13853
700.9135, 86.37281
701.3956, 87.18085
701.8777, 86.40646
702.3598, 85.06185
702.8419, 84.96674
703.3240, 87.12687
703.8062, 89.58516
704.2883, 91.40355
704.7704, 92.86265
705.2525, 94.33665
705.7346, 96.46673
706.2167, 97.84976
706.6989, 98.09795
707.1810, 97.63454
707.6631, 97.17442
708.1452, 96.55744
708.6273, 97.00856
709.1094, 99.20206
709.5916, 102.3962
710.0737, 105.1871
710.5558, 107.5168
711.0379, 109.2088
711.5200, 109.2284
712.0021, 109.2655
712.4843, 111.1375
712.9664, 114.5238
713.4485, 117.6549
713.9306, 119.5378
714.4127, 121.2901
714.8948, 123.3628
715.3770, 125.7825
715.8591, 128.2627
716.3412, 130.5778
716.8233, 133.3880
717.3054, 137.4372
717.7875, 142.6603
718.2697, 146.1903
718.7518, 147.9386
719.2339, 149.6152
719.7160, 152.5155
720.1981, 156.3687
720.6802, 160.8992
721.1624, 166.0651
721.6445, 171.5393
722.1266, 177.4134
722.6087, 183.2944
723.0908, 188.7466
723.5729, 193.1664
724.0551, 198.1177
724.5372, 203.5673
725.0193, 209.6019
725.5014, 216.3615
725.9835, 223.9852
726.4656, 231.4454
726.9478, 238.6616
727.4299, 245.8537
727.9120, 253.2297
728.3941, 260.8401
728.8762, 268.5534
729.3583, 276.3946
729.8405, 284.2122
730.3226, 291.7754
730.8047, 299.3063
731.2868, 306.9280
731.7689, 314.6917
732.2510, 322.6320
732.7332, 331.5221
733.2153, 340.4107
733.6974, 347.3326
734.1795, 351.5999
734.6616, 355.7872
735.1437, 360.8730
735.6259, 365.9228
736.1080, 368.6097
736.5901, 368.9806
737.0722, 367.4538
737.5543, 364.0298
738.0364, 358.9603
738.5186, 352.2191
739.0007, 344.0453
739.4828, 335.0831
739.9649, 326.4565
740.4470, 316.3076
740.9291, 302.7109
741.4113, 286.0988
741.8934, 271.8510
742.3755, 261.1692
742.8576, 250.6275
743.3397, 238.4250
743.8218, 224.9449
744.3040, 213.5699
744.7861, 204.4363
745.2682, 195.6498
745.7503, 185.1948
746.2324, 174.5237
746.7145, 166.4501
747.1967, 160.8770
747.6788, 156.0024
748.1609, 150.9515
748.6430, 146.1745
749.1251, 141.9394
749.6072, 138.3272
750.0894, 134.9530
750.5715, 131.7486
751.0536, 128.8397
751.5357, 126.5330
752.0178, 124.9178
752.4999, 122.3540
752.9821, 118.6670
753.4642, 115.0825
753.9463, 112.7227
754.4284, 111.3372
754.9105, 110.7076
755.3926, 110.9134
755.8748, 110.6686
756.3569, 109.0133
756.8390, 106.6049
757.3211, 103.7910
757.8032, 99.59920
758.2853, 97.56264
758.7675, 99.33652
759.2496, 101.7780
759.7318, 101.7293
760.2139, 98.68812
760.6960, 97.14380
761.1781, 97.67477
761.6602, 98.98180
762.1423, 99.54494
762.6245, 99.64636
763.1066, 100.0723
763.5887, 101.1885
764.0708, 101.9814
764.5529, 101.6020
765.0350, 100.5487
765.5172, 99.41068
765.9993, 97.54245
766.4814, 96.71314
766.9635, 97.66448
767.4456, 99.16352
767.9277, 99.48659
768.4099, 98.40563
768.8920, 97.58604
769.3741, 97.17686
769.8562, 97.40043
770.3383, 99.16647
770.8204, 101.8366
771.3026, 103.6724
771.7847, 103.9936
772.2668, 103.6079
772.7489, 102.3760
773.2310, 100.9754
773.7131, 100.4811
774.1953, 102.4680
774.6774, 103.5850
775.1595, 102.9613
775.6416, 101.5989
776.1237, 101.2450
776.6058, 101.9293
777.0880, 103.5556
777.5701, 106.4462
778.0522, 109.5988
778.5343, 111.2829
779.0164, 111.8097
779.4985, 112.0672
779.9807, 112.1734
780.4628, 112.4041
780.9449, 112.7305
781.4270, 113.3225
781.9091, 114.5440
782.3912, 118.0313
782.8734, 120.0331
783.3555, 119.1323
783.8376, 116.8523
784.3197, 117.2372
784.8018, 120.5303
785.2839, 123.6713
785.7661, 125.7645
786.2482, 127.1133
786.7303, 128.0320
787.2124, 128.5917
787.6945, 129.0198
788.1766, 129.0825
788.6588, 129.3795
789.1409, 130.2508
789.6230, 131.5943
790.1051, 133.1745
790.5872, 135.3564
791.0693, 137.0833
791.5515, 137.8074
792.0336, 138.1103
792.5157, 139.9357
792.9978, 143.2937
793.4799, 146.1890
793.9620, 147.9115
794.4442, 148.7737
794.9263, 148.4476
795.4084, 147.6075
795.8905, 148.1182
796.3726, 152.5542
796.8547, 156.6865
797.3369, 158.4063
797.8190, 158.3560
798.3011, 158.9226
798.7832, 160.0447
799.2653, 162.0614
799.7474, 165.3198
800.2296, 169.3306
800.7117, 172.8060
801.1938, 175.7647
801.6759, 178.4150
802.1580, 180.7636
802.6401, 182.9361
803.1223, 184.8991
803.6044, 186.7799
804.0865, 188.8699
804.5686, 191.3343
805.0507, 193.9812
805.5328, 197.0948
806.0150, 200.3422
806.4971, 202.6873
806.9792, 203.6187
807.4613, 205.3215
807.9434, 208.5284
808.4255, 212.7276
808.9077, 217.0654
809.3898, 221.4744
809.8719, 225.6532
810.3540, 229.3575
810.8361, 232.8920
811.3182, 236.3489
811.8004, 239.8088
812.2825, 243.5429
812.7646, 247.6284
813.2467, 251.9964
813.7288, 256.6642
814.2109, 261.5994
814.6931, 266.6873
815.1752, 272.0013
815.6573, 277.2110
816.1394, 282.2979
816.6215, 287.1966
817.1037, 291.6563
817.5858, 295.8152
818.0679, 300.1458
818.5500, 305.0063
819.0322, 309.9397
819.5143, 314.2139
819.9964, 318.4028
820.4785, 323.8226
820.9606, 331.8749
821.4427, 338.3696
821.9249, 342.0929
822.4070, 344.5436
822.8891, 349.1315
823.3712, 355.5875
823.8533, 360.8187
824.3354, 363.5908
824.8176, 365.6581
825.2997, 368.8766
825.7818, 372.7999
826.2639, 376.5890
826.7460, 380.3108
827.2281, 383.5068
827.7103, 386.2154
828.1924, 388.3212
828.6745, 389.4156
829.1566, 388.9711
829.6387, 389.8711
830.1208, 393.0688
830.6030, 396.4536
831.0851, 396.2134
831.5672, 393.4794
832.0493, 391.3973
832.5314, 391.0492
833.0135, 390.9028
833.4957, 389.6774
833.9778, 388.1743
834.4599, 387.3192
834.9420, 389.0408
835.4241, 388.7644
835.9063, 385.5304
836.3884, 381.4565
836.8705, 379.5260
837.3526, 379.6388
837.8347, 377.7492
838.3168, 373.0909
838.7990, 367.7292
839.2811, 363.5186
839.7632, 360.0212
840.2453, 356.6559
840.7274, 353.2467
841.2095, 350.0399
841.6917, 348.0840
842.1738, 345.6301
842.6559, 341.1303
843.1380, 333.6691
843.6201, 327.3481
844.1022, 322.1905
844.5844, 318.0965
845.0665, 315.5910
845.5486, 314.0106
846.0307, 311.5186
846.5128, 307.9276
846.9949, 304.0906
847.4771, 300.1686
847.9592, 296.5268
848.4413, 293.6698
848.9234, 291.9543
849.4055, 289.1635
849.8876, 284.4643
850.3698, 279.9794
850.8519, 276.9959
851.3340, 275.4126
851.8161, 274.3806
852.2982, 273.8925
852.7803, 273.2672
853.2625, 272.0468
853.7446, 270.4024
854.2267, 268.2707
854.7088, 265.7296
855.1909, 263.5298
855.6730, 262.6216
856.1552, 261.3921
856.6373, 259.2641
857.1194, 256.2989
857.6015, 252.9074
858.0836, 249.0501
858.5657, 244.8960
859.0479, 240.6864
859.5300, 236.0574
860.0121, 230.1490
860.4942, 223.2119
860.9763, 216.1431
861.4584, 209.7175
861.9406, 203.0986
862.4227, 195.8288
862.9048, 188.0640
863.3869, 180.5956
863.8690, 173.3220
864.3511, 166.4756
864.8333, 160.0889
865.3154, 153.6126
865.7975, 147.8912
866.2796, 141.6609
866.7617, 135.9079
867.2438, 130.5665
867.7260, 126.0821
868.2081, 123.2730
868.6902, 121.3561
869.1723, 119.0471
869.6544, 115.1004
870.1365, 112.2012
870.6187, 111.0295
871.1008, 110.3442
871.5829, 108.0783
872.0650, 104.3717
872.5471, 102.3218
873.0292, 102.6506
873.5114, 103.3635
873.9935, 102.4737
874.4756, 100.7160
874.9577, 98.94475
875.4399, 97.19492
875.9220, 95.82117
876.4041, 95.10324
876.8862, 94.65200
877.3683, 94.23253
877.8505, 93.81988
878.3326, 93.71197
878.8147, 93.97742
879.2968, 94.04619
879.7789, 92.68996
880.2610, 91.12129
880.7432, 91.78799
881.2253, 94.73498
881.7074, 97.09470
882.1895, 98.39433
882.6716, 97.92275
883.1537, 94.44394
883.6359, 88.24908
884.1180, 83.91881
884.6001, 81.74012
885.0822, 80.12077
885.5643, 78.35030
886.0464, 76.58125
886.5286, 75.42107
887.0107, 74.66020
887.4928, 73.42192
887.9749, 70.51957
888.4570, 67.79359
888.9391, 65.89833
889.4213, 64.95296
889.9034, 65.36403
890.3855, 68.35072
890.8676, 69.64510
891.3497, 67.93827
891.8318, 64.75991
892.3140, 62.68724
892.7961, 61.59345
893.2782, 61.03107
893.7603, 61.02008
894.2424, 61.15706
894.7245, 61.23856
895.2067, 61.25559
895.6888, 61.19728
896.1709, 61.09256
896.6530, 60.83750
897.1351, 60.34755
897.6172, 59.84313
898.0994, 59.87017
898.5815, 60.22866
899.0636, 58.74599
899.5457, 55.06601
900.0278, 52.73012
900.5099, 57.20649
900.9921, 62.67181
901.4742, 62.88093
901.9563, 56.14968
902.4384, 52.42457
902.9205, 54.63984
903.4026, 57.32994
903.8848, 57.72010
904.3669, 56.21157
904.8490, 57.13189
905.3311, 60.30636
905.8132, 61.29881
906.2953, 55.02594
906.7775, 47.10515
907.2596, 42.92353
907.7417, 41.84595
908.2238, 41.28269
908.7059, 41.13011
909.1880, 40.66616
909.6702, 39.43106
910.1523, 37.98992
910.6344, 37.94383
911.1165, 39.25530
911.5986, 40.03609
912.0807, 39.56773
912.5629, 38.88523
913.0450, 39.66660
913.5271, 40.84410
914.0092, 40.72199
914.4913, 37.56239
914.9734, 35.42484
915.4556, 35.54142
915.9377, 36.29671
916.4198, 36.12210
916.9019, 34.91758
917.3840, 34.77890
917.8661, 35.93364
918.3483, 37.01329
918.8304, 36.31657
919.3125, 35.09529
919.7946, 35.10952
920.2767, 36.54836
920.7589, 37.50050
921.2410, 37.00778
921.7231, 36.27720
922.2052, 35.63046
922.6873, 35.12119
923.1694, 35.49459
923.6516, 36.78659
924.1337, 37.57214
924.6158, 36.86148
925.0979, 35.48805
925.5800, 34.41820
926.0621, 33.58123
926.5443, 32.78695
927.0264, 31.28159
927.5085, 30.75608
927.9906, 32.11289
928.4727, 34.17836
928.9548, 34.86230
929.4370, 34.10275
929.9191, 33.82640
930.4012, 34.50196
930.8833, 35.14610
931.3654, 34.47811
931.8475, 33.16814
932.3297, 32.06752
932.8118, 31.31956
933.2939, 30.91992
933.7761, 31.20010
934.2582, 31.49099
934.7403, 31.24533
935.2224, 30.42980
935.7045, 30.80364
936.1866, 32.42442
936.6688, 33.69330
937.1509, 32.93280
937.6330, 31.59739
938.1151, 31.52710
938.5972, 32.47911
939.0793, 32.97824
939.5615, 32.04537
940.0436, 31.28392
940.5257, 31.30745
941.0078, 31.65298
941.4899, 30.92452
941.9720, 29.16897
942.4542, 27.52395
942.9363, 26.04825
943.4184, 25.42154
943.9005, 27.56602
944.3826, 30.55445
944.8647, 31.62415
945.3469, 28.44650
945.8290, 26.50203
946.3111, 26.53749
946.7932, 27.48363
947.2753, 28.73722
947.7574, 30.25768
948.2396, 30.67800
948.7217, 29.94868
949.2038, 29.35564
949.6859, 30.37260
950.1680, 31.62525
950.6501, 31.60295
951.1323, 30.34049
951.6144, 30.01649
952.0965, 31.85670
952.5786, 32.93972
953.0607, 32.07070
953.5428, 30.04298
954.0250, 29.40009
954.5071, 29.88173
954.9892, 29.91224
955.4713, 28.56294
955.9534, 27.11980
956.4355, 26.10723
956.9177, 25.77227
957.3998, 26.57019
957.8819, 30.06240
958.3640, 31.67854
958.8461, 30.87442
959.3282, 29.09257
959.8104, 27.36549
960.2925, 25.93960
960.7746, 26.17765
961.2567, 28.17351
961.7388, 29.66636
962.2209, 28.64166
962.7031, 27.09397
963.1852, 26.16193
963.6673, 25.92839
964.1494, 26.77237
964.6315, 29.40068
965.1136, 30.50233
965.5958, 28.09002
966.0779, 24.19512
966.5600, 22.82926
967.0421, 23.46167
967.5242, 24.73632
968.0063, 27.19750
968.4885, 28.72135
968.9706, 27.40364
969.4527, 25.32947
969.9348, 25.23174
970.4169, 27.76675
970.8990, 28.90577
971.3812, 28.24392
971.8633, 27.16604
972.3454, 26.87466
972.8275, 27.13187
973.3096, 27.85828
973.7917, 29.01470
974.2739, 29.52240
974.7560, 28.50644
975.2381, 27.27251
975.7202, 26.22836
976.2023, 25.38198
976.6844, 24.60669
977.1666, 23.90498
977.6487, 24.05039
978.1308, 25.88291
978.6129, 27.85028
979.0950, 28.20773
979.5771, 27.61362
980.0593, 27.15558
980.5414, 27.45972
981.0235, 27.35470
981.5056, 26.55792
981.9877, 25.68368
982.4698, 25.29966
982.9520, 25.37590
983.4341, 25.90290
983.9162, 26.86907
984.3983, 27.56011
984.8804, 27.29133
985.3625, 26.69718
985.8447, 26.13624
986.3268, 25.65181
986.8089, 25.38471
987.2910, 25.36138
987.7731, 25.51013
988.2552, 25.90627
988.7374, 26.32924
989.2195, 26.08706
989.7016, 25.50884
990.1837, 25.53859
990.6658, 27.07223
991.1479, 28.10459
991.6301, 26.91079
992.1122, 25.41432
992.5944, 25.77621
993.0765, 28.70064
993.5586, 29.29415
994.0407, 27.26672
994.5228, 24.86145
995.0049, 23.67146
995.4871, 23.34570
995.9692, 23.76264
996.4513, 24.73869
996.9334, 25.21262
997.4155, 23.91170
997.8976, 23.30490
998.3798, 24.39704
998.8619, 26.24653
999.3440, 26.47887
999.8261, 25.24854
1000.308, 23.93442
1000.790, 22.72458
1001.272, 22.09929
1001.755, 22.96835
1002.237, 24.34566
1002.719, 25.14209
1003.201, 24.99881
1003.683, 24.95593
1004.165, 24.94488
1004.647, 25.20890
1005.129, 26.31009
1005.612, 27.73131
1006.094, 27.69419
1006.576, 26.50763
1007.058, 25.62600
1007.540, 26.17320
1008.022, 26.76229
1008.504, 27.08957
1008.986, 26.98786
1009.468, 25.74746
1009.951, 23.03126
1010.433, 22.30567
1010.915, 24.45148
1011.397, 26.99287
1011.879, 27.09783
1012.361, 25.96789
1012.843, 24.98234
1013.325, 24.34842
1013.807, 23.86961
1014.290, 23.63747
1014.772, 23.35176
1015.254, 22.81504
1015.736, 22.14528
1016.218, 21.84105
1016.700, 21.85654
1017.182, 21.90673
1017.664, 21.50101
1018.147, 21.56811
1018.629, 23.31133
1019.111, 25.65859
1019.593, 26.99321
1020.075, 27.07163
1020.557, 26.73177
1021.039, 25.97445
1021.521, 24.93373
1022.003, 23.05103
1022.486, 21.25630
1022.968, 21.75014
1023.450, 24.38881
1023.932, 26.30637
1024.414, 25.91391
1024.896, 25.09906
1025.378, 24.29217
1025.860, 23.61442
1026.343, 23.54718
1026.825, 24.03790
1027.307, 24.29559
1027.789, 24.00498
1028.271, 23.74816
1028.753, 24.29667
1029.235, 25.02700
1029.717, 25.21104
1030.199, 24.58432
1030.682, 23.89057
1031.164, 22.88523
1031.646, 22.49129
1032.128, 23.85987
1032.610, 26.05032
1033.092, 26.33914
1033.574, 25.22178
1034.056, 24.50844
1034.539, 25.17956
1035.021, 26.20678
1035.503, 27.93386
1035.985, 29.41388
1036.467, 29.10416
1036.949, 26.95003
1037.431, 25.25214
1037.913, 24.26229
1038.396, 23.83871
1038.878, 24.33785
1039.360, 24.98875
1039.842, 25.02073
1040.324, 24.36475
1040.806, 23.74835
1041.288, 23.11987
1041.770, 22.75435
1042.252, 22.78152
1042.734, 23.05212
1043.217, 23.37511
1043.699, 23.68222
1044.181, 23.78027
1044.663, 23.52473
1045.145, 23.26142
1045.627, 23.07609
1046.109, 22.97717
1046.591, 22.98529
1047.074, 23.10460
1047.556, 23.16299
1048.038, 23.16019
1048.520, 23.38238
1049.002, 24.34728
1049.484, 25.32421
1049.966, 25.58564
1050.448, 25.34818
1050.931, 25.25055
1051.413, 25.41566
1051.895, 25.64816
1052.377, 26.03266
1052.859, 26.21884
1053.341, 25.57361
1053.823, 24.45835
1054.305, 23.60821
1054.787, 23.10891
1055.270, 22.94916
1055.752, 23.25231
1056.234, 23.78901
1056.716, 24.55215
1057.198, 25.42800
1057.680, 26.10318
1058.162, 26.54690
1058.644, 26.15834
1059.126, 24.39869
1059.609, 22.62735
1060.091, 22.16039
1060.573, 22.31432
1061.055, 22.29254
1061.537, 21.81754
1062.019, 22.02570
1062.501, 23.07361
1062.983, 24.23654
1063.466, 25.54635
1063.948, 26.37377
1064.430, 24.88722
1064.912, 21.87356
1065.394, 19.68481
1065.876, 19.81559
1066.358, 20.07490
1066.840, 19.81141
1067.323, 19.79265
1067.805, 21.54175
1068.287, 24.62589
1068.769, 25.50371
1069.251, 23.91077
1069.733, 22.31980
1070.215, 23.00256
1070.697, 23.77642
1071.179, 22.66449
1071.661, 20.32096
1072.144, 19.85579
1072.626, 21.58908
1073.108, 23.01702
1073.590, 23.40826
1074.072, 23.50792
1074.554, 24.60048
1075.036, 25.79301
1075.518, 25.71601
1076.001, 23.71041
1076.483, 22.43835
1076.965, 22.30072
1077.447, 22.48330
1077.929, 22.58333
1078.411, 22.69788
1078.893, 23.24592
1079.375, 24.06616
1079.858, 24.62066
1080.340, 24.31131
1080.822, 24.24697
1081.304, 25.14730
1081.786, 26.21203
1082.268, 26.80242
1082.750, 26.91537
1083.232, 26.29759
1083.714, 24.94915
1084.197, 23.74633
1084.679, 23.28734
1085.161, 23.23840
1085.643, 23.66930
1086.125, 24.29445
1086.607, 24.20029
1087.089, 23.04551
1087.571, 22.40917
1088.054, 22.63948
1088.536, 22.99034
1089.018, 22.29613
1089.500, 21.30227
1089.982, 21.17515
1090.464, 22.05088
1090.946, 22.91461
1091.428, 23.66764
1091.911, 24.21124
1092.393, 24.48417
1092.875, 24.55721
1093.357, 24.62382
1093.839, 24.63492
1094.321, 24.34589
1094.803, 23.46543
1095.285, 23.01078
1095.767, 24.34903
1096.250, 25.44775
1096.732, 24.59075
1097.214, 21.96232
1097.696, 21.64586
1098.178, 23.50799
1098.660, 24.78617
1099.142, 23.49483
1099.624, 21.75914
1100.106, 21.27480
1100.589, 21.36901
1101.071, 20.82445
1101.553, 18.89702
1102.035, 18.82672
1102.517, 20.94240
1102.999, 23.39816
1103.481, 25.20679
1103.963, 26.05973
1104.446, 24.83922
1104.928, 22.13820
1105.410, 20.39813
1105.892, 20.58627
1106.374, 21.16570
1106.856, 22.18553
1107.338, 23.06281
1107.820, 22.70978
1108.302, 21.67037
1108.785, 21.23783
1109.267, 21.56534
1109.749, 22.18286
1110.231, 23.51306
1110.713, 24.32772
1111.195, 23.97066
1111.677, 22.95424
1112.159, 22.87365
1112.641, 23.52307
1113.124, 23.49750
1113.606, 22.23982
1114.088, 21.14399
1114.570, 21.39460
1115.052, 21.98862
1115.534, 22.05097
1116.016, 21.61102
1116.498, 21.86405
1116.981, 22.84566
1117.463, 23.43944
1117.945, 22.83027
1118.427, 22.14765
1118.909, 22.80002
1119.391, 23.97607
1119.873, 24.50228
1120.355, 24.10679
1120.838, 23.42720
1121.320, 22.33833
1121.802, 21.50422
1122.284, 21.66862
1122.766, 22.19492
1123.248, 21.80029
1123.730, 20.96518
1124.212, 20.98819
1124.694, 23.73284
1125.177, 25.01686
1125.659, 24.05614
1126.141, 22.56487
1126.623, 22.33983
1127.105, 23.00953
1127.587, 23.85844
1128.069, 24.74241
1128.551, 24.97969
1129.033, 23.67605
1129.516, 22.40076
1129.998, 21.52057
1130.480, 20.97812
1130.962, 20.72334
1131.444, 20.72110
1131.926, 20.85958
1132.408, 21.13855
1132.890, 21.18853
1133.373, 20.36144
1133.855, 19.65842
1134.337, 19.65155
1134.819, 20.20508
1135.301, 21.16766
1135.783, 22.48825
1136.265, 22.67937
1136.747, 21.04065
1137.229, 19.47501
1137.712, 20.11835
1138.194, 21.19648
1138.676, 20.84343
1139.158, 19.03221
1139.640, 18.26949
1140.122, 18.62072
1140.604, 19.44318
1141.086, 20.95173
1141.569, 21.94544
1142.051, 19.95858
1142.533, 17.16674
1143.015, 16.79385
1143.497, 20.53035
1143.979, 22.25871
1144.461, 21.58912
1144.943, 20.37374
1145.426, 19.44421
1145.908, 18.91168
1146.390, 19.25872
1146.872, 20.11181
1147.354, 20.69407
1147.836, 20.29724
1148.318, 20.45603
1148.800, 21.48287
1149.282, 22.41754
1149.765, 22.27275
1150.247, 21.50874
1150.729, 21.18377
1151.211, 21.20130
1151.693, 21.05536
1152.175, 19.71724
1152.657, 19.53879
1153.139, 21.54499
1153.621, 23.76310
1154.104, 23.48056
1154.586, 21.49284
1155.068, 20.38395
1155.550, 20.28649
1156.032, 20.66294
1156.514, 22.34002
1156.996, 22.96507
1157.478, 21.07287
1157.961, 18.51945
1158.443, 19.24490
1158.925, 22.49329
1159.407, 23.71418
1159.889, 22.21555
1160.371, 20.84538
1160.853, 21.85912
1161.335, 22.88716
1161.818, 22.54755
1162.300, 21.36933
1162.782, 20.92454
1163.264, 21.15154
1163.746, 21.23170
1164.228, 20.94202
1164.710, 20.75756
1165.192, 20.92116
1165.674, 21.42948
1166.156, 22.57229
1166.639, 24.11511
1167.121, 24.39071
1167.603, 23.40581
1168.085, 22.58464
1168.567, 22.41241
1169.049, 22.43032
1169.531, 22.27268
1170.013, 22.09115
1170.496, 21.95066
1170.978, 21.83926
1171.460, 22.62400
1171.942, 24.41540
1172.424, 25.09085
1172.906, 23.02802
1173.388, 20.64443
1173.870, 20.45809
1174.353, 21.38114
1174.835, 22.04980
1175.317, 22.36533
1175.799, 22.39667
1176.281, 22.10842
1176.763, 21.83140
1177.245, 21.92544
1177.727, 21.93534
1178.209, 20.78055
1178.692, 19.36866
1179.174, 19.38846
1179.656, 21.83885
1180.138, 23.44875
1180.620, 24.20220
1181.102, 24.25893
1181.584, 23.07602
1182.066, 21.76741
1182.548, 22.05318
1183.031, 23.28985
1183.513, 23.92812
1183.995, 23.35447
1184.477, 23.10126
1184.959, 23.33449
1185.441, 23.47706
1185.923, 22.75276
1186.405, 21.81101
1186.888, 21.48925
1187.370, 21.74362
1187.852, 22.40873
1188.334, 24.22855
1188.816, 24.64960
1189.298, 23.12689
1189.780, 21.23620
1190.262, 20.45002
1190.745, 20.43209
1191.227, 20.87845
1191.709, 21.66590
1192.191, 22.35690
1192.673, 23.48969
1193.155, 22.96691
1193.637, 19.82349
1194.119, 16.83147
1194.601, 17.98580
1195.084, 21.12385
1195.566, 22.94400
1196.048, 23.24877
1196.530, 22.97731
1197.012, 21.80104
1197.494, 21.20969
1197.976, 21.67214
1198.458, 22.36843
1198.941, 22.02687
1199.423, 21.17154
1199.905, 20.74789
1200.387, 20.84087
1200.869, 20.69673
1201.351, 19.76333
1201.833, 19.46315
1202.315, 20.33044
1202.797, 21.60513
1203.280, 22.06262
1203.762, 22.05397
1204.244, 22.20977
1204.726, 22.63445
1205.208, 22.90143
1205.690, 22.84333
1206.172, 22.79729
1206.654, 22.78688
1207.136, 22.98217
1207.619, 24.45279
1208.101, 26.05112
1208.583, 25.31337
1209.065, 21.34667
1209.547, 18.84376
1210.029, 18.67192
1210.511, 19.49578
1210.993, 21.29549
1211.476, 23.11496
1211.958, 22.76090
1212.440, 21.34426
1212.922, 21.10073
1213.404, 22.92041
1213.886, 23.25023
1214.368, 20.91199
1214.850, 19.10926
1215.333, 19.36386
1215.815, 20.62173
1216.297, 21.14884
1216.779, 21.20763
1217.261, 21.32544
1217.743, 21.75434
1218.225, 21.53082
1218.707, 20.18054
1219.189, 19.33268
1219.672, 20.03738
1220.154, 21.31172
1220.636, 21.24161
1221.118, 20.45444
1221.600, 20.06360
1222.082, 20.44026
1222.564, 20.89266
1223.046, 21.34954
1223.528, 22.00329
1224.011, 23.17295
1224.493, 24.33573
1224.975, 24.70213
1225.457, 24.38056
1225.939, 23.44527
1226.421, 21.29428
1226.903, 20.42316
1227.385, 21.20225
1227.868, 22.01637
1228.350, 22.06358
1228.832, 21.51698
1229.314, 20.19338
1229.796, 18.62228
1230.278, 17.67066
1230.760, 17.35109
1231.242, 18.49154
1231.724, 21.53979
1232.207, 23.93068
1232.689, 23.74180
1233.171, 22.48935
1233.653, 21.90522
1234.135, 21.72413
1234.617, 21.47217
1235.099, 20.95489
1235.581, 20.87904
1236.063, 21.31901
1236.546, 21.68696
1237.028, 21.47689
1237.510, 21.15884
1237.992, 21.54115
1238.474, 22.03268
1238.956, 21.44837
1239.438, 19.15554
1239.920, 18.48437
1240.403, 19.54016
1240.885, 20.88941
1241.367, 21.86322
1241.849, 22.47727
1242.331, 22.70484
1242.813, 22.56871
1243.295, 22.02081
1243.777, 20.86847
1244.260, 20.45216
1244.742, 20.76535
1245.224, 21.48390
1245.706, 23.09637
1246.188, 24.30226
1246.670, 24.14918
1247.152, 23.05465
1247.634, 21.48467
1248.116, 19.30153
1248.599, 18.61186
1249.081, 19.32577
1249.563, 19.94175
1250.045, 19.19039
1250.527, 18.53355
1251.009, 18.88800
1251.491, 19.63477
1251.973, 20.17595
1252.455, 20.51705
1252.938, 20.93216
1253.420, 21.36835
1253.902, 21.41726
1254.384, 20.33837
1254.866, 19.49211
1255.348, 19.35003
1255.830, 19.66829
1256.313, 20.51143
1256.795, 21.70154
1257.277, 21.88436
1257.759, 21.28023
1258.241, 21.04510
1258.723, 22.27234
1259.205, 23.14329
1259.687, 23.39652
1260.169, 23.09244
1260.651, 21.94772
1261.134, 20.34976
1261.616, 19.39541
1262.098, 19.09566
1262.580, 19.40348
1263.062, 21.15659
1263.544, 22.18751
1264.026, 22.22098
1264.508, 21.76442
1264.991, 20.87255
1265.473, 19.98377
1265.955, 20.06173
1266.437, 20.83894
1266.919, 21.60268
1267.401, 22.32235
1267.883, 22.78284
1268.365, 23.05110
1268.848, 22.79947
1269.330, 21.00341
1269.812, 19.15208
1270.294, 19.66608
1270.776, 21.49258
1271.258, 22.17357
1271.740, 20.81600
1272.222, 20.81584
1272.704, 22.40430
1273.187, 23.60407
1273.669, 22.25353
1274.151, 20.69979
1274.633, 21.86819
1275.115, 23.77279
1275.597, 22.89843
1276.079, 18.42074
1276.561, 17.14572
1277.043, 19.00667
1277.526, 20.79254
1278.008, 20.00115
1278.490, 19.17669
1278.972, 19.98016
1279.454, 21.39581
1279.936, 22.67733
1280.418, 23.76565
1280.900, 22.65109
1281.383, 19.79577
1281.865, 18.15508
1282.347, 20.57434
1282.829, 22.45792
1283.311, 21.82754
1283.793, 20.67499
1284.275, 20.38890
1284.757, 20.82070
1285.240, 21.69766
1285.722, 22.76648
1286.204, 23.14869
1286.686, 21.73755
1287.168, 21.09142
1287.650, 21.85421
1288.132, 22.52698
1288.614, 21.79239
1289.096, 20.47876
1289.578, 20.32395
1290.061, 20.89726
1290.543, 21.31561
1291.025, 21.23693
1291.507, 21.29448
1291.989, 21.48595
1292.471, 21.84052
1292.953, 22.57151
1293.435, 23.22105
1293.918, 23.06407
1294.400, 22.55381
1294.882, 22.40099
1295.364, 22.70329
1295.846, 22.72784
1296.328, 22.47232
1296.810, 22.06431
1297.292, 21.26624
1297.775, 20.87269
1298.257, 21.81706
1298.739, 23.23721
1299.221, 24.50475
1299.703, 25.53218
1300.185, 25.15649
1300.667, 23.56349
1301.149, 21.71049
1301.631, 19.49431
1302.114, 18.34919
1302.596, 18.84555
##END=



