##NAMES=Desautelsite
##RRUFFID=R060303
##IDEAL CHEMISTRY=Mg_6_Mn^3+^_2_CO_3_(OH)_16_&#183;4H_2_O
##LOCALITY=1.5 miles west of San Benito mountain, southern San Benito County, California, USA
##OWNER=RRUFF
##SOURCE=Michael Scott
##DESCRIPTION=A druse of orange colored thin hexagonal crystals
##STATUS=The identification of this mineral has been confirmed by single-crystal X-ray diffraction.
##URL=rruff.info/R060303
91.53320, 277.1753
92.01532, 276.5851
92.49744, 275.7069
92.97955, 278.7630
93.46167, 281.7744
93.94379, 281.3870
94.42590, 278.9783
94.90802, 275.7079
95.39014, 271.9752
95.87225, 267.5822
96.35437, 263.5915
96.83649, 260.7394
97.31860, 258.5526
97.80072, 256.5897
98.28284, 254.4266
98.76495, 251.8461
99.24707, 248.9698
99.72919, 245.2236
100.2113, 241.9243
100.6934, 239.2383
101.1755, 237.1573
101.6577, 235.7170
102.1398, 235.0367
102.6219, 235.3824
103.1040, 235.0037
103.5861, 233.4854
104.0682, 231.7513
104.5504, 230.0627
105.0325, 228.5457
105.5146, 227.4442
105.9967, 227.2040
106.4788, 228.4041
106.9609, 228.8814
107.4431, 228.1866
107.9252, 226.7808
108.4073, 225.1526
108.8894, 223.3238
109.3715, 221.6382
109.8536, 220.7158
110.3358, 220.5748
110.8179, 220.7323
111.3000, 221.1829
111.7821, 221.8625
112.2642, 222.0952
112.7463, 221.0659
113.2285, 219.8007
113.7106, 219.4328
114.1927, 220.3480
114.6748, 221.6397
115.1569, 221.9955
115.6390, 221.0401
116.1212, 220.0838
116.6033, 219.4968
117.0854, 219.1038
117.5675, 218.7834
118.0496, 218.5046
118.5317, 218.2040
119.0139, 217.5785
119.4960, 216.1114
119.9781, 214.8498
120.4602, 214.0071
120.9423, 213.4981
121.4244, 213.1737
121.9066, 212.9399
122.3887, 212.8124
122.8708, 212.5261
123.3529, 212.1090
123.8350, 211.5549
124.3171, 210.7169
124.7993, 209.6563
125.2814, 208.7136
125.7635, 208.2675
126.2456, 208.4618
126.7277, 208.4753
127.2098, 208.4224
127.6920, 208.1261
128.1741, 207.2183
128.6562, 205.5157
129.1383, 203.7535
129.6204, 203.0311
130.1025, 203.2185
130.5847, 203.3114
131.0668, 202.9993
131.5489, 202.2939
132.0310, 201.1746
132.5131, 199.2876
132.9952, 197.3454
133.4774, 195.9512
133.9595, 195.1155
134.4416, 194.5106
134.9237, 193.9979
135.4058, 193.6518
135.8879, 192.8651
136.3701, 191.0543
136.8522, 189.0670
137.3343, 187.3217
137.8164, 185.9231
138.2985, 184.8205
138.7806, 183.9767
139.2628, 183.7430
139.7449, 183.1000
140.2270, 181.7508
140.7091, 180.1161
141.1912, 178.4828
141.6733, 176.9890
142.1555, 175.6884
142.6376, 174.7999
143.1197, 175.1758
143.6018, 175.0270
144.0839, 173.8048
144.5660, 171.9692
145.0482, 170.2586
145.5303, 169.1182
146.0124, 168.4583
146.4945, 167.5730
146.9766, 166.4132
147.4587, 165.1397
147.9409, 163.8184
148.4230, 162.4429
148.9051, 160.9565
149.3872, 159.2306
149.8693, 157.3537
150.3514, 155.7457
150.8336, 154.6046
151.3157, 153.6196
151.7978, 152.4461
152.2799, 151.0256
152.7620, 149.7471
153.2441, 149.1988
153.7263, 148.9904
154.2084, 148.4254
154.6905, 147.0408
155.1726, 145.1831
155.6547, 143.6302
156.1368, 142.5562
156.6190, 141.4933
157.1011, 140.1541
157.5832, 138.6387
158.0653, 137.1204
158.5474, 135.7017
159.0295, 134.3793
159.5117, 133.1157
159.9938, 131.9188
160.4759, 130.7727
160.9580, 129.6557
161.4401, 128.5818
161.9222, 127.5981
162.4044, 126.7809
162.8865, 126.1801
163.3686, 125.4166
163.8507, 124.2965
164.3328, 123.1865
164.8149, 122.2724
165.2971, 121.5428
165.7792, 120.8831
166.2613, 120.1731
166.7434, 119.4819
167.2255, 118.4908
167.7076, 116.8387
168.1898, 115.1706
168.6719, 114.0521
169.1540, 113.5574
169.6361, 113.2065
170.1182, 112.2569
170.6003, 110.2078
171.0825, 108.8900
171.5646, 109.0940
172.0467, 109.7996
172.5288, 109.8027
173.0109, 108.7252
173.4930, 107.1286
173.9752, 105.8510
174.4573, 104.8775
174.9394, 104.0557
175.4215, 103.3796
175.9036, 102.8186
176.3857, 102.3514
176.8679, 102.0553
177.3500, 101.7020
177.8321, 100.9471
178.3142, 99.75426
178.7963, 98.59249
179.2784, 97.69443
179.7606, 97.04806
180.2427, 96.64530
180.7248, 96.70776
181.2069, 96.82594
181.6890, 96.61484
182.1711, 96.03561
182.6533, 95.37405
183.1354, 94.88981
183.6175, 94.59805
184.0996, 94.36507
184.5817, 94.15530
185.0638, 94.00449
185.5460, 94.05108
186.0281, 94.30805
186.5102, 94.46463
186.9923, 93.98533
187.4744, 92.50937
187.9565, 91.35954
188.4387, 90.91723
188.9208, 90.67976
189.4029, 90.26235
189.8850, 89.55324
190.3671, 88.77071
190.8492, 88.33819
191.3314, 88.53804
191.8135, 88.65767
192.2956, 88.65971
192.7777, 88.57052
193.2598, 88.46143
193.7419, 88.35364
194.2241, 88.14034
194.7062, 87.56401
195.1883, 86.00034
195.6704, 84.77991
196.1525, 83.96430
196.6346, 83.49886
197.1168, 83.41418
197.5989, 83.74128
198.0810, 84.28124
198.5631, 84.44468
199.0452, 83.91940
199.5273, 83.45975
200.0095, 83.12783
200.4916, 82.94469
200.9737, 82.99914
201.4558, 83.38417
201.9379, 83.92525
202.4200, 84.10644
202.9022, 83.83107
203.3843, 83.46883
203.8664, 83.12692
204.3485, 82.79394
204.8306, 82.42061
205.3127, 81.94092
205.7949, 81.46379
206.2770, 81.21956
206.7591, 81.27083
207.2412, 81.38705
207.7233, 81.53609
208.2054, 81.68364
208.6876, 81.58746
209.1697, 81.00411
209.6518, 80.22384
210.1339, 79.70430
210.6160, 79.53190
211.0981, 79.42485
211.5803, 79.03552
212.0624, 78.36216
212.5445, 78.06153
213.0266, 78.81071
213.5087, 79.77235
213.9908, 80.12646
214.4730, 79.69272
214.9551, 78.98553
215.4372, 78.54980
215.9193, 78.42303
216.4014, 78.32522
216.8836, 77.98745
217.3657, 77.76365
217.8478, 78.00974
218.3299, 78.81924
218.8120, 79.76258
219.2941, 80.23814
219.7763, 80.12593
220.2584, 79.92706
220.7405, 79.64261
221.2226, 79.36190
221.7047, 79.18803
222.1868, 79.14076
222.6690, 79.08694
223.1511, 78.76791
223.6332, 77.95385
224.1153, 77.40539
224.5974, 77.28303
225.0795, 77.34843
225.5617, 77.43948
226.0438, 77.50920
226.5259, 77.61288
227.0080, 77.88107
227.4901, 78.56465
227.9722, 78.93237
228.4544, 78.78517
228.9365, 78.47099
229.4186, 78.24990
229.9007, 78.19736
230.3828, 78.22141
230.8649, 78.15127
231.3471, 77.78359
231.8292, 77.66706
232.3113, 78.12905
232.7934, 78.63100
233.2755, 78.61217
233.7576, 77.95444
234.2398, 77.11979
234.7219, 76.89677
235.2040, 77.85039
235.6861, 78.43161
236.1682, 78.37972
236.6503, 78.10636
237.1325, 77.98121
237.6146, 78.10123
238.0967, 78.31657
238.5788, 78.40711
239.0609, 78.31812
239.5430, 78.21216
240.0252, 78.03758
240.5073, 77.87564
240.9894, 77.84278
241.4715, 77.96558
241.9536, 78.10213
242.4357, 78.00475
242.9179, 77.54768
243.4000, 77.44991
243.8821, 78.19810
244.3642, 79.14590
244.8463, 79.55853
245.3284, 79.27921
245.8106, 78.69556
246.2927, 78.15532
246.7748, 77.64457
247.2569, 77.42854
247.7390, 77.75954
248.2211, 78.31480
248.7033, 78.73971
249.1854, 78.98534
249.6675, 79.07979
250.1496, 79.01252
250.6317, 78.80070
251.1138, 78.52482
251.5960, 77.87818
252.0781, 77.30954
252.5602, 77.61621
253.0423, 79.02921
253.5244, 80.38663
254.0065, 80.45336
254.4887, 79.62553
254.9708, 78.92787
255.4529, 78.64221
255.9350, 78.61720
256.4171, 78.69102
256.8992, 78.88477
257.3813, 79.05809
257.8635, 79.02074
258.3456, 78.89958
258.8277, 78.92651
259.3098, 79.28669
259.7919, 79.75826
260.2740, 80.03039
260.7562, 80.08395
261.2383, 80.01835
261.7204, 79.73399
262.2025, 79.40005
262.6846, 79.22456
263.1667, 79.25426
263.6489, 79.48271
264.1310, 80.03566
264.6131, 81.05694
265.0952, 81.77412
265.5773, 81.55997
266.0594, 80.97069
266.5416, 80.46626
267.0237, 80.14350
267.5058, 80.01302
267.9879, 80.16216
268.4700, 80.67311
268.9521, 81.08401
269.4343, 81.21666
269.9164, 81.19428
270.3985, 81.02839
270.8806, 80.70223
271.3627, 80.42531
271.8448, 80.53052
272.3270, 81.12021
272.8091, 81.55807
273.2912, 81.62582
273.7733, 81.52847
274.2554, 81.33617
274.7375, 81.06747
275.2197, 80.79795
275.7018, 80.68806
276.1839, 80.80964
276.6660, 80.62247
277.1481, 79.51259
277.6302, 78.46300
278.1124, 78.03091
278.5945, 78.21957
279.0766, 78.61589
279.5587, 78.89419
280.0408, 79.07211
280.5229, 78.98137
281.0051, 78.09993
281.4872, 77.38877
281.9693, 77.45384
282.4514, 78.11549
282.9335, 78.69582
283.4156, 78.57408
283.8978, 77.73421
284.3799, 76.95427
284.8620, 76.22099
285.3441, 75.57199
285.8262, 75.00686
286.3083, 74.53438
286.7905, 74.17809
287.2726, 73.98051
287.7547, 73.92036
288.2368, 73.79586
288.7189, 73.52528
289.2010, 73.28519
289.6832, 73.21368
290.1653, 73.18687
290.6474, 72.99841
291.1295, 72.50864
291.6116, 71.80883
292.0938, 71.27315
292.5759, 70.99513
293.0580, 70.76787
293.5401, 70.57274
294.0222, 70.39188
294.5043, 70.23438
294.9865, 70.10848
295.4686, 69.95140
295.9507, 69.55931
296.4328, 68.57561
296.9149, 68.02095
297.3970, 68.43941
297.8792, 69.03909
298.3613, 69.09355
298.8434, 68.39604
299.3255, 67.33089
299.8076, 66.50282
300.2897, 65.92004
300.7719, 65.58492
301.2540, 65.69719
301.7361, 65.86762
302.2182, 65.87617
302.7003, 65.67465
303.1824, 65.32108
303.6646, 64.83560
304.1467, 64.12103
304.6288, 63.64176
305.1109, 63.60564
305.5930, 63.60506
306.0751, 63.47432
306.5573, 63.20499
307.0394, 62.86149
307.5215, 62.49373
308.0036, 62.09699
308.4857, 61.71367
308.9678, 61.17693
309.4500, 60.82157
309.9321, 60.97765
310.4142, 61.38879
310.8963, 61.51664
311.3784, 60.94769
311.8605, 59.80237
312.3427, 59.03755
312.8248, 58.78822
313.3069, 58.80984
313.7890, 59.37210
314.2711, 60.07886
314.7532, 60.42610
315.2354, 60.15690
315.7175, 59.43628
316.1996, 58.70823
316.6817, 57.77058
317.1638, 57.17399
317.6459, 57.26499
318.1281, 57.52677
318.6102, 57.41719
319.0923, 56.78908
319.5744, 56.03086
320.0565, 55.84919
320.5386, 56.65499
321.0208, 57.08445
321.5029, 56.81822
321.9850, 56.42142
322.4671, 56.30433
322.9492, 56.47478
323.4313, 56.59764
323.9135, 56.24310
324.3956, 55.26095
324.8777, 54.56752
325.3598, 54.41695
325.8419, 54.31793
326.3240, 54.08485
326.8062, 53.73953
327.2883, 53.41128
327.7704, 53.23421
328.2525, 53.18537
328.7346, 52.83357
329.2167, 51.61133
329.6989, 50.73406
330.1810, 50.72636
330.6631, 51.19219
331.1452, 51.51918
331.6273, 51.35907
332.1094, 50.91235
332.5916, 50.85075
333.0737, 51.61422
333.5558, 51.99628
334.0379, 51.50388
334.5200, 50.74542
335.0021, 50.31521
335.4843, 50.39983
335.9664, 50.70642
336.4485, 50.76626
336.9306, 50.50097
337.4127, 50.21807
337.8948, 49.70675
338.3770, 49.36612
338.8591, 49.62776
339.3412, 50.42220
339.8233, 51.14602
340.3055, 51.08036
340.7876, 50.11718
341.2697, 49.46423
341.7518, 49.41761
342.2339, 49.41579
342.7160, 49.21777
343.1982, 48.88673
343.6803, 48.60736
344.1624, 48.51987
344.6445, 48.58216
345.1266, 48.58204
345.6087, 48.48936
346.0909, 48.37970
346.5730, 48.27168
347.0551, 48.16667
347.5372, 48.06941
348.0193, 47.98283
348.5014, 47.89778
348.9836, 47.81312
349.4657, 47.75719
349.9478, 47.60616
350.4299, 47.23751
350.9120, 46.81578
351.3941, 46.42640
351.8763, 46.08986
352.3584, 45.85471
352.8405, 45.76772
353.3226, 45.82888
353.8047, 46.05690
354.2868, 46.78368
354.7690, 47.32129
355.2511, 46.95884
355.7332, 45.93790
356.2153, 45.29057
356.6974, 46.14473
357.1795, 47.98673
357.6617, 48.68730
358.1438, 47.73748
358.6259, 46.64148
359.1080, 46.27528
359.5901, 46.32906
360.0722, 46.32188
360.5544, 46.06185
361.0365, 45.69218
361.5186, 45.38172
362.0007, 45.12658
362.4828, 44.97270
362.9649, 44.89862
363.4471, 44.97297
363.9292, 45.36687
364.4113, 46.20262
364.8934, 46.88393
365.3755, 46.85873
365.8576, 46.23941
366.3398, 45.63030
366.8219, 45.13249
367.3040, 44.73897
367.7861, 44.40466
368.2682, 44.13116
368.7503, 44.02482
369.2325, 44.24982
369.7146, 44.63353
370.1967, 44.89463
370.6788, 45.00842
371.1609, 45.00324
371.6430, 44.83701
372.1252, 44.56091
372.6073, 44.35126
373.0894, 44.28408
373.5715, 44.24889
374.0536, 44.09066
374.5357, 43.85208
375.0179, 43.82976
375.5000, 44.27537
375.9821, 44.92642
376.4642, 45.15763
376.9463, 44.85825
377.4284, 44.46754
377.9106, 44.05809
378.3927, 43.68166
378.8748, 43.41642
379.3569, 43.27983
379.8390, 43.29107
380.3211, 43.55381
380.8033, 44.16011
381.2854, 44.43671
381.7675, 44.12306
382.2496, 43.61461
382.7317, 43.08532
383.2138, 42.60738
383.6960, 42.42140
384.1781, 42.76811
384.6602, 43.59680
385.1423, 44.15886
385.6244, 44.41868
386.1065, 44.51055
386.5887, 44.31451
387.0708, 44.00770
387.5529, 43.93885
388.0350, 44.27419
388.5171, 44.76345
388.9992, 44.84687
389.4814, 44.02019
389.9635, 43.55768
390.4456, 43.79077
390.9277, 44.16278
391.4098, 44.18378
391.8919, 43.81460
392.3741, 43.38608
392.8562, 43.25635
393.3383, 43.47998
393.8204, 43.58216
394.3025, 43.39391
394.7846, 43.26810
395.2668, 43.35864
395.7489, 43.59655
396.2310, 43.83108
396.7131, 43.96917
397.1952, 44.06324
397.6773, 44.31416
398.1595, 44.91541
398.6416, 45.34909
399.1237, 45.59299
399.6058, 45.64050
400.0879, 45.34536
400.5700, 44.72869
401.0522, 44.18877
401.5343, 44.31897
402.0164, 45.28382
402.4985, 45.93341
402.9806, 45.95145
403.4627, 45.89479
403.9449, 46.05957
404.4270, 46.34961
404.9091, 46.47273
405.3912, 46.16622
405.8733, 45.60227
406.3554, 45.33181
406.8376, 45.43398
407.3197, 45.63177
407.8018, 45.82161
408.2839, 46.04494
408.7660, 46.39454
409.2481, 46.93241
409.7303, 47.39653
410.2124, 47.43615
410.6945, 47.08577
411.1766, 46.89190
411.6587, 47.01510
412.1408, 47.27777
412.6230, 47.48628
413.1051, 47.65713
413.5872, 47.92691
414.0693, 48.53100
414.5514, 49.20400
415.0335, 49.43456
415.5157, 49.15258
415.9978, 48.88911
416.4799, 48.95521
416.9620, 49.31844
417.4441, 49.82097
417.9262, 50.61696
418.4084, 51.34000
418.8905, 51.81882
419.3726, 52.06467
419.8547, 52.04839
420.3368, 51.71263
420.8189, 51.26814
421.3011, 51.04058
421.7832, 51.03751
422.2653, 51.20100
422.7474, 51.63578
423.2295, 52.16137
423.7116, 52.65900
424.1938, 53.10431
424.6759, 53.48199
425.1580, 53.77845
425.6401, 53.99558
426.1222, 54.17583
426.6043, 54.28048
427.0865, 54.39866
427.5686, 54.51763
428.0507, 54.67431
428.5328, 54.95979
429.0149, 55.40396
429.4970, 55.86981
429.9792, 56.10873
430.4613, 55.99105
430.9434, 55.92314
431.4255, 55.96951
431.9076, 56.00056
432.3897, 55.79056
432.8719, 55.46853
433.3540, 55.47678
433.8361, 56.27193
434.3182, 57.67592
434.8003, 58.36073
435.2824, 57.81246
435.7646, 57.30189
436.2467, 57.08561
436.7288, 57.09084
437.2109, 57.29039
437.6930, 57.67837
438.1751, 58.10007
438.6573, 58.36295
439.1394, 58.45795
439.6215, 58.50854
440.1036, 58.49612
440.5857, 58.47959
441.0678, 58.41166
441.5500, 58.35015
442.0321, 58.50172
442.5142, 59.12394
442.9963, 59.96449
443.4784, 60.60390
443.9605, 61.04344
444.4427, 61.24915
444.9248, 60.97213
445.4069, 60.56519
445.8890, 60.71992
446.3711, 61.75371
446.8532, 62.54062
447.3354, 62.12751
447.8175, 61.05631
448.2996, 60.53271
448.7817, 60.85502
449.2638, 61.55532
449.7459, 62.24516
450.2281, 62.92505
450.7102, 63.26199
451.1923, 62.84160
451.6744, 62.43162
452.1565, 62.70374
452.6386, 63.41872
453.1208, 63.74150
453.6029, 63.18288
454.0850, 62.13937
454.5671, 61.71403
455.0492, 62.60411
455.5313, 63.18461
456.0135, 63.32452
456.4956, 63.22486
456.9777, 63.00945
457.4598, 62.71660
457.9419, 62.35654
458.4240, 61.91768
458.9062, 61.39832
459.3883, 61.00578
459.8704, 60.79375
460.3525, 60.65976
460.8346, 60.70227
461.3167, 60.76583
461.7989, 60.64360
462.2810, 60.25409
462.7631, 59.72995
463.2452, 59.26884
463.7273, 58.88232
464.2094, 58.48956
464.6916, 58.09765
465.1737, 57.67772
465.6558, 57.13806
466.1379, 56.54033
466.6200, 56.09484
467.1021, 56.04345
467.5843, 56.16161
468.0664, 55.96564
468.5485, 55.41078
469.0306, 54.85028
469.5127, 54.36096
469.9948, 54.01601
470.4770, 53.95173
470.9591, 54.25393
471.4412, 54.53042
471.9233, 54.59531
472.4054, 54.50031
472.8875, 54.31012
473.3697, 54.03064
473.8518, 53.74137
474.3339, 53.49821
474.8160, 53.30852
475.2981, 53.20995
475.7802, 53.23005
476.2624, 53.30885
476.7445, 53.53024
477.2266, 53.77377
477.7087, 53.74830
478.1908, 53.33208
478.6729, 52.81567
479.1551, 52.73262
479.6372, 53.29076
480.1193, 53.81798
480.6014, 54.49787
481.0835, 54.99137
481.5656, 54.99916
482.0478, 54.64684
482.5299, 54.27178
483.0120, 54.07925
483.4941, 54.06390
483.9762, 54.23478
484.4583, 54.70515
484.9405, 55.13284
485.4226, 55.44775
485.9047, 55.70246
486.3868, 55.91632
486.8689, 56.09923
487.3510, 56.28281
487.8332, 56.46954
488.3153, 56.67234
488.7974, 56.98368
489.2795, 57.45882
489.7616, 57.91256
490.2437, 58.15253
490.7259, 58.31646
491.2080, 58.63606
491.6901, 59.21153
492.1722, 59.82542
492.6543, 60.38966
493.1364, 60.86938
493.6186, 61.09168
494.1007, 60.95337
494.5828, 60.81834
495.0649, 61.14038
495.5470, 61.97442
496.0291, 62.70006
496.5113, 63.20560
496.9934, 63.68731
497.4755, 64.27605
497.9576, 64.93397
498.4397, 65.46088
498.9218, 65.73041
499.4040, 66.06934
499.8861, 67.28365
500.3682, 70.43159
500.8503, 72.46437
501.3324, 72.65620
501.8145, 72.49747
502.2967, 72.79312
502.7788, 73.57032
503.2609, 74.50364
503.7430, 75.34061
504.2251, 76.19734
504.7072, 77.59581
505.1894, 79.89706
505.6715, 81.92382
506.1536, 83.12369
506.6357, 84.10777
507.1178, 85.31817
507.5999, 86.81330
508.0821, 88.41193
508.5642, 89.91656
509.0463, 91.41981
509.5284, 93.27010
510.0105, 95.55732
510.4926, 97.85766
510.9748, 99.79030
511.4569, 101.5771
511.9390, 103.7904
512.4211, 106.8160
512.9032, 109.5853
513.3853, 111.1713
513.8674, 112.2522
514.3495, 114.0303
514.8317, 116.7891
515.3138, 119.9024
515.7959, 122.7562
516.2780, 125.3370
516.7601, 127.9876
517.2422, 130.7672
517.7244, 133.5508
518.2065, 136.3069
518.6886, 139.0391
519.1707, 141.7077
519.6528, 144.3054
520.1349, 146.9869
520.6171, 150.0588
521.0992, 153.7366
521.5813, 156.9299
522.0634, 159.3974
522.5455, 161.5846
523.0276, 163.3313
523.5098, 164.9618
523.9919, 167.0907
524.4740, 170.1165
524.9561, 173.4134
525.4382, 176.0243
525.9203, 177.9181
526.4025, 180.1039
526.8846, 183.1441
527.3667, 186.0735
527.8488, 187.6737
528.3309, 188.1905
528.8130, 189.3039
529.2952, 192.4309
529.7773, 195.6502
530.2594, 196.9457
530.7415, 196.6580
531.2236, 196.5678
531.7057, 197.5344
532.1879, 198.8981
532.6700, 199.3758
533.1521, 198.5385
533.6342, 197.7321
534.1163, 196.9528
534.5984, 196.2361
535.0806, 195.7947
535.5627, 195.4501
536.0448, 194.7317
536.5269, 193.3397
537.0090, 191.4318
537.4911, 189.5230
537.9733, 187.7302
538.4554, 185.6284
538.9375, 183.0604
539.4196, 180.2761
539.9017, 177.2917
540.3839, 174.1838
540.8660, 171.2075
541.3481, 168.6323
541.8302, 166.2368
542.3123, 163.4572
542.7944, 160.2419
543.2766, 157.1738
543.7587, 154.6965
544.2408, 152.3098
544.7229, 149.2214
545.2050, 145.3343
545.6871, 141.6552
546.1693, 138.5051
546.6514, 135.7648
547.1335, 133.4353
547.6156, 131.4422
548.0977, 129.3591
548.5798, 126.9045
549.0620, 124.2082
549.5441, 121.7301
550.0262, 119.7269
550.5083, 117.6071
550.9904, 115.0792
551.4725, 112.6491
551.9547, 110.8103
552.4368, 109.4695
552.9189, 108.1061
553.4010, 106.3266
553.8831, 104.2470
554.3652, 102.3695
554.8474, 100.7877
555.3295, 99.19546
555.8116, 97.54273
556.2937, 95.83121
556.7758, 93.95762
557.2579, 91.96452
557.7401, 90.20840
558.2222, 88.99168
558.7043, 88.11502
559.1864, 87.31831
559.6685, 86.59934
560.1506, 85.60967
560.6328, 84.08170
561.1149, 82.28376
561.5970, 80.75853
562.0791, 79.49979
562.5612, 78.46867
563.0433, 77.89913
563.5255, 77.37748
564.0076, 76.59464
564.4897, 75.52695
564.9718, 74.19498
565.4539, 72.57620
565.9360, 70.81787
566.4182, 69.42912
566.9003, 68.47610
567.3824, 67.77341
567.8645, 67.71443
568.3466, 67.52745
568.8287, 66.56605
569.3109, 64.99449
569.7930, 63.53736
570.2751, 62.65131
570.7572, 62.14111
571.2393, 61.68267
571.7214, 61.29966
572.2036, 60.68921
572.6857, 59.63301
573.1678, 58.44716
573.6499, 57.48417
574.1320, 56.73991
574.6141, 56.07851
575.0963, 55.48262
575.5784, 54.94280
576.0605, 54.55846
576.5426, 54.23932
577.0247, 53.61546
577.5068, 52.48167
577.9890, 51.21821
578.4711, 50.57922
578.9532, 50.98561
579.4353, 50.94477
579.9174, 50.17072
580.3995, 49.29549
580.8817, 48.50976
581.3638, 47.87061
581.8459, 47.46528
582.3280, 47.35239
582.8101, 47.34272
583.2922, 47.09505
583.7744, 46.58623
584.2565, 46.21642
584.7386, 46.22607
585.2207, 46.10538
585.7029, 45.30225
586.1850, 44.09657
586.6671, 43.21073
587.1492, 42.89375
587.6313, 42.83568
588.1135, 43.01648
588.5956, 43.26432
589.0777, 43.09275
589.5598, 42.36934
590.0419, 41.55902
590.5240, 41.17872
591.0062, 41.25724
591.4883, 41.12798
591.9704, 40.62221
592.4525, 40.13995
592.9346, 39.66616
593.4167, 39.32636
593.8989, 39.36710
594.3810, 39.78336
594.8631, 40.15657
595.3452, 39.96723
595.8273, 39.28549
596.3094, 38.95932
596.7916, 39.16156
597.2737, 39.32300
597.7558, 39.25722
598.2379, 38.99202
598.7200, 38.43232
599.2021, 37.51362
599.6843, 36.83178
600.1664, 36.90244
600.6485, 37.28407
601.1306, 37.29525
601.6127, 36.93010
602.0948, 36.68237
602.5770, 36.88255
603.0591, 37.31092
603.5412, 37.35606
604.0233, 36.67168
604.5054, 36.15735
604.9875, 35.82209
605.4697, 35.64363
605.9518, 35.69871
606.4339, 35.89790
606.9160, 36.04066
607.3981, 36.01149
607.8802, 35.88419
608.3624, 35.80946
608.8445, 35.80033
609.3266, 35.73254
609.8087, 35.50941
610.2908, 35.32613
610.7729, 35.44283
611.2551, 35.72200
611.7372, 35.73250
612.2193, 35.14003
612.7014, 34.52896
613.1835, 34.33123
613.6656, 34.42171
614.1478, 34.55324
614.6299, 34.66319
615.1120, 34.76671
615.5941, 34.92189
616.0762, 35.12999
616.5583, 34.91776
617.0405, 33.64156
617.5226, 32.75114
618.0047, 32.72548
618.4868, 33.04179
618.9689, 33.19701
619.4510, 33.11560
619.9332, 33.03989
620.4153, 33.24869
620.8974, 33.60998
621.3795, 33.55450
621.8616, 32.96425
622.3438, 32.60123
622.8259, 32.87326
623.3080, 33.40419
623.7901, 33.73885
624.2722, 33.88313
624.7543, 33.80693
625.2365, 33.25039
625.7186, 32.68143
626.2007, 32.56798
626.6828, 32.77083
627.1649, 32.82824
627.6470, 32.54128
628.1292, 32.17574
628.6113, 32.20383
629.0934, 32.80194
629.5755, 33.05319
630.0576, 32.58435
630.5397, 32.15419
631.0219, 31.95715
631.5040, 31.94046
631.9861, 32.06715
632.4682, 32.33363
632.9503, 32.54193
633.4324, 32.49686
633.9146, 32.24829
634.3967, 31.88653
634.8788, 31.38964
635.3609, 31.09439
635.8430, 31.31468
636.3251, 31.81051
636.8073, 31.84394
637.2894, 31.15560
637.7715, 30.69874
638.2536, 30.74244
638.7357, 30.96441
639.2178, 31.19956
639.7000, 31.39344
640.1821, 31.48163
640.6642, 31.42502
641.1463, 31.28325
641.6284, 31.16437
642.1105, 31.06291
642.5927, 31.02555
643.0748, 31.16562
643.5569, 31.22788
644.0390, 30.96984
644.5211, 30.55668
645.0032, 30.32095
645.4854, 30.35396
645.9675, 30.54168
646.4496, 31.00406
646.9317, 31.51089
647.4138, 31.53374
647.8959, 31.03073
648.3781, 30.55841
648.8602, 30.55610
649.3423, 30.89972
649.8244, 31.00207
650.3065, 30.63892
650.7886, 30.36456
651.2708, 30.15303
651.7529, 30.06953
652.2350, 30.28963
652.7171, 30.67979
653.1992, 30.85310
653.6813, 30.53497
654.1635, 30.08179
654.6456, 30.10368
655.1277, 30.55458
655.6098, 30.85852
656.0919, 30.90035
656.5740, 30.79293
657.0562, 30.59790
657.5383, 30.32334
658.0204, 30.05352
658.5025, 29.63619
658.9846, 29.41577
659.4667, 29.69394
659.9489, 30.09680
660.4310, 30.19201
660.9131, 29.97305
661.3952, 29.75334
661.8773, 29.77269
662.3594, 29.94485
662.8416, 29.94589
663.3237, 29.67439
663.8058, 29.61598
664.2879, 30.05271
664.7700, 30.52579
665.2521, 30.71605
665.7343, 30.67251
666.2164, 30.56944
666.6985, 30.43357
667.1806, 30.28092
667.6627, 30.03329
668.1448, 29.79968
668.6270, 29.86027
669.1091, 30.24619
669.5912, 30.63047
670.0733, 30.73221
670.5554, 30.57546
671.0375, 30.32342
671.5197, 29.83715
672.0018, 29.48903
672.4839, 29.50859
672.9660, 29.50695
673.4481, 29.07907
673.9302, 28.37458
674.4124, 27.93025
674.8945, 28.04523
675.3766, 28.50274
675.8587, 29.22137
676.3408, 30.08983
676.8229, 30.54872
677.3051, 30.44309
677.7872, 30.14460
678.2693, 29.96562
678.7514, 29.89262
679.2335, 29.76872
679.7156, 29.50245
680.1978, 29.31260
680.6799, 29.19817
681.1620, 29.19507
681.6441, 29.45112
682.1262, 29.86650
682.6083, 30.08365
683.0905, 29.82859
683.5726, 29.37067
684.0547, 29.26987
684.5368, 29.52548
685.0189, 29.58029
685.5010, 29.20170
685.9832, 28.89812
686.4653, 29.20672
686.9474, 29.98330
687.4295, 30.45865
687.9116, 30.49343
688.3937, 30.39104
688.8759, 30.20332
689.3580, 29.94422
689.8401, 29.56873
690.3222, 29.12283
690.8043, 28.74142
691.2864, 28.49303
691.7686, 28.43089
692.2507, 28.78211
692.7328, 29.65749
693.2149, 30.23653
693.6970, 30.33609
694.1791, 30.22292
694.6613, 30.02194
695.1434, 29.75525
695.6255, 29.45333
696.1076, 29.06245
696.5897, 28.75747
697.0718, 28.62089
697.5540, 28.61045
698.0361, 28.73177
698.5182, 28.94413
699.0003, 29.12505
699.4824, 29.20776
699.9645, 29.16533
700.4467, 28.86335
700.9288, 28.14002
701.4109, 27.77602
701.8930, 28.06410
702.3751, 28.41880
702.8572, 28.50960
703.3394, 28.48220
703.8215, 28.63003
704.3036, 29.09083
704.7857, 29.40086
705.2678, 29.13452
705.7499, 28.64283
706.2321, 28.42816
706.7142, 28.47839
707.1963, 28.48155
707.6784, 28.26893
708.1605, 27.94950
708.6426, 27.72971
709.1248, 27.60860
709.6069, 27.59184
710.0890, 27.74126
710.5711, 27.92664
711.0532, 28.26306
711.5353, 28.53598
712.0175, 28.37439
712.4996, 27.68414
712.9817, 27.09910
713.4638, 27.11143
713.9459, 27.39989
714.4280, 27.49662
714.9102, 27.43340
715.3923, 27.52863
715.8744, 27.93777
716.3565, 28.36640
716.8386, 28.34971
717.3207, 27.80022
717.8029, 27.44250
718.2850, 27.42317
718.7671, 27.42429
719.2492, 27.37334
719.7313, 27.30986
720.2134, 27.25379
720.6956, 27.21708
721.1777, 27.25229
721.6598, 27.52753
722.1419, 27.79833
722.6240, 27.64406
723.1061, 27.18716
723.5883, 26.96372
724.0704, 27.14589
724.5525, 27.36163
725.0346, 27.19034
725.5167, 26.64745
725.9988, 26.31811
726.4810, 26.31595
726.9631, 26.37143
727.4452, 26.51041
727.9273, 26.64483
728.4094, 26.66494
728.8915, 26.61298
729.3737, 26.66282
729.8558, 26.94141
730.3379, 27.27498
730.8200, 27.54520
731.3021, 27.71841
731.7842, 27.60470
732.2664, 27.18075
732.7485, 26.91706
733.2306, 27.23576
733.7127, 27.91826
734.1948, 28.06531
734.6769, 27.09571
735.1591, 26.65529
735.6412, 27.26364
736.1233, 27.89060
736.6054, 27.96452
737.0875, 27.69299
737.5696, 27.53576
738.0518, 27.66447
738.5339, 27.75020
739.0160, 27.39805
739.4981, 26.87542
739.9802, 26.68449
740.4623, 26.83728
740.9445, 27.12213
741.4266, 27.45755
741.9087, 27.75551
742.3908, 27.85606
742.8729, 27.73498
743.3550, 27.51719
743.8372, 26.91931
744.3193, 26.57250
744.8014, 26.88906
745.2835, 27.39885
745.7656, 27.55273
746.2477, 27.29093
746.7299, 27.03519
747.2120, 26.99218
747.6941, 27.09365
748.1762, 27.32838
748.6583, 27.64364
749.1404, 27.90622
749.6226, 28.07602
750.1047, 28.08336
750.5868, 27.80571
751.0689, 27.29612
751.5510, 27.15248
752.0331, 27.63363
752.5153, 27.98367
752.9974, 28.09332
753.4795, 28.02555
753.9616, 27.66668
754.4437, 27.15180
754.9258, 26.89589
755.4080, 27.14231
755.8901, 27.44409
756.3722, 27.49403
756.8543, 27.40905
757.3364, 27.31212
757.8185, 27.24561
758.3007, 27.33006
758.7828, 27.65866
759.2649, 28.05744
759.7470, 28.13018
760.2291, 27.80217
760.7112, 27.49422
761.1934, 27.11780
761.6755, 26.91441
762.1576, 27.14462
762.6397, 27.54172
763.1218, 27.80457
763.6039, 27.91484
764.0861, 27.84121
764.5682, 27.35006
765.0503, 26.87657
765.5324, 26.79586
766.0145, 26.98320
766.4966, 27.17965
766.9788, 27.30633
767.4609, 27.42193
767.9430, 27.58713
768.4251, 27.79151
768.9072, 28.02424
769.3893, 28.33523
769.8715, 28.37621
770.3536, 27.87197
770.8357, 27.34306
771.3178, 27.39804
771.7999, 27.88982
772.2820, 28.04840
772.7642, 27.45829
773.2463, 27.03412
773.7284, 27.23881
774.2105, 27.54438
774.6926, 27.29750
775.1747, 26.72133
775.6569, 26.68970
776.1390, 27.69688
776.6211, 28.83612
777.1032, 28.65921
777.5853, 27.44369
778.0674, 26.81005
778.5496, 26.91787
779.0317, 27.21682
779.5138, 27.51208
779.9959, 27.73598
780.4780, 27.76172
780.9601, 27.54885
781.4423, 27.28725
781.9244, 26.83405
782.4065, 26.50726
782.8886, 26.39467
783.3707, 26.46842
783.8528, 26.78663
784.3350, 27.29411
784.8171, 27.69726
785.2992, 27.81069
785.7813, 27.73685
786.2634, 27.53585
786.7455, 27.25889
787.2277, 27.08307
787.7098, 27.04291
788.1919, 27.04517
788.6740, 27.02459
789.1561, 26.97952
789.6382, 26.89476
790.1204, 26.72037
790.6025, 26.62774
791.0846, 26.64784
791.5667, 26.72975
792.0488, 26.96667
792.5309, 27.20691
793.0131, 27.17218
793.4952, 26.77310
793.9773, 26.43168
794.4594, 26.35015
794.9415, 26.40830
795.4236, 26.45265
795.9058, 26.55260
796.3879, 27.02084
796.8700, 27.89675
797.3521, 28.55988
797.8342, 28.23688
798.3163, 27.20324
798.7985, 27.01547
799.2806, 27.87681
799.7627, 28.36900
800.2448, 28.00038
800.7269, 27.46290
801.2090, 27.33874
801.6912, 27.56433
802.1733, 27.75113
802.6554, 27.98400
803.1375, 28.04080
803.6196, 27.63857
804.1017, 27.26437
804.5839, 27.34331
805.0660, 27.71651
805.5481, 28.01123
806.0302, 28.09063
806.5123, 28.06869
806.9944, 28.01587
807.4766, 27.95999
807.9587, 27.96780
808.4408, 28.03985
808.9229, 28.17051
809.4050, 28.36972
809.8871, 28.54969
810.3693, 28.60093
810.8514, 28.52450
811.3335, 28.44668
811.8156, 28.40839
812.2977, 28.29888
812.7798, 27.90432
813.2620, 27.61297
813.7441, 27.80154
814.2262, 28.30123
814.7083, 28.61592
815.1904, 28.58255
815.6725, 28.42585
816.1547, 28.11860
816.6368, 27.85934
817.1189, 27.90999
817.6010, 28.22045
818.0831, 28.65134
818.5652, 29.13401
819.0474, 29.44239
819.5295, 29.16345
820.0116, 28.39037
820.4937, 28.01109
820.9758, 28.08219
821.4579, 28.22184
821.9401, 28.35059
822.4222, 28.42953
822.9043, 28.36634
823.3864, 28.17551
823.8685, 28.20076
824.3506, 28.83196
824.8328, 29.12419
825.3149, 28.60505
825.7970, 27.99448
826.2791, 27.74040
826.7612, 27.83311
827.2433, 28.21048
827.7255, 28.90869
828.2076, 29.43296
828.6897, 29.17071
829.1718, 28.56172
829.6539, 28.36880
830.1360, 28.53988
830.6182, 28.62943
831.1003, 28.46861
831.5824, 28.22473
832.0645, 28.08868
832.5466, 28.05626
833.0287, 28.10105
833.5109, 28.26275
833.9930, 28.37753
834.4751, 28.36886
834.9572, 28.35467
835.4393, 28.51879
835.9214, 28.75486
836.4036, 28.71635
836.8857, 28.16423
837.3678, 27.77020
837.8499, 27.77188
838.3320, 27.91945
838.8141, 28.14048
839.2963, 28.34024
839.7784, 28.38454
840.2605, 28.23300
840.7426, 27.96354
841.2247, 27.54708
841.7068, 27.10527
842.1890, 26.90421
842.6711, 26.90835
843.1532, 26.92694
843.6353, 26.91024
844.1174, 26.89044
844.5995, 26.88535
845.0817, 26.91214
845.5638, 27.06822
846.0459, 27.44506
846.5280, 27.69444
847.0101, 27.76236
847.4922, 27.73429
847.9744, 27.47118
848.4565, 27.21616
848.9386, 27.45585
849.4207, 28.34161
849.9028, 28.87387
850.3849, 28.47583
850.8671, 27.97946
851.3492, 27.85237
851.8313, 27.94192
852.3134, 28.02619
852.7955, 28.06527
853.2776, 28.17265
853.7598, 28.52852
854.2419, 28.76025
854.7240, 28.03877
855.2061, 26.67422
855.6882, 25.96394
856.1703, 26.06308
856.6525, 26.43946
857.1346, 26.83929
857.6167, 27.17790
858.0988, 27.26082
858.5809, 27.02671
859.0630, 26.95853
859.5452, 27.21406
860.0273, 27.35378
860.5094, 27.13731
860.9915, 26.83515
861.4736, 26.69032
861.9557, 26.68120
862.4379, 26.64609
862.9200, 26.39269
863.4021, 26.34249
863.8842, 26.89092
864.3663, 27.49633
864.8484, 27.71682
865.3306, 27.58498
865.8127, 27.19675
866.2948, 26.59444
866.7769, 26.20080
867.2590, 26.69693
867.7411, 27.59514
868.2233, 27.80463
868.7054, 27.42435
869.1875, 27.12849
869.6696, 27.11115
870.1517, 27.10101
870.6339, 26.81165
871.1160, 26.35411
871.5981, 26.27006
872.0802, 26.70408
872.5623, 26.98399
873.0444, 26.98270
873.5266, 26.92449
874.0087, 26.92938
874.4908, 26.95806
874.9729, 26.94226
875.4550, 26.88023
875.9371, 26.78324
876.4193, 26.64604
876.9014, 26.48242
877.3835, 26.20238
877.8656, 25.96467
878.3477, 26.00109
878.8298, 26.26034
879.3120, 26.43885
879.7941, 26.36124
880.2762, 26.21736
880.7583, 26.26738
881.2404, 26.34213
881.7225, 26.02527
882.2047, 25.40392
882.6868, 25.03941
883.1689, 25.17332
883.6510, 25.47818
884.1331, 25.52832
884.6152, 25.37054
885.0974, 25.39771
885.5795, 25.65589
886.0616, 25.75278
886.5437, 25.56027
887.0258, 25.26941
887.5079, 24.98401
887.9901, 24.73862
888.4722, 24.67431
888.9543, 24.91529
889.4364, 25.10277
889.9185, 25.33950
890.4006, 25.40554
890.8828, 25.03286
891.3649, 24.54717
891.8470, 24.36762
892.3291, 24.52395
892.8112, 24.67533
893.2933, 24.62246
893.7755, 24.59552
894.2576, 24.89940
894.7397, 25.21099
895.2218, 25.03517
895.7039, 24.46027
896.1860, 23.95308
896.6682, 23.73306
897.1503, 23.67427
897.6324, 23.62180
898.1145, 23.60545
898.5966, 23.76328
899.0787, 24.07215
899.5609, 24.26788
900.0430, 24.26013
900.5251, 24.24758
901.0072, 24.45848
901.4893, 24.79192
901.9714, 24.67923
902.4536, 23.87678
902.9357, 23.57307
903.4178, 24.24146
903.8999, 24.74126
904.3820, 24.20803
904.8641, 23.28646
905.3463, 23.23726
905.8284, 24.24174
906.3105, 24.59201
906.7926, 23.50634
907.2747, 22.60127
907.7568, 22.40772
908.2390, 22.56619
908.7211, 22.89468
909.2032, 23.27139
909.6853, 23.46923
910.1674, 23.37444
910.6495, 23.22513
911.1317, 23.14648
911.6138, 23.12080
912.0959, 23.24574
912.5780, 23.38321
913.0601, 23.09530
913.5422, 22.34034
914.0244, 21.79246
914.5065, 22.14064
914.9886, 21.76747
915.4707, 21.81993
915.9528, 22.14214
916.4349, 22.09396
916.9171, 22.86313
917.3992, 23.44749
917.8813, 23.27784
918.3634, 22.71895
918.8455, 22.35144
919.3276, 22.17615
919.8098, 22.19546
920.2919, 22.48339
920.7740, 22.79735
921.2561, 23.25813
921.7382, 23.49732
922.2203, 22.99244
922.7025, 22.00622
923.1846, 21.57957
923.6667, 21.98978
924.1488, 22.34622
924.6309, 22.55046
925.1130, 22.70373
925.5952, 22.92005
926.0773, 23.07205
926.5594, 22.95228
927.0415, 22.57750
927.5236, 22.23449
928.0057, 22.03715
928.4879, 21.91510
928.9700, 21.85318
929.4521, 21.81994
929.9342, 21.74651
930.4163, 21.67071
930.8984, 21.76046
931.3806, 22.06393
931.8627, 22.26191
932.3448, 21.82728
932.8269, 21.18385
933.3090, 21.35136
933.7911, 22.12030
934.2733, 22.61725
934.7554, 22.66974
935.2375, 22.47165
935.7196, 22.12766
936.2017, 21.74132
936.6838, 21.54670
937.1660, 21.55297
937.6481, 21.54464
938.1302, 21.50156
938.6123, 21.56269
939.0944, 21.87687
939.5765, 22.08597
940.0587, 21.75329
940.5408, 20.98001
941.0229, 20.52760
941.5050, 20.67966
941.9871, 20.63257
942.4692, 19.99633
942.9514, 19.57922
943.4335, 19.83615
943.9156, 20.41644
944.3977, 20.94364
944.8798, 21.38692
945.3619, 21.64023
945.8441, 21.66094
946.3262, 21.51193
946.8083, 20.96857
947.2904, 20.47819
947.7725, 20.50009
948.2546, 20.86197
948.7368, 21.13796
949.2189, 21.20090
949.7010, 21.15332
950.1831, 21.00666
950.6652, 20.83288
951.1473, 20.71261
951.6295, 20.61468
952.1116, 20.45406
952.5937, 20.24481
953.0758, 20.12857
953.5579, 20.19786
954.0400, 20.28646
954.5222, 20.07285
955.0043, 19.71553
955.4864, 19.74718
955.9685, 20.12654
956.4506, 20.43903
956.9327, 20.56017
957.4149, 20.52654
957.8970, 20.34245
958.3791, 20.08862
958.8612, 20.00887
959.3433, 20.10964
959.8254, 20.36030
960.3076, 20.85924
960.7897, 21.01792
961.2718, 20.46040
961.7539, 19.70305
962.2360, 19.38663
962.7181, 19.49665
963.2003, 19.74157
963.6824, 20.36250
964.1645, 20.60916
964.6466, 20.06896
965.1287, 19.56849
965.6108, 19.67885
966.0930, 20.04011
966.5751, 20.09298
967.0572, 19.78978
967.5393, 19.58698
968.0214, 19.47903
968.5035, 19.54773
968.9857, 20.03314
969.4678, 20.50500
969.9499, 20.61035
970.4320, 20.44927
970.9141, 20.31640
971.3962, 20.29913
971.8784, 20.14007
972.3605, 19.43591
972.8426, 18.86015
973.3247, 19.07131
973.8068, 19.56499
974.2889, 19.70363
974.7711, 19.46243
975.2532, 19.11694
975.7353, 18.76306
976.2174, 18.55187
976.6995, 18.61379
977.1816, 18.90540
977.6638, 19.54868
978.1459, 20.33585
978.6280, 20.74637
979.1101, 20.69600
979.5922, 20.45933
980.0743, 20.20770
980.5565, 19.97560
981.0386, 19.87628
981.5207, 19.84211
982.0028, 19.51638
982.4849, 18.94778
982.9670, 18.76737
983.4492, 19.19143
983.9313, 19.73918
984.4134, 19.96109
984.8955, 19.94125
985.3776, 19.94448
985.8597, 19.97261
986.3419, 19.99573
986.8240, 20.04455
987.3061, 19.79995
987.7882, 18.98714
988.2703, 18.24645
988.7524, 18.43049
989.2346, 19.42234
989.7167, 19.95853
990.1988, 19.89932
990.6809, 19.80520
991.1630, 19.70161
991.6451, 19.61545
992.1273, 19.52074
992.6094, 19.48963
993.0915, 19.69772
993.5736, 20.17509
994.0557, 20.32497
994.5378, 19.81439
995.0200, 19.46425
995.5021, 19.42496
995.9842, 19.48569
996.4663, 19.55171
996.9484, 19.63567
997.4305, 19.79421
997.9127, 20.04517
998.3948, 20.16923
998.8769, 20.14425
999.3590, 19.96957
999.8411, 19.31149
1000.323, 18.80910
1000.805, 19.16001
1001.287, 19.98892
1001.770, 20.47891
1002.252, 20.44254
1002.734, 20.31765
1003.216, 20.27787
1003.698, 20.21010
1004.180, 19.94551
1004.662, 19.69498
1005.144, 19.70758
1005.627, 19.94110
1006.109, 20.25753
1006.591, 20.61954
1007.073, 20.83521
1007.555, 20.64991
1008.037, 20.37248
1008.519, 20.36657
1009.001, 20.43847
1009.483, 20.16349
1009.966, 19.63199
1010.448, 19.36901
1010.930, 19.63078
1011.412, 20.04656
1011.894, 20.32418
1012.376, 20.46523
1012.858, 20.39347
1013.340, 20.20517
1013.823, 20.18701
1014.305, 20.34254
1014.787, 20.33150
1015.269, 19.93804
1015.751, 19.61279
1016.233, 20.27675
1016.715, 21.40596
1017.197, 21.31882
1017.679, 20.27173
1018.162, 19.60449
1018.644, 19.59730
1019.126, 19.77557
1019.608, 19.83084
1020.090, 19.84612
1020.572, 19.96388
1021.054, 20.17319
1021.536, 20.45493
1022.018, 20.79867
1022.501, 20.89835
1022.983, 20.66910
1023.465, 20.38330
1023.947, 20.22854
1024.429, 20.18582
1024.911, 20.23495
1025.393, 20.37870
1025.875, 20.48888
1026.358, 20.56586
1026.840, 20.59076
1027.322, 20.53846
1027.804, 20.54313
1028.286, 20.74935
1028.768, 21.01011
1029.250, 20.86959
1029.732, 20.19507
1030.214, 20.27017
1030.697, 21.47036
1031.179, 22.05892
1031.661, 21.34395
1032.143, 20.45711
1032.625, 20.30164
1033.107, 20.62528
1033.589, 20.69529
1034.071, 20.40222
1034.553, 20.34678
1035.036, 20.55964
1035.518, 20.96908
1036.000, 21.76203
1036.482, 22.44300
1036.964, 22.57307
1037.446, 22.31066
1037.928, 22.10722
1038.410, 21.95490
1038.893, 21.88166
1039.375, 21.76373
1039.857, 21.92956
1040.339, 22.73246
1040.821, 23.55890
1041.303, 23.90664
1041.785, 23.92471
1042.267, 24.01456
1042.750, 24.17333
1043.232, 24.41089
1043.714, 24.93904
1044.196, 25.25776
1044.678, 24.98584
1045.160, 24.71443
1045.642, 24.74741
1046.124, 25.13622
1046.606, 26.13645
1047.089, 28.08688
1047.571, 29.23319
1048.053, 28.70404
1048.535, 28.27421
1049.017, 28.43386
1049.499, 28.85649
1049.981, 29.55726
1050.463, 30.25287
1050.945, 30.19503
1051.428, 29.08115
1051.910, 28.67237
1052.392, 29.99816
1052.874, 31.13884
1053.356, 31.28246
1053.838, 31.20551
1054.320, 31.56846
1054.802, 32.15201
1055.285, 32.41176
1055.767, 32.23786
1056.249, 32.11607
1056.731, 32.16819
1057.213, 32.29931
1057.695, 32.85094
1058.177, 33.11224
1058.659, 32.23255
1059.141, 30.77345
1059.624, 29.83430
1060.106, 29.60721
1060.588, 29.38360
1061.070, 29.12790
1061.552, 28.58156
1062.034, 27.20650
1062.516, 25.92151
1062.998, 25.68763
1063.480, 25.95358
1063.963, 25.75697
1064.445, 24.93851
1064.927, 23.86577
1065.409, 22.25968
1065.891, 20.98461
1066.373, 20.56022
1066.855, 20.44250
1067.337, 20.29082
1067.820, 20.11944
1068.302, 20.05215
1068.784, 20.07754
1069.266, 19.94434
1069.748, 19.38261
1070.230, 18.95429
1070.712, 18.93598
1071.194, 19.11335
1071.677, 19.67265
1072.159, 20.12523
1072.641, 19.48661
1073.123, 17.93796
1073.605, 17.16210
1074.087, 18.17199
1074.569, 19.06368
1075.051, 18.85742
1075.533, 18.31824
1076.016, 17.81606
1076.498, 17.42799
1076.980, 17.20259
1077.462, 17.13906
1077.944, 17.25235
1078.426, 17.65012
1078.908, 17.85281
1079.390, 17.37867
1079.873, 16.92631
1080.355, 17.08113
1080.837, 17.42601
1081.319, 17.40814
1081.801, 17.11500
1082.283, 17.03228
1082.765, 17.35117
1083.247, 17.55541
1083.729, 17.18903
1084.212, 16.90581
1084.694, 17.30402
1085.176, 17.79926
1085.658, 17.66261
1086.140, 17.13809
1086.622, 16.99800
1087.104, 17.44796
1087.586, 17.70043
1088.068, 17.22950
1088.551, 16.73006
1089.033, 16.55473
1089.515, 16.49300
1089.997, 16.39707
1090.479, 16.25470
1090.961, 16.05024
1091.443, 15.78960
1091.925, 15.61485
1092.408, 15.68270
1092.890, 15.70469
1093.372, 15.43605
1093.854, 15.21277
1094.336, 15.25282
1094.818, 15.51197
1095.300, 16.03544
1095.782, 16.74018
1096.265, 17.10067
1096.747, 16.84770
1097.229, 16.46405
1097.711, 15.86699
1098.193, 15.46039
1098.675, 15.66080
1099.157, 16.05529
1099.639, 16.11968
1100.121, 15.91078
1100.604, 15.90484
1101.086, 16.35731
1101.568, 16.52795
1102.050, 15.85481
1102.532, 15.32234
1103.014, 15.45718
1103.496, 15.83653
1103.978, 16.12712
1104.460, 16.32435
1104.943, 16.51702
1105.425, 16.58579
1105.907, 16.81170
1106.389, 16.57053
1106.871, 16.34244
1107.353, 16.19681
1107.835, 16.11922
1108.317, 16.11154
1108.800, 16.15848
1109.282, 16.26307
1109.764, 16.43032
1110.246, 16.50132
1110.728, 16.47126
1111.210, 16.32976
1111.692, 15.85538
1112.174, 15.52350
1112.656, 15.70215
1113.139, 16.05382
1113.621, 16.18106
1114.103, 16.09273
1114.585, 15.94932
1115.067, 15.70298
1115.549, 15.48789
1116.031, 15.13394
1116.513, 15.06466
1116.995, 15.69245
1117.478, 16.35763
1117.960, 16.44542
1118.442, 16.12216
1118.924, 15.91795
1119.406, 15.86136
1119.888, 15.81991
1120.370, 15.86566
1120.852, 15.76515
1121.335, 15.38674
1121.817, 14.99089
1122.299, 14.71094
1122.781, 14.55829
1123.263, 14.54445
1123.745, 14.66803
1124.227, 15.08317
1124.709, 15.97167
1125.192, 16.49233
1125.674, 16.49194
1126.156, 16.22417
1126.638, 15.69801
1127.120, 15.23585
1127.602, 15.27413
1128.084, 14.99249
1128.566, 14.96793
1129.048, 15.11747
1129.531, 15.05699
1130.013, 15.61027
1130.495, 15.82266
1130.977, 15.34564
1131.459, 14.77859
1131.941, 14.60242
1132.423, 14.68758
1132.905, 14.78254
1133.387, 14.88484
1133.870, 14.86407
1134.352, 14.73872
1134.834, 15.23065
1135.316, 16.46129
1135.798, 17.23327
1136.280, 16.87693
1136.762, 16.03543
1137.244, 15.47115
1137.727, 15.13076
1138.209, 14.83215
1138.691, 14.61048
1139.173, 14.64876
1139.655, 14.93649
1140.137, 15.41452
1140.619, 16.01840
1141.101, 16.21179
1141.583, 15.42106
1142.066, 14.44216
1142.548, 14.73580
1143.030, 15.61078
1143.512, 15.61467
1143.994, 14.97289
1144.476, 14.37692
1144.958, 14.02601
1145.440, 14.05258
1145.922, 14.54752
1146.405, 15.05246
1146.887, 14.98110
1147.369, 14.84299
1147.851, 15.44296
1148.333, 16.21493
1148.815, 16.21028
1149.297, 15.62448
1149.779, 15.15852
1150.262, 15.01923
1150.744, 15.05073
1151.226, 15.29644
1151.708, 15.47194
1152.190, 15.28019
1152.672, 15.05428
1153.154, 15.16347
1153.636, 15.37179
1154.119, 15.27582
1154.601, 14.90685
1155.083, 14.61431
1155.565, 14.45384
1156.047, 14.51785
1156.529, 15.14188
1157.011, 15.60430
1157.493, 15.42975
1157.975, 15.11085
1158.458, 15.04864
1158.940, 15.16346
1159.422, 15.29472
1159.904, 15.44674
1160.386, 15.33393
1160.868, 14.49365
1161.350, 14.06534
1161.832, 14.40646
1162.314, 14.87610
1162.797, 15.40728
1163.279, 15.74566
1163.761, 15.48869
1164.243, 14.81586
1164.725, 14.61275
1165.207, 15.11736
1165.689, 15.21032
1166.171, 14.66411
1166.654, 14.41710
1167.136, 14.79073
1167.618, 15.21548
1168.100, 15.32784
1168.582, 15.24004
1169.064, 15.12388
1169.546, 14.98650
1170.028, 14.89439
1170.510, 14.84774
1170.993, 14.82570
1171.475, 14.82519
1171.957, 14.92938
1172.439, 15.17501
1172.921, 15.37781
1173.403, 15.35420
1173.885, 15.24554
1174.367, 15.40090
1174.849, 15.69373
1175.332, 15.60369
1175.814, 15.24962
1176.296, 15.20370
1176.778, 15.49684
1177.260, 15.65110
1177.742, 15.43682
1178.224, 15.11901
1178.706, 14.84949
1179.189, 14.73365
1179.671, 14.97966
1180.153, 15.41759
1180.635, 15.91805
1181.117, 16.35514
1181.599, 16.44380
1182.081, 16.19669
1182.563, 16.04581
1183.046, 16.28634
1183.528, 16.34214
1184.010, 15.51960
1184.492, 14.80570
1184.974, 15.04779
1185.456, 15.59774
1185.938, 15.82740
1186.420, 15.76051
1186.902, 15.62399
1187.385, 15.45780
1187.867, 15.14687
1188.349, 14.28382
1188.831, 13.85370
1189.313, 14.32422
1189.795, 14.92174
1190.277, 15.45214
1190.759, 15.78403
1191.241, 15.73648
1191.724, 15.38194
1192.206, 14.96929
1192.688, 14.38359
1193.170, 14.26732
1193.652, 14.82455
1194.134, 15.21237
1194.616, 15.22181
1195.098, 15.19662
1195.581, 15.35276
1196.063, 15.49528
1196.545, 15.32665
1197.027, 14.94587
1197.509, 14.76290
1197.991, 14.77440
1198.473, 14.99348
1198.955, 15.39619
1199.438, 15.70343
1199.920, 15.83284
1200.402, 15.76325
1200.884, 15.46128
1201.366, 15.15598
1201.848, 15.26785
1202.330, 15.50793
1202.812, 15.26481
1203.294, 14.75553
1203.776, 14.30894
1204.259, 14.04100
1204.741, 14.19330
1205.223, 14.76555
1205.705, 15.24663
1206.187, 15.31404
1206.669, 15.29660
1207.151, 15.46694
1207.633, 15.59320
1208.116, 15.40508
1208.598, 15.13782
1209.080, 15.04251
1209.562, 15.11665
1210.044, 15.33090
1210.526, 15.70580
1211.008, 15.85278
1211.490, 15.54696
1211.973, 15.23639
1212.455, 14.81254
1212.937, 14.64509
1213.419, 15.09664
1213.901, 15.65902
1214.383, 15.82815
1214.865, 15.69724
1215.347, 15.57074
1215.829, 15.44025
1216.312, 15.38283
1216.794, 15.42020
1217.276, 15.39874
1217.758, 15.26371
1218.240, 15.26139
1218.722, 15.51991
1219.204, 15.93328
1219.686, 16.43696
1220.168, 16.89112
1220.651, 16.94088
1221.133, 16.63077
1221.615, 15.94373
1222.097, 15.06614
1222.579, 14.74765
1223.061, 15.06168
1223.543, 15.55447
1224.025, 16.00858
1224.508, 16.41175
1224.990, 16.98986
1225.472, 17.21741
1225.954, 15.99378
1226.436, 14.61932
1226.918, 14.86754
1227.400, 15.90775
1227.882, 16.16983
1228.365, 15.60964
1228.847, 15.25035
1229.329, 15.43496
1229.811, 15.57344
1230.293, 15.35603
1230.775, 15.27104
1231.257, 15.71228
1231.739, 16.08002
1232.221, 15.94910
1232.703, 15.54529
1233.186, 14.99484
1233.668, 14.41016
1234.150, 14.64172
1234.632, 16.08254
1235.114, 16.72273
1235.596, 16.36775
1236.078, 16.05661
1236.560, 16.02249
1237.043, 16.11323
1237.525, 16.26273
1238.007, 16.34311
1238.489, 16.16253
1238.971, 15.82702
1239.453, 15.64201
1239.935, 15.54693
1240.417, 15.30488
1240.900, 14.96714
1241.382, 14.73223
1241.864, 14.65566
1242.346, 14.79116
1242.828, 15.17447
1243.310, 15.51944
1243.792, 15.58473
1244.274, 15.53637
1244.756, 15.30431
1245.239, 15.21689
1245.721, 15.90771
1246.203, 16.77095
1246.685, 16.75365
1247.167, 15.94435
1247.649, 15.36882
1248.131, 15.20423
1248.613, 15.26185
1249.095, 15.82703
1249.578, 16.13852
1250.060, 15.91317
1250.542, 15.65200
1251.024, 15.59497
1251.506, 15.64487
1251.988, 15.69786
1252.470, 15.75009
1252.952, 15.78459
1253.435, 15.80099
1253.917, 15.84155
1254.399, 15.90282
1254.881, 15.83165
1255.363, 15.61201
1255.845, 15.41982
1256.327, 15.33791
1256.809, 15.35870
1257.292, 15.52913
1257.774, 15.66888
1258.256, 15.39323
1258.738, 15.03884
1259.220, 15.14519
1259.702, 15.49359
1260.184, 15.65738
1260.666, 15.66281
1261.148, 15.85822
1261.630, 16.34133
1262.113, 16.54118
1262.595, 15.87484
1263.077, 15.45988
1263.559, 15.94110
1264.041, 16.33880
1264.523, 16.00411
1265.005, 15.53799
1265.487, 15.42044
1265.970, 15.59296
1266.452, 15.96880
1266.934, 16.55550
1267.416, 16.87739
1267.898, 16.90666
1268.380, 16.90372
1268.862, 16.90169
1269.344, 16.64311
1269.827, 16.03869
1270.309, 15.56439
1270.791, 15.56593
1271.273, 15.86305
1271.755, 16.40699
1272.237, 16.92035
1272.719, 16.76358
1273.201, 16.27353
1273.683, 15.97755
1274.166, 15.89887
1274.648, 16.00267
1275.130, 16.22728
1275.612, 16.33889
1276.094, 16.19261
1276.576, 16.18527
1277.058, 16.69345
1277.540, 17.06542
1278.022, 16.82893
1278.505, 16.61681
1278.987, 17.01932
1279.469, 17.53578
1279.951, 17.57388
1280.433, 17.23236
1280.915, 16.89019
1281.397, 16.52455
1281.879, 16.42772
1282.362, 16.64618
1282.844, 16.49985
1283.326, 15.86937
1283.808, 15.62790
1284.290, 16.13593
1284.772, 16.80168
1285.254, 17.14142
1285.736, 17.15758
##END=



