##NAMES=Descloizite
##RRUFFID=R050509
##IDEAL CHEMISTRY=Pb^2+^Zn^2+^V^5+^O_4_(OH)
##LOCALITY=Grootfontein district, Namibia
##OWNER=RRUFF
##SOURCE=University of Arizona Mineral Museum
##DESCRIPTION=Group of brown tabular crystals
##STATUS=The identification of this mineral has been confirmed by X-ray diffraction and chemical analysis
##URL=rruff.info/R050509
##MEASURED CHEMISTRY=Pb_1.00_(Zn_0.85_Cu_0.15_)_Σ=1_((V_0.97_As_0.03_)_Σ=1_O_4_)(OH) ; (OH) estimated by difference and stoichiometry
92.37695, 1255.745
92.85907, 1234.571
93.34119, 1238.629
93.82330, 1257.695
94.30542, 1275.382
94.78754, 1287.651
95.26965, 1297.148
95.75177, 1306.187
96.23389, 1315.749
96.71600, 1326.248
97.19812, 1339.119
97.68024, 1355.145
98.16235, 1372.661
98.64447, 1389.273
99.12659, 1404.388
99.60870, 1417.394
100.0908, 1431.572
100.5729, 1447.963
101.0551, 1466.940
101.5372, 1488.603
102.0193, 1512.659
102.5014, 1538.000
102.9835, 1569.190
103.4656, 1597.322
103.9478, 1624.319
104.4299, 1647.330
104.9120, 1661.930
105.3941, 1665.101
105.8762, 1656.599
106.3583, 1631.978
106.8405, 1589.969
107.3226, 1536.534
107.8047, 1471.793
108.2868, 1396.899
108.7689, 1317.573
109.2510, 1238.927
109.7332, 1160.578
110.2153, 1088.021
110.6974, 1022.016
111.1795, 962.2368
111.6616, 907.8856
112.1437, 859.4223
112.6259, 816.6138
113.1080, 778.9442
113.5901, 746.2059
114.0722, 716.6783
114.5543, 689.4830
115.0364, 664.5630
115.5185, 643.4730
116.0007, 629.2502
116.4828, 617.2333
116.9649, 604.5735
117.4470, 590.9172
117.9291, 577.2133
118.4112, 564.4825
118.8934, 552.5812
119.3755, 542.3196
119.8576, 534.0229
120.3397, 526.8626
120.8218, 520.3860
121.3039, 514.3907
121.7861, 508.7085
122.2682, 502.7976
122.7503, 496.2382
123.2324, 489.9130
123.7145, 483.8634
124.1966, 478.0764
124.6788, 472.4613
125.1609, 466.8393
125.6430, 461.3622
126.1251, 457.3889
126.6072, 455.6560
127.0893, 454.2620
127.5715, 452.3838
128.0536, 450.1093
128.5357, 448.1211
129.0178, 447.2255
129.4999, 447.0695
129.9821, 445.6720
130.4642, 441.5727
130.9463, 436.9187
131.4284, 434.0746
131.9105, 433.4066
132.3926, 433.2232
132.8748, 432.3984
133.3569, 431.1328
133.8390, 429.7223
134.3211, 428.2536
134.8032, 426.7355
135.2853, 425.1246
135.7674, 423.1683
136.2496, 421.5055
136.7317, 420.5975
137.2138, 420.2286
137.6959, 419.8665
138.1780, 419.0945
138.6601, 417.8819
139.1423, 416.5910
139.6244, 415.7031
140.1065, 414.3266
140.5886, 411.7130
141.0707, 408.0778
141.5528, 404.3626
142.0350, 401.7686
142.5171, 401.0062
142.9992, 399.5258
143.4813, 396.7587
143.9634, 393.8100
144.4455, 391.1958
144.9277, 389.1179
145.4098, 387.6948
145.8919, 387.2322
146.3740, 388.8802
146.8561, 389.3141
147.3382, 387.8361
147.8204, 385.2560
148.3025, 382.4487
148.7846, 379.6618
149.2667, 376.9667
149.7488, 374.4557
150.2309, 371.9887
150.7131, 369.9240
151.1952, 368.5727
151.6773, 367.7677
152.1594, 367.0478
152.6415, 366.3878
153.1236, 365.5593
153.6058, 364.2236
154.0879, 362.2295
154.5700, 360.2121
155.0521, 358.9409
155.5342, 358.4824
156.0163, 357.4137
156.4985, 354.6524
156.9806, 351.2942
157.4627, 348.1085
157.9448, 345.2480
158.4269, 342.7055
158.9090, 340.4829
159.3912, 338.6563
159.8733, 336.9990
160.3554, 335.9728
160.8375, 334.8391
161.3196, 332.7140
161.8017, 329.1456
162.2839, 324.8032
162.7660, 321.7756
163.2481, 321.5031
163.7302, 320.6683
164.2123, 318.3702
164.6944, 315.3795
165.1766, 312.6512
165.6587, 310.7158
166.1408, 309.4768
166.6229, 308.2574
167.1050, 307.0685
167.5871, 305.8886
168.0693, 304.6724
168.5514, 303.4600
169.0335, 302.3204
169.5156, 301.3032
169.9977, 300.4005
170.4798, 299.5661
170.9620, 298.7276
171.4441, 298.0072
171.9262, 297.4222
172.4083, 296.9904
172.8904, 296.7941
173.3725, 296.9838
173.8547, 297.5016
174.3368, 297.7523
174.8189, 297.5873
175.3010, 297.2623
175.7831, 296.8434
176.2652, 296.3209
176.7474, 296.0967
177.2295, 296.7852
177.7116, 298.0093
178.1937, 298.8218
178.6758, 298.6434
179.1579, 298.0792
179.6401, 298.0304
180.1222, 298.5986
180.6043, 299.4000
181.0864, 300.6554
181.5685, 301.9418
182.0506, 302.4544
182.5328, 301.5016
183.0149, 299.5463
183.4970, 298.0251
183.9791, 297.1536
184.4612, 296.4323
184.9433, 295.7044
185.4255, 294.9468
185.9076, 294.1077
186.3897, 293.1180
186.8718, 292.0015
187.3539, 291.0596
187.8360, 290.8102
188.3182, 290.1632
188.8003, 288.9032
189.2824, 287.0143
189.7645, 284.4096
190.2466, 280.8206
190.7287, 276.1346
191.2109, 272.9236
191.6930, 272.7028
192.1751, 272.4643
192.6572, 271.3627
193.1393, 269.4261
193.6214, 266.9641
194.1036, 264.1598
194.5857, 260.8505
195.0678, 258.5190
195.5499, 258.1146
196.0320, 257.5958
196.5141, 255.8736
196.9963, 253.0536
197.4784, 249.9817
197.9605, 247.4712
198.4426, 245.6382
198.9247, 243.4205
199.4068, 240.2297
199.8890, 237.1343
200.3711, 234.9262
200.8532, 233.6291
201.3353, 232.6326
201.8174, 231.4100
202.2995, 229.9389
202.7817, 228.4668
203.2638, 226.9676
203.7459, 225.4889
204.2280, 224.0552
204.7101, 222.6608
205.1922, 221.3661
205.6744, 220.2935
206.1565, 219.3874
206.6386, 218.3915
207.1207, 216.9795
207.6028, 215.5562
208.0849, 214.6967
208.5671, 214.4975
209.0492, 214.6427
209.5313, 215.3328
210.0134, 216.2197
210.4955, 216.4404
210.9776, 214.9894
211.4598, 212.7376
211.9419, 211.8078
212.4240, 212.8924
212.9061, 213.9036
213.3882, 213.3349
213.8703, 211.8346
214.3525, 210.5789
214.8346, 210.3362
215.3167, 210.7996
215.7988, 210.7892
216.2809, 209.8247
216.7630, 209.1396
217.2451, 209.6342
217.7273, 210.6970
218.2094, 211.1827
218.6915, 210.0780
219.1736, 207.8132
219.6557, 207.1223
220.1378, 209.8302
220.6200, 211.9160
221.1021, 211.7247
221.5842, 210.1700
222.0663, 208.7556
222.5484, 208.4661
223.0305, 209.2039
223.5127, 210.0362
223.9948, 211.1164
224.4769, 212.1270
224.9590, 213.0402
225.4411, 213.8384
225.9232, 214.5080
226.4054, 215.0476
226.8875, 215.4522
227.3696, 215.6801
227.8517, 215.5055
228.3338, 215.3849
228.8159, 215.4600
229.2981, 215.6559
229.7802, 215.8124
230.2623, 215.8143
230.7444, 215.6909
231.2265, 215.7780
231.7086, 215.7117
232.1908, 216.2178
232.6729, 218.0179
233.1550, 220.5175
233.6371, 222.6206
234.1192, 223.6648
234.6013, 223.7422
235.0835, 223.4651
235.5656, 222.0118
236.0477, 221.1522
236.5298, 221.8392
237.0119, 223.5291
237.4940, 224.9651
237.9762, 225.3645
238.4583, 225.0555
238.9404, 225.6128
239.4225, 228.2168
239.9046, 230.2175
240.3867, 230.1989
240.8689, 228.8421
241.3510, 227.7933
241.8331, 227.8452
242.3152, 228.7835
242.7973, 229.9185
243.2794, 231.2868
243.7616, 232.7463
244.2437, 234.3609
244.7258, 236.0353
245.2079, 237.4957
245.6900, 238.6522
246.1721, 239.4791
246.6543, 239.8667
247.1364, 239.5244
247.6185, 239.5426
248.1006, 240.7417
248.5827, 242.8164
249.0648, 244.6588
249.5470, 245.7987
250.0291, 246.6704
250.5112, 247.9736
250.9933, 249.7882
251.4754, 251.5252
251.9576, 252.7091
252.4397, 253.4924
252.9218, 254.6634
253.4039, 256.7392
253.8860, 258.8493
254.3681, 259.8431
254.8503, 259.7244
255.3324, 259.9016
255.8145, 261.2354
256.2966, 263.6036
256.7787, 266.4807
257.2608, 270.1669
257.7430, 273.8365
258.2251, 276.6953
258.7072, 278.8580
259.1893, 281.0869
259.6714, 284.0393
260.1535, 287.5382
260.6357, 290.4868
261.1178, 291.9629
261.5999, 294.0389
262.0820, 298.1725
262.5641, 303.9190
263.0462, 309.8954
263.5284, 315.3571
264.0105, 320.3291
264.4926, 325.0299
264.9747, 329.0453
265.4568, 333.3696
265.9389, 338.1425
266.4211, 343.5238
266.9032, 349.8684
267.3853, 357.8185
267.8674, 366.8622
268.3495, 374.6975
268.8316, 380.1730
269.3138, 386.2076
269.7959, 394.2391
270.2780, 403.3642
270.7601, 412.1675
271.2422, 419.7323
271.7243, 426.6338
272.2065, 434.7309
272.6886, 444.5394
273.1707, 454.6952
273.6528, 464.6057
274.1349, 474.6800
274.6170, 485.3648
275.0992, 496.9660
275.5813, 509.0824
276.0634, 520.5200
276.5455, 530.5861
277.0276, 541.3684
277.5097, 553.5985
277.9919, 566.4042
278.4740, 579.0331
278.9561, 591.2703
279.4382, 603.1991
279.9203, 615.1129
280.4024, 627.0261
280.8846, 638.7750
281.3667, 649.8059
281.8488, 661.0105
282.3309, 673.1505
282.8130, 686.3603
283.2951, 699.9933
283.7773, 713.3002
284.2594, 726.7924
284.7415, 738.5440
285.2236, 746.9591
285.7057, 755.0720
286.1878, 764.6837
286.6700, 775.9537
287.1521, 787.9933
287.6342, 800.0938
288.1163, 812.5802
288.5984, 823.4307
289.0805, 831.6363
289.5627, 839.2171
290.0448, 847.2536
290.5269, 855.5784
291.0090, 863.1628
291.4911, 868.9194
291.9732, 872.6321
292.4554, 877.1280
292.9375, 883.8046
293.4196, 889.8751
293.9017, 894.4456
294.3838, 897.6812
294.8659, 900.1710
295.3481, 902.3690
295.8302, 904.2147
296.3123, 904.7435
296.7944, 903.8914
297.2765, 901.6710
297.7586, 897.7982
298.2408, 892.5938
298.7229, 886.4307
299.2050, 879.5157
299.6871, 871.9608
300.1692, 864.2198
300.6513, 856.3580
301.1335, 848.2428
301.6156, 839.6080
302.0977, 830.8922
302.5798, 822.4647
303.0619, 814.5081
303.5440, 807.0246
304.0262, 799.8411
304.5083, 792.1454
304.9904, 786.2644
305.4725, 783.2922
305.9546, 781.3334
306.4367, 778.4668
306.9189, 774.4186
307.4010, 770.7736
307.8831, 769.7994
308.3652, 772.3098
308.8473, 775.6453
309.3294, 780.2076
309.8116, 785.1310
310.2937, 789.7281
310.7758, 794.0696
311.2579, 798.8145
311.7400, 804.6534
312.2221, 811.8466
312.7043, 818.6059
313.1864, 824.0732
313.6685, 830.0301
314.1506, 837.4122
314.6327, 845.9183
315.1148, 854.6685
315.5970, 862.9552
316.0791, 870.8693
316.5612, 879.6408
317.0433, 890.1644
317.5254, 900.6252
318.0075, 910.9522
318.4897, 920.8939
318.9718, 930.0695
319.4539, 938.2677
319.9360, 945.7032
320.4181, 953.1353
320.9002, 959.9984
321.3824, 967.5365
321.8645, 976.9483
322.3466, 986.4814
322.8287, 994.0842
323.3108, 999.1303
323.7929, 1003.260
324.2751, 1009.337
324.7572, 1019.131
325.2393, 1027.518
325.7214, 1033.442
326.2035, 1038.995
326.6856, 1045.874
327.1678, 1054.123
327.6499, 1062.415
328.1320, 1069.203
328.6141, 1073.972
329.0962, 1079.874
329.5783, 1087.506
330.0605, 1095.537
330.5426, 1103.689
331.0247, 1111.807
331.5068, 1119.685
331.9889, 1127.232
332.4710, 1134.411
332.9532, 1140.617
333.4353, 1144.565
333.9174, 1148.944
334.3995, 1155.190
334.8816, 1161.948
335.3637, 1167.233
335.8459, 1169.997
336.3280, 1170.904
336.8101, 1171.927
337.2922, 1174.580
337.7743, 1174.897
338.2564, 1172.016
338.7386, 1167.229
339.2206, 1161.665
339.7028, 1155.622
340.1849, 1148.726
340.6670, 1140.435
341.1491, 1130.799
341.6312, 1119.556
342.1133, 1105.701
342.5955, 1091.364
343.0776, 1077.455
343.5597, 1064.145
344.0418, 1051.369
344.5239, 1039.285
345.0060, 1028.006
345.4882, 1015.459
345.9703, 999.6255
346.4524, 984.4293
346.9345, 971.1151
347.4166, 959.1848
347.8987, 947.5938
348.3809, 935.7618
348.8630, 923.8063
349.3451, 912.5604
349.8272, 902.9138
350.3093, 892.3673
350.7914, 879.8256
351.2736, 866.5516
351.7557, 853.7766
352.2378, 841.8935
352.7199, 830.7501
353.2020, 820.4344
353.6841, 811.5765
354.1663, 801.5876
354.6484, 789.6899
355.1305, 776.9830
355.6126, 764.2232
356.0947, 751.3998
356.5768, 737.8859
357.0590, 723.3404
357.5411, 707.9012
358.0232, 690.2760
358.5053, 669.2595
358.9874, 647.2368
359.4695, 625.1592
359.9517, 602.9594
360.4338, 580.3333
360.9159, 556.6198
361.3980, 532.6932
361.8801, 510.8458
362.3622, 491.3042
362.8444, 473.7120
363.3265, 458.1903
363.8086, 444.2227
364.2907, 431.3387
364.7728, 419.3239
365.2549, 408.4172
365.7371, 399.1213
366.2192, 391.5319
366.7013, 384.3087
367.1834, 376.8878
367.6655, 370.0079
368.1476, 364.2030
368.6298, 359.4664
369.1119, 355.4964
369.5940, 352.4343
370.0761, 350.0619
370.5582, 347.2110
371.0403, 343.2579
371.5225, 339.8203
372.0046, 338.3048
372.4867, 338.0952
372.9688, 337.8122
373.4509, 336.9629
373.9330, 335.7435
374.4152, 334.2384
374.8973, 332.3624
375.3794, 330.9743
375.8615, 330.6886
376.3436, 331.1071
376.8257, 331.7007
377.3079, 332.6161
377.7900, 333.2167
378.2721, 332.7086
378.7542, 331.3918
379.2363, 330.6519
379.7184, 331.0698
380.2006, 331.8686
380.6827, 332.1322
381.1648, 331.8975
381.6469, 331.3044
382.1290, 330.4818
382.6111, 329.2869
383.0933, 327.4729
383.5754, 324.9922
384.0575, 322.1557
384.5396, 319.1699
385.0217, 316.0011
385.5038, 312.4834
385.9860, 308.8569
386.4681, 304.6785
386.9502, 299.5250
387.4323, 293.5712
387.9144, 287.2554
388.3965, 280.7108
388.8787, 274.1018
389.3608, 267.8865
389.8429, 262.0184
390.3250, 256.4550
390.8071, 251.5053
391.2892, 246.7162
391.7714, 241.3957
392.2535, 235.4252
392.7356, 229.4563
393.2177, 224.3216
393.6998, 220.2326
394.1819, 216.0009
394.6641, 211.2366
395.1462, 206.6684
395.6283, 202.9151
396.1104, 199.7615
396.5925, 196.5046
397.0746, 192.6074
397.5568, 188.3105
398.0389, 184.8345
398.5210, 183.0726
399.0031, 181.1092
399.4852, 178.5695
399.9673, 175.7976
400.4495, 173.1742
400.9316, 170.8215
401.4137, 168.5530
401.8958, 166.0541
402.3779, 163.1387
402.8600, 160.5139
403.3422, 158.2190
403.8243, 156.1179
404.3064, 154.1989
404.7885, 152.4189
405.2706, 150.6746
405.7527, 148.8660
406.2349, 147.0297
406.7170, 145.5753
407.1991, 144.8865
407.6812, 144.0481
408.1633, 142.3480
408.6454, 140.6099
409.1276, 139.9203
409.6097, 140.6951
410.0918, 141.9729
410.5739, 142.3515
411.0560, 141.7109
411.5381, 140.7919
412.0203, 139.0034
412.5024, 137.5683
412.9845, 137.4722
413.4666, 138.5081
413.9487, 139.5150
414.4308, 139.4397
414.9130, 138.6599
415.3951, 138.7608
415.8772, 140.1980
416.3593, 141.3943
416.8414, 141.1687
417.3235, 140.2630
417.8057, 139.6093
418.2878, 139.3996
418.7699, 139.5675
419.2520, 140.1223
419.7341, 141.0392
420.2162, 142.1394
420.6984, 143.5530
421.1805, 144.8750
421.6626, 145.5497
422.1447, 145.5957
422.6268, 145.5148
423.1089, 145.2001
423.5911, 144.9878
424.0732, 145.4397
424.5553, 146.6181
425.0374, 147.9800
425.5195, 149.2304
426.0016, 150.3064
426.4838, 150.9840
426.9659, 151.0930
427.4480, 151.0000
427.9301, 150.8747
428.4122, 150.6665
428.8943, 150.2600
429.3765, 149.6072
429.8586, 148.7729
430.3407, 147.8860
430.8228, 147.0811
431.3049, 145.8647
431.7870, 143.7766
432.2692, 141.6253
432.7513, 140.1421
433.2334, 139.2454
433.7155, 138.2408
434.1976, 136.5607
434.6797, 134.2567
435.1619, 132.0229
435.6440, 129.7381
436.1261, 127.6639
436.6082, 125.9470
437.0903, 124.4226
437.5724, 123.0245
438.0546, 121.7028
438.5367, 120.1502
439.0188, 117.6269
439.5009, 113.4181
439.9830, 110.5684
440.4651, 110.3778
440.9473, 110.4567
441.4294, 109.8371
441.9115, 108.5699
442.3936, 107.0761
442.8757, 105.5728
443.3578, 104.0921
443.8400, 102.8099
444.3221, 101.7944
444.8042, 100.7955
445.2863, 99.49178
445.7684, 98.28127
446.2505, 97.73035
446.7327, 98.00758
447.2148, 98.16654
447.6969, 97.10744
448.1790, 95.10347
448.6611, 93.68397
449.1432, 93.17708
449.6254, 93.11264
450.1075, 93.27048
450.5896, 93.56552
451.0717, 93.72280
451.5538, 93.68324
452.0359, 93.46346
452.5181, 93.00451
453.0002, 92.34093
453.4823, 91.71081
453.9644, 91.22184
454.4465, 90.83038
454.9286, 90.43687
455.4108, 90.02182
455.8929, 89.66094
456.3750, 89.37354
456.8571, 89.14805
457.3392, 89.01293
457.8214, 88.95543
458.3035, 88.82942
458.7856, 88.45506
459.2677, 87.82494
459.7498, 87.63505
460.2319, 88.74990
460.7141, 89.24498
461.1962, 87.96904
461.6783, 85.93517
462.1604, 84.62176
462.6425, 84.58276
463.1246, 85.20974
463.6068, 85.49012
464.0889, 85.30892
464.5710, 85.07394
465.0531, 84.73268
465.5352, 84.39088
466.0173, 84.09725
466.4995, 83.84489
466.9816, 83.58607
467.4637, 83.25643
467.9458, 82.93736
468.4279, 82.92467
468.9100, 83.35454
469.3922, 83.73838
469.8743, 84.05922
470.3564, 84.19918
470.8385, 84.02975
471.3206, 83.53372
471.8027, 82.83442
472.2849, 81.83212
472.7670, 80.67330
473.2491, 79.99660
473.7312, 79.98882
474.2133, 80.08739
474.6954, 79.94877
475.1776, 79.60973
475.6597, 79.12285
476.1418, 78.36233
476.6239, 77.62300
477.1060, 77.09908
477.5881, 76.76318
478.0703, 76.51912
478.5524, 76.33312
479.0345, 76.25480
479.5166, 76.43312
479.9987, 77.00484
480.4808, 77.15547
480.9630, 76.38931
481.4451, 75.56651
481.9272, 75.33755
482.4093, 75.59102
482.8914, 75.83249
483.3735, 75.76365
483.8557, 75.47128
484.3378, 75.27293
484.8199, 75.43175
485.3020, 75.29391
485.7841, 74.68233
486.2662, 73.88630
486.7484, 72.87185
487.2305, 71.80418
487.7126, 71.28171
488.1947, 72.07157
488.6768, 74.03787
489.1589, 74.94711
489.6411, 74.10011
490.1232, 73.27731
490.6053, 73.01892
491.0874, 73.09068
491.5695, 73.35513
492.0516, 73.80897
492.5338, 74.01404
493.0159, 73.17187
493.4980, 71.46622
493.9801, 70.67639
494.4622, 71.40002
494.9443, 72.42741
495.4265, 72.92184
495.9086, 72.95168
496.3907, 72.58743
496.8728, 71.40701
497.3549, 70.22653
497.8370, 69.80662
498.3192, 69.98568
498.8013, 70.18563
499.2834, 70.20540
499.7655, 70.09779
500.2476, 69.93008
500.7297, 69.67262
501.2119, 69.46123
501.6940, 69.24216
502.1761, 69.12205
502.6582, 69.24969
503.1403, 69.55464
503.6224, 69.80624
504.1045, 69.85516
504.5866, 69.76344
505.0688, 69.75455
505.5509, 69.86873
506.0330, 70.00932
506.5151, 70.35642
506.9972, 70.58984
507.4793, 70.29280
507.9615, 69.56960
508.4436, 69.04183
508.9257, 69.33597
509.4078, 70.27901
509.8899, 70.83714
510.3720, 71.05017
510.8542, 70.78327
511.3363, 69.44619
511.8184, 67.89241
512.3005, 67.02412
512.7827, 67.04315
513.2648, 67.26702
513.7469, 67.13988
514.2290, 66.81486
514.7111, 66.79952
515.1932, 67.22414
515.6754, 67.63473
516.1575, 67.64327
516.6396, 67.33743
517.1217, 67.16696
517.6038, 67.21219
518.0859, 67.31886
518.5681, 67.51627
519.0502, 67.70434
519.5323, 67.69737
520.0144, 67.44463
520.4965, 67.04541
520.9786, 66.57484
521.4608, 65.95728
521.9429, 65.75127
522.4250, 66.38805
522.9071, 66.89752
523.3892, 66.74723
523.8713, 66.29829
524.3535, 66.18266
524.8356, 66.65414
525.3177, 67.30542
525.7998, 67.43552
526.2819, 66.93786
526.7640, 66.45171
527.2462, 66.02843
527.7283, 65.60989
528.2104, 64.99606
528.6925, 64.37325
529.1746, 64.20676
529.6567, 64.90845
530.1389, 65.81151
530.6210, 65.87569
531.1031, 65.16374
531.5852, 64.81146
532.0673, 65.25740
532.5494, 66.00714
533.0316, 66.53575
533.5137, 66.85841
533.9958, 66.95609
534.4779, 66.62319
534.9600, 66.23028
535.4421, 66.18478
535.9243, 66.35134
536.4064, 66.21709
536.8885, 65.51883
537.3706, 64.48203
537.8527, 63.55551
538.3348, 62.47681
538.8170, 62.08600
539.2991, 63.07290
539.7812, 64.07439
540.2633, 64.14561
540.7454, 63.54682
541.2275, 63.19731
541.7097, 63.71337
542.1918, 64.64998
542.6739, 64.74409
543.1560, 63.63985
543.6381, 62.83415
544.1202, 62.90982
544.6024, 63.14196
545.0845, 63.00032
545.5666, 62.55825
546.0487, 62.32879
546.5308, 62.88397
547.0129, 63.65877
547.4951, 63.62182
547.9772, 62.79814
548.4593, 62.10770
548.9414, 61.84145
549.4235, 62.02276
549.9056, 63.00401
550.3878, 65.08073
550.8699, 66.19009
551.3520, 65.13072
551.8341, 63.57422
552.3162, 62.76620
552.7983, 62.72507
553.2805, 63.11287
553.7626, 63.78376
554.2447, 64.54774
554.7268, 64.82262
555.2089, 64.12469
555.6910, 63.79793
556.1732, 64.29115
556.6553, 64.76182
557.1374, 64.51879
557.6195, 63.76388
558.1016, 63.30066
558.5837, 63.78020
559.0659, 64.65939
559.5480, 64.38512
560.0301, 62.62143
560.5122, 61.78710
560.9943, 63.38737
561.4764, 65.39693
561.9586, 65.74734
562.4407, 64.52739
562.9228, 63.27424
563.4049, 62.09958
563.8870, 61.47982
564.3691, 62.50837
564.8513, 64.78872
565.3334, 66.11556
565.8155, 65.34252
566.2976, 63.53878
566.7797, 62.73907
567.2618, 63.55341
567.7440, 64.01365
568.2261, 63.65937
568.7082, 63.37384
569.1903, 63.94451
569.6724, 64.98827
570.1545, 65.49845
570.6367, 64.90590
571.1188, 63.76316
571.6009, 63.20621
572.0830, 63.28949
572.5651, 63.76327
573.0472, 65.28275
573.5294, 66.50204
574.0115, 66.38902
574.4936, 65.38483
574.9757, 64.75517
575.4578, 65.18428
575.9399, 65.98293
576.4221, 66.39834
576.9042, 66.48177
577.3863, 66.57197
577.8684, 66.82610
578.3505, 66.91252
578.8326, 66.25680
579.3148, 64.77428
579.7969, 64.11071
580.2790, 65.08268
580.7611, 66.07813
581.2432, 66.20067
581.7253, 65.85246
582.2075, 65.70535
582.6896, 66.00168
583.1717, 66.64603
583.6538, 67.64832
584.1359, 69.18437
584.6180, 69.79743
585.1002, 68.61544
585.5823, 67.52324
586.0643, 67.18129
586.5464, 67.24291
587.0286, 67.25617
587.5107, 67.09339
587.9928, 66.85049
588.4749, 66.45958
588.9570, 66.04192
589.4391, 66.16987
589.9213, 67.01608
590.4034, 67.89279
590.8855, 68.36816
591.3676, 68.49473
591.8497, 68.53112
592.3318, 68.41200
592.8140, 68.31619
593.2961, 68.31193
593.7782, 68.35344
594.2603, 68.35640
594.7424, 68.33344
595.2245, 68.43903
595.7067, 68.84026
596.1888, 69.43113
596.6709, 69.56471
597.1530, 68.79981
597.6351, 68.34565
598.1172, 68.45528
598.5994, 68.81433
599.0815, 69.41245
599.5636, 70.10313
600.0457, 70.38763
600.5278, 69.66930
601.0099, 68.52437
601.4921, 68.14883
601.9742, 68.55407
602.4563, 68.85691
602.9384, 68.76126
603.4205, 68.41399
603.9026, 67.87608
604.3848, 67.11103
604.8669, 66.78810
605.3490, 67.32115
605.8311, 68.01762
606.3132, 68.69749
606.7953, 69.16109
607.2775, 68.87167
607.7596, 67.64147
608.2417, 66.22813
608.7238, 65.89388
609.2059, 66.92760
609.6880, 67.60625
610.1702, 67.88909
610.6523, 67.83157
611.1344, 67.16599
611.6165, 66.28258
612.0986, 65.75088
612.5807, 65.75212
613.0629, 65.85313
613.5450, 65.54805
614.0271, 65.01936
614.5092, 64.99211
614.9913, 65.63284
615.4734, 66.03336
615.9556, 65.43595
616.4377, 64.21163
616.9198, 63.68420
617.4019, 64.27522
617.8840, 64.67723
618.3661, 64.32423
618.8483, 63.89165
619.3304, 64.13674
619.8125, 64.93613
620.2946, 65.54384
620.7767, 65.44959
621.2589, 64.90309
621.7410, 64.61034
622.2231, 64.58082
622.7052, 64.78406
623.1873, 65.58203
623.6694, 66.27742
624.1516, 66.55653
624.6337, 66.40830
625.1158, 65.75880
625.5979, 63.99693
626.0800, 62.56993
626.5621, 63.56066
627.0443, 66.19827
627.5264, 67.68315
628.0085, 67.26353
628.4906, 66.24088
628.9727, 65.82907
629.4548, 66.03281
629.9370, 66.24172
630.4191, 66.59514
630.9012, 66.77834
631.3833, 66.64194
631.8654, 66.34988
632.3475, 65.93172
632.8297, 65.48481
633.3118, 65.35525
633.7939, 65.95007
634.2760, 67.05538
634.7581, 67.79472
635.2402, 68.14491
635.7224, 68.19645
636.2045, 67.69152
636.6866, 67.14925
637.1687, 67.19659
637.6508, 67.79910
638.1329, 68.23946
638.6151, 68.08073
639.0972, 67.85860
639.5793, 68.16923
640.0614, 68.77483
640.5435, 68.98576
641.0256, 68.55611
641.5078, 67.87007
641.9899, 67.38088
642.4720, 67.04295
642.9541, 67.28011
643.4362, 68.91689
643.9183, 70.17405
644.4005, 70.46860
644.8826, 70.28074
645.3647, 70.04147
645.8468, 69.87158
646.3289, 69.90273
646.8110, 70.45979
647.2932, 71.25650
647.7753, 71.52235
648.2574, 71.22176
648.7395, 70.81556
649.2216, 70.43283
649.7037, 70.14855
650.1859, 70.03429
650.6680, 69.97262
651.1501, 70.57920
651.6322, 72.76193
652.1143, 74.78796
652.5964, 75.61280
653.0786, 75.55063
653.5607, 75.24083
654.0428, 74.93643
654.5249, 74.57121
655.0070, 73.78024
655.4891, 72.50011
655.9713, 72.76192
656.4534, 75.59260
656.9355, 77.96957
657.4176, 77.92545
657.8997, 76.86874
658.3818, 76.36574
658.8640, 76.60881
659.3461, 77.09740
659.8282, 77.80393
660.3103, 78.51096
660.7924, 78.85981
661.2745, 78.94782
661.7567, 79.27909
662.2388, 80.11732
662.7209, 81.21313
663.2030, 82.11996
663.6851, 82.86475
664.1672, 83.33858
664.6494, 83.13641
665.1315, 83.10346
665.6136, 83.47793
666.0957, 84.21196
666.5778, 85.31013
667.0599, 86.79359
667.5421, 88.24934
668.0242, 89.39516
668.5063, 90.23360
668.9884, 90.62829
669.4705, 90.56452
669.9526, 90.74921
670.4348, 91.58948
670.9169, 92.86531
671.3990, 94.13471
671.8811, 95.56618
672.3632, 96.55602
672.8453, 96.65788
673.3275, 96.74280
673.8096, 97.17931
674.2917, 97.95896
674.7738, 99.08799
675.2559, 100.5568
675.7380, 102.0657
676.2202, 103.1881
676.7023, 103.9714
677.1844, 104.8911
677.6665, 105.9762
678.1486, 107.1676
678.6307, 108.4020
679.1129, 109.7544
679.5950, 111.3400
680.0771, 113.1889
680.5592, 115.1633
681.0413, 117.6389
681.5234, 119.8643
682.0056, 121.3802
682.4877, 122.1544
682.9698, 121.8652
683.4519, 120.4067
683.9340, 119.0926
684.4161, 120.2926
684.8983, 124.3543
685.3804, 126.6295
685.8625, 126.0581
686.3446, 125.5405
686.8267, 126.4176
687.3088, 127.9654
687.7910, 129.5264
688.2731, 131.0559
688.7552, 132.2623
689.2373, 132.7222
689.7194, 133.0132
690.2015, 133.6439
690.6837, 134.6373
691.1658, 136.0597
691.6479, 137.9582
692.1300, 139.8812
692.6121, 141.2019
693.0942, 141.8884
693.5764, 142.1085
694.0585, 141.1972
694.5406, 140.7203
695.0227, 141.5301
695.5048, 142.7211
695.9869, 143.3892
696.4691, 143.3919
696.9512, 143.0305
697.4333, 142.3063
697.9154, 141.4270
698.3975, 140.5269
698.8796, 139.6847
699.3618, 139.2914
699.8439, 139.5185
700.3260, 140.0235
700.8081, 140.3954
701.2902, 140.6487
701.7723, 140.6269
702.2545, 140.1368
702.7366, 139.5985
703.2187, 139.0071
703.7008, 138.4572
704.1829, 138.2472
704.6650, 138.2791
705.1472, 137.7850
705.6293, 135.8510
706.1114, 133.3908
706.5935, 131.8798
707.0756, 131.2136
707.5577, 130.7655
708.0399, 130.4068
708.5220, 129.9382
709.0041, 129.1195
709.4862, 127.9493
709.9683, 126.8292
710.4504, 125.7519
710.9326, 124.7220
711.4147, 123.8195
711.8968, 122.9051
712.3789, 121.8052
712.8610, 120.5619
713.3431, 119.4054
713.8253, 118.4452
714.3074, 117.6930
714.7895, 117.3440
715.2716, 117.2986
715.7537, 116.7075
716.2358, 115.2942
716.7180, 113.8303
717.2001, 112.9093
717.6822, 112.4995
718.1643, 112.3988
718.6464, 113.1493
719.1285, 113.4233
719.6107, 112.7300
720.0928, 111.8284
720.5749, 111.3148
721.0570, 111.0684
721.5391, 110.4954
722.0212, 109.1938
722.5034, 108.0468
722.9855, 108.6374
723.4676, 110.5891
723.9497, 111.5371
724.4318, 111.1141
724.9139, 110.3532
725.3961, 109.7233
725.8782, 109.3161
726.3603, 109.4560
726.8424, 110.5140
727.3245, 111.2498
727.8066, 111.3125
728.2888, 111.3250
728.7709, 111.6728
729.2530, 112.2113
729.7351, 112.6356
730.2172, 112.8421
730.6993, 112.9956
731.1815, 113.2536
731.6636, 113.6027
732.1457, 113.9617
732.6278, 114.3171
733.1099, 114.8818
733.5920, 115.8496
734.0742, 116.9086
734.5563, 117.5386
735.0384, 117.6095
735.5205, 117.9108
736.0026, 118.3602
736.4847, 119.1312
736.9669, 120.3405
737.4490, 121.8711
737.9311, 123.8184
738.4132, 126.0556
738.8953, 127.9518
739.3774, 128.9475
739.8596, 129.3609
740.3417, 129.5965
740.8238, 129.7094
741.3059, 130.6079
741.7880, 132.5368
742.2701, 135.3504
742.7523, 139.3350
743.2344, 144.3178
743.7165, 147.4014
744.1986, 147.2283
744.6807, 147.1796
745.1628, 147.4548
745.6450, 148.1735
746.1271, 149.3186
746.6092, 150.9797
747.0913, 153.4709
747.5734, 157.0535
748.0555, 161.0200
748.5377, 164.4615
749.0198, 167.5213
749.5019, 170.6219
749.9840, 173.8184
750.4661, 177.2444
750.9482, 181.0332
751.4304, 185.0627
751.9125, 189.0643
752.3946, 192.8631
752.8767, 197.0335
753.3588, 201.1368
753.8409, 206.0806
754.3231, 212.8048
754.8052, 220.3550
755.2873, 227.2644
755.7694, 233.2170
756.2515, 239.5117
756.7336, 247.2321
757.2158, 255.8793
757.6979, 264.6494
758.1800, 273.5438
758.6621, 282.4604
759.1442, 291.3141
759.6263, 300.8147
760.1085, 312.0671
760.5906, 325.0389
761.0727, 337.0335
761.5548, 346.7260
762.0369, 357.4616
762.5190, 370.3925
763.0012, 383.9135
763.4833, 396.8615
763.9654, 409.3468
764.4475, 422.2112
764.9296, 435.7257
765.4117, 449.8045
765.8939, 464.5716
766.3760, 479.8519
766.8581, 495.4104
767.3402, 511.2256
767.8223, 527.3055
768.3044, 543.7667
768.7866, 560.2883
769.2687, 575.6748
769.7508, 589.6240
770.2329, 603.7753
770.7150, 618.6817
771.1971, 633.1480
771.6793, 646.3209
772.1614, 658.8771
772.6435, 671.9853
773.1256, 685.9728
773.6077, 698.2751
774.0898, 707.7000
774.5720, 715.1715
775.0541, 721.8806
775.5362, 727.1123
776.0183, 729.1943
776.5004, 727.7348
776.9825, 724.1295
777.4647, 719.8074
777.9468, 714.5307
778.4289, 707.2613
778.9110, 697.9753
779.3931, 686.4056
779.8752, 671.6399
780.3574, 655.9200
780.8395, 641.3597
781.3216, 627.5912
781.8037, 613.3609
782.2858, 597.5098
782.7679, 582.7014
783.2501, 570.1898
783.7322, 558.4780
784.2143, 546.1656
784.6964, 533.5909
785.1785, 522.0124
785.6606, 511.9837
786.1428, 502.5327
786.6249, 492.3305
787.1070, 481.6406
787.5891, 471.2094
788.0712, 461.0737
788.5533, 452.8685
789.0355, 447.8632
789.5176, 444.0648
789.9997, 438.3040
790.4818, 430.0506
790.9639, 423.0987
791.4460, 417.4177
791.9282, 413.0060
792.4103, 410.5829
792.8924, 408.9050
793.3745, 407.0262
793.8566, 404.7880
794.3387, 402.1482
794.8209, 398.7030
795.3030, 395.4432
795.7851, 393.5526
796.2672, 392.5080
796.7493, 391.1109
797.2314, 389.2292
797.7136, 387.6283
798.1957, 386.8545
798.6778, 386.4600
799.1599, 385.1586
799.6420, 382.3918
800.1241, 381.0618
800.6063, 381.8307
801.0884, 383.0845
801.5705, 384.3700
802.0526, 385.5760
802.5347, 386.3144
803.0168, 386.4661
803.4990, 387.5338
803.9811, 390.7829
804.4632, 394.1935
804.9453, 395.7936
805.4274, 397.0390
805.9095, 400.2885
806.3917, 405.8195
806.8738, 412.0861
807.3559, 417.8093
807.8380, 423.5591
808.3201, 430.6737
808.8022, 439.1426
809.2844, 447.8747
809.7665, 456.7797
810.2486, 465.4987
810.7307, 473.4407
811.2128, 481.1817
811.6949, 490.3216
812.1771, 500.6468
812.6592, 512.8658
813.1413, 528.5013
813.6234, 544.2441
814.1055, 557.6018
814.5876, 570.5978
815.0698, 586.0768
815.5519, 604.4981
816.0340, 623.8323
816.5161, 643.1459
816.9982, 662.3622
817.4803, 680.8889
817.9625, 699.1795
818.4446, 718.2881
818.9267, 738.5638
819.4088, 759.9128
819.8909, 782.1388
820.3730, 805.3932
820.8552, 830.1757
821.3373, 856.8858
821.8194, 883.9697
822.3015, 911.4344
822.7836, 939.1760
823.2657, 967.2013
823.7479, 995.4156
824.2300, 1022.824
824.7121, 1048.747
825.1942, 1076.327
825.6763, 1107.256
826.1584, 1138.714
826.6406, 1169.561
827.1227, 1199.691
827.6048, 1229.290
828.0869, 1258.296
828.5690, 1286.416
829.0511, 1312.892
829.5333, 1338.705
830.0154, 1366.321
830.4975, 1394.995
830.9796, 1420.945
831.4617, 1443.404
831.9438, 1463.919
832.4260, 1483.514
832.9081, 1502.163
833.3902, 1520.078
833.8723, 1537.427
834.3544, 1553.529
834.8365, 1567.103
835.3187, 1580.916
835.8008, 1597.423
836.2829, 1613.959
836.7650, 1627.732
837.2471, 1638.432
837.7292, 1645.803
838.2114, 1647.495
838.6935, 1648.314
839.1756, 1652.729
839.6577, 1657.449
840.1398, 1658.701
840.6219, 1655.420
841.1041, 1647.191
841.5862, 1633.699
842.0683, 1615.260
842.5504, 1593.842
843.0325, 1568.623
843.5146, 1532.935
843.9968, 1485.959
844.4789, 1432.172
844.9610, 1373.810
845.4431, 1310.967
845.9252, 1243.496
846.4073, 1170.158
846.8895, 1097.781
847.3716, 1025.559
847.8537, 955.6804
848.3358, 886.3527
848.8179, 820.5753
849.3000, 760.5931
849.7822, 706.3979
850.2643, 657.0840
850.7464, 612.3310
851.2285, 572.0333
851.7106, 537.1088
852.1927, 505.9189
852.6749, 476.3713
853.1570, 448.4799
853.6391, 423.5294
854.1212, 402.1897
854.6033, 383.4520
855.0854, 366.5363
855.5676, 351.2574
856.0497, 336.9621
856.5318, 323.6270
857.0139, 310.9971
857.4960, 298.9132
857.9781, 287.8289
858.4603, 278.2549
858.9424, 270.1644
859.4245, 263.0809
859.9066, 257.9940
860.3887, 252.2238
860.8708, 244.7152
861.3530, 237.3273
861.8351, 231.0510
862.3172, 225.5577
862.7993, 220.0981
863.2814, 214.3888
863.7635, 209.5042
864.2457, 206.6215
864.7278, 204.0055
865.2099, 200.1138
865.6920, 195.5729
866.1741, 191.6191
866.6563, 188.4736
867.1384, 185.5865
867.6205, 182.5639
868.1026, 179.4828
868.5847, 176.4813
869.0668, 173.5617
869.5490, 170.6281
870.0311, 167.6512
870.5132, 165.0795
870.9953, 163.2149
871.4774, 161.7513
871.9595, 160.0700
872.4417, 158.1142
872.9238, 156.2213
873.4059, 154.2595
873.8880, 152.5564
874.3701, 151.5501
874.8522, 150.5889
875.3344, 149.0347
875.8165, 146.9898
876.2986, 145.1153
876.7807, 143.2952
877.2628, 142.0324
877.7449, 142.0245
878.2271, 142.2186
878.7092, 141.8612
879.1913, 140.9113
879.6734, 139.4057
880.1555, 137.3789
880.6376, 135.2602
881.1198, 133.2217
881.6019, 131.4990
882.0840, 130.6867
882.5661, 130.6165
883.0482, 130.6607
883.5303, 130.6428
884.0125, 130.2809
884.4946, 129.2613
884.9767, 127.8722
885.4588, 127.1721
885.9409, 127.3751
886.4230, 127.0258
886.9052, 125.8140
887.3873, 124.5059
887.8694, 123.3848
888.3515, 122.4455
888.8336, 121.7455
889.3157, 121.3535
889.7979, 120.6713
890.2800, 119.3531
890.7621, 118.1673
891.2442, 117.4590
891.7263, 116.8521
892.2084, 116.1091
892.6906, 115.1754
893.1727, 114.0093
893.6548, 112.5595
894.1369, 111.0007
894.6190, 109.1213
895.1011, 107.4349
895.5833, 106.8903
896.0654, 107.0310
896.5475, 106.5391
897.0296, 105.0722
897.5117, 103.5675
897.9938, 102.9631
898.4760, 102.8993
898.9581, 102.4082
899.4402, 101.5308
899.9223, 100.7945
900.4044, 100.3088
900.8865, 99.70107
901.3687, 98.69078
901.8508, 97.50525
902.3329, 96.66806
902.8150, 96.29979
903.2971, 95.65654
903.7792, 94.61938
904.2614, 93.51176
904.7435, 92.40327
905.2256, 91.28188
905.7077, 89.87954
906.1898, 88.37891
906.6719, 87.83598
907.1541, 89.54128
907.6362, 90.35836
908.1183, 88.88284
908.6004, 86.86557
909.0825, 85.14100
909.5646, 83.92721
910.0468, 83.61789
910.5289, 84.24425
911.0110, 84.60278
911.4931, 83.55836
911.9752, 82.11717
912.4573, 81.49052
912.9395, 81.25480
913.4216, 80.46342
913.9037, 79.04548
914.3858, 77.49448
914.8679, 76.07202
915.3500, 75.03094
915.8321, 75.07824
916.3142, 76.01534
916.7963, 76.11032
917.2784, 75.25105
917.7606, 74.93002
918.2427, 75.82408
918.7248, 76.81281
919.2069, 76.73328
919.6890, 75.66961
920.1711, 74.16945
920.6533, 71.72383
921.1354, 70.07732
921.6175, 69.77831
922.0996, 69.75871
922.5817, 69.28819
923.0638, 68.83643
923.5460, 69.26220
924.0281, 70.72853
924.5102, 71.75338
924.9923, 72.02647
925.4744, 71.96827
925.9565, 71.64196
926.4387, 71.11705
926.9208, 70.38659
927.4029, 69.51224
927.8850, 68.66442
928.3671, 67.91988
928.8492, 67.10928
929.3314, 65.79487
929.8135, 64.60939
930.2956, 64.30755
930.7777, 64.69133
931.2598, 65.48699
931.7419, 66.48586
932.2241, 66.94678
932.7062, 66.13113
933.1883, 64.83337
933.6704, 64.49632
934.1525, 64.96237
934.6346, 65.81654
935.1168, 66.95734
935.5989, 67.09132
936.0810, 65.51798
936.5631, 63.42912
937.0452, 62.46074
937.5273, 62.54631
938.0095, 62.59348
938.4916, 62.63379
938.9737, 62.48460
939.4558, 62.01079
939.9379, 61.55313
940.4200, 61.41387
940.9022, 61.42055
941.3843, 61.10688
941.8664, 60.29013
942.3485, 59.71193
942.8306, 59.27156
943.3127, 59.19001
943.7949, 60.05450
944.2770, 60.88453
944.7591, 60.62141
945.2412, 59.50642
945.7233, 58.70048
946.2054, 58.50633
946.6876, 58.53769
947.1697, 58.84557
947.6518, 59.14300
948.1339, 59.10853
948.6160, 58.96490
949.0981, 59.24477
949.5803, 59.93939
950.0624, 60.17255
950.5445, 58.99812
951.0266, 57.76058
951.5087, 58.01287
951.9908, 59.01143
952.4730, 59.66016
952.9551, 59.81900
953.4372, 59.46108
953.9193, 58.60197
954.4014, 57.78217
954.8835, 57.64339
955.3657, 58.00628
955.8478, 58.55559
956.3299, 59.19860
956.8120, 59.08782
957.2941, 58.05086
957.7762, 57.14634
958.2584, 57.06972
958.7405, 57.50648
959.2226, 57.92382
959.7047, 58.35108
960.1868, 58.19117
960.6689, 57.27195
961.1511, 56.42511
961.6332, 55.79503
962.1153, 55.52232
962.5974, 55.93131
963.0795, 56.75786
963.5616, 56.80685
964.0438, 55.47668
964.5259, 54.66323
965.0080, 54.70627
965.4901, 54.83228
965.9722, 55.01378
966.4543, 54.98336
966.9365, 54.11283
967.4186, 52.58028
967.9007, 52.06040
968.3828, 53.82881
968.8649, 55.07984
969.3470, 54.79060
969.8292, 54.21829
970.3113, 54.11052
970.7934, 54.28851
971.2755, 54.45350
971.7576, 54.53197
972.2397, 54.42435
972.7219, 53.93826
973.2040, 53.42006
973.6861, 52.93879
974.1682, 52.65340
974.6503, 53.07006
975.1324, 53.80321
975.6146, 53.62020
976.0967, 52.12294
976.5788, 50.93834
977.0609, 51.90205
977.5430, 53.68578
978.0251, 54.61736
978.5073, 54.84152
978.9894, 54.51363
979.4715, 53.81134
979.9536, 53.41560
980.4357, 53.71321
980.9178, 54.17150
981.4000, 54.01137
981.8821, 53.38086
982.3642, 52.79541
982.8463, 52.26758
983.3284, 51.79471
983.8105, 51.37679
984.2927, 51.34227
984.7748, 52.01160
985.2569, 52.95626
985.7390, 53.12955
986.2211, 52.48204
986.7032, 52.09541
987.1854, 52.04975
987.6675, 51.83715
988.1496, 51.19633
988.6317, 50.64903
989.1138, 50.74036
989.5959, 51.29896
990.0781, 51.61774
990.5602, 51.77179
991.0423, 51.41178
991.5244, 50.11053
992.0065, 49.07658
992.4886, 48.74128
992.9708, 48.89278
993.4529, 49.37325
993.9350, 50.16026
994.4171, 51.00743
994.8992, 52.53745
995.3813, 53.15825
995.8635, 52.13061
996.3456, 50.96785
996.8277, 50.11982
997.3098, 49.64237
997.7919, 49.70539
998.2740, 50.27142
998.7562, 50.71783
999.2383, 50.70435
999.7204, 50.86726
1000.203, 51.83899
1000.685, 52.57605
1001.167, 52.10843
1001.649, 51.03060
1002.131, 50.32009
1002.613, 50.13326
1003.095, 50.04387
1003.577, 49.66529
1004.059, 49.58069
1004.542, 50.63109
1005.024, 51.70600
1005.506, 51.47100
1005.988, 50.39641
1006.470, 49.67657
1006.952, 49.65224
1007.434, 49.88860
1007.916, 50.22796
1008.398, 50.55505
1008.881, 50.85194
1009.363, 51.00974
1009.845, 50.79578
1010.327, 50.28746
1010.809, 49.70761
1011.291, 49.16030
1011.773, 48.84604
1012.255, 49.12124
1012.738, 49.61169
1013.220, 49.58418
1013.702, 49.33919
1014.184, 49.79443
1014.666, 50.87381
1015.148, 51.52874
1015.630, 51.24641
1016.112, 50.68629
1016.594, 50.78130
1017.077, 51.14396
1017.559, 50.43091
1018.041, 48.96423
1018.523, 48.41948
1019.005, 49.03164
1019.487, 49.95251
1019.969, 50.73622
1020.451, 51.25239
1020.934, 51.19948
1021.416, 50.71111
1021.898, 50.59977
1022.380, 50.85437
1022.862, 51.10150
1023.344, 51.27698
1023.826, 51.27143
1024.308, 50.99056
1024.791, 50.59932
1025.273, 50.40850
1025.755, 50.40938
1026.237, 50.30646
1026.719, 50.09334
1027.201, 49.75848
1027.683, 49.20240
1028.165, 49.02302
1028.647, 49.79235
1029.130, 50.84161
1029.612, 50.60075
1030.094, 48.87093
1030.576, 48.62729
1031.058, 50.47398
1031.540, 51.68066
1032.022, 51.44966
1032.504, 50.94886
1032.986, 51.05946
1033.469, 50.37172
1033.951, 50.91738
1034.433, 49.40791
1034.915, 48.65654
1035.397, 48.55872
1035.879, 49.56281
1036.361, 52.97112
1036.843, 55.72512
1037.326, 55.23202
1037.808, 52.77656
1038.290, 51.30993
1038.772, 50.99736
1039.254, 50.93508
1039.736, 51.66166
1040.218, 51.77244
1040.700, 50.35653
1041.182, 48.92522
1041.665, 48.50547
1042.147, 48.83809
1042.629, 49.41388
1043.111, 50.37554
1043.593, 50.95845
1044.075, 50.96127
1044.557, 50.83644
1045.039, 50.47914
1045.521, 50.21239
1046.004, 50.42656
1046.486, 50.84428
1046.968, 50.80957
1047.450, 50.16351
1047.932, 49.74479
1048.414, 49.66648
1048.896, 49.78998
1049.378, 50.47422
1049.861, 50.96861
1050.343, 50.29618
1050.825, 49.18804
1051.307, 49.36662
1051.789, 51.26281
1052.271, 52.24530
1052.753, 50.90141
1053.235, 49.79356
1053.718, 50.09068
1054.200, 50.56573
1054.682, 49.99896
1055.164, 49.03653
1055.646, 49.16159
1056.128, 50.66154
1056.610, 51.68251
1057.092, 51.34315
1057.574, 50.97338
1058.057, 51.08971
1058.539, 51.30186
1059.021, 51.46184
1059.503, 51.43168
1059.985, 50.85532
1060.467, 49.68740
1060.949, 48.96168
1061.431, 49.62298
1061.913, 49.96461
1062.396, 48.66368
1062.878, 47.43007
1063.360, 47.93558
1063.842, 49.30529
1064.324, 49.97350
1064.806, 49.69900
1065.288, 49.20192
1065.770, 48.39168
1066.253, 47.89731
1066.735, 48.19926
1067.217, 48.69620
1067.699, 49.10724
1068.181, 49.30809
1068.663, 49.05505
1069.145, 48.38728
1069.627, 47.89564
1070.109, 47.94416
1070.592, 47.96230
1071.074, 47.51448
1071.556, 47.11921
1072.038, 47.17097
1072.520, 47.52628
1073.002, 48.09708
1073.484, 48.76062
1073.966, 49.03452
1074.448, 48.63925
1074.931, 48.06376
1075.413, 47.22780
1075.895, 46.62189
1076.377, 46.71418
1076.859, 47.18611
1077.341, 47.79591
1077.823, 48.36531
1078.305, 48.36390
1078.788, 47.32939
1079.270, 46.62646
1079.752, 47.07843
1080.234, 47.88459
1080.716, 49.09405
1081.198, 49.93814
1081.680, 49.14458
1082.162, 47.17063
1082.644, 45.80228
1083.127, 45.58618
1083.609, 46.01881
1084.091, 47.64454
1084.573, 48.95862
1085.055, 48.71802
1085.537, 47.94691
1086.019, 47.87719
1086.501, 48.24170
1086.984, 47.87317
1087.466, 46.35966
1087.948, 45.39726
1088.430, 46.00952
1088.912, 46.96651
1089.394, 48.13941
1089.876, 48.92201
1090.358, 48.36961
1090.840, 47.13031
1091.323, 46.66529
1091.805, 47.27171
1092.287, 47.63484
1092.769, 46.77957
1093.251, 46.23223
1093.733, 47.07440
1094.215, 48.03959
1094.697, 48.07305
1095.179, 47.56380
1095.662, 47.22236
1096.144, 47.14623
1096.626, 47.08259
1097.108, 46.82134
1097.590, 46.76731
1098.072, 47.43235
1098.554, 47.93360
1099.036, 47.65662
1099.519, 46.92063
1100.001, 46.01557
1100.483, 45.06178
1100.965, 44.39789
1101.447, 44.12772
1101.929, 44.10759
1102.411, 44.44897
1102.893, 44.85546
1103.375, 45.39436
1103.858, 45.76910
1104.340, 45.50318
1104.822, 44.81698
1105.304, 44.54254
1105.786, 44.95707
1106.268, 45.21158
1106.750, 44.90533
1107.232, 44.74833
1107.714, 45.24325
1108.197, 45.72655
1108.679, 45.59175
1109.161, 45.06987
1109.643, 44.69196
1110.125, 44.49257
1110.607, 44.45749
1111.089, 44.69205
1111.571, 44.93923
1112.054, 44.65217
1112.536, 44.90156
1113.018, 47.40524
1113.500, 50.26260
1113.982, 50.01267
1114.464, 46.55780
1114.946, 44.87760
1115.428, 46.29632
1115.911, 47.28801
1116.393, 47.49764
1116.875, 47.52651
1117.357, 48.02376
1117.839, 48.03223
1118.321, 45.94466
1118.803, 42.36662
1119.285, 40.94078
1119.767, 42.78159
1120.250, 44.01075
1120.732, 44.60763
1121.214, 44.55750
1121.696, 43.34350
1122.178, 42.37604
1122.660, 43.03225
1123.142, 44.57992
1123.624, 45.03489
1124.106, 44.18149
1124.589, 43.92913
1125.071, 44.47024
1125.553, 44.99783
1126.035, 45.46998
1126.517, 45.50106
1126.999, 44.70773
1127.481, 43.67947
1127.963, 43.32964
1128.446, 43.62676
1128.928, 44.35884
1129.410, 45.65025
1129.892, 46.16998
1130.374, 45.68888
1130.856, 45.03712
1131.338, 44.52810
1131.820, 44.21687
1132.302, 44.20136
1132.785, 44.36656
1133.267, 44.32607
1133.749, 44.10059
1134.231, 43.99884
1134.713, 44.03740
1135.195, 44.29032
1135.677, 44.77645
1136.159, 45.34191
1136.641, 45.91440
1137.124, 46.27492
1137.606, 45.88035
1138.088, 44.98997
1138.570, 44.56783
1139.052, 44.55244
1139.534, 44.79169
1140.016, 45.16883
1140.498, 45.12731
1140.981, 44.41333
1141.463, 43.51674
1141.945, 42.67767
1142.427, 42.33400
1142.909, 43.89986
1143.391, 46.26573
1143.873, 47.01366
1144.355, 46.26045
1144.838, 44.84249
1145.320, 43.20524
1145.802, 42.32314
1146.284, 43.08272
1146.766, 44.10626
1147.248, 43.79009
1147.730, 43.12673
1148.212, 43.63892
1148.694, 44.53462
1149.177, 44.05553
1149.659, 42.43239
1150.141, 41.51159
1150.623, 42.04247
1151.105, 42.87383
1151.587, 43.65947
1152.069, 44.07023
1152.551, 43.54762
1153.033, 42.82174
1153.516, 42.59401
1153.998, 42.77461
1154.480, 43.21189
1154.962, 43.82324
1155.444, 43.87008
1155.926, 42.48848
1156.408, 41.42656
1156.890, 41.13604
1157.373, 41.39618
1157.855, 42.77383
1158.337, 44.13576
1158.819, 43.88638
1159.301, 42.38300
1159.783, 41.67334
1160.265, 42.29977
1160.747, 42.72458
1161.229, 42.94808
1161.712, 42.81622
1162.194, 41.77050
1162.676, 40.98545
1163.158, 41.45057
1163.640, 42.51950
1164.122, 43.03653
1164.604, 42.99062
1165.086, 42.88992
1165.568, 42.74632
1166.051, 42.49148
1166.533, 42.05459
1167.015, 41.69027
1167.497, 41.47200
1167.979, 41.50315
1168.461, 41.60569
1168.943, 42.68087
1169.425, 42.19997
1169.908, 42.77813
1170.390, 43.15570
1170.872, 42.71985
1171.354, 43.66573
1171.836, 42.74193
1172.318, 41.84992
1172.800, 42.16472
1173.282, 42.84548
1173.765, 42.72694
1174.247, 42.04061
1174.729, 41.24992
1175.211, 40.51196
1175.693, 40.51722
1176.175, 41.17606
1176.657, 41.85397
1177.139, 42.30382
1177.621, 42.37316
1178.104, 41.81017
1178.586, 41.30880
1179.068, 42.07508
1179.550, 43.10965
1180.032, 42.85244
1180.514, 41.90637
1180.996, 41.31225
1181.478, 41.25388
1181.960, 41.78796
1182.443, 42.97579
1182.925, 43.61024
1183.407, 42.32267
1183.889, 41.09233
1184.371, 41.44105
1184.853, 42.06413
1185.335, 41.69531
1185.817, 40.86148
1186.300, 40.55519
1186.782, 40.82980
1187.264, 40.99835
1187.746, 40.70832
1188.228, 40.75172
1188.710, 41.80613
1189.192, 42.50538
1189.674, 42.11628
1190.156, 41.40580
1190.639, 40.63731
1191.121, 40.15139
1191.603, 40.93798
1192.085, 43.20000
1192.567, 43.89726
1193.049, 42.22459
1193.531, 41.39039
1194.013, 42.06808
1194.495, 42.60704
1194.978, 42.32206
1195.460, 41.53865
1195.942, 40.43872
1196.424, 39.37295
1196.906, 39.63245
1197.388, 41.11971
1197.870, 41.67195
1198.352, 41.29761
1198.835, 40.70470
1199.317, 40.09697
1199.799, 40.28099
1200.281, 41.69731
1200.763, 43.12592
1201.245, 43.00724
1201.727, 42.20441
1202.209, 42.36010
1202.692, 42.98163
1203.174, 43.10201
1203.656, 42.74757
1204.138, 42.05091
1204.620, 41.19941
1205.102, 40.91036
1205.584, 41.68577
1206.066, 42.34920
1206.548, 41.64996
1207.031, 40.96058
1207.513, 41.54878
1207.995, 42.52541
1208.477, 43.14466
1208.959, 43.28584
1209.441, 42.76741
1209.923, 41.60194
1210.405, 40.65487
1210.887, 39.99227
1211.370, 39.78233
1211.852, 40.70582
1212.334, 41.26044
1212.816, 40.48964
1213.298, 39.42170
1213.780, 38.71776
1214.262, 38.44392
1214.744, 38.90403
1215.227, 38.70505
1215.709, 38.70066
1216.191, 39.35178
1216.673, 38.89545
1217.155, 39.58059
1217.637, 40.42550
1218.119, 41.05906
1218.601, 41.27937
1219.083, 40.74835
1219.566, 40.01444
1220.048, 40.73565
1220.530, 42.43452
1221.012, 42.71471
1221.494, 41.83886
1221.976, 41.37624
1222.458, 41.51513
1222.940, 41.48694
1223.422, 40.95101
1223.905, 40.27966
1224.387, 39.61425
1224.869, 39.25714
1225.351, 39.82538
1225.833, 40.64090
1226.315, 40.84617
1226.797, 40.71766
1227.279, 40.88641
1227.762, 41.29780
1228.244, 41.33709
1228.726, 40.76945
1229.208, 40.11895
1229.690, 39.25714
1230.172, 38.76655
1230.654, 39.08535
1231.136, 39.59442
1231.619, 40.26847
1232.101, 40.62240
1232.583, 39.59523
1233.065, 40.28831
1233.547, 40.54179
1234.029, 40.17089
1234.511, 41.38302
1234.993, 40.65875
1235.475, 40.23513
1235.958, 40.76752
1236.440, 40.83099
1236.922, 39.47044
1237.404, 37.90612
1237.886, 37.84914
1238.368, 38.77866
1238.850, 39.09253
1239.332, 38.95601
1239.814, 39.03714
1240.297, 39.33464
1240.779, 39.71106
1241.261, 40.06977
1241.743, 40.12091
1242.225, 39.70313
1242.707, 39.12474
1243.189, 38.30098
1243.671, 37.84397
1244.154, 38.71208
1244.636, 39.87690
1245.118, 40.25416
1245.600, 40.09439
1246.082, 39.85541
1246.564, 39.65970
1247.046, 39.73189
1247.528, 40.36696
1248.010, 40.54781
1248.493, 39.44440
1248.975, 38.82954
1249.457, 39.53371
1249.939, 40.31635
1250.421, 40.56941
1250.903, 40.42365
1251.385, 39.97550
1251.867, 39.30897
1252.349, 38.90684
1252.832, 38.78890
1253.314, 38.69197
1253.796, 38.60876
1254.278, 38.64364
1254.760, 38.80668
1255.242, 38.33504
1255.724, 36.78635
1256.206, 35.71928
1256.689, 37.31504
1257.171, 39.76030
1257.653, 39.92872
1258.135, 38.93174
1258.617, 38.52969
1259.099, 38.58475
1259.581, 38.40665
1260.063, 38.04741
1260.546, 38.34032
1261.028, 39.68478
1261.510, 40.44034
1261.992, 39.62660
1262.474, 38.42487
1262.956, 36.65740
1263.438, 35.37346
1263.920, 35.38599
1264.402, 36.12586
1264.885, 37.24926
1265.367, 38.43987
1265.849, 38.45654
1266.331, 36.96062
1266.813, 36.52537
1267.295, 37.33869
1267.777, 38.47743
1268.259, 39.93885
1268.741, 40.62166
1269.224, 40.02764
1269.706, 38.80682
1270.188, 37.43232
1270.670, 36.32966
1271.152, 36.53754
1271.634, 37.48318
1272.116, 38.02349
1272.598, 38.11916
1273.081, 37.49215
1273.563, 36.46614
1274.045, 35.93713
1274.527, 36.16893
1275.009, 36.90939
1275.491, 38.45066
1275.973, 39.52226
1276.455, 39.35672
1276.938, 38.75419
1277.420, 37.77324
1277.902, 36.91215
1278.384, 36.63655
1278.866, 36.77666
1279.348, 37.01931
1279.830, 37.35270
1280.312, 37.48971
1280.794, 37.69654
1281.276, 37.41424
1281.759, 37.83953
1282.241, 38.00066
1282.723, 37.74384
1283.205, 36.95900
1283.687, 35.48180
1284.169, 34.55684
1284.651, 36.11704
1285.133, 38.78380
1285.616, 40.18780
1286.098, 40.32532
##END=



