##NAMES=Descloizite
##RRUFFID=R050509
##IDEAL CHEMISTRY=Pb^2+^Zn^2+^V^5+^O_4_(OH)
##LOCALITY=Grootfontein district, Namibia
##OWNER=RRUFF
##SOURCE=University of Arizona Mineral Museum
##DESCRIPTION=Group of brown tabular crystals
##STATUS=The identification of this mineral has been confirmed by X-ray diffraction and chemical analysis
##URL=rruff.info/R050509
##MEASURED CHEMISTRY=Pb_1.00_(Zn_0.85_Cu_0.15_)_Σ=1_((V_0.97_As_0.03_)_Σ=1_O_4_)(OH) ; (OH) estimated by difference and stoichiometry
90.92609, 0.0000000E+00
91.40820, 21.94139
91.89032, 21.43198
92.37244, 21.81905
92.85455, 22.92461
93.33667, 23.68597
93.81879, 22.91629
94.30090, 21.13515
94.78302, 19.85906
95.26514, 19.37631
95.74725, 19.63197
96.22937, 21.03880
96.71149, 23.72539
97.19360, 25.96593
97.67572, 25.49002
98.15784, 22.36130
98.63995, 20.09859
99.12207, 19.88601
99.60419, 21.49220
100.0863, 22.96523
100.5684, 24.40735
101.0505, 25.51346
101.5327, 25.83362
102.0148, 25.19566
102.4969, 24.33147
102.9790, 23.40185
103.4611, 22.36628
103.9432, 21.44922
104.4253, 20.31025
104.9075, 19.48290
105.3896, 20.19392
105.8717, 23.62423
106.3538, 27.00063
106.8359, 29.27425
107.3180, 29.51559
107.8002, 30.21099
108.2823, 31.09010
108.7644, 32.36420
109.2465, 34.87271
109.7286, 39.50930
110.2107, 44.70938
110.6929, 49.88429
111.1750, 54.29031
111.6571, 59.41644
112.1392, 65.38786
112.6213, 72.18819
113.1034, 79.79124
113.5856, 88.35641
114.0677, 97.74822
114.5498, 107.7853
115.0319, 117.5379
115.5140, 128.8596
115.9961, 142.2144
116.4783, 157.6122
116.9604, 174.6519
117.4425, 192.9691
117.9246, 213.1512
118.4067, 235.6480
118.8888, 262.0150
119.3710, 289.9160
119.8531, 318.4496
120.3352, 347.5307
120.8173, 376.3150
121.2994, 404.0154
121.7815, 430.8290
122.2637, 457.2113
122.7458, 484.8164
123.2279, 511.1254
123.7100, 533.0216
124.1921, 549.5592
124.6742, 564.2721
125.1564, 579.7623
125.6385, 595.9583
126.1206, 612.7068
126.6027, 628.4594
127.0848, 644.8038
127.5669, 664.3287
128.0491, 687.3870
128.5312, 713.8068
129.0133, 743.9271
129.4954, 777.3636
129.9775, 813.0845
130.4596, 851.7336
130.9418, 892.1783
131.4239, 931.5964
131.9060, 969.7469
132.3881, 1006.419
132.8702, 1039.842
133.3523, 1069.991
133.8345, 1099.362
134.3166, 1130.591
134.7987, 1163.909
135.2808, 1195.338
135.7629, 1224.782
136.2450, 1252.134
136.7272, 1275.532
137.2093, 1294.384
137.6914, 1311.551
138.1735, 1330.250
138.6556, 1350.876
139.1377, 1370.447
139.6199, 1388.630
140.1020, 1405.273
140.5841, 1419.512
141.0662, 1430.283
141.5483, 1439.864
142.0304, 1450.931
142.5126, 1463.372
142.9947, 1476.731
143.4768, 1486.446
143.9589, 1489.288
144.4410, 1492.451
144.9231, 1495.740
145.4053, 1499.490
145.8874, 1504.297
146.3695, 1510.190
146.8516, 1517.079
147.3337, 1525.264
147.8158, 1536.708
148.2980, 1544.852
148.7801, 1548.251
149.2622, 1548.765
149.7443, 1550.019
150.2264, 1553.542
150.7085, 1556.465
151.1907, 1557.867
151.6728, 1557.859
152.1549, 1556.329
152.6370, 1552.283
153.1191, 1546.633
153.6012, 1541.749
154.0834, 1539.962
154.5655, 1537.290
155.0476, 1531.962
155.5297, 1522.788
156.0118, 1512.427
156.4939, 1501.224
156.9761, 1489.057
157.4582, 1475.879
157.9403, 1461.061
158.4224, 1445.634
158.9045, 1430.151
159.3866, 1415.654
159.8688, 1400.313
160.3509, 1383.364
160.8330, 1365.125
161.3151, 1347.042
161.7972, 1330.039
162.2793, 1313.193
162.7615, 1295.794
163.2436, 1277.061
163.7257, 1258.296
164.2078, 1239.204
164.6899, 1220.014
165.1720, 1202.489
165.6541, 1188.555
166.1363, 1176.243
166.6184, 1163.610
167.1005, 1149.054
167.5826, 1134.709
168.0647, 1121.930
168.5468, 1110.614
169.0290, 1099.471
169.5111, 1087.057
169.9932, 1074.480
170.4753, 1063.166
170.9574, 1054.753
171.4395, 1047.267
171.9217, 1038.585
172.4038, 1028.713
172.8859, 1019.772
173.3680, 1013.916
173.8501, 1010.095
174.3322, 1006.339
174.8144, 1001.360
175.2965, 996.2076
175.7786, 992.4450
176.2607, 990.0862
176.7428, 988.0439
177.2249, 985.0057
177.7071, 981.4911
178.1892, 978.7109
178.6713, 977.3342
179.1534, 976.9857
179.6355, 977.0990
180.1176, 977.6573
180.5998, 978.5871
181.0819, 980.1868
181.5640, 982.1921
182.0461, 983.7365
182.5282, 983.5741
183.0103, 982.7065
183.4925, 983.8288
183.9746, 987.3401
184.4567, 991.2570
184.9388, 993.5465
185.4209, 994.2620
185.9030, 993.5505
186.3852, 991.5799
186.8673, 988.2912
187.3494, 983.1090
187.8315, 975.7905
188.3136, 967.4502
188.7957, 959.5197
189.2779, 951.9913
189.7600, 943.6268
190.2421, 933.2534
190.7242, 921.3674
191.2063, 910.3054
191.6884, 900.0444
192.1706, 891.0538
192.6527, 884.4514
193.1348, 880.3022
193.6169, 875.7595
194.0990, 869.0109
194.5811, 860.2335
195.0633, 851.8660
195.5454, 844.0726
196.0275, 836.5670
196.5096, 829.1838
196.9917, 821.9046
197.4738, 814.5822
197.9560, 806.7599
198.4381, 798.4691
198.9202, 791.9512
199.4023, 788.0621
199.8844, 784.9935
200.3665, 778.6089
200.8487, 768.2296
201.3308, 758.5140
201.8129, 752.4870
202.2950, 750.5475
202.7771, 746.8478
203.2592, 740.4708
203.7414, 732.9421
204.2235, 727.5923
204.7056, 724.8513
205.1877, 722.7598
205.6698, 720.8348
206.1519, 719.4030
206.6341, 715.4720
207.1162, 707.7794
207.5983, 698.6005
208.0804, 693.6033
208.5625, 694.0889
209.0446, 694.8782
209.5268, 693.0513
210.0089, 687.6692
210.4910, 684.3486
210.9731, 684.0009
211.4552, 685.2662
211.9373, 684.7746
212.4195, 681.9208
212.9016, 678.8940
213.3837, 676.8414
213.8658, 676.1533
214.3479, 674.9118
214.8300, 672.6898
215.3121, 670.1053
215.7943, 668.8332
216.2764, 669.5097
216.7585, 670.1589
217.2406, 669.8209
217.7227, 668.1258
218.2048, 666.6125
218.6870, 665.3413
219.1691, 664.2180
219.6512, 662.9501
220.1333, 661.3132
220.6154, 659.9261
221.0975, 658.9901
221.5797, 658.4672
222.0618, 658.6442
222.5439, 660.0731
223.0260, 661.9572
223.5081, 662.4166
223.9902, 660.7677
224.4724, 658.9161
224.9545, 657.6168
225.4366, 656.8621
225.9187, 656.7131
226.4008, 657.4764
226.8829, 658.7138
227.3651, 659.4772
227.8472, 659.5722
228.3293, 659.5235
228.8114, 659.4984
229.2935, 659.4487
229.7757, 659.5400
230.2578, 659.7562
230.7399, 660.1021
231.2220, 660.5905
231.7041, 661.1630
232.1862, 661.9413
232.6684, 662.9869
233.1505, 664.3635
233.6326, 665.8024
234.1147, 667.4475
234.5968, 669.0751
235.0789, 670.2255
235.5611, 670.6901
236.0432, 671.0143
236.5253, 671.2849
237.0074, 671.3225
237.4895, 672.0360
237.9716, 673.8979
238.4538, 676.1550
238.9359, 677.5051
239.4180, 677.2626
239.9001, 677.2722
240.3822, 678.2806
240.8643, 680.6792
241.3465, 682.1656
241.8286, 682.2700
242.3107, 681.7909
242.7928, 681.8153
243.2749, 682.3251
243.7570, 683.3753
244.2392, 685.1851
244.7213, 688.0018
245.2034, 690.0400
245.6855, 690.8869
246.1676, 691.3226
246.6497, 692.3932
247.1319, 694.6487
247.6140, 696.5443
248.0961, 697.5369
248.5782, 697.4727
249.0603, 698.0888
249.5424, 699.6656
250.0246, 701.6736
250.5067, 703.6143
250.9888, 705.6488
251.4709, 707.2501
251.9530, 707.8599
252.4351, 707.3534
252.9173, 708.8987
253.3994, 713.3806
253.8815, 718.8784
254.3636, 723.5257
254.8457, 726.7894
255.3278, 730.2299
255.8100, 734.1990
256.2921, 738.6871
256.7742, 742.9567
257.2563, 747.1897
257.7384, 750.9508
258.2205, 753.4108
258.7026, 753.2205
259.1848, 755.3246
259.6669, 761.2999
260.1490, 770.5952
260.6311, 777.7504
261.1132, 781.7688
261.5953, 785.2944
262.0775, 790.2960
262.5596, 797.3988
263.0417, 804.1945
263.5238, 810.0382
264.0059, 815.3505
264.4880, 822.6788
264.9702, 832.6351
265.4523, 843.3011
265.9344, 853.2604
266.4165, 862.0970
266.8986, 872.0881
267.3807, 883.8297
267.8629, 896.7714
268.3450, 909.0997
268.8271, 920.5676
269.3092, 932.3890
269.7913, 945.5388
270.2734, 960.1335
270.7556, 975.1086
271.2377, 990.2927
271.7198, 1006.155
272.2019, 1023.953
272.6840, 1043.882
273.1661, 1065.174
273.6483, 1087.548
274.1304, 1110.932
274.6125, 1135.155
275.0946, 1159.725
275.5767, 1185.549
276.0588, 1214.596
276.5410, 1247.161
277.0231, 1280.868
277.5052, 1313.998
277.9873, 1346.631
278.4694, 1380.231
278.9515, 1414.441
279.4337, 1450.262
279.9158, 1489.486
280.3979, 1532.138
280.8800, 1576.196
281.3621, 1620.316
281.8442, 1664.705
282.3264, 1709.396
282.8085, 1754.206
283.2906, 1800.031
283.7727, 1847.957
284.2548, 1898.013
284.7369, 1949.446
285.2191, 2002.541
285.7012, 2056.625
286.1833, 2110.855
286.6654, 2165.167
287.1475, 2220.363
287.6296, 2277.428
288.1118, 2336.244
288.5939, 2393.025
289.0760, 2446.729
289.5581, 2497.877
290.0402, 2550.013
290.5223, 2603.448
291.0045, 2653.857
291.4866, 2698.332
291.9687, 2737.350
292.4508, 2773.060
292.9329, 2805.847
293.4150, 2835.658
293.8972, 2864.937
294.3793, 2893.338
294.8614, 2916.534
295.3435, 2930.536
295.8256, 2936.990
296.3077, 2940.267
296.7899, 2941.162
297.2720, 2938.216
297.7541, 2930.196
298.2362, 2916.958
298.7183, 2897.451
299.2004, 2869.036
299.6826, 2834.448
300.1647, 2798.132
300.6468, 2760.690
301.1289, 2720.774
301.6110, 2675.021
302.0931, 2625.357
302.5753, 2575.499
303.0574, 2526.908
303.5395, 2479.563
304.0216, 2433.558
304.5037, 2388.448
304.9858, 2347.228
305.4680, 2312.830
305.9501, 2283.864
306.4322, 2258.012
306.9143, 2232.493
307.3964, 2210.945
307.8785, 2197.520
308.3607, 2191.787
308.8428, 2188.704
309.3249, 2184.027
309.8070, 2180.459
310.2891, 2181.132
310.7712, 2187.075
311.2534, 2197.275
311.7355, 2211.228
312.2176, 2228.936
312.6997, 2250.104
313.1818, 2275.783
313.6639, 2303.806
314.1461, 2332.743
314.6282, 2362.128
315.1103, 2392.262
315.5924, 2423.883
316.0745, 2456.221
316.5566, 2488.222
317.0388, 2516.552
317.5209, 2546.212
318.0030, 2581.424
318.4851, 2624.465
318.9672, 2665.652
319.4493, 2701.599
319.9315, 2733.690
320.4136, 2764.226
320.8957, 2793.021
321.3778, 2820.762
321.8599, 2847.406
322.3420, 2872.785
322.8242, 2899.164
323.3063, 2928.632
323.7884, 2958.521
324.2705, 2986.502
324.7526, 3011.540
325.2347, 3035.567
325.7169, 3057.081
326.1990, 3076.674
326.6811, 3099.443
327.1632, 3129.079
327.6453, 3159.701
328.1274, 3188.025
328.6096, 3208.562
329.0917, 3233.731
329.5738, 3265.973
330.0559, 3303.043
330.5380, 3338.255
331.0201, 3369.413
331.5023, 3401.112
331.9844, 3435.241
332.4665, 3471.732
332.9486, 3510.216
333.4307, 3551.196
333.9128, 3593.729
334.3950, 3635.338
334.8771, 3676.027
335.3592, 3716.470
335.8413, 3756.734
336.3234, 3797.179
336.8055, 3836.156
337.2877, 3874.485
337.7698, 3909.623
338.2519, 3938.990
338.7340, 3961.732
339.2161, 3981.410
339.6982, 4000.036
340.1803, 4016.370
340.6624, 4021.342
341.1446, 4014.029
341.6267, 3998.530
342.1088, 3976.835
342.5909, 3949.058
343.0730, 3917.378
343.5551, 3882.141
344.0373, 3843.422
344.5194, 3801.706
345.0015, 3756.519
345.4836, 3710.550
345.9657, 3664.910
346.4478, 3619.650
346.9300, 3575.342
347.4121, 3531.728
347.8942, 3488.792
348.3763, 3445.311
348.8584, 3401.721
349.3405, 3359.363
349.8227, 3317.867
350.3048, 3278.271
350.7869, 3243.859
351.2690, 3214.897
351.7511, 3186.596
352.2332, 3154.375
352.7154, 3119.857
353.1975, 3086.618
353.6796, 3056.703
354.1617, 3027.538
354.6438, 2996.733
355.1259, 2964.227
355.6081, 2930.051
356.0902, 2895.560
356.5723, 2858.407
357.0544, 2815.470
357.5365, 2766.014
358.0186, 2711.913
358.5008, 2655.533
358.9829, 2595.549
359.4650, 2529.139
359.9471, 2451.876
360.4292, 2370.104
360.9113, 2286.552
361.3935, 2201.929
361.8756, 2118.599
362.3577, 2035.674
362.8398, 1955.400
363.3219, 1880.324
363.8040, 1811.454
364.2862, 1747.635
364.7683, 1688.678
365.2504, 1634.326
365.7325, 1584.652
366.2146, 1540.558
366.6967, 1500.077
367.1789, 1461.983
367.6610, 1424.708
368.1431, 1391.486
368.6252, 1363.457
369.1073, 1339.546
369.5894, 1316.699
370.0716, 1293.974
370.5537, 1273.081
371.0358, 1254.438
371.5179, 1238.121
372.0000, 1223.731
372.4821, 1211.347
372.9643, 1200.946
373.4464, 1192.814
373.9285, 1188.048
374.4106, 1183.269
374.8927, 1177.177
375.3748, 1169.873
375.8570, 1165.221
376.3391, 1163.649
376.8212, 1163.712
377.3033, 1164.370
377.7854, 1165.661
378.2675, 1167.181
378.7497, 1168.731
379.2318, 1170.628
379.7139, 1174.122
380.1960, 1179.343
380.6781, 1184.360
381.1602, 1187.891
381.6424, 1190.155
382.1245, 1192.588
382.6066, 1195.417
383.0887, 1197.899
383.5708, 1199.541
384.0529, 1200.196
384.5351, 1199.191
385.0172, 1196.447
385.4993, 1191.803
385.9814, 1184.772
386.4635, 1175.426
386.9456, 1164.049
387.4278, 1150.738
387.9099, 1135.730
388.3920, 1119.003
388.8741, 1099.987
389.3562, 1080.402
389.8383, 1061.812
390.3205, 1043.634
390.8026, 1024.753
391.2847, 1003.321
391.7668, 981.8057
392.2489, 961.8732
392.7310, 943.9769
393.2132, 926.9330
393.6953, 910.2277
394.1774, 894.2459
394.6595, 879.3343
395.1416, 865.9644
395.6237, 853.5200
396.1059, 841.9434
396.5880, 831.2037
397.0701, 820.8475
397.5522, 811.6617
398.0343, 802.3624
398.5164, 792.1989
398.9986, 779.5415
399.4807, 768.0682
399.9628, 757.7144
400.4449, 748.6118
400.9270, 741.1636
401.4091, 737.0034
401.8913, 732.4840
402.3734, 726.2612
402.8555, 717.8993
403.3376, 710.2042
403.8197, 702.9479
404.3018, 696.6129
404.7840, 691.9523
405.2661, 689.4652
405.7482, 686.7930
406.2303, 683.1803
406.7124, 679.0856
407.1945, 676.5319
407.6767, 675.7653
408.1588, 675.2833
408.6409, 673.7123
409.1230, 671.2040
409.6051, 669.7809
410.0872, 669.3819
410.5694, 670.6776
411.0515, 675.5109
411.5336, 683.3848
412.0157, 691.0851
412.4978, 696.1713
412.9799, 700.4456
413.4621, 707.8994
413.9442, 718.5455
414.4263, 729.8869
414.9084, 739.7325
415.3905, 749.0370
415.8727, 759.5102
416.3548, 771.7310
416.8369, 785.1101
417.3190, 799.2338
417.8011, 814.0925
418.2832, 829.9494
418.7654, 847.6532
419.2475, 865.7435
419.7296, 882.7137
420.2117, 898.2876
420.6938, 914.5507
421.1759, 932.5773
421.6581, 951.5468
422.1402, 970.8276
422.6223, 989.2474
423.1044, 1008.820
423.5865, 1030.406
424.0686, 1053.642
424.5508, 1076.603
425.0329, 1099.867
425.5150, 1122.015
425.9971, 1142.247
426.4792, 1159.215
426.9613, 1177.063
427.4435, 1196.471
427.9256, 1216.289
428.4077, 1234.870
428.8898, 1253.086
429.3719, 1268.673
429.8540, 1281.396
430.3362, 1291.175
430.8183, 1297.293
431.3004, 1299.671
431.7825, 1298.465
432.2646, 1293.902
432.7467, 1286.029
433.2289, 1274.056
433.7110, 1257.863
434.1931, 1237.890
434.6752, 1214.563
435.1573, 1187.980
435.6394, 1159.289
436.1216, 1128.152
436.6036, 1095.352
437.0858, 1062.830
437.5679, 1030.458
438.0500, 999.0276
438.5321, 969.2645
439.0142, 940.9142
439.4963, 913.5143
439.9785, 886.7204
440.4606, 861.0334
440.9427, 837.3290
441.4248, 815.2758
441.9069, 794.1961
442.3890, 773.8668
442.8712, 754.3411
443.3533, 735.4504
443.8354, 716.9734
444.3175, 700.1256
444.7996, 685.6314
445.2817, 673.0156
445.7639, 661.6586
446.2460, 652.4811
446.7281, 643.3852
447.2102, 633.9003
447.6923, 624.1017
448.1744, 614.9254
448.6566, 606.0499
449.1387, 598.0918
449.6208, 591.5232
450.1029, 587.0109
450.5850, 581.6879
451.0671, 575.3047
451.5493, 568.4378
452.0314, 561.7005
452.5135, 554.9468
452.9956, 549.3180
453.4777, 545.6035
453.9598, 543.2303
454.4420, 539.3762
454.9241, 533.9225
455.4062, 528.4081
455.8883, 523.9985
456.3704, 520.5359
456.8525, 517.4036
457.3347, 514.6078
457.8168, 512.0885
458.2989, 509.8804
458.7810, 507.9352
459.2631, 506.1799
459.7452, 504.9498
460.2274, 503.6435
460.7095, 501.4947
461.1916, 498.5706
461.6737, 495.5888
462.1558, 492.8593
462.6379, 490.3025
463.1201, 487.9242
463.6022, 485.9360
464.0843, 483.5465
464.5664, 479.7789
465.0485, 475.5219
465.5306, 472.1956
466.0128, 471.1006
466.4949, 470.0124
466.9770, 468.1763
467.4591, 465.5421
467.9412, 463.3021
468.4233, 462.3287
468.9055, 461.0042
469.3876, 458.2965
469.8697, 453.3906
470.3518, 448.9355
470.8339, 445.1350
471.3160, 441.6793
471.7982, 437.9262
472.2803, 433.7833
472.7624, 429.7142
473.2445, 425.9648
473.7266, 422.4459
474.2087, 418.5344
474.6909, 414.1457
475.1730, 410.1564
475.6551, 407.9213
476.1372, 406.8895
476.6193, 404.4400
477.1014, 399.7523
477.5836, 394.9847
478.0657, 393.7737
478.5478, 394.8107
479.0299, 394.3795
479.5120, 389.2566
479.9941, 382.8398
480.4763, 378.0445
480.9584, 374.8545
481.4405, 372.8030
481.9226, 372.8148
482.4047, 373.1769
482.8868, 372.3060
483.3690, 368.8481
483.8511, 366.3534
484.3332, 366.6713
484.8153, 368.4177
485.2974, 369.3397
485.7795, 368.6867
486.2617, 367.6151
486.7438, 366.0556
487.2259, 364.0293
487.7080, 362.9732
488.1901, 363.3502
488.6722, 364.0843
489.1544, 364.4956
489.6365, 364.3943
490.1186, 364.7645
490.6007, 365.8284
491.0828, 367.0920
491.5649, 367.5879
492.0471, 367.2527
492.5292, 367.5442
493.0113, 369.4159
493.4934, 371.9862
493.9755, 372.4393
494.4576, 370.8751
494.9398, 369.6637
495.4219, 371.3185
495.9040, 374.3515
496.3861, 375.8121
496.8682, 375.1373
497.3503, 374.2166
497.8325, 374.6824
498.3146, 375.9236
498.7967, 377.0031
499.2788, 377.3188
499.7609, 377.6082
500.2430, 378.1286
500.7252, 378.9034
501.2073, 380.0284
501.6894, 382.1646
502.1715, 384.1441
502.6536, 385.3536
503.1357, 385.3781
503.6179, 385.6384
504.1000, 385.7824
504.5821, 386.4312
505.0642, 388.3763
505.5463, 392.5785
506.0284, 395.8905
506.5106, 397.5922
506.9927, 398.1570
507.4748, 399.1205
507.9569, 400.5298
508.4390, 402.0777
508.9211, 403.5368
509.4033, 404.9564
509.8854, 406.9650
510.3675, 409.6537
510.8496, 412.1488
511.3317, 413.4130
511.8138, 413.7990
512.2960, 414.2669
512.7781, 415.1522
513.2602, 415.9706
513.7423, 416.1400
514.2244, 415.8454
514.7065, 415.5342
515.1887, 415.5607
515.6708, 415.5359
516.1529, 415.2881
516.6350, 414.8018
517.1171, 413.9154
517.5992, 412.5750
518.0814, 410.8254
518.5635, 408.6612
519.0456, 405.6551
519.5277, 402.9437
520.0098, 401.0740
520.4919, 399.3386
520.9741, 396.6150
521.4562, 392.3403
521.9383, 388.2701
522.4204, 384.8896
522.9025, 382.0530
523.3846, 378.6993
523.8668, 374.6551
524.3489, 370.8971
524.8310, 368.1856
525.3131, 366.3737
525.7952, 364.3647
526.2773, 362.1210
526.7595, 359.5513
527.2416, 356.1927
527.7237, 352.4488
528.2058, 349.3526
528.6879, 347.5787
529.1700, 346.1157
529.6522, 343.7955
530.1343, 340.9704
530.6164, 338.5839
531.0985, 337.7828
531.5806, 337.0646
532.0627, 335.2282
532.5449, 332.0992
533.0270, 329.7437
533.5091, 329.3789
533.9912, 329.5999
534.4733, 329.4269
534.9554, 328.7127
535.4376, 327.6276
535.9197, 325.6327
536.4018, 323.5287
536.8839, 322.9445
537.3660, 324.5892
537.8481, 325.8234
538.3303, 325.9235
538.8124, 325.0427
539.2945, 323.8595
539.7766, 322.3137
540.2587, 320.9814
540.7408, 320.3236
541.2230, 320.2115
541.7051, 320.2548
542.1872, 320.4522
542.6693, 320.6198
543.1514, 320.5583
543.6335, 320.3435
544.1157, 320.1160
544.5978, 319.9610
545.0799, 319.7520
545.5620, 319.0183
546.0441, 318.1461
546.5262, 318.0893
547.0084, 320.5752
547.4905, 322.7047
547.9726, 322.9733
548.4547, 321.1267
548.9368, 319.7995
549.4189, 319.6085
549.9011, 319.6800
550.3832, 319.4706
550.8653, 318.5698
551.3474, 318.4145
551.8295, 319.3462
552.3116, 320.6380
552.7938, 321.1247
553.2759, 320.7032
553.7580, 320.4785
554.2401, 320.8116
554.7222, 321.4688
555.2043, 321.7972
555.6865, 321.8362
556.1686, 322.0364
556.6507, 322.8667
557.1328, 323.9593
557.6149, 324.7327
558.0970, 325.1561
558.5792, 325.5883
559.0613, 326.5260
559.5434, 327.4842
560.0255, 327.8787
560.5076, 326.9666
560.9897, 326.5865
561.4719, 328.0097
561.9540, 330.2141
562.4361, 331.4778
562.9182, 329.8661
563.4003, 329.2639
563.8824, 330.6061
564.3646, 333.6319
564.8467, 336.7505
565.3288, 340.3471
565.8109, 343.2286
566.2930, 344.3528
566.7751, 343.5977
567.2573, 344.5063
567.7394, 347.3563
568.2215, 350.6098
568.7036, 352.5273
569.1857, 353.4778
569.6678, 354.9140
570.1500, 357.1487
570.6321, 359.9000
571.1142, 362.9290
571.5963, 366.2057
572.0784, 369.6468
572.5605, 373.6012
573.0427, 377.4096
573.5248, 380.4733
574.0069, 382.9307
574.4890, 385.8939
574.9711, 389.7476
575.4532, 394.1026
575.9354, 398.7604
576.4175, 403.7070
576.8996, 408.9737
577.3817, 414.8389
577.8638, 420.6891
578.3459, 425.9086
578.8281, 430.0897
579.3102, 435.0461
579.7923, 441.0962
580.2744, 447.8005
580.7565, 454.3613
581.2386, 460.7667
581.7208, 466.7713
582.2029, 471.8415
582.6850, 476.8246
583.1671, 483.8624
583.6492, 492.6036
584.1313, 500.9256
584.6134, 507.8558
585.0955, 513.6163
585.5776, 517.8605
586.0598, 520.3486
586.5419, 523.9910
587.0240, 531.4057
587.5061, 539.7479
587.9882, 546.6476
588.4703, 550.2837
588.9525, 554.4979
589.4346, 559.8939
589.9167, 565.7559
590.3988, 570.8762
590.8809, 574.8055
591.3630, 579.0199
591.8452, 583.9445
592.3273, 589.3546
592.8094, 594.3721
593.2915, 598.9661
593.7736, 603.5569
594.2557, 608.6202
594.7379, 613.8207
595.2200, 618.2076
595.7021, 621.7316
596.1842, 625.4075
596.6663, 629.9891
597.1484, 635.2023
597.6306, 640.8764
598.1127, 647.0969
598.5948, 653.0723
599.0769, 659.0121
599.5590, 664.2887
600.0411, 668.1252
600.5233, 670.2410
601.0054, 670.9622
601.4875, 669.8152
601.9696, 667.3446
602.4517, 665.2648
602.9338, 664.1136
603.4160, 662.1921
603.8981, 659.0759
604.3802, 654.6973
604.8623, 648.4216
605.3444, 640.0728
605.8265, 630.7689
606.3087, 621.3200
606.7908, 611.6016
607.2729, 601.0685
607.7550, 589.5975
608.2371, 577.6061
608.7192, 564.9037
609.2014, 551.9890
609.6835, 539.2411
610.1656, 526.9167
610.6477, 515.0245
611.1298, 503.6095
611.6119, 492.6050
612.0941, 481.6314
612.5762, 470.1126
613.0583, 459.3655
613.5404, 449.5425
614.0225, 440.7341
614.5046, 432.5258
614.9868, 425.0744
615.4689, 418.0055
615.9510, 410.9749
616.4331, 404.0484
616.9152, 398.0900
617.3973, 393.1896
617.8795, 388.6057
618.3616, 383.6166
618.8437, 378.5409
619.3258, 374.1606
619.8079, 370.5271
620.2900, 367.7047
620.7722, 366.6906
621.2543, 366.2223
621.7364, 364.5019
622.2185, 359.2801
622.7006, 354.8101
623.1827, 352.8856
623.6649, 352.6913
624.1470, 352.2568
624.6291, 351.1918
625.1112, 350.0794
625.5933, 349.0382
626.0754, 348.0532
626.5576, 347.0277
627.0397, 345.8991
627.5218, 344.9207
628.0039, 344.2676
628.4860, 343.9070
628.9681, 343.5803
629.4503, 343.2867
629.9324, 343.0146
630.4145, 342.6490
630.8966, 342.3253
631.3787, 342.3451
631.8608, 342.8526
632.3430, 343.3301
632.8251, 343.4467
633.3072, 343.3294
633.7893, 343.1359
634.2714, 342.3140
634.7535, 342.1177
635.2357, 343.3343
635.7178, 345.2930
636.1999, 346.4219
636.6820, 346.0922
637.1641, 346.0923
637.6462, 347.0479
638.1284, 348.6951
638.6105, 349.5327
639.0926, 349.4832
639.5747, 349.3531
640.0568, 348.3486
640.5389, 347.7051
641.0211, 353.1208
641.5032, 364.4407
641.9853, 373.0822
642.4674, 369.1853
642.9495, 360.5145
643.4316, 355.7371
643.9138, 357.0888
644.3959, 359.3185
644.8780, 360.8973
645.3601, 361.9295
645.8422, 362.4821
646.3243, 361.7355
646.8065, 361.6331
647.2886, 362.3928
647.7707, 363.7415
648.2528, 365.3224
648.7349, 367.2596
649.2170, 368.8784
649.6992, 369.9991
650.1813, 370.7336
650.6634, 371.0799
651.1455, 371.1365
651.6276, 371.8960
652.1097, 374.5442
652.5919, 377.8648
653.0740, 380.2856
653.5561, 381.8615
654.0382, 383.3466
654.5203, 385.0979
655.0024, 386.9120
655.4846, 388.6386
655.9667, 390.1960
656.4488, 391.9383
656.9309, 394.1103
657.4130, 396.2982
657.8951, 398.1663
658.3773, 399.3762
658.8594, 401.2825
659.3415, 404.0908
659.8236, 407.3045
660.3057, 410.4454
660.7878, 413.4559
661.2700, 415.8878
661.7521, 417.4129
662.2342, 418.8060
662.7163, 421.1961
663.1984, 424.2985
663.6805, 427.4248
664.1627, 429.7912
664.6448, 432.4933
665.1269, 436.7174
665.6090, 441.9587
666.0911, 446.1886
666.5732, 447.1621
667.0554, 448.9170
667.5375, 453.0942
668.0196, 459.6732
668.5017, 465.3546
668.9838, 469.8325
669.4659, 474.2053
669.9481, 479.1786
670.4302, 484.6669
670.9123, 490.0568
671.3944, 495.3519
671.8765, 500.4138
672.3586, 504.4040
672.8408, 508.1956
673.3229, 513.6313
673.8050, 521.3404
674.2871, 529.1052
674.7692, 535.1990
675.2513, 540.6002
675.7335, 546.4080
676.2156, 553.0455
676.6977, 559.7384
677.1798, 566.2171
677.6619, 572.7651
678.1440, 580.0248
678.6262, 588.4225
679.1083, 596.4531
679.5904, 603.8541
680.0725, 610.7445
680.5546, 617.4149
681.0367, 623.9514
681.5189, 631.5306
682.0010, 641.7833
682.4831, 652.7422
682.9652, 661.1262
683.4473, 667.3729
683.9294, 674.3218
684.4116, 684.0214
684.8937, 694.3865
685.3758, 704.3656
685.8579, 713.7865
686.3400, 722.8963
686.8221, 731.0463
687.3043, 739.4345
687.7864, 748.7064
688.2685, 759.0845
688.7506, 769.0165
689.2327, 778.3708
689.7148, 787.8929
690.1970, 798.6230
690.6791, 810.3617
691.1612, 821.2035
691.6433, 830.7570
692.1254, 839.8153
692.6075, 849.5475
693.0897, 859.2733
693.5718, 867.8864
694.0539, 874.4608
694.5360, 881.0194
695.0181, 888.1852
695.5002, 896.0195
695.9824, 904.7946
696.4645, 916.4509
696.9466, 926.4271
697.4287, 933.5212
697.9108, 938.9199
698.3929, 945.7581
698.8751, 954.4865
699.3572, 962.5080
699.8393, 968.9508
700.3214, 974.2456
700.8035, 979.6035
701.2856, 984.8568
701.7678, 989.0469
702.2499, 990.4990
702.7320, 991.4301
703.2141, 994.1207
703.6962, 998.3732
704.1783, 1002.238
704.6605, 1005.158
705.1426, 1007.349
705.6247, 1008.921
706.1068, 1009.921
706.5889, 1009.890
707.0710, 1008.253
707.5532, 1006.564
708.0353, 1006.211
708.5174, 1007.198
708.9995, 1006.289
709.4816, 1003.250
709.9637, 999.5684
710.4459, 997.1571
710.9280, 995.0153
711.4101, 991.2272
711.8922, 985.3029
712.3743, 978.6658
712.8564, 971.8485
713.3386, 965.0104
713.8207, 958.2329
714.3028, 952.4847
714.7849, 945.4437
715.2670, 935.9545
715.7491, 925.7140
716.2313, 917.0021
716.7134, 910.5784
717.1955, 902.5167
717.6776, 891.5343
718.1597, 879.5635
718.6418, 869.9550
719.1240, 862.4955
719.6061, 856.0973
720.0882, 851.1290
720.5703, 846.1674
721.0524, 839.5486
721.5345, 831.8641
722.0167, 824.5358
722.4988, 817.6761
722.9809, 811.7330
723.4630, 806.9413
723.9451, 803.3175
724.4272, 800.8749
724.9094, 800.6748
725.3915, 799.6131
725.8736, 796.0221
726.3557, 790.6881
726.8378, 787.9520
727.3199, 787.8230
727.8021, 788.4460
728.2842, 788.7321
728.7663, 788.9731
729.2484, 789.5632
729.7305, 790.5112
730.2126, 791.8907
730.6948, 793.2990
731.1769, 795.4642
731.6590, 799.2825
732.1411, 805.2499
732.6232, 809.8598
733.1053, 811.6190
733.5875, 813.4394
734.0696, 817.2840
734.5517, 823.5980
735.0338, 828.4585
735.5159, 831.6735
735.9980, 834.5258
736.4802, 837.8406
736.9623, 841.8447
737.4444, 847.1898
737.9265, 854.0713
738.4086, 861.6218
738.8907, 869.4575
739.3729, 877.5138
739.8550, 885.5651
740.3371, 893.2656
740.8192, 901.7192
741.3013, 911.1559
741.7834, 921.3245
742.2656, 932.0032
742.7477, 943.1945
743.2298, 954.9156
743.7119, 967.1268
744.1940, 979.6618
744.6761, 991.7371
745.1583, 1003.759
745.6404, 1017.604
746.1225, 1034.248
746.6046, 1051.634
747.0867, 1067.179
747.5688, 1082.228
748.0510, 1098.829
748.5331, 1118.403
749.0152, 1139.080
749.4973, 1159.498
749.9794, 1180.926
750.4615, 1205.977
750.9437, 1235.656
751.4258, 1265.838
751.9079, 1295.593
752.3900, 1325.333
752.8721, 1356.358
753.3542, 1388.370
753.8364, 1423.652
754.3185, 1462.818
754.8006, 1505.571
755.2827, 1551.305
755.7648, 1600.096
756.2469, 1650.935
756.7291, 1700.743
757.2112, 1755.064
757.6933, 1817.125
758.1754, 1886.072
758.6575, 1958.631
759.1396, 2034.034
759.6218, 2113.374
760.1039, 2198.116
760.5860, 2286.808
761.0681, 2379.336
761.5502, 2475.460
762.0323, 2578.078
762.5145, 2689.813
762.9966, 2809.727
763.4787, 2938.292
763.9608, 3074.923
764.4429, 3216.094
764.9250, 3357.727
765.4072, 3505.665
765.8893, 3662.923
766.3714, 3831.490
766.8535, 4004.205
767.3356, 4180.085
767.8177, 4362.575
768.2999, 4551.212
768.7820, 4745.907
769.2641, 4949.674
769.7462, 5161.764
770.2283, 5377.518
770.7104, 5593.537
771.1926, 5810.966
771.6747, 6034.260
772.1568, 6261.441
772.6389, 6484.737
773.1210, 6707.341
773.6031, 6918.863
774.0853, 7113.719
774.5674, 7292.259
775.0495, 7451.047
775.5316, 7591.875
776.0137, 7710.512
776.4958, 7809.173
776.9780, 7887.186
777.4601, 7925.937
777.9422, 7924.793
778.4243, 7892.073
778.9064, 7829.746
779.3885, 7742.639
779.8707, 7634.931
780.3528, 7506.792
780.8349, 7362.298
781.3170, 7195.682
781.7991, 7020.358
782.2812, 6845.703
782.7633, 6672.283
783.2454, 6496.618
783.7275, 6320.050
784.2097, 6145.312
784.6918, 5974.028
785.1739, 5807.865
785.6560, 5649.807
786.1381, 5499.770
786.6202, 5354.569
787.1024, 5209.114
787.5845, 5066.873
788.0666, 4935.188
788.5487, 4814.750
789.0308, 4700.806
789.5129, 4590.636
789.9951, 4485.577
790.4772, 4387.747
790.9593, 4297.517
791.4414, 4210.084
791.9235, 4123.929
792.4056, 4041.104
792.8878, 3961.941
793.3699, 3886.847
793.8520, 3817.277
794.3341, 3752.824
794.8162, 3691.037
795.2983, 3627.208
795.7805, 3564.573
796.2626, 3505.486
796.7447, 3450.593
797.2268, 3400.368
797.7089, 3357.598
798.1910, 3317.076
798.6732, 3275.295
799.1553, 3230.777
799.6374, 3188.232
800.1195, 3147.471
800.6016, 3109.854
801.0837, 3077.294
801.5659, 3048.804
802.0480, 3020.581
802.5301, 2992.181
803.0122, 2965.473
803.4943, 2938.713
803.9764, 2915.833
804.4586, 2901.077
804.9407, 2897.901
805.4228, 2896.125
805.9049, 2892.982
806.3870, 2892.502
806.8691, 2898.550
807.3513, 2911.781
807.8334, 2924.907
808.3155, 2936.988
808.7976, 2951.809
809.2797, 2973.046
809.7618, 3000.076
810.2440, 3031.156
810.7261, 3066.010
811.2082, 3105.865
811.6903, 3151.103
812.1724, 3202.035
812.6545, 3258.318
813.1367, 3319.566
813.6188, 3388.397
814.1009, 3464.803
814.5830, 3547.589
815.0651, 3635.929
815.5472, 3729.747
816.0294, 3827.090
816.5115, 3926.677
816.9936, 4034.112
817.4757, 4155.096
817.9578, 4285.129
818.4399, 4418.173
818.9221, 4551.372
819.4042, 4692.018
819.8863, 4841.746
820.3684, 5000.719
820.8505, 5169.083
821.3326, 5346.852
821.8148, 5536.438
822.2969, 5735.831
822.7790, 5951.534
823.2611, 6183.773
823.7432, 6434.735
824.2253, 6710.334
824.7075, 7009.872
825.1896, 7330.767
825.6717, 7669.444
826.1538, 8028.452
826.6359, 8411.943
827.1180, 8818.939
827.6002, 9240.283
828.0823, 9669.147
828.5644, 10114.07
829.0465, 10581.61
829.5286, 11066.77
830.0107, 11552.53
830.4929, 12035.67
830.9750, 12513.75
831.4571, 12984.15
831.9392, 13443.86
832.4213, 13884.40
832.9034, 14299.98
833.3856, 14691.70
833.8677, 15044.09
834.3498, 15379.26
834.8319, 15713.53
835.3140, 16047.15
835.7961, 16362.78
836.2783, 16653.32
836.7604, 16945.09
837.2425, 17258.93
837.7246, 17585.74
838.2067, 17884.90
838.6888, 18160.49
839.1710, 18429.37
839.6531, 18724.11
840.1352, 19001.43
840.6173, 19233.25
841.0994, 19417.15
841.5815, 19536.24
842.0637, 19607.13
842.5458, 19589.26
843.0279, 19475.68
843.5100, 19262.94
843.9921, 18925.90
844.4742, 18466.96
844.9564, 17901.33
845.4385, 17229.04
845.9206, 16461.78
846.4027, 15591.53
846.8848, 14637.23
847.3669, 13662.84
847.8491, 12653.38
848.3312, 11675.14
848.8133, 10736.30
849.2954, 9839.815
849.7775, 9013.811
850.2596, 8252.759
850.7418, 7564.715
851.2239, 6955.384
851.7060, 6413.743
852.1881, 5931.124
852.6702, 5500.548
853.1523, 5113.975
853.6345, 4769.380
854.1166, 4459.583
854.5987, 4183.058
855.0808, 3938.328
855.5629, 3716.781
856.0450, 3526.067
856.5272, 3348.941
857.0093, 3185.776
857.4914, 3035.928
857.9735, 2900.190
858.4556, 2779.414
858.9377, 2666.835
859.4199, 2563.466
859.9020, 2467.787
860.3841, 2380.372
860.8662, 2300.088
861.3483, 2223.593
861.8304, 2150.842
862.3126, 2081.763
862.7947, 2017.561
863.2768, 1956.942
863.7589, 1899.356
864.2410, 1844.370
864.7231, 1791.918
865.2053, 1741.458
865.6874, 1693.658
866.1695, 1648.900
866.6516, 1606.690
867.1337, 1565.447
867.6158, 1524.746
868.0980, 1486.704
868.5801, 1453.384
869.0622, 1422.065
869.5443, 1390.448
870.0264, 1357.401
870.5085, 1327.532
870.9907, 1301.665
871.4728, 1277.799
871.9549, 1255.039
872.4370, 1233.404
872.9191, 1213.010
873.4012, 1193.698
873.8834, 1175.564
874.3655, 1158.545
874.8476, 1142.768
875.3297, 1128.644
875.8118, 1116.167
876.2939, 1102.749
876.7761, 1086.836
877.2582, 1072.223
877.7403, 1060.561
878.2224, 1051.238
878.7045, 1041.597
879.1866, 1031.649
879.6688, 1022.093
880.1509, 1012.807
880.6330, 1004.501
881.1151, 998.9642
881.5972, 995.0386
882.0793, 989.5197
882.5615, 979.5836
883.0436, 970.1990
883.5257, 962.4266
884.0078, 955.8138
884.4899, 949.2883
884.9720, 942.8195
885.4542, 937.2871
885.9363, 933.2059
886.4184, 929.4334
886.9005, 924.5266
887.3826, 918.8120
887.8647, 912.8848
888.3469, 906.9868
888.8290, 900.7570
889.3111, 893.4450
889.7932, 886.2108
890.2753, 880.4237
890.7574, 876.6768
891.2396, 871.3602
891.7217, 863.9616
892.2038, 856.0493
892.6859, 849.0273
893.1680, 842.8058
893.6501, 837.7297
894.1323, 834.0277
894.6144, 828.7500
895.0965, 818.6415
895.5786, 807.7411
896.0607, 798.7535
896.5428, 791.8311
897.0250, 785.9344
897.5071, 781.6243
897.9892, 776.5253
898.4713, 768.2325
898.9534, 758.1231
899.4355, 749.9818
899.9177, 743.6829
900.3998, 737.7495
900.8819, 732.8812
901.3640, 726.8193
901.8461, 717.0660
902.3282, 704.5571
902.8104, 695.1029
903.2925, 690.2285
903.7746, 685.0167
904.2567, 678.0949
904.7388, 670.0026
905.2209, 661.8942
905.7031, 653.7217
906.1852, 645.2514
906.6673, 635.7921
907.1494, 626.7983
907.6315, 619.1925
908.1136, 612.6884
908.5958, 606.9469
909.0779, 603.1346
909.5600, 597.6393
910.0421, 589.6088
910.5242, 580.9882
911.0063, 574.1319
911.4885, 568.8021
911.9706, 563.7063
912.4527, 558.7429
912.9348, 553.6571
913.4169, 547.9142
913.8990, 542.1799
914.3812, 536.9261
914.8633, 532.0999
915.3454, 528.5976
915.8275, 527.3512
916.3096, 525.7793
916.7917, 522.0049
917.2739, 516.4556
917.7560, 512.0643
918.2381, 508.7542
918.7202, 505.6335
919.2023, 501.8041
919.6844, 498.2033
920.1666, 496.0128
920.6487, 494.8425
921.1308, 492.5191
921.6129, 488.0138
922.0950, 483.5512
922.5771, 479.5797
923.0593, 476.0786
923.5414, 473.1135
924.0235, 470.6652
924.5056, 468.4301
924.9877, 466.4952
925.4698, 464.4343
925.9520, 461.7560
926.4341, 458.7648
926.9162, 455.9103
927.3983, 453.5683
927.8804, 450.8911
928.3625, 447.5956
928.8447, 444.4072
929.3268, 441.4155
929.8089, 438.9520
930.2910, 441.1226
930.7731, 448.6331
931.2552, 453.1533
931.7374, 443.6918
932.2195, 431.4722
932.7016, 427.0882
933.1837, 432.3713
933.6658, 434.7534
934.1479, 432.7706
934.6301, 428.6995
935.1122, 422.7425
935.5943, 415.6454
936.0764, 410.7183
936.5585, 407.7442
937.0406, 405.4092
937.5228, 403.2677
938.0049, 401.2143
938.4870, 398.8888
938.9691, 396.6093
939.4512, 395.2115
939.9333, 395.7831
940.4155, 395.4402
940.8976, 393.7039
941.3797, 391.1274
941.8618, 388.3408
942.3439, 385.4336
942.8260, 382.9669
943.3082, 381.0394
943.7903, 379.3379
944.2724, 377.5287
944.7545, 375.8839
945.2366, 374.6913
945.7188, 374.1716
946.2009, 373.4702
946.6830, 372.4967
947.1651, 371.5381
947.6472, 371.2207
948.1293, 371.1064
948.6115, 368.8272
949.0936, 364.6838
949.5757, 360.9537
950.0578, 359.0539
950.5399, 358.0058
951.0220, 357.4258
951.5042, 357.2573
951.9863, 357.4420
952.4684, 358.6316
952.9505, 358.2235
953.4326, 355.0294
953.9147, 350.9930
954.3969, 349.7892
954.8790, 350.5500
955.3611, 350.9592
955.8432, 350.4661
956.3253, 349.2388
956.8074, 346.3492
957.2896, 343.4048
957.7717, 341.9940
958.2538, 342.6050
958.7359, 343.0522
959.2180, 343.3569
959.7001, 343.3586
960.1823, 342.6682
960.6644, 341.6542
961.1465, 341.3064
961.6286, 341.5179
962.1107, 341.2137
962.5928, 339.0914
963.0750, 337.1689
963.5571, 336.4076
964.0392, 336.5302
964.5213, 336.7061
965.0034, 337.0277
965.4855, 336.5300
965.9677, 334.6157
966.4498, 332.3952
966.9319, 331.3217
967.4140, 331.0998
967.8961, 331.3123
968.3782, 332.5210
968.8604, 332.8508
969.3425, 331.4146
969.8246, 329.4813
970.3067, 327.8803
970.7888, 326.6050
971.2709, 326.3898
971.7531, 327.3121
972.2352, 328.0712
972.7173, 327.5783
973.1994, 326.4155
973.6815, 324.8851
974.1636, 323.1011
974.6458, 321.9200
975.1279, 322.0604
975.6100, 321.9302
976.0921, 320.7981
976.5742, 319.3211
977.0563, 319.7073
977.5385, 321.6103
978.0206, 322.8825
978.5027, 322.6494
978.9848, 321.8430
979.4669, 320.9769
979.9490, 320.0511
980.4311, 319.0604
980.9132, 317.9848
981.3953, 316.8383
981.8774, 315.4819
982.3596, 314.4152
982.8417, 314.1864
983.3238, 314.6068
983.8059, 315.3412
984.2880, 316.3096
984.7701, 316.8074
985.2523, 315.7881
985.7344, 314.8077
986.2165, 315.0136
986.6986, 316.0134
987.1807, 316.1154
987.6628, 315.2054
988.1450, 313.9256
988.6271, 312.1050
989.1092, 310.7422
989.5913, 312.5141
990.0734, 315.5374
990.5555, 316.0874
991.0377, 311.1811
991.5198, 307.8332
992.0019, 308.8974
992.4840, 310.9976
992.9661, 311.7651
993.4482, 311.1649
993.9304, 310.0904
994.4125, 308.5191
994.8946, 307.6325
995.3767, 309.0598
995.8588, 310.9366
996.3409, 311.5464
996.8231, 310.9677
997.3052, 310.1774
997.7873, 309.0500
998.2694, 308.1771
998.7515, 307.6675
999.2336, 307.4966
999.7158, 307.8923
1000.198, 308.6262
1000.680, 308.7708
1001.162, 307.9019
1001.644, 307.0188
1002.126, 306.4297
1002.608, 306.3601
1003.091, 307.2160
1003.573, 309.2826
1004.055, 310.5029
1004.537, 310.8129
1005.019, 310.6379
1005.501, 309.9986
1005.983, 309.2059
1006.465, 308.8528
1006.948, 308.8328
1007.430, 308.7071
1007.912, 307.6415
1008.394, 307.3308
1008.876, 308.7108
1009.358, 310.6896
1009.840, 310.9753
1010.322, 309.6499
1010.804, 309.9108
1011.287, 312.6125
1011.769, 315.0562
1012.251, 314.2386
1012.733, 312.1558
1013.215, 310.8040
1013.697, 310.6006
1014.179, 310.0117
1014.661, 308.4224
1015.143, 307.7130
1015.626, 309.1958
1016.108, 312.0389
1016.590, 314.0971
1017.072, 315.3312
1017.554, 315.6627
1018.036, 313.8636
1018.518, 312.5292
1019.000, 313.3681
1019.483, 314.9967
1019.965, 315.4109
1020.447, 314.2668
1020.929, 313.8012
1021.411, 314.1741
1021.893, 315.1837
1022.375, 317.5352
1022.857, 319.8835
1023.339, 320.2794
1023.822, 318.6448
1024.304, 317.0532
1024.786, 315.6820
1025.268, 314.9048
1025.750, 314.9496
1026.232, 315.5972
1026.714, 316.3376
1027.196, 317.1577
1027.679, 317.9902
1028.161, 318.8460
1028.643, 319.6198
1029.125, 320.3964
1029.607, 320.9676
1030.089, 321.0517
1030.571, 320.4904
1031.053, 320.0082
1031.536, 319.5356
1032.018, 319.4345
1032.500, 320.3300
1032.982, 321.5655
1033.464, 321.9201
1033.946, 321.5960
1034.428, 321.5428
1034.910, 322.8318
1035.392, 323.4438
1035.875, 322.6193
1036.357, 321.2428
1036.839, 321.0891
1037.321, 321.9576
1037.803, 321.8253
1038.285, 320.2092
1038.767, 318.7569
1039.249, 319.3149
1039.731, 320.2103
1040.214, 319.7634
1040.696, 317.7569
1041.178, 317.0474
1041.660, 317.9250
1042.142, 319.0450
1042.624, 319.8830
1043.106, 320.5458
1043.588, 321.3247
1044.071, 322.1002
1044.553, 322.6045
1045.035, 322.5943
1045.517, 322.5417
1045.999, 322.5706
1046.481, 322.5645
1046.963, 322.5077
1047.445, 322.3756
1047.927, 321.3904
1048.410, 319.5658
1048.892, 318.4830
1049.374, 319.8802
1049.856, 321.8699
1050.338, 323.6117
1050.820, 324.7964
1051.302, 324.3353
1051.784, 321.5741
1052.266, 319.3813
1052.749, 318.2709
1053.231, 318.0945
1053.713, 319.2970
1054.195, 321.0459
1054.677, 322.0161
1055.159, 321.9063
1055.641, 321.2884
1056.123, 319.7109
1056.606, 318.3798
1057.088, 317.9734
1057.570, 318.2670
1058.052, 317.9262
1058.534, 317.0736
1059.016, 316.5071
1059.498, 316.9400
1059.980, 317.3135
1060.463, 316.8056
1060.945, 315.9091
1061.427, 315.3421
1061.909, 315.2491
1062.391, 315.0045
1062.873, 314.5585
1063.355, 314.1552
1063.837, 313.9309
1064.319, 313.9218
1064.802, 314.4417
1065.284, 315.3268
1065.766, 315.6071
1066.248, 314.6129
1066.730, 313.5039
1067.212, 312.4108
1067.694, 311.3859
1068.176, 310.4303
1068.658, 309.6245
1069.141, 309.3775
1069.623, 309.8325
1070.105, 310.3542
1070.587, 310.8321
1071.069, 311.0090
1071.551, 310.4966
1072.033, 309.4099
1072.515, 309.6860
1072.998, 311.4026
1073.480, 311.9358
1073.962, 309.4054
1074.444, 306.2568
1074.926, 304.8417
1075.408, 304.6880
1075.890, 305.1513
1076.372, 306.7674
1076.854, 307.6461
1077.337, 307.5988
1077.819, 307.3185
1078.301, 307.4682
1078.783, 307.7789
1079.265, 307.4462
1079.747, 306.6135
1080.229, 306.0917
1080.711, 306.8294
1081.193, 307.1479
1081.676, 306.4344
1082.158, 305.2539
1082.640, 304.4724
1083.122, 304.0775
1083.604, 304.0862
1084.086, 304.5419
1084.568, 304.8292
1085.050, 304.1951
1085.532, 303.4561
1086.015, 303.3987
1086.497, 302.8412
1086.979, 302.3391
1087.461, 302.4328
1087.943, 301.6223
1088.425, 301.8608
1088.907, 302.2411
1089.389, 301.3503
1089.872, 299.9328
1090.354, 299.1192
1090.836, 299.5082
1091.318, 299.4198
1091.800, 298.4701
1092.282, 297.6716
1092.764, 297.8120
1093.246, 298.5167
1093.729, 298.8355
1094.211, 298.7384
1094.693, 298.1338
1095.175, 296.2610
1095.657, 294.7957
1096.139, 294.3783
1096.621, 294.4066
1097.103, 294.2654
1097.585, 293.9668
1098.068, 293.7482
1098.550, 293.6288
1099.032, 293.7818
1099.514, 294.9620
1099.996, 295.8738
1100.478, 295.4072
1100.960, 293.9179
1101.442, 292.7871
1101.924, 292.0003
1102.407, 291.6922
1102.889, 291.9739
1103.371, 292.3530
1103.853, 292.3163
1104.335, 292.0325
1104.817, 291.6143
1105.299, 291.0397
1105.781, 290.8708
1106.264, 291.5574
1106.746, 291.5573
1107.228, 289.9019
1107.710, 287.7123
1108.192, 287.3385
1108.674, 288.2129
1109.156, 289.1101
1109.638, 289.8693
1110.120, 290.0628
1110.603, 289.0220
1111.085, 288.0689
1111.567, 288.2761
1112.049, 289.3624
1112.531, 289.0397
1113.013, 287.5536
1113.495, 286.4374
1113.977, 287.0049
1114.459, 287.5482
1114.942, 287.0792
1115.424, 286.2185
1115.906, 285.8141
1116.388, 285.9301
1116.870, 285.7309
1117.352, 285.1572
1117.834, 284.7285
1118.316, 285.0618
1118.799, 285.5339
1119.281, 285.5649
1119.763, 285.2652
1120.245, 285.2019
1120.727, 285.4655
1121.209, 285.6516
1121.691, 285.6467
1122.173, 285.7179
1122.656, 286.6562
1123.138, 287.6058
1123.620, 287.1628
1124.102, 285.1186
1124.584, 283.6062
1125.066, 282.8424
1125.548, 282.6871
1126.030, 283.2548
1126.512, 284.1813
1126.995, 284.7233
1127.477, 285.0538
1127.959, 285.7526
1128.441, 287.3781
1128.923, 287.7949
1129.405, 284.9448
1129.887, 282.3729
1130.369, 282.0912
1130.851, 283.5119
1131.334, 283.6216
1131.816, 282.7793
1132.298, 282.7520
1132.780, 285.1450
1133.262, 287.1498
1133.744, 287.1844
1134.226, 286.4149
1134.708, 285.9003
1135.191, 285.6641
1135.673, 285.2169
1136.155, 284.5652
1136.637, 284.0494
1137.119, 284.0702
1137.601, 284.1180
1138.083, 283.8402
1138.565, 283.3339
1139.047, 282.8513
1139.530, 282.4236
1140.012, 281.7268
1140.494, 280.6609
1140.976, 280.0598
1141.458, 281.3448
1141.940, 282.9630
1142.422, 283.2497
1142.904, 282.3381
1143.386, 281.4559
1143.869, 280.4603
1144.351, 280.2275
1144.833, 281.0695
1145.315, 282.1779
1145.797, 282.5909
1146.279, 282.5685
1146.761, 282.3443
1147.243, 281.9394
1147.726, 282.0173
1148.208, 283.2679
1148.690, 283.6875
1149.172, 282.4144
1149.654, 280.3840
1150.136, 279.2191
1150.618, 278.7109
1151.100, 278.3882
1151.583, 278.0503
1152.065, 278.4168
1152.547, 280.5521
1153.029, 282.1286
1153.511, 281.7573
1153.993, 280.1881
1154.475, 280.0217
1154.957, 280.8280
1155.439, 281.1107
1155.922, 279.8896
1156.404, 279.0248
1156.886, 279.6865
1157.368, 280.4937
1157.850, 280.6264
1158.332, 280.1144
1158.814, 278.6794
1159.296, 276.6119
1159.778, 275.8011
1160.261, 278.7236
1160.743, 281.4097
1161.225, 282.0071
1161.707, 281.3274
1162.189, 279.8071
1162.671, 277.3972
1163.153, 276.4274
1163.635, 276.9134
1164.118, 277.6048
1164.600, 278.0394
1165.082, 278.0104
1165.564, 276.8944
1166.046, 275.4024
1166.528, 274.9478
1167.010, 275.6779
1167.492, 276.0056
1167.974, 275.7786
1168.457, 275.4342
1168.939, 275.0523
1169.421, 274.9503
1169.903, 275.6289
1170.385, 276.8428
1170.867, 277.5375
1171.349, 277.7156
1171.831, 277.2546
1172.313, 276.0305
1172.796, 274.8077
1173.278, 274.2911
1173.760, 274.2360
1174.242, 274.5418
1174.724, 275.1691
1175.206, 275.6102
1175.688, 275.8381
1176.170, 275.9056
1176.653, 275.7323
1177.135, 275.6971
1177.617, 276.7424
1178.099, 277.9402
1178.581, 277.9272
1179.063, 276.3394
1179.545, 275.5772
1180.027, 275.9365
1180.510, 276.3032
1180.992, 276.3392
1181.474, 276.0402
1181.956, 274.5263
1182.438, 273.0226
1182.920, 273.9001
1183.402, 278.8638
1183.884, 280.8166
1184.366, 278.6459
1184.849, 275.9320
1185.331, 274.1755
1185.813, 273.2020
1186.295, 273.0137
1186.777, 273.2761
1187.259, 273.3698
1187.741, 273.0927
1188.223, 272.6574
1188.705, 271.8287
1189.188, 271.4681
1189.670, 272.6507
1190.152, 274.3560
1190.634, 274.2859
1191.116, 272.9828
1191.598, 271.7507
1192.080, 270.6864
1192.562, 270.3464
1193.045, 271.0912
1193.527, 271.7953
1194.009, 271.3928
1194.491, 270.3278
1194.973, 269.5634
1195.455, 269.0543
1195.937, 268.6012
1196.419, 267.9814
1196.901, 267.6907
1197.384, 267.9347
1197.866, 268.2044
1198.348, 267.8391
1198.830, 267.1778
1199.312, 267.2664
1199.794, 267.9213
1200.276, 268.0678
1200.758, 266.6751
1201.240, 265.6193
1201.723, 265.2319
1202.205, 265.1751
1202.687, 264.9460
1203.169, 264.7595
1203.651, 265.4407
1204.133, 266.8757
1204.615, 267.6797
1205.097, 266.8956
1205.580, 265.9717
1206.062, 265.1128
1206.544, 264.3425
1207.026, 263.6172
1207.508, 263.0284
1207.990, 262.8410
1208.472, 263.0716
1208.954, 263.5312
1209.437, 264.4226
1209.919, 265.2078
1210.401, 265.8862
1210.883, 266.2214
1211.365, 265.7010
1211.847, 264.5627
1212.329, 263.1479
1212.811, 261.4996
1213.293, 260.4671
1213.776, 260.6590
1214.258, 261.1357
1214.740, 261.8204
1215.222, 262.4320
1215.704, 262.2670
1216.186, 261.6422
1216.668, 261.3538
1217.150, 261.5879
1217.632, 261.5432
1218.115, 260.6953
1218.597, 260.0031
1219.079, 259.8555
1219.561, 259.9339
1220.043, 259.4034
1220.525, 258.6290
1221.007, 258.4790
1221.489, 259.2389
1221.972, 259.9743
1222.454, 260.7496
1222.936, 260.9550
1223.418, 260.1098
1223.900, 258.8688
1224.382, 258.7886
1224.864, 259.3536
1225.346, 259.5100
1225.828, 258.9997
1226.311, 258.0702
1226.793, 256.4803
1227.275, 255.1465
1227.757, 254.4789
1228.239, 254.3349
1228.721, 254.6407
1229.203, 255.1897
1229.685, 255.5768
1230.167, 255.7201
1230.650, 255.5531
1231.132, 254.8059
1231.614, 254.4872
1232.096, 255.4539
1232.578, 256.7811
1233.060, 256.4634
1233.542, 255.2165
1234.024, 254.4158
1234.507, 254.6222
1234.989, 254.7149
1235.471, 254.7386
1235.953, 254.3514
1236.435, 253.0643
1236.917, 251.5519
1237.399, 250.9267
1237.881, 250.9029
1238.364, 251.0019
1238.846, 251.2168
1239.328, 251.2368
1239.810, 250.9183
1240.292, 251.0015
1240.774, 252.2427
1241.256, 253.8490
1241.738, 255.5334
1242.220, 256.5659
1242.703, 255.2932
1243.185, 249.8154
1243.667, 247.5395
1244.149, 248.9488
1244.631, 250.7331
1245.113, 250.7557
1245.595, 250.0082
1246.077, 249.1573
1246.559, 248.4425
1247.042, 248.3665
1247.524, 249.1906
1248.006, 249.7170
1248.488, 249.9570
1248.970, 249.7692
1249.452, 248.5210
1249.934, 247.3475
1250.416, 247.4906
1250.899, 248.2640
1251.381, 248.6386
1251.863, 248.6479
1252.345, 247.6914
1252.827, 245.7725
1253.309, 244.1734
1253.791, 243.9590
1254.273, 244.1373
1254.755, 243.8786
1255.238, 243.7244
1255.720, 244.6993
1256.202, 246.9123
1256.684, 247.1421
1257.166, 245.4296
1257.648, 243.6632
1258.130, 242.5682
1258.612, 242.2120
1259.094, 243.2985
1259.577, 244.6881
1260.059, 245.0823
1260.541, 244.5871
1261.023, 244.6931
1261.505, 245.3413
1261.987, 245.7467
1262.469, 245.2043
1262.951, 244.7137
1263.434, 244.7682
1263.916, 244.8189
1264.398, 244.0636
1264.880, 242.8127
1265.362, 242.6225
1265.844, 243.3474
1266.326, 243.9934
1266.808, 243.7738
1267.291, 243.9778
1267.773, 245.0816
1268.255, 246.1700
1268.737, 246.2452
1269.219, 245.6366
1269.701, 245.0134
1270.183, 244.4504
1270.665, 244.1078
1271.147, 244.0416
1271.630, 244.1152
1272.112, 244.0568
1272.594, 244.8768
1273.076, 248.9798
1273.558, 253.6490
1274.040, 254.6183
1274.522, 252.5381
1275.004, 249.6853
1275.486, 245.7048
1275.969, 242.9580
1276.451, 241.6269
1276.933, 241.4040
1277.415, 243.0791
1277.897, 244.8625
1278.379, 244.4405
1278.861, 242.6873
1279.343, 241.8689
1279.825, 242.2422
1280.308, 242.7770
1280.790, 243.4442
1281.272, 243.8213
1281.754, 243.3516
1282.236, 242.7240
1282.718, 242.4439
1283.200, 242.3162
1283.682, 241.8777
1284.165, 241.0909
1284.647, 241.3048
1285.129, 242.5002
1285.611, 243.5328
1286.093, 243.4159
1286.575, 243.3304
1287.057, 244.1488
1287.539, 244.9820
1288.021, 244.7419
1288.504, 243.6385
1288.986, 242.5685
1289.468, 241.6976
1289.950, 241.7181
1290.432, 244.3374
1290.914, 245.8332
1291.396, 245.0518
1291.878, 243.8428
1292.360, 244.1528
1292.843, 245.3251
1293.325, 245.7702
1293.807, 245.6055
1294.289, 245.3939
1294.771, 245.3957
1295.253, 245.1452
1295.735, 244.4865
1296.217, 244.0218
1296.700, 244.6206
1297.182, 245.4569
1297.664, 245.1116
1298.146, 244.0982
1298.628, 243.8235
1299.110, 244.5967
1299.592, 245.6265
1300.074, 246.9557
1300.557, 247.8000
1301.039, 247.1008
1301.521, 246.2083
1302.003, 246.6691
1302.485, 247.4289
1302.967, 247.0953
1303.449, 245.8120
##END=



