##NAMES=Devilline
##RRUFFID=R060126
##IDEAL CHEMISTRY=CaCu^2+^_4_(S^6+^O_4_)_2_(OH)_6_&#183;3H_2_O
##LOCALITY=Herrengrund, Hungary
##OWNER=RRUFF
##SOURCE=University of Arizona Mineral Museum
##DESCRIPTION=Greenish-blue pseudohexagonal crystals
##STATUS=The identification of this mineral has been confirmed only by single crystal X-ray diffraction.
##URL=rruff.info/R060126
90.26367, 11.34133
90.74579, 11.52987
91.22791, 11.45052
91.71002, 11.13281
92.19214, 10.83590
92.67426, 10.81193
93.15637, 10.97891
93.63850, 11.12127
94.12061, 11.15994
94.60273, 11.12966
95.08485, 11.10246
95.56696, 11.07720
96.04908, 11.06445
96.53120, 11.16748
97.01331, 11.36932
97.49543, 11.35897
97.97755, 10.80062
98.45966, 9.749771
98.94178, 9.215744
99.42390, 9.322786
99.90602, 9.778031
100.3881, 10.05642
100.8703, 10.14459
101.3524, 10.10288
101.8345, 9.891892
102.3166, 9.417509
102.7987, 9.218306
103.2808, 9.469942
103.7630, 10.02033
104.2451, 10.14885
104.7272, 9.589649
105.2093, 8.961391
105.6914, 8.674540
106.1735, 8.931277
106.6557, 9.188840
107.1378, 9.380655
107.6199, 9.506040
108.1020, 9.643905
108.5841, 9.808804
109.0662, 9.979506
109.5484, 10.13897
110.0305, 10.29504
110.5126, 10.43396
110.9947, 10.57606
111.4768, 10.74940
111.9590, 10.80187
112.4411, 10.48087
112.9232, 10.08882
113.4053, 10.02390
113.8874, 10.78262
114.3695, 11.53259
114.8517, 11.89928
115.3338, 11.63564
115.8159, 11.50815
116.2980, 11.61951
116.7801, 12.02162
117.2622, 12.81449
117.7444, 14.67846
118.2265, 16.56899
118.7086, 17.71980
119.1907, 17.50173
119.6728, 17.25070
120.1549, 17.65391
120.6371, 18.63616
121.1192, 19.89812
121.6013, 21.32465
122.0834, 22.90866
122.5655, 24.64565
123.0477, 26.64393
123.5298, 28.69873
124.0119, 30.56326
124.4940, 32.25667
124.9761, 34.05727
125.4582, 36.43507
125.9404, 39.06405
126.4225, 41.28127
126.9046, 42.45959
127.3867, 43.18128
127.8688, 44.45643
128.3509, 46.33427
128.8331, 48.28577
129.3152, 49.60608
129.7973, 50.43668
130.2794, 51.45160
130.7615, 53.02677
131.2436, 55.04310
131.7258, 57.06198
132.2079, 59.04143
132.6900, 61.09860
133.1721, 63.41698
133.6542, 65.98864
134.1364, 68.73719
134.6185, 71.74180
135.1006, 74.99995
135.5827, 78.05704
136.0648, 80.84873
136.5469, 83.48910
137.0291, 86.36559
137.5112, 89.58040
137.9933, 92.52715
138.4754, 94.82454
138.9575, 96.39092
139.4396, 97.65450
139.9218, 98.52330
140.4039, 99.12162
140.8860, 100.0292
141.3681, 101.2513
141.8502, 102.7680
142.3323, 104.6611
142.8145, 107.3355
143.2966, 109.3717
143.7787, 110.2381
144.2608, 109.9748
144.7429, 110.6156
145.2251, 112.6768
145.7072, 115.1891
146.1893, 117.2421
146.6714, 118.5697
147.1535, 119.8285
147.6356, 121.0934
148.1178, 122.3408
148.5999, 123.7137
149.0820, 125.0844
149.5641, 126.6311
150.0462, 128.5576
150.5283, 131.4701
151.0105, 134.1338
151.4926, 134.9070
151.9747, 134.4376
152.4568, 134.5733
152.9389, 136.1632
153.4210, 138.1804
153.9032, 139.2037
154.3853, 138.1186
154.8674, 136.8975
155.3495, 136.1874
155.8316, 136.2500
156.3138, 136.2768
156.7959, 136.0056
157.2780, 135.6207
157.7601, 135.4717
158.2422, 135.7765
158.7243, 136.2189
159.2065, 136.6701
159.6886, 137.2034
160.1707, 137.5763
160.6528, 137.4610
161.1349, 137.0958
161.6170, 137.1179
162.0992, 138.2739
162.5813, 139.5732
163.0634, 140.3268
163.5455, 139.9314
164.0276, 139.5872
164.5097, 139.9523
164.9919, 140.8585
165.4740, 141.6542
165.9561, 141.9988
166.4382, 142.1022
166.9203, 142.1656
167.4025, 142.3880
167.8846, 142.4440
168.3667, 142.1355
168.8488, 141.4824
169.3309, 140.5976
169.8130, 139.5335
170.2952, 138.2769
170.7773, 136.8234
171.2594, 134.9704
171.7415, 133.0585
172.2236, 131.2678
172.7057, 129.6045
173.1879, 128.2060
173.6700, 127.1981
174.1521, 126.5180
174.6342, 126.0528
175.1163, 125.8573
175.5984, 125.7963
176.0806, 125.7363
176.5627, 125.6769
177.0448, 125.5987
177.5269, 125.3638
178.0090, 125.0872
178.4911, 125.0391
178.9733, 125.4995
179.4554, 126.2070
179.9375, 126.7564
180.4196, 127.1295
180.9017, 127.4360
181.3839, 127.8133
181.8660, 128.2259
182.3481, 128.5576
182.8302, 128.5837
183.3123, 128.5065
183.7944, 128.8452
184.2766, 129.6649
184.7587, 130.6443
185.2408, 131.4111
185.7229, 131.9910
186.2050, 132.5828
186.6871, 133.2743
187.1693, 134.0564
187.6514, 134.8721
188.1335, 135.7471
188.6156, 136.5978
189.0977, 137.3351
189.5798, 137.9544
190.0620, 138.4600
190.5441, 138.6184
191.0262, 138.5583
191.5083, 139.2916
191.9904, 141.1084
192.4725, 143.2093
192.9547, 144.1035
193.4368, 143.7640
193.9189, 143.3709
194.4010, 143.6032
194.8831, 144.4219
195.3652, 145.2122
195.8474, 145.9393
196.3295, 146.6159
196.8116, 147.2498
197.2937, 147.8328
197.7758, 148.4298
198.2579, 149.0890
198.7401, 149.8120
199.2222, 150.4889
199.7043, 151.0929
200.1864, 151.6530
200.6685, 152.2603
201.1507, 152.9319
201.6328, 153.5475
202.1149, 154.0262
202.5970, 154.3579
203.0791, 154.6362
203.5612, 154.8318
204.0434, 155.0036
204.5255, 155.3397
205.0076, 155.8908
205.4897, 156.4363
205.9718, 156.8149
206.4539, 156.9868
206.9361, 157.2410
207.4182, 157.6171
207.9003, 158.0863
208.3824, 158.6231
208.8645, 159.3239
209.3466, 159.8468
209.8288, 159.9719
210.3109, 159.6460
210.7930, 159.1284
211.2751, 158.3294
211.7572, 157.3846
212.2393, 156.8033
212.7215, 156.7147
213.2036, 156.7151
213.6857, 156.5528
214.1678, 156.1850
214.6499, 155.7966
215.1321, 155.4208
215.6142, 155.0298
216.0963, 154.5038
216.5784, 153.8004
217.0605, 153.0472
217.5426, 152.3433
218.0248, 151.7592
218.5069, 151.0125
218.9890, 149.9459
219.4711, 148.6927
219.9532, 147.9048
220.4353, 147.7737
220.9175, 147.7832
221.3996, 147.6148
221.8817, 147.2222
222.3638, 146.7699
222.8459, 146.2289
223.3280, 145.6325
223.8102, 145.2092
224.2923, 145.0554
224.7744, 144.9135
225.2565, 144.5594
225.7386, 143.7237
226.2208, 143.3515
226.7029, 143.7177
227.1850, 144.6422
227.6671, 145.1442
228.1492, 144.9679
228.6313, 144.7322
229.1135, 144.8463
229.5956, 145.5600
230.0777, 146.0579
230.5598, 146.2064
231.0419, 146.0846
231.5240, 146.0848
232.0062, 146.2562
232.4883, 146.4857
232.9704, 146.6913
233.4525, 146.7870
233.9346, 147.0596
234.4167, 147.6094
234.8989, 148.3616
235.3810, 148.9599
235.8631, 149.3545
236.3452, 149.6675
236.8273, 149.9796
237.3095, 150.3436
237.7916, 150.5743
238.2737, 150.5755
238.7558, 150.4286
239.2379, 150.5185
239.7200, 151.0992
240.2022, 151.5704
240.6843, 151.5844
241.1664, 150.9055
241.6485, 150.2930
242.1306, 149.8488
242.6127, 149.4957
243.0949, 148.9445
243.5770, 148.1100
244.0591, 147.1996
244.5412, 146.3435
245.0233, 145.6387
245.5054, 144.7573
245.9876, 143.5936
246.4697, 142.2658
246.9518, 141.1120
247.4339, 140.1862
247.9160, 139.3492
248.3981, 138.5507
248.8803, 137.8008
249.3624, 137.0558
249.8445, 136.3501
250.3266, 135.6366
250.8087, 134.7943
251.2909, 133.8522
251.7730, 132.7399
252.2551, 131.3828
252.7372, 129.5576
253.2193, 128.0573
253.7014, 127.0611
254.1836, 126.3217
254.6657, 125.2447
255.1478, 123.5876
255.6299, 122.0179
256.1120, 120.8548
256.5941, 120.3285
257.0763, 119.4926
257.5584, 118.2551
258.0405, 116.7588
258.5226, 115.2592
259.0047, 113.6246
259.4868, 112.2389
259.9690, 111.3747
260.4511, 111.2533
260.9332, 110.6000
261.4153, 109.1885
261.8974, 107.4350
262.3795, 106.0849
262.8617, 105.2812
263.3438, 104.5034
263.8259, 103.5188
264.3080, 102.2645
264.7901, 101.3001
265.2722, 100.6940
265.7544, 100.2943
266.2365, 99.91658
266.7186, 99.58054
267.2007, 99.20837
267.6829, 98.77773
268.1650, 98.28068
268.6471, 97.75649
269.1292, 97.16941
269.6113, 96.59695
270.0934, 96.14169
270.5756, 95.82205
271.0577, 95.52625
271.5398, 95.17920
272.0219, 94.78674
272.5040, 94.71340
272.9861, 95.06680
273.4683, 95.50677
273.9504, 95.66674
274.4325, 95.50182
274.9146, 95.28757
275.3967, 95.04253
275.8788, 94.78879
276.3610, 94.73421
276.8431, 94.90191
277.3252, 95.19775
277.8073, 95.62751
278.2894, 96.22614
278.7715, 96.53110
279.2537, 96.32728
279.7358, 95.79104
280.2179, 95.69740
280.7000, 96.11512
281.1821, 96.67187
281.6642, 97.06933
282.1464, 97.30669
282.6285, 97.60423
283.1106, 98.03161
283.5927, 98.51292
284.0748, 98.79028
284.5569, 98.83569
285.0391, 98.93246
285.5212, 99.42895
286.0033, 100.2631
286.4854, 100.6763
286.9675, 100.4957
287.4496, 99.96735
287.9318, 99.52900
288.4139, 99.17776
288.8960, 98.91570
289.3781, 98.76517
289.8602, 98.70874
290.3424, 98.68778
290.8245, 98.73447
291.3066, 98.72291
291.7887, 98.44566
292.2708, 97.91755
292.7530, 97.26903
293.2351, 96.43384
293.7172, 95.52443
294.1993, 95.00218
294.6814, 94.95680
295.1635, 94.95280
295.6457, 94.34109
296.1278, 93.25626
296.6099, 92.27769
297.0920, 91.69801
297.5741, 91.41223
298.0562, 91.28087
298.5384, 91.31252
299.0205, 91.37133
299.5026, 91.34575
299.9847, 91.24405
300.4668, 91.08337
300.9489, 90.78936
301.4311, 90.48540
301.9132, 90.40213
302.3953, 90.52995
302.8774, 90.63521
303.3595, 90.40166
303.8416, 90.03429
304.3238, 89.90846
304.8059, 90.35488
305.2880, 90.88921
305.7701, 90.92593
306.2522, 90.54441
306.7343, 90.22660
307.2165, 90.30968
307.6986, 90.63254
308.1807, 91.00330
308.6628, 91.41245
309.1449, 91.80215
309.6270, 92.13060
310.1092, 92.40764
310.5913, 92.65601
311.0734, 92.84650
311.5555, 93.03600
312.0376, 93.28265
312.5197, 93.62458
313.0019, 93.94762
313.4840, 94.15838
313.9661, 94.30847
314.4482, 94.50545
314.9304, 94.89271
315.4125, 95.27302
315.8946, 95.47909
316.3767, 95.44024
316.8588, 95.49940
317.3409, 96.02557
317.8231, 96.67570
318.3052, 96.99627
318.7873, 96.33804
319.2694, 95.77477
319.7515, 95.86967
320.2336, 96.70724
320.7158, 97.37547
321.1979, 97.57336
321.6800, 97.50373
322.1621, 97.34727
322.6442, 96.79230
323.1263, 96.51004
323.6085, 96.80866
324.0906, 97.64380
324.5727, 98.30572
325.0548, 98.79384
325.5369, 99.00922
326.0190, 98.88992
326.5012, 97.80977
326.9833, 97.12143
327.4654, 97.15750
327.9475, 97.72831
328.4296, 98.06893
328.9117, 98.00274
329.3939, 97.86144
329.8760, 97.78301
330.3581, 97.86256
330.8402, 97.82104
331.3223, 97.56927
331.8044, 97.21812
332.2866, 96.99412
332.7687, 96.94774
333.2508, 96.95594
333.7329, 97.01482
334.2150, 97.17294
334.6971, 97.13227
335.1793, 96.84309
335.6614, 96.40295
336.1435, 95.90738
336.6256, 95.27660
337.1077, 94.81126
337.5899, 94.69015
338.0720, 94.88086
338.5541, 94.67800
339.0362, 93.96327
339.5183, 93.12453
340.0005, 92.50465
340.4826, 92.11391
340.9647, 91.84783
341.4468, 91.71516
341.9289, 91.68108
342.4110, 91.68238
342.8932, 91.74500
343.3753, 91.66607
343.8574, 91.17549
344.3395, 90.30920
344.8216, 89.75693
345.3037, 89.65547
345.7859, 89.75099
346.2680, 89.58260
346.7501, 89.16505
347.2322, 88.77901
347.7143, 88.50813
348.1964, 88.37902
348.6786, 88.56117
349.1607, 89.11699
349.6428, 89.65803
350.1249, 89.74381
350.6070, 89.45851
351.0891, 89.06041
351.5713, 88.60323
352.0534, 88.12527
352.5355, 87.62285
353.0176, 87.10934
353.4997, 86.73310
353.9818, 86.77773
354.4640, 87.00136
354.9461, 87.01817
355.4282, 86.60976
355.9103, 86.09624
356.3924, 85.74362
356.8745, 85.52330
357.3567, 85.32880
357.8388, 85.14625
358.3209, 84.93641
358.8030, 84.62176
359.2851, 84.10323
359.7672, 83.72365
360.2494, 83.85218
360.7315, 84.23354
361.2136, 84.39518
361.6957, 83.83591
362.1779, 83.27792
362.6600, 83.15073
363.1421, 83.55419
363.6242, 83.85401
364.1063, 83.64182
364.5884, 83.32016
365.0706, 83.30242
365.5527, 84.06190
366.0348, 84.72238
366.5169, 85.05930
366.9990, 85.08447
367.4811, 85.07873
367.9633, 85.01079
368.4454, 84.95740
368.9275, 84.96347
369.4096, 85.07941
369.8917, 85.18461
370.3738, 85.26670
370.8560, 85.33760
371.3381, 85.43044
371.8202, 85.56660
372.3023, 85.69820
372.7844, 85.81786
373.2665, 85.94527
373.7487, 85.96151
374.2308, 85.77433
374.7129, 85.56966
375.1950, 85.62183
375.6771, 86.01319
376.1592, 86.40759
376.6414, 86.74271
377.1235, 87.01387
377.6056, 87.11979
378.0877, 86.97694
378.5698, 86.94658
379.0519, 87.49630
379.5341, 88.62747
380.0162, 89.40427
380.4983, 89.56646
380.9804, 89.40457
381.4625, 89.55399
381.9446, 90.01123
382.4268, 90.56630
382.9089, 91.11129
383.3910, 91.65331
383.8731, 92.21146
384.3553, 92.76781
384.8374, 93.41988
385.3195, 94.33720
385.8016, 95.44901
386.2837, 96.56718
386.7658, 97.64036
387.2480, 98.64339
387.7301, 99.44947
388.2122, 100.0723
388.6943, 100.8896
389.1764, 102.2841
389.6585, 103.9966
390.1407, 105.6691
390.6228, 107.1261
391.1049, 108.6255
391.5870, 110.3204
392.0691, 112.1815
392.5512, 114.1213
393.0334, 116.0938
393.5155, 118.1360
393.9976, 120.2933
394.4797, 122.6110
394.9618, 124.9050
395.4439, 126.9653
395.9261, 129.0105
396.4082, 131.3217
396.8903, 134.1532
397.3724, 137.0960
397.8545, 140.1338
398.3366, 143.2724
398.8188, 146.2402
399.3009, 148.7877
399.7830, 151.3127
400.2651, 154.0660
400.7472, 157.2287
401.2293, 160.3399
401.7115, 163.2298
402.1936, 166.0796
402.6757, 169.4965
403.1578, 173.8066
403.6399, 178.1370
404.1220, 182.0483
404.6042, 185.4633
405.0863, 189.0940
405.5684, 193.0744
406.0505, 196.9906
406.5326, 200.2599
407.0147, 202.8446
407.4969, 205.1428
407.9790, 207.2651
408.4611, 209.2039
408.9432, 211.0486
409.4254, 212.8309
409.9075, 214.0832
410.3896, 214.3031
410.8717, 213.6489
411.3538, 212.8772
411.8359, 212.2035
412.3181, 211.2057
412.8002, 209.0010
413.2823, 205.8806
413.7644, 202.8498
414.2465, 200.7670
414.7286, 198.9490
415.2108, 196.3149
415.6929, 192.8168
416.1750, 189.2816
416.6571, 186.2613
417.1392, 183.6340
417.6213, 181.1242
418.1035, 178.5368
418.5856, 176.1946
419.0677, 174.3693
419.5498, 172.9742
420.0319, 171.7573
420.5140, 170.6788
420.9962, 169.6845
421.4783, 168.7641
421.9604, 167.9827
422.4425, 167.1008
422.9246, 165.9618
423.4067, 164.7323
423.8889, 163.6254
424.3710, 162.7719
424.8531, 161.9426
425.3352, 161.1883
425.8173, 160.5140
426.2994, 159.4879
426.7816, 157.7043
427.2637, 155.9891
427.7458, 154.9398
428.2279, 154.9272
428.7100, 154.6362
429.1921, 153.8938
429.6743, 152.8900
430.1564, 152.0313
430.6385, 151.2716
431.1206, 150.8290
431.6028, 150.7158
432.0849, 150.9455
432.5670, 152.1610
433.0491, 154.6529
433.5312, 156.9507
434.0133, 156.9753
434.4955, 155.1364
434.9776, 154.2796
435.4597, 155.4062
435.9418, 157.4938
436.4239, 158.9571
436.9060, 159.8051
437.3882, 160.1761
437.8703, 159.8415
438.3524, 159.1914
438.8345, 158.7183
439.3166, 158.4498
439.7987, 158.5161
440.2809, 159.3050
440.7630, 160.4448
441.2451, 161.3482
441.7272, 161.8027
442.2093, 161.9460
442.6914, 161.7339
443.1736, 161.2168
443.6557, 160.7150
444.1378, 160.2731
444.6199, 159.9331
445.1020, 159.7808
445.5841, 160.1575
446.0663, 160.0876
446.5484, 159.1615
447.0305, 157.7721
447.5126, 156.5688
447.9947, 155.8953
448.4768, 155.0251
448.9590, 153.7236
449.4411, 151.9836
449.9232, 150.3835
450.4053, 148.8952
450.8874, 147.5594
451.3695, 146.4171
451.8517, 145.4612
452.3338, 144.7139
452.8159, 144.2466
453.2980, 143.9153
453.7801, 143.4444
454.2622, 142.8369
454.7444, 142.0906
455.2265, 141.0613
455.7086, 139.8753
456.1907, 139.1846
456.6729, 139.0115
457.1550, 138.9602
457.6371, 138.5515
458.1192, 137.9789
458.6013, 137.7633
459.0834, 138.2226
459.5656, 138.7321
460.0477, 138.5531
460.5298, 137.8528
461.0119, 137.1400
461.4940, 136.5317
461.9761, 136.1019
462.4583, 135.9064
462.9404, 135.9495
463.4225, 136.2009
463.9046, 136.9275
464.3867, 137.7286
464.8688, 138.2084
465.3510, 138.0304
465.8331, 137.8098
466.3152, 137.5345
466.7973, 137.2845
467.2794, 137.3477
467.7615, 138.1700
468.2437, 138.8887
468.7258, 139.2236
469.2079, 139.1292
469.6900, 138.8191
470.1721, 138.1167
470.6542, 137.3929
471.1364, 137.0899
471.6185, 137.3439
472.1006, 137.4716
472.5827, 137.3255
473.0648, 136.9936
473.5469, 136.7563
474.0291, 136.6249
474.5112, 136.4579
474.9933, 136.2164
475.4754, 135.8806
475.9575, 135.2808
476.4396, 134.3716
476.9218, 133.5047
477.4039, 133.0990
477.8860, 133.0265
478.3681, 133.0011
478.8503, 132.9405
479.3324, 132.8769
479.8145, 132.7901
480.2966, 132.7117
480.7787, 132.7601
481.2608, 133.3853
481.7430, 133.8847
482.2251, 133.6893
482.7072, 132.6281
483.1893, 131.5041
483.6714, 130.4588
484.1535, 129.5464
484.6357, 128.8195
485.1178, 128.4534
485.5999, 128.0765
486.0820, 127.7390
486.5641, 127.3747
487.0462, 126.6815
487.5284, 125.3506
488.0105, 124.1086
488.4926, 123.2724
488.9747, 122.9401
489.4568, 122.4312
489.9389, 121.7201
490.4211, 120.8865
490.9032, 119.9989
491.3853, 119.0462
491.8674, 118.1469
492.3495, 117.3406
492.8316, 116.5897
493.3138, 115.7693
493.7959, 114.8915
494.2780, 114.1431
494.7601, 113.7775
495.2422, 113.5818
495.7243, 113.1032
496.2065, 112.3026
496.6886, 111.5523
497.1707, 111.0891
497.6528, 110.8646
498.1349, 110.8277
498.6170, 111.0994
499.0992, 111.3525
499.5813, 111.4466
500.0634, 111.3887
500.5455, 111.2004
501.0276, 110.7922
501.5097, 110.3428
501.9919, 109.8774
502.4740, 109.3749
502.9561, 109.0520
503.4382, 109.1490
503.9203, 109.2676
504.4025, 109.1107
504.8846, 108.4380
505.3667, 108.0022
505.8488, 107.9351
506.3309, 108.0769
506.8130, 108.0909
507.2952, 107.9641
507.7773, 107.7767
508.2594, 107.6038
508.7415, 107.4039
509.2236, 106.8239
509.7057, 105.8295
510.1879, 104.8971
510.6700, 104.4059
511.1521, 104.2868
511.6342, 104.4051
512.1163, 104.8272
512.5984, 105.1611
513.0806, 105.1212
513.5627, 104.6808
514.0448, 103.7842
514.5269, 101.8981
515.0090, 99.96538
515.4911, 98.61074
515.9733, 97.78359
516.4554, 97.12919
516.9375, 96.65480
517.4196, 96.19284
517.9017, 95.66253
518.3839, 95.09927
518.8660, 94.35085
519.3481, 93.16054
519.8302, 91.89088
520.3123, 90.93423
520.7944, 90.28401
521.2766, 89.98237
521.7587, 90.25708
522.2408, 90.85915
522.7229, 90.73623
523.2050, 89.71648
523.6871, 88.61528
524.1693, 87.84917
524.6514, 87.40450
525.1335, 86.91798
525.6156, 86.37385
526.0977, 85.88384
526.5798, 85.62963
527.0620, 85.52058
527.5441, 85.26967
528.0262, 84.74355
528.5083, 84.18726
528.9904, 83.95288
529.4725, 83.90308
529.9547, 83.70528
530.4368, 82.92245
530.9189, 82.15484
531.4010, 81.83153
531.8831, 81.95712
532.3652, 82.13457
532.8474, 82.31672
533.3295, 82.45020
533.8116, 82.50167
534.2937, 82.43600
534.7758, 82.33436
535.2579, 82.10579
535.7401, 81.89012
536.2222, 81.94874
536.7043, 82.54346
537.1865, 82.78624
537.6686, 82.37887
538.1507, 81.48899
538.6328, 80.93039
539.1149, 80.74574
539.5970, 80.59880
540.0792, 80.15284
540.5613, 79.53637
541.0434, 79.48888
541.5255, 80.08602
542.0076, 80.75857
542.4897, 80.90109
542.9719, 80.71705
543.4540, 80.60983
543.9361, 80.68217
544.4182, 80.87447
544.9003, 81.22379
545.3824, 81.65649
545.8646, 82.00997
546.3467, 82.21999
546.8288, 82.33377
547.3109, 82.36497
547.7930, 82.31386
548.2751, 82.19022
548.7573, 81.97119
549.2394, 81.69707
549.7215, 81.34307
550.2036, 80.62843
550.6857, 80.55225
551.1678, 81.54408
551.6500, 82.73888
552.1321, 82.72781
552.6142, 81.25094
553.0963, 80.32307
553.5784, 80.60081
554.0605, 81.56324
554.5427, 81.76448
555.0248, 81.24940
555.5069, 80.82464
555.9890, 81.13801
556.4711, 81.80849
556.9532, 82.09354
557.4354, 81.96617
557.9175, 81.91595
558.3996, 82.50484
558.8817, 83.27973
559.3638, 83.72517
559.8459, 83.57756
560.3281, 83.37194
560.8102, 83.24919
561.2923, 83.22024
561.7744, 83.30423
562.2565, 83.71947
562.7386, 84.00936
563.2208, 84.02215
563.7029, 83.80677
564.1850, 83.68468
564.6671, 83.60191
565.1492, 83.71278
565.6313, 84.19011
566.1135, 85.08006
566.5956, 85.60527
567.0777, 85.68494
567.5598, 85.67176
568.0419, 86.03391
568.5240, 86.66308
569.0062, 86.97115
569.4883, 86.74065
569.9704, 86.38843
570.4525, 86.46819
570.9346, 86.85229
571.4167, 87.20583
571.8989, 87.27422
572.3810, 87.34768
572.8631, 87.59565
573.3452, 88.01866
573.8273, 88.60715
574.3094, 89.57119
574.7916, 90.52879
575.2737, 91.28566
575.7558, 91.80823
576.2379, 92.15245
576.7200, 92.08875
577.2021, 92.03490
577.6843, 92.40713
578.1664, 93.40012
578.6485, 94.20128
579.1306, 94.64071
579.6127, 94.95227
580.0948, 95.70830
580.5770, 96.90617
581.0591, 97.95599
581.5412, 98.51613
582.0233, 98.82592
582.5054, 99.38464
582.9875, 100.1710
583.4697, 101.0900
583.9518, 102.2149
584.4340, 103.3553
584.9161, 104.3135
585.3982, 105.0651
585.8803, 105.6683
586.3624, 105.9765
586.8445, 106.2411
587.3267, 106.6935
587.8088, 107.4449
588.2909, 108.3054
588.7730, 109.3568
589.2551, 110.4792
589.7372, 111.4739
590.2194, 112.3247
590.7015, 113.0754
591.1836, 113.6984
591.6657, 114.2253
592.1478, 114.8339
592.6299, 115.5368
593.1121, 116.1810
593.5942, 116.7161
594.0763, 117.1188
594.5584, 117.2180
595.0405, 116.9937
595.5226, 116.8116
596.0048, 117.2644
596.4869, 117.8757
596.9690, 117.8757
597.4511, 116.8398
597.9332, 115.8371
598.4153, 115.4807
598.8975, 115.5533
599.3796, 115.7128
599.8617, 116.0784
600.3438, 116.3018
600.8259, 116.1512
601.3080, 115.7600
601.7902, 115.6731
602.2723, 116.0693
602.7544, 116.4688
603.2365, 116.6750
603.7186, 116.6900
604.2007, 116.8134
604.6829, 117.0410
605.1650, 117.3773
605.6471, 117.9262
606.1292, 118.6029
606.6113, 119.0513
607.0934, 119.2011
607.5756, 119.2573
608.0577, 119.3972
608.5398, 119.5911
609.0219, 119.8004
609.5040, 120.1545
609.9861, 120.3301
610.4683, 119.9832
610.9504, 119.3420
611.4325, 118.8905
611.9146, 119.1023
612.3967, 119.1708
612.8788, 118.7536
613.3610, 117.9112
613.8431, 117.3159
614.3252, 117.1615
614.8073, 116.9354
615.2894, 116.2958
615.7715, 115.2072
616.2537, 114.4747
616.7358, 114.1711
617.2179, 113.8777
617.7000, 113.1372
618.1821, 112.0494
618.6642, 110.9502
619.1464, 109.8327
619.6285, 108.8790
620.1106, 108.4826
620.5927, 108.3369
621.0748, 107.9173
621.5569, 106.5827
622.0391, 105.3694
622.5212, 104.9478
623.0033, 105.0291
623.4854, 104.7253
623.9675, 103.3605
624.4496, 102.1344
624.9318, 101.4463
625.4139, 101.2847
625.8960, 100.9884
626.3781, 100.5487
626.8602, 100.0061
627.3423, 99.29359
627.8245, 98.42427
628.3066, 97.93144
628.7887, 97.87937
629.2708, 97.86777
629.7529, 97.46119
630.2350, 96.77991
630.7172, 96.04911
631.1993, 95.24346
631.6815, 94.60274
632.1636, 94.52797
632.6457, 94.70322
633.1278, 94.62402
633.6099, 93.74632
634.0920, 92.98970
634.5742, 92.80399
635.0563, 93.00093
635.5384, 92.80907
636.0205, 91.75123
636.5026, 90.97636
636.9847, 90.94384
637.4669, 91.59201
637.9490, 91.88409
638.4311, 91.76334
638.9132, 91.56026
639.3953, 91.50439
639.8774, 91.55714
640.3596, 91.46704
640.8417, 91.20164
641.3238, 91.11306
641.8059, 91.71664
642.2880, 92.63908
642.7701, 93.33717
643.2523, 93.64983
643.7344, 93.86122
644.2165, 93.96834
644.6986, 94.11235
645.1807, 94.47997
645.6628, 95.36410
646.1450, 96.16279
646.6271, 96.73484
647.1092, 97.18304
647.5913, 97.76236
648.0734, 98.53391
648.5555, 99.28006
649.0377, 99.94198
649.5198, 100.5300
650.0019, 101.1009
650.4840, 101.6615
650.9661, 102.1346
651.4482, 102.4398
651.9304, 102.6417
652.4125, 102.8795
652.8946, 103.1563
653.3767, 103.3365
653.8588, 103.2571
654.3409, 103.0879
654.8231, 102.9786
655.3052, 102.9935
655.7873, 102.9574
656.2694, 102.8150
656.7515, 102.6120
657.2336, 102.3880
657.7158, 102.1136
658.1979, 101.9255
658.6800, 101.9983
659.1621, 101.9743
659.6442, 101.0269
660.1263, 99.14537
660.6085, 97.59518
661.0906, 96.91397
661.5727, 96.60974
662.0548, 95.73955
662.5369, 94.45103
663.0190, 93.30761
663.5012, 92.79588
663.9833, 92.40352
664.4654, 91.68987
664.9475, 90.69894
665.4296, 89.81108
665.9117, 89.09794
666.3939, 88.56675
666.8760, 88.29023
667.3581, 88.32319
667.8402, 88.20777
668.3223, 87.94289
668.8044, 87.53209
669.2866, 86.90480
669.7687, 86.03992
670.2508, 85.44113
670.7329, 85.17270
671.2150, 84.99123
671.6971, 84.57211
672.1793, 84.01687
672.6614, 83.60596
673.1435, 83.42851
673.6256, 83.33059
674.1077, 83.28835
674.5898, 83.21696
675.0720, 82.98764
675.5541, 82.32676
676.0362, 81.76203
676.5183, 81.45673
677.0004, 81.35789
677.4825, 81.32655
677.9647, 81.46558
678.4468, 81.46920
678.9290, 81.19910
679.4111, 80.73476
679.8932, 80.40890
680.3753, 80.22105
680.8574, 80.22639
681.3395, 80.70258
681.8217, 81.32698
682.3038, 81.30059
682.7859, 80.66273
683.2680, 80.03475
683.7501, 79.79276
684.2322, 79.76181
684.7144, 79.83041
685.1965, 80.00932
685.6786, 80.11844
686.1607, 80.15977
686.6428, 80.07471
687.1249, 79.80652
687.6071, 79.20242
688.0892, 78.76719
688.5713, 78.51451
689.0534, 78.41125
689.5355, 78.51329
690.0176, 78.80436
690.4998, 78.80701
690.9819, 78.34475
691.4640, 77.82864
691.9461, 77.91854
692.4282, 78.38184
692.9103, 78.69837
693.3925, 78.46795
693.8746, 78.27522
694.3567, 78.54976
694.8388, 79.11250
695.3209, 79.54341
695.8030, 79.86121
696.2852, 79.88466
696.7673, 79.42763
697.2494, 78.62188
697.7315, 78.18404
698.2136, 78.18612
698.6957, 78.32842
699.1779, 78.57420
699.6600, 78.85139
700.1421, 78.77871
700.6242, 78.37283
701.1063, 77.94016
701.5884, 77.61451
702.0706, 77.42715
702.5527, 77.50069
703.0348, 77.83991
703.5169, 78.06725
703.9990, 77.93797
704.4811, 77.66893
704.9633, 77.38271
705.4454, 77.02908
705.9275, 76.84971
706.4096, 76.91850
706.8917, 77.07884
707.3738, 77.22529
707.8560, 77.36546
708.3381, 77.36288
708.8202, 77.16148
709.3023, 76.97691
709.7844, 77.18112
710.2665, 77.62463
710.7487, 77.86357
711.2308, 77.70434
711.7129, 77.52347
712.1950, 77.76759
712.6771, 78.14426
713.1592, 78.21130
713.6414, 77.21684
714.1235, 76.61263
714.6056, 77.12643
715.0877, 78.16891
715.5698, 78.51256
716.0519, 77.79346
716.5341, 77.36294
717.0162, 77.69250
717.4983, 78.42039
717.9804, 78.36388
718.4625, 77.58881
718.9446, 77.03612
719.4268, 77.41076
719.9089, 78.09893
720.3910, 78.28062
720.8731, 78.05364
721.3552, 77.84122
721.8373, 77.77579
722.3195, 77.85240
722.8016, 78.21457
723.2837, 78.86046
723.7658, 79.05569
724.2479, 78.45320
724.7300, 77.84096
725.2122, 77.58695
725.6943, 77.69614
726.1765, 77.81889
726.6586, 77.96314
727.1407, 78.07853
727.6228, 78.11501
728.1049, 78.09640
728.5870, 78.06069
729.0692, 78.00918
729.5513, 77.99710
730.0334, 78.18242
730.5155, 78.35658
730.9976, 78.27172
731.4797, 77.73476
731.9619, 77.41782
732.4440, 77.57723
732.9261, 77.90407
733.4082, 78.18430
733.8903, 78.41006
734.3724, 78.61711
734.8546, 78.81489
735.3367, 78.97207
735.8188, 79.09695
736.3009, 79.15804
736.7830, 78.93349
737.2651, 78.25967
737.7473, 77.68174
738.2294, 77.80872
738.7115, 78.36803
739.1936, 78.96394
739.6757, 79.70079
740.1578, 80.16142
740.6400, 80.05284
741.1221, 79.63837
741.6042, 79.37375
742.0863, 79.28072
742.5684, 79.30799
743.0505, 79.51347
743.5327, 79.76531
744.0148, 79.67761
744.4969, 79.28813
744.9790, 79.09966
745.4611, 79.42200
745.9432, 79.88445
746.4254, 79.99348
746.9075, 79.85194
747.3896, 79.72277
747.8717, 79.92518
748.3538, 79.96285
748.8359, 79.39606
749.3181, 78.41154
749.8002, 77.97817
750.2823, 78.41093
750.7644, 78.89999
751.2465, 79.25242
751.7286, 79.46215
752.2108, 79.41495
752.6929, 79.10498
753.1750, 78.84835
753.6571, 78.83810
754.1392, 78.98765
754.6213, 79.19373
755.1035, 79.44395
755.5856, 79.66312
756.0677, 79.78162
756.5498, 79.88235
757.0319, 80.05907
757.5140, 80.31750
757.9962, 80.37597
758.4783, 80.08010
758.9604, 79.78468
759.4425, 79.63990
759.9246, 79.64384
760.4067, 79.72967
760.8889, 79.91222
761.3710, 80.03334
761.8531, 79.97645
762.3352, 79.77734
762.8173, 79.43448
763.2994, 78.96000
763.7816, 78.60102
764.2637, 78.51509
764.7458, 78.60645
765.2279, 78.89817
765.7100, 79.50925
766.1921, 79.70089
766.6743, 79.20274
767.1564, 78.57729
767.6385, 78.14058
768.1206, 77.88898
768.6027, 77.88562
769.0848, 78.17250
769.5670, 78.45950
770.0491, 78.50179
770.5312, 78.34812
771.0133, 78.01573
771.4954, 77.47865
771.9775, 77.10924
772.4597, 77.40929
772.9418, 77.81311
773.4240, 77.78018
773.9061, 76.87180
774.3882, 76.49332
774.8703, 77.06432
775.3524, 77.74853
775.8345, 77.76790
776.3167, 77.04664
776.7988, 76.63032
777.2809, 76.62317
777.7630, 76.73109
778.2451, 76.65276
778.7272, 76.45583
779.2094, 76.22820
779.6915, 75.93953
780.1736, 75.84614
780.6557, 76.31988
781.1378, 76.94829
781.6199, 77.32896
782.1021, 77.23258
782.5842, 77.15046
783.0663, 77.11095
783.5484, 77.05187
784.0305, 76.85461
784.5126, 76.50667
784.9948, 76.38764
785.4769, 76.57556
785.9590, 76.84151
786.4411, 76.92497
786.9232, 76.89590
787.4053, 76.87242
787.8875, 76.86506
788.3696, 76.91880
788.8517, 77.17379
789.3338, 77.44593
789.8159, 77.52277
790.2980, 77.30239
790.7802, 77.02602
791.2623, 76.63316
791.7444, 76.27543
792.2265, 76.17789
792.7086, 76.32734
793.1907, 76.56330
793.6729, 76.90097
794.1550, 77.15845
794.6371, 77.10822
795.1192, 76.84853
795.6013, 76.50722
796.0834, 75.96367
796.5656, 75.66130
797.0477, 75.84360
797.5298, 76.31796
798.0119, 76.85098
798.4940, 77.51814
798.9761, 78.08424
799.4583, 78.57212
799.9404, 78.88574
800.4225, 78.78414
800.9046, 78.35201
801.3867, 78.10810
801.8688, 78.18125
802.3510, 78.37204
802.8331, 78.52865
803.3152, 78.66518
803.7973, 78.80189
804.2794, 78.97449
804.7615, 79.09777
805.2437, 79.10720
805.7258, 79.08549
806.2079, 79.11138
806.6900, 79.17886
807.1721, 79.35463
807.6542, 79.70098
808.1364, 80.00161
808.6185, 79.86687
809.1006, 79.44546
809.5827, 79.19437
810.0648, 79.25661
810.5469, 79.36614
811.0291, 79.34441
811.5112, 79.25098
811.9933, 79.15284
812.4754, 79.01464
812.9575, 78.95719
813.4396, 79.05173
813.9218, 79.16288
814.4039, 79.10070
814.8860, 78.84605
815.3681, 78.76911
815.8502, 78.95354
816.3323, 79.13114
816.8145, 78.87622
817.2966, 78.42205
817.7787, 78.21155
818.2608, 78.42841
818.7429, 78.60567
819.2251, 78.44540
819.7072, 78.17989
820.1893, 78.04037
820.6714, 78.08636
821.1536, 78.15963
821.6357, 78.28954
822.1178, 78.39302
822.5999, 78.42130
823.0820, 78.35658
823.5641, 77.97334
824.0463, 76.78558
824.5284, 77.19907
825.0105, 77.41719
825.4926, 77.45044
825.9747, 76.74512
826.4568, 76.99351
826.9390, 76.85968
827.4211, 76.71020
827.9032, 77.09283
828.3853, 76.49492
828.8674, 76.86911
829.3495, 76.85526
829.8317, 77.01900
830.3138, 76.79817
830.7959, 76.69613
831.2780, 76.97878
831.7601, 77.04842
832.2422, 76.78333
832.7244, 76.02891
833.2065, 75.50951
833.6886, 75.21402
834.1707, 75.35177
834.6528, 76.14453
835.1349, 76.49065
835.6171, 76.23013
836.0992, 75.79592
836.5813, 75.38033
837.0634, 75.00032
837.5455, 75.01093
838.0276, 75.41957
838.5098, 75.78402
838.9919, 75.78226
839.4740, 75.54939
839.9561, 75.11458
840.4382, 74.49113
840.9203, 74.12733
841.4025, 74.33526
841.8846, 74.68650
842.3667, 75.02034
842.8488, 75.33556
843.3309, 75.57277
843.8130, 75.73776
844.2952, 75.79568
844.7773, 75.68642
845.2594, 75.46836
845.7415, 75.25171
846.2236, 75.04265
846.7057, 74.87742
847.1879, 74.84315
847.6700, 74.79749
848.1521, 74.61777
848.6342, 74.32983
849.1163, 74.16904
849.5984, 74.17674
850.0806, 74.23950
850.5627, 74.31966
851.0448, 74.42746
851.5269, 74.65673
852.0090, 74.97946
852.4911, 75.16576
852.9733, 74.99136
853.4554, 74.73586
853.9375, 74.64746
854.4196, 74.67757
854.9017, 74.70689
855.3839, 74.76915
855.8660, 74.73780
856.3481, 74.57059
856.8302, 74.30824
857.3123, 73.97422
857.7944, 73.54102
858.2766, 73.40543
858.7587, 73.74490
859.2408, 74.25395
859.7229, 74.55456
860.2050, 74.68086
860.6871, 74.70033
861.1693, 74.69971
861.6514, 74.49733
862.1335, 73.74993
862.6156, 72.88860
863.0977, 72.51024
863.5798, 72.80520
864.0620, 73.02847
864.5441, 73.10751
865.0262, 73.13426
865.5083, 73.30307
865.9904, 73.51911
866.4726, 73.41972
866.9547, 72.86764
867.4368, 72.41842
867.9189, 72.57264
868.4011, 72.94707
868.8832, 73.18870
869.3653, 73.20950
869.8474, 73.18222
870.3295, 73.06711
870.8116, 72.97112
871.2938, 73.00423
871.7759, 73.15091
872.2580, 73.26083
872.7401, 73.33210
873.2222, 73.25518
873.7043, 72.74345
874.1865, 72.17448
874.6686, 71.97411
875.1507, 72.17746
875.6328, 72.29263
876.1149, 72.00109
876.5970, 71.82291
877.0792, 72.03071
877.5613, 72.56116
878.0434, 72.72510
878.5255, 72.50996
879.0076, 72.25925
879.4897, 72.14114
879.9719, 72.12415
880.4540, 72.22616
880.9361, 72.40298
881.4182, 72.50141
881.9003, 72.42873
882.3824, 72.29728
882.8646, 72.02460
883.3467, 71.74173
883.8288, 71.87197
884.3109, 72.53771
884.7930, 72.91004
885.2751, 72.69521
885.7573, 72.22026
886.2394, 72.04722
886.7215, 72.04778
887.2036, 71.90115
887.6857, 71.38735
888.1678, 70.89051
888.6500, 70.52923
889.1321, 70.30803
889.6142, 70.23188
890.0963, 70.34026
890.5784, 70.49824
891.0605, 70.73072
891.5427, 70.93424
892.0248, 71.00066
892.5069, 70.94492
892.9890, 70.76064
893.4711, 70.42724
893.9532, 70.19132
894.4354, 70.35578
894.9175, 70.59768
895.3996, 70.64622
895.8817, 70.42479
896.3638, 70.20788
896.8459, 69.94109
897.3281, 69.79495
897.8102, 69.90173
898.2923, 70.22786
898.7744, 70.69956
899.2565, 71.28194
899.7386, 71.60789
900.2208, 71.13920
900.7029, 70.58317
901.1850, 70.55649
901.6671, 70.98087
902.1492, 71.12637
902.6313, 70.78207
903.1135, 70.38190
903.5956, 69.96570
904.0777, 69.61966
904.5598, 69.67122
905.0419, 70.06433
905.5240, 70.33862
906.0062, 70.25186
906.4883, 70.09944
906.9704, 70.15453
907.4525, 70.32163
907.9346, 70.44703
908.4167, 70.47351
908.8989, 70.47880
909.3810, 70.45760
909.8631, 70.42940
910.3452, 70.43970
910.8273, 70.48048
911.3094, 70.41019
911.7916, 70.19643
912.2737, 69.99606
912.7558, 70.03257
913.2380, 70.11552
913.7201, 69.96525
914.2022, 69.43996
914.6843, 69.27560
915.1664, 69.86647
915.6486, 70.47815
916.1307, 70.69920
916.6128, 70.55817
917.0949, 70.58125
917.5770, 70.76725
918.0591, 70.85266
918.5413, 70.48299
919.0234, 70.06379
919.5055, 70.11288
919.9876, 70.51682
920.4697, 70.76095
920.9518, 70.55938
921.4340, 70.34584
921.9161, 70.18332
922.3982, 70.08696
922.8803, 70.15160
923.3624, 70.36791
923.8445, 70.42534
924.3267, 70.15405
924.8088, 69.88752
925.2909, 70.00539
925.7730, 70.36168
926.2551, 70.76443
926.7372, 71.39933
927.2194, 71.63081
927.7015, 71.17818
928.1836, 70.56200
928.6657, 70.24290
929.1478, 70.22176
929.6299, 70.28954
930.1121, 70.44190
930.5942, 70.59734
931.0763, 70.68858
931.5584, 70.74419
932.0405, 70.78003
932.5226, 70.79805
933.0048, 70.86095
933.4869, 71.15044
933.9690, 71.25819
934.4511, 70.89856
934.9332, 70.24670
935.4153, 70.32989
935.8975, 71.11130
936.3796, 71.79861
936.8617, 72.01514
937.3438, 71.98193
937.8259, 71.76768
938.3080, 71.49314
938.7902, 71.40475
939.2723, 71.78916
939.7544, 72.05544
940.2365, 72.08581
940.7186, 72.03761
941.2007, 72.17394
941.6829, 72.46655
942.1650, 72.52098
942.6471, 72.25002
943.1292, 72.02326
943.6113, 72.23211
944.0934, 72.61826
944.5756, 72.95241
945.0577, 73.20609
945.5398, 73.35760
946.0219, 73.32124
946.5040, 73.33513
946.9861, 73.57629
947.4683, 73.97982
947.9504, 74.10329
948.4325, 73.97680
948.9146, 73.84904
949.3967, 73.80806
949.8788, 73.87202
950.3610, 74.06669
950.8431, 74.37849
951.3252, 74.78059
951.8073, 75.42326
952.2894, 75.82993
952.7715, 75.83223
953.2537, 75.72431
953.7358, 76.10349
954.2179, 76.81425
954.7000, 77.19160
955.1821, 77.03494
955.6642, 76.83127
956.1464, 76.84927
956.6285, 77.02306
957.1106, 77.31987
957.5927, 77.77017
958.0748, 78.14466
958.5569, 78.37548
959.0391, 78.71648
959.5212, 79.50577
960.0033, 80.50495
960.4855, 80.83327
960.9676, 80.63127
961.4497, 80.69044
961.9318, 81.75355
962.4139, 82.85815
962.8961, 83.42331
963.3782, 83.66447
963.8603, 84.23437
964.3424, 85.24364
964.8245, 86.04554
965.3066, 86.41796
965.7888, 86.79226
966.2709, 87.94962
966.7530, 89.52989
967.2351, 90.78846
967.7172, 91.47166
968.1993, 92.18399
968.6815, 93.01460
969.1636, 94.09254
969.6457, 95.56084
970.1278, 97.45126
970.6099, 99.18068
971.0920, 100.7160
971.5742, 102.4258
972.0563, 104.4580
972.5384, 106.8473
973.0205, 109.5948
973.5026, 112.7439
973.9847, 116.4933
974.4669, 121.0153
974.9490, 126.0245
975.4311, 131.4521
975.9132, 137.3593
976.3953, 143.7561
976.8774, 150.7274
977.3596, 158.8614
977.8417, 168.3202
978.3238, 178.4723
978.8059, 188.8383
979.2880, 199.6218
979.7701, 211.1373
980.2523, 223.6266
980.7344, 236.1797
981.2165, 248.7531
981.6986, 261.6582
982.1807, 275.1149
982.6628, 289.1862
983.1450, 304.0749
983.6271, 319.8091
984.1092, 336.5758
984.5913, 353.9047
985.0734, 372.8823
985.5555, 394.2848
986.0377, 418.0255
986.5198, 443.5678
987.0019, 471.2618
987.4840, 499.8072
987.9661, 529.5065
988.4482, 558.6699
988.9304, 586.4512
989.4125, 611.3267
989.8946, 630.8914
990.3767, 645.2382
990.8588, 650.7280
991.3409, 644.7401
991.8231, 629.8900
992.3052, 607.4137
992.7873, 577.8016
993.2694, 543.4926
993.7515, 504.4164
994.2336, 462.3540
994.7158, 415.4722
995.1979, 368.6271
995.6800, 325.2919
996.1621, 285.8534
996.6442, 251.7468
997.1263, 224.9017
997.6085, 201.8218
998.0906, 182.3703
998.5727, 166.2191
999.0548, 153.0835
999.5369, 142.7139
1000.019, 133.9619
1000.501, 126.7103
1000.983, 120.6898
1001.465, 116.2293
1001.948, 112.4177
1002.430, 108.6195
1002.912, 104.7642
1003.394, 101.3460
1003.876, 98.34739
1004.358, 95.74466
1004.840, 93.52139
1005.322, 91.61206
1005.804, 89.88146
1006.287, 88.32822
1006.769, 86.90179
1007.251, 85.57088
1007.733, 84.40995
1008.215, 83.51463
1008.697, 82.72964
1009.179, 81.94576
1009.661, 81.18117
1010.144, 80.15368
1010.626, 78.81461
1011.108, 77.62331
1011.590, 76.91789
1012.072, 76.54936
1012.554, 76.49862
1013.036, 76.70068
1013.518, 76.72395
1014.000, 76.55140
1014.483, 76.08259
1014.965, 75.14070
1015.447, 74.07803
1015.929, 73.63200
1016.411, 73.68027
1016.893, 73.82426
1017.375, 74.04113
1017.857, 74.05656
1018.340, 73.26929
1018.822, 72.52247
1019.304, 72.74702
1019.786, 74.20267
1020.268, 74.37901
1020.750, 73.09196
1021.232, 71.69598
1021.714, 71.09250
1022.196, 70.87155
1022.679, 70.33002
1023.161, 69.63608
1023.643, 69.28181
1024.125, 69.83591
1024.607, 70.21395
1025.089, 70.22359
1025.571, 70.00841
1026.053, 69.64564
1026.536, 69.19533
1027.018, 69.17705
1027.500, 69.67881
1027.982, 70.13508
1028.464, 70.20149
1028.946, 69.97707
1029.428, 69.39558
1029.910, 68.47330
1030.392, 67.95852
1030.875, 67.94953
1031.357, 67.97201
1031.839, 67.83596
1032.321, 67.66735
1032.803, 67.69852
1033.285, 67.86873
1033.767, 68.06166
1034.249, 68.31005
1034.732, 68.43610
1035.214, 68.34868
1035.696, 68.17070
1036.178, 67.98453
1036.660, 67.79163
1037.142, 67.47352
1037.624, 67.04710
1038.106, 66.81476
1038.589, 67.19506
1039.071, 67.65472
1039.553, 67.73155
1040.035, 67.55125
1040.517, 67.61652
1040.999, 68.18007
1041.481, 68.29666
1041.963, 67.69779
1042.445, 66.97593
1042.927, 66.97655
1043.410, 67.40160
1043.892, 67.65037
1044.374, 67.61382
1044.856, 67.67149
1045.338, 68.11862
1045.820, 68.52900
1046.302, 68.71188
1046.784, 68.70229
1047.267, 68.68946
1047.749, 68.66621
1048.231, 68.53999
1048.713, 68.18880
1049.195, 67.87741
1049.677, 67.85025
1050.159, 67.97404
1050.641, 68.07204
1051.124, 68.13011
1051.606, 68.13293
1052.088, 68.03829
1052.570, 68.04672
1053.052, 68.44778
1053.534, 69.00073
1054.016, 69.21458
1054.498, 69.14938
1054.980, 69.13515
1055.463, 69.35548
1055.945, 69.57243
1056.427, 69.71383
1056.909, 69.83375
1057.391, 70.01564
1057.873, 70.25623
1058.355, 70.55976
1058.837, 70.93858
1059.319, 71.24803
1059.802, 71.23092
1060.284, 71.21165
1060.766, 71.49358
1061.248, 72.06001
1061.730, 72.45357
1062.212, 72.64668
1062.694, 72.79772
1063.176, 72.90918
1063.659, 73.10124
1064.141, 73.64207
1064.623, 74.36061
1065.105, 74.95409
1065.587, 75.20554
1066.069, 75.64155
1066.551, 76.43353
1067.033, 77.22085
1067.516, 77.65074
1067.998, 77.84317
1068.480, 78.54276
1068.962, 79.64159
1069.444, 80.52662
1069.926, 80.65116
1070.408, 80.70737
1070.890, 80.95843
1071.372, 81.36636
1071.854, 81.87234
1072.337, 82.47057
1072.819, 83.21931
1073.301, 84.13169
1073.783, 85.07835
1074.265, 86.09303
1074.747, 86.95875
1075.229, 87.38200
1075.711, 87.37611
1076.194, 87.45720
1076.676, 87.76562
1077.158, 87.90817
1077.640, 87.77221
1078.122, 87.43214
1078.604, 86.94469
1079.086, 86.36739
1079.568, 85.81392
1080.051, 85.29489
1080.533, 84.83913
1081.015, 84.62331
1081.497, 84.29505
1081.979, 83.64685
1082.461, 82.73563
1082.943, 81.85595
1083.425, 81.00776
1083.907, 80.24554
1084.390, 79.64617
1084.872, 79.06599
1085.354, 78.24342
1085.836, 77.48768
1086.318, 77.21952
1086.800, 77.63522
1087.282, 77.68516
1087.764, 77.30708
1088.247, 76.92460
1088.729, 76.89228
1089.211, 77.02364
1089.693, 77.17210
1090.175, 77.30062
1090.657, 77.28327
1091.139, 76.87891
1091.621, 76.75511
1092.104, 77.05158
1092.586, 77.54727
1093.068, 78.10390
1093.550, 78.59254
1094.032, 78.60045
1094.514, 78.08002
1094.996, 77.76965
1095.478, 78.25359
1095.960, 78.71603
1096.443, 78.83434
1096.925, 78.71776
1097.407, 78.60794
1097.889, 78.53378
1098.371, 78.73943
1098.853, 79.36118
1099.335, 80.01371
1099.817, 80.58364
1100.299, 80.93798
1100.782, 80.84941
1101.264, 80.30322
1101.746, 80.24671
1102.228, 80.71413
1102.710, 81.18758
1103.192, 81.27753
1103.674, 81.41609
1104.156, 82.29850
1104.639, 83.49874
1105.121, 84.31718
1105.603, 84.38136
1106.085, 84.51674
1106.567, 84.69138
1107.049, 85.03384
1107.531, 85.76325
1108.013, 86.68320
1108.495, 87.41764
1108.978, 88.00463
1109.460, 88.63335
1109.942, 89.46508
1110.424, 90.22512
1110.906, 90.86790
1111.388, 91.42921
1111.870, 91.86375
1112.352, 92.25052
1112.834, 92.98328
1113.317, 94.09070
1113.799, 95.21597
1114.281, 96.01775
1114.763, 96.94209
1115.245, 98.29884
1115.727, 99.87881
1116.209, 101.0728
1116.691, 101.9089
1117.174, 103.0168
1117.656, 104.5825
1118.138, 106.1623
1118.620, 107.2900
1119.102, 108.3325
1119.584, 109.6038
1120.066, 111.1151
1120.548, 112.7313
1121.031, 114.4766
1121.513, 116.1706
1121.995, 117.7925
1122.477, 119.2386
1122.959, 120.1422
1123.441, 120.9342
1123.923, 122.3222
1124.405, 124.8808
1124.887, 126.5780
1125.370, 127.0778
1125.852, 127.5888
1126.334, 128.9821
1126.816, 130.7509
1127.298, 131.6930
1127.780, 132.1652
1128.262, 133.0113
1128.744, 135.1728
1129.227, 136.7586
1129.709, 137.4993
1130.191, 137.8051
1130.673, 138.0788
1131.155, 138.2197
1131.637, 137.8060
1132.119, 136.8724
1132.601, 135.6755
1133.083, 134.3801
1133.566, 132.7767
1134.048, 130.7943
1134.530, 128.4930
1135.012, 125.9075
1135.494, 123.0668
1135.976, 120.0130
1136.458, 116.7403
1136.940, 113.4170
1137.422, 109.9636
1137.905, 106.6915
1138.387, 103.8429
1138.869, 101.2772
1139.351, 98.72643
1139.833, 96.16737
1140.315, 93.68447
1140.797, 91.27500
1141.279, 89.06466
1141.762, 87.18807
1142.244, 85.51912
1142.726, 83.95609
1143.208, 82.49707
1143.690, 81.04974
1144.172, 79.61038
1144.654, 78.26707
1145.136, 77.08366
1145.619, 75.97585
1146.101, 74.76237
1146.583, 73.63689
1147.065, 72.90259
1147.547, 72.74100
1148.029, 72.17509
1148.511, 71.01957
1148.993, 70.03690
1149.475, 69.63167
1149.958, 69.48478
1150.440, 69.05302
1150.922, 68.49358
1151.404, 68.10737
1151.886, 68.11172
1152.368, 67.91175
1152.850, 67.34047
1153.332, 66.85390
1153.814, 66.79932
1154.297, 66.99947
1154.779, 67.08406
1155.261, 67.04276
1155.743, 66.84275
1156.225, 66.20688
1156.707, 65.81583
1157.189, 65.81236
1157.671, 65.95017
1158.154, 66.03658
1158.636, 66.08745
1159.118, 66.14339
1159.600, 66.21819
1160.082, 66.37885
1160.564, 66.71951
1161.046, 67.07154
1161.528, 67.37722
1162.010, 67.68421
1162.493, 68.10770
1162.975, 68.60110
1163.457, 68.75985
1163.939, 68.60451
1164.421, 68.62781
1164.903, 69.20409
1165.385, 69.93779
1165.867, 70.78080
1166.349, 71.58326
1166.832, 71.96884
1167.314, 71.99571
1167.796, 72.50705
1168.278, 73.60458
1168.760, 74.55103
1169.242, 74.46486
1169.724, 74.42927
1170.206, 75.37852
1170.689, 76.82015
1171.171, 77.44206
1171.653, 77.26192
1172.135, 77.38964
1172.617, 78.08941
1173.099, 78.60307
1173.581, 78.22389
1174.063, 77.47678
1174.546, 76.63544
1175.028, 75.76382
1175.510, 75.20493
1175.992, 74.97948
1176.474, 74.42323
1176.956, 73.29471
1177.438, 72.06248
1177.920, 71.09376
1178.402, 70.27938
1178.885, 69.53707
1179.367, 68.85757
1179.849, 68.21040
1180.331, 67.60819
1180.813, 66.81119
1181.295, 65.63404
1181.777, 64.49529
1182.259, 63.87397
1182.742, 63.50897
1183.224, 63.10577
1183.706, 62.62691
1184.188, 62.22197
1184.670, 61.94249
1185.152, 62.11637
1185.634, 62.09483
1186.116, 61.88847
1186.599, 60.94291
1187.081, 60.95163
1187.563, 60.57820
1188.045, 60.18903
1188.527, 60.33203
1189.009, 59.49444
1189.491, 59.62900
1189.973, 59.37545
1190.455, 58.84143
1190.938, 59.28505
1191.420, 59.81315
1191.902, 59.72871
1192.384, 58.52453
1192.866, 57.94588
1193.348, 58.08892
1193.830, 58.39564
1194.312, 58.57807
1194.794, 58.65496
1195.277, 58.60839
1195.759, 58.48367
1196.241, 58.36522
1196.723, 58.17719
1197.205, 58.24937
1197.687, 58.65812
1198.169, 59.00523
1198.651, 58.97180
1199.134, 58.69958
1199.616, 58.26337
1200.098, 57.75334
1200.580, 57.39912
1201.062, 57.30375
1201.544, 57.16637
1202.026, 56.92398
1202.508, 56.84868
1202.990, 57.48637
1203.473, 58.21302
1203.955, 57.98275
1204.437, 57.12268
1204.919, 56.79864
1205.401, 57.41058
1205.883, 58.00679
1206.365, 58.57742
1206.847, 58.89143
1207.329, 58.55549
1207.812, 57.95766
1208.294, 57.54103
1208.776, 57.30421
1209.258, 57.17189
1209.740, 57.21112
1210.222, 57.10130
1210.704, 56.76020
1211.186, 56.45257
1211.669, 56.48019
1212.151, 56.67133
1212.633, 56.79549
1213.115, 56.87445
1213.597, 57.12136
1214.079, 57.66299
1214.561, 58.02942
1215.043, 58.14857
1215.526, 58.10710
1216.008, 57.87096
1216.490, 57.61279
1216.972, 57.58146
1217.454, 57.74903
1217.936, 57.81992
1218.418, 57.77559
1218.900, 57.60386
1219.382, 57.25599
1219.865, 56.97971
1220.347, 57.20211
1220.829, 57.53958
1221.311, 57.49465
1221.793, 57.09515
1222.275, 56.91906
1222.757, 57.03135
1223.239, 57.22320
1223.722, 57.49829
1224.204, 57.63876
1224.686, 57.20991
1225.168, 56.66638
1225.650, 56.49316
1226.132, 56.70613
1226.614, 56.90349
1227.096, 57.08624
1227.578, 57.26832
1228.061, 57.49384
1228.543, 57.51545
1229.025, 56.59734
1229.507, 55.70885
1229.989, 56.06038
1230.471, 56.49456
1230.953, 56.91698
1231.435, 57.14403
1231.917, 57.18621
1232.400, 56.48977
1232.882, 56.74709
1233.364, 56.62220
1233.846, 56.48164
1234.328, 56.87319
1234.810, 56.28421
1235.292, 56.66733
1235.774, 56.66240
1236.257, 56.83502
1236.739, 57.37608
1237.221, 57.39067
1237.703, 57.26359
1238.185, 57.06993
1238.667, 56.80273
1239.149, 56.51931
1239.631, 56.54806
1240.114, 56.87214
1240.596, 57.01392
1241.078, 56.82570
1241.560, 56.61396
1242.042, 56.62495
1242.524, 56.67441
1243.006, 56.61544
1243.488, 56.49469
1243.970, 56.53446
1244.453, 56.70595
1244.935, 56.73405
1245.417, 56.50583
1245.899, 56.41533
1246.381, 56.95908
1246.863, 57.43026
1247.345, 57.38316
1247.827, 57.01029
1248.309, 56.96162
1248.792, 57.15716
1249.274, 57.21039
1249.756, 56.98841
1250.238, 56.90067
1250.720, 57.45555
1251.202, 57.79457
1251.684, 57.42787
1252.166, 56.73345
1252.649, 56.77359
1253.131, 57.30030
1253.613, 57.58101
1254.095, 57.43907
1254.577, 57.18285
1255.059, 56.69765
1255.541, 56.44960
1256.023, 56.69040
1256.505, 57.15354
1256.988, 57.31788
1257.470, 57.27201
1257.952, 57.19759
1258.434, 57.13277
1258.916, 56.98604
1259.398, 56.61860
1259.880, 56.48192
1260.362, 56.81345
1260.844, 57.28007
1261.327, 57.30068
1261.809, 57.10264
1262.291, 57.04808
1262.773, 57.21098
1263.255, 57.26252
1263.737, 57.15215
1264.219, 57.04531
1264.701, 56.98562
1265.184, 56.97237
1265.666, 57.01549
1266.148, 57.09621
1266.630, 57.19340
1267.112, 57.30590
1267.594, 57.46328
1268.076, 57.68430
1268.558, 57.80811
1269.041, 57.78585
1269.523, 57.65886
1270.005, 57.33035
1270.487, 57.02091
1270.969, 56.97669
1271.451, 57.15276
1271.933, 57.34898
1272.415, 57.56261
1272.897, 57.60776
1273.380, 57.40654
1273.862, 57.23021
1274.344, 57.38760
1274.826, 57.52122
1275.308, 57.34850
1275.790, 56.99792
1276.272, 56.86437
1276.754, 56.93585
1277.237, 57.24082
1277.719, 57.83484
1278.201, 58.15531
1278.683, 57.56354
1279.165, 57.04217
1279.647, 57.01319
1280.129, 57.25569
1280.611, 57.30917
1281.094, 57.23930
1281.576, 57.22554
1282.058, 57.29889
1282.540, 57.37528
1283.022, 57.40898
1283.504, 57.48618
1283.986, 57.65137
1284.468, 57.82202
1284.950, 57.87272
1285.432, 57.83984
1285.915, 57.73261
1286.397, 57.56194
1286.879, 57.58793
1287.361, 57.92348
1287.843, 58.09762
1288.325, 57.96310
1288.807, 57.80587
1289.289, 58.03493
1289.772, 58.35632
1290.254, 58.48618
1290.736, 58.39954
1291.218, 58.12319
1291.700, 57.60494
1292.182, 57.43309
1292.664, 57.72985
1293.146, 58.13405
1293.629, 58.51511
1294.111, 58.72391
1294.593, 58.62701
1295.075, 58.29008
1295.557, 57.62975
1296.039, 56.72713
1296.521, 56.59993
1297.003, 57.36295
1297.485, 58.12156
1297.968, 58.39586
1298.450, 58.43541
1298.932, 58.25159
1299.414, 58.03292
1299.896, 58.16039
1300.378, 58.47605
1300.860, 58.38285
1301.342, 57.90904
1301.824, 57.68739
1302.307, 57.84451
##END=



