##NAMES=Diaboleite
##RRUFFID=R050270
##IDEAL CHEMISTRY=Cu^2+^Pb^2+^_2_Cl_2_(OH)_4_
##LOCALITY=Tiger, Pinal County, Arizona, USA
##OWNER=RRUFF
##SOURCE=Marcus Origlieri
##DESCRIPTION=Blue irregular crystalline
##STATUS=The identification of this mineral has been confirmed by X-ray diffraction and chemical analysis
##URL=rruff.info/R050270
##MEASURED CHEMISTRY=(Cu_0.97_Pb_0.03_)_Î£=1_Pb_2.00_Cl_2.00_(OH)_4_
92.67285, 74.20766
93.15497, 73.75068
93.63708, 74.17956
94.11920, 76.90788
94.60132, 79.62593
95.08344, 82.11748
95.56555, 83.34726
96.04767, 83.73064
96.52979, 83.96310
97.01190, 84.05534
97.49402, 84.08546
97.97614, 84.17319
98.45825, 84.18870
98.94037, 84.02849
99.42249, 83.69710
99.90460, 83.37540
100.3867, 83.42239
100.8688, 83.74590
101.3510, 83.98641
101.8331, 84.05045
102.3152, 84.19016
102.7973, 84.64754
103.2794, 85.43726
103.7615, 86.17809
104.2437, 86.60342
104.7258, 86.92791
105.2079, 87.30325
105.6900, 87.76173
106.1721, 88.31325
106.6542, 88.99866
107.1364, 89.91307
107.6185, 90.74770
108.1006, 91.38422
108.5827, 91.91286
109.0648, 92.44559
109.5469, 93.05415
110.0291, 93.73475
110.5112, 94.42708
110.9933, 95.05511
111.4754, 95.76159
111.9575, 96.65088
112.4396, 97.67151
112.9218, 98.68562
113.4039, 99.56181
113.8860, 100.2725
114.3681, 100.9335
114.8502, 101.5535
115.3323, 102.1252
115.8144, 102.6431
116.2966, 103.1076
116.7787, 103.5147
117.2608, 103.8921
117.7429, 104.2643
118.2250, 104.3963
118.7071, 104.2348
119.1893, 103.7931
119.6714, 103.0710
120.1535, 102.0032
120.6356, 100.7224
121.1177, 99.37516
121.5998, 97.96255
122.0820, 96.57015
122.5641, 95.27650
123.0462, 94.08537
123.5283, 92.90983
124.0104, 91.69510
124.4925, 90.51231
124.9747, 89.36552
125.4568, 88.25887
125.9389, 87.28134
126.4210, 86.59737
126.9031, 86.34904
127.3852, 86.13726
127.8674, 86.14629
128.3495, 86.05544
128.8316, 85.48376
129.3137, 84.25957
129.7958, 82.62416
130.2780, 81.46745
130.7601, 81.87463
131.2422, 81.58643
131.7243, 79.96689
132.2064, 77.52757
132.6885, 75.05568
133.1707, 73.04446
133.6528, 71.44456
134.1349, 69.78631
134.6170, 67.89680
135.0991, 66.12179
135.5812, 64.60129
136.0633, 63.33463
136.5455, 62.27146
137.0276, 61.43760
137.5097, 60.80849
137.9918, 60.16562
138.4739, 59.39566
138.9560, 58.65998
139.4382, 58.19642
139.9203, 58.07958
140.4024, 57.94899
140.8845, 57.56489
141.3666, 56.97976
141.8487, 56.22876
142.3309, 55.13758
142.8130, 53.86901
143.2951, 52.98042
143.7772, 52.64592
144.2593, 52.50081
144.7414, 52.45190
145.2236, 52.43331
145.7057, 52.29686
146.1878, 51.87670
146.6699, 51.14954
147.1520, 50.54380
147.6341, 50.28376
148.1163, 49.96139
148.5984, 49.37569
149.0805, 48.56251
149.5626, 47.70450
150.0447, 47.00509
150.5268, 46.51168
151.0090, 46.03773
151.4911, 45.57845
151.9732, 45.13873
152.4553, 44.69767
152.9374, 44.26385
153.4195, 43.88799
153.9017, 43.66120
154.3838, 43.74728
154.8659, 43.65556
155.3480, 43.21024
155.8301, 42.66211
156.3122, 42.33361
156.7944, 42.34776
157.2765, 42.43367
157.7586, 41.99690
158.2407, 40.86470
158.7228, 39.98486
159.2049, 39.76530
159.6871, 39.99102
160.1692, 40.17323
160.6513, 40.12759
161.1334, 40.01023
161.6155, 40.08569
162.0976, 40.39735
162.5798, 40.66241
163.0619, 40.62559
163.5440, 40.31409
164.0261, 40.12035
164.5082, 40.32040
164.9903, 40.58580
165.4725, 40.59828
165.9546, 40.29412
166.4367, 39.92180
166.9188, 39.79141
167.4009, 39.97169
167.8830, 40.11046
168.3652, 40.13095
168.8473, 40.07753
169.3294, 39.92017
169.8115, 39.64675
170.2936, 39.39479
170.7757, 39.46618
171.2579, 40.13795
171.7400, 40.63185
172.2221, 40.76362
172.7042, 40.74253
173.1863, 40.78329
173.6684, 40.98077
174.1506, 41.24430
174.6327, 41.29492
175.1148, 40.84252
175.5969, 40.48869
176.0790, 40.24400
176.5611, 40.12967
177.0433, 40.20159
177.5254, 40.50206
178.0075, 40.96342
178.4896, 41.25033
178.9717, 41.34205
179.4538, 41.31058
179.9360, 41.07023
180.4181, 40.71402
180.9002, 40.43847
181.3823, 40.37090
181.8644, 40.46511
182.3465, 40.48238
182.8287, 40.42155
183.3108, 40.30105
183.7929, 40.11455
184.2750, 39.86881
184.7571, 39.59591
185.2392, 38.94049
185.7214, 39.17009
186.2035, 39.20300
186.6856, 39.04976
187.1677, 38.15278
187.6498, 38.21618
188.1319, 37.89470
188.6141, 37.55739
189.0962, 37.75595
189.5783, 36.96715
190.0604, 37.15722
190.5425, 36.95653
191.0246, 36.93468
191.5068, 36.52554
191.9889, 36.41908
192.4710, 36.55729
192.9531, 36.65875
193.4352, 36.73149
193.9173, 36.79409
194.3995, 36.87616
194.8816, 36.92075
195.3637, 36.74417
195.8458, 36.09949
196.3279, 35.70793
196.8100, 35.96019
197.2922, 36.47307
197.7743, 36.78037
198.2564, 36.61645
198.7385, 36.13385
199.2206, 35.92592
199.7027, 36.27764
200.1849, 36.55106
200.6670, 36.54262
201.1491, 36.40591
201.6312, 36.36884
202.1133, 36.57726
202.5954, 36.96152
203.0776, 37.10309
203.5597, 36.56462
204.0418, 36.23572
204.5239, 36.39662
205.0060, 36.84394
205.4881, 37.26697
205.9703, 37.48257
206.4524, 37.49937
206.9345, 37.36671
207.4166, 36.76776
207.8987, 36.37562
208.3808, 36.51203
208.8630, 36.99776
209.3451, 37.43044
209.8272, 37.54333
210.3093, 37.39899
210.7914, 37.48343
211.2735, 38.04870
211.7557, 38.53653
212.2378, 38.66275
212.7199, 38.51171
213.2020, 38.36090
213.6841, 38.36321
214.1662, 38.50653
214.6484, 38.68726
215.1305, 38.99229
215.6126, 39.24957
216.0947, 39.36178
216.5768, 39.33866
217.0589, 39.23050
217.5410, 39.01202
218.0232, 38.74968
218.5053, 38.61148
218.9874, 38.65191
219.4695, 38.75187
219.9516, 38.87500
220.4337, 39.01851
220.9159, 39.02024
221.3980, 38.69568
221.8801, 38.22572
222.3622, 37.88494
222.8443, 37.75348
223.3264, 37.67278
223.8086, 37.45260
224.2907, 37.07175
224.7728, 36.75685
225.2549, 36.70398
225.7370, 36.71644
226.2191, 36.61174
226.7013, 36.33545
227.1834, 35.98680
227.6655, 35.66585
228.1476, 35.35670
228.6297, 35.14574
229.1118, 35.13610
229.5940, 35.19376
230.0761, 35.23442
230.5582, 35.23543
231.0403, 35.20290
231.5224, 35.15912
232.0045, 35.13446
232.4867, 35.00236
232.9688, 34.66060
233.4509, 34.25937
233.9330, 33.89479
234.4151, 33.59542
234.8972, 33.34153
235.3794, 33.08918
235.8615, 32.78349
236.3436, 32.61543
236.8257, 32.76773
237.3078, 32.93480
237.7899, 32.82920
238.2721, 32.40274
238.7542, 31.90985
239.2363, 31.81691
239.7184, 32.52540
240.2005, 32.82631
240.6826, 32.45568
241.1648, 31.89964
241.6469, 31.47906
242.1290, 31.27787
242.6111, 31.20004
243.0932, 31.09792
243.5753, 30.89860
244.0575, 30.83708
244.5396, 31.06815
245.0217, 31.31478
245.5038, 31.38510
245.9859, 31.24109
246.4680, 30.95608
246.9502, 30.60642
247.4323, 30.09061
247.9144, 29.79735
248.3965, 29.90625
248.8786, 30.09290
249.3607, 30.12405
249.8429, 29.96426
250.3250, 29.72468
250.8071, 29.53205
251.2892, 29.40472
251.7713, 29.26811
252.2534, 29.08093
252.7356, 28.91419
253.2177, 28.81078
253.6998, 28.77895
254.1819, 28.81860
254.6640, 28.94172
255.1461, 29.16595
255.6283, 29.36749
256.1104, 29.65425
256.5925, 29.84190
257.0746, 29.69546
257.5567, 29.23105
258.0388, 28.81973
258.5210, 28.82648
259.0031, 29.26011
259.4852, 29.43354
259.9673, 29.02480
260.4494, 28.59641
260.9315, 28.63866
261.4137, 29.13901
261.8958, 29.65701
262.3779, 29.93656
262.8600, 29.94925
263.3421, 29.75350
263.8242, 29.00586
264.3064, 28.31769
264.7885, 28.19181
265.2706, 28.59056
265.7527, 29.09896
266.2348, 29.51943
266.7169, 29.85400
267.1991, 30.14872
267.6812, 30.44075
268.1633, 30.64708
268.6454, 30.63819
269.1275, 30.44006
269.6096, 30.33187
270.0918, 30.52717
270.5739, 30.83096
271.0560, 30.86240
271.5381, 30.48205
272.0202, 30.13379
272.5023, 30.23474
272.9845, 30.71641
273.4666, 31.02461
273.9487, 30.84795
274.4308, 30.51700
274.9129, 30.48982
275.3951, 30.81925
275.8772, 31.16441
276.3593, 31.31096
276.8414, 31.27665
277.3235, 31.15095
277.8056, 30.84884
278.2878, 30.59169
278.7699, 30.58637
279.2520, 30.82671
279.7341, 31.15516
280.2162, 31.52915
280.6983, 31.92687
281.1805, 32.23357
281.6626, 32.43266
282.1447, 32.52693
282.6268, 32.48206
283.1089, 32.33287
283.5910, 32.22648
284.0732, 32.32231
284.5553, 32.54051
285.0374, 32.56015
285.5195, 32.25486
286.0016, 31.94023
286.4837, 31.85476
286.9659, 31.90116
287.4480, 31.87130
287.9301, 31.61194
288.4122, 31.21508
288.8943, 30.93419
289.3764, 30.79736
289.8586, 30.71930
290.3407, 30.67291
290.8228, 30.64978
291.3049, 30.65024
291.7870, 30.70048
292.2691, 30.74025
292.7513, 30.64331
293.2334, 30.37166
293.7155, 30.06812
294.1976, 29.73201
294.6797, 29.41546
295.1618, 29.16453
295.6440, 28.99555
296.1261, 28.89720
296.6082, 28.86277
297.0903, 28.90293
297.5724, 28.96305
298.0545, 29.18085
298.5367, 29.31952
299.0188, 29.14844
299.5009, 28.63035
299.9830, 28.04103
300.4651, 27.70543
300.9472, 27.66199
301.4294, 27.55820
301.9115, 27.17835
302.3936, 26.85955
302.8757, 26.84621
303.3578, 27.11025
303.8399, 27.38486
304.3221, 27.40728
304.8042, 27.17208
305.2863, 27.01557
305.7684, 27.02369
306.2505, 27.03327
306.7326, 26.94299
307.2148, 26.78955
307.6969, 26.67947
308.1790, 26.72284
308.6611, 26.88003
309.1432, 26.88785
309.6253, 26.63971
310.1075, 26.38730
310.5896, 26.22313
311.0717, 26.11700
311.5538, 26.03078
312.0359, 25.95881
312.5180, 25.87606
313.0002, 25.68061
313.4823, 25.23503
313.9644, 24.60780
314.4465, 25.07346
314.9286, 25.34238
315.4107, 25.42515
315.8929, 24.76420
316.3750, 25.06361
316.8571, 24.97815
317.3392, 24.87691
317.8213, 25.31149
318.3034, 24.75870
318.7856, 25.18479
319.2677, 25.22012
319.7498, 25.43429
320.2319, 25.26122
320.7140, 25.20775
321.1961, 25.54165
321.6783, 25.66107
322.1604, 25.44341
322.6425, 25.66895
323.1246, 25.10264
323.6067, 25.23118
324.0888, 25.65953
324.5710, 25.46135
325.0531, 25.69397
325.5352, 25.76251
326.0173, 25.08541
326.4994, 25.70506
326.9815, 25.76391
327.4637, 25.24693
327.9458, 25.82215
328.4279, 25.38456
328.9100, 25.30848
329.3921, 25.50446
329.8742, 25.41683
330.3564, 25.77635
330.8385, 25.70510
331.3206, 25.59535
331.8027, 25.65357
332.2848, 25.23584
332.7669, 25.70109
333.2491, 25.56320
333.7312, 25.72511
334.2133, 25.95498
334.6954, 25.66451
335.1775, 25.92491
335.6596, 25.33103
336.1418, 25.45197
336.6239, 25.49593
337.1060, 25.99678
337.5881, 25.40706
338.0702, 25.50813
338.5523, 25.90333
339.0345, 25.88698
339.5165, 26.04270
339.9987, 25.74567
340.4808, 25.65720
340.9629, 25.69980
341.4450, 25.84811
341.9271, 25.97617
342.4092, 26.08673
342.8914, 26.16952
343.3735, 26.19678
343.8556, 26.20105
344.3377, 26.24390
344.8198, 26.38500
345.3019, 26.53555
345.7841, 26.50652
346.2662, 26.24310
346.7483, 26.01734
347.2304, 25.93599
347.7125, 25.94850
348.1946, 26.04534
348.6768, 26.23862
349.1589, 26.42896
349.6410, 26.49682
350.1231, 26.44335
350.6052, 26.41917
351.0873, 26.44556
351.5695, 26.53028
352.0516, 26.73457
352.5337, 27.03995
353.0158, 27.23523
353.4979, 27.08815
353.9800, 26.71349
354.4622, 26.50228
354.9443, 26.50115
355.4264, 26.64118
355.9085, 26.97043
356.3906, 27.40017
356.8727, 27.72733
357.3549, 27.92251
357.8370, 27.95294
358.3191, 27.65477
358.8012, 26.96821
359.2833, 26.47197
359.7654, 26.56965
360.2476, 27.01177
360.7297, 27.42727
361.2118, 27.81655
361.6939, 28.08664
362.1760, 28.12582
362.6581, 27.96517
363.1403, 27.75145
363.6224, 27.46224
364.1045, 27.23288
364.5866, 27.27640
365.0687, 27.60464
365.5508, 27.89465
366.0330, 27.95413
366.5151, 27.90406
366.9972, 27.99421
367.4793, 28.29198
367.9614, 28.56067
368.4435, 28.53868
368.9257, 28.27491
369.4078, 28.06602
369.8899, 27.99166
370.3720, 27.95927
370.8541, 27.90125
371.3362, 27.81586
371.8184, 27.70512
372.3005, 27.54307
372.7826, 27.37272
373.2647, 27.33841
373.7468, 27.56748
374.2289, 27.72217
374.7111, 27.58016
375.1932, 27.28193
375.6753, 27.12033
376.1574, 27.20732
376.6395, 27.38867
377.1216, 27.41680
377.6038, 27.25281
378.0859, 27.08755
378.5680, 26.94338
379.0501, 26.80308
379.5322, 26.27029
380.0143, 26.64312
380.4965, 26.81921
380.9786, 26.80916
381.4607, 26.05538
381.9428, 26.26197
382.4249, 26.08369
382.9070, 25.88962
383.3892, 26.23137
383.8713, 25.58576
384.3534, 25.91902
384.8355, 25.86153
385.3176, 25.98288
385.7997, 25.71698
386.2819, 25.57068
386.7640, 25.81176
387.2461, 25.83835
387.7282, 25.52787
388.2103, 25.66059
388.6924, 25.00146
389.1746, 25.03717
389.6567, 25.37269
390.1388, 25.08169
390.6209, 25.22148
391.1030, 25.19721
391.5851, 24.42728
392.0673, 24.95410
392.5494, 24.92013
393.0315, 24.31033
393.5136, 24.79273
393.9957, 24.26232
394.4778, 24.09341
394.9600, 23.93099
395.4421, 23.72644
395.9242, 23.82282
396.4063, 24.00819
396.8884, 24.05278
397.3705, 23.88556
397.8527, 23.62918
398.3348, 23.48291
398.8169, 23.49768
399.2990, 23.43998
399.7811, 23.19231
400.2632, 22.95530
400.7454, 22.85204
401.2275, 22.85644
401.7096, 22.84721
402.1917, 22.71628
402.6738, 22.49140
403.1559, 22.35106
403.6381, 22.38470
404.1202, 22.34353
404.6023, 22.05152
405.0844, 21.66862
405.5665, 21.38380
406.0486, 21.26215
406.5308, 21.25793
407.0129, 21.35683
407.4950, 21.57251
407.9771, 21.69958
408.4592, 21.66724
408.9413, 21.53794
409.4235, 21.33206
409.9056, 21.05897
410.3877, 20.84199
410.8698, 20.81505
411.3519, 20.89076
411.8340, 20.80724
412.3162, 20.48585
412.7983, 20.21459
413.2804, 20.27124
413.7625, 20.53018
414.2446, 20.71411
414.7267, 20.75650
415.2089, 20.73072
415.6910, 20.34960
416.1731, 20.66279
416.6552, 20.78471
417.1373, 20.72593
417.6194, 19.92890
418.1016, 20.09768
418.5837, 19.88706
419.0658, 19.66614
419.5479, 19.98649
420.0300, 19.32496
420.5121, 19.64775
420.9943, 19.58525
421.4764, 19.70705
421.9585, 19.44708
422.4406, 19.31218
422.9227, 19.57012
423.4048, 19.61903
423.8870, 19.33632
424.3691, 19.50229
424.8512, 18.88187
425.3333, 18.96177
425.8154, 19.34694
426.2975, 19.11104
426.7797, 19.31141
427.2618, 19.35317
427.7439, 18.65475
428.2260, 19.25855
428.7081, 19.30700
429.1902, 18.78510
429.6724, 19.36087
430.1545, 18.92928
430.6366, 18.86467
431.1187, 19.07758
431.6008, 19.01235
432.0829, 19.39973
432.5651, 19.27340
433.0472, 19.26844
433.5293, 19.20684
434.0114, 19.19783
434.4935, 19.28965
434.9756, 19.42522
435.4578, 19.51587
435.9399, 19.58359
436.4220, 19.53165
436.9041, 19.16230
437.3862, 18.81454
437.8683, 18.70834
438.3505, 18.82049
438.8326, 18.95764
439.3147, 18.98368
439.7968, 18.91859
440.2789, 18.82979
440.7610, 18.67599
441.2432, 18.59641
441.7253, 18.80731
442.2074, 19.08025
442.6895, 19.09325
443.1716, 18.69042
443.6537, 18.24481
444.1359, 18.10685
444.6180, 18.23953
445.1001, 18.41195
445.5822, 18.59316
446.0643, 18.75399
446.5464, 18.88281
447.0286, 18.97959
447.5107, 18.96988
447.9928, 18.70302
448.4749, 18.40064
448.9570, 18.31180
449.4391, 18.43507
449.9213, 18.62247
450.4034, 18.81458
450.8855, 18.98810
451.3676, 19.04589
451.8497, 18.89334
452.3318, 18.79014
452.8140, 18.91559
453.2961, 19.08065
453.7782, 18.97855
454.2603, 18.55203
454.7424, 18.10176
455.2245, 17.98820
455.7067, 18.28903
456.1888, 18.47948
456.6709, 18.48723
457.1530, 18.48009
457.6351, 18.50444
458.1172, 18.56727
458.5994, 18.67826
459.0815, 18.84494
459.5636, 19.03933
460.0457, 19.20033
460.5278, 19.36662
461.0099, 19.41211
461.4921, 19.22993
461.9742, 19.01881
462.4563, 18.92985
462.9384, 18.95163
463.4205, 18.94763
463.9026, 18.76717
464.3848, 18.45345
464.8669, 18.32002
465.3490, 18.45137
465.8311, 18.60585
466.3132, 18.77385
466.7953, 18.87591
467.2775, 18.77221
467.7596, 18.39120
468.2417, 17.99502
468.7238, 17.83839
469.2059, 17.89886
469.6880, 18.05129
470.1702, 18.35334
470.6523, 18.59242
471.1344, 18.46099
471.6165, 18.05952
472.0986, 17.81278
472.5807, 18.00959
473.0629, 18.27162
473.5450, 18.16540
474.0271, 17.76258
474.5092, 17.52513
474.9913, 17.71920
475.4734, 18.13890
475.9556, 18.29428
476.4377, 18.09754
476.9198, 17.90717
477.4019, 17.76483
477.8840, 17.66018
478.3661, 17.59009
478.8483, 17.55057
479.3304, 17.53558
479.8125, 17.54759
480.2946, 17.58157
480.7767, 17.54937
481.2589, 17.39521
481.7410, 17.24026
482.2231, 17.08179
482.7052, 16.94207
483.1873, 16.84625
483.6694, 16.79999
484.1516, 16.78579
484.6337, 16.76240
485.1158, 16.70620
485.5979, 16.78978
486.0800, 17.26459
486.5621, 17.60425
487.0443, 17.50325
487.5264, 17.14379
488.0085, 16.86855
488.4906, 16.84960
488.9727, 16.94397
489.4548, 16.92050
489.9370, 16.76916
490.4191, 16.65529
490.9012, 16.58573
491.3833, 16.61552
491.8654, 16.85997
492.3475, 17.29306
492.8297, 17.58514
493.3118, 17.50487
493.7939, 17.25563
494.2760, 17.08867
494.7581, 17.01322
495.2402, 16.97457
495.7224, 16.95466
496.2045, 16.94143
496.6866, 16.89077
497.1687, 16.75463
497.6508, 16.68188
498.1329, 16.77109
498.6151, 16.90587
499.0972, 16.96789
499.5793, 16.93631
500.0614, 16.82828
500.5435, 16.63624
501.0256, 16.36236
501.5078, 16.28690
501.9899, 16.62924
502.4720, 16.91020
502.9541, 16.99175
503.4362, 16.98627
503.9183, 17.05199
504.4004, 17.22679
504.8825, 17.37713
505.3647, 17.27850
505.8468, 16.87447
506.3289, 16.66442
506.8110, 16.81212
507.2931, 16.96760
507.7752, 16.96691
508.2574, 16.87450
508.7395, 16.80057
509.2216, 16.78122
509.7037, 16.81312
510.1858, 16.91583
510.6679, 17.08396
511.1501, 17.22247
511.6322, 17.31561
512.1143, 17.35866
512.5964, 17.33065
513.0786, 17.24126
513.5607, 17.15088
514.0428, 17.05544
514.5249, 16.98068
515.0070, 16.98387
515.4891, 17.03927
515.9713, 17.02260
516.4534, 16.86110
516.9355, 16.63282
517.4176, 16.51392
517.8997, 16.59648
518.3818, 16.60196
518.8640, 16.39088
519.3461, 16.20562
519.8282, 16.26802
520.3103, 16.52918
520.7924, 16.78740
521.2745, 16.91533
521.7567, 16.90696
522.2388, 16.70168
522.7209, 16.04453
523.2030, 15.66735
523.6851, 15.86695
524.1672, 16.19641
524.6494, 16.28771
525.1315, 16.14161
525.6136, 16.06571
526.0957, 16.37672
526.5778, 16.94770
527.0599, 17.32217
527.5421, 17.47644
528.0242, 17.50651
528.5063, 17.41598
528.9884, 17.24000
529.4705, 16.98278
529.9526, 16.59814
530.4348, 16.35466
530.9169, 16.54968
531.3990, 16.92602
531.8811, 17.00317
532.3632, 16.71992
532.8453, 16.43516
533.3275, 16.42071
533.8096, 16.64649
534.2917, 16.87640
534.7738, 17.23648
535.2559, 17.44539
535.7380, 17.36959
536.2202, 17.14689
536.7023, 16.89533
537.1844, 16.65702
537.6665, 16.45806
538.1486, 16.32895
538.6307, 16.26997
539.1129, 16.25500
539.5950, 16.32435
540.0771, 16.38687
540.5592, 16.46875
541.0413, 16.50959
541.5234, 16.38938
542.0056, 16.08456
542.4877, 15.82661
542.9698, 15.90927
543.4519, 16.28005
543.9340, 16.57011
544.4161, 16.77697
544.8983, 16.84246
545.3804, 16.61962
545.8625, 16.24417
546.3446, 15.96672
546.8267, 15.82827
547.3088, 15.78113
547.7910, 15.85699
548.2731, 15.99265
548.7552, 16.04892
549.2373, 15.99443
549.7194, 15.93477
550.2015, 15.97788
550.6837, 16.12698
551.1658, 16.24821
551.6479, 16.38548
552.1300, 16.44798
552.6121, 16.34529
553.0942, 16.18287
553.5764, 16.08817
554.0585, 16.09680
554.5406, 16.16478
555.0227, 16.25775
555.5048, 16.38244
555.9869, 16.41709
556.4691, 16.24706
556.9512, 16.14909
557.4333, 16.35846
557.9154, 16.63249
558.3975, 16.61982
558.8796, 16.19733
559.3618, 15.71491
559.8439, 15.45986
560.3260, 15.40536
560.8081, 15.51801
561.2902, 15.85910
561.7723, 16.07637
562.2545, 15.78802
562.7366, 15.13882
563.2187, 14.83441
563.7008, 15.09628
564.1829, 15.43060
564.6650, 15.73747
565.1472, 15.96848
565.6293, 15.98953
566.1114, 15.80023
566.5935, 15.65744
567.0756, 15.84915
567.5577, 16.37287
568.0399, 16.62609
568.5220, 16.41669
569.0041, 16.14980
569.4862, 15.75151
569.9683, 15.40260
570.4504, 15.34189
570.9326, 15.58782
571.4147, 15.86155
571.8968, 15.85211
572.3789, 15.61572
572.8610, 15.55094
573.3431, 15.74166
573.8253, 15.85695
574.3074, 15.57216
574.7895, 15.18959
575.2716, 15.18577
575.7537, 15.69509
576.2358, 16.15263
576.7180, 16.27018
577.2001, 16.18060
577.6822, 16.02392
578.1643, 15.82999
578.6464, 15.68552
579.1285, 15.66215
579.6107, 15.72427
580.0928, 15.71687
580.5749, 15.55884
581.0570, 15.43821
581.5391, 15.30365
582.0212, 15.25148
582.5034, 15.42865
582.9855, 15.77931
583.4676, 16.07464
583.9497, 16.14404
584.4318, 16.04633
584.9139, 15.97872
585.3961, 15.96192
585.8782, 15.90119
586.3602, 15.73057
586.8423, 15.54094
587.3245, 15.35249
587.8066, 15.18663
588.2887, 15.18535
588.7708, 15.57913
589.2529, 16.05720
589.7350, 16.24502
590.2172, 16.17375
590.6993, 16.04673
591.1814, 15.93651
591.6635, 15.83353
592.1456, 15.71827
592.6277, 15.57351
593.1099, 15.48316
593.5920, 15.42104
594.0741, 15.43781
594.5562, 15.61239
595.0383, 15.87308
595.5204, 16.12014
596.0026, 16.30895
596.4847, 16.39887
596.9668, 16.29197
597.4489, 15.95175
597.9310, 15.67121
598.4131, 15.44084
598.8953, 15.30591
599.3774, 15.28705
599.8595, 15.36592
600.3416, 15.55735
600.8237, 15.95305
601.3058, 16.19647
601.7880, 15.85488
602.2701, 15.16807
602.7522, 14.71872
603.2343, 14.60812
603.7164, 14.67521
604.1985, 14.82312
604.6807, 15.03983
605.1628, 15.22627
605.6449, 15.47942
606.1270, 15.58132
606.6091, 15.32109
607.0912, 15.00860
607.5734, 14.95132
608.0555, 15.15934
608.5376, 15.45735
609.0197, 15.74961
609.5018, 15.97720
609.9839, 15.82502
610.4661, 15.08863
610.9482, 14.57338
611.4303, 14.64056
611.9124, 14.88777
612.3945, 15.04881
612.8766, 15.11184
613.3588, 15.11300
613.8409, 15.06870
614.3230, 14.96944
614.8051, 14.73323
615.2872, 14.41220
615.7693, 14.26977
616.2515, 14.42610
616.7336, 14.68636
617.2157, 14.77404
617.6978, 14.64787
618.1799, 14.53341
618.6620, 14.33093
619.1442, 14.24797
619.6263, 14.46797
620.1084, 14.81790
620.5905, 15.03111
621.0726, 15.03153
621.5547, 14.99408
622.0369, 15.18073
622.5190, 15.57366
623.0011, 15.74548
623.4832, 15.62918
623.9653, 15.43229
624.4474, 15.16458
624.9296, 14.91777
625.4117, 14.82832
625.8938, 14.93136
626.3759, 15.07656
626.8580, 15.33560
627.3401, 15.51917
627.8223, 15.26938
628.3044, 14.65660
628.7865, 14.20466
629.2686, 14.22290
629.7507, 14.55296
630.2328, 14.79652
630.7150, 14.91913
631.1971, 15.02090
631.6792, 15.09052
632.1613, 15.15269
632.6434, 15.24097
633.1255, 15.32804
633.6077, 15.36029
634.0898, 15.31324
634.5719, 15.20921
635.0540, 14.99402
635.5361, 14.70381
636.0182, 14.73728
636.5004, 15.27092
636.9825, 15.76198
637.4646, 15.77373
637.9467, 15.41194
638.4288, 15.15165
638.9109, 15.04351
639.3931, 14.96403
639.8752, 14.84730
640.3573, 14.75561
640.8394, 14.77368
641.3215, 14.89461
641.8036, 15.05202
642.2858, 15.21201
642.7679, 15.33754
643.2500, 15.24885
643.7321, 14.75437
644.2142, 14.53998
644.6964, 15.03878
645.1785, 15.55019
645.6606, 15.66984
646.1427, 15.47563
646.6248, 15.25448
647.1069, 15.08464
647.5891, 14.98195
648.0712, 14.98509
648.5533, 15.06951
649.0354, 15.14911
649.5175, 15.20218
649.9996, 15.29627
650.4818, 15.52480
650.9639, 15.87073
651.4460, 16.01899
651.9281, 15.88544
652.4102, 15.67506
652.8923, 15.33969
653.3745, 14.99284
653.8566, 14.72338
654.3387, 14.54185
654.8208, 14.42190
655.3029, 14.34228
655.7850, 14.31407
656.2672, 14.39254
656.7493, 14.59156
657.2314, 14.71572
657.7135, 14.64758
658.1956, 14.58652
658.6777, 14.82182
659.1599, 15.28313
659.6420, 15.56314
660.1241, 15.52136
660.6062, 15.37780
661.0883, 15.12371
661.5704, 14.88105
662.0526, 14.87330
662.5347, 15.12077
663.0168, 15.40194
663.4989, 15.51421
663.9810, 15.47409
664.4631, 15.40575
664.9453, 15.28970
665.4274, 15.18678
665.9095, 15.13811
666.3916, 15.08471
666.8737, 14.96292
667.3558, 14.78880
667.8380, 14.65714
668.3201, 14.55911
668.8022, 14.56833
669.2843, 14.86182
669.7664, 15.32971
670.2485, 15.64132
670.7307, 15.70531
671.2128, 15.57579
671.6949, 15.25256
672.1770, 14.73979
672.6591, 14.53649
673.1412, 15.00185
673.6234, 15.32962
674.1055, 15.34375
674.5876, 15.22589
675.0697, 15.13150
675.5518, 15.07063
676.0339, 14.95323
676.5161, 14.65682
676.9982, 14.33434
677.4803, 14.29028
677.9624, 14.51220
678.4445, 14.76650
678.9266, 15.01869
679.4088, 15.21619
679.8909, 15.31363
680.3730, 15.30500
680.8551, 15.19126
681.3372, 14.77822
681.8193, 14.50135
682.3015, 14.62773
682.7836, 14.87076
683.2657, 14.89081
683.7478, 14.67579
684.2299, 14.47820
684.7120, 14.50840
685.1942, 14.67874
685.6763, 14.71673
686.1584, 14.59781
686.6405, 14.52027
687.1226, 14.55709
687.6047, 14.61115
688.0869, 14.56023
688.5690, 14.44139
689.0511, 14.41520
689.5332, 14.53533
690.0153, 14.71950
690.4974, 15.09801
690.9796, 15.43609
691.4617, 15.32938
691.9438, 14.78492
692.4259, 14.23831
692.9080, 14.02364
693.3901, 14.07816
693.8723, 14.20358
694.3544, 14.48193
694.8365, 14.56379
695.3186, 14.10725
695.8007, 13.74320
696.2828, 14.03124
696.7650, 14.73027
697.2471, 15.13457
697.7292, 14.95474
698.2113, 14.62390
698.6934, 14.37033
699.1755, 14.17355
699.6577, 13.98636
700.1398, 13.81101
700.6219, 13.72446
701.1040, 13.79179
701.5861, 13.96479
702.0682, 14.09006
702.5504, 14.19248
703.0325, 14.18878
703.5146, 13.91056
703.9967, 13.68305
704.4788, 13.71839
704.9609, 13.90463
705.4431, 14.00307
705.9252, 13.92347
706.4073, 13.80571
706.8894, 13.72178
707.3715, 13.68544
707.8536, 13.76275
708.3358, 13.94403
708.8179, 14.05072
709.3000, 13.95914
709.7821, 13.77026
710.2642, 13.74388
710.7463, 13.98487
711.2285, 14.14695
711.7106, 14.22695
712.1927, 14.23595
712.6748, 14.14459
713.1569, 13.99612
713.6390, 13.82834
714.1212, 13.64723
714.6033, 13.54478
715.0854, 13.64101
715.5675, 13.85147
716.0496, 14.04563
716.5317, 14.20738
717.0139, 14.21557
717.4960, 13.97014
717.9781, 13.68815
718.4602, 13.77896
718.9423, 14.42765
719.4244, 14.68708
719.9066, 14.19698
720.3887, 13.76938
720.8708, 13.60961
721.3529, 13.66509
721.8350, 13.99196
722.3171, 14.54253
722.7993, 14.87643
723.2814, 14.50207
723.7635, 13.77201
724.2456, 13.25778
724.7277, 12.96068
725.2098, 12.95511
725.6920, 13.31499
726.1741, 13.74512
726.6562, 13.89441
727.1383, 13.74867
727.6204, 13.67093
728.1025, 13.79633
728.5847, 13.81215
729.0668, 13.47825
729.5489, 13.14992
730.0310, 13.20641
730.5131, 13.59655
730.9952, 13.93624
731.4774, 13.99180
731.9595, 13.91243
732.4416, 13.87325
732.9237, 13.87660
733.4058, 13.95981
733.8879, 14.14194
734.3701, 14.28893
734.8522, 14.29448
735.3343, 14.17330
735.8164, 14.00005
736.2985, 13.59211
736.7806, 13.40258
737.2628, 13.65545
737.7449, 13.92184
738.2270, 13.91075
738.7091, 13.71127
739.1912, 13.54844
739.6733, 13.50632
740.1555, 13.53061
740.6376, 13.63264
741.1197, 13.74828
741.6018, 13.63089
742.0839, 13.27092
742.5660, 13.07396
743.0482, 13.28500
743.5303, 13.72105
744.0124, 14.02331
744.4945, 14.16696
744.9766, 14.25146
745.4587, 14.28456
745.9409, 14.25387
746.4230, 14.10080
746.9051, 13.91002
747.3872, 13.76662
747.8693, 13.69111
748.3514, 13.68381
748.8336, 13.76669
749.3157, 13.90507
749.7978, 14.06366
750.2799, 14.23410
750.7620, 14.39700
751.2441, 14.55224
751.7263, 14.61772
752.2084, 14.48501
752.6905, 14.16121
753.1726, 13.91189
753.6547, 13.73632
754.1368, 13.64144
754.6190, 13.72530
755.1011, 13.80166
755.5832, 13.67702
756.0653, 13.42272
756.5474, 13.30278
757.0295, 13.46537
757.5117, 13.70458
757.9938, 13.83760
758.4759, 13.91899
758.9580, 14.09650
759.4401, 14.36581
759.9222, 14.52218
760.4044, 14.42068
760.8865, 14.16579
761.3686, 14.00938
761.8507, 13.95159
762.3328, 13.99523
762.8149, 14.24230
763.2971, 14.46400
763.7792, 14.51957
764.2613, 14.52092
764.7434, 14.64119
765.2255, 14.91768
765.7076, 15.15070
766.1898, 15.25679
766.6719, 15.26958
767.1540, 15.14335
767.6361, 14.95828
768.1182, 14.94556
768.6003, 15.16449
769.0825, 15.38217
769.5646, 15.31860
770.0467, 15.01925
770.5288, 14.90996
771.0109, 15.09240
771.4930, 15.13621
771.9752, 14.79131
772.4573, 14.43464
772.9394, 14.39842
773.4215, 14.62753
773.9036, 14.90601
774.3857, 15.35815
774.8679, 15.63190
775.3500, 15.46558
775.8321, 15.13656
776.3142, 14.91564
776.7963, 14.81097
777.2784, 14.69128
777.7606, 14.47845
778.2427, 14.30472
778.7248, 14.43849
779.2069, 14.85445
779.6890, 15.18155
780.1711, 15.43631
780.6533, 15.40350
781.1354, 14.78117
781.6175, 13.99720
782.0996, 13.87270
782.5817, 14.59318
783.0638, 15.06629
783.5460, 15.19065
784.0281, 15.12281
784.5102, 14.76706
784.9923, 14.34264
785.4744, 14.10433
785.9565, 14.08238
786.4387, 14.13415
786.9208, 14.18037
787.4029, 14.22019
787.8850, 14.22461
788.3671, 14.21390
788.8492, 14.31513
789.3314, 14.56218
789.8135, 14.81758
790.2956, 14.98794
790.7777, 15.06711
791.2598, 15.01954
791.7419, 14.72536
792.2241, 14.53203
792.7062, 14.47200
793.1883, 14.48247
793.6704, 14.68395
794.1525, 14.88483
794.6346, 14.68733
795.1168, 13.95756
795.5989, 13.42602
796.0810, 13.74842
796.5631, 14.32425
797.0452, 14.45040
797.5273, 14.23816
798.0095, 14.11627
798.4916, 14.22033
798.9737, 14.35633
799.4558, 14.30721
799.9379, 14.10038
800.4200, 13.93245
800.9022, 13.78799
801.3843, 13.74291
801.8664, 13.84779
802.3485, 14.01385
802.8306, 14.26618
803.3127, 14.52763
803.7949, 14.52094
804.2770, 13.99829
804.7591, 13.60123
805.2412, 13.56352
805.7233, 13.68027
806.2054, 13.81503
806.6876, 13.95862
807.1697, 14.16456
807.6518, 14.45182
808.1339, 14.69036
808.6160, 14.71603
809.0981, 14.57464
809.5803, 14.38417
810.0624, 14.14741
810.5445, 14.03472
811.0266, 14.14758
811.5087, 14.26454
811.9908, 14.10325
812.4730, 13.65925
812.9551, 13.30902
813.4372, 13.03269
813.9193, 12.88276
814.4014, 12.93901
814.8835, 13.05400
815.3657, 13.12974
815.8478, 13.17774
816.3299, 13.25508
816.8120, 13.38919
817.2941, 13.52887
817.7762, 13.66923
818.2584, 13.77558
818.7405, 13.78485
819.2226, 13.71267
819.7047, 13.61449
820.1868, 13.51460
820.6689, 13.45222
821.1511, 13.48247
821.6332, 13.60295
822.1153, 13.80222
822.5974, 14.14815
823.0795, 14.30085
823.5616, 14.04960
824.0438, 13.70627
824.5259, 13.62526
825.0080, 13.77089
825.4901, 13.77531
825.9722, 13.47227
826.4543, 13.23789
826.9365, 13.16187
827.4186, 13.17403
827.9007, 13.28814
828.3828, 13.43369
828.8649, 13.47169
829.3470, 13.34569
829.8292, 13.13165
830.3113, 12.81257
830.7934, 12.49203
831.2755, 12.39200
831.7576, 12.50832
832.2397, 12.79139
832.7219, 13.23931
833.2040, 13.64328
833.6861, 13.73601
834.1682, 13.53567
834.6503, 13.36224
835.1324, 13.19904
835.6146, 13.10193
836.0967, 13.11062
836.5788, 13.15992
837.0609, 13.20444
837.5430, 13.25211
838.0251, 13.34463
838.5073, 13.58110
838.9894, 13.64260
839.4715, 13.20180
839.9536, 12.74252
840.4357, 12.71930
840.9178, 12.96527
841.4000, 13.08879
841.8821, 12.97133
842.3642, 12.81591
842.8463, 12.85315
843.3284, 12.98111
843.8105, 12.90331
844.2927, 12.65095
844.7748, 12.53929
845.2569, 12.66128
845.7390, 12.81388
846.2211, 12.79970
846.7032, 12.68584
847.1854, 12.82345
847.6675, 13.53404
848.1496, 13.78035
848.6317, 12.97363
849.1138, 12.30889
849.5959, 12.49135
850.0781, 13.04754
850.5602, 13.26862
851.0423, 13.04663
851.5244, 12.77169
852.0065, 12.37995
852.4886, 12.18296
852.9708, 12.62120
853.4529, 13.28273
853.9350, 13.50792
854.4171, 13.24184
854.8992, 12.93902
855.3813, 12.92009
855.8635, 13.03586
856.3456, 13.03388
856.8277, 12.93174
857.3098, 12.81381
857.7919, 12.68839
858.2740, 12.60303
858.7562, 12.58319
859.2383, 12.62275
859.7204, 12.71740
860.2025, 12.88056
860.6846, 13.02902
861.1667, 13.24972
861.6489, 13.32175
862.1310, 13.05652
862.6131, 12.72956
863.0952, 12.54765
863.5773, 12.51027
864.0594, 12.56394
864.5416, 12.89059
865.0237, 12.99799
865.5058, 12.38114
865.9879, 11.67325
866.4700, 11.51418
866.9521, 11.79529
867.4343, 12.13709
867.9164, 12.38361
868.3985, 12.51506
868.8806, 12.47711
869.3627, 12.31607
869.8448, 12.07578
870.3270, 11.78815
870.8091, 11.77283
871.2912, 12.13893
871.7733, 12.54365
872.2554, 12.67226
872.7375, 12.57603
873.2197, 12.51559
873.7018, 12.54782
874.1839, 12.43846
874.6660, 11.96872
875.1481, 11.62955
875.6302, 11.92021
876.1124, 12.39063
876.5945, 12.27199
877.0766, 11.40658
877.5587, 10.95523
878.0408, 11.58774
878.5229, 12.16406
879.0051, 12.04024
879.4872, 11.65095
879.9693, 11.47112
880.4514, 11.54981
880.9335, 11.75975
881.4156, 12.10245
881.8978, 12.33502
882.3799, 12.02440
882.8620, 11.47071
883.3441, 11.37343
883.8262, 11.69766
884.3083, 11.89569
884.7905, 11.72802
885.2726, 11.43152
885.7547, 11.30142
886.2368, 11.32804
886.7189, 11.45794
887.2010, 11.74075
887.6832, 11.87307
888.1653, 11.73605
888.6474, 11.53229
889.1295, 11.38294
889.6116, 11.30058
890.0938, 11.34897
890.5759, 11.69551
891.0580, 11.82880
891.5401, 11.62204
892.0222, 11.32909
892.5043, 10.94693
892.9865, 10.60497
893.4686, 10.48452
893.9507, 10.58635
894.4328, 10.69013
894.9149, 10.70125
895.3970, 10.67273
895.8792, 10.54832
896.3613, 10.46146
896.8434, 10.70909
897.3255, 11.19260
897.8076, 11.46352
898.2897, 11.30012
898.7719, 10.94181
899.2540, 10.62396
899.7361, 10.37135
900.2182, 10.31861
900.7003, 10.45542
901.1824, 10.50846
901.6646, 10.37568
902.1467, 10.29907
902.6288, 10.53907
903.1109, 11.01636
903.5930, 11.32097
904.0751, 11.40992
904.5573, 11.45250
905.0394, 11.45019
905.5215, 11.41909
906.0036, 11.39774
906.4857, 11.33574
906.9678, 11.11875
907.4500, 10.71970
907.9321, 10.45194
908.4142, 10.41341
908.8963, 10.43631
909.3784, 10.47602
909.8605, 10.54138
910.3427, 10.68382
910.8248, 10.85960
911.3069, 10.93185
911.7890, 10.82357
912.2711, 10.72491
912.7532, 10.84657
913.2354, 11.00893
913.7175, 10.93851
914.1996, 10.72316
914.6817, 10.64042
915.1638, 10.75483
915.6459, 10.87665
916.1280, 10.83198
916.6101, 10.69592
917.0922, 10.64447
917.5743, 10.67123
918.0565, 10.74650
918.5386, 10.87670
919.0207, 10.87664
919.5028, 10.61423
919.9849, 10.26569
920.4670, 10.15295
920.9492, 10.30697
921.4313, 10.27110
921.9134, 9.851803
922.3955, 9.679936
922.8776, 10.14627
923.3597, 10.63260
923.8419, 10.53377
924.3240, 10.05519
924.8061, 9.835160
925.2882, 10.04896
925.7703, 10.16302
926.2524, 9.942544
926.7346, 9.783875
927.2167, 9.974025
927.6988, 10.28763
928.1809, 10.43285
928.6630, 10.38772
929.1451, 10.34683
929.6273, 10.43898
930.1094, 10.50235
930.5915, 10.37297
931.0736, 10.17582
931.5557, 10.09280
932.0378, 10.09212
932.5200, 9.998932
933.0021, 9.752669
933.4842, 9.553331
933.9663, 9.656676
934.4484, 9.935207
934.9305, 10.09305
935.4127, 10.14601
935.8948, 10.17806
936.3769, 10.20614
936.8590, 10.19316
937.3411, 10.10061
937.8232, 10.00268
938.3054, 10.11867
938.7875, 10.49889
939.2696, 10.51583
939.7517, 10.02616
940.2338, 9.708696
940.7159, 9.854887
941.1981, 10.13902
941.6802, 10.24266
942.1623, 10.18668
942.6444, 10.13046
943.1265, 10.00378
943.6086, 9.994441
944.0908, 10.24847
944.5729, 10.45348
945.0550, 10.37480
945.5371, 10.23073
946.0192, 10.37414
946.5013, 10.82010
946.9835, 11.06968
947.4656, 10.88356
947.9477, 10.62593
948.4298, 10.33744
948.9119, 10.12889
949.3940, 10.18466
949.8762, 10.38297
950.3583, 10.42078
950.8404, 10.19597
951.3225, 9.959359
951.8046, 9.877973
952.2867, 9.888167
952.7689, 9.938415
953.2510, 10.02107
953.7331, 10.15931
954.2152, 10.32991
954.6973, 10.40682
955.1794, 10.30411
955.6616, 10.15816
956.1437, 10.25466
956.6258, 10.46770
957.1079, 10.20049
957.5900, 9.514745
958.0721, 9.310871
958.5543, 9.877665
959.0364, 10.63199
959.5185, 11.07222
960.0006, 11.21518
960.4827, 11.04099
960.9648, 10.48879
961.4470, 10.19653
961.9291, 10.27641
962.4112, 10.36644
962.8933, 10.29976
963.3754, 10.17942
963.8575, 10.13446
964.3397, 10.16390
964.8218, 10.22750
965.3039, 10.39649
965.7860, 10.46716
966.2681, 10.33051
966.7502, 10.19250
967.2324, 10.26872
967.7145, 10.36427
968.1966, 10.06493
968.6787, 9.271983
969.1608, 8.890994
969.6429, 9.415843
970.1251, 9.880342
970.6072, 9.949493
971.0893, 9.864762
971.5714, 9.771970
972.0535, 9.707448
972.5356, 9.706100
973.0178, 9.781355
973.4999, 9.886866
973.9820, 10.04837
974.4641, 10.18188
974.9462, 10.12026
975.4283, 10.04883
975.9105, 10.35771
976.3926, 10.94102
976.8747, 11.22439
977.3568, 10.89278
977.8389, 10.35182
978.3210, 9.789104
978.8032, 9.400663
979.2853, 9.678197
979.7674, 10.36683
980.2495, 10.70561
980.7316, 10.53627
981.2137, 10.23851
981.6959, 10.08574
982.1780, 10.00994
982.6601, 9.865478
983.1422, 9.693135
983.6243, 9.708370
984.1064, 9.903273
984.5886, 10.01343
985.0707, 9.940541
985.5528, 9.803787
986.0349, 9.712633
986.5170, 9.673787
986.9991, 9.758329
987.4813, 9.986128
987.9634, 9.988741
988.4455, 9.684713
988.9276, 9.399044
989.4097, 9.261326
989.8918, 9.265589
990.3740, 9.438733
990.8561, 9.764264
991.3382, 9.897024
991.8203, 9.759229
992.3024, 9.629794
992.7845, 9.480427
993.2667, 9.452024
993.7488, 9.727020
994.2309, 10.09182
994.7130, 10.15673
995.1951, 9.870578
995.6772, 9.751195
996.1594, 9.968392
996.6415, 10.10670
997.1236, 10.08697
997.6057, 10.00047
998.0878, 9.863204
998.5699, 9.711231
999.0521, 9.598209
999.5342, 9.526155
1000.016, 9.523392
1000.498, 9.708262
1000.981, 9.817234
1001.463, 9.655594
1001.945, 9.467402
1002.427, 9.450719
1002.909, 9.579939
1003.391, 9.808682
1003.873, 10.15922
1004.355, 10.28377
1004.837, 9.814211
1005.320, 9.309379
1005.802, 9.084524
1006.284, 9.058932
1006.766, 9.221409
1007.248, 9.471292
1007.730, 9.547589
1008.212, 9.329611
1008.694, 9.129007
1009.177, 9.209594
1009.659, 9.392671
1010.141, 9.519134
1010.623, 9.600123
1011.105, 9.675375
1011.587, 9.740292
1012.069, 9.733572
1012.551, 9.614779
1013.033, 9.497516
1013.516, 9.505921
1013.998, 9.596898
1014.480, 9.706293
1014.962, 9.832616
1015.444, 10.01187
1015.926, 10.22903
1016.408, 10.35848
1016.890, 10.32033
1017.372, 10.15155
1017.855, 9.731612
1018.337, 9.258223
1018.819, 9.557752
1019.301, 10.47452
1019.783, 10.91147
1020.265, 10.61398
1020.747, 10.16607
1021.229, 9.995008
1021.712, 10.01183
1022.194, 10.11234
1022.676, 10.26468
1023.158, 10.12641
1023.640, 9.692588
1024.122, 9.395971
1024.604, 9.361034
1025.086, 9.508571
1025.568, 9.811388
1026.051, 10.15152
1026.533, 10.19575
1027.015, 9.928958
1027.497, 9.663168
1027.979, 9.384894
1028.461, 9.246968
1028.943, 9.310544
1029.425, 9.491913
1029.908, 9.760556
1030.390, 10.03175
1030.872, 9.949003
1031.354, 9.348131
1031.836, 9.297308
1032.318, 10.07307
1032.800, 10.52453
1033.282, 10.16392
1033.765, 9.600220
1034.247, 9.364315
1034.729, 9.401712
1035.211, 9.521659
1035.693, 9.801482
1036.175, 9.916173
1036.657, 9.749661
1037.139, 9.657842
1037.621, 9.811340
1038.104, 10.00387
1038.586, 10.03111
1039.068, 9.938066
1039.550, 9.924900
1040.032, 10.07195
1040.514, 10.09992
1040.996, 9.859902
1041.478, 9.722778
1041.960, 9.969975
1042.443, 10.20928
1042.925, 10.01538
1043.407, 9.504306
1043.889, 9.166382
1044.371, 9.057737
1044.853, 8.994023
1045.335, 8.990094
1045.817, 9.006337
1046.300, 9.013705
1046.782, 9.050574
1047.264, 9.161627
1047.746, 9.331235
1048.228, 9.505941
1048.710, 9.699981
1049.192, 9.849470
1049.674, 10.02141
1050.156, 10.05275
1050.639, 9.776546
1051.121, 9.428105
1051.603, 9.146155
1052.085, 8.973708
1052.567, 9.040193
1053.049, 9.483596
1053.531, 9.748274
1054.013, 9.579726
1054.495, 9.403739
1054.978, 9.374296
1055.460, 9.425666
1055.942, 9.557415
1056.424, 9.707428
1056.906, 9.696867
1057.388, 9.436200
1057.870, 9.286885
1058.352, 9.419386
1058.835, 9.590557
1059.317, 9.786745
1059.799, 9.896607
1060.281, 9.711118
1060.763, 9.381060
1061.245, 9.310573
1061.727, 9.625863
1062.209, 9.893991
1062.692, 9.950165
1063.174, 9.952323
1063.656, 9.938396
1064.138, 9.932775
1064.620, 9.967745
1065.102, 10.02393
1065.584, 10.07709
1066.066, 10.12889
1066.548, 10.06433
1067.031, 9.675409
1067.513, 9.367782
1067.995, 9.343906
1068.477, 9.480294
1068.959, 9.786535
1069.441, 10.12261
1069.923, 10.19366
1070.405, 9.943862
1070.887, 9.803140
1071.370, 10.17497
1071.852, 10.40810
1072.334, 9.970828
1072.816, 9.458078
1073.298, 9.431200
1073.780, 9.698553
1074.262, 9.887172
1074.744, 9.915180
1075.227, 9.796210
1075.709, 9.389377
1076.191, 9.040957
1076.673, 8.910888
1077.155, 8.911052
1077.637, 8.942435
1078.119, 9.066777
1078.601, 9.542140
1079.083, 10.30566
1079.566, 10.64306
1080.048, 9.989201
1080.530, 9.391947
1081.012, 9.387836
1081.494, 9.593007
1081.976, 9.893922
1082.458, 10.11260
1082.940, 9.953939
1083.422, 9.465575
1083.905, 9.057430
1084.387, 8.843263
1084.869, 8.805317
1085.351, 9.149149
1085.833, 9.435163
1086.315, 9.285006
1086.797, 8.954737
1087.279, 8.682313
1087.761, 8.546546
1088.244, 8.694627
1088.726, 9.272723
1089.208, 9.705543
1089.690, 9.659939
1090.172, 9.504297
1090.654, 9.356304
1091.136, 9.289602
1091.618, 9.497662
1092.101, 9.825440
1092.583, 9.799838
1093.065, 9.245912
1093.547, 8.837011
1094.029, 9.016006
1094.511, 9.168085
1094.993, 8.812757
1095.475, 8.460243
1095.958, 8.690192
1096.440, 9.244296
1096.922, 9.535345
1097.404, 9.447010
1097.886, 9.316493
1098.368, 9.172903
1098.850, 9.116943
1099.332, 9.290364
1099.814, 9.459191
1100.297, 9.482920
1100.779, 9.371634
1101.261, 9.060208
1101.743, 8.581053
1102.225, 8.406805
1102.707, 8.984515
1103.189, 9.369144
1103.671, 9.132644
1104.153, 8.854336
1104.636, 8.873414
1105.118, 9.027362
1105.600, 9.128468
1106.082, 9.161425
1106.564, 9.145682
1107.046, 9.037234
1107.528, 8.985837
1108.010, 9.092769
1108.493, 9.167048
1108.975, 9.077625
1109.457, 8.966457
1109.939, 9.027613
1110.421, 9.176110
1110.903, 9.096683
1111.385, 8.632550
1111.867, 8.408219
1112.349, 8.749621
1112.832, 8.961567
1113.314, 8.696778
1113.796, 8.424870
1114.278, 8.503138
1114.760, 8.792389
1115.242, 9.036448
1115.724, 9.243879
1116.206, 9.314477
1116.688, 9.150752
1117.171, 9.008671
1117.653, 8.953813
1118.135, 8.870693
1118.617, 8.630792
1119.099, 8.392367
1119.581, 8.391649
1120.063, 8.610058
1120.545, 8.754575
1121.028, 8.808717
1121.510, 8.820136
1121.992, 8.742395
1122.474, 8.721484
1122.956, 8.842568
1123.438, 8.993067
1123.920, 9.079514
1124.402, 9.100009
1124.885, 9.042300
1125.367, 8.885714
1125.849, 8.742878
1126.331, 8.629049
1126.813, 8.456575
1127.295, 8.144923
1127.777, 7.951582
1128.259, 8.084044
1128.741, 8.407716
1129.224, 8.689331
1129.706, 8.925551
1130.188, 8.916325
1130.670, 8.613682
1131.152, 8.455523
1131.634, 8.512350
1132.116, 8.714894
1132.598, 9.065026
1133.080, 9.347790
1133.563, 9.267152
1134.045, 8.932041
1134.527, 8.798964
1135.009, 8.853435
1135.491, 8.791187
1135.973, 8.594190
1136.455, 8.475206
1136.937, 8.504867
1137.420, 8.596448
1137.902, 8.686167
1138.384, 8.754846
1138.866, 8.766467
1139.348, 8.724827
1139.830, 8.609208
1140.312, 8.448594
1140.794, 8.365894
1141.276, 8.393472
1141.759, 8.589538
1142.241, 8.991548
1142.723, 9.367918
1143.205, 9.423493
1143.687, 9.278410
1144.169, 9.054993
1144.651, 8.846223
1145.133, 8.966160
1145.615, 9.310218
1146.098, 9.380756
1146.580, 9.042634
1147.062, 8.712078
1147.544, 8.683529
1148.026, 8.826888
1148.508, 9.160738
1148.990, 9.462940
1149.472, 9.384403
1149.955, 9.081628
1150.437, 8.856531
1150.919, 8.758491
1151.401, 8.691764
1151.883, 8.612320
1152.365, 8.572192
1152.847, 8.658057
1153.329, 8.735190
1153.812, 8.644448
1154.294, 8.538321
1154.776, 8.633615
1155.258, 8.846298
1155.740, 8.946750
1156.222, 8.883733
1156.704, 8.784927
1157.186, 8.669643
1157.668, 8.560275
1158.151, 8.426401
1158.633, 8.341437
1159.115, 8.384556
1159.597, 8.482633
1160.079, 8.545483
1160.561, 8.569846
1161.043, 8.576144
1161.525, 8.477580
1162.007, 8.546951
1162.490, 9.108175
1162.972, 9.413510
1163.454, 9.016287
1163.936, 8.574668
1164.418, 8.644080
1164.900, 8.972760
1165.382, 8.961616
1165.864, 8.545702
1166.347, 8.525105
1166.829, 9.114376
1167.311, 9.447421
1167.793, 9.351032
1168.275, 9.168139
1168.757, 9.055560
1169.239, 8.931972
1169.721, 8.686427
1170.203, 8.366466
1170.686, 8.147276
1171.168, 8.024349
1171.650, 8.191684
1172.132, 8.667238
1172.614, 9.020651
1173.096, 9.136525
1173.578, 9.121764
1174.060, 9.043262
1174.542, 8.920422
1175.025, 8.768281
1175.507, 8.601281
1175.989, 8.468762
1176.471, 8.362922
1176.953, 8.182049
1177.435, 7.978871
1177.917, 8.143835
1178.399, 8.774451
1178.882, 9.295033
1179.364, 9.209295
1179.846, 8.876709
1180.328, 8.748566
1180.810, 8.647187
1181.292, 8.160439
1181.774, 7.569701
1182.256, 7.531694
1182.739, 7.997693
1183.221, 8.339809
1183.703, 8.295222
1184.185, 8.226171
1184.667, 8.330899
1185.149, 8.505646
1185.631, 8.813526
1186.113, 9.042692
1186.595, 8.895650
1187.078, 8.572738
1187.560, 8.442705
1188.042, 8.544551
1188.524, 8.679018
1189.006, 8.954403
1189.488, 8.991519
1189.970, 8.424291
1190.452, 7.994550
1190.934, 8.058290
1191.417, 8.321515
1191.899, 8.602284
1192.381, 8.854234
1192.863, 8.955128
1193.345, 8.886888
1193.827, 8.797460
1194.309, 8.680806
1194.791, 8.562804
1195.274, 8.455200
1195.756, 8.299893
1196.238, 8.021839
1196.720, 7.841553
1197.202, 8.037515
1197.684, 8.482379
1198.166, 8.758353
1198.648, 8.869259
1199.130, 8.923492
1199.613, 8.927686
1200.095, 8.940310
1200.577, 8.971049
1201.059, 8.927491
1201.541, 8.751571
1202.023, 8.606855
1202.505, 8.760585
1202.987, 9.010708
1203.469, 8.951333
1203.952, 8.692966
1204.434, 8.328150
1204.916, 8.004149
1205.398, 8.230513
1205.880, 8.980414
1206.362, 9.296306
1206.844, 8.530925
1207.326, 7.768061
1207.809, 7.909486
1208.291, 8.260571
1208.773, 8.243090
1209.255, 8.146667
1209.737, 8.412214
1210.219, 8.857232
1210.701, 8.958803
1211.183, 8.626421
1211.666, 8.407831
1212.148, 8.512451
1212.630, 8.611614
1213.112, 8.680456
1213.594, 8.688380
1214.076, 8.513383
1214.558, 8.377368
1215.040, 8.582596
1215.522, 8.938672
1216.005, 8.829670
1216.487, 8.130924
1216.969, 8.070733
1217.451, 8.930371
1217.933, 9.177447
1218.415, 8.416485
1218.897, 7.881206
1219.379, 8.169112
1219.861, 8.758691
1220.344, 9.138645
1220.826, 9.288522
1221.308, 9.027444
1221.790, 8.487478
1222.272, 8.427973
1222.754, 8.728753
1223.236, 8.614565
1223.718, 8.040796
1224.201, 7.744316
1224.683, 8.068512
1225.165, 8.454456
1225.647, 8.369817
1226.129, 8.130009
1226.611, 8.009199
1227.093, 7.999403
1227.575, 8.199002
1228.057, 8.445865
1228.540, 8.386113
1229.022, 8.077407
1229.504, 8.006596
1229.986, 8.389811
1230.468, 8.690537
1230.950, 8.741701
1231.432, 8.660823
1231.914, 8.410649
1232.396, 8.128758
1232.879, 7.808332
1233.361, 7.577410
1233.843, 7.656589
1234.325, 7.998200
1234.807, 8.224428
1235.289, 8.284801
1235.771, 8.406838
1236.253, 8.641521
1236.736, 8.746449
1237.218, 8.651310
1237.700, 8.455113
1238.182, 8.190450
1238.664, 8.018205
1239.146, 8.225655
1239.628, 8.633988
1240.110, 8.627908
1240.593, 8.301352
1241.075, 7.959339
1241.557, 7.686699
1242.039, 7.777596
1242.521, 8.226941
1243.003, 8.558218
1243.485, 8.503177
1243.967, 8.435753
1244.449, 8.797980
1244.932, 9.177173
1245.414, 9.188184
1245.896, 9.012165
1246.378, 8.810284
1246.860, 8.596831
1247.342, 8.307132
1247.824, 7.976902
1248.306, 7.842116
1248.788, 7.997681
1249.271, 8.233885
1249.753, 8.686280
1250.235, 8.966735
1250.717, 8.880863
1251.199, 8.718366
1251.681, 8.576667
1252.163, 8.536666
1252.645, 8.774355
1253.128, 9.196974
1253.610, 9.196930
1254.092, 8.725181
1254.574, 8.409534
1255.056, 8.271082
1255.538, 8.372318
1256.020, 8.715145
1256.502, 8.803537
1256.984, 8.350599
1257.467, 7.843466
1257.949, 7.842917
1258.431, 8.114191
1258.913, 8.286754
1259.395, 8.440061
1259.877, 8.893032
1260.359, 9.364478
1260.841, 9.058524
1261.323, 8.125870
1261.806, 7.691300
1262.288, 8.212421
1262.770, 8.607761
1263.252, 8.252786
1263.734, 7.864271
1264.216, 7.600999
1264.698, 7.538623
1265.180, 7.903241
1265.663, 8.354302
1266.145, 8.407265
1266.627, 8.212600
1267.109, 8.374454
1267.591, 9.051381
1268.073, 9.031834
1268.555, 8.059034
1269.037, 7.703287
1269.520, 8.282468
1270.002, 8.828694
1270.484, 8.923051
1270.966, 8.765551
1271.448, 8.512401
1271.930, 8.251647
1272.412, 8.137193
1272.894, 8.141466
1273.376, 8.268304
1273.859, 8.431144
1274.341, 8.437273
1274.823, 8.292583
1275.305, 8.069736
1275.787, 7.809325
1276.269, 7.630136
1276.751, 7.558232
1277.233, 7.656637
1277.715, 8.076963
1278.198, 8.526004
1278.680, 8.972499
1279.162, 9.252114
1279.644, 9.132524
1280.126, 8.777087
1280.608, 8.497268
1281.090, 8.293598
1281.572, 8.185113
1282.055, 8.212552
1282.537, 8.169833
1283.019, 8.023333
1283.501, 7.979592
1283.983, 8.103020
1284.465, 8.192788
1284.947, 8.120495
1285.429, 8.028616
1285.911, 8.073481
1286.394, 8.259759
##END=



