##NAMES=Diaboleite
##RRUFFID=R050372
##IDEAL CHEMISTRY=Cu^2+^Pb^2+^_2_Cl_2_(OH)_4_
##LOCALITY=Collins Vein, Mammoth mine, Tiger, Arizona
##OWNER=RRUFF
##SOURCE=Eugene Schlepp
##DESCRIPTION=Blue massive fragment
##STATUS=The identification of this mineral has been confirmed by X-ray diffraction and chemical analysis
##URL=rruff.info/R050372
##MEASURED CHEMISTRY=(Cu_0.91_Pb_0.09_)_Î£=1_Pb_2.00_Cl_2.00_(OH)_4_
92.35352, 31.00945
92.83563, 27.65727
93.31775, 26.22966
93.79987, 27.49426
94.28198, 30.78574
94.76410, 34.18756
95.24622, 37.20232
95.72833, 40.24171
96.21045, 44.15432
96.69257, 48.98570
97.17468, 54.23072
97.65680, 59.19975
98.13892, 63.93134
98.62103, 69.50426
99.10315, 76.22626
99.58527, 83.99942
100.0674, 91.72289
100.5495, 99.11674
101.0316, 106.9327
101.5137, 115.6536
101.9958, 125.0095
102.4780, 136.4484
102.9601, 150.7772
103.4422, 168.4793
103.9243, 185.8469
104.4064, 203.0503
104.8885, 219.9085
105.3707, 236.3953
105.8528, 251.7041
106.3349, 267.5758
106.8170, 284.5952
107.2991, 303.3983
107.7813, 322.0665
108.2634, 338.8844
108.7455, 355.4131
109.2276, 376.2007
109.7097, 404.5412
110.1918, 434.9860
110.6740, 465.3286
111.1561, 495.7240
111.6382, 525.7808
112.1203, 558.0836
112.6024, 591.5345
113.0845, 617.5269
113.5667, 632.4830
114.0488, 640.7279
114.5309, 645.3053
115.0130, 643.4496
115.4951, 641.0971
115.9772, 638.9348
116.4594, 637.0591
116.9415, 637.9998
117.4236, 642.6405
117.9057, 650.5930
118.3878, 661.3917
118.8699, 676.2526
119.3521, 693.0231
119.8342, 710.6465
120.3163, 729.0148
120.7984, 748.6644
121.2805, 769.4765
121.7626, 791.8193
122.2448, 816.3226
122.7269, 843.1984
123.2090, 872.4178
123.6911, 903.4403
124.1732, 935.7468
124.6553, 971.7964
125.1375, 1011.920
125.6196, 1057.141
126.1017, 1110.705
126.5838, 1174.528
127.0659, 1248.101
127.5480, 1330.215
128.0302, 1420.543
128.5123, 1520.729
128.9944, 1637.655
129.4765, 1769.800
129.9586, 1902.963
130.4407, 2037.934
130.9229, 2168.622
131.4050, 2274.233
131.8871, 2357.303
132.3692, 2404.656
132.8513, 2377.030
133.3334, 2268.216
133.8156, 2106.832
134.2977, 1915.883
134.7798, 1703.950
135.2619, 1504.443
135.7440, 1320.281
136.2261, 1155.177
136.7083, 1013.302
137.1904, 894.5787
137.6725, 795.5690
138.1546, 712.8263
138.6367, 646.7980
139.1188, 591.0733
139.6010, 544.0885
140.0831, 505.9193
140.5652, 473.0300
141.0473, 445.2314
141.5294, 422.1081
142.0115, 403.9557
142.4937, 391.9139
142.9758, 381.5352
143.4579, 371.3442
143.9400, 361.0743
144.4221, 352.3680
144.9042, 345.1466
145.3864, 339.4367
145.8685, 335.5883
146.3506, 334.7047
146.8327, 334.0877
147.3148, 332.8040
147.7969, 330.3370
148.2791, 328.3631
148.7612, 326.6026
149.2433, 325.3469
149.7254, 325.2818
150.2075, 326.9305
150.6896, 329.3058
151.1718, 332.0923
151.6539, 336.0795
152.1360, 339.3470
152.6181, 341.4702
153.1002, 342.7986
153.5823, 344.3613
154.0645, 346.8469
154.5466, 349.1527
155.0287, 350.7220
155.5108, 349.5601
155.9929, 350.0077
156.4750, 352.9461
156.9572, 358.0602
157.4393, 364.0812
157.9214, 371.6960
158.4035, 379.6044
158.8856, 387.0169
159.3677, 393.0984
159.8499, 399.3636
160.3320, 405.8775
160.8141, 412.7248
161.2962, 420.5453
161.7783, 431.0862
162.2604, 441.9283
162.7426, 451.0768
163.2247, 454.7939
163.7068, 459.4561
164.1889, 468.5346
164.6710, 481.7033
165.1531, 495.1646
165.6353, 506.1890
166.1174, 516.8019
166.5995, 529.1832
167.0816, 544.3552
167.5637, 561.3405
168.0458, 579.7426
168.5280, 599.3831
169.0101, 620.2120
169.4922, 640.6459
169.9743, 662.3104
170.4564, 687.3846
170.9385, 718.9393
171.4207, 752.9608
171.9028, 786.4841
172.3849, 819.2616
172.8670, 851.0941
173.3491, 884.1431
173.8312, 916.3348
174.3134, 943.7912
174.7955, 967.4784
175.2776, 984.1097
175.7597, 990.0674
176.2418, 985.2153
176.7239, 969.2786
177.2061, 938.2690
177.6882, 895.1763
178.1703, 848.8505
178.6524, 801.4988
179.1345, 753.6061
179.6166, 706.0123
180.0988, 657.9072
180.5809, 612.0951
181.0630, 571.5321
181.5451, 535.5535
182.0272, 503.2641
182.5093, 473.9189
182.9915, 447.5121
183.4736, 424.6007
183.9557, 405.0699
184.4378, 388.7218
184.9199, 375.8873
185.4020, 366.4017
185.8842, 357.4265
186.3663, 347.2888
186.8484, 336.4061
187.3305, 326.5547
187.8126, 317.6656
188.2947, 310.0803
188.7769, 304.8582
189.2590, 301.8940
189.7411, 299.0145
190.2232, 294.6571
190.7053, 289.1377
191.1874, 284.3938
191.6696, 280.5922
192.1517, 277.5000
192.6338, 274.5775
193.1159, 271.8061
193.5980, 269.6643
194.0801, 269.1520
194.5623, 270.0594
195.0444, 268.8704
195.5265, 264.5256
196.0086, 259.0053
196.4907, 256.9096
196.9728, 258.6072
197.4550, 260.6043
197.9371, 260.6336
198.4192, 258.6591
198.9013, 257.0350
199.3834, 255.9753
199.8655, 255.3665
200.3477, 254.8272
200.8298, 254.2590
201.3119, 254.2341
201.7940, 255.5117
202.2761, 258.3055
202.7582, 259.9095
203.2404, 259.7859
203.7225, 258.5581
204.2046, 257.9885
204.6867, 258.2528
205.1688, 258.5779
205.6509, 258.4222
206.1331, 257.6834
206.6152, 257.1161
207.0973, 256.7276
207.5794, 256.5792
208.0615, 256.9298
208.5436, 257.9134
209.0257, 259.0452
209.5079, 259.9848
209.9900, 260.6397
210.4721, 261.4967
210.9542, 262.5607
211.4363, 263.8605
211.9184, 265.5906
212.4006, 267.9704
212.8827, 270.3156
213.3648, 272.0952
213.8469, 273.1263
214.3290, 274.3377
214.8111, 275.8414
215.2933, 277.5572
215.7754, 279.2228
216.2575, 280.7184
216.7396, 282.3919
217.2217, 284.4705
217.7038, 287.0664
218.1860, 289.7199
218.6681, 292.4669
219.1502, 295.2252
219.6323, 297.5670
220.1144, 299.1296
220.5965, 300.8675
221.0787, 303.4359
221.5608, 307.3421
222.0429, 310.6551
222.5250, 313.0137
223.0071, 314.7245
223.4892, 316.8835
223.9714, 319.9147
224.4535, 322.7652
224.9356, 324.7670
225.4177, 325.2625
225.8998, 326.5526
226.3819, 329.2145
226.8641, 332.7000
227.3462, 334.9513
227.8283, 335.3772
228.3104, 335.4672
228.7925, 336.1208
229.2746, 338.2060
229.7568, 338.8266
230.2389, 337.4348
230.7210, 334.5866
231.2031, 332.1058
231.6852, 330.2803
232.1673, 328.3968
232.6495, 326.1133
233.1316, 323.2815
233.6137, 320.3949
234.0958, 317.5866
234.5779, 314.7386
235.0600, 311.5605
235.5422, 307.9616
236.0243, 304.1127
236.5064, 300.0607
236.9885, 295.7333
237.4706, 291.3586
237.9527, 286.9450
238.4349, 282.5345
238.9170, 278.2726
239.3991, 274.1499
239.8812, 270.1916
240.3633, 266.5465
240.8454, 263.7971
241.3276, 259.9082
241.8097, 254.7086
242.2918, 248.4846
242.7739, 241.7679
243.2560, 233.9551
243.7381, 226.5827
244.2203, 220.2647
244.7024, 215.2736
245.1845, 210.5939
245.6666, 206.3146
246.1487, 202.3147
246.6308, 198.2683
247.1130, 194.0972
247.5951, 189.9898
248.0772, 186.0569
248.5593, 182.3091
249.0414, 178.6113
249.5235, 174.9212
250.0057, 171.3116
250.4878, 167.8560
250.9699, 164.6563
251.4520, 161.3970
251.9341, 157.8227
252.4162, 153.6126
252.8984, 150.6836
253.3805, 149.7107
253.8626, 149.4877
254.3447, 148.1927
254.8268, 145.1939
255.3089, 142.3802
255.7911, 140.3737
256.2732, 139.2747
256.7553, 138.0100
257.2374, 136.3907
257.7195, 134.7878
258.2017, 133.7897
258.6838, 133.9130
259.1659, 133.3966
259.6480, 131.4063
260.1301, 127.8484
260.6122, 125.9196
261.0944, 126.3006
261.5765, 127.4672
262.0586, 127.8352
262.5407, 127.2373
263.0228, 126.2675
263.5049, 124.8054
263.9871, 122.8947
264.4692, 122.1133
264.9513, 123.0101
265.4334, 124.1467
265.9155, 124.0015
266.3976, 121.9964
266.8798, 120.7206
267.3619, 120.9061
267.8440, 122.3100
268.3261, 122.8641
268.8082, 122.2642
269.2903, 121.4539
269.7725, 121.1096
270.2546, 121.2183
270.7367, 121.8942
271.2188, 123.3173
271.7009, 125.2831
272.1830, 126.9852
272.6652, 128.3850
273.1473, 129.5893
273.6294, 130.6358
274.1115, 131.4872
274.5936, 132.3832
275.0757, 133.3165
275.5579, 134.3371
276.0400, 135.4980
276.5221, 136.7378
277.0042, 138.3613
277.4863, 140.7292
277.9684, 143.9187
278.4506, 146.6928
278.9327, 148.7862
279.4148, 150.6530
279.8969, 153.5082
280.3790, 157.5535
280.8611, 161.1757
281.3433, 162.9413
281.8254, 162.8872
282.3075, 164.8574
282.7896, 169.4141
283.2717, 175.0428
283.7538, 179.3332
284.2360, 182.2425
284.7181, 184.9688
285.2002, 188.1382
285.6823, 191.6582
286.1644, 194.4995
286.6465, 196.4397
287.1287, 198.4049
287.6108, 201.7572
288.0929, 206.4221
288.5750, 211.0447
289.0571, 214.9330
289.5392, 218.3884
290.0214, 222.8766
290.5035, 228.5512
290.9856, 233.8569
291.4677, 236.7403
291.9498, 237.5803
292.4319, 238.6471
292.9141, 240.7622
293.3962, 243.4918
293.8783, 245.8816
294.3604, 247.9199
294.8425, 249.7591
295.3246, 251.5859
295.8068, 253.3525
296.2889, 254.9503
296.7710, 256.6689
297.2531, 257.8637
297.7352, 257.0897
298.2173, 254.5303
298.6995, 251.6882
299.1816, 249.7226
299.6637, 248.2607
300.1458, 246.6225
300.6279, 244.7375
301.1100, 242.4784
301.5922, 239.9263
302.0743, 236.9560
302.5564, 233.0896
303.0385, 226.9632
303.5206, 220.0956
304.0027, 214.7740
304.4849, 211.6344
304.9670, 208.8279
305.4491, 204.6107
305.9312, 199.4003
306.4133, 194.1960
306.8954, 189.4472
307.3776, 184.9706
307.8597, 180.4991
308.3418, 175.9220
308.8239, 172.0097
309.3060, 170.1050
309.7881, 169.0936
310.2703, 167.2796
310.7524, 162.5841
311.2345, 157.8330
311.7166, 155.3752
312.1987, 155.1722
312.6808, 155.1069
313.1630, 153.7383
313.6451, 151.9651
314.1272, 150.7465
314.6093, 150.9894
315.0914, 151.3089
315.5735, 150.8999
316.0557, 149.9146
316.5378, 149.1653
317.0199, 148.9374
317.5020, 149.1119
317.9841, 149.6040
318.4662, 150.3633
318.9484, 151.4785
319.4305, 153.1663
319.9126, 155.2519
320.3947, 157.2756
320.8768, 159.2206
321.3589, 160.9833
321.8411, 162.3545
322.3232, 162.7750
322.8053, 164.0891
323.2874, 167.4333
323.7695, 171.7406
324.2516, 175.3215
324.7338, 176.6898
325.2159, 178.4229
325.6980, 181.5024
326.1801, 186.3669
326.6622, 190.8391
327.1443, 194.4358
327.6265, 197.7453
328.1086, 201.3696
328.5907, 205.1341
329.0728, 209.3842
329.5549, 214.3959
330.0370, 220.2023
330.5192, 225.5639
331.0013, 229.9456
331.4834, 234.3758
331.9655, 239.6003
332.4476, 245.8011
332.9297, 252.5456
333.4118, 259.9830
333.8940, 267.9328
334.3761, 275.5279
334.8582, 282.5345
335.3403, 289.2911
335.8224, 295.7157
336.3045, 301.2414
336.7867, 308.2924
337.2688, 317.4801
337.7509, 327.8218
338.2330, 337.6221
338.7151, 346.7716
339.1972, 355.4875
339.6794, 363.6493
340.1615, 371.1115
340.6436, 379.8635
341.1257, 390.1168
341.6078, 401.0124
342.0899, 411.4870
342.5721, 421.3263
343.0542, 431.3072
343.5363, 441.4492
344.0184, 451.8166
344.5005, 463.2148
344.9826, 475.6875
345.4648, 488.2135
345.9469, 499.6935
346.4290, 510.3427
346.9111, 520.4138
347.3932, 529.5536
347.8753, 538.8107
348.3575, 550.7052
348.8396, 564.9188
349.3217, 578.5660
349.8038, 588.7049
350.2859, 596.7419
350.7680, 606.3926
351.2502, 618.4423
351.7323, 630.7391
352.2144, 640.4723
352.6965, 648.3911
353.1786, 656.4762
353.6607, 667.0443
354.1429, 677.7484
354.6250, 685.4202
355.1071, 689.8813
355.5892, 693.2203
356.0713, 696.6136
356.5534, 700.0311
357.0356, 703.4280
357.5177, 707.0870
357.9998, 710.4962
358.4819, 713.2144
358.9640, 715.2972
359.4461, 716.9668
359.9283, 718.2423
360.4104, 719.1994
360.8925, 720.0057
361.3746, 721.2784
361.8567, 721.3762
362.3388, 719.2154
362.8210, 715.3734
363.3031, 711.1279
363.7852, 706.4146
364.2673, 701.7548
364.7494, 697.6937
365.2315, 694.8275
365.7137, 690.5343
366.1958, 683.5856
366.6779, 675.2435
367.1600, 666.9277
367.6421, 658.7220
368.1242, 650.6405
368.6064, 642.9791
369.0885, 635.7645
369.5706, 627.5801
370.0527, 617.6259
370.5348, 607.2866
371.0169, 597.3231
371.4991, 588.0763
371.9812, 578.8140
372.4633, 569.4221
372.9454, 559.9511
373.4275, 550.8116
373.9096, 542.1088
374.3918, 533.3797
374.8739, 524.6671
375.3560, 515.9918
375.8381, 506.6873
376.3202, 496.4901
376.8023, 486.1385
377.2845, 477.0168
377.7666, 469.5011
378.2487, 461.5025
378.7308, 452.3852
379.2129, 442.2216
379.6950, 432.2761
380.1772, 422.4381
380.6593, 412.9435
381.1414, 404.0031
381.6235, 395.6244
382.1056, 387.0528
382.5877, 378.0456
383.0699, 369.0069
383.5520, 360.7174
384.0341, 353.0815
384.5162, 345.8917
384.9983, 339.1060
385.4804, 332.5871
385.9626, 325.8547
386.4447, 318.7679
386.9268, 311.9703
387.4089, 306.7130
387.8910, 302.2404
388.3731, 296.9750
388.8553, 288.9942
389.3374, 280.6429
389.8195, 274.6717
390.3016, 271.0237
390.7837, 267.0685
391.2658, 260.4223
391.7480, 253.0046
392.2301, 246.8592
392.7122, 243.2948
393.1943, 240.0766
393.6764, 236.2072
394.1585, 231.8773
394.6407, 227.7039
395.1228, 223.7762
395.6049, 220.1305
396.0870, 216.9144
396.5691, 214.4962
397.0512, 211.4149
397.5334, 206.4218
398.0155, 200.9093
398.4976, 196.6833
398.9797, 195.2346
399.4618, 193.6360
399.9439, 191.3005
400.4261, 188.2302
400.9082, 185.1328
401.3903, 181.7496
401.8724, 178.5794
402.3545, 175.9886
402.8366, 174.3976
403.3188, 172.5033
403.8009, 170.0920
404.2830, 167.3980
404.7651, 165.0268
405.2472, 163.0931
405.7293, 161.2215
406.2115, 159.2232
406.6936, 157.1067
407.1757, 155.2055
407.6578, 153.5434
408.1399, 152.0240
408.6220, 150.4657
409.1042, 148.8746
409.5863, 147.5771
410.0684, 146.8623
410.5505, 146.3386
411.0326, 144.8387
411.5147, 142.3885
411.9969, 140.0115
412.4790, 138.3543
412.9611, 137.2948
413.4432, 136.7244
413.9253, 136.7804
414.4074, 136.7009
414.8896, 135.1790
415.3717, 132.8586
415.8538, 131.2683
416.3359, 131.9484
416.8180, 133.1757
417.3001, 133.3903
417.7823, 132.5773
418.2644, 131.5030
418.7465, 130.1163
419.2286, 128.8946
419.7107, 128.3367
420.1928, 128.9548
420.6750, 129.7215
421.1571, 130.2529
421.6392, 130.6376
422.1213, 131.0928
422.6034, 131.3147
423.0855, 131.9245
423.5677, 133.3548
424.0498, 135.9943
424.5319, 138.1337
425.0140, 139.3377
425.4961, 140.1466
425.9782, 141.1147
426.4604, 142.4814
426.9425, 143.6456
427.4246, 144.3392
427.9067, 144.6997
428.3888, 145.6644
428.8709, 147.4183
429.3531, 149.4424
429.8352, 151.4152
430.3173, 153.1911
430.7994, 155.5888
431.2815, 158.7815
431.7636, 162.3441
432.2458, 165.5400
432.7279, 168.3486
433.2100, 171.1066
433.6921, 173.9462
434.1742, 176.8320
434.6563, 179.5228
435.1385, 182.0450
435.6206, 184.5807
436.1027, 187.4735
436.5848, 190.5158
437.0669, 193.2143
437.5490, 195.5945
438.0312, 197.3227
438.5133, 198.0061
438.9954, 197.7544
439.4775, 196.8654
439.9596, 195.5047
440.4417, 193.5746
440.9239, 190.7879
441.4060, 187.1300
441.8881, 183.4289
442.3702, 180.4381
442.8523, 177.5483
443.3344, 174.1366
443.8166, 169.5139
444.2987, 164.9615
444.7808, 160.2667
445.2629, 155.8575
445.7450, 152.9700
446.2271, 153.4293
446.7093, 154.1506
447.1914, 153.8129
447.6735, 151.7503
448.1556, 150.6938
448.6377, 151.0215
449.1198, 152.1064
449.6020, 153.3379
450.0841, 154.5850
450.5662, 156.1980
451.0483, 158.2449
451.5304, 160.7074
452.0125, 163.4865
452.4947, 166.6883
452.9768, 169.9514
453.4589, 172.7734
453.9410, 175.1438
454.4231, 179.1210
454.9052, 185.0291
455.3874, 191.7895
455.8695, 198.0619
456.3516, 203.9891
456.8337, 210.4096
457.3158, 217.9097
457.7979, 225.8910
458.2801, 232.9524
458.7622, 239.2799
459.2443, 246.4821
459.7264, 256.4661
460.2085, 267.6144
460.6906, 277.6060
461.1728, 285.9274
461.6549, 293.8907
462.1370, 302.2737
462.6191, 310.8060
463.1012, 318.8979
463.5833, 326.5919
464.0655, 333.5771
464.5476, 339.9202
465.0297, 345.4970
465.5118, 349.5688
465.9939, 351.0820
466.4760, 351.5507
466.9582, 351.7963
467.4403, 352.2077
467.9224, 351.8161
468.4045, 350.9958
468.8866, 349.2245
469.3687, 345.6745
469.8509, 340.1114
470.3330, 333.3191
470.8151, 325.5490
471.2972, 316.7508
471.7793, 306.1626
472.2614, 293.2390
472.7436, 279.7325
473.2257, 266.7551
473.7078, 254.2613
474.1899, 241.8114
474.6720, 229.2049
475.1541, 216.8660
475.6363, 205.4366
476.1184, 194.8569
476.6005, 184.7587
477.0826, 175.0044
477.5647, 165.6530
478.0468, 156.2314
478.5290, 146.8773
479.0111, 138.8486
479.4932, 134.1039
479.9753, 130.7210
480.4574, 126.2828
480.9395, 119.9716
481.4217, 113.8338
481.9038, 109.0726
482.3859, 105.3819
482.8680, 102.3890
483.3501, 100.5729
483.8322, 98.84703
484.3144, 96.87523
484.7965, 94.66369
485.2786, 92.25974
485.7607, 89.38850
486.2428, 86.57561
486.7249, 84.03086
487.2071, 81.60545
487.6892, 79.86382
488.1713, 79.16186
488.6534, 78.89798
489.1355, 78.14597
489.6176, 76.68678
490.0998, 75.39018
490.5819, 74.53469
491.0640, 73.98696
491.5461, 73.03019
492.0282, 71.60583
492.5103, 70.17860
492.9925, 69.19380
493.4746, 68.51873
493.9567, 67.43938
494.4388, 65.80074
494.9209, 64.22633
495.4030, 63.61946
495.8852, 63.63241
496.3673, 63.35960
496.8494, 62.21537
497.3315, 60.88149
497.8136, 59.94851
498.2957, 59.36905
498.7779, 58.98995
499.2600, 58.77814
499.7421, 58.69740
500.2242, 58.85907
500.7063, 59.44442
501.1884, 59.49956
501.6706, 58.28565
502.1527, 56.60522
502.6348, 55.28612
503.1169, 54.57245
503.5990, 54.07238
504.0811, 53.97301
504.5633, 54.08474
505.0454, 53.62394
505.5275, 52.18389
506.0096, 50.88615
506.4917, 50.22163
506.9738, 50.23963
507.4560, 50.27712
507.9381, 50.40133
508.4202, 50.36377
508.9023, 49.75100
509.3844, 48.60995
509.8665, 47.75237
510.3487, 47.32415
510.8308, 47.25371
511.3129, 47.71554
511.7950, 48.54182
512.2772, 48.94743
512.7593, 48.14236
513.2414, 46.88907
513.7235, 45.99913
514.2056, 45.49714
514.6877, 45.36113
515.1699, 46.09075
515.6520, 46.91262
516.1341, 47.05943
516.6162, 46.01212
517.0983, 44.96836
517.5804, 44.19049
518.0626, 43.68670
518.5447, 43.47068
519.0268, 43.74817
519.5089, 44.10397
519.9910, 44.57043
520.4731, 45.11812
520.9553, 45.20881
521.4374, 44.62840
521.9195, 43.91172
522.4016, 43.30478
522.8837, 42.78459
523.3658, 42.56882
523.8480, 42.74682
524.3301, 43.04430
524.8122, 43.05031
525.2943, 42.78825
525.7764, 42.64291
526.2585, 42.77065
526.7407, 43.01371
527.2228, 43.12005
527.7049, 43.09303
528.1870, 42.95264
528.6691, 42.52983
529.1512, 42.09227
529.6334, 42.04211
530.1155, 42.42064
530.5976, 42.69971
531.0797, 42.53663
531.5618, 42.13119
532.0439, 41.67195
532.5261, 41.06555
533.0082, 40.60271
533.4903, 40.41834
533.9724, 40.41671
534.4545, 40.38660
534.9366, 40.08810
535.4188, 40.02105
535.9009, 40.39847
536.3830, 41.20548
536.8651, 41.79049
537.3472, 42.16570
537.8293, 42.29801
538.3115, 42.04139
538.7936, 41.34644
539.2757, 41.04357
539.7578, 41.27018
540.2399, 41.62176
540.7220, 41.43457
541.2042, 40.83110
541.6863, 40.53196
542.1684, 40.93903
542.6505, 41.54195
543.1326, 41.56732
543.6147, 41.13606
544.0969, 40.70781
544.5790, 40.41303
545.0611, 40.33307
545.5432, 40.69343
546.0253, 41.54093
546.5074, 42.10643
546.9896, 41.79419
547.4717, 41.21203
547.9538, 40.85280
548.4359, 41.02204
548.9180, 41.11248
549.4001, 41.00256
549.8823, 40.80894
550.3644, 40.72844
550.8465, 40.79380
551.3286, 40.91863
551.8107, 41.12904
552.2928, 41.39336
552.7750, 41.43729
553.2571, 41.21860
553.7392, 40.99064
554.2213, 41.01475
554.7034, 41.20787
555.1855, 40.99146
555.6677, 40.28275
556.1498, 39.57688
556.6319, 39.34480
557.1140, 39.51070
557.5961, 39.97393
558.0782, 40.90805
558.5604, 41.78848
559.0425, 42.13377
559.5246, 42.09876
560.0067, 42.02232
560.4888, 41.94192
560.9709, 41.94230
561.4531, 42.08955
561.9352, 42.38450
562.4173, 42.67379
562.8994, 43.03446
563.3815, 43.30328
563.8636, 43.38803
564.3458, 43.21272
564.8279, 43.03754
565.3100, 42.79757
565.7921, 42.63733
566.2742, 42.81087
566.7563, 43.36637
567.2385, 43.79417
567.7206, 43.98025
568.2027, 43.98145
568.6848, 43.85786
569.1669, 43.62701
569.6490, 43.43281
570.1312, 43.35402
570.6133, 43.35527
571.0954, 43.36018
571.5775, 43.37491
572.0596, 43.50908
572.5417, 43.97532
573.0239, 44.50997
573.5060, 44.88291
573.9881, 45.04382
574.4702, 45.08012
574.9523, 44.85567
575.4344, 44.58089
575.9166, 44.52583
576.3987, 44.94121
576.8808, 45.26095
577.3629, 45.36264
577.8450, 45.33410
578.3271, 45.51542
578.8092, 46.03355
579.2913, 46.37336
579.7734, 46.20897
580.2556, 45.63853
580.7377, 45.45017
581.2198, 45.67053
581.7019, 45.99458
582.1840, 46.17001
582.6661, 46.25581
583.1483, 46.45134
583.6304, 46.82404
584.1125, 47.05695
584.5946, 46.60737
585.0767, 45.90666
585.5588, 45.59327
586.0410, 46.29840
586.5231, 46.96957
587.0052, 47.11144
587.4873, 46.88135
587.9694, 46.69920
588.4515, 46.61574
588.9337, 46.62209
589.4158, 46.68910
589.8979, 46.81611
590.3800, 47.17803
590.8621, 47.93960
591.3442, 48.64605
591.8264, 49.02343
592.3085, 49.06763
592.7906, 48.73171
593.2727, 47.85463
593.7548, 47.17360
594.2369, 48.00001
594.7191, 49.85350
595.2012, 50.79130
595.6833, 50.05479
596.1654, 48.80024
596.6475, 48.15609
597.1296, 47.98293
597.6118, 47.94139
598.0939, 47.79832
598.5760, 47.81858
599.0581, 48.40253
599.5402, 49.43032
600.0223, 49.91364
600.5045, 48.77688
600.9866, 47.79581
601.4687, 47.88868
601.9508, 49.42170
602.4329, 50.43587
602.9150, 50.85113
603.3972, 50.84605
603.8793, 50.39288
604.3614, 49.39473
604.8435, 49.00798
605.3256, 49.47782
605.8077, 50.34730
606.2899, 50.90866
606.7720, 51.23161
607.2541, 51.64938
607.7362, 52.53795
608.2183, 53.31853
608.7004, 52.95233
609.1826, 51.80393
609.6647, 51.15197
610.1468, 52.02282
610.6289, 53.28065
611.1110, 54.34801
611.5931, 55.20164
612.0753, 55.71329
612.5574, 55.33435
613.0395, 55.02584
613.5216, 55.40920
614.0037, 57.03112
614.4858, 57.92110
614.9680, 57.89193
615.4501, 57.38396
615.9322, 56.68491
616.4143, 55.74341
616.8964, 55.67378
617.3785, 56.91239
617.8607, 58.69479
618.3428, 59.86812
618.8249, 60.46640
619.3070, 60.62923
619.7891, 59.90389
620.2712, 59.14394
620.7534, 59.37786
621.2355, 60.40675
621.7176, 61.29876
622.1997, 61.44737
622.6818, 61.45810
623.1639, 61.68214
623.6461, 62.18399
624.1282, 62.65611
624.6103, 62.96537
625.0924, 63.32425
625.5745, 63.85521
626.0566, 64.56534
626.5388, 65.50494
627.0209, 66.81380
627.5030, 68.09830
627.9851, 68.67233
628.4672, 68.57549
628.9493, 68.74879
629.4315, 69.47295
629.9136, 70.46047
630.3957, 71.35000
630.8778, 72.13923
631.3599, 72.80885
631.8420, 73.16753
632.3242, 73.55159
632.8063, 74.27773
633.2884, 75.28154
633.7705, 76.22459
634.2526, 76.69836
634.7347, 77.33313
635.2169, 78.61657
635.6990, 80.76772
636.1811, 82.18275
636.6632, 82.43068
637.1453, 82.48866
637.6274, 83.03041
638.1096, 84.11077
638.5917, 85.35948
639.0738, 86.81153
639.5559, 88.30217
640.0380, 89.65520
640.5201, 90.89076
641.0023, 92.07698
641.4844, 93.27952
641.9665, 94.37155
642.4486, 95.00233
642.9307, 95.45763
643.4128, 96.34444
643.8950, 97.98705
644.3771, 100.0636
644.8592, 102.8486
645.3413, 106.0878
645.8234, 108.6111
646.3055, 109.4303
646.7877, 110.2856
647.2698, 111.7985
647.7519, 114.0186
648.2340, 115.6892
648.7161, 116.5694
649.1982, 117.5475
649.6804, 119.4276
650.1625, 122.0844
650.6446, 124.1603
651.1267, 125.4774
651.6088, 127.0215
652.0909, 130.3313
652.5731, 134.4336
653.0552, 137.5366
653.5373, 138.7914
654.0194, 139.9433
654.5015, 142.2847
654.9836, 145.1899
655.4658, 147.7519
655.9479, 149.2395
656.4300, 150.9331
656.9121, 153.3154
657.3942, 156.0971
657.8763, 158.4711
658.3585, 160.3328
658.8406, 162.0349
659.3227, 163.5350
659.8048, 164.9738
660.2869, 167.0792
660.7690, 169.8645
661.2512, 172.8869
661.7333, 176.1356
662.2154, 179.3104
662.6975, 181.6488
663.1796, 183.1471
663.6617, 184.6298
664.1439, 186.9437
664.6260, 189.3322
665.1081, 191.0144
665.5902, 191.5531
666.0723, 192.4278
666.5544, 194.2076
667.0366, 196.3717
667.5187, 198.5373
668.0008, 201.4078
668.4829, 202.6830
668.9650, 201.5964
669.4471, 199.6148
669.9293, 199.1407
670.4114, 200.1915
670.8935, 201.2555
671.3756, 202.0177
671.8577, 202.4536
672.3398, 202.3065
672.8220, 201.7594
673.3041, 201.4439
673.7862, 201.9713
674.2683, 202.5863
674.7504, 202.8636
675.2325, 202.7816
675.7147, 202.3002
676.1968, 201.0376
676.6789, 199.7040
677.1610, 198.7904
677.6431, 198.3495
678.1252, 196.9930
678.6074, 194.2494
679.0895, 191.4930
679.5716, 189.6965
680.0537, 188.8461
680.5358, 187.8964
681.0179, 186.8496
681.5001, 185.5760
681.9822, 183.7672
682.4643, 181.6774
682.9464, 179.9473
683.4285, 178.7921
683.9106, 177.5063
684.3928, 175.7028
684.8749, 173.4209
685.3570, 170.6906
685.8391, 166.7888
686.3212, 163.3131
686.8033, 160.6008
687.2855, 158.4070
687.7676, 156.3967
688.2497, 154.6132
688.7318, 152.8649
689.2139, 151.1618
689.6960, 149.4109
690.1782, 147.2242
690.6603, 144.6433
691.1424, 142.4756
691.6245, 141.2589
692.1066, 140.5429
692.5887, 139.8737
693.0709, 139.1630
693.5530, 138.0053
694.0351, 135.5781
694.5172, 133.1331
694.9993, 131.6902
695.4814, 131.3426
695.9636, 130.2878
696.4457, 127.4501
696.9278, 124.6352
697.4099, 122.7375
697.8920, 121.9410
698.3741, 120.8418
698.8563, 119.4262
699.3384, 117.7498
699.8205, 115.5578
700.3026, 113.0858
700.7847, 111.4191
701.2668, 110.7251
701.7490, 110.4311
702.2311, 110.3002
702.7132, 110.1211
703.1953, 109.5434
703.6774, 108.2018
704.1595, 107.0404
704.6417, 106.6791
705.1238, 106.6093
705.6059, 106.1166
706.0880, 104.8667
706.5701, 103.6736
707.0522, 102.5671
707.5344, 101.5857
708.0165, 100.7710
708.4986, 100.1100
708.9807, 99.87923
709.4628, 100.3434
709.9449, 101.0610
710.4271, 101.2145
710.9092, 100.8959
711.3913, 100.4506
711.8734, 100.0060
712.3555, 99.54760
712.8376, 98.85203
713.3198, 98.05589
713.8019, 97.82919
714.2840, 99.18938
714.7661, 100.3027
715.2482, 100.2627
715.7303, 99.13245
716.2125, 98.91484
716.6946, 99.90819
717.1767, 100.9922
717.6588, 101.4437
718.1409, 101.3718
718.6230, 101.6447
719.1052, 102.2756
719.5873, 102.8440
720.0694, 102.9668
720.5515, 102.8615
721.0336, 102.6919
721.5157, 102.4329
721.9979, 102.5973
722.4800, 103.9221
722.9621, 105.4548
723.4442, 106.3956
723.9263, 106.2421
724.4084, 106.4386
724.8906, 107.1463
725.3727, 108.0173
725.8548, 108.6864
726.3369, 109.1400
726.8190, 109.6471
727.3011, 110.2027
727.7833, 110.9184
728.2654, 112.0534
728.7475, 113.4450
729.2296, 114.7408
729.7117, 115.9365
730.1938, 116.8067
730.6760, 116.9366
731.1581, 116.6971
731.6402, 116.6627
732.1223, 116.5575
732.6044, 117.2340
733.0865, 119.4266
733.5687, 122.2129
734.0508, 123.4851
734.5329, 122.8011
735.0150, 122.4913
735.4971, 123.2969
735.9792, 124.7001
736.4614, 125.4348
736.9435, 125.6558
737.4256, 126.1593
737.9077, 127.4522
738.3898, 129.1242
738.8719, 131.0084
739.3541, 132.9879
739.8362, 134.6261
740.3183, 135.2975
740.8004, 136.0623
741.2825, 137.3271
741.7646, 139.0586
742.2468, 141.0932
742.7289, 143.7409
743.2110, 145.8717
743.6931, 146.6487
744.1752, 146.4211
744.6573, 147.3108
745.1395, 149.2840
745.6216, 151.4197
746.1037, 152.9317
746.5858, 154.3034
747.0679, 156.2140
747.5500, 158.6740
748.0322, 160.9395
748.5143, 162.3884
748.9964, 163.7611
749.4785, 165.5565
749.9606, 167.9265
750.4427, 170.1514
750.9249, 172.2085
751.4070, 174.2155
751.8891, 176.0257
752.3712, 177.6717
752.8533, 180.3889
753.3354, 184.3178
753.8176, 188.5131
754.2997, 192.5686
754.7818, 196.1354
755.2639, 198.3414
755.7460, 198.7217
756.2281, 199.8114
756.7103, 203.6461
757.1924, 208.3577
757.6745, 212.2479
758.1566, 214.2147
758.6387, 217.2069
759.1208, 221.7424
759.6030, 226.7199
760.0851, 230.7646
760.5672, 233.8448
761.0493, 238.1966
761.5314, 244.2906
762.0135, 250.7293
762.4957, 255.8631
762.9778, 260.1124
763.4599, 264.2632
763.9420, 268.2964
764.4241, 272.7297
764.9063, 278.2172
765.3884, 284.1161
765.8705, 289.6321
766.3526, 294.1797
766.8347, 299.0239
767.3168, 304.3257
767.7990, 309.9106
768.2811, 315.6241
768.7632, 321.4819
769.2453, 326.9953
769.7274, 331.6865
770.2095, 336.8055
770.6917, 345.1173
771.1738, 355.0827
771.6559, 363.3867
772.1380, 367.8889
772.6201, 371.6847
773.1022, 376.0112
773.5844, 380.7823
774.0665, 385.8382
774.5486, 391.5675
775.0307, 396.9830
775.5128, 401.9184
775.9949, 406.5269
776.4771, 411.0097
776.9592, 415.4006
777.4413, 419.9088
777.9234, 424.8770
778.4055, 429.6200
778.8876, 432.9393
779.3698, 435.1747
779.8519, 437.2053
780.3340, 439.4499
780.8161, 441.5235
781.2982, 443.5151
781.7803, 445.2108
782.2625, 445.9532
782.7446, 444.9240
783.2267, 444.3740
783.7088, 445.3342
784.1909, 446.7322
784.6730, 444.9557
785.1552, 440.0329
785.6373, 435.6928
786.1194, 433.7359
786.6015, 432.8195
787.0836, 431.6099
787.5657, 429.8992
788.0479, 427.0856
788.5300, 422.5164
789.0121, 417.2259
789.4942, 411.7239
789.9763, 405.8885
790.4584, 399.2213
790.9406, 391.0891
791.4227, 383.4935
791.9048, 377.1735
792.3869, 371.7302
792.8690, 366.0470
793.3511, 360.0720
793.8333, 353.7190
794.3154, 346.9800
794.7975, 339.8029
795.2796, 332.0635
795.7617, 323.8283
796.2438, 315.6956
796.7260, 307.5517
797.2081, 299.8196
797.6902, 292.9399
798.1723, 286.7204
798.6544, 280.3137
799.1365, 273.6898
799.6187, 267.0341
800.1008, 260.3342
800.5829, 253.6881
801.0650, 247.4238
801.5471, 241.5301
802.0292, 235.7401
802.5114, 229.8875
802.9935, 224.1427
803.4756, 218.6635
803.9577, 213.4507
804.4398, 208.6059
804.9219, 204.3882
805.4041, 200.2289
805.8862, 196.0132
806.3683, 191.7166
806.8504, 187.1008
807.3325, 181.9877
807.8146, 177.3821
808.2968, 173.7357
808.7789, 170.7217
809.2610, 167.7128
809.7431, 164.7094
810.2252, 161.7108
810.7073, 158.9781
811.1895, 156.0102
811.6716, 152.1638
812.1537, 147.7422
812.6358, 143.8688
813.1179, 140.9336
813.6000, 138.2722
814.0822, 135.8792
814.5643, 133.6059
815.0464, 130.7573
815.5285, 127.3223
816.0106, 124.4885
816.4927, 123.1036
816.9749, 122.2234
817.4570, 120.4467
817.9391, 117.9891
818.4212, 115.4169
818.9033, 112.3187
819.3854, 109.8835
819.8676, 109.3248
820.3497, 109.8853
820.8318, 108.9142
821.3139, 105.4864
821.7960, 102.7558
822.2781, 101.6607
822.7603, 101.5850
823.2424, 101.2190
823.7245, 100.5223
824.2066, 99.21455
824.6887, 96.60910
825.1708, 94.04854
825.6530, 93.03986
826.1351, 92.96801
826.6172, 92.49498
827.0993, 90.64487
827.5814, 89.06223
828.0635, 88.15677
828.5457, 87.66429
829.0278, 87.05325
829.5099, 86.33482
829.9920, 85.41950
830.4741, 84.23094
830.9562, 82.94710
831.4384, 81.73407
831.9205, 80.64678
832.4026, 79.83326
832.8847, 79.58018
833.3668, 79.26103
833.8489, 78.48037
834.3311, 77.44072
834.8132, 76.48927
835.2953, 75.71230
835.7774, 74.87804
836.2595, 73.88376
836.7416, 72.93356
837.2238, 72.37779
837.7059, 72.18505
838.1880, 72.19387
838.6701, 72.48302
839.1522, 72.59306
839.6343, 71.90282
840.1165, 70.78648
840.5986, 69.78547
841.0807, 69.12291
841.5628, 68.45414
842.0449, 67.52188
842.5270, 66.69125
843.0092, 66.42987
843.4913, 66.89622
843.9734, 67.01078
844.4555, 66.63322
844.9376, 66.06275
845.4197, 65.71382
845.9019, 65.42757
846.3840, 64.77560
846.8661, 63.56749
847.3482, 62.53706
847.8303, 62.17521
848.3124, 62.13317
848.7946, 62.11810
849.2767, 62.13140
849.7588, 62.10732
850.2409, 62.08712
850.7230, 61.95074
851.2051, 61.55712
851.6873, 60.94022
852.1694, 60.14082
852.6515, 59.13358
853.1336, 58.59817
853.6157, 59.74279
854.0978, 61.20930
854.5800, 61.56270
855.0621, 60.49036
855.5442, 59.59313
856.0263, 59.12876
856.5084, 59.00306
856.9905, 59.34876
857.4727, 60.16710
857.9548, 60.28878
858.4369, 59.67598
858.9190, 58.77242
859.4011, 57.53341
859.8832, 56.36285
860.3654, 56.06356
860.8475, 56.55650
861.3296, 57.02056
861.8117, 57.26859
862.2938, 57.22067
862.7759, 56.60300
863.2581, 55.55086
863.7402, 55.09126
864.2223, 55.40459
864.7044, 55.71897
865.1865, 55.77030
865.6686, 55.56199
866.1508, 54.98748
866.6329, 54.12317
867.1150, 53.32247
867.5971, 52.78691
868.0792, 52.35274
868.5613, 51.85919
869.0435, 51.38200
869.5256, 51.20626
870.0077, 51.60580
870.4898, 51.81957
870.9719, 51.66626
871.4540, 51.29316
871.9362, 51.04500
872.4183, 50.89441
872.9004, 50.57516
873.3825, 49.84940
873.8646, 49.25960
874.3467, 49.66674
874.8289, 50.45684
875.3110, 50.69410
875.7931, 49.37830
876.2752, 48.51223
876.7573, 48.53309
877.2394, 48.81455
877.7216, 48.47297
878.2037, 47.44109
878.6858, 47.15940
879.1679, 47.93575
879.6500, 48.76885
880.1321, 48.55201
880.6143, 47.70327
881.0964, 46.71132
881.5785, 45.54112
882.0606, 44.83242
882.5427, 45.18673
883.0248, 45.79794
883.5070, 46.13824
883.9891, 46.19828
884.4712, 46.03036
884.9533, 45.60998
885.4354, 45.09333
885.9175, 44.38746
886.3997, 43.74010
886.8818, 43.92282
887.3639, 44.86478
887.8460, 45.39516
888.3281, 44.29177
888.8102, 43.12228
889.2924, 42.87115
889.7745, 43.48555
890.2566, 43.85236
890.7387, 44.00722
891.2208, 43.76546
891.7029, 42.83207
892.1851, 41.59459
892.6672, 41.03137
893.1493, 41.06113
893.6314, 41.33651
894.1135, 41.90346
894.5956, 42.44220
895.0778, 43.00761
895.5599, 43.39285
896.0420, 42.97784
896.5241, 41.04513
897.0062, 39.83141
897.4883, 39.88447
897.9705, 40.56136
898.4526, 40.72553
898.9347, 40.47688
899.4168, 40.27666
899.8989, 40.24911
900.3810, 40.26774
900.8632, 40.23841
901.3453, 40.19448
901.8274, 40.18241
902.3095, 40.33348
902.7916, 40.29767
903.2737, 40.13763
903.7559, 39.68995
904.2380, 38.56436
904.7201, 36.88237
905.2022, 36.02474
905.6843, 36.09631
906.1664, 36.25850
906.6486, 35.59617
907.1307, 34.87563
907.6128, 34.95233
908.0949, 35.96374
908.5770, 36.55585
909.0591, 36.25851
909.5413, 35.91902
910.0234, 35.87547
910.5055, 36.08327
910.9876, 36.39530
911.4697, 36.78812
911.9518, 36.81362
912.4340, 35.79536
912.9161, 34.62309
913.3982, 34.25805
913.8803, 34.48559
914.3624, 34.71241
914.8445, 34.94539
915.3267, 34.92178
915.8088, 34.47990
916.2909, 33.85017
916.7730, 33.45850
917.2551, 33.30354
917.7372, 33.41354
918.2194, 33.90942
918.7015, 34.29620
919.1836, 33.89153
919.6657, 33.09719
920.1478, 32.44417
920.6299, 32.01247
921.1121, 31.84401
921.5942, 32.08149
922.0763, 32.40854
922.5584, 32.53802
923.0405, 32.45653
923.5226, 32.74197
924.0048, 33.44919
924.4869, 33.83105
924.9690, 32.78777
925.4511, 31.39606
925.9332, 31.06335
926.4153, 31.80807
926.8975, 32.18574
927.3796, 31.36324
927.8617, 30.58057
928.3438, 30.22848
928.8259, 30.24891
929.3080, 30.45180
929.7902, 30.83018
930.2723, 30.89056
930.7544, 30.18643
931.2365, 29.32599
931.7186, 29.02195
932.2007, 29.09825
932.6829, 29.19309
933.1650, 29.23097
933.6471, 29.23872
934.1292, 29.22944
934.6113, 29.18709
935.0934, 29.05430
935.5756, 28.83216
936.0577, 28.76000
936.5398, 28.89509
937.0219, 29.02270
937.5040, 28.94307
937.9861, 28.72971
938.4683, 28.43574
938.9504, 28.03594
939.4325, 27.74664
939.9146, 27.69370
940.3967, 27.64470
940.8788, 27.46126
941.3610, 27.15928
941.8431, 26.97351
942.3252, 26.89616
942.8073, 26.74680
943.2894, 26.22359
943.7715, 25.73085
944.2537, 25.72309
944.7358, 26.07886
945.2179, 26.32509
945.7000, 26.33376
946.1821, 26.24160
946.6642, 26.00344
947.1464, 25.73626
947.6285, 25.73630
948.1106, 25.96178
948.5927, 26.08984
949.0748, 26.02023
949.5569, 25.89687
950.0391, 25.78327
950.5212, 25.71906
951.0033, 25.77882
951.4854, 26.15535
951.9675, 26.18236
952.4496, 25.66724
952.9318, 25.12760
953.4139, 25.01288
953.8960, 25.23974
954.3781, 25.31279
954.8602, 25.23038
955.3423, 25.14367
955.8245, 25.12323
956.3066, 25.16065
956.7887, 25.33224
957.2708, 25.59150
957.7529, 25.60158
958.2350, 25.26810
958.7172, 24.88004
959.1993, 24.47354
959.6814, 24.10834
960.1635, 23.89651
960.6456, 23.83651
961.1277, 23.94912
961.6099, 24.33876
962.0920, 24.70303
962.5741, 24.95475
963.0562, 25.04183
963.5383, 24.86137
964.0204, 24.18592
964.5026, 23.98063
964.9847, 24.38084
965.4668, 24.79725
965.9489, 24.56461
966.4310, 23.99380
966.9131, 23.75975
967.3953, 23.88125
967.8774, 23.99039
968.3595, 23.77648
968.8416, 23.64000
969.3237, 23.92117
969.8058, 24.45728
970.2880, 24.41922
970.7701, 23.72609
971.2522, 23.14227
971.7343, 22.95960
972.2164, 22.94847
972.6985, 22.68823
973.1807, 22.36902
973.6628, 22.36462
974.1449, 22.99272
974.6270, 23.61668
975.1091, 24.34915
975.5912, 24.82496
976.0734, 24.52648
976.5555, 23.42907
977.0376, 22.95023
977.5197, 23.18514
978.0018, 23.60462
978.4839, 23.91664
978.9661, 24.10602
979.4482, 24.18136
979.9303, 24.13727
980.4124, 23.86232
980.8945, 23.06407
981.3766, 22.48720
981.8588, 22.42404
982.3409, 22.66235
982.8230, 22.52674
983.3051, 22.11633
983.7872, 22.00354
984.2693, 22.65844
984.7515, 23.14872
985.2336, 22.47733
985.7157, 21.40664
986.1978, 20.98062
986.6799, 21.70247
987.1620, 22.01771
987.6442, 21.83445
988.1263, 21.49733
988.6084, 21.25403
989.0905, 21.10999
989.5726, 21.11532
990.0547, 21.25942
990.5369, 21.41630
991.0190, 21.46456
991.5011, 21.57088
991.9832, 21.97538
992.4653, 22.49917
992.9474, 22.44391
993.4296, 21.74740
993.9117, 21.02633
994.3938, 20.37418
994.8759, 19.97555
995.3580, 20.31865
995.8401, 21.00793
996.3223, 21.39459
996.8044, 21.11210
997.2865, 20.97692
997.7686, 21.25779
998.2507, 21.53936
998.7328, 21.47560
999.2150, 21.08557
999.6971, 20.77739
1000.179, 20.55902
1000.661, 20.39915
1001.143, 20.33163
1001.626, 20.26864
1002.108, 20.12947
1002.590, 19.93016
1003.072, 19.75280
1003.554, 19.59633
1004.036, 19.47220
1004.518, 19.35987
1005.000, 19.32583
1005.482, 19.54630
1005.965, 19.93402
1006.447, 20.21192
1006.929, 20.24091
1007.411, 20.46312
1007.893, 21.58971
1008.375, 22.58241
1008.857, 22.63723
1009.339, 21.67784
1009.822, 20.77581
1010.304, 19.91462
1010.786, 19.31437
1011.268, 19.22412
1011.750, 19.41239
1012.232, 19.76748
1012.714, 20.16352
1013.196, 20.24922
1013.678, 19.32377
1014.161, 18.93657
1014.643, 19.57768
1015.125, 20.52028
1015.607, 20.61000
1016.089, 20.00118
1016.571, 19.66802
1017.053, 19.77178
1017.535, 19.93702
1018.018, 19.91707
1018.500, 19.81303
1018.982, 19.70399
1019.464, 19.59591
1019.946, 19.38754
1020.428, 18.99118
1020.910, 18.85245
1021.392, 19.36968
1021.874, 20.03359
1022.357, 19.64927
1022.839, 18.63868
1023.321, 17.99578
1023.803, 18.38168
1024.285, 18.75070
1024.767, 18.81930
1025.249, 18.79163
1025.731, 18.89870
1026.214, 19.14499
1026.696, 19.10551
1027.178, 18.75482
1027.660, 18.30795
1028.142, 17.62919
1028.624, 17.16680
1029.106, 17.58544
1029.588, 18.72940
1030.070, 19.20472
1030.553, 18.69178
1031.035, 18.07803
1031.517, 17.48733
1031.999, 17.05005
1032.481, 17.16697
1032.963, 17.60206
1033.445, 17.69276
1033.927, 17.13730
1034.410, 16.75724
1034.892, 17.11474
1035.374, 17.61819
1035.856, 17.85000
1036.338, 17.80423
1036.820, 17.87138
1037.302, 18.05484
1037.784, 18.12685
1038.266, 17.75430
1038.749, 17.36457
1039.231, 17.51221
1039.713, 17.97283
1040.195, 18.20160
1040.677, 18.06041
1041.159, 17.69145
1041.641, 16.92674
1042.123, 16.28878
1042.605, 16.70487
1043.088, 17.73136
1043.570, 17.95305
1044.052, 17.22330
1044.534, 16.64716
1045.016, 16.95651
1045.498, 17.43747
1045.980, 17.71168
1046.462, 17.83984
1046.945, 18.23594
1047.427, 18.92715
1047.909, 19.11935
1048.391, 18.36069
1048.873, 17.45187
1049.355, 17.15605
1049.837, 17.27631
1050.319, 17.57229
1050.802, 18.14897
1051.284, 18.53766
1051.766, 18.70047
1052.248, 18.74142
1052.730, 18.66173
1053.212, 18.52687
1053.694, 18.63188
1054.176, 18.89956
1054.658, 18.97213
1055.141, 18.41307
1055.623, 17.93069
1056.105, 17.77896
1056.587, 17.85144
1057.069, 18.10933
1057.551, 18.56857
1058.033, 18.53477
1058.515, 17.85951
1058.997, 17.24524
1059.480, 17.52968
1059.962, 18.02373
1060.444, 18.05835
1060.926, 17.56592
1061.408, 17.13152
1061.890, 16.77046
1062.372, 16.48398
1062.854, 16.28039
1063.337, 16.14409
1063.819, 15.98421
1064.301, 15.88144
1064.783, 16.07721
1065.265, 16.91227
1065.747, 17.37701
1066.229, 16.75933
1066.711, 16.06327
1067.193, 15.94656
1067.676, 16.37746
1068.158, 16.81602
1068.640, 17.24326
1069.122, 17.37000
1069.604, 16.66740
1070.086, 15.96047
1070.568, 15.88888
1071.050, 16.19265
1071.532, 16.24159
1072.015, 15.86584
1072.497, 15.84885
1072.979, 16.35726
1073.461, 16.83780
1073.943, 16.44807
1074.425, 15.79901
1074.907, 15.92390
1075.389, 16.85495
1075.871, 17.31121
1076.354, 16.55493
1076.836, 15.86630
1077.318, 15.56148
1077.800, 15.56243
1078.282, 15.80791
1078.764, 16.21199
1079.246, 16.44484
1079.728, 16.38162
1080.211, 16.28756
1080.693, 16.32259
1081.175, 16.36998
1081.657, 16.34991
1082.139, 16.26248
1082.621, 16.07178
1083.103, 15.77256
1083.585, 15.60418
1084.068, 15.87694
1084.550, 16.14535
1085.032, 15.81966
1085.514, 15.22676
1085.996, 14.98508
1086.478, 15.41878
1086.960, 15.61125
1087.442, 15.47126
1087.924, 15.28675
1088.406, 15.41748
1088.889, 15.65160
1089.371, 15.56391
1089.853, 15.18035
1090.335, 14.79627
1090.817, 14.40359
1091.299, 14.18488
1091.781, 14.19467
1092.263, 14.37814
1092.746, 14.76579
1093.228, 15.26440
1093.710, 15.32715
1094.192, 14.80845
1094.674, 14.37390
1095.156, 14.52957
1095.638, 14.85366
1096.120, 15.10570
1096.603, 15.27584
1097.085, 15.30024
1097.567, 15.17177
1098.049, 15.08377
1098.531, 15.13127
1099.013, 15.19498
1099.495, 15.13837
1099.977, 15.02805
1100.459, 14.95569
1100.942, 14.97186
1101.424, 14.87376
1101.906, 14.58351
1102.388, 14.43400
1102.870, 14.74035
1103.352, 15.27927
1103.834, 15.71876
1104.316, 16.02947
1104.798, 16.11604
1105.281, 15.74059
1105.763, 15.41945
1106.245, 15.20530
1106.727, 15.08999
1107.209, 15.16995
1107.691, 15.35213
1108.173, 15.10261
1108.655, 14.43848
1109.138, 14.04578
1109.620, 14.68543
1110.102, 15.27299
1110.584, 15.16145
1111.066, 14.71418
1111.548, 14.75820
1112.030, 15.28190
1112.512, 15.64617
1112.995, 15.73387
1113.477, 15.68287
1113.959, 15.61025
1114.441, 15.45492
1114.923, 15.05962
1115.405, 14.44578
1115.887, 14.24727
1116.369, 14.53351
1116.851, 14.85490
1117.333, 15.10040
1117.816, 15.20943
1118.298, 15.01963
1118.780, 14.67529
1119.262, 14.36847
1119.744, 14.10381
1120.226, 14.01085
1120.708, 14.12935
1121.190, 14.32577
1121.673, 14.59146
1122.155, 14.83930
1122.637, 14.84528
1123.119, 14.66429
1123.601, 14.44787
1124.083, 14.00990
1124.565, 13.92609
1125.047, 14.57076
1125.530, 15.19247
1126.012, 14.88537
1126.494, 13.89868
1126.976, 13.67773
1127.458, 14.19313
1127.940, 14.79259
1128.422, 15.27007
1128.904, 15.56323
1129.386, 15.58472
1129.869, 15.44169
1130.351, 15.26497
1130.833, 15.05500
1131.315, 14.83270
1131.797, 14.59713
1132.279, 14.39412
1132.761, 14.27074
1133.243, 14.18334
1133.725, 14.08054
1134.208, 13.98360
1134.690, 14.03267
1135.172, 14.26654
1135.654, 14.33052
1136.136, 14.10195
1136.618, 13.82804
1137.100, 13.70164
1137.582, 13.72803
1138.065, 13.95479
1138.547, 14.42059
1139.029, 14.83610
1139.511, 15.25606
1139.993, 15.40719
1140.475, 15.06154
1140.957, 14.58416
1141.439, 14.68271
1141.922, 15.02071
1142.404, 14.97438
1142.886, 14.12326
1143.368, 13.63025
1143.850, 13.65772
1144.332, 13.87826
1144.814, 14.14005
1145.296, 14.42327
1145.778, 14.73190
1146.260, 15.02164
1146.743, 15.17185
1147.225, 15.01610
1147.707, 14.86698
1148.189, 14.69697
1148.671, 14.64707
1149.153, 14.96679
1149.635, 15.52856
1150.117, 15.70221
1150.600, 15.50424
1151.082, 15.17312
1151.564, 14.48204
1152.046, 14.11664
1152.528, 14.49949
1153.010, 15.19466
1153.492, 15.67177
1153.974, 15.93902
1154.457, 16.10312
1154.939, 16.17023
1155.421, 16.11008
1155.903, 15.71358
1156.385, 15.37068
1156.867, 15.35701
1157.349, 15.55776
1157.831, 15.80047
1158.313, 16.08942
1158.796, 16.05082
1159.278, 15.58061
1159.760, 15.13311
1160.242, 15.02668
1160.724, 15.15662
1161.206, 15.60028
1161.688, 16.26080
1162.170, 16.42593
1162.652, 16.04089
1163.135, 15.78132
1163.617, 15.88903
1164.099, 16.00180
1164.581, 15.71325
1165.063, 15.24542
1165.545, 14.77822
1166.027, 14.32006
1166.509, 14.17163
1166.992, 14.39313
1167.474, 14.57941
1167.956, 14.54552
1168.438, 14.43573
1168.920, 14.37390
1169.402, 14.38620
1169.884, 14.56770
1170.366, 15.13581
1170.849, 15.11258
1171.331, 14.34280
1171.813, 13.51661
1172.295, 12.96116
1172.777, 12.63567
1173.259, 12.39986
1173.741, 12.35263
1174.223, 12.70918
1174.705, 14.10908
1175.188, 14.86813
1175.670, 14.86768
1176.152, 14.50541
1176.634, 13.79752
1177.116, 13.07607
1177.598, 13.20356
1178.080, 13.87666
1178.562, 14.16570
1179.044, 13.05220
1179.527, 12.70685
1180.009, 13.58416
1180.491, 14.64797
1180.973, 14.80045
1181.455, 14.43209
1181.937, 14.55018
1182.419, 15.03932
1182.901, 15.15602
1183.384, 14.11898
1183.866, 13.39228
1184.348, 13.27304
1184.830, 13.42666
1185.312, 13.45377
1185.794, 13.41613
1186.276, 13.49721
1186.758, 13.69853
1187.240, 13.87234
1187.723, 14.14911
1188.205, 14.07642
1188.687, 13.36781
1189.169, 12.51750
1189.651, 12.38957
1190.133, 12.79133
1190.615, 13.17272
1191.097, 13.46188
1191.579, 13.68389
1192.062, 13.92358
1192.544, 13.98649
1193.026, 13.74102
1193.508, 13.36091
1193.990, 13.22104
1194.472, 13.27372
1194.954, 13.37363
1195.436, 13.50393
1195.919, 13.58820
1196.401, 13.50679
1196.883, 13.47556
1197.365, 13.60060
1197.847, 13.82434
1198.329, 13.96430
1198.811, 14.05327
1199.293, 14.26157
1199.776, 14.69720
1200.258, 14.94771
1200.740, 14.69235
1201.222, 14.32130
1201.704, 13.97717
1202.186, 13.69448
1202.668, 13.68000
1203.150, 13.86936
1203.632, 14.00732
1204.115, 14.01040
1204.597, 13.96071
1205.079, 13.79228
1205.561, 13.69579
1206.043, 13.85434
1206.525, 14.17081
1207.007, 14.02218
1207.489, 13.53769
1207.971, 13.31684
1208.454, 13.78115
1208.936, 14.16791
1209.418, 14.03222
1209.900, 13.81749
1210.382, 13.82903
1210.864, 14.01853
1211.346, 14.04073
1211.828, 13.92536
1212.311, 13.81628
1212.793, 13.77897
1213.275, 13.75703
1213.757, 13.81876
1214.239, 13.79640
1214.721, 13.41790
1215.203, 12.79458
1215.685, 12.91358
1216.167, 13.64762
1216.650, 14.31537
1217.132, 14.58369
1217.614, 14.72224
1218.096, 14.79657
1218.578, 14.79626
1219.060, 14.70716
1219.542, 14.53085
1220.024, 14.24435
1220.506, 13.86979
1220.989, 13.51980
1221.471, 13.06603
1221.953, 12.89963
1222.435, 13.22430
1222.917, 13.75051
1223.399, 14.23309
1223.881, 14.66957
1224.363, 15.09645
1224.846, 15.48129
1225.328, 15.61288
1225.810, 15.04174
1226.292, 14.67962
1226.774, 14.83407
1227.256, 15.15034
1227.738, 15.23794
1228.220, 15.13406
1228.703, 14.92661
1229.185, 14.64324
1229.667, 14.42610
1230.149, 14.24448
1230.631, 14.30426
1231.113, 14.76855
1231.595, 15.28656
1232.077, 15.32501
1232.559, 15.07429
1233.042, 15.18140
1233.524, 15.61026
1234.006, 15.70740
1234.488, 14.70985
1234.970, 14.06756
1235.452, 14.16688
1235.934, 14.51973
1236.416, 14.42623
1236.898, 14.10448
1237.381, 14.08181
1237.863, 14.36563
1238.345, 14.57931
1238.827, 14.65095
1239.309, 14.50689
1239.791, 14.00245
1240.273, 13.56008
1240.755, 13.95825
1241.238, 14.72821
1241.720, 14.89834
1242.202, 14.45081
1242.684, 14.30747
1243.166, 14.95614
1243.648, 15.22273
1244.130, 14.76391
1244.612, 14.18963
1245.094, 14.28394
1245.577, 14.79333
1246.059, 15.51241
1246.541, 16.37334
1247.023, 16.63461
1247.505, 16.05134
1247.987, 15.45747
1248.469, 14.99061
1248.951, 14.69703
1249.433, 14.74116
1249.916, 14.93272
1250.398, 15.10147
1250.880, 15.21147
1251.362, 15.10365
1251.844, 14.69596
1252.326, 14.44069
1252.808, 14.45271
1253.290, 14.58194
1253.773, 14.69882
1254.255, 14.82430
1254.737, 15.07207
1255.219, 15.38635
1255.701, 15.22921
1256.183, 14.51075
1256.665, 14.12903
1257.147, 14.32132
1257.630, 14.70739
1258.112, 15.01397
1258.594, 15.29785
1259.076, 15.62046
1259.558, 15.96458
1260.040, 16.32894
1260.522, 16.70597
1261.004, 16.55604
1261.486, 15.67064
1261.969, 14.86866
1262.451, 14.75747
1262.933, 14.97514
1263.415, 15.45663
1263.897, 16.00896
1264.379, 15.85937
1264.861, 15.12932
1265.343, 14.71524
1265.825, 14.82414
1266.308, 15.15915
1266.790, 16.06174
1267.272, 16.51764
1267.754, 15.82304
1268.236, 14.57243
1268.718, 14.38419
1269.200, 14.99267
1269.682, 15.45064
1270.165, 15.56617
1270.647, 15.64297
1271.129, 15.88417
1271.611, 15.98426
1272.093, 15.77324
1272.575, 15.46406
1273.057, 15.51454
1273.539, 15.79002
1274.021, 16.01156
1274.504, 16.13675
1274.986, 16.15410
1275.468, 16.04576
1275.950, 15.84490
1276.432, 15.45634
1276.914, 15.20409
1277.396, 15.91133
1277.878, 16.92913
1278.360, 17.17926
1278.843, 16.47415
1279.325, 16.07563
1279.807, 16.12059
1280.289, 16.22688
1280.771, 16.32092
1281.253, 16.33658
1281.735, 16.15574
1282.217, 15.88019
1282.700, 15.53635
1283.182, 15.16159
1283.664, 15.18034
1284.146, 15.62700
1284.628, 16.10352
1285.110, 16.55161
1285.592, 16.82702
1286.074, 16.72374
1286.557, 16.47109
1287.039, 16.18842
1287.521, 15.91601
1288.003, 15.71635
1288.485, 15.61146
1288.967, 15.99641
1289.449, 17.04368
1289.931, 17.80225
1290.413, 17.35730
1290.896, 16.82977
1291.378, 16.82038
1291.860, 17.07907
1292.342, 16.98507
1292.824, 16.61708
1293.306, 16.13197
1293.788, 15.52532
1294.270, 15.37612
1294.752, 16.65015
1295.235, 17.37468
1295.717, 16.79317
1296.199, 15.80053
1296.681, 16.08067
1297.163, 17.00182
1297.645, 17.39503
1298.127, 17.11087
##END=



