##NAMES=Diaboleite
##RRUFFID=R050270
##IDEAL CHEMISTRY=Cu^2+^Pb^2+^_2_Cl_2_(OH)_4_
##LOCALITY=Tiger, Pinal County, Arizona, USA
##OWNER=RRUFF
##SOURCE=Marcus Origlieri
##DESCRIPTION=Blue irregular crystalline
##STATUS=The identification of this mineral has been confirmed by X-ray diffraction and chemical analysis
##URL=rruff.info/R050270
##MEASURED CHEMISTRY=(Cu_0.97_Pb_0.03_)_Î£=1_Pb_2.00_Cl_2.00_(OH)_4_
93.02344, 22.22042
93.50555, 21.09298
93.98767, 20.68256
94.46979, 21.13917
94.95190, 22.30437
95.43402, 23.87192
95.91614, 25.84895
96.39825, 28.12799
96.88037, 30.51015
97.36249, 33.01195
97.84460, 35.77809
98.32672, 38.91673
98.80884, 42.39181
99.29095, 46.06191
99.77307, 49.76831
100.2552, 53.73748
100.7373, 58.40729
101.2194, 63.74725
101.7015, 69.72292
102.1837, 76.26248
102.6658, 83.21428
103.1479, 91.23093
103.6300, 100.6400
104.1121, 111.1758
104.5942, 121.1656
105.0764, 130.1912
105.5585, 139.3413
106.0406, 149.5322
106.5227, 160.5082
107.0048, 172.8832
107.4869, 187.3828
107.9690, 204.3104
108.4512, 219.2997
108.9333, 232.1384
109.4154, 243.2648
109.8975, 253.1557
110.3796, 262.2968
110.8617, 269.8177
111.3439, 275.2550
111.8260, 278.0272
112.3081, 280.7416
112.7902, 283.2761
113.2723, 285.9160
113.7544, 289.0193
114.2366, 292.1709
114.7187, 296.1721
115.2008, 301.2667
115.6829, 307.4384
116.1650, 314.8246
116.6471, 324.4374
117.1293, 335.4200
117.6114, 345.8960
118.0935, 354.7790
118.5756, 363.1338
119.0577, 371.7447
119.5398, 380.8429
120.0220, 390.0468
120.5041, 398.9952
120.9862, 407.8619
121.4683, 417.3510
121.9504, 427.1112
122.4325, 437.9030
122.9147, 450.7592
123.3968, 466.9084
123.8789, 484.4047
124.3610, 500.5582
124.8431, 515.7039
125.3252, 532.8882
125.8074, 553.8235
126.2895, 578.4677
126.7716, 606.7398
127.2537, 638.6035
127.7358, 674.2402
128.2179, 714.7762
128.7001, 760.3022
129.1822, 806.8243
129.6643, 852.5989
130.1464, 896.6115
130.6285, 934.6524
131.1106, 967.3170
131.5928, 992.8347
132.0749, 1005.316
132.5570, 1004.129
133.0391, 990.8683
133.5212, 965.6410
134.0033, 927.1578
134.4855, 878.4463
134.9676, 821.9633
135.4497, 761.3932
135.9318, 704.3966
136.4139, 650.4660
136.8960, 601.0397
137.3782, 556.4902
137.8603, 516.5045
138.3424, 481.8990
138.8245, 454.0699
139.3066, 433.2509
139.7887, 414.9483
140.2709, 398.8238
140.7530, 384.9367
141.2351, 373.8289
141.7172, 365.7620
142.1993, 359.4955
142.6814, 354.2601
143.1636, 349.8223
143.6457, 346.8766
144.1278, 345.8291
144.6099, 346.4575
145.0920, 346.7858
145.5741, 346.8316
146.0563, 346.5488
146.5384, 345.9736
147.0205, 345.6072
147.5026, 344.1349
147.9847, 341.2521
148.4668, 336.9408
148.9490, 332.0419
149.4311, 326.4633
149.9132, 320.3626
150.3953, 313.9487
150.8774, 306.9470
151.3595, 299.9424
151.8417, 292.9070
152.3238, 285.6854
152.8059, 279.2694
153.2880, 273.6708
153.7701, 268.8921
154.2522, 264.8694
154.7344, 261.6299
155.2165, 259.1405
155.6986, 257.5994
156.1807, 257.2986
156.6628, 256.7318
157.1449, 255.1049
157.6271, 253.2085
158.1092, 252.1026
158.5913, 251.9722
159.0734, 252.7096
159.5555, 254.3786
160.0376, 257.1996
160.5198, 260.3062
161.0019, 263.3371
161.4840, 266.4892
161.9661, 270.0301
162.4482, 273.7477
162.9303, 278.0895
163.4125, 283.3686
163.8946, 289.8431
164.3767, 296.7696
164.8588, 304.2130
165.3409, 311.8654
165.8230, 319.1743
166.3052, 325.2513
166.7873, 331.2262
167.2694, 337.9686
167.7515, 345.7818
168.2336, 354.1572
168.7157, 363.3016
169.1978, 372.8348
169.6800, 381.8232
170.1621, 388.9032
170.6442, 395.4781
171.1263, 403.1433
171.6084, 412.6753
172.0905, 422.8231
172.5727, 432.5998
173.0548, 442.0730
173.5369, 451.7289
174.0190, 461.6090
174.5011, 471.9996
174.9832, 483.3354
175.4654, 496.0223
175.9475, 509.3834
176.4296, 522.9376
176.9117, 536.7523
177.3938, 550.8234
177.8759, 564.8106
178.3581, 579.1026
178.8402, 594.4261
179.3223, 611.0988
179.8044, 628.6321
180.2865, 646.6695
180.7686, 665.1044
181.2508, 683.1342
181.7329, 700.6650
182.2150, 717.3506
182.6971, 732.2110
183.1792, 745.9485
183.6613, 757.0775
184.1435, 762.4391
184.6256, 762.0643
185.1077, 756.7958
185.5898, 746.8942
186.0719, 732.7228
186.5540, 714.8539
187.0362, 692.9056
187.5183, 667.6014
188.0004, 640.7734
188.4825, 611.9557
188.9646, 583.5953
189.4467, 558.0765
189.9289, 535.2598
190.4110, 514.1053
190.8931, 494.0086
191.3752, 475.1756
191.8573, 458.0869
192.3394, 442.5774
192.8216, 428.8102
193.3037, 417.0342
193.7858, 407.2284
194.2679, 398.7956
194.7500, 391.7958
195.2321, 386.0965
195.7143, 380.6340
196.1964, 375.3769
196.6785, 370.5469
197.1606, 366.2436
197.6427, 362.3712
198.1248, 359.7358
198.6070, 359.1412
199.0891, 360.3923
199.5712, 360.2403
200.0533, 358.2539
200.5354, 355.9166
201.0175, 355.4554
201.4997, 357.1174
201.9818, 358.9377
202.4639, 360.1271
202.9460, 360.6841
203.4281, 361.7845
203.9102, 363.3957
204.3924, 365.6113
204.8745, 368.7343
205.3566, 372.9514
205.8387, 377.2178
206.3208, 380.9432
206.8029, 384.0717
207.2851, 388.2585
207.7672, 393.9560
208.2493, 400.0653
208.7314, 404.7399
209.2135, 407.5292
209.6956, 410.4259
210.1778, 413.8925
210.6599, 417.8580
211.1420, 423.3372
211.6241, 430.8294
212.1062, 439.1536
212.5883, 446.1861
213.0705, 451.1803
213.5526, 457.0128
214.0347, 464.9990
214.5168, 475.7641
214.9989, 484.6113
215.4810, 490.7326
215.9632, 495.7420
216.4453, 502.2113
216.9274, 510.6880
217.4095, 519.4249
217.8916, 527.7729
218.3737, 535.5992
218.8559, 543.7203
219.3380, 552.3972
219.8201, 561.0411
220.3022, 568.6133
220.7843, 574.6276
221.2664, 580.4470
221.7486, 586.5212
222.2307, 592.7720
222.7128, 599.2133
223.1949, 606.0879
223.6770, 612.9266
224.1591, 618.8477
224.6413, 623.7088
225.1234, 628.0643
225.6055, 632.2615
226.0876, 636.4997
226.5697, 639.4282
227.0518, 640.6920
227.5340, 640.9271
228.0161, 641.1614
228.4982, 641.9866
228.9803, 641.7254
229.4624, 639.8274
229.9445, 636.0707
230.4267, 631.5427
230.9088, 625.7667
231.3909, 619.4873
231.8730, 613.9527
232.3551, 610.3270
232.8372, 605.2631
233.3194, 597.5446
233.8015, 586.4929
234.2836, 576.0076
234.7657, 566.3538
235.2478, 557.0187
235.7299, 547.2646
236.2121, 537.3480
236.6942, 526.6466
237.1763, 514.6559
237.6584, 501.0659
238.1405, 488.7267
238.6226, 478.5909
239.1048, 469.1620
239.5869, 458.6395
240.0690, 446.3128
240.5511, 434.1998
241.0332, 422.6449
241.5153, 411.7383
241.9975, 401.0731
242.4796, 390.8763
242.9617, 380.8453
243.4438, 370.6771
243.9259, 360.2300
244.4080, 349.9017
244.8902, 339.7533
245.3723, 329.7816
245.8544, 320.0219
246.3365, 310.2597
246.8186, 300.9184
247.3007, 292.3253
247.7829, 284.7013
248.2650, 277.4055
248.7471, 270.3491
249.2292, 263.5040
249.7113, 256.8639
250.1934, 250.3422
250.6756, 244.0539
251.1577, 238.0109
251.6398, 232.1606
252.1219, 226.6703
252.6040, 221.6192
253.0861, 217.0307
253.5683, 212.4465
254.0504, 207.7694
254.5325, 203.1933
255.0146, 198.8698
255.4967, 194.7862
255.9788, 190.9302
256.4609, 187.3335
256.9431, 183.9989
257.4252, 180.6897
257.9073, 177.4258
258.3894, 174.1401
258.8715, 170.7375
259.3536, 167.0159
259.8358, 163.6440
260.3179, 160.7637
260.8000, 158.2743
261.2821, 155.6584
261.7642, 152.6899
262.2463, 149.9337
262.7285, 147.7990
263.2106, 146.5005
263.6927, 145.1604
264.1748, 143.6602
264.6569, 142.0854
265.1390, 140.7464
265.6212, 139.8320
266.1033, 138.7868
266.5854, 137.1773
267.0675, 134.7972
267.5496, 132.7771
268.0317, 131.2410
268.5139, 130.0740
268.9960, 129.0059
269.4781, 127.9941
269.9602, 127.1988
270.4423, 126.8011
270.9244, 126.9293
271.4066, 126.7684
271.8887, 126.2210
272.3708, 125.4585
272.8529, 124.7641
273.3350, 124.0710
273.8171, 123.6856
274.2993, 123.7880
274.7814, 124.4183
275.2635, 125.2066
275.7456, 126.2592
276.2277, 127.2990
276.7098, 127.7658
277.1920, 127.5380
277.6741, 127.3978
278.1562, 127.6446
278.6383, 128.2809
279.1204, 128.9871
279.6025, 129.7861
280.0847, 130.6105
280.5668, 131.3384
281.0489, 131.9527
281.5310, 132.6651
282.0131, 133.5130
282.4952, 134.5138
282.9774, 135.8097
283.4595, 137.4620
283.9416, 139.1917
284.4237, 140.6299
284.9058, 141.7796
285.3879, 143.1430
285.8701, 144.9789
286.3522, 147.0943
286.8343, 148.7607
287.3164, 149.9328
287.7985, 150.8970
288.2806, 151.9188
288.7628, 152.9755
289.2449, 153.8228
289.7270, 154.3400
290.2091, 154.6745
290.6912, 155.0419
291.1733, 155.4296
291.6555, 156.2347
292.1376, 158.3117
292.6197, 161.2432
293.1018, 162.9630
293.5839, 162.8502
294.0660, 161.8647
294.5482, 161.4698
295.0303, 161.6541
295.5124, 162.2299
295.9945, 163.6098
296.4766, 165.3208
296.9587, 165.8689
297.4409, 164.9098
297.9230, 163.3878
298.4051, 162.7053
298.8872, 162.6314
299.3693, 162.1450
299.8514, 160.4174
300.3336, 157.9719
300.8157, 155.7206
301.2978, 153.7441
301.7799, 151.9180
302.2620, 150.3820
302.7441, 148.9434
303.2263, 147.1110
303.7084, 144.3445
304.1905, 141.1937
304.6726, 138.2038
305.1547, 135.4086
305.6368, 132.9178
306.1190, 131.1992
306.6011, 129.8210
307.0832, 128.0808
307.5653, 125.2688
308.0474, 122.3021
308.5295, 120.1341
309.0117, 118.6769
309.4938, 117.3217
309.9759, 115.6384
310.4580, 113.8248
310.9401, 112.1536
311.4222, 110.6529
311.9044, 109.3520
312.3865, 108.3451
312.8686, 107.5898
313.3507, 106.9121
313.8328, 106.1288
314.3149, 105.4387
314.7971, 105.0807
315.2792, 105.3189
315.7613, 105.4037
316.2434, 104.6289
316.7255, 103.4181
317.2076, 102.6937
317.6898, 103.0740
318.1719, 103.8595
318.6540, 104.7727
319.1361, 105.8910
319.6182, 106.6515
320.1003, 106.2848
320.5825, 105.5846
321.0646, 105.6417
321.5467, 107.6500
322.0288, 109.6603
322.5109, 110.8634
322.9930, 111.0962
323.4752, 111.5018
323.9573, 112.2309
324.4394, 113.2666
324.9215, 114.5933
325.4036, 116.6055
325.8857, 118.4890
326.3679, 119.9805
326.8500, 121.1093
327.3321, 122.4316
327.8142, 124.1616
328.2963, 125.9913
328.7784, 127.7380
329.2606, 129.2370
329.7427, 130.8568
330.2248, 132.6369
330.7069, 134.5663
331.1890, 136.5573
331.6711, 138.6821
332.1533, 140.8100
332.6354, 142.8913
333.1175, 144.8476
333.5996, 146.9588
334.0817, 149.4697
334.5638, 152.0305
335.0460, 153.9042
335.5281, 154.5939
336.0102, 155.5414
336.4923, 157.2913
336.9744, 159.9786
337.4565, 162.4706
337.9387, 164.6946
338.4208, 166.8510
338.9029, 169.2314
339.3850, 171.9761
339.8671, 174.3720
340.3492, 176.1266
340.8313, 177.3687
341.3134, 178.9463
341.7956, 180.7915
342.2777, 183.2325
342.7598, 186.9297
343.2419, 191.8933
343.7240, 196.3057
344.2061, 199.7617
344.6883, 202.5861
345.1704, 205.3176
345.6525, 207.9584
346.1346, 210.9011
346.6167, 214.5234
347.0988, 218.7603
347.5810, 222.8013
348.0631, 226.5498
348.5452, 230.3853
349.0273, 234.9638
349.5094, 240.2223
349.9915, 245.5277
350.4737, 250.2624
350.9558, 254.9140
351.4379, 260.4720
351.9200, 267.0022
352.4021, 273.8452
352.8842, 280.5185
353.3664, 287.0786
353.8485, 293.7216
354.3306, 300.4837
354.8127, 307.4264
355.2948, 314.4754
355.7769, 321.6489
356.2591, 328.8491
356.7412, 335.7837
357.2233, 342.7730
357.7054, 350.3224
358.1875, 358.6727
358.6696, 367.3053
359.1518, 375.8163
359.6339, 384.2781
360.1160, 392.7778
360.5981, 401.7028
361.0802, 410.4413
361.5623, 418.4396
362.0445, 425.4370
362.5266, 432.6089
363.0087, 440.4754
363.4908, 448.7255
363.9729, 456.9257
364.4550, 465.4764
364.9372, 473.4574
365.4193, 480.3716
365.9014, 486.1906
366.3835, 491.9483
366.8656, 498.5907
367.3477, 504.7965
367.8299, 509.7472
368.3120, 511.4358
368.7941, 514.0859
369.2762, 519.0972
369.7583, 525.7042
370.2404, 530.4949
370.7226, 532.8212
371.2047, 533.9089
371.6868, 534.1783
372.1689, 533.3728
372.6510, 532.3586
373.1331, 531.2637
373.6153, 529.8925
374.0974, 527.9185
374.5795, 525.3428
375.0616, 522.2087
375.5437, 518.5903
376.0258, 514.5138
376.5080, 509.5711
376.9901, 503.5147
377.4722, 497.0261
377.9543, 490.5270
378.4364, 484.0096
378.9185, 477.9695
379.4007, 472.9368
379.8828, 468.2904
380.3649, 462.1069
380.8470, 454.3244
381.3291, 446.0125
381.8112, 437.8622
382.2934, 429.7980
382.7755, 421.8719
383.2576, 414.1561
383.7397, 406.3618
384.2218, 397.7201
384.7039, 388.4113
385.1861, 379.8871
385.6682, 373.4280
386.1503, 367.9934
386.6324, 361.2616
387.1145, 353.2827
387.5966, 345.1671
388.0788, 337.6142
388.5609, 330.5694
389.0430, 323.9026
389.5251, 317.4956
390.0072, 311.4369
390.4893, 305.8265
390.9715, 300.6777
391.4536, 295.7149
391.9357, 291.1996
392.4178, 286.6396
392.8999, 281.5834
393.3820, 275.7637
393.8642, 269.9320
394.3463, 264.2114
394.8284, 258.7296
395.3105, 253.7621
395.7926, 249.7882
396.2747, 245.9249
396.7569, 241.8559
397.2390, 237.5554
397.7211, 233.3194
398.2032, 228.7687
398.6853, 224.5386
399.1674, 221.1433
399.6496, 219.8312
400.1317, 217.8681
400.6138, 214.5880
401.0959, 210.4440
401.5780, 207.0322
402.0602, 204.9452
402.5423, 202.8708
403.0244, 200.1905
403.5065, 196.4514
403.9886, 193.7532
404.4707, 192.7456
404.9529, 192.1535
405.4350, 189.9789
405.9171, 185.4790
406.3992, 181.8469
406.8813, 180.2027
407.3634, 180.1767
407.8456, 178.9721
408.3277, 176.3728
408.8098, 173.4877
409.2919, 171.1863
409.7740, 169.4364
410.2561, 167.9431
410.7383, 166.7516
411.2204, 165.6280
411.7025, 164.0051
412.1846, 161.9542
412.6667, 160.0649
413.1488, 158.7480
413.6310, 157.8058
414.1131, 156.8588
414.5952, 155.8989
415.0773, 154.9692
415.5594, 154.0601
416.0415, 153.2111
416.5237, 152.4817
417.0058, 151.9989
417.4879, 151.5368
417.9700, 150.7332
418.4521, 149.7285
418.9342, 149.0780
419.4164, 149.4564
419.8985, 150.0638
420.3806, 150.2959
420.8627, 150.0066
421.3448, 149.5124
421.8269, 148.6899
422.3091, 147.7947
422.7912, 147.1799
423.2733, 146.8801
423.7554, 146.9226
424.2375, 147.4376
424.7196, 148.4292
425.2018, 149.3368
425.6839, 150.0514
426.1660, 150.7061
426.6481, 151.3957
427.1302, 152.2609
427.6123, 152.8953
428.0945, 153.0535
428.5766, 153.0539
429.0587, 153.6927
429.5408, 155.2656
430.0229, 156.8468
430.5050, 158.0969
430.9872, 158.9934
431.4693, 159.8506
431.9514, 160.6296
432.4335, 161.4778
432.9156, 162.6171
433.3977, 164.0542
433.8799, 165.3741
434.3620, 166.4836
434.8441, 167.4343
435.3262, 168.2272
435.8083, 168.8794
436.2904, 169.7511
436.7726, 171.5214
437.2547, 173.6292
437.7368, 174.6509
438.2189, 174.4083
438.7010, 173.6935
439.1831, 173.2641
439.6652, 172.9234
440.1473, 172.2917
440.6295, 171.2551
441.1116, 169.8505
441.5937, 167.9537
442.0758, 165.6428
442.5579, 163.3683
443.0400, 161.2236
443.5222, 159.2657
444.0043, 157.5761
444.4864, 156.3187
444.9685, 154.9801
445.4506, 153.3292
445.9327, 151.5165
446.4149, 149.7515
446.8970, 148.0275
447.3791, 146.4228
447.8612, 144.8668
448.3433, 143.3550
448.8254, 142.2572
449.3076, 141.6297
449.7897, 141.3731
450.2718, 141.4999
450.7539, 142.3395
451.2360, 142.7788
451.7181, 142.5743
452.2003, 142.1063
452.6824, 142.0535
453.1645, 142.3602
453.6466, 143.3142
454.1287, 145.1945
454.6108, 147.9016
455.0930, 150.2780
455.5751, 152.3074
456.0572, 154.2632
456.5393, 156.4219
457.0214, 158.7399
457.5035, 160.8525
457.9857, 162.6566
458.4678, 164.3681
458.9499, 166.0329
459.4320, 167.7974
459.9141, 170.2521
460.3962, 174.2728
460.8784, 178.8445
461.3605, 182.6265
461.8426, 185.6143
462.3247, 188.6869
462.8068, 192.4211
463.2889, 196.5929
463.7711, 200.9259
464.2532, 205.3540
464.7353, 209.9170
465.2174, 214.8053
465.6995, 219.7952
466.1816, 224.4616
466.6638, 229.2572
467.1459, 233.0735
467.6280, 235.2788
468.1101, 235.4305
468.5922, 235.8693
469.0743, 237.4897
469.5565, 238.8120
470.0386, 238.6297
470.5207, 236.7789
471.0028, 233.7557
471.4849, 229.4704
471.9670, 224.1259
472.4492, 218.1183
472.9313, 211.4055
473.4134, 204.2751
473.8955, 196.6592
474.3776, 188.5693
474.8597, 180.9641
475.3419, 173.8065
475.8240, 167.1068
476.3061, 160.9867
476.7882, 155.3674
477.2703, 149.8607
477.7524, 144.2707
478.2346, 138.9202
478.7167, 134.1876
479.1988, 130.0105
479.6809, 126.1570
480.1630, 122.4747
480.6451, 119.0647
481.1273, 116.1003
481.6094, 113.5919
482.0915, 111.2082
482.5736, 108.6367
483.0557, 106.1292
483.5378, 103.9010
484.0200, 102.1036
484.5021, 100.4771
484.9842, 98.95763
485.4663, 97.54936
485.9484, 96.28748
486.4305, 95.49149
486.9127, 94.53715
487.3948, 93.11837
487.8769, 91.12283
488.3590, 89.54983
488.8411, 88.52776
489.3232, 87.78728
489.8054, 87.18672
490.2875, 86.85758
490.7696, 86.16273
491.2517, 84.89480
491.7338, 83.37076
492.2159, 82.40797
492.6981, 82.04389
493.1802, 81.65317
493.6623, 80.83872
494.1444, 79.75843
494.6265, 79.14558
495.1086, 79.00012
495.5908, 78.93372
496.0729, 78.75021
496.5550, 78.37736
497.0371, 77.58680
497.5192, 76.14267
498.0013, 74.73967
498.4835, 74.09854
498.9656, 73.94781
499.4477, 73.74430
499.9298, 73.14690
500.4119, 72.50876
500.8940, 72.03712
501.3762, 71.72832
501.8583, 71.42585
502.3404, 71.15769
502.8225, 70.82446
503.3046, 70.34582
503.7867, 69.42398
504.2689, 68.83939
504.7510, 68.91096
505.2331, 69.20023
505.7152, 69.05254
506.1973, 68.36449
506.6794, 67.41392
507.1616, 66.05495
507.6437, 64.43066
508.1258, 63.81304
508.6079, 64.44099
509.0900, 65.13296
509.5721, 65.04865
510.0543, 64.26425
510.5364, 63.55790
511.0185, 62.96531
511.5006, 62.50792
511.9827, 62.27937
512.4648, 62.21795
512.9470, 62.13479
513.4291, 61.99069
513.9112, 61.76871
514.3933, 61.43795
514.8754, 61.00854
515.3575, 60.51778
515.8397, 59.82817
516.3218, 59.19349
516.8039, 58.83746
517.2860, 58.82109
517.7681, 58.80128
518.2502, 58.61017
518.7324, 58.38744
519.2145, 58.25805
519.6966, 58.42858
520.1787, 58.45868
520.6608, 58.18255
521.1429, 57.75588
521.6251, 57.58355
522.1072, 57.84315
522.5893, 58.02963
523.0714, 57.96957
523.5535, 57.66521
524.0356, 57.29821
524.5178, 56.81420
524.9999, 56.44622
525.4820, 56.50885
525.9641, 56.94188
526.4462, 57.11118
526.9283, 56.88716
527.4105, 56.54273
527.8926, 56.52222
528.3747, 56.70485
528.8568, 56.68831
529.3389, 55.46322
529.8210, 56.17611
530.3032, 56.56015
530.7853, 56.63306
531.2674, 55.46285
531.7495, 55.89786
532.2316, 55.68957
532.7137, 55.45490
533.1959, 56.11582
533.6780, 55.12643
534.1601, 55.77316
534.6422, 55.76677
535.1243, 56.05930
535.6064, 55.70456
536.0886, 55.54973
536.5707, 56.04239
537.0528, 56.17653
537.5349, 55.74728
538.0170, 56.05881
538.4991, 55.04680
538.9813, 55.19620
539.4634, 55.84672
539.9455, 55.45001
540.4276, 55.77337
540.9097, 54.72858
541.3918, 54.63001
541.8740, 54.76936
542.3561, 54.72743
542.8382, 54.39211
543.3203, 54.02524
543.8024, 53.91754
544.2845, 54.01128
544.7667, 54.18032
545.2488, 54.44757
545.7309, 54.70223
546.2130, 54.85805
546.6951, 54.93026
547.1772, 54.98479
547.6594, 55.08382
548.1415, 55.14471
548.6236, 55.08940
549.1057, 54.84098
549.5878, 54.73920
550.0699, 55.00592
550.5521, 55.30137
551.0342, 55.31053
551.5163, 54.79451
551.9984, 54.53015
552.4805, 54.68280
552.9626, 55.06237
553.4448, 55.17814
553.9269, 54.97580
554.4090, 54.94051
554.8911, 55.39605
555.3732, 56.14062
555.8553, 56.40818
556.3375, 56.20208
556.8196, 55.86780
557.3017, 55.60643
557.7838, 55.41327
558.2659, 55.24958
558.7480, 55.08585
559.2302, 55.10194
559.7123, 55.65882
560.1944, 56.40493
560.6765, 56.88506
561.1586, 56.77290
561.6407, 56.57612
562.1229, 56.44579
562.6050, 56.35395
563.0871, 56.21496
563.5692, 55.81427
564.0513, 55.57955
564.5334, 55.68756
565.0156, 56.15461
565.4977, 56.50209
565.9798, 56.73865
566.4619, 56.83572
566.9440, 56.64579
567.4261, 56.12083
567.9083, 56.15203
568.3904, 56.94582
568.8725, 57.85978
569.3546, 57.91880
569.8367, 57.30763
570.3188, 56.86283
570.8010, 56.89233
571.2831, 57.15668
571.7652, 57.45839
572.2473, 57.76543
572.7294, 57.95406
573.2115, 57.88519
573.6937, 57.73961
574.1758, 57.64115
574.6579, 57.59997
575.1400, 57.52928
575.6221, 57.28603
576.1042, 57.08299
576.5864, 57.08039
577.0685, 57.51458
577.5506, 57.71486
578.0327, 57.46050
578.5148, 57.13456
578.9969, 57.32264
579.4791, 58.24491
579.9612, 58.87762
580.4433, 58.92441
580.9254, 58.62944
581.4075, 58.67148
581.8896, 59.04570
582.3718, 59.35452
582.8539, 59.35260
583.3360, 59.14604
583.8181, 58.88990
584.3002, 58.59652
584.7823, 58.43280
585.2645, 58.52122
585.7466, 58.80231
586.2287, 59.30096
586.7108, 60.16234
587.1929, 60.74826
587.6750, 60.46730
588.1571, 59.88964
588.6392, 59.67147
589.1213, 60.41383
589.6035, 60.93113
590.0856, 61.07819
590.5677, 60.91242
591.0498, 60.53478
591.5319, 59.77028
592.0140, 59.18866
592.4962, 59.00774
592.9783, 59.18888
593.4604, 59.51701
593.9425, 60.02034
594.4246, 60.42002
594.9067, 60.28358
595.3889, 59.87480
595.8710, 60.12242
596.3531, 61.17680
596.8352, 62.17710
597.3173, 62.18026
597.7994, 61.67720
598.2816, 61.38990
598.7637, 61.60662
599.2458, 61.95037
599.7279, 62.42352
600.2100, 62.87529
600.6921, 63.02214
601.1743, 62.30562
601.6564, 61.82178
602.1385, 61.96194
602.6206, 62.62936
603.1027, 63.06028
603.5848, 63.18204
604.0670, 63.19618
604.5491, 63.14581
605.0312, 63.02635
605.5133, 63.15929
605.9954, 63.59724
606.4775, 63.99981
606.9597, 63.92590
607.4418, 63.53113
607.9239, 63.35778
608.4060, 63.52755
608.8881, 63.80883
609.3702, 63.93591
609.8524, 64.01900
610.3345, 64.24352
610.8166, 64.83233
611.2987, 65.43001
611.7808, 65.99670
612.2629, 66.46253
612.7451, 66.61370
613.2272, 65.92154
613.7093, 65.41531
614.1914, 65.44424
614.6735, 66.01338
615.1556, 66.58604
615.6378, 67.25156
616.1199, 67.74200
616.6020, 67.75908
617.0841, 67.28490
617.5662, 67.27159
618.0483, 67.81435
618.5305, 68.46557
619.0126, 68.65284
619.4947, 68.55722
619.9768, 68.73417
620.4589, 69.40122
620.9410, 70.13644
621.4232, 70.61684
621.9053, 70.89278
622.3874, 71.06190
622.8695, 70.89808
623.3516, 70.90572
623.8337, 71.41908
624.3159, 72.31430
624.7980, 73.00675
625.2801, 73.29651
625.7622, 73.54448
626.2443, 73.84366
626.7264, 74.19479
627.2086, 74.60068
627.6907, 75.05523
628.1728, 75.58242
628.6549, 76.27834
629.1370, 77.10825
629.6191, 77.69978
630.1013, 78.01823
630.5834, 78.17773
631.0655, 78.09939
631.5476, 77.98524
632.0297, 78.25261
632.5118, 79.11651
632.9940, 80.15150
633.4761, 81.15223
633.9582, 82.11314
634.4403, 83.01353
634.9224, 83.86751
635.4045, 84.63837
635.8867, 85.27007
636.3688, 85.80028
636.8509, 86.35845
637.3330, 86.83053
637.8151, 87.54439
638.2972, 88.77705
638.7794, 90.46288
639.2615, 91.39810
639.7436, 91.47077
640.2257, 91.55054
640.7078, 92.38961
641.1899, 93.75861
641.6721, 94.91246
642.1542, 95.80143
642.6363, 96.55973
643.1184, 97.07835
643.6005, 97.63074
644.0826, 98.60985
644.5648, 100.3703
645.0469, 102.0178
645.5290, 103.0143
646.0111, 103.7433
646.4932, 104.7646
646.9753, 106.4237
647.4575, 108.0531
647.9396, 109.6241
648.4217, 111.1049
648.9038, 112.2942
649.3859, 113.0911
649.8680, 114.0314
650.3502, 115.3983
650.8323, 117.0312
651.3144, 118.1360
651.7965, 118.7654
652.2786, 119.8459
652.7607, 122.5798
653.2429, 125.8871
653.7250, 128.1774
654.2071, 129.3388
654.6892, 130.1845
655.1713, 130.7999
655.6534, 131.5399
656.1356, 132.7498
656.6177, 134.7623
657.0998, 136.5483
657.5819, 137.6741
658.0640, 138.6953
658.5461, 140.1412
659.0283, 142.2054
659.5104, 144.1508
659.9925, 145.9025
660.4746, 147.4783
660.9567, 148.7537
661.4388, 149.7608
661.9210, 151.1873
662.4031, 153.4777
662.8852, 155.9903
663.3673, 157.8705
663.8494, 159.1614
664.3315, 160.0118
664.8137, 160.1978
665.2958, 160.2233
665.7779, 160.1212
666.2600, 160.0086
666.7421, 160.7303
667.2242, 163.7816
667.7064, 166.5173
668.1885, 167.5996
668.6706, 166.7059
669.1527, 166.8479
669.6348, 168.4325
670.1169, 170.2633
670.5991, 171.4501
671.0812, 172.0246
671.5633, 172.7753
672.0454, 173.8172
672.5275, 174.6281
673.0096, 174.3830
673.4918, 173.5260
673.9739, 172.8381
674.4560, 172.3506
674.9381, 172.4614
675.4202, 174.2890
675.9023, 176.6309
676.3845, 177.7501
676.8666, 176.1514
677.3487, 174.5187
677.8308, 173.3085
678.3129, 172.4362
678.7950, 171.7914
679.2772, 171.4963
679.7593, 171.1288
680.2414, 170.5288
680.7235, 169.7855
681.2056, 169.3111
681.6877, 169.1026
682.1699, 168.6420
682.6520, 167.3928
683.1341, 165.8098
683.6162, 164.7875
684.0983, 164.2480
684.5804, 163.4327
685.0626, 161.4773
685.5447, 159.3798
686.0268, 157.9496
686.5089, 157.4587
686.9910, 156.5655
687.4731, 154.6348
687.9553, 152.5481
688.4374, 150.8467
688.9195, 149.6833
689.4016, 148.3812
689.8837, 146.9276
690.3658, 145.3568
690.8480, 143.6000
691.3301, 141.7302
691.8122, 140.2557
692.2943, 139.3684
692.7764, 138.5971
693.2585, 137.5214
693.7407, 136.1459
694.2228, 134.4863
694.7049, 132.3259
695.1870, 130.1622
695.6691, 127.9959
696.1512, 126.0101
696.6334, 124.5623
697.1155, 124.2784
697.5976, 123.8552
698.0797, 123.0886
698.5618, 122.0152
699.0439, 120.7712
699.5261, 119.3582
700.0082, 117.7344
700.4903, 115.5756
700.9724, 113.3167
701.4545, 112.5193
701.9366, 112.9829
702.4188, 113.0754
702.9009, 111.0728
703.3830, 108.6366
703.8651, 107.6214
704.3472, 108.0816
704.8293, 108.1296
705.3115, 106.5354
705.7936, 104.7239
706.2757, 103.5738
706.7578, 103.2763
707.2399, 102.9145
707.7220, 102.5146
708.2042, 102.0041
708.6863, 101.2754
709.1684, 100.3184
709.6505, 99.51023
710.1326, 98.88700
710.6147, 98.31616
711.0969, 97.50923
711.5790, 96.66963
712.0611, 96.25149
712.5432, 96.45356
713.0253, 96.77522
713.5074, 96.93931
713.9896, 97.00956
714.4717, 97.06432
714.9538, 97.37364
715.4359, 97.33190
715.9180, 96.66966
716.4001, 95.73100
716.8823, 95.03318
717.3644, 94.55354
717.8465, 94.48322
718.3286, 95.03048
718.8107, 95.80831
719.2928, 95.87189
719.7750, 95.32919
720.2571, 94.83072
720.7392, 94.49905
721.2213, 94.48474
721.7034, 95.23140
722.1855, 96.46355
722.6677, 97.33739
723.1498, 97.23685
723.6319, 96.95669
724.1140, 96.74902
724.5961, 96.63143
725.0782, 96.64712
725.5604, 96.85658
726.0425, 97.09068
726.5246, 97.29381
727.0067, 97.46328
727.4888, 97.54411
727.9709, 97.52823
728.4531, 97.59688
728.9352, 97.80248
729.4173, 98.20683
729.8994, 99.11780
730.3815, 100.5273
730.8636, 101.5738
731.3458, 101.3420
731.8279, 100.8219
732.3100, 100.7078
732.7921, 101.1369
733.2742, 101.7698
733.7563, 102.7516
734.2385, 103.7350
734.7206, 104.5057
735.2027, 105.0672
735.6848, 105.2937
736.1669, 105.0627
736.6490, 104.9813
737.1312, 105.9268
737.6133, 107.5413
738.0954, 108.8501
738.5775, 109.6887
739.0596, 110.2080
739.5417, 110.2372
740.0239, 110.1494
740.5060, 110.3882
740.9881, 111.2465
741.4702, 112.1428
741.9523, 113.0504
742.4344, 113.9112
742.9166, 114.5795
743.3987, 114.8729
743.8808, 115.6759
744.3629, 117.3073
744.8450, 119.1288
745.3271, 119.8809
745.8093, 119.7815
746.2914, 119.9973
746.7735, 121.0041
747.2556, 122.2463
747.7377, 123.1095
748.2198, 123.8088
748.7020, 124.7754
749.1841, 126.7124
749.6662, 128.3269
750.1483, 128.8453
750.6304, 128.7978
751.1125, 129.5852
751.5947, 131.5570
752.0768, 133.5390
752.5589, 135.2499
753.0410, 136.7551
753.5231, 138.1756
754.0052, 139.5177
754.4874, 140.7863
754.9695, 141.7789
755.4516, 142.8321
755.9337, 144.4123
756.4158, 146.4090
756.8979, 148.3868
757.3801, 149.8803
757.8622, 151.6143
758.3443, 154.1547
758.8264, 157.3749
759.3085, 160.0018
759.7906, 161.8342
760.2728, 163.4916
760.7549, 165.1489
761.2370, 166.8371
761.7191, 168.7529
762.2012, 170.8955
762.6833, 173.3109
763.1655, 176.2636
763.6476, 179.3823
764.1297, 182.0374
764.6118, 184.2763
765.0939, 186.6101
765.5760, 189.3488
766.0582, 192.2290
766.5403, 195.2000
767.0224, 198.2656
767.5045, 201.1474
767.9866, 203.8342
768.4688, 206.3221
768.9509, 208.4915
769.4330, 210.3905
769.9151, 212.6799
770.3972, 215.3709
770.8793, 218.3141
771.3615, 221.7450
771.8436, 225.2267
772.3257, 227.9651
772.8078, 229.9101
773.2899, 232.1529
773.7720, 235.8235
774.2542, 239.4971
774.7363, 242.1419
775.2184, 243.4284
775.7005, 245.0100
776.1826, 247.1205
776.6647, 249.1394
777.1469, 250.5104
777.6290, 251.2679
778.1111, 252.4855
778.5932, 254.2247
779.0753, 255.9748
779.5574, 257.3755
780.0396, 258.4681
780.5217, 259.3493
781.0038, 260.0463
781.4859, 260.3206
781.9680, 259.6510
782.4501, 258.8099
782.9323, 258.4469
783.4144, 258.8562
783.8965, 258.7908
784.3785, 258.1528
784.8607, 257.2033
785.3428, 256.2560
785.8249, 255.2591
786.3070, 253.6292
786.7891, 251.2843
787.2712, 248.9277
787.7534, 247.7702
788.2355, 246.7432
788.7176, 244.2352
789.1997, 239.6197
789.6818, 235.3097
790.1639, 232.3866
790.6461, 229.9787
791.1282, 227.4007
791.6103, 224.8196
792.0924, 221.5031
792.5745, 217.1320
793.0566, 212.7749
793.5388, 209.7841
794.0209, 207.8135
794.5030, 205.1174
794.9851, 201.4241
795.4672, 197.5851
795.9493, 194.5324
796.4315, 191.6594
796.9136, 188.2374
797.3957, 183.8988
797.8778, 179.6367
798.3599, 175.3701
798.8420, 171.5132
799.3242, 168.5863
799.8063, 167.0513
800.2884, 164.5903
800.7705, 160.9126
801.2526, 156.9787
801.7347, 153.7551
802.2169, 151.1062
802.6990, 148.6608
803.1811, 146.4182
803.6632, 144.0648
804.1453, 141.1336
804.6274, 138.1426
805.1096, 135.6078
805.5917, 133.9033
806.0738, 131.9550
806.5559, 129.3849
807.0380, 126.8333
807.5201, 124.9094
808.0023, 123.7301
808.4844, 122.1082
808.9665, 119.9199
809.4486, 117.6787
809.9307, 116.0294
810.4128, 114.6722
810.8950, 112.9532
811.3771, 110.6838
811.8592, 108.6778
812.3413, 107.5833
812.8234, 106.7919
813.3055, 105.8174
813.7877, 104.5703
814.2698, 103.2247
814.7519, 101.6738
815.2340, 100.1925
815.7161, 99.09282
816.1982, 98.33985
816.6804, 97.42847
817.1625, 96.31988
817.6446, 95.18662
818.1267, 94.29033
818.6088, 93.40500
819.0909, 92.14767
819.5731, 90.36903
820.0552, 88.87528
820.5373, 88.05118
821.0194, 87.54424
821.5015, 87.16991
821.9836, 86.99683
822.4658, 86.56889
822.9479, 85.81802
823.4300, 85.01871
823.9121, 84.44604
824.3942, 84.00239
824.8763, 83.39237
825.3585, 82.59780
825.8406, 81.73443
826.3227, 80.86099
826.8048, 79.98064
827.2869, 78.99232
827.7690, 77.79599
828.2512, 77.19348
828.7333, 77.75045
829.2154, 78.22739
829.6975, 77.85088
830.1796, 76.62895
830.6617, 76.07256
831.1439, 76.23416
831.6260, 76.38490
832.1081, 75.85780
832.5902, 75.05676
833.0723, 74.59341
833.5544, 74.47169
834.0366, 74.30690
834.5187, 73.92081
835.0008, 73.44170
835.4829, 72.85093
835.9650, 72.15425
836.4471, 71.82765
836.9293, 72.06155
837.4114, 72.11136
837.8935, 71.43093
838.3756, 70.30318
838.8577, 69.76177
839.3398, 69.74684
839.8220, 69.81687
840.3041, 69.75622
840.7862, 69.63207
841.2683, 69.57240
841.7504, 69.52933
842.2325, 69.19345
842.7147, 67.97073
843.1968, 67.15586
843.6789, 67.26073
844.1610, 68.01573
844.6431, 68.19945
845.1252, 67.79948
845.6074, 67.26345
846.0895, 66.72062
846.5716, 66.22623
847.0537, 65.88272
847.5358, 65.65757
848.0179, 65.45923
848.5001, 65.21901
848.9822, 65.03500
849.4643, 65.03432
849.9464, 65.10253
850.4285, 64.92286
850.9106, 64.34624
851.3928, 64.05158
851.8749, 64.30034
852.3570, 64.74072
852.8391, 64.61232
853.3212, 64.07459
853.8033, 63.67561
854.2855, 63.74685
854.7676, 63.77297
855.2497, 63.23337
855.7318, 62.47578
856.2139, 62.03473
856.6960, 62.29728
857.1782, 62.44009
857.6603, 62.39254
858.1424, 62.23728
858.6245, 62.14771
859.1066, 62.10176
859.5887, 61.71984
860.0709, 60.87302
860.5530, 59.99416
861.0351, 59.47045
861.5172, 59.23340
861.9993, 59.27180
862.4814, 59.79028
862.9636, 60.02800
863.4457, 59.46731
863.9278, 58.80696
864.4099, 58.59658
864.8920, 58.95696
865.3741, 59.06182
865.8563, 58.88231
866.3384, 58.52079
866.8205, 57.80702
867.3026, 57.06507
867.7847, 57.09444
868.2668, 57.99260
868.7490, 58.58541
869.2311, 57.93142
869.7132, 57.04954
870.1953, 56.62808
870.6774, 56.71761
871.1595, 56.65367
871.6417, 56.34258
872.1238, 56.14574
872.6059, 56.44010
873.0880, 57.00355
873.5701, 56.95816
874.0522, 56.37552
874.5344, 55.77582
875.0165, 55.45921
875.4986, 55.24200
875.9807, 55.04279
876.4628, 54.84540
876.9449, 54.54926
877.4271, 53.97915
877.9092, 53.62567
878.3913, 53.71691
878.8734, 54.06983
879.3555, 54.08239
879.8376, 53.78978
880.3198, 53.54831
880.8019, 53.57769
881.2840, 53.61405
881.7661, 53.30384
882.2482, 52.83140
882.7303, 52.54964
883.2125, 52.88240
883.6946, 52.97355
884.1767, 52.59279
884.6588, 52.02380
885.1409, 51.74849
885.6230, 51.78117
886.1052, 51.59932
886.5873, 51.07335
887.0694, 50.47656
887.5515, 50.05749
888.0336, 49.80502
888.5157, 49.76184
888.9979, 50.08058
889.4800, 50.17392
889.9621, 49.61274
890.4442, 48.95446
890.9263, 48.60766
891.4084, 48.63329
891.8906, 48.73996
892.3727, 48.97215
892.8548, 49.02903
893.3369, 48.36244
893.8190, 47.45455
894.3011, 47.30433
894.7833, 47.93791
895.2654, 48.37740
895.7475, 47.88133
896.2296, 47.30899
896.7117, 47.17118
897.1938, 47.42954
897.6760, 47.50399
898.1581, 47.34419
898.6402, 47.20837
899.1223, 47.27296
899.6044, 47.40490
900.0865, 47.29364
900.5687, 46.98117
901.0508, 46.62543
901.5329, 46.16613
902.0150, 45.82233
902.4971, 45.75959
902.9792, 45.88847
903.4614, 45.96715
903.9435, 45.97471
904.4256, 45.99718
904.9077, 46.08457
905.3898, 46.12694
905.8719, 45.79578
906.3541, 45.25753
906.8362, 45.11970
907.3183, 45.73840
907.8004, 46.15274
908.2825, 45.51822
908.7646, 44.49208
909.2468, 43.76481
909.7289, 43.42244
910.2110, 43.36839
910.6931, 43.74937
911.1752, 44.09943
911.6573, 43.88290
912.1395, 43.27607
912.6216, 43.04346
913.1037, 43.21530
913.5858, 43.39974
914.0679, 43.28324
914.5500, 43.10260
915.0322, 43.05226
915.5143, 43.14431
915.9964, 43.11170
916.4785, 42.90386
916.9606, 42.65120
917.4427, 42.35601
917.9249, 42.07788
918.4070, 42.08186
918.8891, 42.30872
919.3712, 42.43600
919.8533, 42.15282
920.3354, 41.87117
920.8176, 42.01122
921.2997, 42.34285
921.7818, 42.34496
922.2639, 41.68648
922.7460, 41.20668
923.2281, 41.01684
923.7103, 41.00429
924.1924, 41.08358
924.6745, 41.21103
925.1566, 41.11037
925.6387, 40.68559
926.1208, 40.29466
926.6030, 40.30440
927.0851, 40.43716
927.5672, 40.39894
928.0493, 40.03321
928.5314, 39.91803
929.0135, 40.22504
929.4957, 40.47147
929.9778, 40.20406
930.4599, 39.55680
930.9420, 39.42151
931.4241, 39.75545
931.9063, 40.05947
932.3884, 39.95246
932.8705, 39.74730
933.3526, 39.68536
933.8347, 39.73651
934.3168, 39.66712
934.7990, 39.39213
935.2811, 39.14948
935.7632, 39.01046
936.2453, 38.92356
936.7274, 38.74163
937.2095, 38.50288
937.6917, 38.40326
938.1738, 38.58937
938.6559, 38.73772
939.1380, 38.52833
939.6201, 38.18659
940.1022, 38.00832
940.5844, 38.16172
941.0665, 38.18207
941.5486, 38.02686
942.0307, 37.82825
942.5128, 37.66866
942.9949, 37.56746
943.4771, 37.70801
943.9592, 38.08253
944.4413, 38.20601
944.9234, 37.40678
945.4055, 36.53914
945.8876, 36.17223
946.3698, 36.33856
946.8519, 36.64437
947.3340, 37.21774
947.8161, 37.57731
948.2982, 37.52013
948.7803, 37.16806
949.2625, 36.63740
949.7446, 36.03922
950.2267, 35.74290
950.7088, 36.13552
951.1909, 36.56102
951.6730, 36.81069
952.1552, 36.85417
952.6373, 36.60179
953.1194, 35.80047
953.6015, 35.58350
954.0836, 36.17343
954.5657, 36.88466
955.0479, 36.92711
955.5300, 36.53632
956.0121, 36.16286
956.4942, 35.85920
956.9763, 35.60311
957.4584, 35.35057
957.9406, 35.17640
958.4227, 35.16241
958.9048, 35.29165
959.3869, 35.28328
959.8690, 35.11281
960.3511, 34.98788
960.8333, 35.05944
961.3154, 35.18508
961.7975, 35.12910
962.2796, 34.93961
962.7617, 34.73995
963.2438, 34.50555
963.7260, 34.36081
964.2081, 34.39141
964.6902, 34.48663
965.1723, 34.48512
965.6544, 34.37346
966.1365, 34.42681
966.6187, 34.72075
967.1008, 34.88903
967.5829, 34.28437
968.0650, 33.50121
968.5471, 33.30124
969.0292, 33.84804
969.5114, 34.35995
969.9935, 34.76893
970.4756, 34.99469
970.9577, 34.94873
971.4398, 34.68987
971.9219, 34.58808
972.4041, 34.62771
972.8862, 34.61284
973.3683, 34.38162
973.8504, 34.11522
974.3325, 33.94012
974.8146, 33.83960
975.2968, 33.77435
975.7789, 33.63737
976.2610, 33.74622
976.7431, 34.24855
977.2252, 34.79026
977.7073, 34.84569
978.1895, 34.53547
978.6716, 34.29049
979.1537, 34.16644
979.6358, 34.08185
980.1179, 33.95273
980.6000, 33.86581
981.0822, 33.96058
981.5643, 34.24574
982.0463, 34.18311
982.5284, 33.66501
983.0106, 33.20767
983.4927, 33.08268
983.9748, 33.13537
984.4569, 32.98962
984.9390, 32.75291
985.4211, 32.72445
985.9033, 33.31610
986.3854, 33.79111
986.8675, 33.89177
987.3496, 33.76488
987.8317, 33.53560
988.3138, 33.18464
988.7960, 32.89741
989.2781, 32.69570
989.7602, 32.52826
990.2423, 32.30478
990.7244, 32.11125
991.2065, 32.06376
991.6887, 32.17288
992.1708, 32.34410
992.6529, 32.73149
993.1350, 32.92995
993.6171, 32.71563
994.0992, 32.23847
994.5814, 32.13153
995.0635, 32.33640
995.5456, 32.40808
996.0277, 31.99235
996.5098, 31.67134
996.9919, 32.11557
997.4741, 32.83998
997.9562, 33.13065
998.4383, 32.61783
998.9204, 32.32378
999.4025, 32.31380
999.8846, 32.38612
1000.367, 32.36695
1000.849, 32.27887
1001.331, 32.14762
1001.813, 31.98410
1002.295, 31.89973
1002.777, 32.10188
1003.259, 32.24353
1003.742, 32.07828
1004.224, 31.72007
1004.706, 31.57955
1005.188, 31.68055
1005.670, 31.75714
1006.152, 31.73906
1006.634, 31.65790
1007.116, 31.50110
1007.599, 31.32747
1008.081, 31.20711
1008.563, 31.09653
1009.045, 31.22006
1009.527, 31.80619
1010.009, 32.34111
1010.491, 32.43941
1010.973, 32.14188
1011.455, 31.83243
1011.938, 31.52397
1012.420, 31.35333
1012.902, 31.49977
1013.384, 31.72874
1013.866, 31.94912
1014.348, 32.12383
1014.830, 32.14075
1015.312, 31.92147
1015.794, 31.79358
1016.277, 31.83417
1016.759, 31.90481
1017.241, 31.83641
1017.723, 31.65390
1018.205, 31.34130
1018.687, 30.86090
1019.169, 30.59591
1019.651, 31.07304
1020.134, 31.41917
1020.616, 31.06674
1021.098, 30.14381
1021.580, 29.86434
1022.062, 30.22835
1022.544, 30.77849
1023.026, 31.53863
1023.508, 32.09740
1023.990, 31.87903
1024.473, 31.21690
1024.955, 30.67572
1025.437, 30.28734
1025.919, 30.18652
1026.401, 30.47583
1026.883, 30.84451
1027.365, 30.96592
1027.847, 30.91335
1028.330, 30.88547
1028.812, 30.89852
1029.294, 30.97643
1029.776, 31.34482
1030.258, 31.56050
1030.740, 31.25844
1031.222, 30.64683
1031.704, 30.39173
1032.187, 30.51604
1032.669, 30.77575
1033.151, 31.19642
1033.633, 31.47479
1034.115, 31.05770
1034.597, 30.37433
1035.079, 29.98558
1035.561, 30.07792
1036.043, 30.25595
1036.526, 30.58085
1037.008, 30.81315
1037.490, 30.74133
1037.972, 30.46762
1038.454, 30.41027
1038.936, 30.53937
1039.418, 30.70386
1039.900, 30.86545
1040.382, 30.99775
1040.865, 31.11766
1041.347, 31.18208
1041.829, 31.10568
1042.311, 30.85597
1042.793, 30.67213
1043.275, 30.58522
1043.757, 30.49482
1044.239, 30.21859
1044.722, 29.93257
1045.204, 29.88964
1045.686, 30.09950
1046.168, 30.22864
1046.650, 30.07945
1047.132, 30.09671
1047.614, 30.51626
1048.096, 31.08085
1048.578, 31.08647
1049.061, 30.67907
1049.543, 30.33845
1050.025, 30.18385
1050.507, 30.19634
1050.989, 30.63254
1051.471, 31.02670
1051.953, 30.93155
1052.435, 30.27219
1052.917, 29.89489
1053.400, 29.80676
1053.882, 29.90282
1054.364, 30.24594
1054.846, 30.63831
1055.328, 30.95052
1055.810, 31.12362
1056.292, 31.00655
1056.774, 30.18711
1057.257, 29.70988
1057.739, 29.74496
1058.221, 29.98043
1058.703, 30.08627
1059.185, 30.07810
1059.667, 29.96494
1060.149, 29.75284
1060.631, 29.59845
1061.114, 29.65940
1061.596, 29.72256
1062.078, 29.67206
1062.560, 29.54299
1063.042, 29.43278
1063.524, 29.34194
1064.006, 29.38827
1064.488, 29.65321
1064.970, 29.92015
1065.453, 29.92815
1065.935, 29.84515
1066.417, 29.89781
1066.899, 30.22368
1067.381, 30.22859
1067.863, 29.78337
1068.345, 29.38364
1068.827, 29.35015
1069.309, 29.53492
1069.792, 29.68399
1070.274, 29.76591
1070.756, 29.69083
1071.238, 29.24669
1071.720, 28.86915
1072.202, 28.61236
1072.684, 28.49550
1073.166, 28.57845
1073.649, 28.84796
1074.131, 29.16697
1074.613, 29.52320
1075.095, 29.73430
1075.577, 29.54551
1076.059, 29.28955
1076.541, 29.18356
1077.023, 29.20460
1077.505, 29.19646
1077.988, 29.13728
1078.470, 29.16402
1078.952, 29.31275
1079.434, 29.52542
1079.916, 29.83209
1080.398, 30.11081
1080.880, 30.17864
1081.362, 29.98346
1081.844, 29.75546
1082.327, 29.49417
1082.809, 29.26021
1083.291, 29.05394
1083.773, 28.91001
1084.255, 28.99658
1084.737, 29.23231
1085.219, 29.34053
1085.701, 29.12787
1086.183, 28.95919
1086.666, 28.99236
1087.148, 29.12259
1087.630, 29.32888
1088.112, 29.62687
1088.594, 29.53007
1089.076, 29.05224
1089.558, 28.61637
1090.040, 28.51073
1090.523, 28.53168
1091.005, 28.49796
1091.487, 28.48022
1091.969, 28.68144
1092.451, 29.25052
1092.933, 29.54635
1093.415, 29.47731
1093.897, 29.26544
1094.380, 29.07278
1094.862, 28.91928
1095.344, 28.85581
1095.826, 28.87753
1096.308, 28.86450
1096.790, 28.70523
1097.272, 28.65476
1097.754, 28.82075
1098.236, 29.06589
1098.719, 29.14240
1099.201, 29.07229
1099.683, 28.87912
1100.165, 28.53006
1100.647, 28.29816
1101.129, 28.40031
1101.611, 28.57591
1102.093, 28.69293
1102.575, 28.75485
1103.058, 28.78956
1103.540, 28.79540
1104.022, 28.74078
1104.504, 28.53756
1104.986, 28.40630
1105.468, 28.61793
1105.950, 28.93786
1106.432, 29.06314
1106.915, 28.91611
1107.397, 28.91354
1107.879, 29.08695
1108.361, 29.16242
1108.843, 28.80022
1109.325, 28.34589
1109.807, 28.26567
1110.289, 28.43958
1110.771, 28.54025
1111.254, 28.41891
1111.736, 28.37999
1112.218, 28.46590
1112.700, 28.58861
1113.182, 28.66885
1113.664, 28.70975
1114.146, 28.71523
1114.628, 28.68585
1115.110, 28.62418
1115.593, 28.39402
1116.075, 28.32565
1116.557, 28.59040
1117.039, 28.97007
1117.521, 28.99394
1118.003, 28.74642
1118.485, 28.67469
1118.967, 28.88364
1119.450, 28.93650
1119.932, 28.20427
1120.414, 27.60151
1120.896, 27.78493
1121.378, 28.56207
1121.860, 28.85587
1122.342, 28.67971
1122.824, 28.59527
1123.307, 28.84696
1123.789, 29.06822
1124.271, 28.85611
1124.753, 28.49752
1125.235, 28.31049
1125.717, 28.33389
1126.199, 28.31983
1126.681, 28.26274
1127.163, 28.20794
1127.646, 28.18805
1128.128, 28.17349
1128.610, 28.04666
1129.092, 27.91854
1129.574, 28.00474
1130.056, 28.72609
1130.538, 28.88740
1131.020, 28.29844
1131.502, 27.68373
1131.985, 27.59846
1132.467, 27.91080
1132.949, 28.59965
1133.431, 29.47400
1133.913, 29.86595
1134.395, 28.91938
1134.877, 28.35827
1135.359, 28.57010
1135.842, 29.00923
1136.324, 28.99877
1136.806, 28.66840
1137.288, 28.41853
1137.770, 28.28287
1138.252, 28.30428
1138.734, 28.76095
1139.216, 29.06414
1139.698, 28.97695
1140.181, 28.65253
1140.663, 28.38811
1141.145, 28.17245
1141.627, 27.89832
1142.109, 27.52567
1142.591, 27.36556
1143.073, 27.87201
1143.555, 28.42507
1144.037, 28.63745
1144.520, 28.56516
1145.002, 28.39621
1145.484, 28.13339
1145.966, 27.97382
1146.448, 27.99314
1146.930, 28.06411
1147.412, 28.13497
1147.894, 28.16217
1148.377, 28.07078
1148.859, 27.85746
1149.341, 27.74569
1149.823, 27.73965
1150.305, 27.80731
1150.787, 27.99380
1151.269, 28.14348
1151.751, 28.07395
1152.234, 27.86217
1152.716, 27.56102
1153.198, 27.01914
1153.680, 27.07426
1154.162, 27.91007
1154.644, 28.55227
1155.126, 28.16590
1155.608, 27.41546
1156.090, 27.34037
1156.573, 27.68040
1157.055, 27.90155
1157.537, 27.68630
1158.019, 27.63613
1158.501, 27.79566
1158.983, 28.01612
1159.465, 28.28148
1159.947, 28.47647
1160.429, 28.20715
1160.912, 27.63493
1161.394, 27.35557
1161.876, 27.93196
1162.358, 28.28889
1162.840, 28.20850
1163.322, 28.03869
1163.804, 28.22212
1164.286, 28.60734
1164.769, 28.79548
1165.251, 28.77160
1165.733, 28.64076
1166.215, 28.29946
1166.697, 28.05570
1167.179, 27.99991
1167.661, 28.04714
1168.143, 28.10894
1168.625, 28.16119
1169.108, 28.01543
1169.590, 27.66152
1170.072, 27.59679
1170.554, 28.71732
1171.036, 29.37285
1171.518, 28.71958
1172.000, 27.43246
1172.482, 27.11557
1172.964, 27.59097
1173.447, 27.96180
1173.929, 28.07169
1174.411, 27.98865
1174.893, 27.52375
1175.375, 27.11300
1175.857, 26.98526
1176.339, 27.09108
1176.821, 27.32933
1177.304, 27.66743
1177.786, 27.81127
1178.268, 27.63413
1178.750, 27.46476
1179.232, 27.49963
1179.714, 27.65083
1180.196, 27.91303
1180.678, 28.24567
1181.161, 28.26523
1181.643, 27.98833
1182.125, 27.60629
1182.607, 27.08508
1183.089, 26.73887
1183.571, 26.97368
1184.053, 27.37252
1184.535, 27.52560
1185.017, 27.43127
1185.500, 27.48145
1185.982, 27.67101
1186.464, 27.72241
1186.946, 27.34388
1187.428, 27.05039
1187.910, 27.40915
1188.392, 27.98498
1188.874, 28.26163
1189.356, 28.19531
1189.839, 28.16251
1190.321, 28.16604
1190.803, 28.06483
1191.285, 27.63092
1191.767, 27.22175
1192.249, 27.14754
1192.731, 27.27279
1193.213, 27.41830
1193.696, 27.62744
1194.178, 27.53933
1194.660, 27.12774
1195.142, 26.83957
1195.624, 27.19388
1196.106, 27.58945
1196.588, 27.43029
1197.070, 26.96985
1197.552, 26.72043
1198.035, 26.73374
1198.517, 26.80214
1198.999, 26.92536
1199.481, 27.01273
1199.963, 26.91961
1200.445, 26.82791
1200.927, 26.86532
1201.409, 27.04104
1201.891, 27.41935
1202.374, 28.16395
1202.856, 28.26472
1203.338, 27.59283
1203.820, 26.88167
1204.302, 26.81800
1204.784, 26.95957
1205.266, 26.85271
1205.748, 26.61903
1206.231, 26.74531
1206.713, 27.35794
1207.195, 27.74792
1207.677, 27.83709
1208.159, 27.71071
1208.641, 27.24480
1209.123, 26.76839
1209.605, 26.57413
1210.088, 26.65493
1210.570, 26.85780
1211.052, 27.24710
1211.534, 27.32819
1212.016, 26.98748
1212.498, 26.60098
1212.980, 26.48034
1213.462, 26.53397
1213.944, 26.73391
1214.427, 27.04687
1214.909, 27.33693
1215.391, 27.63416
1215.873, 27.62487
1216.355, 27.18625
1216.837, 26.80971
1217.319, 27.13407
1217.801, 27.62438
1218.283, 27.79456
1218.766, 27.65619
1219.248, 27.52685
1219.730, 27.41211
1220.212, 27.24738
1220.694, 27.00108
1221.176, 26.79185
1221.658, 26.74706
1222.140, 26.77376
1222.623, 26.76708
1223.105, 26.74325
1223.587, 26.90085
1224.069, 27.26320
1224.551, 27.44892
1225.033, 27.32263
1225.515, 27.19472
1225.997, 27.48258
1226.479, 27.78976
1226.962, 27.64983
1227.444, 27.16352
1227.926, 27.08331
1228.408, 27.41486
1228.890, 27.66887
1229.372, 27.71218
1229.854, 27.63189
1230.336, 27.37122
1230.818, 27.12543
1231.301, 27.10343
1231.783, 27.25561
1232.265, 27.22492
1232.747, 27.02018
1233.229, 26.89711
1233.711, 26.93790
1234.193, 27.04957
1234.675, 27.24022
1235.158, 27.40530
1235.640, 27.45972
1236.122, 27.42093
1236.604, 27.38173
1237.086, 27.34504
1237.568, 27.34949
1238.050, 27.44168
1238.532, 27.46331
1239.015, 27.19069
1239.497, 26.93690
1239.979, 26.93516
1240.461, 27.12499
1240.943, 27.16822
1241.425, 27.09764
1241.907, 27.12457
1242.389, 27.38692
1242.871, 27.53193
1243.354, 27.19008
1243.836, 26.87623
1244.318, 26.91502
1244.800, 27.20649
1245.282, 27.32135
1245.764, 27.29931
1246.246, 27.28301
1246.728, 27.29317
1247.210, 27.38773
1247.693, 27.81259
1248.175, 28.03448
1248.657, 27.63474
1249.139, 26.92062
1249.621, 27.02875
1250.103, 27.67889
1250.585, 28.07845
1251.067, 27.94176
1251.550, 27.71076
1252.032, 27.41954
1252.514, 27.17102
1252.996, 27.01881
1253.478, 26.94800
1253.960, 26.91101
1254.442, 26.92940
1254.924, 27.06321
1255.406, 27.38012
1255.889, 27.66758
1256.371, 27.94306
1256.853, 28.10026
1257.335, 28.08815
1257.817, 27.91978
1258.299, 27.50284
1258.781, 26.98709
1259.263, 26.60424
1259.745, 26.38277
1260.228, 26.47404
1260.710, 26.95973
1261.192, 27.44371
1261.674, 27.79852
1262.156, 27.95163
1262.638, 27.58712
1263.120, 27.05696
1263.602, 26.89060
1264.085, 27.21900
1264.567, 27.56416
1265.049, 27.96017
1265.531, 28.05361
1266.013, 27.47434
1266.495, 26.89895
1266.977, 27.21954
1267.459, 27.79124
1267.942, 27.73746
1268.424, 27.01202
1268.906, 26.89049
1269.388, 27.36192
1269.870, 27.80197
1270.352, 27.97319
1270.834, 27.97130
1271.316, 27.76348
1271.798, 27.49100
1272.281, 27.20337
1272.763, 26.94011
1273.245, 27.35684
1273.727, 28.30968
1274.209, 28.76972
1274.691, 28.08215
1275.173, 27.50031
1275.655, 27.78774
1276.137, 28.24402
1276.620, 28.48111
1277.102, 28.54127
1277.584, 28.59906
1278.066, 28.64121
1278.548, 28.60304
1279.030, 28.39361
1279.512, 28.33668
1279.994, 28.71884
1280.476, 28.93076
1280.959, 28.60901
1281.441, 27.98305
1281.923, 27.48833
1282.405, 27.14936
1282.887, 27.03406
1283.369, 27.20702
1283.851, 27.45223
1284.333, 27.80344
1284.816, 28.05499
1285.298, 28.09696
1285.780, 28.02572
1286.262, 27.90421
1286.744, 27.81154
1287.226, 27.91596
1287.708, 28.30836
1288.190, 28.33389
1288.672, 27.92211
1289.155, 27.60818
1289.637, 27.59049
1290.119, 27.76542
1290.601, 28.20112
1291.083, 28.65752
1291.565, 28.84543
1292.047, 28.79041
1292.529, 28.83915
1293.011, 28.98369
1293.494, 28.93942
1293.976, 28.58230
1294.458, 28.15640
1294.940, 27.62944
1295.422, 27.31310
1295.904, 27.45942
1296.386, 27.92570
1296.868, 28.15420
1297.351, 28.18316
1297.833, 28.13215
1298.315, 27.98904
1298.797, 28.01123
1299.279, 28.59046
1299.761, 28.99485
1300.243, 28.93373
1300.725, 28.58440
1301.208, 28.15827
1301.690, 27.76851
1302.172, 27.67795
1302.654, 27.95615
1303.136, 28.27504
1303.618, 28.67091
1304.100, 28.89560
1304.582, 28.89697
1305.064, 28.68135
##END=



