##NAMES=Diamond
##RRUFFID=R050204
##IDEAL CHEMISTRY=C
##LOCALITY=Unknown
##OWNER=RRUFF
##SOURCE=Eric Van Valkenburg
##DESCRIPTION=Single crystal, type IIA
##STATUS=The identification of this mineral has been confirmed by single-crystal X-ray diffraction.
##URL=rruff.info/R050204
127.8323, 536.8918
128.3145, 548.3719
128.7966, 556.6213
129.2787, 561.9344
129.7608, 563.3398
130.2429, 557.4923
130.7250, 544.9714
131.2072, 532.5364
131.6893, 523.5527
132.1714, 517.7850
132.6535, 515.7842
133.1356, 518.9731
133.6177, 524.7601
134.0999, 525.3400
134.5820, 519.9996
135.0641, 513.6990
135.5462, 511.4314
136.0283, 513.5071
136.5104, 514.3382
136.9926, 511.4565
137.4747, 505.2520
137.9568, 503.3250
138.4389, 506.3965
138.9210, 512.1766
139.4031, 518.2380
139.8853, 525.3113
140.3674, 530.7388
140.8495, 533.5968
141.3316, 533.5898
141.8137, 532.3138
142.2958, 528.3392
142.7779, 523.7758
143.2601, 524.4400
143.7422, 533.4802
144.2243, 542.9712
144.7064, 548.9290
145.1885, 550.4114
145.6706, 550.3628
146.1528, 547.5467
146.6349, 542.5636
147.1170, 541.6913
147.5991, 549.9839
148.0812, 558.5129
148.5633, 560.6711
149.0455, 547.1745
149.5276, 537.9232
150.0097, 537.8951
150.4918, 549.5436
150.9739, 554.9387
151.4560, 547.5402
151.9382, 536.0189
152.4203, 530.0808
152.9024, 536.2441
153.3845, 542.5426
153.8666, 545.4321
154.3487, 543.4747
154.8309, 541.4167
155.3130, 538.4332
155.7951, 535.7833
156.2772, 535.9610
156.7593, 544.4335
157.2414, 552.2756
157.7236, 554.8823
158.2057, 546.3301
158.6878, 539.8096
159.1699, 540.8646
159.6520, 547.3987
160.1341, 551.0412
160.6163, 545.1640
161.0984, 537.3135
161.5805, 533.1052
162.0626, 538.5423
162.5447, 543.9943
163.0268, 544.6924
163.5090, 540.9100
163.9911, 538.2542
164.4732, 540.2495
164.9553, 544.5521
165.4374, 548.4223
165.9195, 552.7312
166.4017, 554.9296
166.8838, 551.8913
167.3659, 542.5846
167.8480, 534.8243
168.3301, 534.9169
168.8122, 539.9846
169.2944, 544.6985
169.7765, 545.9112
170.2586, 545.7772
170.7407, 546.1628
171.2228, 547.2629
171.7049, 549.0180
172.1871, 551.9661
172.6692, 555.6708
173.1513, 558.8275
173.6334, 560.5159
174.1155, 561.2089
174.5976, 561.5626
175.0798, 561.6763
175.5619, 561.5562
176.0440, 561.4725
176.5261, 561.3350
177.0082, 560.4241
177.4903, 557.1038
177.9725, 552.6518
178.4546, 549.8246
178.9367, 550.4987
179.4188, 552.5107
179.9009, 552.0471
180.3830, 549.0748
180.8652, 546.4410
181.3473, 547.5582
181.8294, 551.4037
182.3115, 554.5543
182.7936, 554.5173
183.2757, 552.9415
183.7579, 554.2844
184.2400, 559.0103
184.7221, 563.8959
185.2042, 564.5615
185.6863, 561.5384
186.1684, 558.6636
186.6506, 557.2119
187.1327, 557.2849
187.6148, 560.0574
188.0969, 566.4330
188.5790, 573.3109
189.0611, 573.8605
189.5433, 568.2462
190.0254, 565.6417
190.5075, 575.7644
190.9896, 596.1069
191.4717, 606.7770
191.9538, 604.0158
192.4360, 593.0396
192.9181, 584.0276
193.4002, 576.9786
193.8823, 572.2909
194.3644, 571.1835
194.8465, 573.5720
195.3287, 575.6977
195.8108, 577.0435
196.2929, 577.7215
196.7750, 577.9944
197.2571, 577.7771
197.7392, 577.5270
198.2214, 577.1705
198.7035, 576.5511
199.1856, 577.9155
199.6677, 582.8344
200.1498, 590.4045
200.6319, 594.1708
201.1141, 593.5166
201.5962, 590.6343
202.0783, 587.0929
202.5604, 582.4183
203.0425, 580.0143
203.5246, 582.0922
204.0068, 588.5181
204.4889, 590.3106
204.9710, 585.9899
205.4531, 579.5540
205.9352, 576.5616
206.4173, 577.6566
206.8995, 579.7591
207.3816, 582.0895
207.8637, 584.7825
208.3458, 586.4426
208.8279, 586.4645
209.3100, 586.0914
209.7922, 588.1191
210.2743, 593.8796
210.7564, 598.5216
211.2385, 599.2948
211.7206, 594.7238
212.2027, 592.7021
212.6849, 594.1142
213.1670, 597.6262
213.6491, 600.2901
214.1312, 602.3957
214.6133, 603.0294
215.0954, 600.9280
215.5776, 594.2363
216.0597, 591.2441
216.5418, 594.3212
217.0239, 601.0793
217.5060, 602.5182
217.9881, 595.9791
218.4703, 588.5840
218.9524, 584.7374
219.4345, 585.7690
219.9166, 586.8748
220.3987, 587.2809
220.8808, 587.3339
221.3630, 589.6302
221.8451, 596.0269
222.3272, 602.0422
222.8093, 603.6904
223.2914, 597.9147
223.7735, 595.0629
224.2556, 597.7599
224.7378, 605.5306
225.2199, 610.3456
225.7020, 612.3024
226.1841, 611.1423
226.6662, 605.4584
227.1483, 589.8613
227.6305, 580.5615
228.1126, 581.8624
228.5947, 594.0855
229.0768, 604.2078
229.5589, 612.5087
230.0410, 618.5414
230.5232, 621.5673
231.0053, 619.9074
231.4874, 618.4677
231.9695, 618.7736
232.4516, 621.2707
232.9337, 620.9431
233.4159, 615.8288
233.8980, 609.5605
234.3801, 606.8681
234.8622, 610.0722
235.3443, 612.8243
235.8264, 613.2279
236.3086, 610.5833
236.7907, 609.7722
237.2728, 612.4200
237.7549, 615.7822
238.2370, 615.4644
238.7191, 608.2111
239.2013, 602.6915
239.6834, 602.1581
240.1655, 608.3709
240.6476, 612.2538
241.1297, 612.1083
241.6118, 610.5900
242.0940, 612.6229
242.5761, 621.6279
243.0582, 628.7115
243.5403, 630.1509
244.0224, 623.3253
244.5045, 619.5638
244.9867, 620.4822
245.4688, 623.7148
245.9509, 624.4266
246.4330, 620.7697
246.9151, 617.5070
247.3972, 616.6322
247.8794, 619.3408
248.3615, 621.1516
248.8436, 621.1604
249.3257, 620.6063
249.8078, 622.6262
250.2899, 629.1073
250.7721, 635.1786
251.2542, 638.1693
251.7363, 635.1730
252.2184, 636.6896
252.7005, 645.7367
253.1826, 658.3876
253.6648, 663.7503
254.1469, 658.1409
254.6290, 651.1764
255.1111, 647.5161
255.5932, 648.8554
256.0753, 649.0645
256.5575, 647.4047
257.0396, 644.6608
257.5217, 643.1938
258.0038, 643.1736
258.4859, 644.1088
258.9680, 645.9221
259.4502, 649.0723
259.9323, 651.7708
260.4144, 653.5166
260.8965, 654.9233
261.3786, 659.0792
261.8607, 669.5740
262.3429, 676.0706
262.8250, 670.9259
263.3071, 648.4799
263.7892, 633.2072
264.2713, 627.8460
264.7534, 630.2399
265.2356, 633.8892
265.7177, 639.5672
266.1998, 644.9484
266.6819, 648.3781
267.1640, 649.1797
267.6461, 650.9547
268.1283, 654.6286
268.6104, 659.2421
269.0925, 661.1534
269.5746, 659.3627
270.0567, 657.3743
270.5388, 657.7318
271.0210, 661.1135
271.5031, 663.3398
271.9852, 663.8268
272.4673, 662.9618
272.9494, 661.4197
273.4315, 658.4886
273.9137, 657.1160
274.3958, 659.8525
274.8779, 667.3231
275.3600, 674.5546
275.8421, 681.4363
276.3242, 687.4370
276.8064, 690.9001
277.2885, 691.6784
277.7706, 690.4504
278.2527, 686.4564
278.7348, 679.3588
279.2169, 675.5162
279.6991, 676.6993
280.1812, 680.7894
280.6633, 681.9822
281.1454, 679.9339
281.6275, 677.0432
282.1096, 673.9797
282.5918, 670.7590
283.0739, 671.0820
283.5560, 676.6971
284.0381, 684.8074
284.5202, 688.0827
285.0023, 686.0938
285.4845, 684.1459
285.9666, 686.3541
286.4487, 692.2932
286.9308, 698.0545
287.4129, 703.5466
287.8951, 708.1044
288.3772, 710.0651
288.8593, 709.4586
289.3414, 707.5107
289.8235, 705.7245
290.3056, 703.5925
290.7878, 697.5326
291.2699, 685.0942
291.7520, 671.6577
292.2341, 668.5478
292.7162, 675.0441
293.1983, 682.7911
293.6805, 684.9336
294.1626, 683.6901
294.6447, 686.9587
295.1268, 697.4859
295.6089, 709.4578
296.0910, 712.9110
296.5732, 708.9783
297.0553, 704.4503
297.5374, 704.3770
298.0195, 706.8134
298.5016, 707.0933
298.9837, 703.7211
299.4659, 700.2075
299.9480, 701.7656
300.4301, 707.3856
300.9122, 712.8839
301.3943, 716.1808
301.8764, 717.7205
302.3586, 718.0828
302.8407, 717.1710
303.3228, 715.6651
303.8049, 714.0887
304.2870, 712.4625
304.7691, 710.9019
305.2513, 708.4784
305.7334, 706.5715
306.2155, 706.9825
306.6976, 710.3214
307.1797, 714.5298
307.6618, 719.0576
308.1440, 723.2391
308.6261, 725.8122
309.1082, 724.0831
309.5903, 721.5894
310.0724, 721.9526
310.5545, 726.3567
311.0367, 729.9599
311.5188, 727.7088
312.0009, 722.7186
312.4830, 720.4338
312.9651, 726.2855
313.4472, 733.4153
313.9294, 737.3305
314.4115, 737.0719
314.8936, 736.5970
315.3757, 738.4058
315.8578, 741.0077
316.3399, 742.3691
316.8221, 740.1641
317.3042, 737.8407
317.7863, 737.3004
318.2684, 738.9495
318.7505, 740.0862
319.2326, 737.6772
319.7148, 734.9852
320.1969, 735.7640
320.6790, 745.9494
321.1611, 755.0264
321.6432, 759.0503
322.1253, 757.4250
322.6075, 755.6719
323.0896, 753.3895
323.5717, 752.0920
324.0538, 753.1765
324.5359, 762.1785
325.0180, 767.9865
325.5002, 767.1256
325.9823, 759.2928
326.4644, 753.0358
326.9465, 748.5715
327.4286, 745.9631
327.9107, 745.2838
328.3929, 748.2642
328.8750, 751.0598
329.3571, 753.1395
329.8392, 754.5987
330.3213, 756.7570
330.8034, 761.2278
331.2856, 764.9737
331.7677, 765.9899
332.2498, 762.9634
332.7319, 759.5396
333.2140, 755.2940
333.6961, 750.7832
334.1783, 749.0721
334.6604, 751.3474
335.1425, 754.5934
335.6246, 756.9327
336.1067, 757.6430
336.5888, 759.7638
337.0710, 764.1017
337.5531, 769.6389
338.0352, 773.3976
338.5173, 774.7204
338.9994, 776.1136
339.4815, 779.7900
339.9637, 786.3936
340.4458, 788.7971
340.9279, 785.4705
341.4100, 779.5422
341.8921, 776.6790
342.3742, 776.9226
342.8564, 779.5861
343.3385, 785.8299
343.8206, 795.1447
344.3027, 801.6959
344.7848, 805.3397
345.2669, 806.2461
345.7491, 803.0991
346.2312, 796.3806
346.7133, 790.9498
347.1954, 789.2703
347.6775, 790.5629
348.1596, 793.1454
348.6417, 797.2119
349.1238, 800.7849
349.6060, 801.6359
350.0881, 800.2861
350.5702, 798.3875
351.0523, 795.8635
351.5344, 793.5067
352.0165, 791.8054
352.4987, 790.8237
352.9808, 792.5222
353.4629, 802.2833
353.9450, 815.1661
354.4271, 822.7990
354.9092, 819.4385
355.3914, 812.8358
355.8735, 809.0193
356.3556, 807.7811
356.8377, 807.9886
357.3198, 811.5117
357.8019, 814.9664
358.2841, 814.5968
358.7662, 806.5051
359.2483, 798.9107
359.7304, 795.8321
360.2125, 796.7479
360.6946, 799.9591
361.1768, 804.9055
361.6589, 811.8885
362.1410, 822.4700
362.6231, 841.8183
363.1052, 853.9765
363.5873, 849.0222
364.0695, 834.2443
364.5516, 823.6043
365.0337, 823.3694
365.5158, 824.9817
365.9979, 824.7569
366.4800, 820.6664
366.9622, 820.2865
367.4443, 829.7386
367.9264, 841.5717
368.4085, 845.7307
368.8906, 831.1102
369.3727, 821.1000
369.8549, 822.3045
370.3370, 836.5157
370.8191, 845.2079
371.3012, 845.4367
371.7833, 842.5785
372.2654, 841.4810
372.7476, 842.8912
373.2297, 844.7691
373.7118, 848.2925
374.1939, 852.6125
374.6760, 848.6918
375.1581, 831.7431
375.6403, 816.5191
376.1224, 816.3444
376.6045, 834.2945
377.0866, 846.6843
377.5687, 849.9145
378.0508, 846.9748
378.5330, 845.0720
379.0151, 844.1231
379.4972, 844.7096
379.9793, 848.1581
380.4614, 853.9440
380.9435, 857.8695
381.4257, 859.2423
381.9078, 859.6020
382.3899, 861.3195
382.8720, 864.1871
383.3541, 866.6750
383.8362, 866.7272
384.3184, 866.0689
384.8005, 870.2726
385.2826, 880.1625
385.7647, 887.4709
386.2468, 878.9224
386.7289, 861.8096
387.2111, 852.0869
387.6932, 863.1835
388.1753, 880.0421
388.6574, 888.1968
389.1395, 888.1431
389.6216, 885.1541
390.1038, 880.8440
390.5859, 876.1011
391.0680, 871.8254
391.5501, 867.5571
392.0322, 864.6540
392.5143, 863.2740
392.9965, 863.6719
393.4786, 866.7109
393.9607, 878.2454
394.4428, 888.7028
394.9249, 891.4688
395.4070, 880.2215
395.8892, 872.1851
396.3713, 872.8071
396.8534, 878.7419
397.3355, 883.9052
397.8176, 887.2269
398.2997, 889.9395
398.7819, 892.9620
399.2640, 897.3073
399.7461, 897.6663
400.2282, 889.6660
400.7103, 880.4019
401.1924, 877.5811
401.6746, 885.0385
402.1567, 892.3826
402.6388, 898.4654
403.1209, 903.1665
403.6030, 904.2181
404.0851, 900.3290
404.5673, 895.1809
405.0494, 890.9498
405.5315, 887.3680
406.0136, 886.8712
406.4957, 890.6987
406.9778, 896.9839
407.4600, 900.6374
407.9421, 901.3846
408.4242, 902.0480
408.9063, 904.9627
409.3884, 909.5355
409.8705, 911.9479
410.3527, 911.7400
410.8348, 910.0573
411.3169, 908.1792
411.7990, 906.0575
412.2811, 903.4872
412.7632, 897.2154
413.2454, 891.5829
413.7275, 896.0701
414.2096, 910.8221
414.6917, 923.6830
415.1738, 922.1964
415.6559, 913.2715
416.1381, 907.3830
416.6202, 908.7992
417.1023, 913.1542
417.5844, 919.9195
418.0665, 927.8624
418.5486, 931.9340
419.0308, 926.2018
419.5129, 917.7962
419.9950, 911.6144
420.4771, 908.0036
420.9592, 907.4649
421.4413, 912.1943
421.9235, 919.8300
422.4056, 926.0991
422.8877, 931.2197
423.3698, 933.8223
423.8519, 932.1830
424.3340, 924.3352
424.8162, 920.9173
425.2983, 925.6992
425.7804, 932.5884
426.2625, 935.8364
426.7446, 933.5524
427.2267, 930.9094
427.7089, 928.2806
428.1910, 925.8356
428.6731, 924.6384
429.1552, 924.5925
429.6373, 926.0334
430.1194, 930.0272
430.6016, 937.2493
431.0837, 941.5178
431.5658, 941.5155
432.0479, 939.6156
432.5300, 940.3684
433.0121, 943.7607
433.4943, 947.3433
433.9764, 950.3695
434.4585, 952.6618
434.9406, 953.3575
435.4227, 952.3182
435.9048, 950.6990
436.3870, 949.1674
436.8691, 947.9264
437.3512, 947.4491
437.8333, 947.3841
438.3154, 948.6448
438.7975, 954.1600
439.2797, 962.9014
439.7618, 968.6680
440.2439, 964.0230
440.7260, 956.6213
441.2081, 954.1658
441.6902, 960.6995
442.1724, 966.6715
442.6545, 965.9551
443.1366, 961.6968
443.6187, 960.0896
444.1008, 965.5638
444.5829, 971.6570
445.0651, 976.6293
445.5472, 980.6693
446.0293, 981.2128
446.5114, 972.5582
446.9935, 963.1917
447.4756, 960.8126
447.9578, 973.3428
448.4399, 981.1235
448.9220, 979.4515
449.4041, 970.6275
449.8862, 968.6170
450.3683, 977.0749
450.8505, 985.3077
451.3326, 986.8541
451.8147, 980.4158
452.2968, 975.1810
452.7789, 971.0075
453.2610, 968.8022
453.7432, 971.3418
454.2253, 978.6763
454.7074, 984.8972
455.1895, 987.8005
455.6716, 987.8861
456.1537, 985.9235
456.6359, 981.7496
457.1180, 977.5723
457.6001, 975.0808
458.0822, 974.1432
458.5643, 974.3728
459.0464, 975.5729
459.5286, 978.1663
460.0107, 983.2122
460.4928, 990.2235
460.9749, 996.9521
461.4570, 1003.046
461.9391, 1007.416
462.4213, 1009.443
462.9034, 1009.130
463.3855, 1008.284
463.8676, 1008.101
464.3497, 1007.358
464.8318, 1004.414
465.3140, 991.2664
465.7961, 983.6812
466.2782, 989.0005
466.7603, 1006.600
467.2424, 1018.989
467.7245, 1022.728
468.2067, 1023.960
468.6888, 1025.744
469.1709, 1029.065
469.6530, 1030.584
470.1351, 1029.392
470.6172, 1027.316
471.0994, 1028.261
471.5815, 1033.196
472.0636, 1037.676
472.5457, 1039.197
473.0278, 1037.905
473.5099, 1037.968
473.9921, 1040.863
474.4742, 1043.298
474.9563, 1037.802
475.4384, 1026.345
475.9205, 1021.620
476.4026, 1030.248
476.8848, 1042.481
477.3669, 1043.666
477.8490, 1035.882
478.3311, 1028.108
478.8132, 1024.682
479.2953, 1024.542
479.7775, 1027.293
480.2596, 1033.111
480.7417, 1037.478
481.2238, 1035.853
481.7059, 1032.422
482.1880, 1031.871
482.6702, 1041.149
483.1523, 1047.703
483.6344, 1044.356
484.1165, 1033.182
484.5986, 1027.870
485.0807, 1037.471
485.5629, 1047.905
486.0450, 1052.208
486.5271, 1044.714
487.0092, 1044.409
487.4913, 1056.943
487.9734, 1072.398
488.4556, 1074.556
488.9377, 1058.176
489.4198, 1044.309
489.9019, 1038.645
490.3840, 1040.271
490.8661, 1044.241
491.3483, 1050.649
491.8304, 1057.464
492.3125, 1064.201
492.7946, 1070.738
493.2767, 1074.484
493.7589, 1074.350
494.2410, 1071.211
494.7231, 1063.958
495.2052, 1055.317
495.6873, 1052.058
496.1694, 1063.945
496.6516, 1077.462
497.1337, 1077.396
497.6158, 1064.396
498.0979, 1054.092
498.5800, 1056.810
499.0621, 1065.616
499.5443, 1074.389
500.0264, 1082.842
500.5085, 1088.730
500.9906, 1090.954
501.4727, 1090.542
501.9548, 1089.683
502.4370, 1086.574
502.9191, 1084.162
503.4012, 1084.007
503.8833, 1086.800
504.3654, 1090.799
504.8475, 1096.709
505.3297, 1100.193
505.8118, 1096.688
506.2939, 1084.473
506.7760, 1076.741
507.2581, 1075.248
507.7402, 1078.231
508.2224, 1083.262
508.7045, 1090.296
509.1866, 1095.694
509.6687, 1097.061
510.1508, 1096.143
510.6329, 1097.074
511.1151, 1099.599
511.5971, 1100.939
512.0793, 1097.296
512.5614, 1091.422
513.0435, 1087.956
513.5256, 1089.356
514.0078, 1091.940
514.4899, 1093.909
514.9720, 1096.359
515.4541, 1102.098
515.9362, 1110.149
516.4183, 1115.434
516.9005, 1115.327
517.3826, 1110.466
517.8647, 1109.602
518.3468, 1118.533
518.8289, 1129.206
519.3110, 1135.342
519.7932, 1131.733
520.2753, 1126.066
520.7574, 1116.903
521.2395, 1108.468
521.7216, 1112.647
522.2037, 1134.165
522.6859, 1152.200
523.1680, 1155.927
523.6501, 1146.323
524.1322, 1138.281
524.6143, 1130.890
525.0964, 1126.200
525.5786, 1130.296
526.0607, 1141.413
526.5428, 1148.596
527.0249, 1147.148
527.5070, 1141.564
527.9891, 1137.656
528.4713, 1135.378
528.9534, 1133.628
529.4355, 1132.185
529.9176, 1131.795
530.3997, 1134.145
530.8818, 1138.216
531.3640, 1138.340
531.8461, 1129.329
532.3282, 1119.844
532.8103, 1116.774
533.2924, 1125.313
533.7745, 1133.077
534.2567, 1138.793
534.7388, 1142.252
535.2209, 1144.023
535.7030, 1144.479
536.1851, 1145.019
536.6672, 1145.940
537.1494, 1146.206
537.6315, 1146.517
538.1136, 1146.944
538.5957, 1149.035
539.0778, 1155.211
539.5599, 1163.680
540.0421, 1163.978
540.5242, 1152.254
541.0063, 1139.706
541.4884, 1143.973
541.9705, 1160.750
542.4526, 1175.425
542.9348, 1178.049
543.4169, 1176.393
543.8990, 1180.629
544.3811, 1190.642
544.8632, 1194.763
545.3453, 1178.838
545.8275, 1159.217
546.3096, 1150.329
546.7917, 1159.536
547.2738, 1167.406
547.7559, 1168.208
548.2380, 1166.783
548.7202, 1168.087
549.2023, 1172.783
549.6844, 1177.075
550.1665, 1180.003
550.6486, 1182.481
551.1307, 1185.964
551.6129, 1190.855
552.0950, 1195.456
552.5771, 1198.391
553.0592, 1199.622
553.5413, 1202.931
554.0234, 1209.571
554.5056, 1216.125
554.9877, 1215.634
555.4698, 1209.664
555.9519, 1205.308
556.4340, 1206.600
556.9161, 1209.962
557.3983, 1211.510
557.8804, 1211.707
558.3625, 1211.851
558.8446, 1213.981
559.3267, 1215.120
559.8088, 1211.944
560.2910, 1202.811
560.7731, 1197.843
561.2552, 1205.383
561.7373, 1215.588
562.2194, 1218.912
562.7015, 1206.313
563.1837, 1198.331
563.6658, 1198.137
564.1479, 1204.044
564.6300, 1207.978
565.1121, 1209.066
565.5942, 1210.884
566.0764, 1215.490
566.5585, 1222.511
567.0406, 1229.081
567.5227, 1235.417
568.0048, 1238.572
568.4869, 1231.885
568.9691, 1219.831
569.4512, 1215.998
569.9333, 1225.041
570.4154, 1236.765
570.8975, 1242.608
571.3796, 1243.658
571.8618, 1242.502
572.3439, 1235.985
572.8260, 1231.348
573.3081, 1233.495
573.7902, 1241.826
574.2723, 1249.765
574.7545, 1255.794
575.2366, 1260.845
575.7187, 1265.800
576.2008, 1272.300
576.6829, 1274.568
577.1650, 1270.109
577.6472, 1263.928
578.1293, 1262.264
578.6114, 1266.155
579.0935, 1268.737
579.5756, 1267.986
580.0577, 1266.402
580.5399, 1271.381
581.0220, 1282.278
581.5041, 1289.660
581.9862, 1285.756
582.4683, 1275.805
582.9504, 1267.339
583.4326, 1261.063
583.9147, 1259.282
584.3968, 1267.249
584.8789, 1278.674
585.3610, 1286.688
585.8431, 1288.377
586.3253, 1288.756
586.8074, 1288.815
587.2895, 1289.533
587.7716, 1290.432
588.2537, 1292.897
588.7358, 1293.264
589.2180, 1290.714
589.7001, 1286.092
590.1822, 1285.588
590.6643, 1290.748
591.1464, 1297.053
591.6285, 1300.472
592.1107, 1301.043
592.5928, 1301.821
593.0749, 1301.923
593.5570, 1301.310
594.0391, 1303.951
594.5212, 1308.932
595.0033, 1310.513
595.4854, 1303.684
595.9675, 1296.551
596.4496, 1298.210
596.9318, 1304.603
597.4139, 1311.150
597.8960, 1319.988
598.3781, 1327.924
598.8602, 1326.356
599.3423, 1311.157
599.8245, 1300.866
600.3066, 1303.058
600.7887, 1311.494
601.2708, 1321.681
601.7529, 1335.883
602.2350, 1346.946
602.7172, 1352.938
603.1993, 1354.410
603.6814, 1354.231
604.1635, 1352.566
604.6456, 1349.342
605.1277, 1343.800
605.6099, 1339.375
606.0920, 1344.145
606.5741, 1355.996
607.0562, 1364.425
607.5383, 1359.284
608.0204, 1348.831
608.5026, 1344.717
608.9847, 1349.040
609.4668, 1355.097
609.9489, 1359.189
610.4310, 1361.118
610.9131, 1362.331
611.3953, 1363.235
611.8774, 1363.002
612.3595, 1361.629
612.8416, 1361.380
613.3237, 1360.538
613.8058, 1355.859
614.2880, 1353.165
614.7701, 1361.112
615.2522, 1375.623
615.7343, 1382.162
616.2164, 1379.975
616.6985, 1378.437
617.1807, 1378.577
617.6628, 1378.016
618.1449, 1377.299
618.6270, 1379.174
619.1091, 1381.857
619.5912, 1382.943
620.0734, 1383.995
620.5555, 1386.634
621.0376, 1391.511
621.5197, 1393.615
622.0018, 1391.421
622.4839, 1390.479
622.9661, 1391.309
623.4482, 1391.691
623.9303, 1387.222
624.4124, 1384.636
624.8945, 1384.415
625.3766, 1387.160
625.8588, 1394.552
626.3409, 1402.329
626.8230, 1403.135
627.3051, 1395.944
627.7872, 1396.342
628.2693, 1411.844
628.7515, 1428.618
629.2336, 1426.362
629.7157, 1411.683
630.1978, 1406.663
630.6799, 1416.598
631.1620, 1429.345
631.6442, 1436.505
632.1263, 1437.597
632.6084, 1434.315
633.0905, 1426.631
633.5726, 1420.733
634.0547, 1415.349
634.5369, 1410.396
635.0190, 1407.036
635.5011, 1406.398
635.9832, 1403.463
636.4653, 1396.359
636.9474, 1386.698
637.4296, 1384.751
637.9117, 1391.350
638.3938, 1399.341
638.8759, 1403.836
639.3580, 1406.399
639.8401, 1411.432
640.3223, 1417.469
640.8044, 1420.479
641.2865, 1420.895
641.7686, 1423.236
642.2507, 1429.181
642.7328, 1437.505
643.2150, 1441.508
643.6971, 1442.096
644.1792, 1442.346
644.6613, 1445.634
645.1434, 1442.939
645.6255, 1438.542
646.1077, 1434.577
646.5898, 1433.310
647.0719, 1436.866
647.5540, 1450.934
648.0361, 1462.979
648.5182, 1462.615
649.0004, 1447.726
649.4825, 1443.086
649.9646, 1451.414
650.4467, 1461.809
650.9288, 1464.334
651.4109, 1462.292
651.8931, 1460.063
652.3752, 1456.504
652.8573, 1453.813
653.3394, 1460.824
653.8215, 1473.081
654.3036, 1486.512
654.7858, 1485.581
655.2679, 1480.590
655.7500, 1476.253
656.2321, 1476.586
656.7142, 1479.200
657.1964, 1481.320
657.6785, 1484.240
658.1606, 1488.848
658.6427, 1493.398
659.1248, 1495.782
659.6069, 1497.159
660.0891, 1496.026
660.5712, 1486.503
661.0533, 1474.340
661.5354, 1476.069
662.0175, 1491.621
662.4996, 1507.532
662.9818, 1513.388
663.4639, 1515.448
663.9460, 1521.562
664.4281, 1531.954
664.9102, 1537.032
665.3923, 1532.584
665.8745, 1527.415
666.3566, 1529.660
666.8387, 1538.204
667.3208, 1539.743
667.8029, 1528.909
668.2850, 1514.766
668.7672, 1513.038
669.2493, 1526.380
669.7314, 1538.475
670.2135, 1540.740
670.6956, 1535.343
671.1777, 1533.513
671.6599, 1537.214
672.1420, 1547.133
672.6241, 1561.746
673.1062, 1571.773
673.5883, 1564.383
674.0704, 1547.892
674.5526, 1541.704
675.0347, 1556.911
675.5168, 1572.080
675.9989, 1574.027
676.4810, 1564.606
676.9631, 1561.360
677.4453, 1567.004
677.9274, 1573.898
678.4095, 1580.576
678.8916, 1589.001
679.3737, 1591.106
679.8558, 1582.273
680.3380, 1569.869
680.8201, 1572.634
681.3022, 1586.941
681.7843, 1595.971
682.2664, 1588.069
682.7485, 1579.042
683.2307, 1588.165
683.7128, 1606.382
684.1949, 1614.313
684.6770, 1597.390
685.1591, 1581.215
685.6412, 1577.474
686.1234, 1583.240
686.6055, 1587.060
687.0876, 1588.373
687.5697, 1589.550
688.0518, 1588.771
688.5339, 1584.632
689.0161, 1586.530
689.4982, 1595.270
689.9803, 1604.276
690.4624, 1606.036
690.9445, 1604.260
691.4266, 1608.807
691.9088, 1623.521
692.3909, 1637.574
692.8730, 1640.948
693.3551, 1637.209
693.8372, 1633.313
694.3193, 1632.527
694.8015, 1632.486
695.2836, 1633.187
695.7657, 1634.152
696.2478, 1634.077
696.7299, 1631.978
697.2120, 1630.599
697.6942, 1630.670
698.1763, 1632.537
698.6584, 1636.120
699.1405, 1641.427
699.6226, 1648.402
700.1047, 1659.921
700.5869, 1672.077
701.0690, 1676.214
701.5511, 1672.690
702.0332, 1669.115
702.5153, 1670.672
702.9974, 1673.905
703.4796, 1676.225
703.9617, 1677.725
704.4438, 1678.267
704.9259, 1675.369
705.4080, 1673.229
705.8901, 1675.467
706.3723, 1684.655
706.8544, 1689.807
707.3365, 1690.040
707.8186, 1688.045
708.3007, 1686.646
708.7828, 1685.545
709.2650, 1682.718
709.7471, 1677.098
710.2292, 1672.578
710.7113, 1675.295
711.1934, 1681.488
711.6755, 1685.904
712.1577, 1684.231
712.6398, 1684.139
713.1219, 1688.438
713.6040, 1692.332
714.0861, 1696.059
714.5682, 1700.553
715.0504, 1705.200
715.5325, 1705.593
716.0146, 1700.710
716.4967, 1701.290
716.9788, 1709.647
717.4609, 1718.527
717.9431, 1719.648
718.4252, 1715.038
718.9073, 1710.877
719.3894, 1710.757
719.8715, 1713.884
720.3536, 1721.347
720.8358, 1727.189
721.3179, 1727.826
721.8000, 1720.777
722.2821, 1716.606
722.7642, 1719.689
723.2463, 1727.883
723.7285, 1734.866
724.2106, 1740.729
724.6927, 1742.599
725.1748, 1742.313
725.6569, 1744.787
726.1390, 1750.272
726.6212, 1756.139
727.1033, 1756.446
727.5854, 1751.961
728.0675, 1748.868
728.5496, 1754.255
729.0317, 1765.025
729.5139, 1773.815
729.9960, 1776.766
730.4781, 1776.949
730.9602, 1777.236
731.4423, 1776.389
731.9244, 1772.658
732.4066, 1761.238
732.8887, 1757.107
733.3708, 1762.146
733.8529, 1771.706
734.3350, 1775.337
734.8171, 1779.737
735.2993, 1788.384
735.7814, 1788.540
736.2635, 1778.730
736.7456, 1770.766
737.2277, 1773.746
737.7098, 1782.745
738.1920, 1793.850
738.6741, 1801.178
739.1562, 1803.788
739.6383, 1801.343
740.1204, 1798.142
740.6025, 1794.490
741.0847, 1792.758
741.5668, 1792.035
742.0489, 1791.950
742.5310, 1793.067
743.0131, 1794.923
743.4952, 1795.255
743.9774, 1793.918
744.4595, 1793.571
744.9416, 1798.237
745.4237, 1809.303
745.9058, 1822.082
746.3879, 1828.128
746.8701, 1828.950
747.3522, 1829.504
747.8343, 1833.797
748.3164, 1831.413
748.7985, 1827.204
749.2806, 1827.931
749.7628, 1831.888
750.2449, 1830.031
750.7270, 1823.456
751.2091, 1825.316
751.6912, 1835.840
752.1733, 1845.573
752.6555, 1848.694
753.1376, 1850.154
753.6197, 1855.538
754.1018, 1861.293
754.5839, 1859.566
755.0660, 1852.719
755.5482, 1848.440
756.0303, 1852.657
756.5124, 1856.918
756.9945, 1857.692
757.4766, 1856.075
757.9587, 1858.299
758.4409, 1865.502
758.9230, 1870.802
759.4051, 1872.821
759.8872, 1874.933
760.3693, 1882.581
760.8514, 1890.350
761.3336, 1894.427
761.8157, 1896.497
762.2978, 1897.049
762.7799, 1892.780
763.2620, 1884.370
763.7441, 1877.787
764.2263, 1882.281
764.7084, 1890.902
765.1905, 1897.335
765.6726, 1897.674
766.1547, 1899.804
766.6368, 1899.229
767.1190, 1897.434
767.6011, 1899.188
768.0832, 1911.372
768.5653, 1923.785
769.0474, 1930.523
769.5295, 1926.293
770.0117, 1912.405
770.4938, 1901.683
770.9759, 1902.190
771.4580, 1909.645
771.9401, 1913.110
772.4222, 1915.230
772.9044, 1918.290
773.3865, 1922.643
773.8686, 1925.436
774.3507, 1926.290
774.8328, 1924.451
775.3149, 1922.625
775.7971, 1922.460
776.2792, 1920.063
776.7613, 1919.634
777.2434, 1925.732
777.7255, 1936.465
778.2076, 1945.154
778.6898, 1949.786
779.1719, 1949.726
779.6540, 1943.961
780.1361, 1935.785
780.6182, 1928.048
781.1003, 1926.065
781.5825, 1937.173
782.0646, 1948.528
782.5467, 1953.577
783.0288, 1952.382
783.5109, 1952.543
783.9930, 1954.755
784.4752, 1958.555
784.9573, 1962.131
785.4394, 1965.348
785.9215, 1967.840
786.4036, 1966.737
786.8857, 1962.224
787.3679, 1957.728
787.8500, 1958.788
788.3321, 1962.315
788.8142, 1968.598
789.2963, 1975.609
789.7784, 1978.387
790.2606, 1976.209
790.7427, 1976.815
791.2248, 1982.401
791.7069, 1987.130
792.1890, 1990.133
792.6711, 1993.317
793.1533, 1994.643
793.6354, 1987.120
794.1175, 1977.846
794.5996, 1975.884
795.0817, 1980.885
795.5638, 1989.346
796.0460, 2000.370
796.5281, 2007.137
797.0102, 2003.538
797.4923, 1995.469
797.9744, 1993.401
798.4565, 1999.219
798.9387, 2006.108
799.4208, 2011.382
799.9029, 2013.633
800.3850, 2013.785
800.8671, 2012.918
801.3492, 2012.467
801.8314, 2009.928
802.3135, 2007.777
802.7956, 2009.016
803.2777, 2014.441
803.7598, 2020.120
804.2419, 2022.736
804.7241, 2024.679
805.2062, 2029.931
805.6883, 2038.979
806.1704, 2040.688
806.6525, 2033.670
807.1346, 2025.841
807.6168, 2019.074
808.0989, 2014.741
808.5810, 2018.119
809.0631, 2027.881
809.5452, 2037.725
810.0273, 2045.763
810.5095, 2050.612
810.9916, 2048.195
811.4737, 2043.364
811.9558, 2042.929
812.4379, 2053.813
812.9200, 2059.967
813.4022, 2057.763
813.8843, 2050.276
814.3664, 2049.827
814.8485, 2056.735
815.3306, 2064.569
815.8127, 2071.392
816.2949, 2077.378
816.7770, 2081.689
817.2591, 2083.446
817.7412, 2085.426
818.2233, 2089.487
818.7054, 2094.468
819.1876, 2099.789
819.6697, 2106.310
820.1518, 2110.609
820.6339, 2110.718
821.1160, 2112.216
821.5981, 2120.192
822.0803, 2134.011
822.5624, 2142.844
823.0445, 2146.845
823.5266, 2148.687
824.0087, 2148.572
824.4908, 2147.948
824.9730, 2148.905
825.4551, 2150.897
825.9372, 2153.870
826.4193, 2161.472
826.9014, 2167.639
827.3835, 2165.238
827.8657, 2148.570
828.3478, 2148.785
828.8299, 2172.796
829.3120, 2198.295
829.7941, 2196.746
830.2762, 2176.510
830.7584, 2168.781
831.2405, 2180.060
831.7226, 2194.778
832.2047, 2200.482
832.6868, 2201.276
833.1689, 2205.347
833.6511, 2217.699
834.1332, 2223.700
834.6153, 2216.115
835.0974, 2208.557
835.5795, 2210.820
836.0616, 2223.403
836.5438, 2227.013
837.0259, 2221.269
837.5080, 2215.729
837.9901, 2220.740
838.4722, 2230.238
838.9543, 2233.995
839.4365, 2233.521
839.9186, 2232.969
840.4007, 2229.728
840.8828, 2225.714
841.3649, 2232.105
841.8470, 2253.342
842.3292, 2267.862
842.8113, 2272.198
843.2934, 2269.879
843.7755, 2259.993
844.2576, 2243.285
844.7397, 2232.159
845.2219, 2236.876
845.7040, 2249.483
846.1861, 2262.292
846.6682, 2268.391
847.1503, 2268.622
847.6324, 2263.240
848.1146, 2257.713
848.5967, 2251.057
849.0788, 2248.173
849.5609, 2252.155
850.0430, 2263.007
850.5251, 2269.387
851.0073, 2269.250
851.4894, 2266.782
851.9715, 2267.667
852.4536, 2273.984
852.9357, 2281.739
853.4178, 2287.341
853.9000, 2289.841
854.3821, 2290.128
854.8642, 2281.253
855.3463, 2277.963
855.8284, 2285.331
856.3105, 2296.749
856.7927, 2299.941
857.2748, 2292.171
857.7569, 2286.938
858.2390, 2292.629
858.7211, 2311.130
859.2032, 2329.452
859.6854, 2339.796
860.1675, 2338.540
860.6496, 2333.148
861.1317, 2333.091
861.6138, 2340.256
862.0959, 2347.008
862.5781, 2348.723
863.0602, 2344.628
863.5423, 2340.688
864.0244, 2339.825
864.5065, 2341.535
864.9886, 2339.563
865.4708, 2336.849
865.9529, 2343.287
866.4350, 2353.849
866.9171, 2355.378
867.3992, 2351.410
867.8813, 2353.808
868.3635, 2374.005
868.8456, 2387.789
869.3277, 2385.379
869.8098, 2371.517
870.2919, 2364.082
870.7740, 2370.075
871.2562, 2381.232
871.7383, 2390.273
872.2204, 2393.622
872.7025, 2395.369
873.1846, 2400.913
873.6667, 2407.621
874.1489, 2404.017
874.6310, 2392.991
875.1131, 2388.867
875.5952, 2393.207
876.0773, 2399.501
876.5594, 2402.324
877.0416, 2404.252
877.5237, 2404.209
878.0058, 2400.066
878.4879, 2398.265
878.9700, 2408.042
879.4521, 2420.824
879.9343, 2422.379
880.4164, 2417.679
880.8985, 2423.246
881.3806, 2435.145
881.8627, 2444.331
882.3448, 2440.090
882.8270, 2433.294
883.3091, 2428.379
883.7912, 2430.101
884.2733, 2439.717
884.7554, 2446.888
885.2375, 2450.471
885.7197, 2456.611
886.2018, 2463.368
886.6839, 2460.813
887.1660, 2453.637
887.6481, 2447.875
888.1302, 2443.599
888.6124, 2443.250
889.0945, 2455.435
889.5766, 2471.025
890.0587, 2482.673
890.5408, 2479.794
891.0229, 2476.290
891.5051, 2476.048
891.9872, 2477.216
892.4693, 2476.300
892.9514, 2476.930
893.4335, 2482.242
893.9156, 2487.273
894.3978, 2487.195
894.8799, 2490.179
895.3620, 2493.432
895.8441, 2493.010
896.3262, 2490.988
896.8083, 2495.832
897.2905, 2503.142
897.7726, 2509.076
898.2547, 2515.017
898.7368, 2522.170
899.2189, 2531.114
899.7010, 2539.833
900.1832, 2539.112
900.6653, 2524.287
901.1474, 2515.466
901.6295, 2525.531
902.1116, 2538.974
902.5938, 2545.130
903.0759, 2545.424
903.5580, 2544.790
904.0401, 2543.982
904.5222, 2545.779
905.0043, 2553.032
905.4865, 2560.770
905.9686, 2560.171
906.4507, 2550.584
906.9328, 2546.153
907.4149, 2554.474
907.8970, 2570.128
908.3792, 2587.869
908.8613, 2603.074
909.3434, 2610.902
909.8255, 2610.176
910.3076, 2603.829
910.7897, 2595.257
911.2719, 2587.279
911.7540, 2580.395
912.2361, 2579.268
912.7182, 2585.754
913.2003, 2600.173
913.6824, 2608.930
914.1646, 2608.150
914.6467, 2613.804
915.1288, 2618.600
915.6109, 2622.464
916.0930, 2623.575
916.5751, 2623.598
917.0573, 2621.942
917.5394, 2618.979
918.0215, 2616.779
918.5036, 2618.569
918.9857, 2626.849
919.4678, 2635.038
919.9500, 2638.940
920.4321, 2639.981
920.9142, 2642.620
921.3963, 2647.282
921.8784, 2654.236
922.3605, 2661.514
922.8426, 2666.740
923.3247, 2673.735
923.8068, 2682.127
924.2889, 2687.148
924.7711, 2681.431
925.2532, 2675.754
925.7353, 2679.247
926.2174, 2689.873
926.6995, 2694.047
927.1816, 2683.842
927.6638, 2678.126
928.1459, 2683.277
928.6280, 2695.630
929.1101, 2706.810
929.5922, 2716.230
930.0743, 2719.911
930.5565, 2715.759
931.0386, 2712.079
931.5207, 2716.070
932.0028, 2722.954
932.4849, 2728.978
932.9670, 2735.001
933.4492, 2739.142
933.9313, 2740.380
934.4134, 2741.783
934.8955, 2746.639
935.3776, 2754.127
935.8597, 2760.439
936.3419, 2765.395
936.8240, 2769.461
937.3061, 2772.403
937.7882, 2774.090
938.2703, 2775.172
938.7524, 2777.441
939.2346, 2780.513
939.7167, 2784.584
940.1988, 2789.658
940.6809, 2795.520
941.1630, 2800.696
941.6451, 2803.351
942.1273, 2805.266
942.6094, 2807.337
943.0915, 2806.519
943.5736, 2805.796
944.0557, 2811.244
944.5378, 2825.268
945.0200, 2832.124
945.5021, 2826.653
945.9842, 2820.567
946.4663, 2818.715
946.9484, 2821.658
947.4305, 2830.181
947.9127, 2842.424
948.3948, 2851.141
948.8769, 2855.576
949.3590, 2857.701
949.8411, 2854.913
950.3232, 2850.261
950.8054, 2850.458
951.2875, 2858.509
951.7696, 2860.441
952.2517, 2854.762
952.7338, 2849.680
953.2159, 2855.254
953.6981, 2867.803
954.1802, 2872.972
954.6623, 2871.510
955.1444, 2870.882
955.6265, 2877.660
956.1086, 2882.188
956.5908, 2877.929
957.0729, 2867.562
957.5550, 2869.028
958.0371, 2886.481
958.5192, 2899.474
959.0013, 2901.267
959.4835, 2896.086
959.9656, 2888.219
960.4477, 2872.254
960.9298, 2857.098
961.4119, 2849.214
961.8940, 2850.699
962.3762, 2858.647
962.8583, 2867.358
963.3404, 2874.522
963.8225, 2880.767
964.3046, 2893.094
964.7867, 2905.363
965.2689, 2911.408
965.7510, 2910.022
966.2331, 2909.503
966.7152, 2910.278
967.1973, 2909.807
967.6794, 2908.764
968.1616, 2907.477
968.6437, 2901.183
969.1258, 2900.150
969.6079, 2907.250
970.0900, 2920.592
970.5721, 2934.586
971.0543, 2944.188
971.5364, 2945.480
972.0185, 2943.508
972.5006, 2944.784
972.9827, 2944.801
973.4648, 2942.337
973.9470, 2938.324
974.4291, 2947.543
974.9112, 2958.465
975.3933, 2965.956
975.8754, 2966.930
976.3575, 2966.007
976.8397, 2966.602
977.3218, 2965.701
977.8039, 2966.157
978.2860, 2976.710
978.7681, 2987.664
979.2502, 2993.937
979.7324, 2996.266
980.2145, 3006.611
980.6966, 3017.666
981.1787, 3028.624
981.6608, 3035.218
982.1429, 3033.163
982.6251, 3027.459
983.1072, 3025.354
983.5893, 3025.910
984.0714, 3025.604
984.5535, 3031.130
985.0356, 3041.966
985.5178, 3053.051
985.9999, 3058.829
986.4820, 3064.481
986.9641, 3065.293
987.4462, 3055.757
987.9283, 3041.515
988.4105, 3039.760
988.8926, 3048.961
989.3747, 3055.087
989.8568, 3050.507
990.3389, 3046.354
990.8210, 3054.029
991.3032, 3066.013
991.7853, 3075.336
992.2674, 3082.977
992.7495, 3100.233
993.2316, 3117.370
993.7137, 3123.543
994.1959, 3118.752
994.6780, 3116.520
995.1601, 3124.313
995.6422, 3138.300
996.1243, 3146.583
996.6064, 3152.312
997.0886, 3167.081
997.5707, 3184.092
998.0528, 3184.876
998.5349, 3166.457
999.0170, 3148.172
999.4991, 3139.009
999.9813, 3142.148
1000.463, 3159.483
1000.945, 3181.416
1001.428, 3196.657
1001.910, 3199.663
1002.392, 3199.681
1002.874, 3196.295
1003.356, 3186.529
1003.838, 3171.801
1004.320, 3159.448
1004.802, 3163.081
1005.285, 3179.366
1005.767, 3198.711
1006.249, 3218.856
1006.731, 3231.711
1007.213, 3232.264
1007.695, 3214.664
1008.177, 3208.378
1008.659, 3217.204
1009.141, 3229.674
1009.624, 3240.672
1010.106, 3252.257
1010.588, 3263.389
1011.070, 3266.615
1011.552, 3264.898
1012.034, 3265.483
1012.516, 3270.452
1012.998, 3267.531
1013.481, 3257.406
1013.963, 3259.133
1014.445, 3276.522
1014.927, 3293.653
1015.409, 3304.436
1015.891, 3309.019
1016.373, 3304.999
1016.855, 3292.565
1017.337, 3284.157
1017.820, 3290.777
1018.302, 3299.629
1018.784, 3302.419
1019.266, 3308.404
1019.748, 3313.312
1020.230, 3312.343
1020.712, 3314.014
1021.194, 3337.651
1021.677, 3366.193
1022.159, 3369.972
1022.641, 3355.192
1023.123, 3345.154
1023.605, 3349.544
1024.087, 3359.897
1024.569, 3374.453
1025.051, 3382.078
1025.533, 3379.307
1026.016, 3369.067
1026.498, 3371.503
1026.980, 3386.879
1027.462, 3401.309
1027.944, 3406.801
1028.426, 3406.396
1028.908, 3398.981
1029.390, 3386.154
1029.873, 3384.647
1030.355, 3399.111
1030.837, 3405.205
1031.319, 3388.133
1031.801, 3363.130
1032.283, 3364.228
1032.765, 3385.528
1033.247, 3406.450
1033.729, 3419.599
1034.212, 3427.333
1034.694, 3431.354
1035.176, 3433.980
1035.658, 3435.113
1036.140, 3434.526
1036.622, 3434.626
1037.104, 3436.632
1037.586, 3440.447
1038.068, 3447.312
1038.551, 3454.736
1039.033, 3459.426
1039.515, 3461.271
1039.997, 3458.237
1040.479, 3445.838
1040.961, 3435.328
1041.443, 3441.869
1041.925, 3461.255
1042.408, 3466.959
1042.890, 3456.940
1043.372, 3452.267
1043.854, 3478.881
1044.336, 3508.004
1044.818, 3513.205
1045.300, 3490.646
1045.782, 3486.450
1046.265, 3506.325
1046.747, 3522.083
1047.229, 3511.859
1047.711, 3491.859
1048.193, 3497.121
1048.675, 3520.469
1049.157, 3537.040
1049.639, 3530.308
1050.121, 3524.498
1050.604, 3525.869
1051.086, 3530.778
1051.568, 3534.995
1052.050, 3538.613
1052.532, 3538.541
1053.014, 3530.010
1053.496, 3522.705
1053.978, 3532.357
1054.460, 3547.532
1054.943, 3550.280
1055.425, 3531.946
1055.907, 3528.768
1056.389, 3546.778
1056.871, 3564.922
1057.353, 3560.934
1057.835, 3542.390
1058.317, 3537.290
1058.800, 3554.230
1059.282, 3575.428
1059.764, 3583.132
1060.246, 3584.217
1060.728, 3585.822
1061.210, 3588.600
1061.692, 3585.163
1062.174, 3576.354
1062.656, 3575.022
1063.139, 3590.504
1063.621, 3611.484
1064.103, 3624.346
1064.585, 3627.218
1065.067, 3627.447
1065.549, 3634.448
1066.031, 3641.135
1066.513, 3647.574
1066.995, 3652.124
1067.478, 3651.602
1067.960, 3648.762
1068.442, 3651.835
1068.924, 3658.509
1069.406, 3656.664
1069.888, 3634.394
1070.370, 3612.247
1070.852, 3602.234
1071.335, 3609.090
1071.817, 3623.150
1072.299, 3640.981
1072.781, 3648.610
1073.263, 3640.852
1073.745, 3633.104
1074.227, 3634.906
1074.709, 3640.137
1075.192, 3644.565
1075.674, 3661.754
1076.156, 3676.573
1076.638, 3682.321
1077.120, 3677.509
1077.602, 3674.170
1078.084, 3677.903
1078.566, 3690.252
1079.048, 3707.735
1079.531, 3716.618
1080.013, 3711.080
1080.495, 3702.245
1080.977, 3697.988
1081.459, 3689.716
1081.941, 3693.428
1082.423, 3713.118
1082.905, 3733.067
1083.387, 3740.471
1083.870, 3739.975
1084.352, 3732.530
1084.834, 3718.276
1085.316, 3708.784
1085.798, 3716.786
1086.280, 3726.038
1086.762, 3729.878
1087.244, 3730.270
1087.726, 3731.193
1088.209, 3729.283
1088.691, 3726.485
1089.173, 3733.233
1089.655, 3744.686
1090.137, 3751.222
1090.619, 3753.329
1091.101, 3754.652
1091.583, 3756.769
1092.066, 3759.967
1092.548, 3766.212
1093.030, 3774.794
1093.512, 3775.713
1093.994, 3767.052
1094.476, 3761.222
1094.958, 3767.366
1095.440, 3781.023
1095.922, 3785.470
1096.405, 3784.105
1096.887, 3784.247
1097.369, 3791.196
1097.851, 3803.082
1098.333, 3810.402
1098.815, 3808.291
1099.297, 3789.339
1099.779, 3780.710
1100.261, 3792.120
1100.744, 3810.179
1101.226, 3822.128
1101.708, 3830.402
1102.190, 3835.412
1102.672, 3829.768
1103.154, 3823.416
1103.636, 3840.949
1104.118, 3859.844
1104.601, 3857.331
1105.083, 3831.664
1105.565, 3822.871
1106.047, 3830.427
1106.529, 3840.501
1107.011, 3850.077
1107.493, 3858.823
1107.975, 3861.089
1108.458, 3860.701
1108.940, 3863.555
1109.422, 3880.274
1109.904, 3877.895
1110.386, 3860.041
1110.868, 3844.169
1111.350, 3844.260
1111.832, 3853.701
1112.314, 3863.609
1112.797, 3873.927
1113.279, 3882.521
1113.761, 3891.835
1114.243, 3902.001
1114.725, 3899.503
1115.207, 3883.788
1115.689, 3878.849
1116.171, 3887.746
1116.653, 3898.177
1117.136, 3904.276
1117.618, 3909.726
1118.100, 3916.396
1118.582, 3920.632
1119.064, 3921.829
1119.546, 3913.087
1120.028, 3919.564
1120.510, 3950.563
1120.993, 3984.237
1121.475, 3987.869
1121.957, 3971.761
1122.439, 3956.911
1122.921, 3945.753
1123.403, 3941.359
1123.885, 3953.652
1124.367, 3964.065
1124.849, 3962.159
1125.332, 3952.091
1125.814, 3953.221
1126.296, 3961.097
1126.778, 3966.380
1127.260, 3964.134
1127.742, 3964.793
1128.224, 3973.635
1128.706, 3988.178
1129.188, 3992.399
1129.671, 3982.436
1130.153, 3981.384
1130.635, 3998.714
1131.117, 4021.036
1131.599, 4030.853
1132.081, 4036.640
1132.563, 4046.887
1133.045, 4058.158
1133.528, 4076.686
1134.010, 4108.863
1134.492, 4131.938
1134.974, 4129.042
1135.456, 4114.661
1135.938, 4118.817
1136.420, 4135.526
1136.902, 4150.696
1137.385, 4155.492
1137.867, 4164.001
1138.349, 4180.930
1138.831, 4199.126
1139.313, 4208.494
1139.795, 4210.588
1140.277, 4215.061
1140.759, 4222.981
1141.241, 4227.827
1141.724, 4220.377
1142.206, 4213.569
1142.688, 4217.185
1143.170, 4227.835
1143.652, 4227.944
1144.134, 4217.326
1144.616, 4214.354
1145.098, 4229.615
1145.580, 4245.361
1146.063, 4239.344
1146.545, 4226.839
1147.027, 4229.883
1147.509, 4257.397
1147.991, 4277.462
1148.473, 4289.670
1148.955, 4296.944
1149.437, 4296.869
1149.920, 4294.239
1150.402, 4295.882
1150.884, 4301.821
1151.366, 4309.710
1151.848, 4322.317
1152.330, 4329.450
1152.812, 4326.244
1153.294, 4321.311
1153.776, 4332.951
1154.259, 4355.050
1154.741, 4371.167
1155.223, 4374.030
1155.705, 4374.374
1156.187, 4375.070
1156.669, 4375.254
1157.151, 4374.302
1157.633, 4373.527
1158.115, 4374.581
1158.598, 4376.921
1159.080, 4378.748
1159.562, 4382.677
1160.044, 4382.701
1160.526, 4370.281
1161.008, 4353.935
1161.490, 4349.676
1161.972, 4358.542
1162.455, 4369.676
1162.937, 4383.473
1163.419, 4391.171
1163.901, 4368.089
1164.383, 4340.989
1164.865, 4338.884
1165.347, 4372.723
1165.829, 4396.492
1166.312, 4407.533
1166.794, 4411.051
1167.276, 4406.152
1167.758, 4401.733
1168.240, 4412.025
1168.722, 4431.402
1169.204, 4448.718
1169.686, 4466.971
1170.168, 4472.978
1170.651, 4461.315
1171.133, 4450.987
1171.615, 4463.824
1172.097, 4486.736
1172.579, 4496.288
1173.061, 4495.656
1173.543, 4496.702
1174.025, 4492.769
1174.507, 4493.946
1174.990, 4505.881
1175.472, 4522.203
1175.954, 4529.857
1176.436, 4531.598
1176.918, 4530.046
1177.400, 4520.210
1177.882, 4514.451
1178.364, 4532.107
1178.847, 4549.619
1179.329, 4545.859
1179.811, 4517.711
1180.293, 4513.667
1180.775, 4533.441
1181.257, 4549.687
1181.739, 4539.901
1182.221, 4529.728
1182.703, 4531.840
1183.186, 4540.238
1183.668, 4548.608
1184.150, 4560.193
1184.632, 4562.297
1185.114, 4551.028
1185.596, 4545.535
1186.078, 4571.931
1186.560, 4600.175
1187.042, 4602.354
1187.525, 4582.190
1188.007, 4581.429
1188.489, 4600.459
1188.971, 4619.397
1189.453, 4631.846
1189.935, 4636.544
1190.417, 4629.138
1190.899, 4616.392
1191.382, 4608.358
1191.864, 4607.271
1192.346, 4620.466
1192.828, 4649.505
1193.310, 4672.142
1193.792, 4659.818
1194.274, 4634.796
1194.756, 4633.520
1195.239, 4653.919
1195.721, 4674.111
1196.203, 4690.371
1196.685, 4706.283
1197.167, 4720.791
1197.649, 4732.066
1198.131, 4739.284
1198.613, 4743.766
1199.095, 4745.700
1199.578, 4745.056
1200.060, 4752.167
1200.542, 4770.420
1201.024, 4780.641
1201.506, 4775.484
1201.988, 4765.876
1202.470, 4779.919
1202.952, 4807.501
1203.434, 4821.306
1203.917, 4800.508
1204.399, 4774.591
1204.881, 4752.223
1205.363, 4743.293
1205.845, 4758.931
1206.327, 4792.625
1206.809, 4814.662
1207.291, 4823.829
1207.774, 4830.908
1208.256, 4848.437
1208.738, 4856.930
1209.220, 4843.901
1209.702, 4825.132
1210.184, 4836.573
1210.666, 4871.110
1211.148, 4884.126
1211.630, 4862.152
1212.113, 4845.803
1212.595, 4870.637
1213.077, 4900.378
1213.559, 4913.104
1214.041, 4911.786
1214.523, 4907.541
1215.005, 4899.118
1215.487, 4896.649
1215.969, 4912.417
1216.452, 4928.798
1216.934, 4928.413
1217.416, 4923.416
1217.898, 4931.799
1218.380, 4954.702
1218.862, 4967.301
1219.344, 4969.927
1219.826, 4974.870
1220.309, 4999.531
1220.791, 5019.973
1221.273, 5012.611
1221.755, 4989.441
1222.237, 4984.572
1222.719, 4999.312
1223.201, 5010.243
1223.683, 5012.038
1224.166, 5015.496
1224.648, 5036.812
1225.130, 5058.591
1225.612, 5062.188
1226.094, 5050.407
1226.576, 5048.226
1227.058, 5055.742
1227.540, 5068.330
1228.022, 5087.212
1228.505, 5104.716
1228.987, 5112.558
1229.469, 5116.217
1229.951, 5122.014
1230.433, 5130.773
1230.915, 5134.805
1231.397, 5133.733
1231.879, 5140.586
1232.361, 5175.189
1232.844, 5210.446
1233.326, 5222.869
1233.808, 5217.714
1234.290, 5208.885
1234.772, 5194.656
1235.254, 5187.734
1235.736, 5189.649
1236.218, 5198.774
1236.701, 5223.821
1237.183, 5247.483
1237.665, 5248.252
1238.147, 5228.024
1238.629, 5222.586
1239.111, 5234.212
1239.593, 5246.584
1240.075, 5253.937
1240.557, 5264.291
1241.040, 5301.295
1241.522, 5337.545
1242.004, 5334.206
1242.486, 5280.969
1242.968, 5255.168
1243.450, 5258.649
1243.932, 5275.607
1244.414, 5311.821
1244.896, 5343.326
1245.379, 5335.280
1245.861, 5307.182
1246.343, 5294.890
1246.825, 5300.311
1247.307, 5326.989
1247.789, 5379.714
1248.271, 5421.160
1248.753, 5409.128
1249.236, 5381.270
1249.718, 5370.810
1250.200, 5375.878
1250.682, 5389.380
1251.164, 5415.682
1251.646, 5432.093
1252.128, 5432.346
1252.610, 5432.412
1253.093, 5455.641
1253.575, 5483.050
1254.057, 5495.436
1254.539, 5491.754
1255.021, 5475.217
1255.503, 5440.352
1255.985, 5429.172
1256.467, 5464.531
1256.949, 5510.685
1257.432, 5530.021
1257.914, 5535.067
1258.396, 5541.424
1258.878, 5551.699
1259.360, 5552.212
1259.842, 5542.470
1260.324, 5531.745
1260.806, 5519.815
1261.288, 5513.786
1261.771, 5528.624
1262.253, 5551.577
1262.735, 5557.037
1263.217, 5537.943
1263.699, 5536.442
1264.181, 5555.360
1264.663, 5575.525
1265.145, 5579.832
1265.628, 5581.582
1266.110, 5592.497
1266.592, 5612.232
1267.074, 5629.986
1267.556, 5642.258
1268.038, 5645.919
1268.520, 5640.725
1269.002, 5637.970
1269.484, 5651.837
1269.967, 5666.441
1270.449, 5664.617
1270.931, 5651.028
1271.413, 5651.236
1271.895, 5664.256
1272.377, 5676.059
1272.859, 5685.565
1273.341, 5691.396
1273.823, 5682.644
1274.306, 5673.083
1274.788, 5677.695
1275.270, 5697.487
1275.752, 5711.016
1276.234, 5718.201
1276.716, 5719.587
1277.198, 5707.705
1277.680, 5703.000
1278.163, 5723.698
1278.645, 5750.544
1279.127, 5762.005
1279.609, 5759.088
1280.091, 5765.302
1280.573, 5780.224
1281.055, 5790.727
1281.537, 5779.485
1282.020, 5771.430
1282.502, 5782.729
1282.984, 5800.493
1283.466, 5803.188
1283.948, 5793.896
1284.430, 5798.068
1284.912, 5819.017
1285.394, 5842.870
1285.876, 5875.209
1286.359, 5888.600
1286.841, 5866.130
1287.323, 5829.067
1287.805, 5825.314
1288.287, 5846.589
1288.769, 5865.857
1289.251, 5877.861
1289.733, 5881.698
1290.215, 5862.267
1290.698, 5856.339
1291.180, 5887.297
1291.662, 5934.023
1292.144, 5931.961
1292.626, 5900.035
1293.108, 5889.103
1293.590, 5927.816
1294.072, 5953.408
1294.555, 5952.909
1295.037, 5948.105
1295.519, 5950.633
1296.001, 5959.479
1296.483, 5974.048
1296.965, 5992.861
1297.447, 6012.669
1297.929, 6037.368
1298.411, 6053.304
1298.894, 6057.314
1299.376, 6060.519
1299.858, 6073.920
1300.340, 6091.538
1300.822, 6103.478
1301.304, 6111.650
1301.786, 6125.982
1302.268, 6153.933
1302.750, 6166.424
1303.233, 6157.695
1303.715, 6145.521
1304.197, 6143.979
1304.679, 6151.489
1305.161, 6175.644
1305.643, 6210.670
1306.125, 6211.874
1306.607, 6172.273
1307.090, 6151.382
1307.572, 6164.077
1308.054, 6187.435
1308.536, 6200.073
1309.018, 6213.994
1309.500, 6247.381
1309.982, 6293.849
1310.464, 6307.315
1310.947, 6289.232
1311.429, 6284.647
1311.911, 6311.837
1312.393, 6345.722
1312.875, 6366.292
1313.357, 6390.095
1313.839, 6434.204
1314.321, 6494.041
1314.803, 6523.486
1315.286, 6529.297
1315.768, 6548.985
1316.250, 6600.557
1316.732, 6665.539
1317.214, 6735.518
1317.696, 6818.605
1318.178, 6909.365
1318.660, 7019.550
1319.142, 7201.192
1319.625, 7447.042
1320.107, 7724.929
1320.589, 8045.042
1321.071, 8357.094
1321.553, 8637.258
1322.035, 8948.452
1322.517, 9351.628
1322.999, 9829.762
1323.482, 10345.54
1323.964, 10901.99
1324.446, 11523.04
1324.928, 12158.86
1325.410, 12980.04
1325.892, 14023.54
1326.374, 15216.26
1326.856, 16465.22
1327.339, 17844.66
1327.821, 19355.10
1328.303, 21066.68
1328.785, 23226.75
1329.267, 25774.14
1329.749, 29211.00
1330.231, 33665.67
1330.713, 39066.52
1331.195, 48810.51
1331.677, 56711.60
1332.160, 56037.41
1332.642, 48322.36
1333.124, 39360.61
1333.606, 29314.10
1334.088, 21299.86
1334.570, 16471.88
1335.052, 13236.17
1335.534, 11276.27
1336.017, 10027.97
1336.499, 9173.517
1336.981, 8660.323
1337.463, 8283.765
1337.945, 8025.906
1338.427, 7804.101
1338.909, 7588.264
1339.391, 7420.489
1339.874, 7323.644
1340.356, 7253.531
1340.838, 7187.481
1341.320, 7124.818
1341.802, 7058.340
1342.284, 6992.908
1342.766, 6939.030
1343.248, 6899.197
1343.730, 6877.350
1344.213, 6877.353
1344.695, 6882.129
1345.177, 6883.386
1345.659, 6878.504
1346.141, 6855.661
1346.623, 6825.440
1347.105, 6817.867
1347.587, 6843.740
1348.069, 6840.890
1348.552, 6803.876
1349.034, 6774.961
1349.516, 6801.158
1349.998, 6833.950
1350.480, 6839.562
1350.962, 6826.837
1351.444, 6807.619
1351.926, 6783.165
1352.409, 6774.730
1352.891, 6784.162
1353.373, 6798.468
1353.855, 6822.563
1354.337, 6832.684
1354.819, 6816.287
1355.301, 6788.740
1355.783, 6771.481
1356.266, 6765.353
1356.748, 6779.344
1357.230, 6814.846
1357.712, 6831.907
1358.194, 6812.179
1358.676, 6790.265
1359.158, 6771.672
1359.640, 6761.931
1360.122, 6773.857
1360.604, 6796.865
1361.087, 6820.329
1361.569, 6842.697
1362.051, 6846.395
1362.533, 6828.129
1363.015, 6814.945
1363.497, 6815.205
1363.979, 6823.016
1364.461, 6842.856
1364.944, 6859.151
1365.426, 6851.508
1365.908, 6825.879
1366.390, 6837.063
1366.872, 6878.721
1367.354, 6902.620
1367.836, 6884.104
1368.318, 6866.412
1368.801, 6872.483
1369.283, 6883.335
1369.765, 6890.341
1370.247, 6894.128
1370.729, 6894.434
1371.211, 6893.128
1371.693, 6894.819
1372.175, 6897.976
1372.657, 6912.998
1373.140, 6944.853
1373.622, 6973.172
1374.104, 6983.951
1374.586, 6984.970
1375.068, 6980.193
1375.550, 6975.921
1376.032, 6988.123
1376.514, 7028.259
1376.996, 7029.130
1377.479, 6989.542
1377.961, 6961.041
1378.443, 6998.227
1378.925, 7032.817
1379.407, 7005.114
1379.889, 6964.212
1380.371, 6969.683
1380.853, 7014.389
1381.336, 7038.872
1381.818, 7043.302
1382.300, 7043.325
1382.782, 7039.873
1383.264, 7042.619
1383.746, 7055.521
1384.228, 7069.104
1384.710, 7076.317
1385.193, 7076.194
1385.675, 7059.492
1386.157, 7032.282
1386.639, 7026.098
1387.121, 7049.938
1387.603, 7071.190
1388.085, 7086.921
1388.567, 7099.675
1389.049, 7112.983
1389.531, 7123.332
1390.014, 7125.872
1390.496, 7123.742
1390.978, 7122.488
1391.460, 7122.366
1391.942, 7131.731
1392.424, 7151.322
1392.906, 7159.538
1393.388, 7124.671
1393.871, 7101.926
1394.353, 7111.904
1394.835, 7136.280
1395.317, 7145.862
1395.799, 7148.438
1396.281, 7163.047
1396.763, 7190.817
1397.245, 7203.213
1397.728, 7188.895
1398.210, 7191.988
1398.692, 7226.921
1399.174, 7260.799
1399.656, 7250.346
1400.138, 7227.123
1400.620, 7221.105
1401.102, 7229.556
1401.584, 7239.596
1402.067, 7250.342
1402.549, 7241.388
1403.031, 7203.754
1403.513, 7184.498
1403.995, 7244.954
1404.477, 7286.457
1404.959, 7260.756
1405.441, 7204.190
1405.923, 7189.847
1406.406, 7204.652
1406.888, 7224.802
1407.370, 7247.149
1407.852, 7261.331
1408.334, 7264.869
1408.816, 7267.585
1409.298, 7272.912
1409.780, 7277.604
1410.263, 7273.023
1410.745, 7269.652
1411.227, 7285.354
1411.709, 7314.197
1412.191, 7308.689
1412.673, 7274.161
1413.155, 7261.721
1413.637, 7295.131
1414.120, 7319.278
1414.602, 7288.433
1415.084, 7264.381
1415.566, 7273.107
1416.048, 7304.191
1416.530, 7347.788
1417.012, 7391.083
1417.494, 7407.409
1417.976, 7382.023
1418.458, 7368.921
1418.941, 7370.867
1419.423, 7376.511
1419.905, 7383.494
1420.387, 7387.494
1420.869, 7377.788
1421.351, 7368.741
1421.833, 7376.416
1422.315, 7397.794
1422.797, 7408.302
1423.280, 7409.547
1423.762, 7409.153
1424.244, 7409.459
1424.726, 7408.151
1425.208, 7397.169
1425.690, 7399.652
1426.172, 7438.680
1426.654, 7485.754
1427.137, 7479.525
1427.619, 7447.210
1428.101, 7435.601
1428.583, 7454.696
1429.065, 7469.485
1429.547, 7479.761
1430.029, 7488.764
1430.511, 7501.710
1430.994, 7506.752
1431.476, 7484.633
1431.958, 7461.619
1432.440, 7460.064
1432.922, 7473.982
1433.404, 7473.939
1433.886, 7466.594
1434.368, 7472.643
1434.850, 7507.073
1435.333, 7536.396
1435.815, 7560.206
1436.297, 7573.076
1436.779, 7565.396
1437.261, 7553.988
1437.743, 7558.224
1438.225, 7571.720
1438.707, 7588.621
1439.189, 7608.824
1439.672, 7608.143
1440.154, 7589.258
1440.636, 7574.361
1441.118, 7573.288
1441.600, 7577.443
1442.082, 7582.322
1442.564, 7594.170
1443.046, 7624.902
1443.529, 7659.402
1444.011, 7667.842
1444.493, 7655.288
1444.975, 7626.640
1445.457, 7569.565
1445.939, 7557.210
1446.421, 7592.045
1446.903, 7633.019
1447.385, 7657.804
1447.868, 7684.706
1448.350, 7751.671
1448.832, 7800.123
1449.314, 7764.840
1449.796, 7672.888
1450.278, 7668.037
1450.760, 7725.030
1451.242, 7770.727
1451.724, 7777.211
1452.207, 7778.650
1452.689, 7775.648
1453.171, 7771.366
1453.653, 7763.641
1454.135, 7760.790
1454.617, 7784.848
1455.099, 7809.484
1455.581, 7796.030
1456.064, 7747.656
1456.546, 7753.507
1457.028, 7801.710
1457.510, 7823.470
1457.992, 7758.598
1458.474, 7737.626
1458.956, 7805.688
1459.438, 7868.155
1459.921, 7856.707
1460.403, 7816.162
1460.885, 7817.028
1461.367, 7839.529
1461.849, 7849.143
1462.331, 7841.816
1462.813, 7847.180
1463.295, 7863.953
1463.777, 7873.717
1464.260, 7859.985
1464.742, 7853.935
1465.224, 7876.692
1465.706, 7901.449
1466.188, 7912.076
1466.670, 7914.824
1467.152, 7922.076
1467.634, 7933.919
1468.116, 7951.977
1468.599, 7980.633
1469.081, 7993.342
1469.563, 7989.177
1470.045, 7989.622
1470.527, 8006.287
1471.009, 8026.531
1471.491, 8049.760
1471.973, 8063.624
1472.456, 8054.827
1472.938, 8033.207
1473.420, 8030.237
1473.902, 8042.228
1474.384, 8063.832
1474.866, 8103.123
1475.348, 8111.149
1475.830, 8081.705
1476.313, 8058.871
1476.795, 8066.949
1477.277, 8078.080
1477.759, 8062.541
1478.241, 8044.770
1478.723, 8045.494
1479.205, 8060.526
1479.687, 8070.820
1480.169, 8079.859
1480.651, 8099.805
1481.134, 8138.552
1481.616, 8166.572
1482.098, 8181.141
1482.580, 8185.038
1483.062, 8176.792
1483.544, 8164.586
1484.026, 8150.683
1484.508, 8142.911
1484.991, 8153.767
1485.473, 8175.543
1485.955, 8162.461
1486.437, 8127.830
1486.919, 8122.937
1487.401, 8166.248
1487.883, 8203.582
1488.365, 8228.526
1488.848, 8237.797
1489.330, 8225.054
1489.812, 8210.289
1490.294, 8218.038
1490.776, 8234.850
1491.258, 8245.245
1491.740, 8252.977
1492.222, 8283.116
1492.704, 8328.057
1493.187, 8348.941
1493.669, 8335.543
1494.151, 8323.237
1494.633, 8317.467
1495.115, 8325.023
1495.597, 8352.485
1496.079, 8379.686
1496.561, 8380.807
1497.043, 8369.208
1497.526, 8353.225
##END=



