##NAMES=Diamond
##RRUFFID=R050207
##IDEAL CHEMISTRY=C
##LOCALITY=Unknown
##OWNER=RRUFF
##SOURCE=Eric Van Valkenburg
##DESCRIPTION=Single crystal,  type I
##STATUS=The identification of this mineral has been confirmed by single-crystal X-ray diffraction.
##URL=rruff.info/R050207
93.90051, -16.69683
94.38263, -20.73234
94.86475, -20.48692
95.34686, -16.02631
95.82898, -11.41847
96.31110, -10.40496
96.79321, -12.61400
97.27533, -14.12981
97.75745, -13.80745
98.23956, -12.16037
98.72168, -11.44808
99.20380, -11.87720
99.68591, -12.61454
100.1680, -12.56679
100.6501, -11.45159
101.1323, -10.96709
101.6144, -11.92653
102.0965, -14.52539
102.5786, -16.03061
103.0607, -16.08014
103.5428, -15.32888
104.0250, -14.85316
104.5071, -14.75733
104.9892, -14.76167
105.4713, -14.87643
105.9534, -15.61260
106.4355, -15.27314
106.9177, -12.88371
107.3998, -9.376614
107.8819, -7.676534
108.3640, -10.13450
108.8461, -12.54672
109.3282, -12.93195
109.8104, -9.229792
110.2925, -5.889832
110.7746, -2.792086
111.2567, -5.6244429E-02
111.7388, 1.494988
112.2209, 0.6233369
112.7031, -0.8623943
113.1852, -1.722705
113.6673, -1.288149
114.1494, -0.6212986
114.6315, 0.1880327
115.1136, 1.144803
115.5958, 1.708475
116.0779, 0.9106770
116.5600, -0.1271578
117.0421, -0.1665575
117.5242, 2.452045
118.0063, 5.284413
118.4885, 6.966174
118.9706, 7.206899
119.4527, 7.227787
119.9348, 6.795165
120.4169, 6.615379
120.8990, 8.023170
121.3812, 13.52023
121.8633, 20.05976
122.3454, 24.58556
122.8275, 26.25381
123.3096, 26.91934
123.7917, 28.07778
124.2739, 29.57202
124.7560, 30.82548
125.2381, 31.14757
125.7202, 31.03329
126.2023, 31.28999
126.6844, 32.04857
127.1665, 33.30885
127.6487, 35.63867
128.1308, 38.92643
128.6129, 41.51526
129.0950, 41.30354
129.5771, 39.05121
130.0592, 37.59801
130.5414, 38.36926
131.0235, 40.24835
131.5056, 39.87414
131.9877, 36.82230
132.4698, 33.65208
132.9520, 33.73138
133.4341, 36.85093
133.9162, 39.39214
134.3983, 39.83807
134.8804, 38.51774
135.3625, 38.15292
135.8447, 39.00174
136.3268, 40.12414
136.8089, 39.82844
137.2910, 37.76147
137.7731, 36.45475
138.2552, 37.49206
138.7374, 41.35440
139.2195, 43.15020
139.7016, 42.22050
140.1837, 39.87016
140.6658, 38.73775
141.1479, 38.99782
141.6301, 39.98259
142.1122, 41.50694
142.5943, 43.94463
143.0764, 45.94384
143.5585, 47.50932
144.0406, 48.63437
144.5228, 49.12875
145.0049, 47.76189
145.4870, 47.27359
145.9691, 49.48666
146.4512, 58.19762
146.9333, 63.39598
147.4155, 63.27815
147.8976, 58.48302
148.3797, 55.00717
148.8618, 53.74404
149.3439, 53.11267
149.8260, 52.07734
150.3082, 49.82308
150.7903, 48.07404
151.2724, 47.29009
151.7545, 47.50047
152.2366, 47.14598
152.7187, 45.39611
153.2009, 43.43711
153.6830, 42.24040
154.1651, 41.98260
154.6472, 42.37799
155.1293, 43.68757
155.6114, 46.09007
156.0935, 47.86546
156.5757, 47.96658
157.0578, 47.56615
157.5399, 47.97736
158.0220, 51.84404
158.5041, 54.56218
158.9862, 53.62130
159.4684, 47.74022
159.9505, 43.42186
160.4326, 43.72291
160.9147, 46.63393
161.3968, 49.17009
161.8789, 51.09501
162.3611, 51.81957
162.8432, 50.31518
163.3253, 45.21384
163.8074, 41.81883
164.2895, 43.86567
164.7716, 49.33428
165.2538, 54.19718
165.7359, 57.05278
166.2180, 58.38903
166.7001, 58.32814
167.1822, 56.33149
167.6643, 54.22583
168.1465, 53.06846
168.6286, 52.69976
169.1107, 52.67515
169.5928, 53.20069
170.0749, 53.76297
170.5570, 53.79765
171.0392, 53.03120
171.5213, 51.95079
172.0034, 50.47668
172.4855, 48.83993
172.9676, 48.04011
173.4497, 49.50917
173.9319, 52.03568
174.4140, 53.86982
174.8961, 54.24759
175.3782, 54.10870
175.8603, 54.97417
176.3424, 56.62187
176.8246, 57.26343
177.3067, 53.88509
177.7888, 48.58694
178.2709, 45.71468
178.7530, 47.86048
179.2351, 52.10324
179.7173, 54.29438
180.1994, 54.46032
180.6815, 53.92619
181.1636, 53.57686
181.6457, 53.40919
182.1278, 53.41755
182.6100, 53.53966
183.0921, 53.86145
183.5742, 54.91582
184.0563, 56.76709
184.5384, 58.16008
185.0205, 57.27079
185.5027, 54.60053
185.9848, 52.57348
186.4669, 52.43456
186.9490, 53.55593
187.4311, 53.91176
187.9132, 53.39631
188.3954, 52.82380
188.8775, 53.66043
189.3596, 55.69636
189.8417, 56.57779
190.3238, 54.65301
190.8059, 50.63129
191.2881, 48.28947
191.7702, 47.82925
192.2523, 48.27466
192.7344, 48.45322
193.2165, 48.36761
193.6986, 48.35724
194.1808, 48.78245
194.6629, 49.54996
195.1450, 49.25738
195.6271, 47.46091
196.1092, 45.68317
196.5913, 46.73677
197.0734, 50.91156
197.5556, 54.31036
198.0377, 54.69965
198.5198, 52.02826
199.0019, 51.13841
199.4840, 52.62803
199.9661, 54.84381
200.4483, 54.61179
200.9304, 51.46337
201.4125, 48.80117
201.8946, 48.41129
202.3767, 50.53740
202.8588, 52.26922
203.3410, 53.85857
203.8231, 54.71724
204.3052, 53.02348
204.7873, 47.84168
205.2694, 43.81669
205.7515, 43.56691
206.2337, 47.84982
206.7158, 51.03669
207.1979, 52.82915
207.6800, 53.71773
208.1621, 54.91868
208.6442, 56.95066
209.1264, 57.74446
209.6085, 55.46344
210.0906, 48.67491
210.5727, 45.68994
211.0548, 47.92642
211.5369, 53.10254
212.0191, 56.24753
212.5012, 57.03899
212.9833, 56.53483
213.4654, 54.74505
213.9475, 50.86784
214.4296, 48.84432
214.9118, 49.39050
215.3939, 51.51521
215.8760, 52.54908
216.3581, 51.86937
216.8402, 51.39337
217.3223, 52.12784
217.8045, 54.51847
218.2866, 56.88098
218.7687, 59.63635
219.2508, 62.15714
219.7329, 62.45532
220.2150, 59.37403
220.6972, 56.10749
221.1793, 54.10182
221.6614, 53.48566
222.1435, 53.91211
222.6256, 56.23178
223.1077, 59.35138
223.5899, 59.80958
224.0720, 55.86893
224.5541, 52.08807
225.0362, 50.73385
225.5183, 53.20208
226.0004, 54.61147
226.4826, 54.39879
226.9647, 53.17665
227.4468, 52.67548
227.9289, 53.03677
228.4110, 53.89752
228.8931, 55.35890
229.3753, 58.58900
229.8574, 59.60637
230.3395, 57.28047
230.8216, 52.94300
231.3037, 50.47238
231.7858, 50.60062
232.2680, 51.50479
232.7501, 52.42500
233.2322, 53.44895
233.7143, 54.27793
234.1964, 54.76187
234.6785, 55.08500
235.1607, 55.93369
235.6428, 58.27929
236.1249, 59.73972
236.6070, 58.81709
237.0891, 53.09951
237.5712, 50.50748
238.0533, 52.41152
238.5355, 57.06989
239.0176, 59.99987
239.4997, 60.02547
239.9818, 59.97253
240.4639, 61.38505
240.9460, 66.13524
241.4282, 67.79079
241.9103, 65.23454
242.3924, 59.94223
242.8745, 55.16948
243.3566, 50.00455
243.8387, 46.75233
244.3209, 46.87618
244.8030, 52.56217
245.2851, 55.59065
245.7672, 54.35369
246.2493, 51.11658
246.7314, 51.09674
247.2136, 56.75701
247.6957, 61.72026
248.1778, 63.28275
248.6599, 59.96997
249.1420, 57.53392
249.6241, 56.00922
250.1063, 55.32444
250.5884, 55.41689
251.0705, 56.72021
251.5526, 58.06609
252.0347, 59.10185
252.5168, 59.87617
252.9990, 60.06287
253.4811, 59.29442
253.9632, 58.17990
254.4453, 57.83301
254.9274, 58.59885
255.4095, 59.48415
255.8917, 60.17223
256.3738, 60.61587
256.8559, 61.09285
257.3380, 61.76400
257.8201, 62.33839
258.3022, 62.18935
258.7844, 60.59991
259.2665, 59.84295
259.7486, 61.06072
260.2307, 64.85459
260.7128, 66.62748
261.1949, 65.87617
261.6771, 63.64748
262.1592, 60.90451
262.6413, 56.80646
263.1234, 54.42923
263.6055, 55.09595
264.0876, 59.06487
264.5698, 62.47819
265.0519, 65.71548
265.5340, 67.88077
266.0161, 67.50352
266.4982, 63.59274
266.9803, 60.20851
267.4625, 58.39272
267.9446, 58.12659
268.4267, 58.42595
268.9088, 59.42317
269.3909, 60.76062
269.8730, 62.38624
270.3552, 64.69650
270.8373, 65.49641
271.3194, 63.45670
271.8015, 59.09510
272.2836, 58.03505
272.7657, 61.39620
273.2479, 65.60955
273.7300, 67.09582
274.2121, 65.23801
274.6942, 64.44234
275.1763, 66.10205
275.6584, 69.50167
276.1406, 70.75442
276.6227, 69.51282
277.1048, 67.24588
277.5869, 64.72024
278.0690, 61.82323
278.5511, 60.04794
279.0333, 59.89582
279.5154, 60.88848
279.9975, 61.37243
280.4796, 61.20462
280.9617, 61.21293
281.4438, 62.28231
281.9260, 64.42282
282.4081, 65.72440
282.8902, 65.63422
283.3723, 64.91153
283.8544, 65.81788
284.3365, 68.57224
284.8187, 70.63553
285.3008, 69.54762
285.7829, 65.68993
286.2650, 63.71771
286.7471, 64.50623
287.2292, 66.52753
287.7114, 66.80526
288.1935, 65.35603
288.6756, 64.19613
289.1577, 65.09801
289.6398, 67.47935
290.1219, 68.30659
290.6041, 67.26598
291.0862, 65.05945
291.5683, 61.78062
292.0504, 57.68496
292.5325, 55.08063
293.0146, 56.15950
293.4968, 59.66325
293.9789, 61.88864
294.4610, 62.65916
294.9431, 62.63570
295.4252, 62.28506
295.9073, 61.70683
296.3895, 61.33266
296.8716, 60.88869
297.3537, 60.86748
297.8358, 63.02141
298.3179, 67.47040
298.8000, 71.34357
299.2822, 71.36735
299.7643, 68.58517
300.2464, 65.59852
300.7285, 62.32574
301.2106, 59.96323
301.6927, 61.02453
302.1748, 65.30585
302.6570, 69.44985
303.1391, 70.77206
303.6212, 70.18909
304.1033, 69.20597
304.5854, 67.72349
305.0675, 66.65095
305.5497, 67.93000
306.0318, 70.93331
306.5139, 72.49902
306.9960, 68.21970
307.4781, 62.13094
307.9602, 59.59268
308.4424, 63.41580
308.9245, 67.98408
309.4066, 68.39787
309.8887, 65.84946
310.3708, 63.66494
310.8529, 64.12854
311.3351, 65.47363
311.8172, 66.25225
312.2993, 66.15615
312.7814, 65.67882
313.2635, 64.96986
313.7456, 64.09296
314.2278, 63.18156
314.7099, 62.17194
315.1920, 61.23326
315.6741, 60.04701
316.1562, 58.26247
316.6383, 58.17530
317.1205, 62.98124
317.6026, 69.44733
318.0847, 73.45680
318.5668, 71.35711
319.0489, 68.67132
319.5310, 67.68047
320.0132, 68.55348
320.4953, 69.28155
320.9774, 69.15453
321.4595, 68.68990
321.9416, 68.34201
322.4237, 68.16100
322.9059, 68.14658
323.3880, 68.81329
323.8701, 69.99684
324.3522, 69.83231
324.8343, 65.55078
325.3164, 61.44381
325.7986, 60.09138
326.2807, 65.93875
326.7628, 69.49976
327.2449, 68.22726
327.7270, 63.70740
328.2091, 62.22027
328.6913, 66.88271
329.1734, 71.92885
329.6555, 75.06966
330.1376, 76.15743
330.6197, 75.61993
331.1018, 71.74117
331.5840, 66.71638
332.0661, 65.12717
332.5482, 70.17509
333.0303, 73.98891
333.5124, 73.60925
333.9945, 67.97643
334.4767, 63.68819
334.9588, 60.79053
335.4409, 59.19792
335.9230, 58.85539
336.4051, 60.00399
336.8872, 61.86214
337.3694, 64.63503
337.8515, 68.21788
338.3336, 70.49663
338.8157, 71.25066
339.2978, 71.22725
339.7799, 71.13600
340.2621, 71.05602
340.7442, 70.26425
341.2263, 68.22577
341.7084, 65.58882
342.1905, 64.85017
342.6726, 66.37878
343.1548, 67.57565
343.6369, 65.62746
344.1190, 60.88956
344.6011, 59.22617
345.0832, 61.96297
345.5653, 66.68878
346.0475, 69.09377
346.5296, 69.30276
347.0117, 68.86750
347.4938, 68.43307
347.9759, 67.99548
348.4580, 67.44744
348.9402, 66.72366
349.4223, 66.25808
349.9044, 66.62629
350.3865, 67.70045
350.8686, 69.07051
351.3507, 71.25366
351.8329, 73.34185
352.3150, 73.78209
352.7971, 72.61009
353.2792, 70.84908
353.7613, 68.13225
354.2434, 65.59991
354.7256, 65.35834
355.2077, 69.88458
355.6898, 74.57094
356.1719, 74.18481
356.6540, 69.94646
357.1361, 66.83750
357.6183, 69.76859
358.1004, 74.11857
358.5825, 75.19677
359.0646, 70.44733
359.5467, 66.71664
360.0288, 69.55382
360.5110, 75.89089
360.9931, 79.89874
361.4752, 76.90430
361.9573, 72.87775
362.4394, 71.01589
362.9215, 72.00513
363.4037, 72.61225
363.8858, 71.23312
364.3679, 69.24019
364.8500, 68.07878
365.3321, 68.85078
365.8142, 69.66514
366.2964, 70.06730
366.7785, 70.05638
367.2606, 70.02604
367.7427, 70.50018
368.2248, 70.64882
368.7069, 69.94753
369.1891, 66.63321
369.6712, 64.77385
370.1533, 65.02357
370.6354, 66.81755
371.1175, 68.43147
371.5996, 69.70525
372.0818, 71.01192
372.5639, 72.68901
373.0460, 75.26344
373.5281, 76.38428
374.0102, 75.56538
374.4923, 73.74757
374.9745, 72.18145
375.4566, 70.73822
375.9387, 70.04523
376.4208, 70.66407
376.9029, 72.44561
377.3850, 72.65292
377.8672, 70.74827
378.3493, 68.89260
378.8314, 69.76264
379.3135, 73.44061
379.7956, 75.48457
380.2777, 74.58910
380.7599, 72.06741
381.2420, 71.28637
381.7241, 72.24390
382.2062, 73.46704
382.6883, 74.19383
383.1704, 74.42913
383.6525, 74.05270
384.1346, 72.94225
384.6168, 71.63834
385.0989, 70.65546
385.5810, 70.00727
386.0631, 69.68907
386.5452, 70.14756
387.0273, 70.73184
387.5095, 70.14381
387.9916, 68.38210
388.4737, 67.29258
388.9558, 69.50656
389.4379, 72.90582
389.9200, 74.60377
390.4022, 72.37585
390.8843, 69.69293
391.3664, 68.80766
391.8485, 69.39555
392.3306, 70.18566
392.8127, 69.72128
393.2949, 69.80431
393.7770, 72.11019
394.2591, 78.24794
394.7412, 83.04092
395.2233, 84.32309
395.7054, 83.31538
396.1876, 81.90610
396.6697, 80.21799
397.1518, 78.46050
397.6339, 76.55131
398.1160, 74.40005
398.5981, 72.88309
399.0803, 72.11831
399.5624, 71.96277
400.0445, 72.34549
400.5266, 74.14226
401.0087, 75.18863
401.4908, 74.76299
401.9730, 73.40035
402.4551, 73.39143
402.9372, 75.64415
403.4193, 77.77404
403.9014, 78.90583
404.3835, 79.33137
404.8657, 77.01530
405.3478, 70.30097
405.8299, 62.99430
406.3120, 61.70501
406.7941, 67.35995
407.2762, 72.23014
407.7584, 73.51837
408.2405, 71.93018
408.7226, 71.45493
409.2047, 72.24219
409.6868, 73.06987
410.1689, 72.36386
410.6511, 70.57192
411.1332, 70.22652
411.6153, 72.29191
412.0974, 75.06952
412.5795, 75.26864
413.0616, 73.50401
413.5438, 72.80533
414.0259, 77.29994
414.5080, 82.99622
414.9901, 83.17117
415.4722, 76.75441
415.9543, 70.66684
416.4365, 71.71651
416.9186, 76.51335
417.4007, 79.84470
417.8828, 79.03661
418.3649, 76.87894
418.8470, 74.52469
419.3292, 72.06580
419.8113, 70.12314
420.2934, 68.56326
420.7755, 67.83849
421.2576, 68.43987
421.7397, 71.48293
422.2219, 73.82253
422.7040, 74.73454
423.1861, 74.53406
423.6682, 73.80333
424.1503, 70.49538
424.6324, 68.77568
425.1146, 71.00060
425.5967, 78.04384
426.0788, 80.67249
426.5609, 75.43914
427.0430, 68.86718
427.5251, 66.37204
428.0073, 69.85777
428.4894, 73.05248
428.9715, 75.53297
429.4536, 77.17353
429.9357, 77.23542
430.4178, 75.07057
430.9000, 73.51297
431.3821, 74.53844
431.8642, 78.20753
432.3463, 80.28909
432.8284, 80.67027
433.3105, 79.84444
433.7927, 77.96231
434.2748, 75.18822
434.7569, 72.90231
435.2390, 71.43741
435.7211, 70.79258
436.2032, 71.36810
436.6854, 73.05084
437.1675, 74.56104
437.6496, 74.50208
438.1317, 73.84470
438.6138, 74.46858
439.0959, 77.22095
439.5781, 79.24326
440.0602, 77.56484
440.5423, 73.54166
441.0244, 69.66496
441.5065, 65.50916
441.9886, 63.09419
442.4708, 64.42569
442.9529, 69.38268
443.4350, 74.08409
443.9171, 78.35847
444.3992, 81.05322
444.8813, 81.22643
445.3635, 74.70896
445.8456, 71.03931
446.3277, 74.09092
446.8098, 80.91345
447.2919, 84.11972
447.7740, 80.40472
448.2562, 76.63931
448.7383, 74.74732
449.2204, 74.95473
449.7025, 75.59457
450.1846, 77.21863
450.6667, 78.57563
451.1489, 78.23362
451.6310, 75.44486
452.1131, 74.12684
452.5952, 75.42695
453.0773, 78.03400
453.5594, 77.81438
454.0416, 74.49664
454.5237, 71.49768
455.0058, 70.57973
455.4879, 71.51079
455.9700, 73.47035
456.4521, 76.69968
456.9343, 79.65118
457.4164, 80.33960
457.8985, 79.23608
458.3806, 77.84335
458.8627, 76.25204
459.3448, 75.35195
459.8270, 76.88485
460.3091, 80.07157
460.7912, 82.33781
461.2733, 80.72562
461.7554, 78.47868
462.2375, 78.71564
462.7197, 82.47403
463.2018, 85.33611
463.6839, 84.72012
464.1660, 82.29117
464.6481, 80.04652
465.1302, 78.11755
465.6123, 76.96146
466.0945, 77.01788
466.5766, 78.06948
467.0587, 78.52334
467.5408, 77.41125
468.0229, 76.70216
468.5050, 76.97550
468.9872, 78.80733
469.4693, 79.72661
469.9514, 80.32150
470.4335, 80.79733
470.9156, 80.52611
471.3977, 78.77234
471.8799, 76.91606
472.3620, 75.91534
472.8441, 75.81823
473.3262, 76.31490
473.8083, 77.21246
474.2904, 78.01073
474.7726, 78.55852
475.2547, 78.81152
475.7368, 78.32641
476.2189, 76.95595
476.7010, 75.29739
477.1831, 73.77624
477.6653, 72.61272
478.1474, 72.29812
478.6295, 73.86311
479.1116, 75.66936
479.5937, 75.77800
480.0758, 74.41431
480.5580, 73.26160
481.0401, 74.36783
481.5222, 75.84939
482.0043, 75.53655
482.4864, 71.67721
482.9685, 69.30853
483.4507, 71.64729
483.9328, 76.19621
484.4149, 79.52176
484.8970, 80.78040
485.3791, 81.13731
485.8612, 80.43501
486.3434, 78.77729
486.8255, 77.54575
487.3076, 76.73632
487.7897, 76.05286
488.2718, 75.24333
488.7539, 74.01385
489.2361, 73.25280
489.7182, 73.09621
490.2003, 73.57958
490.6824, 75.12141
491.1645, 78.03766
491.6466, 79.98956
492.1288, 79.78798
492.6109, 78.03928
493.0930, 77.20148
493.5751, 77.38818
494.0572, 77.83685
494.5393, 77.39463
495.0215, 76.68564
495.5036, 77.50337
495.9857, 80.30982
496.4678, 83.31551
496.9499, 85.41833
497.4320, 86.58055
497.9142, 86.63705
498.3963, 85.01205
498.8784, 83.27984
499.3605, 81.66793
499.8426, 79.89451
500.3247, 77.95822
500.8069, 77.82207
501.2890, 78.21574
501.7711, 78.28411
502.2532, 76.54408
502.7353, 75.08052
503.2174, 73.74900
503.6996, 73.00818
504.1817, 73.23470
504.6638, 75.86415
505.1459, 78.44231
505.6280, 80.50208
506.1101, 81.72141
506.5923, 82.76832
507.0744, 84.17194
507.5565, 85.17111
508.0386, 84.80131
508.5207, 82.82472
509.0028, 82.36047
509.4850, 83.76608
509.9671, 85.26362
510.4492, 84.37325
510.9313, 81.61277
511.4134, 78.90938
511.8955, 76.50116
512.3776, 75.71429
512.8597, 79.20326
513.3419, 85.29960
513.8240, 89.56982
514.3061, 88.81928
514.7882, 85.91845
515.2703, 82.19728
515.7524, 78.08936
516.2346, 75.59943
516.7167, 76.14494
517.1988, 77.75007
517.6809, 78.87354
518.1630, 80.57664
518.6451, 81.47176
519.1273, 80.83881
519.6094, 79.06473
520.0915, 77.90851
520.5736, 77.71763
521.0557, 77.80455
521.5378, 78.01752
522.0200, 78.22930
522.5021, 78.41956
522.9842, 78.49001
523.4663, 79.46600
523.9484, 82.64523
524.4305, 87.50283
524.9127, 88.95652
525.3948, 86.06142
525.8769, 82.16225
526.3590, 81.62150
526.8411, 83.54197
527.3232, 84.83602
527.8054, 84.39205
528.2875, 83.32401
528.7696, 82.60938
529.2517, 82.19341
529.7338, 82.01355
530.2159, 81.17390
530.6981, 80.79385
531.1802, 82.26556
531.6623, 86.80694
532.1444, 89.91473
532.6265, 88.94743
533.1086, 86.33711
533.5908, 84.61317
534.0729, 86.18815
534.5550, 86.57182
535.0371, 84.89947
535.5192, 81.70198
536.0013, 79.02125
536.4835, 76.17603
536.9656, 75.39922
537.4477, 78.36501
537.9298, 84.91053
538.4119, 87.94996
538.8940, 87.01465
539.3762, 84.68932
539.8583, 82.42314
540.3404, 80.42845
540.8225, 80.22933
541.3046, 82.51187
541.7867, 85.16024
542.2689, 85.04964
542.7510, 83.10382
543.2331, 81.81416
543.7152, 82.83910
544.1973, 84.67983
544.6794, 86.67947
545.1616, 88.61024
545.6437, 89.52795
546.1258, 88.17267
546.6079, 86.32066
547.0900, 84.89661
547.5721, 83.93880
548.0543, 83.61063
548.5364, 84.80758
549.0185, 86.14510
549.5006, 86.27351
549.9827, 83.62971
550.4648, 82.72546
550.9470, 84.86108
551.4291, 88.55221
551.9112, 90.00709
552.3933, 88.96086
552.8754, 87.07068
553.3575, 84.40621
553.8397, 81.37120
554.3218, 80.14648
554.8039, 80.71676
555.2860, 81.56371
555.7681, 81.56215
556.2502, 81.14233
556.7324, 81.04677
557.2145, 81.34508
557.6966, 81.78708
558.1787, 82.47470
558.6608, 82.97247
559.1429, 82.99736
559.6251, 81.83743
560.1072, 81.11265
560.5893, 81.35703
561.0714, 81.50265
561.5535, 81.96031
562.0356, 83.37334
562.5178, 84.92156
562.9999, 85.55706
563.4820, 85.36904
563.9641, 85.10606
564.4462, 84.45597
564.9283, 83.34135
565.4105, 83.25729
565.8926, 84.42789
566.3747, 85.95918
566.8568, 87.46634
567.3389, 88.51361
567.8210, 88.39920
568.3032, 87.39037
568.7853, 86.79369
569.2674, 87.03822
569.7495, 87.49096
570.2316, 87.36129
570.7137, 87.46738
571.1959, 87.78368
571.6780, 88.26530
572.1601, 87.73214
572.6422, 86.10302
573.1243, 84.15028
573.6064, 83.52037
574.0886, 84.53937
574.5707, 86.22368
575.0528, 88.20793
575.5349, 91.99986
576.0170, 92.99065
576.4991, 91.11959
576.9813, 89.19724
577.4634, 88.20255
577.9455, 87.52361
578.4276, 86.48684
578.9097, 86.77483
579.3918, 88.39572
579.8740, 90.06168
580.3561, 90.96482
580.8382, 90.64088
581.3203, 89.48032
581.8024, 88.18167
582.2845, 87.22081
582.7667, 85.86407
583.2488, 84.69043
583.7309, 85.00301
584.2130, 86.53290
584.6951, 87.99232
585.1772, 88.86593
585.6594, 89.41817
586.1415, 89.55148
586.6236, 89.22666
587.1057, 89.13403
587.5878, 89.62533
588.0699, 91.54092
588.5521, 93.84872
589.0342, 95.46299
589.5163, 93.88867
589.9984, 88.33295
590.4805, 84.66898
590.9626, 85.03644
591.4448, 89.19277
591.9269, 90.96335
592.4090, 90.73402
592.8911, 89.97260
593.3732, 88.86980
593.8553, 87.01081
594.3375, 85.93230
594.8196, 86.89393
595.3017, 88.43652
595.7838, 87.39523
596.2659, 85.10163
596.7480, 84.66077
597.2302, 89.42141
597.7123, 93.96777
598.1944, 95.45328
598.6765, 94.59856
599.1586, 93.08768
599.6407, 89.78695
600.1229, 87.07695
600.6050, 86.20166
601.0871, 87.33961
601.5692, 88.13696
602.0513, 88.47963
602.5334, 89.30476
603.0156, 90.81258
603.4977, 92.41998
603.9798, 93.41659
604.4619, 95.04418
604.9440, 96.03936
605.4261, 93.14041
605.9083, 87.29252
606.3904, 84.16480
606.8725, 85.57044
607.3546, 88.46629
607.8367, 89.84834
608.3188, 90.11130
608.8010, 89.96522
609.2831, 89.62115
609.7652, 89.18465
610.2473, 88.56551
610.7294, 87.98351
611.2115, 88.47425
611.6937, 91.17161
612.1758, 93.11000
612.6579, 92.54408
613.1400, 89.06801
613.6221, 87.88850
614.1042, 88.75463
614.5864, 90.12219
615.0685, 91.50336
615.5506, 94.68007
616.0327, 95.60401
616.5148, 92.90395
616.9969, 89.08086
617.4791, 88.39413
617.9612, 90.27052
618.4433, 92.15491
618.9254, 92.79437
619.4075, 92.45090
619.8896, 92.91105
620.3718, 94.37586
620.8539, 95.53857
621.3360, 92.76324
621.8181, 89.41348
622.3002, 87.50017
622.7823, 87.08492
623.2645, 86.89182
623.7466, 88.41843
624.2287, 90.49235
624.7108, 92.61621
625.1929, 94.21342
625.6750, 94.45245
626.1572, 92.53296
626.6393, 90.42026
627.1214, 90.58309
627.6035, 93.09878
628.0856, 94.76905
628.5677, 94.96259
629.0499, 94.58940
629.5320, 95.17281
630.0141, 96.34974
630.4962, 96.96380
630.9783, 96.00516
631.4604, 94.39883
631.9426, 92.93562
632.4247, 91.67874
632.9068, 90.19946
633.3889, 87.71681
633.8710, 86.31691
634.3531, 87.87476
634.8353, 91.16151
635.3174, 93.06201
635.7995, 93.21446
636.2816, 93.30744
636.7637, 93.84492
637.2458, 95.42407
637.7280, 95.90839
638.2101, 94.77679
638.6922, 92.89867
639.1743, 93.24354
639.6564, 95.71388
640.1385, 97.01076
640.6207, 95.74126
641.1028, 93.58134
641.5849, 92.79565
642.0670, 93.50673
642.5491, 95.12403
643.0313, 97.28175
643.5134, 98.86604
643.9955, 99.32458
644.4776, 98.60513
644.9597, 97.46465
645.4418, 96.85750
645.9240, 96.57434
646.4061, 96.75745
646.8882, 95.82124
647.3703, 93.42371
647.8524, 88.09344
648.3345, 85.19695
648.8167, 87.83641
649.2988, 95.20309
649.7809, 98.55323
650.2630, 97.78912
650.7451, 95.94869
651.2272, 94.40266
651.7094, 93.40815
652.1915, 94.48524
652.6736, 99.01440
653.1557, 103.0639
653.6378, 103.4599
654.1199, 101.5192
654.6021, 99.15266
655.0842, 95.27758
655.5663, 92.77003
656.0484, 93.37651
656.5305, 95.94607
657.0126, 96.55636
657.4948, 93.75387
657.9769, 91.68092
658.4590, 91.72391
658.9411, 93.31570
659.4232, 94.05718
659.9053, 93.86956
660.3875, 93.76927
660.8696, 94.72623
661.3517, 96.09249
661.8338, 95.93571
662.3159, 94.33761
662.7980, 93.09602
663.2802, 93.75630
663.7623, 95.31358
664.2444, 96.98409
664.7265, 98.61633
665.2086, 99.43894
665.6907, 98.62959
666.1729, 97.25417
666.6550, 96.18903
667.1371, 95.77024
667.6192, 95.07861
668.1013, 93.50451
668.5834, 92.18237
669.0656, 93.01164
669.5477, 96.21052
670.0297, 98.77957
670.5118, 100.2308
670.9940, 100.9643
671.4761, 101.6844
671.9582, 102.1105
672.4403, 101.1789
672.9224, 96.52782
673.4045, 91.90080
673.8867, 90.86000
674.3688, 92.42113
674.8509, 94.43585
675.3330, 96.56814
675.8151, 98.88981
676.2972, 101.3343
676.7794, 103.3924
677.2615, 103.4087
677.7436, 99.96374
678.2257, 97.33971
678.7078, 97.25156
679.1899, 99.77737
679.6721, 100.4375
680.1542, 99.36154
680.6363, 98.19073
681.1184, 98.90054
681.6005, 101.1725
682.0826, 102.6340
682.5648, 101.1135
683.0469, 98.31085
683.5290, 96.71655
684.0111, 96.95737
684.4932, 96.78535
684.9753, 94.17188
685.4575, 92.87390
685.9396, 94.74384
686.4217, 97.31640
686.9038, 98.39332
687.3859, 97.04943
687.8680, 96.06369
688.3502, 96.72149
688.8323, 98.79668
689.3144, 100.3643
689.7965, 100.9772
690.2786, 100.9987
690.7607, 100.5192
691.2429, 100.2091
691.7250, 101.7192
692.2071, 104.0418
692.6892, 105.3703
693.1713, 104.3701
693.6534, 103.7224
694.1356, 103.6053
694.6177, 103.6190
695.0998, 103.7952
695.5819, 105.9103
696.0640, 106.6124
696.5461, 104.6972
697.0283, 99.47979
697.5104, 96.85682
697.9925, 97.58689
698.4746, 99.48357
698.9567, 100.0688
699.4388, 99.08712
699.9210, 98.43013
700.4031, 99.18807
700.8852, 100.6095
701.3673, 101.3277
701.8494, 101.3696
702.3315, 101.2543
702.8137, 100.8409
703.2958, 100.2439
703.7779, 101.5121
704.2600, 104.9585
704.7421, 107.9185
705.2242, 108.2532
705.7064, 105.9952
706.1885, 102.6921
706.6706, 99.22884
707.1527, 97.58770
707.6348, 98.39459
708.1169, 100.1506
708.5991, 102.2376
709.0812, 104.1640
709.5633, 104.1703
710.0454, 101.7676
710.5275, 98.64874
711.0096, 96.15424
711.4918, 94.67979
711.9739, 95.51830
712.4560, 99.16505
712.9381, 104.2467
713.4202, 106.5375
713.9023, 106.4707
714.3845, 106.3260
714.8666, 106.8870
715.3487, 105.3668
715.8308, 103.2823
716.3129, 102.5503
716.7950, 103.2979
717.2772, 104.5917
717.7593, 105.1451
718.2414, 104.3406
718.7235, 102.7692
719.2056, 102.1827
719.6877, 102.3148
720.1699, 101.4486
720.6520, 99.33428
721.1341, 98.08064
721.6162, 98.84793
722.0983, 100.2071
722.5804, 101.1379
723.0626, 101.2330
723.5447, 100.4378
724.0268, 100.8968
724.5089, 102.4028
724.9910, 103.9779
725.4731, 102.2091
725.9553, 101.0009
726.4374, 101.5769
726.9195, 102.8248
727.4016, 102.7482
727.8837, 101.5723
728.3658, 99.89907
728.8480, 98.57263
729.3301, 99.47282
729.8122, 102.2588
730.2943, 104.3366
730.7764, 102.5893
731.2585, 99.38052
731.7407, 98.27821
732.2228, 99.50089
732.7049, 101.2808
733.1870, 103.5702
733.6691, 107.1239
734.1512, 108.0244
734.6334, 104.7651
735.1155, 100.1747
735.5976, 98.73525
736.0797, 99.52309
736.5618, 100.6000
737.0439, 102.3865
737.5261, 104.9259
738.0082, 108.1477
738.4903, 110.8128
738.9724, 110.2429
739.4545, 103.4034
739.9366, 98.60774
740.4188, 101.5784
740.9009, 109.4332
741.3830, 112.1749
741.8651, 107.3875
742.3472, 102.2524
742.8293, 99.50607
743.3115, 99.66978
743.7936, 100.3308
744.2757, 101.2497
744.7578, 102.1021
745.2399, 103.1514
745.7220, 104.0771
746.2042, 104.1377
746.6863, 103.4258
747.1684, 102.9987
747.6505, 104.9553
748.1326, 106.7675
748.6147, 106.0684
749.0969, 101.8206
749.5790, 99.87186
750.0611, 101.0911
750.5432, 103.1212
751.0253, 105.4082
751.5074, 108.0067
751.9896, 108.6351
752.4717, 107.1621
752.9538, 105.6422
753.4359, 105.2142
753.9180, 105.2301
754.4001, 104.6031
754.8823, 104.5794
755.3644, 105.3211
755.8465, 106.7788
756.3286, 107.2036
756.8107, 106.2917
757.2928, 105.2382
757.7750, 104.6551
758.2571, 104.6520
758.7392, 104.8097
759.2213, 105.3401
759.7034, 106.4120
760.1855, 107.9435
760.6677, 110.0044
761.1498, 111.0536
761.6319, 109.1035
762.1140, 105.8605
762.5961, 104.8406
763.0782, 106.1323
763.5604, 107.1908
764.0425, 105.4031
764.5246, 103.1883
765.0067, 103.0157
765.4888, 107.8252
765.9709, 110.6108
766.4531, 109.8904
766.9352, 107.7207
767.4173, 106.7055
767.8994, 106.9778
768.3815, 107.6095
768.8636, 108.7006
769.3458, 109.6534
769.8279, 108.8450
770.3100, 106.9809
770.7921, 106.3183
771.2742, 108.5392
771.7563, 110.9900
772.2385, 112.1378
772.7206, 112.1469
773.2027, 111.4171
773.6848, 109.8411
774.1669, 107.6474
774.6490, 103.9782
775.1312, 100.1424
775.6133, 99.23912
776.0954, 101.6659
776.5775, 104.5092
777.0596, 107.6007
777.5417, 110.0764
778.0239, 108.9237
778.5060, 105.2161
778.9881, 103.0960
779.4702, 106.5931
779.9523, 110.5730
780.4344, 111.2853
780.9166, 109.8538
781.3987, 108.6614
781.8808, 108.5095
782.3629, 107.8765
782.8450, 106.6064
783.3271, 105.7399
783.8093, 106.0280
784.2914, 107.5350
784.7735, 109.1481
785.2556, 111.0989
785.7377, 112.4788
786.2198, 110.7220
786.7020, 106.9319
787.1841, 104.5863
787.6662, 107.4628
788.1483, 110.5413
788.6304, 109.9865
789.1125, 106.0471
789.5947, 104.2246
790.0768, 106.2303
790.5589, 108.6602
791.0410, 111.6447
791.5231, 115.7722
792.0052, 116.8620
792.4874, 113.3512
792.9695, 108.5989
793.4516, 107.5668
793.9337, 109.7171
794.4158, 112.7052
794.8979, 114.3150
795.3801, 114.5396
795.8622, 112.8805
796.3443, 111.2497
796.8264, 110.5960
797.3085, 110.5025
797.7906, 109.4813
798.2728, 106.5571
798.7549, 105.0477
799.2370, 105.7574
799.7191, 107.3559
800.2012, 106.9097
800.6833, 105.6367
801.1655, 105.2371
801.6476, 105.6489
802.1297, 105.9923
802.6118, 105.2869
803.0939, 105.1009
803.5760, 105.8421
804.0582, 108.2032
804.5403, 108.2609
805.0224, 107.2158
805.5045, 105.3455
805.9866, 105.5622
806.4688, 109.5335
806.9509, 116.3091
807.4330, 119.8792
807.9151, 119.2773
808.3972, 115.6492
808.8793, 111.6629
809.3615, 108.9673
809.8436, 108.5424
810.3257, 109.3750
810.8078, 109.2289
811.2899, 108.0000
811.7720, 107.3167
812.2542, 109.2738
812.7363, 109.9523
813.2184, 109.2963
813.7005, 108.2237
814.1826, 109.2862
814.6647, 112.7526
815.1469, 116.4684
815.6290, 117.7215
816.1111, 115.4126
816.5932, 111.3023
817.0753, 108.5286
817.5574, 107.7879
818.0396, 107.9046
818.5217, 108.2015
819.0038, 110.4679
819.4859, 114.2979
819.9680, 116.4901
820.4501, 114.7173
820.9323, 112.0587
821.4144, 110.0717
821.8965, 108.4779
822.3786, 106.5801
822.8607, 105.9504
823.3428, 107.8013
823.8250, 111.9177
824.3071, 115.2776
824.7892, 115.5062
825.2713, 113.9065
825.7534, 112.4697
826.2355, 111.6850
826.7177, 111.3210
827.1998, 111.7153
827.6819, 112.0887
828.1640, 111.1070
828.6461, 109.4518
829.1282, 108.5150
829.6104, 108.2572
830.0925, 108.8128
830.5746, 110.0380
831.0567, 110.8471
831.5388, 111.1655
832.0209, 113.0838
832.5031, 116.2280
832.9852, 116.8816
833.4673, 114.7442
833.9494, 110.8922
834.4315, 109.7301
834.9136, 110.3998
835.3957, 111.3909
835.8778, 111.7531
836.3599, 111.8127
836.8420, 112.5674
837.3242, 113.6227
837.8063, 114.2728
838.2884, 113.4295
838.7705, 111.0611
839.2526, 109.3915
839.7347, 110.6949
840.2169, 115.4131
840.6990, 119.3324
841.1811, 119.8559
841.6632, 117.7687
842.1453, 113.6431
842.6274, 111.3707
843.1096, 112.0770
843.5917, 114.8429
844.0738, 116.0999
844.5559, 114.1842
845.0380, 111.4172
845.5201, 110.5733
846.0023, 111.3893
846.4844, 111.7148
846.9665, 110.0114
847.4486, 108.3817
847.9307, 109.3329
848.4128, 112.3198
848.8950, 113.5224
849.3771, 113.3113
849.8592, 113.1182
850.3413, 113.1461
850.8234, 112.5257
851.3055, 111.0663
851.7877, 109.3311
852.2698, 109.4569
852.7519, 111.7809
853.2340, 114.0634
853.7161, 113.8586
854.1982, 114.0024
854.6804, 115.8435
855.1625, 116.8630
855.6446, 116.3990
856.1267, 117.4131
856.6088, 115.9954
857.0909, 117.3968
857.5731, 118.1216
858.0552, 117.3070
858.5373, 115.3179
859.0194, 113.5663
859.5015, 114.2607
859.9836, 116.5359
860.4658, 117.8719
860.9479, 117.9931
861.4300, 117.8361
861.9121, 117.5142
862.3942, 117.5406
862.8763, 117.5626
863.3585, 117.3342
863.8406, 117.6704
864.3227, 117.6082
864.8048, 117.2785
865.2869, 115.7915
865.7690, 113.6999
866.2512, 112.9728
866.7333, 113.6586
867.2154, 114.2882
867.6975, 114.1560
868.1796, 113.4514
868.6617, 111.9428
869.1439, 109.9791
869.6260, 109.6087
870.1081, 111.6177
870.5902, 113.3288
871.0723, 113.5753
871.5544, 112.7196
872.0366, 113.2895
872.5187, 115.2586
873.0008, 116.7446
873.4829, 115.4302
873.9650, 113.1258
874.4471, 112.0415
874.9293, 113.0879
875.4114, 114.0416
875.8935, 114.7324
876.3756, 114.6514
876.8577, 113.4782
877.3398, 111.1076
877.8220, 110.8509
878.3041, 113.0050
878.7862, 115.7088
879.2683, 117.1945
879.7504, 118.0566
880.2325, 119.7600
880.7147, 122.3644
881.1968, 123.4902
881.6789, 120.0994
882.1610, 116.4217
882.6431, 115.4067
883.1252, 117.4964
883.6074, 118.3003
884.0895, 117.6180
884.5716, 116.1757
885.0537, 114.0158
885.5358, 111.6352
886.0179, 110.4862
886.5001, 110.5423
886.9822, 111.3631
887.4643, 113.7464
887.9464, 115.8278
888.4285, 116.4479
888.9106, 115.7577
889.3928, 114.3269
889.8749, 111.1746
890.3570, 109.3705
890.8391, 110.5348
891.3212, 113.5626
891.8033, 115.4704
892.2855, 116.3092
892.7676, 116.4379
893.2497, 115.3712
893.7318, 114.7193
894.2139, 116.3886
894.6960, 118.9828
895.1782, 119.9142
895.6603, 116.5888
896.1424, 114.5280
896.6245, 115.1739
897.1066, 117.2409
897.5887, 118.3345
898.0709, 118.5991
898.5530, 118.6049
899.0351, 118.0510
899.5172, 117.4648
899.9993, 117.4646
900.4814, 118.0929
900.9636, 118.9757
901.4457, 120.5680
901.9278, 121.1694
902.4099, 120.2321
902.8920, 117.2317
903.3741, 114.8446
903.8563, 113.5094
904.3384, 115.0654
904.8205, 117.0512
905.3026, 117.3037
905.7847, 115.9574
906.2668, 115.0801
906.7490, 114.2893
907.2311, 112.6031
907.7132, 111.8350
908.1953, 114.0638
908.6774, 116.4167
909.1595, 117.4449
909.6417, 117.3270
910.1238, 117.7590
910.6059, 119.0994
911.0880, 119.8331
911.5701, 117.8607
912.0522, 114.4869
912.5344, 112.9181
913.0165, 114.6038
913.4986, 116.7815
913.9807, 117.3315
914.4628, 117.5585
914.9449, 119.0559
915.4271, 120.9412
915.9092, 122.5845
916.3913, 124.8114
916.8734, 124.0401
917.3555, 126.2850
917.8376, 122.0093
918.3198, 118.4389
918.8019, 116.8855
919.2840, 115.4254
919.7661, 112.9133
920.2482, 111.8369
920.7303, 114.0419
921.2125, 117.5643
921.6946, 119.1199
922.1767, 117.8795
922.6588, 117.1000
923.1409, 117.8282
923.6230, 118.3733
924.1052, 117.3471
924.5873, 116.6755
925.0694, 118.1874
925.5515, 121.0588
926.0336, 122.7671
926.5157, 120.8134
926.9979, 117.9032
927.4800, 116.6877
927.9621, 117.2268
928.4442, 118.6403
928.9263, 121.0340
929.4084, 123.5069
929.8906, 124.1233
930.3727, 122.1927
930.8548, 120.5830
931.3369, 121.2948
931.8190, 122.9017
932.3011, 123.2638
932.7833, 121.6036
933.2654, 119.0331
933.7475, 116.3662
934.2296, 114.9456
934.7117, 116.2342
935.1938, 118.8567
935.6760, 120.4333
936.1581, 120.1959
936.6402, 119.3860
937.1223, 118.8551
937.6044, 118.2817
938.0865, 117.6398
938.5687, 118.1787
939.0508, 119.3279
939.5329, 120.3619
940.0150, 120.7918
940.4971, 120.2892
940.9792, 119.9330
941.4614, 121.8458
941.9435, 124.7700
942.4256, 125.4870
942.9077, 122.7875
943.3898, 119.2663
943.8719, 116.7704
944.3541, 115.7284
944.8362, 115.8167
945.3183, 116.8867
945.8004, 119.1927
946.2825, 122.4654
946.7646, 125.7829
947.2468, 124.0094
947.7289, 118.5241
948.2110, 114.5784
948.6931, 117.1405
949.1752, 121.4793
949.6573, 121.9064
950.1395, 116.1674
950.6216, 110.8639
951.1037, 112.3043
951.5858, 116.8857
952.0679, 119.4253
952.5500, 118.2926
953.0322, 116.6654
953.5143, 117.0996
953.9964, 119.5388
954.4785, 122.9443
954.9606, 124.9632
955.4427, 125.4652
955.9249, 125.1026
956.4070, 124.5518
956.8891, 123.4894
957.3712, 123.5384
957.8533, 123.9316
958.3354, 124.3051
958.8176, 123.3563
959.2997, 121.7909
959.7818, 121.1006
960.2639, 121.9228
960.7460, 122.0255
961.2281, 121.3123
961.7103, 123.1865
962.1924, 125.4931
962.6745, 125.5506
963.1566, 120.5721
963.6387, 115.9860
964.1208, 113.2619
964.6030, 114.7199
965.0851, 119.6189
965.5672, 123.6409
966.0493, 124.6501
966.5314, 123.6910
967.0135, 121.1937
967.4957, 118.5056
967.9778, 117.5098
968.4599, 120.7002
968.9420, 122.9221
969.4241, 123.2192
969.9063, 122.8022
970.3884, 123.8708
970.8705, 126.3465
971.3526, 127.6218
971.8347, 126.7332
972.3168, 124.9767
972.7990, 122.8613
973.2811, 121.1275
973.7632, 120.7288
974.2453, 123.7652
974.7274, 124.2492
975.2095, 120.4228
975.6917, 116.5652
976.1738, 117.8460
976.6559, 123.6276
977.1380, 126.0946
977.6201, 122.8373
978.1022, 119.0697
978.5844, 120.9725
979.0665, 125.0262
979.5486, 125.7458
980.0307, 119.9567
980.5128, 118.1389
980.9949, 123.3287
981.4771, 128.5040
981.9592, 128.0483
982.4413, 123.2474
982.9234, 121.4647
983.4055, 122.7779
983.8876, 124.2147
984.3698, 123.4049
984.8519, 121.9757
985.3340, 121.2185
985.8161, 121.9346
986.2982, 123.1837
986.7803, 125.5189
987.2625, 126.8461
987.7446, 126.1141
988.2267, 124.2239
988.7088, 123.0656
989.1909, 122.5579
989.6730, 122.7803
990.1552, 124.2975
990.6373, 126.0771
991.1194, 128.2186
991.6015, 130.0212
992.0836, 130.1274
992.5657, 127.9480
993.0479, 126.7380
993.5300, 126.9100
994.0121, 127.7146
994.4942, 129.0179
994.9763, 130.4317
995.4584, 130.8417
995.9406, 128.9813
996.4227, 127.4648
996.9048, 127.7131
997.3869, 128.5046
997.8690, 128.3580
998.3511, 126.5997
998.8333, 125.4569
999.3153, 125.1830
999.7974, 125.9879
1000.280, 128.9300
1000.762, 131.1829
1001.244, 128.4666
1001.726, 121.7280
1002.208, 118.4243
1002.690, 123.9677
1003.172, 128.2843
1003.654, 127.8500
1004.136, 124.2660
1004.619, 123.4000
1005.101, 124.9471
1005.583, 127.2417
1006.065, 131.7450
1006.547, 134.9741
1007.029, 132.3888
1007.511, 127.1998
1007.993, 125.1367
1008.476, 127.0629
1008.958, 128.1596
1009.440, 127.8641
1009.922, 126.8306
1010.404, 125.7564
1010.886, 125.3389
1011.368, 126.3051
1011.850, 127.7745
1012.332, 129.2383
1012.815, 131.5690
1013.297, 133.1742
1013.779, 132.0900
1014.261, 128.8306
1014.743, 127.5600
1015.225, 128.3250
1015.707, 128.8548
1016.189, 128.2203
1016.672, 127.0082
1017.154, 125.7859
1017.636, 125.8337
1018.118, 127.1028
1018.600, 128.4791
1019.082, 129.1082
1019.564, 129.0558
1020.046, 129.5874
1020.528, 129.2333
1021.011, 127.4387
1021.493, 125.3840
1021.975, 126.1448
1022.457, 129.0661
1022.939, 131.9711
1023.421, 132.8540
1023.903, 131.7973
1024.385, 130.1874
1024.868, 129.5575
1025.350, 130.6024
1025.832, 132.1232
1026.314, 131.3937
1026.796, 128.7450
1027.278, 126.9480
1027.760, 126.2657
1028.242, 125.3399
1028.724, 125.4748
1029.207, 127.2531
1029.689, 131.6782
1030.171, 134.3227
1030.653, 134.5553
1031.135, 133.0993
1031.617, 131.1683
1032.099, 129.9725
1032.581, 130.0194
1033.063, 129.3698
1033.546, 127.2268
1034.028, 126.2806
1034.510, 130.3436
1034.992, 132.7524
1035.474, 132.1843
1035.956, 131.5018
1036.438, 132.7214
1036.920, 132.7293
1037.403, 130.8724
1037.885, 128.6613
1038.367, 128.4590
1038.849, 130.4191
1039.331, 131.9811
1039.813, 130.6488
1040.295, 126.7140
1040.777, 125.8735
1041.260, 127.4783
1041.742, 129.5158
1042.224, 130.4517
1042.706, 130.1223
1043.188, 129.4794
1043.670, 129.6172
1044.152, 129.3201
1044.634, 130.6887
1045.116, 129.6244
1045.599, 129.1583
1046.081, 130.2235
1046.563, 132.3732
1047.045, 134.2507
1047.527, 134.1568
1048.009, 129.7940
1048.491, 124.9711
1048.973, 125.6348
1049.455, 129.7413
1049.938, 132.1262
1050.420, 129.7599
1050.902, 128.5634
1051.384, 128.7538
1051.866, 128.6916
1052.348, 126.8733
1052.830, 125.6928
1053.312, 127.7744
1053.795, 132.6943
1054.277, 136.0518
1054.759, 132.8680
1055.241, 127.0916
1055.723, 125.1004
1056.205, 128.7644
1056.687, 132.4476
1057.169, 134.2212
1057.651, 134.3006
1058.134, 132.1828
1058.616, 129.9729
1059.098, 131.5546
1059.580, 136.6167
1060.062, 141.0125
1060.544, 142.8389
1061.026, 141.7031
1061.508, 137.9163
1061.990, 132.9887
1062.473, 130.3996
1062.955, 130.1249
1063.437, 131.1199
1063.919, 133.7468
1064.401, 136.8651
1064.883, 139.5238
1065.365, 140.2280
1065.847, 138.3913
1066.330, 133.1942
1066.812, 130.6945
1067.294, 130.7731
1067.776, 131.9833
1068.258, 135.1297
1068.740, 138.7994
1069.222, 138.7409
1069.704, 134.8404
1070.187, 132.3628
1070.669, 136.2484
1071.151, 138.8980
1071.633, 137.5742
1072.115, 134.3016
1072.597, 133.2641
1073.079, 133.8478
1073.561, 134.3112
1074.043, 134.4643
1074.526, 134.6677
1075.008, 135.1046
1075.490, 135.3144
1075.972, 135.3789
1076.454, 135.2952
1076.936, 134.6893
1077.418, 133.5607
1077.900, 133.5065
1078.382, 136.9269
1078.865, 140.9046
1079.347, 140.6061
1079.829, 137.6459
1080.311, 135.5923
1080.793, 135.7045
1081.275, 135.5418
1081.757, 136.3695
1082.239, 138.2184
1082.721, 138.8013
1083.204, 138.0597
1083.686, 138.3574
1084.168, 142.2800
1084.650, 144.8701
1085.132, 140.4359
1085.614, 134.1133
1086.096, 132.0499
1086.578, 135.7410
1087.061, 138.3182
1087.543, 139.4382
1088.025, 139.3375
1088.507, 137.9984
1088.989, 136.1784
1089.471, 134.4947
1089.953, 133.0754
1090.435, 132.7493
1090.917, 134.2204
1091.400, 136.0378
1091.882, 137.6440
1092.364, 138.9077
1092.846, 140.8938
1093.328, 143.0895
1093.810, 143.1512
1094.292, 138.8112
1094.774, 135.5030
1095.256, 136.8991
1095.739, 139.6098
1096.221, 140.8106
1096.703, 140.3124
1097.185, 139.6940
1097.667, 138.8998
1098.149, 139.0748
1098.631, 142.6844
1099.113, 146.4371
1099.596, 146.4553
1100.078, 143.5066
1100.560, 142.5593
1101.042, 145.1944
1101.524, 146.3556
1102.006, 144.6650
1102.488, 141.7126
1102.970, 139.5173
1103.453, 138.0810
1103.935, 137.6300
1104.417, 139.1780
1104.899, 140.3327
1105.381, 140.2806
1105.863, 139.5921
1106.345, 138.8649
1106.827, 138.0767
1107.309, 137.5268
1107.792, 137.3675
1108.274, 137.7484
1108.756, 139.3167
1109.238, 140.9206
1109.720, 142.2571
1110.202, 142.2580
1110.684, 141.4497
1111.166, 140.2141
1111.648, 139.4909
1112.131, 138.7887
1112.613, 138.4061
1113.095, 140.5409
1113.577, 143.2003
1114.059, 142.8266
1114.541, 137.7815
1115.023, 136.0112
1115.505, 138.9469
1115.988, 142.4189
1116.470, 145.2445
1116.952, 147.1397
1117.434, 146.9129
1117.916, 145.0173
1118.398, 142.5051
1118.880, 136.7541
1119.362, 134.3920
1119.844, 139.4451
1120.327, 146.8704
1120.809, 149.1114
1121.291, 146.0559
1121.773, 141.7511
1122.255, 137.1492
1122.737, 135.1300
1123.219, 138.5102
1123.701, 143.3038
1124.183, 147.6999
1124.666, 152.0575
1125.148, 151.1142
1125.630, 143.1745
1126.112, 137.1391
1126.594, 139.0911
1127.076, 143.8701
1127.558, 144.0825
1128.040, 146.2029
1128.523, 147.5297
1129.005, 147.0104
1129.487, 147.8753
1129.969, 145.5554
1130.451, 143.4264
1130.933, 141.8898
1131.415, 140.3448
1131.897, 140.3101
1132.380, 142.2020
1132.862, 143.6955
1133.344, 143.4726
1133.826, 143.5508
1134.308, 144.6300
1134.790, 145.2765
1135.272, 143.6725
1135.754, 140.9414
1136.236, 139.9378
1136.719, 140.9146
1137.201, 141.8949
1137.683, 143.3938
1138.165, 144.9869
1138.647, 145.9583
1139.129, 145.5267
1139.611, 144.3868
1140.093, 142.6746
1140.575, 141.4930
1141.058, 141.8127
1141.540, 142.6399
1142.022, 142.9473
1142.504, 142.7236
1142.986, 142.1991
1143.468, 142.1254
1143.950, 143.1687
1144.432, 145.7493
1144.915, 148.3737
1145.397, 148.1012
1145.879, 146.3197
1146.361, 145.8180
1146.843, 147.1450
1147.325, 147.7378
1147.807, 147.1221
1148.289, 146.1308
1148.771, 145.4013
1149.254, 145.3203
1149.736, 144.3881
1150.218, 141.5093
1150.700, 138.0955
1151.182, 136.4776
1151.664, 138.1149
1152.146, 142.4657
1152.628, 146.4463
1153.110, 147.2466
1153.593, 144.8247
1154.075, 143.1588
1154.557, 142.8693
1155.039, 142.3701
1155.521, 138.6424
1156.003, 136.9371
1156.485, 140.0209
1156.967, 144.9473
1157.450, 147.8173
1157.932, 150.4048
1158.414, 153.4810
1158.896, 155.3694
1159.378, 154.1610
1159.860, 147.8281
1160.342, 142.5233
1160.824, 143.2864
1161.307, 150.1552
1161.789, 151.8034
1162.271, 147.8588
1162.753, 144.0906
1163.235, 143.0087
1163.717, 143.3775
1164.199, 143.9906
1164.681, 144.8277
1165.163, 146.2331
1165.646, 149.0007
1166.128, 152.0284
1166.610, 154.2875
1167.092, 154.6485
1167.574, 152.9434
1168.056, 151.7245
1168.538, 151.2542
1169.020, 149.9182
1169.502, 148.7377
1169.985, 149.9511
1170.467, 151.1491
1170.949, 151.4942
1171.431, 151.4435
1171.913, 151.3979
1172.395, 150.4229
1172.877, 148.1947
1173.359, 145.0830
1173.842, 144.5119
1174.324, 149.2714
1174.806, 153.4894
1175.288, 154.8530
1175.770, 154.1221
1176.252, 155.6646
1176.734, 158.4047
1177.216, 158.2959
1177.698, 150.2749
1178.181, 144.0000
1178.663, 145.0449
1179.145, 149.5688
1179.627, 152.3087
1180.109, 153.1223
1180.591, 154.7550
1181.073, 157.2498
1181.555, 158.7904
1182.037, 157.9993
1182.520, 156.9972
1183.002, 155.5338
1183.484, 152.7689
1183.966, 150.3206
1184.448, 148.3468
1184.930, 148.9574
1185.412, 153.1227
1185.894, 157.1576
1186.377, 156.6938
1186.859, 154.1612
1187.341, 152.6787
1187.823, 152.6888
1188.305, 152.7525
1188.787, 152.7803
1189.269, 153.4901
1189.751, 155.6485
1190.234, 157.4693
1190.716, 155.9378
1191.198, 153.1792
1191.680, 152.4317
1192.162, 155.4961
1192.644, 157.2863
1193.126, 157.6502
1193.608, 156.9255
1194.090, 154.7125
1194.573, 152.4170
1195.055, 151.8476
1195.537, 152.5650
1196.019, 154.4515
1196.501, 159.3716
1196.983, 161.5590
1197.465, 159.3970
1197.947, 155.6387
1198.429, 153.3069
1198.912, 152.3075
1199.394, 152.5772
1199.876, 153.9848
1200.358, 155.6205
1200.840, 157.9834
1201.322, 159.2508
1201.804, 158.4382
1202.286, 156.6063
1202.769, 155.8669
1203.251, 155.8904
1203.733, 155.7656
1204.215, 154.5892
1204.697, 155.2846
1205.179, 159.7956
1205.661, 163.9347
1206.143, 164.8880
1206.625, 163.7416
1207.108, 163.7834
1207.590, 164.6782
1208.072, 165.3135
1208.554, 165.5410
1209.036, 164.8023
1209.518, 162.5731
1210.000, 159.9107
1210.482, 157.4561
1210.964, 155.8628
1211.447, 158.5246
1211.929, 164.6368
1212.411, 168.2414
1212.893, 163.8528
1213.375, 160.7351
1213.857, 161.9780
1214.339, 164.9716
1214.821, 166.2008
1215.304, 166.1899
1215.786, 166.5324
1216.268, 167.2045
1216.750, 167.2601
1217.232, 165.4770
1217.714, 164.0348
1218.196, 164.4258
1218.678, 165.6270
1219.161, 162.7375
1219.643, 156.8864
1220.125, 154.5764
1220.607, 160.2151
1221.089, 165.8290
1221.571, 167.6914
1222.053, 167.3210
1222.535, 165.6402
1223.017, 163.3121
1223.500, 164.7534
1223.982, 169.2780
1224.464, 171.9325
1224.946, 168.0331
1225.428, 164.3867
1225.910, 164.6094
1226.392, 166.4368
1226.874, 168.0827
1227.356, 169.6745
1227.839, 170.6325
1228.321, 171.1138
1228.803, 171.4725
1229.285, 171.0179
1229.767, 169.9229
1230.249, 167.9785
1230.731, 166.3692
1231.213, 165.3600
1231.696, 164.7266
1232.178, 164.8364
1232.660, 165.8373
1233.142, 167.6365
1233.624, 171.4762
1234.106, 174.6062
1234.588, 174.8280
1235.070, 173.3897
1235.552, 172.9887
1236.035, 173.0940
1236.517, 173.3729
1236.999, 174.9208
1237.481, 175.9854
1237.963, 173.1845
1238.445, 170.2604
1238.927, 170.8282
1239.409, 175.0766
1239.891, 179.4697
1240.374, 183.8118
1240.856, 186.3337
1241.338, 185.2379
1241.820, 183.4687
1242.302, 181.5481
1242.784, 179.8058
1243.266, 179.2332
1243.748, 180.2526
1244.231, 179.4037
1244.713, 176.6758
1245.195, 175.4825
1245.677, 179.6669
1246.159, 184.2640
1246.641, 186.9729
1247.123, 188.0507
1247.605, 187.7228
1248.087, 186.1315
1248.570, 184.1973
1249.052, 182.0672
1249.534, 181.1272
1250.016, 181.3886
1250.498, 182.5863
1250.980, 186.0690
1251.462, 190.8696
1251.944, 192.7752
1252.427, 191.5484
1252.909, 188.2119
1253.391, 182.3441
1253.873, 179.1870
1254.355, 184.5790
1254.837, 190.4382
1255.319, 191.5478
1255.801, 189.0406
1256.283, 189.1727
1256.766, 191.2756
1257.248, 192.3929
1257.730, 191.1221
1258.212, 189.7526
1258.694, 188.1204
1259.176, 188.0694
1259.658, 192.2022
1260.140, 199.6469
1260.622, 201.3769
1261.105, 198.0572
1261.587, 194.9935
1262.069, 194.3216
1262.551, 195.4806
1263.033, 199.8083
1263.515, 204.5103
1263.997, 206.4216
1264.479, 205.6660
1264.962, 204.4794
1265.444, 203.4354
1265.926, 202.4178
1266.408, 199.9057
1266.890, 198.2622
1267.372, 199.1383
1267.854, 201.3887
1268.336, 203.4178
1268.818, 204.9427
1269.301, 205.0811
1269.783, 203.8364
1270.265, 204.1657
1270.747, 210.3750
1271.229, 214.3000
1271.711, 212.9348
1272.193, 208.9063
1272.675, 205.7783
1273.157, 204.2057
1273.640, 205.9136
1274.122, 211.6835
1274.604, 215.9469
1275.086, 217.0764
1275.568, 217.4368
1276.050, 217.6573
1276.532, 218.1230
1277.014, 220.7620
1277.497, 223.7048
1277.979, 222.8343
1278.461, 214.5637
1278.943, 212.3651
1279.425, 218.7898
1279.907, 225.8366
1280.389, 229.7899
1280.871, 231.3287
1281.354, 229.5019
1281.836, 226.5851
1282.318, 227.2962
1282.800, 236.6204
1283.282, 238.8696
1283.764, 232.4439
1284.246, 226.4852
1284.728, 228.8415
1285.210, 233.8350
1285.693, 233.7197
1286.175, 238.7681
1286.657, 234.0698
1287.139, 244.9659
1287.621, 250.4864
1288.103, 249.6619
1288.585, 247.2585
1289.067, 245.9424
1289.549, 245.8806
1290.032, 247.2911
1290.514, 250.1131
1290.996, 254.4816
1291.478, 260.7837
1291.960, 264.1328
1292.442, 263.8461
1292.924, 263.5297
1293.406, 266.6272
1293.889, 270.0737
1294.371, 271.5067
1294.853, 273.8368
1295.335, 275.3426
1295.817, 275.9911
1296.299, 277.1181
1296.781, 276.0901
1297.263, 275.5581
1297.745, 276.3746
1298.228, 279.3958
1298.710, 285.9568
1299.192, 294.1842
1299.674, 297.7980
1300.156, 297.8456
1300.638, 299.1742
1301.120, 303.3233
1301.602, 306.9810
1302.084, 306.7335
1302.567, 308.1922
1303.049, 314.7336
1303.531, 323.9053
1304.013, 328.4706
1304.495, 329.7737
1304.977, 331.1670
1305.459, 333.2648
1305.941, 336.5511
1306.424, 341.5791
1306.906, 346.3990
1307.388, 349.5291
1307.870, 352.0984
1308.352, 355.4868
1308.834, 360.3817
1309.316, 368.4534
1309.798, 382.7734
1310.281, 394.6449
1310.763, 403.5365
1311.245, 411.7651
1311.727, 418.1267
1312.209, 426.6822
1312.691, 444.2103
1313.173, 467.2167
1313.655, 488.7198
1314.137, 506.7710
1314.620, 527.0881
1315.102, 549.4833
1315.584, 578.4644
1316.066, 618.6313
1316.548, 665.3366
1317.030, 710.2802
1317.512, 761.6510
1317.994, 828.0804
1318.476, 908.8586
1318.959, 1026.782
1319.441, 1183.221
1319.923, 1375.867
1320.405, 1597.895
1320.887, 1863.149
1321.369, 2201.954
1321.851, 2572.137
1322.333, 2911.293
1322.816, 3225.731
1323.298, 3528.767
1323.780, 3823.770
1324.262, 4152.260
1324.744, 4520.907
1325.226, 4948.482
1325.708, 5426.578
1326.190, 5972.794
1326.672, 6547.482
1327.155, 7231.177
1327.637, 8172.422
1328.119, 9389.208
1328.601, 10901.85
1329.083, 12666.31
1329.565, 14802.60
1330.047, 17386.50
1330.529, 20274.62
1331.011, 23495.42
1331.494, 26728.07
1331.976, 29950.08
1332.458, 33062.43
1332.940, 33920.90
1333.422, 32427.44
1333.904, 29266.11
1334.386, 24247.05
1334.868, 18926.27
1335.351, 14356.91
1335.833, 10611.19
1336.315, 7908.308
1336.797, 6117.220
1337.279, 4783.018
1337.761, 3879.939
1338.243, 3191.888
1338.725, 2675.780
1339.208, 2261.331
1339.690, 1947.576
1340.172, 1696.481
1340.654, 1492.073
1341.136, 1327.360
1341.618, 1189.734
1342.100, 1074.439
1342.582, 970.9238
1343.064, 872.8019
1343.547, 793.6506
1344.029, 737.5927
1344.511, 688.7477
1344.993, 636.7200
1345.475, 587.4377
1345.957, 553.1976
1346.439, 528.8854
1346.921, 504.1394
1347.403, 474.3206
1347.886, 454.0161
1348.368, 444.9411
1348.850, 434.2777
1349.332, 410.7590
1349.814, 387.0600
1350.296, 378.1178
1350.778, 375.4447
1351.260, 366.9485
1351.743, 351.8880
1352.225, 335.3776
1352.707, 317.7082
1353.189, 305.5119
1353.671, 307.8582
1354.153, 309.9734
1354.635, 303.8020
1355.117, 295.5354
1355.599, 290.0287
1356.082, 286.8049
1356.564, 284.6178
1357.046, 282.6563
1357.528, 277.4927
1358.010, 261.9843
1358.492, 252.4963
1358.974, 252.0726
1359.456, 254.1740
1359.938, 254.8083
1360.421, 253.0635
1360.903, 244.3271
1361.385, 232.0754
1361.867, 227.3530
1362.349, 233.5579
1362.831, 237.8712
1363.313, 239.6673
1363.795, 239.2579
1364.278, 234.7861
1364.760, 230.2429
1365.242, 230.2302
1365.724, 231.6962
1366.206, 228.5100
1366.688, 220.9093
1367.170, 218.6616
1367.652, 221.8821
1368.135, 223.7264
1368.617, 217.7548
1369.099, 213.1315
1369.581, 213.1628
1370.063, 214.5691
1370.545, 212.7114
1371.027, 209.1795
1371.509, 208.2540
1371.991, 209.6895
1372.474, 210.3193
1372.956, 209.2801
1373.438, 207.4928
1373.920, 204.7560
1374.402, 202.6573
1374.884, 204.0723
1375.366, 205.9981
1375.848, 204.9703
1376.330, 201.6081
1376.813, 198.9355
1377.295, 196.9588
1377.777, 195.1846
1378.259, 193.5325
1378.741, 192.3396
1379.223, 193.0484
1379.705, 192.7910
1380.187, 189.8259
1380.670, 185.6534
1381.152, 181.1789
1381.634, 177.6321
1382.116, 180.7509
1382.598, 190.5011
1383.080, 196.6341
1383.562, 193.4824
1384.044, 191.1886
1384.526, 191.8369
1385.009, 192.6121
1385.491, 188.2350
1385.973, 183.2482
1386.455, 184.0694
1386.937, 190.0859
1387.419, 194.2564
1387.901, 196.4766
1388.383, 196.9092
1388.865, 195.4472
1389.348, 193.7510
1389.830, 193.9101
1390.312, 193.1473
1390.794, 188.2560
1391.276, 182.8980
1391.758, 186.3436
1392.240, 195.4406
1392.722, 198.0047
1393.205, 192.6700
1393.687, 189.4517
1394.169, 194.4266
1394.651, 196.5347
1395.133, 193.1455
1395.615, 187.1704
1396.097, 179.4383
1396.579, 173.2408
1397.062, 174.2017
1397.544, 181.6398
1398.026, 185.1457
1398.508, 184.3248
1398.990, 184.3052
1399.472, 186.0833
1399.954, 187.6432
1400.436, 187.3250
1400.918, 186.4325
1401.401, 185.8728
1401.883, 185.0804
1402.365, 181.9370
1402.847, 177.6778
1403.329, 176.5706
1403.811, 179.1591
1404.293, 181.3681
1404.775, 182.1219
1405.257, 182.3936
1405.740, 182.1524
1406.222, 182.2130
1406.704, 184.5502
1407.186, 187.0048
1407.668, 187.0907
1408.150, 184.9298
1408.632, 181.7593
1409.114, 177.5547
1409.597, 176.4407
1410.079, 179.3052
1410.561, 182.7609
1411.043, 186.5888
1411.525, 187.7424
1412.007, 184.2400
1412.489, 178.9711
1412.971, 176.1298
1413.453, 175.7775
1413.936, 179.7207
1414.418, 187.7448
1414.900, 190.7913
1415.382, 186.0145
1415.864, 182.6616
1416.346, 182.6460
1416.828, 183.4280
1417.310, 182.4582
1417.792, 181.0904
1418.275, 180.6424
1418.757, 180.7378
1419.239, 180.1135
1419.721, 178.9443
1420.203, 179.0812
1420.685, 180.7756
1421.167, 181.5772
1421.649, 178.9451
1422.131, 177.0114
1422.614, 176.6918
1423.096, 177.6095
1423.578, 180.3077
1424.060, 183.2762
1424.542, 183.9888
1425.024, 184.4532
1425.506, 181.7197
1425.988, 181.7967
1426.471, 179.8954
1426.953, 175.3265
1427.435, 172.7215
1427.917, 178.2360
1428.399, 183.9216
1428.881, 185.7082
1429.363, 184.9093
1429.845, 182.6531
1430.328, 179.6479
1430.810, 178.2134
1431.292, 178.4236
1431.774, 178.8627
1432.256, 179.0986
1432.738, 179.9654
1433.220, 181.8797
1433.702, 182.8849
1434.184, 179.3776
1434.667, 175.5736
1435.149, 176.6993
1435.631, 180.0674
1436.113, 178.1666
1436.595, 171.6461
1437.077, 171.6172
1437.559, 178.3177
1438.041, 183.7018
1438.523, 182.4367
1439.006, 180.6660
1439.488, 179.1797
1439.970, 178.8389
1440.452, 181.3367
1440.934, 185.0833
1441.416, 189.3462
1441.898, 192.6026
1442.380, 189.4828
1442.863, 178.0368
1443.345, 174.0509
1443.827, 178.3560
1444.309, 182.1047
1444.791, 177.8499
1445.273, 173.7484
1445.755, 173.4006
1446.237, 174.3179
1446.719, 174.1454
1447.202, 173.2051
1447.684, 171.7592
1448.166, 170.2845
1448.648, 170.4654
1449.130, 173.6112
1449.612, 175.4600
1450.094, 175.6886
1450.576, 176.5101
1451.058, 181.3872
1451.541, 185.2935
1452.023, 183.0613
1452.505, 179.1842
1452.987, 178.8251
1453.469, 181.1748
1453.951, 179.9518
1454.433, 181.6508
1454.915, 183.6218
1455.398, 183.0618
1455.880, 183.8060
1456.362, 185.4325
1456.844, 183.3939
1457.326, 183.1154
1457.808, 183.1253
1458.290, 182.2176
1458.772, 180.4355
1459.255, 177.2685
1459.737, 172.9818
1460.219, 173.2196
1460.701, 177.2754
1461.183, 181.7783
1461.665, 187.2619
1462.147, 188.5764
1462.629, 183.9848
1463.111, 178.7229
1463.594, 174.8005
1464.076, 172.9018
1464.558, 176.3126
1465.040, 180.9162
1465.522, 179.9728
1466.004, 173.8763
1466.486, 173.7349
1466.968, 178.8273
1467.450, 183.6663
1467.933, 187.4046
1468.415, 187.2860
1468.897, 178.2231
1469.379, 172.5209
1469.861, 176.4419
1470.343, 184.4231
1470.825, 188.5241
1471.307, 189.8946
1471.790, 189.7679
1472.272, 188.3145
1472.754, 185.1201
1473.236, 180.2713
1473.718, 176.2229
1474.200, 173.3404
1474.682, 172.6376
1475.164, 176.8684
1475.646, 180.5994
1476.129, 182.0118
1476.611, 182.0100
1477.093, 181.4227
1477.575, 180.8360
1478.057, 181.9568
1478.539, 184.3721
1479.021, 182.3207
1479.503, 175.4887
1479.985, 171.4517
1480.468, 171.4794
1480.950, 174.4837
1481.432, 183.3739
1481.914, 190.4641
1482.396, 193.7048
1482.878, 193.2164
1483.360, 186.1764
1483.842, 177.3059
1484.325, 175.2508
1484.807, 178.9359
1485.289, 179.7328
1485.771, 176.6462
1486.253, 176.6946
1486.735, 180.4629
1487.217, 183.2639
1487.699, 180.6256
1488.182, 178.2801
1488.664, 177.9020
1489.146, 178.8855
1489.628, 181.6553
1490.110, 184.7045
1490.592, 185.2818
1491.074, 183.7589
1491.556, 180.9969
1492.038, 176.2702
1492.521, 176.0366
1493.003, 180.3255
1493.485, 184.0369
1493.967, 183.1920
1494.449, 182.6134
1494.931, 184.5411
1495.413, 186.1985
1495.895, 184.8189
1496.377, 182.2904
1496.860, 182.4481
1497.342, 184.2619
1497.824, 185.9978
1498.306, 187.7049
1498.788, 186.8879
1499.270, 183.7247
1499.752, 181.1579
##END=



