##NAMES=Diaphorite
##RRUFFID=R060173
##IDEAL CHEMISTRY=Ag^1+^_3_Pb^2+^_2_Sb^3+^_3_S^2-^_8_
##LOCALITY=Van Silver mine, Vancouver, British Columbia, Canada
##OWNER=RRUFF
##SOURCE=Ty Balacko
##DESCRIPTION=Steel-gray striated prismatic crystals
##STATUS=The identification of this mineral is confirmed by single-crystal X-ray diffraction and chemical analysis.
##URL=rruff.info/R060173
##MEASURED CHEMISTRY=(Pb_1.90_Ag_0.07_Cu_0.03_)_Î£=2_Ag_3.00_Sb_3.00_S_8.00_
90.26367, 12.55547
90.74579, 12.82609
91.22791, 12.71140
91.71002, 12.25400
92.19214, 11.82753
92.67426, 11.90728
93.15637, 12.27832
93.63850, 12.35617
94.12061, 11.70893
94.60273, 10.70254
95.08485, 10.21022
95.56696, 10.27240
96.04908, 10.60490
96.53120, 11.00119
97.01331, 11.44351
97.49543, 11.70923
97.97755, 11.56458
98.45966, 11.04567
98.94178, 10.87868
99.42390, 11.20231
99.90602, 11.68354
100.3881, 11.60167
100.8703, 10.78516
101.3524, 10.01076
101.8345, 9.723861
102.3166, 10.07180
102.7987, 10.28356
103.2808, 10.28052
103.7630, 10.10482
104.2451, 9.925947
104.7272, 9.688013
105.2093, 9.518671
105.6914, 9.546694
106.1735, 10.10519
106.6557, 10.27323
107.1378, 9.726828
107.6199, 8.425032
108.1020, 7.661384
108.5841, 7.665339
109.0662, 8.084344
109.5484, 8.601522
110.0305, 9.412932
110.5126, 10.13389
110.9947, 10.76411
111.4768, 11.37548
111.9590, 11.58611
112.4411, 11.04706
112.9232, 10.16335
113.4053, 9.472063
113.8874, 9.137776
114.3695, 8.947379
114.8517, 8.852673
115.3338, 8.902817
115.8159, 8.905011
116.2980, 8.684888
116.7801, 8.371333
117.2622, 8.244699
117.7444, 8.509264
118.2265, 8.934443
118.7086, 9.387506
119.1907, 9.932935
119.6728, 10.36780
120.1549, 10.50203
120.6371, 10.40085
121.1192, 10.32856
121.6013, 10.55877
122.0834, 10.85968
122.5655, 10.95671
123.0477, 10.54244
123.5298, 10.08769
124.0119, 9.975188
124.4940, 10.19993
124.9761, 10.69344
125.4582, 11.60863
125.9404, 12.74905
126.4225, 13.72110
126.9046, 14.24367
127.3867, 14.54343
127.8688, 15.00237
128.3509, 15.63605
128.8331, 16.27725
129.3152, 16.71814
129.7973, 16.99514
130.2794, 17.28029
130.7615, 17.64055
131.2436, 18.07041
131.7258, 18.55155
132.2079, 19.08713
132.6900, 19.66275
133.1721, 20.24578
133.6542, 20.83329
134.1364, 21.48063
134.6185, 22.25391
135.1006, 23.15054
135.5827, 23.96673
136.0648, 24.62115
136.5469, 25.26908
137.0291, 26.36930
137.5112, 28.02023
137.9933, 29.68659
138.4754, 31.15823
138.9575, 32.48448
139.4396, 33.18592
139.9218, 33.04074
140.4039, 32.23180
140.8860, 31.60980
141.3681, 31.16129
141.8502, 30.93419
142.3323, 31.01741
142.8145, 31.55100
143.2966, 32.02378
143.7787, 32.27410
144.2608, 32.31353
144.7429, 32.72793
145.2251, 33.78560
145.7072, 34.98304
146.1893, 35.84695
146.6714, 36.23579
147.1535, 36.49599
147.6356, 36.60723
148.1178, 36.50423
148.5999, 36.69336
149.0820, 37.37042
149.5641, 38.25763
150.0462, 39.02234
150.5283, 39.45746
151.0105, 39.96678
151.4926, 40.28424
151.9747, 40.76515
152.4568, 41.25807
152.9389, 41.86054
153.4210, 42.44733
153.9032, 42.85032
154.3853, 42.98621
154.8674, 42.99674
155.3495, 42.91419
155.8316, 42.70551
156.3138, 42.49151
156.7959, 42.24318
157.2780, 42.00314
157.7601, 41.85366
158.2422, 41.89298
158.7243, 41.96263
159.2065, 41.97585
159.6886, 41.84777
160.1707, 41.78673
160.6528, 41.87442
161.1349, 42.07489
161.6170, 42.29521
162.0992, 42.51427
162.5813, 42.73399
163.0634, 42.97746
163.5455, 43.43704
164.0276, 43.66931
164.5097, 43.31933
164.9919, 42.52504
165.4740, 41.82033
165.9561, 41.42716
166.4382, 41.25746
166.9203, 41.23149
167.4025, 41.39824
167.8846, 41.62812
168.3667, 41.83783
168.8488, 42.03579
169.3309, 42.27706
169.8130, 42.77604
170.2952, 43.28864
170.7773, 43.50173
171.2594, 43.05751
171.7415, 42.47137
172.2236, 42.16498
172.7057, 42.12537
173.1879, 42.18044
173.6700, 42.27936
174.1521, 42.37798
174.6342, 42.40300
175.1163, 42.19426
175.5984, 41.96142
176.0806, 42.02345
176.5627, 42.38290
177.0448, 42.70929
177.5269, 42.69697
178.0090, 42.42755
178.4911, 42.09266
178.9733, 41.67717
179.4554, 41.27906
179.9375, 41.07349
180.4196, 41.07535
180.9017, 41.15499
181.3839, 41.20863
181.8660, 41.23610
182.3481, 41.23716
182.8302, 41.13995
183.3123, 41.02318
183.7944, 41.14307
184.2766, 41.55895
184.7587, 41.93977
185.2408, 41.83821
185.7229, 41.31403
186.2050, 40.71826
186.6871, 40.14912
187.1693, 39.63100
187.6514, 39.29220
188.1335, 39.13980
188.6156, 39.13350
189.0977, 39.28826
189.5798, 39.59148
190.0620, 39.82257
190.5441, 39.84903
191.0262, 39.69295
191.5083, 39.46141
191.9904, 39.09662
192.4725, 38.79339
192.9547, 38.99363
193.4368, 39.71688
193.9189, 40.36829
194.4010, 40.59203
194.8831, 40.41290
195.3652, 40.16994
195.8474, 39.82635
196.3295, 39.52296
196.8116, 39.62260
197.2937, 40.16996
197.7758, 40.69167
198.2579, 40.86438
198.7401, 40.67894
199.2222, 40.59464
199.7043, 40.68616
200.1864, 40.84878
200.6685, 40.82087
201.1507, 40.56774
201.6328, 40.28514
202.1149, 40.09532
202.5970, 40.00897
203.0791, 39.88776
203.5612, 39.68413
204.0434, 39.46727
204.5255, 39.46778
205.0076, 39.74912
205.4897, 40.03009
205.9718, 40.16261
206.4539, 40.15078
206.9361, 39.93396
207.4182, 39.38769
207.9003, 38.68801
208.3824, 38.45049
208.8645, 38.83660
209.3466, 39.26270
209.8288, 39.32421
210.3109, 38.89823
210.7930, 38.65274
211.2751, 38.68400
211.7572, 38.92711
212.2393, 39.17845
212.7215, 39.48698
213.2036, 39.69183
213.6857, 39.66282
214.1678, 39.32457
214.6499, 38.99430
215.1321, 38.65925
215.6142, 38.35226
216.0963, 38.24358
216.5784, 38.40625
217.0605, 38.62675
217.5426, 38.78065
218.0248, 38.86805
218.5069, 38.88507
218.9890, 38.82856
219.4711, 38.70117
219.9532, 38.46901
220.4353, 37.96954
220.9175, 37.62784
221.3996, 37.76327
221.8817, 38.60442
222.3638, 39.33541
222.8459, 39.92529
223.3280, 40.35378
223.8102, 40.42638
224.2923, 39.89912
224.7744, 39.39127
225.2565, 39.34945
225.7386, 40.06795
226.2208, 40.52924
226.7029, 40.57261
227.1850, 40.27755
227.6671, 40.05976
228.1492, 39.98535
228.6313, 39.89433
229.1135, 39.65831
229.5956, 39.11124
230.0777, 38.80101
230.5598, 38.87160
231.0419, 39.22491
231.5240, 39.36663
232.0062, 39.19118
232.4883, 38.94939
232.9704, 38.78381
233.4525, 38.70315
233.9346, 38.67852
234.4167, 38.69908
234.8989, 38.77317
235.3810, 38.95634
235.8631, 39.35000
236.3452, 39.72180
236.8273, 39.93306
237.3095, 39.90020
237.7916, 39.88935
238.2737, 39.94311
238.7558, 40.03096
239.2379, 40.02021
239.7200, 39.85636
240.2022, 39.66664
240.6843, 39.50858
241.1664, 39.35823
241.6485, 39.29626
242.1306, 39.35830
242.6127, 39.51149
243.0949, 39.62722
243.5770, 39.68517
244.0591, 39.73595
244.5412, 39.80162
245.0233, 39.87488
245.5054, 39.99755
245.9876, 40.27287
246.4697, 40.58535
246.9518, 40.52384
247.4339, 39.79313
247.9160, 39.12781
248.3981, 38.91332
248.8803, 39.37449
249.3624, 39.74834
249.8445, 40.02826
250.3266, 40.20972
250.8087, 40.24949
251.2909, 40.00817
251.7730, 39.84775
252.2551, 39.96340
252.7372, 40.52143
253.2193, 40.93114
253.7014, 41.17787
254.1836, 41.27999
254.6657, 41.27140
255.1478, 41.13935
255.6299, 40.91673
256.1120, 40.54166
256.5941, 39.82740
257.0763, 39.60935
257.5584, 40.10514
258.0405, 40.95852
258.5226, 41.45592
259.0047, 41.51687
259.4868, 41.39592
259.9690, 41.13488
260.4511, 40.66168
260.9332, 40.37842
261.4153, 40.29855
261.8974, 40.39308
262.3795, 40.65108
262.8617, 41.17363
263.3438, 41.62029
263.8259, 41.86000
264.3080, 41.85781
264.7901, 41.89968
265.2722, 42.03364
265.7544, 42.15452
266.2365, 42.05182
266.7186, 41.59673
267.2007, 41.32049
267.6829, 41.47031
268.1650, 42.08743
268.6471, 42.40687
269.1292, 42.34961
269.6113, 42.12975
270.0934, 42.00450
270.5756, 41.98975
271.0577, 42.00622
271.5398, 42.04226
272.0219, 42.09706
272.5040, 42.11752
272.9861, 42.08076
273.4683, 42.05811
273.9504, 42.12404
274.4325, 42.28448
274.9146, 42.51026
275.3967, 42.84304
275.8788, 43.25161
276.3610, 43.40070
276.8431, 43.19735
277.3252, 43.01267
277.8073, 43.28431
278.2894, 44.07014
278.7715, 44.63294
279.2537, 44.76624
279.7358, 44.58226
280.2179, 44.57841
280.7000, 44.79608
281.1821, 45.00974
281.6642, 44.97378
282.1464, 44.68589
282.6285, 44.59017
283.1106, 44.82334
283.5927, 45.23953
284.0748, 45.39883
284.5569, 45.26975
285.0391, 45.16996
285.5212, 45.35637
286.0033, 45.80398
286.4854, 46.25195
286.9675, 46.71442
287.4496, 47.08867
287.9318, 47.08150
288.4139, 46.68601
288.8960, 46.31823
289.3781, 46.21976
289.8602, 46.35891
290.3424, 46.60881
290.8245, 46.99694
291.3066, 47.39713
291.7887, 47.59228
292.2708, 47.59943
292.7530, 47.56208
293.2351, 47.47544
293.7172, 47.39934
294.1993, 47.56714
294.6814, 48.02787
295.1635, 48.55198
295.6457, 48.86743
296.1278, 48.99953
296.6099, 49.04843
297.0920, 49.07125
297.5741, 49.03916
298.0562, 48.82986
298.5384, 48.42608
299.0205, 48.07171
299.5026, 48.08257
299.9847, 48.34426
300.4668, 48.55497
300.9489, 48.60553
301.4311, 48.53115
301.9132, 48.31203
302.3953, 47.95464
302.8774, 47.66180
303.3595, 47.77030
303.8416, 48.03101
304.3238, 47.98507
304.8059, 47.26268
305.2880, 46.39399
305.7701, 45.94838
306.2522, 45.87036
306.7343, 45.84943
307.2165, 45.66010
307.6986, 45.41303
308.1807, 45.26915
308.6628, 45.36963
309.1449, 45.41145
309.6270, 45.12438
310.1092, 44.57410
310.5913, 43.98089
311.0734, 43.36800
311.5555, 42.81518
312.0376, 42.41436
312.5197, 42.21822
313.0019, 42.07311
313.4840, 41.92692
313.9661, 41.76570
314.4482, 41.56030
314.9304, 41.28334
315.4125, 40.96949
315.8946, 40.62131
316.3767, 40.21934
316.8588, 39.88043
317.3409, 39.72365
317.8231, 39.63718
318.3052, 39.47427
318.7873, 39.03143
319.2694, 38.64016
319.7515, 38.46503
320.2336, 38.52922
320.7158, 38.59310
321.1979, 38.63094
321.6800, 38.61937
322.1621, 38.53677
322.6442, 38.38668
323.1263, 38.15666
323.6085, 37.73306
324.0906, 37.14402
324.5727, 36.80784
325.0548, 37.06652
325.5369, 37.41871
326.0190, 37.56132
326.5012, 37.37550
326.9833, 37.09057
327.4654, 36.65341
327.9475, 36.11127
328.4296, 35.65613
328.9117, 35.17176
329.3939, 34.87907
329.8760, 34.91466
330.3581, 35.74107
330.8402, 36.02164
331.3223, 35.38412
331.8044, 34.30438
332.2866, 33.78904
332.7687, 34.33430
333.2508, 34.71843
333.7329, 34.48172
334.2150, 33.43192
334.6971, 32.67379
335.1793, 32.23079
335.6614, 32.04778
336.1435, 32.12000
336.6256, 32.60973
337.1077, 32.92033
337.5899, 32.84022
338.0720, 32.39585
338.5541, 32.13605
339.0362, 32.11504
339.5183, 32.15468
340.0005, 32.07476
340.4826, 31.84784
340.9647, 31.71219
341.4468, 31.76885
341.9289, 31.91275
342.4110, 31.75483
342.8932, 31.25631
343.3753, 30.71651
343.8574, 30.28604
344.3395, 29.96783
344.8216, 29.93276
345.3037, 30.29352
345.7859, 30.74929
346.2680, 30.70692
346.7501, 30.19573
347.2322, 29.70510
347.7143, 29.51958
348.1964, 29.55879
348.6786, 29.56142
349.1607, 29.51315
349.6428, 29.45532
350.1249, 29.51381
350.6070, 29.61755
351.0891, 29.53454
351.5713, 28.95301
352.0534, 28.23776
352.5355, 27.95930
353.0176, 28.11006
353.4997, 28.37342
353.9818, 28.58145
354.4640, 28.72332
354.9461, 28.78018
355.4282, 28.72141
355.9103, 28.60710
356.3924, 28.41692
356.8745, 28.19182
357.3567, 28.09641
357.8388, 28.34910
358.3209, 28.69986
358.8030, 28.94205
359.2851, 29.03226
359.7672, 29.02122
360.2494, 28.79018
360.7315, 28.48745
361.2136, 28.38896
361.6957, 28.95251
362.1779, 29.45568
362.6600, 29.44373
363.1421, 28.80024
363.6242, 28.29341
364.1063, 28.30567
364.5884, 28.50479
365.0706, 28.55083
365.5527, 28.10240
366.0348, 27.77926
366.5169, 27.85135
366.9990, 28.28317
367.4811, 28.44217
367.9633, 27.89048
368.4454, 27.30896
368.9275, 27.09276
369.4096, 27.59940
369.8917, 27.98388
370.3738, 28.23253
370.8560, 28.35076
371.3381, 28.33809
371.8202, 28.07441
372.3023, 27.84303
372.7844, 27.76987
373.2665, 27.91096
373.7487, 27.98137
374.2308, 27.96453
374.7129, 27.89396
375.1950, 27.80985
375.6771, 27.70792
376.1592, 27.60653
376.6414, 27.51371
377.1235, 27.42715
377.6056, 27.29456
378.0877, 27.08302
378.5698, 26.92973
379.0519, 27.02697
379.5341, 27.37669
380.0162, 27.53931
380.4983, 27.39231
380.9804, 27.07405
381.4625, 26.87322
381.9446, 26.78634
382.4268, 26.80150
382.9089, 26.97509
383.3910, 27.24936
383.8731, 27.45060
384.3553, 27.56639
384.8374, 27.59681
385.3195, 27.49605
385.8016, 27.30263
386.2837, 27.12821
386.7658, 27.02707
387.2480, 26.97166
387.7301, 26.91746
388.2122, 26.86667
388.6943, 26.86176
389.1764, 27.00838
389.6585, 27.19520
390.1407, 27.26851
390.6228, 27.10689
391.1049, 26.93470
391.5870, 26.92928
392.0691, 27.03909
392.5512, 27.10885
393.0334, 27.07481
393.5155, 26.97286
393.9976, 26.78270
394.4797, 26.43097
394.9618, 26.24005
395.4439, 26.49488
395.9261, 26.91869
396.4082, 27.14268
396.8903, 26.95152
397.3724, 26.69137
397.8545, 26.38492
398.3366, 26.02673
398.8188, 25.87943
399.3009, 26.22180
399.7830, 26.60761
400.2651, 26.73822
400.7472, 26.18064
401.2293, 26.03907
401.7115, 26.17135
402.1936, 26.63330
402.6757, 26.87180
403.1578, 26.89884
403.6399, 26.08114
404.1220, 26.35426
404.6042, 26.19022
405.0863, 26.00826
405.5684, 26.43490
406.0505, 25.74006
406.5326, 26.15706
407.0147, 26.13023
407.4969, 26.30651
407.9790, 26.04296
408.4611, 25.82626
408.9432, 25.62603
409.4254, 26.10380
409.9075, 26.35812
410.3896, 26.40099
410.8717, 25.59912
411.3538, 25.88806
411.8359, 25.73985
412.3181, 25.57370
412.8002, 26.01617
413.2823, 25.33716
413.7644, 25.76998
414.2465, 25.75898
414.7286, 25.95110
415.2108, 25.40454
415.6929, 25.93910
416.1750, 26.25020
416.6571, 26.34986
417.1392, 25.60477
417.6213, 25.95050
418.1035, 25.85908
418.5856, 25.74973
419.0677, 25.45371
419.5498, 25.91510
420.0319, 26.15304
420.5140, 26.17953
420.9962, 25.36126
421.4783, 25.63382
421.9604, 25.46924
422.4425, 25.28672
422.9246, 25.71281
423.4067, 25.01742
423.8889, 25.43385
424.3710, 25.40647
424.8531, 25.88163
425.3352, 26.08970
425.8173, 25.91620
426.2994, 25.70685
426.7816, 25.38187
427.2637, 25.10390
427.7458, 24.99238
428.2279, 25.13095
428.7100, 25.22844
429.1921, 25.24981
429.6743, 25.23039
430.1564, 25.25770
430.6385, 25.34628
431.1206, 25.42632
431.6028, 25.48215
432.0849, 25.51229
432.5670, 25.43244
433.0491, 25.20719
433.5312, 25.01727
434.0133, 25.17558
434.4955, 25.60325
434.9776, 25.71997
435.4597, 25.23103
435.9418, 24.55088
436.4239, 24.49517
436.9060, 24.97779
437.3882, 25.44267
437.8703, 25.51570
438.3524, 25.36123
438.8345, 25.18467
439.3166, 24.99654
439.7987, 24.86178
440.2809, 24.83650
440.7630, 24.89747
441.2451, 25.00852
441.7272, 25.29873
442.2093, 25.50726
442.6914, 25.41512
443.1736, 25.07327
443.6557, 24.82545
444.1378, 24.86161
444.6199, 24.98792
445.1020, 25.08172
445.5841, 25.08920
446.0663, 25.13462
446.5484, 25.34559
447.0305, 25.58225
447.5126, 25.60077
447.9947, 25.02682
448.4768, 24.69444
448.9590, 24.57101
449.4411, 25.03701
449.9232, 25.27956
450.4053, 25.31066
450.8874, 24.49701
451.3695, 24.38415
451.8517, 24.86608
452.3338, 25.12457
452.8159, 25.17161
453.2980, 24.37390
453.7801, 24.66701
454.2622, 24.52296
454.7444, 24.36099
455.2265, 24.48701
455.7086, 24.44561
456.1907, 24.45488
456.6729, 24.51792
457.1550, 24.59605
457.6371, 24.63429
458.1192, 24.66108
458.6013, 24.77565
459.0834, 25.08508
459.5656, 25.33442
460.0477, 25.15903
460.5298, 24.67719
461.0119, 24.24907
461.4940, 23.96955
461.9761, 23.87141
462.4583, 24.06399
462.9404, 24.58255
463.4225, 25.00187
463.9046, 25.14385
464.3867, 25.08814
464.8688, 24.90738
465.3510, 24.41999
465.8331, 24.03297
466.3152, 23.85095
466.7973, 23.83936
467.2794, 23.87411
467.7615, 24.07481
468.2437, 24.19331
468.7258, 24.09256
469.2079, 23.66828
469.6900, 23.53144
470.1721, 23.84148
470.6542, 24.26603
471.1364, 24.44820
471.6185, 24.33139
472.1006, 24.18474
472.5827, 24.02081
473.0648, 23.87843
473.5469, 23.93003
474.0291, 24.19765
474.5112, 24.40082
474.9933, 24.32306
475.4754, 24.03421
475.9575, 23.84661
476.4396, 23.78141
476.9218, 23.73843
477.4039, 23.51899
477.8860, 23.24079
478.3681, 23.20325
478.8503, 23.65998
479.3324, 24.19947
479.8145, 24.41940
480.2966, 24.37645
480.7787, 24.27565
481.2608, 24.25148
481.7430, 24.18920
482.2251, 23.92816
482.7072, 23.37476
483.1893, 23.07598
483.6714, 23.52237
484.1535, 24.18403
484.6357, 24.52654
485.1178, 24.13870
485.5999, 23.80443
486.0820, 23.61359
486.5641, 23.56104
487.0462, 23.65194
487.5284, 24.08728
488.0105, 24.39520
488.4926, 24.34045
488.9747, 23.83728
489.4568, 23.53689
489.9389, 23.48897
490.4211, 23.55891
490.9032, 23.63143
491.3853, 23.71202
491.8674, 23.69151
492.3495, 23.49683
492.8316, 23.24900
493.3138, 23.25110
493.7959, 23.48157
494.2780, 23.70229
494.7601, 23.70989
495.2422, 23.62813
495.7243, 23.77288
496.2065, 24.17349
496.6886, 24.42609
497.1707, 24.01189
497.6528, 23.31412
498.1349, 22.86206
498.6170, 22.90077
499.0992, 23.07192
499.5813, 23.22726
500.0634, 23.36795
500.5455, 23.49872
501.0276, 23.75841
501.5097, 23.88570
501.9919, 23.67012
502.4740, 23.00889
502.9561, 22.66550
503.4382, 22.99684
503.9203, 23.44689
504.4025, 23.64252
504.8846, 23.49705
505.3667, 23.25511
505.8488, 22.84332
506.3309, 22.39819
506.8130, 22.24175
507.2952, 22.42710
507.7773, 22.66741
508.2594, 22.89150
508.7415, 23.08491
509.2236, 23.14051
509.7057, 23.04695
510.1879, 22.96063
510.6700, 23.05984
511.1521, 23.27202
511.6342, 23.36499
512.1163, 23.27609
512.5984, 23.15714
513.0806, 23.20848
513.5627, 23.34711
514.0448, 23.39956
514.5269, 23.23307
515.0090, 23.00119
515.4911, 22.72485
515.9733, 22.43583
516.4554, 22.33455
516.9375, 22.67681
517.4196, 23.09678
517.9017, 23.38772
518.3839, 23.51291
518.8660, 23.53797
519.3481, 23.42110
519.8302, 23.22786
520.3123, 23.02485
520.7944, 22.79953
521.2766, 22.57342
521.7587, 22.28016
522.2408, 21.99826
522.7229, 22.08385
523.2050, 22.63604
523.6871, 23.19042
524.1693, 23.52729
524.6514, 23.65059
525.1335, 23.65781
525.6156, 23.54111
526.0977, 23.35854
526.5798, 23.14743
527.0620, 22.91423
527.5441, 22.67033
528.0262, 22.39056
528.5083, 22.15815
528.9904, 22.03905
529.4725, 22.03744
529.9547, 22.16772
530.4368, 22.68477
530.9189, 23.13835
531.4010, 23.13328
531.8831, 22.67015
532.3652, 22.35215
532.8474, 22.53712
533.3295, 22.81561
533.8116, 22.92443
534.2937, 22.69912
534.7758, 22.53402
535.2579, 22.49589
535.7401, 22.49484
536.2222, 22.37705
536.7043, 22.01281
537.1865, 21.84237
537.6686, 22.01678
538.1507, 22.45064
538.6328, 22.75038
539.1149, 22.91081
539.5970, 22.98830
540.0792, 22.96505
540.5613, 22.87567
541.0434, 22.89494
541.5255, 23.03564
542.0076, 23.21879
542.4897, 23.46501
542.9719, 23.68592
543.4540, 23.68385
543.9361, 23.29847
544.4182, 22.86271
544.9003, 22.64261
545.3824, 22.57168
545.8646, 22.50238
546.3467, 22.26694
546.8288, 22.11619
547.3109, 22.33130
547.7930, 22.92785
548.2751, 23.05689
548.7573, 21.76592
549.2394, 22.34565
549.7215, 22.70194
550.2036, 22.84678
550.6857, 22.14688
551.1678, 22.53778
551.6500, 22.56257
552.1321, 22.43522
552.6142, 21.77082
553.0963, 21.45800
553.5784, 21.81491
554.0605, 22.55834
554.5427, 22.98279
555.0248, 23.09691
555.5069, 23.05226
555.9890, 22.85912
556.4711, 22.59288
556.9532, 22.38303
557.4354, 22.23459
557.9175, 22.11925
558.3996, 21.90292
558.8817, 21.75935
559.3638, 21.93563
559.8459, 22.73755
560.3281, 23.35052
560.8102, 23.31599
561.2923, 22.91114
561.7744, 22.56995
562.2565, 22.25504
562.7386, 22.14722
563.2208, 22.41902
563.7029, 22.98261
564.1850, 23.21651
564.6671, 22.97667
565.1492, 22.65988
565.6313, 22.45587
566.1135, 22.37662
566.5956, 22.24432
567.0777, 22.02763
567.5598, 21.87186
568.0419, 21.96172
568.5240, 22.25739
569.0062, 22.59736
569.4883, 23.01009
569.9704, 23.30058
570.4525, 23.09015
570.9346, 22.54484
571.4167, 22.10362
571.8989, 22.03153
572.3810, 22.07220
572.8631, 22.02883
573.3452, 21.92381
573.8273, 21.92207
574.3094, 22.25546
574.7916, 22.57591
575.2737, 22.68070
575.7558, 22.47564
576.2379, 22.29463
576.7200, 22.15509
577.2021, 22.03652
577.6843, 21.90393
578.1664, 21.70983
578.6485, 21.65767
579.1306, 21.80627
579.6127, 22.06445
580.0948, 22.30161
580.5770, 22.51771
581.0591, 22.56248
581.5412, 22.24637
582.0233, 21.79138
582.5054, 21.74508
582.9875, 22.05941
583.4697, 22.36663
583.9518, 22.39570
584.4340, 22.29725
584.9161, 22.23037
585.3982, 22.21651
585.8803, 22.19714
586.3624, 22.15124
586.8445, 22.08193
587.3267, 21.99121
587.8088, 21.80584
588.2909, 21.69353
588.7730, 21.65892
589.2551, 21.71230
589.7372, 21.89664
590.2194, 22.32805
590.7015, 22.65857
591.1836, 22.77685
591.6657, 22.72579
592.1478, 22.74734
592.6299, 22.86162
593.1121, 22.89677
593.5942, 22.65718
594.0763, 22.24545
594.5584, 22.06608
595.0405, 22.13947
595.5226, 22.26779
596.0048, 22.32856
596.4869, 22.31778
596.9690, 22.21392
597.4511, 21.97006
597.9332, 21.74392
598.4153, 21.53771
598.8975, 21.43106
599.3796, 21.53465
599.8617, 22.31855
600.3438, 22.83403
600.8259, 22.69490
601.3080, 22.07074
601.7902, 21.61002
602.2723, 21.34211
602.7544, 21.19594
603.2365, 21.15500
603.7186, 21.21842
604.2007, 21.37427
604.6829, 21.64913
605.1650, 21.88060
605.6471, 21.91794
606.1292, 21.79303
606.6113, 21.59251
607.0934, 21.29804
607.5756, 21.11338
608.0577, 21.38877
608.5398, 21.89354
609.0219, 22.22186
609.5040, 22.11597
609.9861, 21.98840
610.4683, 22.17830
610.9504, 22.50760
611.4325, 22.59348
611.9146, 22.01850
612.3967, 21.51606
612.8788, 21.31181
613.3610, 21.38602
613.8431, 21.52404
614.3252, 21.79072
614.8073, 22.01027
615.2894, 22.07490
615.7715, 21.97260
616.2537, 21.94393
616.7358, 22.00466
617.2179, 22.06259
617.7000, 21.99401
618.1821, 21.84030
618.6642, 21.75474
619.1464, 21.77141
619.6285, 21.82450
620.1106, 21.88099
620.5927, 21.92145
621.0748, 21.91277
621.5569, 21.76109
622.0391, 21.63952
622.5212, 21.67163
623.0033, 21.79955
623.4854, 21.84554
623.9675, 21.68828
624.4496, 21.53724
624.9318, 21.43485
625.4139, 21.38204
625.8960, 21.44050
626.3781, 21.67058
626.8602, 21.87177
627.3423, 21.90195
627.8245, 21.76650
628.3066, 21.63951
628.7887, 21.51995
629.2708, 21.44224
629.7529, 21.42141
630.2350, 21.47128
630.7172, 21.67256
631.1993, 22.14132
631.6815, 22.48652
632.1636, 22.16164
632.6457, 21.55064
633.1278, 21.26041
633.6099, 21.92431
634.0920, 22.48002
634.5742, 22.53926
635.0563, 22.21167
635.5384, 21.94238
636.0205, 21.70582
636.5026, 21.58903
636.9847, 21.67464
637.4669, 21.94014
637.9490, 21.99453
638.4311, 21.79154
638.9132, 21.58988
639.3953, 21.57556
639.8774, 21.71276
640.3596, 21.86809
640.8417, 22.04239
641.3238, 22.13918
641.8059, 21.95992
642.2880, 21.68220
642.7701, 21.57723
643.2523, 21.76301
643.7344, 21.96041
644.2165, 22.03783
644.6986, 22.03991
645.1807, 22.02546
645.6628, 22.03702
646.1450, 21.98875
646.6271, 21.76972
647.1092, 21.50409
647.5913, 21.55320
648.0734, 22.06373
648.5555, 22.47874
649.0377, 22.61885
649.5198, 22.52511
650.0019, 22.34105
650.4840, 22.06571
650.9661, 21.83611
651.4482, 21.75541
651.9304, 21.77126
652.4125, 21.81328
652.8946, 21.87634
653.3767, 21.90902
653.8588, 21.81827
654.3409, 21.71875
654.8231, 21.72207
655.3052, 21.90009
655.7873, 22.02706
656.2694, 22.06252
656.7515, 22.01775
657.2336, 21.88396
657.7158, 21.52007
658.1979, 21.39317
658.6800, 21.61648
659.1621, 22.00349
659.6442, 22.22639
660.1263, 22.28259
660.6085, 21.82417
661.0906, 22.29559
661.5727, 22.54355
662.0548, 22.58006
662.5369, 21.77183
663.0190, 22.05442
663.5012, 21.89985
663.9833, 21.72736
664.4654, 22.16348
664.9475, 21.47811
665.4296, 21.14362
665.9117, 21.71147
666.3939, 22.05589
666.8760, 22.18885
667.3581, 21.47706
667.8402, 21.85609
668.3223, 21.79797
668.8044, 21.72192
669.2866, 22.25449
669.7687, 21.66556
670.2508, 22.18847
670.7329, 22.26755
671.2150, 22.54976
671.6971, 21.72132
672.1793, 21.37481
672.6614, 21.37543
673.1435, 21.88383
673.6256, 22.37574
674.1077, 22.29428
674.5898, 21.95743
675.0720, 21.85801
675.5541, 22.62195
676.0362, 23.11333
676.5183, 22.72322
677.0004, 21.83836
677.4825, 21.09079
677.9647, 21.70909
678.4468, 22.10390
678.9290, 22.28731
679.4111, 21.62592
679.8932, 22.05536
680.3753, 22.04766
680.8574, 22.02203
681.3395, 22.60499
681.8217, 22.06652
682.3038, 22.63983
682.7859, 22.76933
683.2680, 23.10196
683.7501, 22.58282
684.2322, 22.26686
684.7144, 22.14144
685.1965, 22.25959
685.6786, 22.43921
686.1607, 22.74567
686.6428, 23.01649
687.1249, 23.13761
687.6071, 23.05311
688.0892, 22.93099
688.5713, 22.73855
689.0534, 22.56191
689.5355, 22.53780
690.0176, 22.65744
690.4998, 22.72347
690.9819, 22.71271
691.4640, 22.60210
691.9461, 22.22502
692.4282, 21.73238
692.9103, 21.46924
693.3925, 21.76152
693.8746, 22.08837
694.3567, 22.08950
694.8388, 21.89993
695.3209, 21.83722
695.8030, 22.12652
696.2852, 22.37667
696.7673, 22.47466
697.2494, 22.45746
697.7315, 22.52876
698.2136, 22.73208
698.6957, 22.87936
699.1779, 22.87614
699.6600, 22.75067
700.1421, 22.60656
700.6242, 22.44596
701.1063, 22.32093
701.5884, 22.28724
702.0706, 22.29983
702.5527, 22.29938
703.0348, 22.28187
703.5169, 22.29005
703.9990, 22.47291
704.4811, 22.59849
704.9633, 22.46563
705.4454, 21.88401
705.9275, 21.53301
706.4096, 21.47930
706.8917, 21.58520
707.3738, 21.80767
707.8560, 22.18494
708.3381, 22.21067
708.8202, 21.74877
709.3023, 21.27454
709.7844, 21.55216
710.2665, 22.30661
710.7487, 22.73507
711.2308, 22.52264
711.7129, 22.22326
712.1950, 22.31205
712.6771, 22.58838
713.1592, 22.74945
713.6414, 22.58694
714.1235, 22.43212
714.6056, 22.37377
715.0877, 22.36823
715.5698, 22.30776
716.0519, 22.10057
716.5341, 22.10237
717.0162, 22.49165
717.4983, 23.07875
717.9804, 23.26834
718.4625, 23.08837
718.9446, 22.91310
719.4268, 23.01756
719.9089, 23.16784
720.3910, 22.96697
720.8731, 22.51107
721.3552, 22.20016
721.8373, 22.32126
722.3195, 22.56757
722.8016, 22.83722
723.2837, 23.11797
723.7658, 23.24280
724.2479, 23.15861
724.7300, 22.98450
725.2122, 22.74360
725.6943, 22.43377
726.1765, 22.24775
726.6586, 22.20371
727.1407, 22.15392
727.6228, 21.88627
728.1049, 21.53964
728.5870, 21.51315
729.0692, 21.84651
729.5513, 22.13804
730.0334, 21.96106
730.5155, 21.68749
730.9976, 21.71194
731.4797, 22.25900
731.9619, 22.60154
732.4440, 22.44427
732.9261, 22.15373
733.4082, 21.97677
733.8903, 21.89272
734.3724, 22.05049
734.8546, 22.55015
735.3367, 23.06735
735.8188, 23.17418
736.3009, 22.92958
736.7830, 22.54719
737.2651, 21.99060
737.7473, 21.57547
738.2294, 21.85302
738.7115, 22.41192
739.1936, 22.62717
739.6757, 21.75221
740.1578, 21.21267
740.6400, 21.76298
741.1221, 22.79240
741.6042, 23.22682
742.0863, 22.76558
742.5684, 22.37579
743.0505, 22.23309
743.5327, 22.22338
744.0148, 22.05988
744.4969, 21.76155
744.9790, 21.55561
745.4611, 21.51525
745.9432, 21.62276
746.4254, 21.98481
746.9075, 22.48132
747.3896, 22.79667
747.8717, 22.57538
748.3538, 22.36130
748.8359, 22.48491
749.3181, 22.84888
749.8002, 22.92219
750.2823, 22.47803
750.7644, 22.11992
751.2465, 22.06983
751.7286, 22.24795
752.2108, 22.25721
752.6929, 22.09464
753.1750, 21.93601
753.6571, 21.86993
754.1392, 21.87577
754.6213, 21.94555
755.1035, 22.06714
755.5856, 22.16940
756.0677, 22.16265
756.5498, 22.16951
757.0319, 22.29318
757.5140, 22.54189
757.9962, 22.69570
758.4783, 22.73208
758.9604, 22.68752
759.4425, 22.53678
759.9246, 22.28689
760.4067, 22.19888
760.8889, 22.28391
761.3710, 22.43615
761.8531, 22.71220
762.3352, 22.83711
762.8173, 22.89343
763.2994, 22.88486
763.7816, 22.61700
764.2637, 22.68395
764.7458, 22.61673
765.2279, 22.54400
765.7100, 22.65807
766.1921, 21.78335
766.6743, 22.01247
767.1564, 22.36451
767.6385, 22.34326
768.1206, 21.87523
768.6027, 21.79447
769.0848, 22.16578
769.5670, 22.55912
770.0491, 22.53200
770.5312, 22.25606
771.0133, 22.04858
771.4954, 21.94488
771.9775, 21.94610
772.4597, 22.21239
772.9418, 22.48383
773.4240, 22.52282
773.9061, 22.16641
774.3882, 21.89378
774.8703, 21.66215
775.3524, 21.58609
775.8345, 21.86733
776.3167, 22.56533
776.7988, 22.81816
777.2809, 22.50084
777.7630, 22.10301
778.2451, 22.32602
778.7272, 22.81784
779.2094, 22.77262
779.6915, 21.88139
780.1736, 21.16218
780.6557, 21.51713
781.1378, 22.19077
781.6199, 22.43468
782.1021, 21.61878
782.5842, 21.25148
783.0663, 21.53549
783.5484, 22.04277
784.0305, 22.33786
784.5126, 22.42019
784.9948, 22.30010
785.4769, 21.91746
785.9590, 21.61784
786.4411, 21.95264
786.9232, 22.62241
787.4053, 23.09671
787.8875, 23.23339
788.3696, 23.19805
788.8517, 22.97473
789.3338, 22.67339
789.8159, 22.40921
790.2980, 22.10865
790.7802, 22.02240
791.2623, 22.28008
791.7444, 22.59294
792.2265, 22.45587
792.7086, 21.91242
793.1907, 21.82610
793.6729, 22.43295
794.1550, 23.14041
794.6371, 23.31572
795.1192, 23.13470
795.6013, 22.87061
796.0834, 22.54429
796.5656, 22.25519
797.0477, 22.01895
797.5298, 21.84834
798.0119, 21.75037
798.4940, 21.71549
798.9761, 21.80147
799.4583, 22.09348
799.9404, 22.36355
800.4225, 22.18093
800.9046, 21.65081
801.3867, 21.43206
801.8688, 21.71269
802.3510, 22.12351
802.8331, 22.43899
803.3152, 22.60770
803.7973, 22.53587
804.2794, 21.96405
804.7615, 21.54694
805.2437, 21.49536
805.7258, 21.62177
806.2079, 21.74414
806.6900, 21.86024
807.1721, 21.99371
807.6542, 22.16495
808.1364, 22.30165
808.6185, 22.26984
809.1006, 22.12250
809.5827, 22.01727
810.0648, 21.99530
810.5469, 22.00138
811.0291, 21.99904
811.5112, 21.99984
811.9933, 22.01149
812.4754, 21.76093
812.9575, 21.94610
813.4396, 22.06268
813.9218, 22.11437
814.4039, 21.90677
814.8860, 22.03398
815.3681, 22.02702
815.8502, 21.83317
816.3323, 21.86582
816.8145, 21.85074
817.2966, 21.92154
817.7787, 21.92375
818.2608, 21.86106
818.7429, 21.53909
819.2251, 21.55191
819.7072, 21.43058
820.1893, 21.96111
820.6714, 21.53379
821.1536, 21.37703
821.6357, 21.59336
822.1178, 21.89655
822.5999, 21.96303
823.0820, 21.82798
823.5641, 21.71528
824.0463, 21.64660
824.5284, 21.63157
825.0105, 21.72706
825.4926, 21.85760
825.9747, 21.94720
826.4568, 21.87293
826.9390, 22.02750
827.4211, 22.11349
827.9032, 22.13457
828.3853, 21.89638
828.8674, 21.99299
829.3495, 21.95543
829.8317, 21.91236
830.3138, 22.60548
830.7959, 22.56002
831.2780, 22.13708
831.7601, 21.97291
832.2422, 22.14502
832.7244, 22.34571
833.2065, 22.38957
833.6886, 22.38006
834.1707, 22.40692
834.6528, 22.50912
835.1349, 22.50074
835.6171, 22.30791
836.0992, 22.13018
836.5813, 22.14575
837.0634, 22.33201
837.5455, 22.29008
838.0276, 22.01346
838.5098, 21.80371
838.9919, 21.97512
839.4740, 22.28054
839.9561, 22.47245
840.4382, 22.53305
840.9203, 22.51354
841.4025, 22.30584
841.8846, 22.14660
842.3667, 22.17975
842.8488, 22.39853
843.3309, 22.42551
843.8130, 22.23660
844.2952, 21.99125
844.7773, 21.69110
845.2594, 21.42911
845.7415, 21.47577
846.2236, 21.78446
846.7057, 22.10572
847.1879, 22.37590
847.6700, 22.55025
848.1521, 22.58868
848.6342, 22.49678
849.1163, 22.33769
849.5984, 22.02499
850.0806, 21.83709
850.5627, 21.91973
851.0448, 22.16352
851.5269, 22.22277
852.0090, 22.10690
852.4911, 21.88779
852.9733, 21.41389
853.4554, 21.03467
853.9375, 21.21003
854.4196, 21.72660
854.9017, 22.05875
855.3839, 21.84715
855.8660, 21.68488
856.3481, 21.71414
856.8302, 21.84966
857.3123, 21.90434
857.7944, 21.87369
858.2766, 21.81189
858.7587, 21.69604
859.2408, 21.63487
859.7229, 21.92978
860.2050, 22.37830
860.6871, 22.55091
861.1693, 22.13408
861.6514, 21.69202
862.1335, 21.34864
862.6156, 21.14203
863.0977, 21.13346
863.5798, 21.43237
864.0620, 21.60425
864.5441, 21.58667
865.0262, 21.50324
865.5083, 21.52431
865.9904, 21.61004
866.4726, 21.64822
866.9547, 21.62579
867.4368, 21.51623
867.9189, 21.13180
868.4011, 20.75146
868.8832, 20.65183
869.3653, 21.02186
869.8474, 21.29678
870.3295, 21.47231
870.8116, 21.55464
871.2938, 21.51689
871.7759, 21.37154
872.2580, 21.22585
872.7401, 21.08051
873.2222, 21.06925
873.7043, 21.54112
874.1865, 22.03729
874.6686, 22.00990
875.1507, 21.41199
875.6328, 20.99393
876.1149, 21.18336
876.5970, 20.36205
877.0792, 21.56249
877.5613, 22.23008
878.0434, 22.39346
878.5255, 20.54244
879.0076, 21.29260
879.4897, 21.00032
879.9719, 20.66529
880.4540, 21.78156
880.9361, 20.22353
881.4182, 21.31677
881.9003, 21.35168
882.3824, 21.87096
882.8646, 21.34137
883.3467, 21.13574
883.8288, 21.97932
884.3109, 21.87437
884.7930, 22.21654
885.2751, 21.66589
885.7573, 20.81551
886.2394, 20.69327
886.7215, 21.05950
887.2036, 21.32552
887.6857, 21.22316
888.1678, 21.09118
888.6500, 21.19080
889.1321, 21.29108
889.6142, 21.04226
890.0963, 20.15143
890.5784, 19.75160
891.0605, 20.04004
891.5427, 20.51264
892.0248, 20.59053
892.5069, 20.37717
892.9890, 20.12306
893.4711, 19.84512
893.9532, 19.74045
894.4354, 20.20922
894.9175, 20.72509
895.3996, 20.81189
895.8817, 20.28327
896.3638, 19.96415
896.8459, 19.89686
897.3281, 19.95663
897.8102, 20.11397
898.2923, 20.34170
898.7744, 20.53254
899.2565, 20.67340
899.7386, 20.62751
900.2208, 20.04900
900.7029, 19.46890
901.1850, 19.34905
901.6671, 19.63109
902.1492, 19.76319
902.6313, 19.55851
903.1135, 19.42762
903.5956, 19.50904
904.0777, 19.71266
904.5598, 19.79827
905.0419, 19.77247
905.5240, 19.67756
906.0062, 19.45028
906.4883, 19.29000
906.9704, 19.46287
907.4525, 19.79977
907.9346, 20.02980
908.4167, 20.05144
908.8989, 19.99294
909.3810, 19.80524
909.8631, 19.61008
910.3452, 19.61096
910.8273, 19.78586
911.3094, 19.76745
911.7916, 19.48892
912.2737, 19.20372
912.7558, 19.10733
913.2380, 19.15292
913.7201, 19.35196
914.2022, 19.77340
914.6843, 19.94613
915.1664, 19.56395
915.6486, 19.21901
916.1307, 19.25012
916.6128, 19.63224
917.0949, 19.98150
917.5770, 20.29807
918.0591, 20.46322
918.5413, 20.32632
919.0234, 20.05776
919.5055, 19.77371
919.9876, 19.50431
920.4697, 19.34216
920.9518, 19.37032
921.4340, 19.44847
921.9161, 19.57249
922.3982, 19.70991
922.8803, 19.79896
923.3624, 19.83713
923.8445, 19.74034
924.3267, 19.42258
924.8088, 19.11067
925.2909, 19.11448
925.7730, 19.26349
926.2551, 19.29151
926.7372, 18.92056
927.2194, 18.82821
927.7015, 19.34533
928.1836, 19.87633
928.6657, 19.74845
929.1478, 18.96304
929.6299, 18.75854
930.1121, 19.22819
930.5942, 19.70916
931.0763, 19.53700
931.5584, 19.13626
932.0405, 18.93579
932.5226, 18.97813
933.0048, 19.12666
933.4869, 19.54477
933.9690, 19.81695
934.4511, 19.72098
934.9332, 19.36382
935.4153, 19.33879
935.8975, 19.62885
936.3796, 19.87264
936.8617, 19.87118
937.3438, 19.78434
937.8259, 19.82253
938.3080, 19.88872
938.7902, 19.78875
939.2723, 19.15713
939.7544, 18.79690
940.2365, 18.86553
940.7186, 19.14788
941.2007, 19.40097
941.6829, 19.61768
942.1650, 19.70052
942.6471, 19.62940
943.1292, 19.48731
943.6113, 19.22719
944.0934, 19.01175
944.5756, 19.03949
945.0577, 19.39664
945.5398, 19.64081
946.0219, 19.71567
946.5040, 19.70993
946.9861, 19.61083
947.4683, 19.46435
947.9504, 19.64701
948.4325, 20.10851
948.9146, 20.41191
949.3967, 20.11701
949.8788, 19.73954
950.3610, 19.68392
950.8431, 19.85212
951.3252, 19.94146
951.8073, 19.89651
952.2894, 19.80036
952.7715, 19.59795
953.2537, 19.45281
953.7358, 19.78555
954.2179, 20.43497
954.7000, 20.70713
955.1821, 20.38891
955.6642, 20.01549
956.1464, 19.87845
956.6285, 19.91199
957.1106, 20.10587
957.5927, 20.53418
958.0748, 20.73672
958.5569, 20.67014
959.0391, 20.49238
959.5212, 20.26915
960.0033, 20.02182
960.4855, 19.74453
960.9676, 19.47528
961.4497, 19.43015
961.9318, 20.20560
962.4139, 20.73845
962.8961, 19.80360
963.3782, 20.23818
963.8603, 20.44930
964.3424, 20.44897
964.8245, 19.60388
965.3066, 19.84963
965.7888, 19.70660
966.2709, 19.73074
966.7530, 19.78047
967.2351, 19.68869
967.7172, 19.32237
968.1993, 19.15956
968.6815, 19.64959
969.1636, 20.18111
969.6457, 20.29723
970.1278, 19.94890
970.6099, 19.85073
971.0920, 20.02449
971.5742, 20.15627
972.0563, 19.90908
972.5384, 19.57404
973.0205, 19.55473
973.5026, 19.78744
973.9847, 19.98134
974.4669, 20.02829
974.9490, 20.04397
975.4311, 20.06872
975.9132, 20.06669
976.3953, 19.87961
976.8774, 19.53512
977.3596, 19.53017
977.8417, 20.05004
978.3238, 20.59943
978.8059, 20.74037
979.2880, 20.65963
979.7701, 20.53874
980.2523, 20.37078
980.7344, 20.30023
981.2165, 20.37446
981.6986, 20.46205
982.1807, 20.47017
982.6628, 20.42430
983.1450, 20.41863
983.6271, 20.45827
984.1092, 20.57617
984.5913, 20.96212
985.0734, 21.25689
985.5555, 21.20326
986.0377, 20.90872
986.5198, 20.67699
987.0019, 20.50819
987.4840, 20.40894
987.9661, 20.38492
988.4482, 20.41795
988.9304, 20.52485
989.4125, 20.65912
989.8946, 20.73142
990.3767, 20.72319
990.8588, 20.67391
991.3409, 20.54459
991.8231, 20.43120
992.3052, 20.39748
992.7873, 20.43992
993.2694, 20.43301
993.7515, 20.37337
994.2336, 20.36093
994.7158, 20.46543
995.1979, 20.63215
995.6800, 20.85246
996.1621, 21.08258
996.6442, 21.21852
997.1263, 21.17121
997.6085, 21.09840
998.0906, 20.97520
998.5727, 20.88484
999.0548, 20.98918
999.5369, 21.24197
1000.019, 21.32530
1000.501, 21.19429
1000.983, 21.05249
1001.465, 21.10076
1001.948, 21.15474
1002.430, 21.01109
1002.912, 20.66101
1003.394, 20.57612
1003.876, 20.81711
1004.358, 21.14529
1004.840, 21.55457
1005.322, 21.89811
1005.804, 21.81441
1006.287, 21.44105
1006.769, 21.11137
1007.251, 20.94579
1007.733, 20.84803
1008.215, 20.81728
1008.697, 20.81888
1009.179, 20.80986
1009.661, 20.78095
1010.144, 20.84604
1010.626, 21.00982
1011.108, 21.27430
1011.590, 21.89439
1012.072, 22.43169
1012.554, 22.33722
1013.036, 21.67568
1013.518, 21.13256
1014.000, 20.70794
1014.483, 20.62114
1014.965, 21.05547
1015.447, 21.70093
1015.929, 21.94792
1016.411, 21.86346
1016.893, 21.65780
1017.375, 21.32661
1017.857, 21.08655
1018.340, 21.12640
1018.822, 21.27869
1019.304, 21.41831
1019.786, 21.55486
1020.268, 21.52093
1020.750, 21.27513
1021.232, 21.12202
1021.714, 21.36500
1022.196, 21.75210
1022.679, 21.87687
1023.161, 21.81424
1023.643, 21.77724
1024.125, 21.90948
1024.607, 21.97350
1025.089, 21.90367
1025.571, 21.78301
1026.053, 21.74424
1026.536, 21.77120
1027.018, 21.66575
1027.500, 21.38803
1027.982, 21.28365
1028.464, 21.94462
1028.946, 22.62848
1029.428, 22.65744
1029.910, 22.00469
1030.392, 21.61362
1030.875, 21.53184
1031.357, 21.52713
1031.839, 21.51044
1032.321, 21.53289
1032.803, 21.73455
1033.285, 22.03709
1033.767, 22.28619
1034.249, 22.52218
1034.732, 22.51344
1035.214, 21.90812
1035.696, 21.32775
1036.178, 21.26827
1036.660, 21.72413
1037.142, 22.16589
1037.624, 22.57860
1038.106, 22.82355
1038.589, 22.70947
1039.071, 22.47764
1039.553, 22.24880
1040.035, 22.05239
1040.517, 21.96730
1040.999, 22.05005
1041.481, 22.07636
1041.963, 21.99013
1042.445, 21.90201
1042.927, 21.97473
1043.410, 22.14692
1043.892, 22.29863
1044.374, 22.41064
1044.856, 22.53820
1045.338, 22.79802
1045.820, 22.96716
1046.302, 22.89711
1046.784, 22.65883
1047.267, 22.72091
1047.749, 23.03807
1048.231, 23.03609
1048.713, 22.23575
1049.195, 21.48614
1049.677, 21.54993
1050.159, 22.02873
1050.641, 22.39530
1051.124, 22.62359
1051.606, 22.67746
1052.088, 22.53295
1052.570, 22.30245
1053.052, 21.93031
1053.534, 21.59396
1054.016, 21.73778
1054.498, 22.25743
1054.980, 22.63496
1055.463, 22.58051
1055.945, 22.45861
1056.427, 22.32245
1056.909, 22.20510
1057.391, 22.17029
1057.873, 22.21001
1058.355, 22.26002
1058.837, 22.30997
1059.319, 22.37688
1059.802, 22.50562
1060.284, 22.62889
1060.766, 22.67996
1061.248, 22.66355
1061.730, 22.69707
1062.212, 22.79664
1062.694, 22.86620
1063.176, 22.87766
1063.659, 22.82843
1064.141, 22.63234
1064.623, 22.39716
1065.105, 22.32212
1065.587, 22.59301
1066.069, 22.71854
1066.551, 22.58923
1067.033, 22.40783
1067.516, 22.27523
1067.998, 22.20800
1068.480, 22.41288
1068.962, 22.81720
1069.444, 23.00875
1069.926, 22.39493
1070.408, 21.91852
1070.890, 22.28564
1071.372, 22.95083
1071.854, 23.02929
1072.337, 22.43455
1072.819, 22.13986
1073.301, 22.26769
1073.783, 22.46445
1074.265, 22.41128
1074.747, 22.25499
1075.229, 22.09375
1075.711, 21.94897
1076.194, 21.96940
1076.676, 22.26418
1077.158, 22.44748
1077.640, 22.36814
1078.122, 22.21589
1078.604, 22.35567
1079.086, 22.66599
1079.568, 22.90662
1080.051, 23.03854
1080.533, 23.04652
1081.015, 22.62077
1081.497, 22.40246
1081.979, 22.87014
1082.461, 23.84095
1082.943, 24.05521
1083.425, 23.61014
1083.907, 23.21671
1084.390, 23.23739
1084.872, 23.36956
1085.354, 23.56023
1085.836, 23.67576
1086.318, 23.51339
1086.800, 22.93650
1087.282, 22.68358
1087.764, 22.79675
1088.247, 22.98779
1088.729, 23.02635
1089.211, 23.01972
1089.693, 23.09891
1090.175, 23.24541
1090.657, 23.37925
1091.139, 23.57597
1091.621, 23.56710
1092.104, 23.24560
1092.586, 22.85850
1093.068, 22.70999
1093.550, 22.75902
1094.032, 22.97759
1094.514, 23.36154
1094.996, 23.60120
1095.478, 23.41068
1095.960, 23.21348
1096.443, 23.15641
1096.925, 23.21552
1097.407, 23.34610
1097.889, 23.53748
1098.371, 23.73951
1098.853, 23.99553
1099.335, 24.05545
1099.817, 23.44603
1100.299, 22.78024
1100.782, 22.64844
1101.264, 23.06788
1101.746, 23.40248
1102.228, 23.65952
1102.710, 23.75302
1103.192, 23.55361
1103.674, 23.28088
1104.156, 23.11446
1104.639, 23.07268
1105.121, 23.20099
1105.603, 23.70889
1106.085, 23.96922
1106.567, 23.94901
1107.049, 23.77565
1107.531, 23.39244
1108.013, 22.99874
1108.495, 23.09440
1108.978, 23.55540
1109.460, 23.86353
1109.942, 23.70918
1110.424, 23.53725
1110.906, 23.39783
1111.388, 23.31274
1111.870, 23.31894
1112.352, 23.40434
1112.834, 23.56406
1113.317, 23.79130
1113.799, 23.89487
1114.281, 23.47544
1114.763, 23.22579
1115.245, 23.68297
1115.727, 24.47461
1116.209, 24.56524
1116.691, 23.98264
1117.174, 23.66150
1117.656, 23.85260
1118.138, 24.04534
1118.620, 23.61477
1119.102, 23.13616
1119.584, 23.23690
1120.066, 23.90534
1120.548, 24.08944
1121.031, 23.71364
1121.513, 23.38718
1121.995, 23.37362
1122.477, 23.42965
1122.959, 23.11376
1123.441, 22.73420
1123.923, 22.76740
1124.405, 23.53491
1124.887, 24.02023
1125.370, 24.16235
1125.852, 24.15491
1126.334, 24.09031
1126.816, 23.96648
1127.298, 23.71227
1127.780, 23.40094
1128.262, 23.21033
1128.744, 23.29495
1129.227, 23.36924
1129.709, 23.36924
1130.191, 23.40233
1130.673, 23.65742
1131.155, 24.02133
1131.637, 23.97550
1132.119, 23.58423
1132.601, 23.27595
1133.083, 23.19240
1133.566, 23.33872
1134.048, 23.91083
1134.530, 24.53300
1135.012, 24.64724
1135.494, 24.30348
1135.976, 24.01393
1136.458, 23.82260
1136.940, 23.77004
1137.422, 24.09303
1137.905, 24.35554
1138.387, 24.16311
1138.869, 23.73775
1139.351, 23.69687
1139.833, 24.06537
1140.315, 24.12319
1140.797, 23.67807
1141.279, 23.36282
1141.762, 24.05035
1142.244, 24.87840
1142.726, 25.02578
1143.208, 24.49767
1143.690, 24.17631
1144.172, 24.08804
1144.654, 24.07680
1145.136, 24.11902
1145.619, 24.15825
1146.101, 24.07075
1146.583, 23.96874
1147.065, 23.98994
1147.547, 24.17476
1148.029, 24.44437
1148.511, 24.86960
1148.993, 25.13578
1149.475, 25.08722
1149.958, 24.83039
1150.440, 24.38371
1150.922, 23.90048
1151.404, 23.66819
1151.886, 23.87035
1152.368, 24.07331
1152.850, 24.27771
1153.332, 24.40476
1153.814, 24.34657
1154.297, 24.20810
1154.779, 24.23205
1155.261, 24.40128
1155.743, 24.66680
1156.225, 25.29530
1156.707, 25.57466
1157.189, 25.33763
1157.671, 24.90317
1158.154, 24.41084
1158.636, 23.94924
1159.118, 23.96571
1159.600, 24.38663
1160.082, 24.81701
1160.564, 25.26740
1161.046, 25.41898
1161.528, 24.99698
1162.010, 24.45461
1162.493, 24.33367
1162.975, 24.57380
1163.457, 24.78721
1163.939, 24.94993
1164.421, 25.05536
1164.903, 25.12180
1165.385, 25.10071
1165.867, 24.92727
1166.349, 24.68253
1166.832, 24.43964
1167.314, 24.21426
1167.796, 24.30525
1168.278, 24.74905
1168.760, 25.15686
1169.242, 25.16234
1169.724, 25.14075
1170.206, 25.39120
1170.689, 25.77378
1171.171, 25.92119
1171.653, 25.83774
1172.135, 25.74579
1172.617, 25.68215
1173.099, 25.65278
1173.581, 25.77505
1174.063, 25.83871
1174.546, 25.53663
1175.028, 25.00773
1175.510, 25.02291
1175.992, 25.61571
1176.474, 25.91015
1176.956, 25.60972
1177.438, 25.26407
1177.920, 25.44983
1178.402, 25.78589
1178.885, 25.95037
1179.367, 25.92643
1179.849, 25.67458
1180.331, 25.15234
1180.813, 24.87055
1181.295, 25.09284
1181.777, 25.39487
1182.259, 25.26406
1182.742, 25.01133
1183.224, 25.00579
1183.706, 25.30204
1184.188, 25.53233
1184.670, 25.68531
1185.152, 25.87722
1185.634, 26.20227
1186.116, 26.51142
1186.599, 26.63244
1187.081, 26.63072
1187.563, 26.57748
1188.045, 26.46250
1188.527, 26.39407
1189.009, 26.38142
1189.491, 26.36211
1189.973, 26.30753
1190.455, 26.22210
1190.938, 26.03704
1191.420, 25.85217
1191.902, 25.84576
1192.384, 26.13066
1192.866, 26.34568
1193.348, 26.49031
1193.830, 26.57023
1194.312, 26.56945
1194.794, 26.52479
1195.277, 26.48541
1195.759, 26.43780
1196.241, 26.34771
1196.723, 26.13640
1197.205, 26.06693
1197.687, 26.16594
1198.169, 26.30168
1198.651, 26.35241
1199.134, 26.39313
1199.616, 26.57811
1200.098, 26.82737
1200.580, 26.92806
1201.062, 26.77671
1201.544, 26.64085
1202.026, 26.52372
1202.508, 26.45777
1202.990, 26.45388
1203.473, 26.53047
1203.955, 26.77398
1204.437, 27.12093
1204.919, 27.37274
1205.401, 27.52810
1205.883, 27.48965
1206.365, 27.18536
1206.847, 26.95037
1207.329, 27.27363
1207.812, 27.73745
1208.294, 27.82032
1208.776, 27.55893
1209.258, 27.16359
1209.740, 26.44600
1210.222, 26.23062
1210.704, 26.70897
1211.186, 27.28726
1211.669, 27.28979
1212.151, 27.09252
1212.633, 27.23113
1213.115, 27.63858
1213.597, 27.74588
1214.079, 27.33890
1214.561, 27.17615
1215.043, 27.40433
1215.526, 27.71659
1216.008, 27.81040
1216.490, 27.78493
1216.972, 27.67664
1217.454, 27.53614
1217.936, 27.69339
1218.418, 28.33593
1218.900, 28.62411
1219.382, 28.36132
1219.865, 27.97763
1220.347, 27.94034
1220.829, 28.05271
1221.311, 28.10125
1221.793, 28.07951
1222.275, 28.10593
1222.757, 28.21335
1223.239, 28.22656
1223.722, 28.08127
1224.204, 27.98038
1224.686, 28.16563
1225.168, 28.49628
1225.650, 28.98469
1226.132, 29.54159
1226.614, 29.41214
1227.096, 28.38270
1227.578, 27.85398
1228.061, 28.19439
1228.543, 28.76544
1229.025, 29.03506
1229.507, 29.09315
1229.989, 28.94639
1230.471, 28.63247
1230.953, 28.45791
1231.435, 28.43711
1231.917, 28.42982
1232.400, 28.41448
1232.882, 28.34992
1233.364, 28.00557
1233.846, 27.74561
1234.328, 28.04068
1234.810, 28.76707
1235.292, 29.07108
1235.774, 28.92898
1236.257, 28.89074
1236.739, 29.12306
1237.221, 29.30069
1237.703, 29.02098
1238.185, 28.68032
1238.667, 28.64857
1239.149, 28.84387
1239.631, 28.87734
1240.114, 28.75676
1240.596, 28.69784
1241.078, 28.74781
1241.560, 28.89857
1242.042, 29.44939
1242.524, 29.78406
1243.006, 29.27211
1243.488, 28.26130
1243.970, 28.17579
1244.453, 28.89489
1244.935, 29.45680
1245.417, 29.63028
1245.899, 29.65699
1246.381, 29.62415
1246.863, 29.55182
1247.345, 29.48804
1247.827, 29.38331
1248.309, 28.89442
1248.792, 28.19324
1249.274, 28.12292
1249.756, 28.99485
1250.238, 29.77228
1250.720, 29.97919
1251.202, 29.91557
1251.684, 29.59153
1252.166, 29.19825
1252.649, 29.31598
1253.131, 29.77322
1253.613, 30.05768
1254.095, 30.04058
1254.577, 29.98939
1255.059, 29.99436
1255.541, 29.96171
1256.023, 29.82001
1256.505, 29.67419
1256.988, 29.83458
1257.470, 30.13281
1257.952, 30.17927
1258.434, 29.86387
1258.916, 29.63264
1259.398, 29.53223
1259.880, 29.57419
1260.362, 29.80668
1260.844, 30.09721
1261.327, 30.23805
1261.809, 30.28488
1262.291, 30.33387
1262.773, 30.40430
1263.255, 30.36395
1263.737, 30.16886
1264.219, 29.98615
1264.701, 29.83350
1265.184, 29.81306
1265.666, 30.20111
1266.148, 30.70165
1266.630, 30.96473
1267.112, 30.94357
1267.594, 30.84392
1268.076, 30.62992
1268.558, 30.65629
1269.041, 31.10415
1269.523, 31.51582
1270.005, 31.29011
1270.487, 30.94157
1270.969, 31.02644
1271.451, 31.45366
1271.933, 31.65464
1272.415, 31.63060
1272.897, 31.52631
1273.380, 31.37513
1273.862, 31.16730
1274.344, 30.76986
1274.826, 30.44524
1275.308, 30.39165
1275.790, 30.51736
1276.272, 30.46494
1276.754, 30.30020
1277.237, 30.45458
1277.719, 31.06414
1278.201, 31.52326
1278.683, 31.26812
1279.165, 31.09739
1279.647, 31.40756
1280.129, 31.90704
1280.611, 31.93143
1281.094, 31.64543
1281.576, 31.51421
1282.058, 31.61991
1282.540, 31.65852
1283.022, 31.50172
1283.504, 31.30776
1283.986, 31.05503
1284.468, 30.91187
1284.950, 31.31648
1285.432, 31.92332
1285.915, 32.13682
1286.397, 31.89952
1286.879, 31.69628
1287.361, 31.55041
1287.843, 31.53022
1288.325, 31.66541
1288.807, 31.87617
1289.289, 32.15685
1289.772, 32.40007
1290.254, 32.47769
1290.736, 32.39394
1291.218, 32.27478
1291.700, 32.11057
1292.182, 32.01159
1292.664, 32.00251
1293.146, 31.99529
1293.629, 31.89853
1294.111, 31.79274
1294.593, 31.69727
1295.075, 31.64905
1295.557, 31.73864
1296.039, 31.95913
1296.521, 32.33720
1297.003, 32.87071
1297.485, 33.08509
1297.968, 32.21448
1298.450, 31.57393
1298.932, 31.70017
1299.414, 32.18273
1299.896, 32.44590
1300.378, 32.54423
1300.860, 32.63067
1301.342, 32.71486
1301.824, 32.77250
1302.307, 32.76477
##END=



