##NAMES=Diaspore
##RRUFFID=R060287
##IDEAL CHEMISTRY=AlO(OH)
##LOCALITY=Selcuk, Mugla Province, Turkey
##OWNER=RRUFF
##SOURCE=Herb Obodda
##DESCRIPTION=Colorless transparent platy fragment
##STATUS=The identification of this mineral has been confirmed by X-ray diffraction and chemical analysis
##URL=rruff.info/R060287
##MEASURED CHEMISTRY=(Al_0.99_Fe^3+^_0.01_)_Î£=1_O(OH) ; trace amounts of Ti;  OH estimated by difference ; Fe^3+^ by charge balance
92.06543, 188.3626
92.54755, 188.9026
93.02966, 189.9414
93.51178, 190.0001
93.99390, 188.4886
94.47601, 185.4289
94.95813, 181.4488
95.44025, 177.3303
95.92236, 173.6452
96.40448, 170.3492
96.88660, 167.5619
97.36871, 166.0754
97.85082, 164.5620
98.33294, 161.9469
98.81506, 158.0065
99.29717, 153.5010
99.77929, 149.8602
100.2614, 147.0067
100.7435, 144.7506
101.2256, 143.1847
101.7078, 142.1194
102.1899, 141.2447
102.6720, 140.6771
103.1541, 139.9944
103.6362, 138.6089
104.1183, 136.5349
104.6005, 134.7393
105.0826, 134.4554
105.5647, 136.0027
106.0468, 136.4708
106.5289, 134.2025
107.0110, 131.2828
107.4931, 128.7752
107.9753, 126.9818
108.4574, 125.7500
108.9395, 124.8519
109.4216, 124.7955
109.9037, 124.2362
110.3858, 122.3835
110.8680, 120.2280
111.3501, 118.9115
111.8322, 119.0848
112.3143, 120.4559
112.7964, 121.1709
113.2785, 120.9503
113.7607, 120.4501
114.2428, 119.6702
114.7249, 118.7112
115.2070, 117.7588
115.6891, 116.9228
116.1712, 116.2285
116.6534, 115.7894
117.1355, 115.8807
117.6176, 116.0211
118.0997, 115.7855
118.5818, 115.1210
119.0639, 114.4052
119.5461, 113.9297
120.0282, 113.6665
120.5103, 113.6232
120.9924, 114.1553
121.4745, 114.8988
121.9566, 114.9525
122.4388, 113.9598
122.9209, 112.6430
123.4030, 111.4457
123.8851, 110.3693
124.3672, 109.4068
124.8493, 108.4733
125.3315, 107.5364
125.8136, 107.0547
126.2957, 107.7823
126.7778, 108.4546
127.2599, 108.3278
127.7420, 107.4338
128.2242, 106.4943
128.7063, 106.6156
129.1884, 108.7717
129.6705, 109.9620
130.1526, 109.3653
130.6347, 108.4530
131.1169, 108.4335
131.5990, 109.6785
132.0811, 111.5644
132.5632, 112.7137
133.0453, 111.7889
133.5274, 111.7600
134.0096, 113.5812
134.4917, 116.2334
134.9738, 118.2163
135.4559, 118.7777
135.9380, 118.3580
136.4201, 118.4608
136.9023, 119.3647
137.3844, 120.2992
137.8665, 120.8663
138.3486, 121.1518
138.8307, 121.5597
139.3128, 122.3784
139.7950, 123.4490
140.2771, 124.3115
140.7592, 124.5472
141.2413, 124.9736
141.7234, 126.6288
142.2055, 129.7438
142.6877, 132.8616
143.1698, 134.9006
143.6519, 136.5357
144.1340, 138.4576
144.6161, 140.6713
145.0982, 143.4915
145.5803, 147.7827
146.0625, 153.8935
146.5446, 161.1357
147.0267, 169.0493
147.5088, 177.7419
147.9909, 187.0755
148.4730, 196.2808
148.9552, 205.6770
149.4373, 221.0443
149.9194, 240.4305
150.4015, 268.8119
150.8836, 306.6411
151.3657, 354.6342
151.8479, 416.6811
152.3300, 499.5115
152.8121, 613.0437
153.2942, 686.7113
153.7763, 734.8986
154.2584, 743.2712
154.7406, 687.6682
155.2227, 575.5387
155.7048, 446.6393
156.1869, 342.1531
156.6690, 267.9195
157.1511, 210.5266
157.6333, 175.9833
158.1154, 154.3094
158.5975, 138.6697
159.0796, 127.7369
159.5617, 119.9238
160.0438, 113.7211
160.5260, 109.0435
161.0081, 105.5463
161.4902, 103.9508
161.9723, 103.4059
162.4544, 102.1982
162.9365, 99.59089
163.4187, 96.99139
163.9008, 96.17404
164.3829, 97.04134
164.8650, 98.05269
165.3471, 98.36904
165.8292, 98.07822
166.3113, 97.76827
166.7935, 97.72308
167.2756, 97.50274
167.7577, 96.68202
168.2398, 95.26547
168.7219, 93.78295
169.2040, 92.72456
169.6862, 92.12786
170.1683, 91.70767
170.6504, 91.46145
171.1325, 91.36028
171.6146, 91.45680
172.0967, 91.74372
172.5789, 92.08651
173.0610, 92.26721
173.5431, 92.14729
174.0252, 92.18738
174.5073, 92.55396
174.9894, 92.98014
175.4716, 93.32809
175.9537, 93.53751
176.4358, 93.56502
176.9179, 93.26731
177.4000, 91.70335
177.8821, 91.19065
178.3643, 92.46641
178.8464, 94.47119
179.3285, 96.09887
179.8106, 96.90028
180.2927, 97.26655
180.7748, 98.26106
181.2570, 99.83913
181.7391, 102.0922
182.2212, 104.9488
182.7033, 108.5068
183.1854, 113.0477
183.6675, 118.8191
184.1497, 125.3954
184.6318, 131.6736
185.1139, 139.8995
185.5960, 144.8480
186.0781, 143.6999
186.5602, 137.6613
187.0423, 129.8033
187.5245, 120.7855
188.0066, 111.5839
188.4887, 104.1964
188.9708, 98.84455
189.4529, 94.84983
189.9350, 92.13709
190.4172, 90.63855
190.8993, 89.49433
191.3814, 88.30546
191.8635, 87.32012
192.3456, 86.94791
192.8277, 87.52466
193.3099, 88.13147
193.7920, 87.75779
194.2741, 86.27812
194.7562, 84.74183
195.2383, 83.15582
195.7204, 81.91625
196.2026, 81.62510
196.6847, 82.65413
197.1668, 84.00832
197.6489, 83.94118
198.1310, 81.71583
198.6131, 80.19461
199.0953, 80.63660
199.5774, 81.87115
200.0595, 82.94686
200.5416, 83.50690
201.0237, 83.74792
201.5058, 84.19274
201.9880, 85.42172
202.4701, 85.72667
202.9522, 84.06866
203.4343, 81.80512
203.9164, 80.22729
204.3985, 79.91788
204.8807, 80.63962
205.3628, 81.76633
205.8449, 84.31451
206.3270, 85.86635
206.8091, 85.87891
207.2912, 84.90906
207.7733, 83.34309
208.2555, 81.34773
208.7376, 79.25951
209.2197, 78.34550
209.7018, 79.97733
210.1839, 81.30834
210.6660, 82.11841
211.1482, 82.44351
211.6303, 82.25452
212.1124, 81.49383
212.5945, 80.37077
213.0766, 79.74123
213.5587, 79.80102
214.0409, 80.06450
214.5230, 80.62002
215.0051, 81.30119
215.4872, 81.83887
215.9693, 82.10514
216.4514, 82.11874
216.9336, 81.92569
217.4157, 81.47015
217.8978, 80.94008
218.3799, 80.22672
218.8620, 79.46723
219.3441, 79.02931
219.8263, 79.15405
220.3084, 79.65700
220.7905, 80.04662
221.2726, 80.45986
221.7547, 80.57384
222.2368, 79.99648
222.7190, 78.90723
223.2011, 78.03917
223.6832, 77.72618
224.1653, 77.82399
224.6474, 77.96439
225.1295, 78.12207
225.6117, 78.37684
226.0938, 78.89346
226.5759, 79.62524
227.0580, 80.17196
227.5401, 80.40578
228.0222, 80.33144
228.5043, 79.90434
228.9865, 79.00754
229.4686, 78.22546
229.9507, 78.22855
230.4328, 79.00859
230.9149, 79.50033
231.3970, 79.17715
231.8792, 78.56316
232.3613, 78.11506
232.8434, 77.89584
233.3255, 77.68565
233.8076, 77.09811
234.2897, 76.05339
234.7719, 75.58129
235.2540, 76.75659
235.7361, 78.02295
236.2182, 78.30050
236.7003, 77.46010
237.1824, 76.31431
237.6646, 75.78652
238.1467, 76.02013
238.6288, 76.04522
239.1109, 75.47954
239.5930, 74.83870
240.0751, 74.24147
240.5573, 73.76250
241.0394, 73.61865
241.5215, 74.29575
242.0036, 76.20036
242.4857, 77.25745
242.9678, 76.62397
243.4500, 75.71052
243.9321, 75.13270
244.4142, 74.98049
244.8963, 75.03716
245.3784, 75.09560
245.8605, 75.19337
246.3427, 75.14869
246.8248, 74.85831
247.3069, 74.52471
247.7890, 74.21448
248.2711, 73.94844
248.7532, 73.74315
249.2354, 73.63805
249.7175, 73.69747
250.1996, 73.57303
250.6817, 72.95666
251.1638, 72.44925
251.6459, 72.44169
252.1281, 72.85801
252.6102, 73.30678
253.0923, 73.40945
253.5744, 73.11759
254.0565, 72.75579
254.5386, 72.20927
255.0208, 71.70840
255.5029, 71.29147
255.9850, 70.99911
256.4671, 70.92109
256.9492, 71.16839
257.4313, 71.78581
257.9135, 72.19124
258.3956, 72.39467
258.8777, 72.43410
259.3598, 72.12592
259.8419, 71.62730
260.3240, 71.43281
260.8062, 72.02446
261.2883, 73.38960
261.7704, 73.64711
262.2525, 71.83325
262.7346, 70.15768
263.2167, 69.71756
263.6989, 70.17626
264.1810, 70.49182
264.6631, 69.94511
265.1452, 68.67992
265.6273, 67.99271
266.1094, 68.18064
266.5916, 68.49255
267.0737, 68.61979
267.5558, 68.66285
268.0379, 68.94060
268.5200, 69.70493
269.0021, 70.74876
269.4843, 71.18154
269.9664, 70.49202
270.4485, 69.95213
270.9306, 70.15536
271.4127, 70.79374
271.8948, 71.18855
272.3770, 71.00224
272.8591, 70.46894
273.3412, 70.18186
273.8233, 70.13600
274.3054, 70.25485
274.7875, 70.75514
275.2697, 71.37916
275.7518, 71.54637
276.2339, 70.95532
276.7160, 70.08613
277.1981, 69.97097
277.6802, 70.77965
278.1623, 71.31419
278.6444, 70.94091
279.1266, 70.14127
279.6087, 69.73202
280.0908, 69.94315
280.5729, 70.49653
281.0550, 71.09171
281.5371, 71.73135
282.0193, 72.35182
282.5014, 72.92706
282.9835, 73.47778
283.4656, 74.08984
283.9477, 74.81084
284.4298, 75.40350
284.9120, 75.53775
285.3941, 75.27329
285.8762, 74.96213
286.3583, 74.36567
286.8404, 73.90203
287.3225, 74.33648
287.8047, 75.85021
288.2868, 77.18290
288.7689, 77.02221
289.2510, 75.79359
289.7331, 75.02551
290.2152, 75.44793
290.6974, 76.14607
291.1795, 76.18824
291.6616, 75.54565
292.1437, 74.62952
292.6258, 73.38094
293.1079, 72.10705
293.5901, 71.48860
294.0722, 71.79642
294.5543, 72.55293
295.0364, 73.65165
295.5185, 75.05186
296.0006, 75.86469
296.4828, 75.22066
296.9649, 74.00793
297.4470, 73.83064
297.9291, 75.05832
298.4112, 76.56754
298.8933, 77.81191
299.3755, 78.74889
299.8576, 79.06031
300.3397, 78.28106
300.8218, 77.19729
301.3039, 76.88823
301.7860, 77.42954
302.2682, 78.13698
302.7503, 78.68404
303.2324, 79.10369
303.7145, 79.51376
304.1966, 79.93230
304.6787, 80.36330
305.1609, 80.97617
305.6430, 81.72961
306.1251, 82.03476
306.6072, 80.82948
307.0893, 79.09588
307.5714, 79.17025
308.0536, 81.72742
308.5357, 84.92253
309.0178, 87.02269
309.4999, 88.46316
309.9820, 90.47910
310.4641, 93.39498
310.9463, 97.13554
311.4284, 102.0479
311.9105, 108.4567
312.3926, 114.1475
312.8747, 117.1620
313.3568, 118.5054
313.8390, 119.7941
314.3211, 120.9502
314.8032, 122.5631
315.2853, 125.6353
315.7674, 130.1955
316.2495, 134.2977
316.7317, 136.4142
317.2138, 137.9476
317.6959, 140.9908
318.1780, 145.9455
318.6601, 151.7504
319.1422, 157.3716
319.6243, 163.0156
320.1064, 169.9766
320.5886, 178.7852
321.0707, 189.0686
321.5528, 200.0359
322.0349, 211.6474
322.5170, 224.5536
322.9991, 238.4542
323.4813, 253.8519
323.9634, 272.0234
324.4455, 292.3955
324.9276, 317.2286
325.4097, 347.1780
325.8918, 382.2391
326.3740, 425.7983
326.8561, 479.3293
327.3382, 542.0310
327.8203, 614.1605
328.3024, 696.7024
328.7845, 784.9818
329.2667, 886.6217
329.7488, 991.3682
330.2309, 1072.754
330.7130, 1137.653
331.1951, 1168.128
331.6772, 1138.551
332.1594, 1049.542
332.6415, 937.3924
333.1236, 806.7620
333.6057, 670.8191
334.0878, 554.7286
334.5699, 461.5438
335.0521, 385.2239
335.5342, 323.9951
336.0163, 277.1593
336.4984, 240.8233
336.9805, 216.0893
337.4626, 198.6542
337.9448, 181.8351
338.4269, 165.0681
338.9090, 150.8789
339.3911, 141.1344
339.8732, 134.4471
340.3553, 128.3715
340.8375, 122.4271
341.3196, 117.7933
341.8017, 112.9975
342.2838, 110.1210
342.7659, 107.4926
343.2480, 105.3421
343.7302, 103.1246
344.2123, 99.81223
344.6944, 95.37631
345.1765, 91.73893
345.6586, 90.70211
346.1407, 91.84256
346.6229, 91.84055
347.1050, 89.73401
347.5871, 87.32658
348.0692, 85.64327
348.5513, 84.57658
349.0334, 83.64625
349.5156, 82.63866
349.9977, 81.61626
350.4798, 80.75259
350.9619, 80.02344
351.4440, 79.45475
351.9261, 79.15101
352.4083, 78.99817
352.8904, 78.83143
353.3725, 78.61005
353.8546, 78.30166
354.3367, 77.78157
354.8188, 76.90893
355.3010, 76.45341
355.7831, 76.87540
356.2652, 77.50003
356.7473, 77.74262
357.2294, 77.53410
357.7115, 77.11055
358.1937, 76.66502
358.6758, 76.19536
359.1579, 75.62043
359.6400, 74.65176
360.1221, 73.86384
360.6042, 73.67371
361.0863, 73.90799
361.5685, 74.04701
362.0506, 73.75716
362.5327, 73.22575
363.0148, 73.24327
363.4969, 74.24938
363.9790, 75.21150
364.4612, 76.01319
364.9433, 76.68639
365.4254, 77.31892
365.9075, 77.93242
366.3896, 78.34480
366.8717, 78.21258
367.3539, 77.04849
367.8360, 76.46555
368.3181, 76.93362
368.8002, 77.57826
369.2823, 77.71168
369.7644, 77.37132
370.2466, 77.16076
370.7287, 77.70589
371.2108, 79.08781
371.6929, 79.76980
372.1750, 79.12711
372.6571, 78.50716
373.1393, 78.18700
373.6214, 78.18066
374.1035, 78.49660
374.5856, 79.15846
375.0677, 80.03156
375.5498, 80.64464
376.0320, 80.38641
376.5141, 80.82266
376.9962, 82.72857
377.4783, 84.94999
377.9604, 86.23887
378.4425, 86.39424
378.9247, 86.47192
379.4068, 87.90234
379.8889, 90.92600
380.3710, 94.49358
380.8531, 99.53015
381.3352, 104.2844
381.8174, 108.1452
382.2995, 111.0608
382.7816, 113.2621
383.2637, 115.1915
383.7458, 116.5587
384.2279, 115.0827
384.7101, 108.8733
385.1922, 102.5604
385.6743, 97.06458
386.1564, 92.45825
386.6385, 88.77772
387.1206, 86.09633
387.6028, 84.24077
388.0849, 83.04440
388.5670, 82.62249
389.0491, 82.32745
389.5312, 82.06426
390.0133, 81.85398
390.4955, 81.72295
390.9776, 81.66957
391.4597, 81.65217
391.9418, 81.63390
392.4239, 81.62144
392.9060, 81.65028
393.3882, 81.70850
393.8703, 81.83809
394.3524, 82.05437
394.8345, 82.35427
395.3166, 82.75034
395.7987, 83.32639
396.2809, 83.93675
396.7630, 84.45496
397.2451, 84.90047
397.7272, 84.97663
398.2093, 84.24547
398.6914, 83.24277
399.1736, 82.82812
399.6557, 83.15469
400.1378, 83.64677
400.6199, 83.97013
401.1020, 84.19697
401.5841, 84.66696
402.0662, 85.63215
402.5483, 86.31363
403.0305, 85.22399
403.5126, 82.49891
403.9947, 81.08830
404.4768, 82.77810
404.9589, 85.16774
405.4410, 85.75462
405.9232, 84.58769
406.4053, 83.64810
406.8874, 84.39684
407.3695, 86.38384
407.8516, 87.25542
408.3337, 86.08808
408.8159, 85.04179
409.2980, 84.81552
409.7801, 85.13194
410.2622, 85.59712
410.7443, 86.08482
411.2264, 86.55444
411.7086, 86.92323
412.1907, 87.04887
412.6728, 87.45561
413.1549, 88.62305
413.6370, 89.68450
414.1191, 89.83096
414.6013, 89.22798
415.0834, 88.75423
415.5655, 89.12380
416.0476, 90.28829
416.5297, 91.38270
417.0118, 92.57644
417.4940, 93.48963
417.9761, 93.75432
418.4582, 93.81459
418.9403, 94.16927
419.4224, 95.01641
419.9045, 96.26447
420.3867, 97.85146
420.8688, 100.0328
421.3509, 101.8430
421.8330, 102.4348
422.3151, 103.3406
422.7972, 105.5090
423.2794, 108.7954
423.7615, 112.4222
424.2436, 115.9025
424.7257, 119.2084
425.2078, 121.9467
425.6899, 122.8132
426.1721, 125.4964
426.6542, 131.4213
427.1363, 139.6016
427.6184, 148.9140
428.1005, 158.9691
428.5826, 170.2959
429.0648, 183.5026
429.5469, 198.6693
430.0290, 215.3588
430.5111, 235.1655
430.9932, 254.4368
431.4753, 270.1407
431.9575, 282.4994
432.4396, 293.3753
432.9217, 302.5423
433.4038, 311.1003
433.8859, 320.6342
434.3680, 331.0825
434.8502, 343.3630
435.3323, 357.6855
435.8144, 374.6210
436.2965, 394.8682
436.7786, 418.6232
437.2607, 445.4081
437.7429, 474.3929
438.2250, 506.1630
438.7071, 541.2623
439.1892, 579.3041
439.6713, 623.0749
440.1534, 675.1849
440.6356, 734.7216
441.1177, 810.4178
441.5998, 898.4749
442.0819, 1005.855
442.5640, 1130.911
443.0461, 1277.570
443.5282, 1459.363
444.0103, 1683.718
444.4925, 1950.493
444.9746, 2258.969
445.4567, 2638.271
445.9388, 3023.226
446.4209, 3477.196
446.9030, 3895.048
447.3852, 4204.839
447.8673, 4373.613
448.3494, 4365.452
448.8315, 4110.026
449.3136, 3555.363
449.7957, 3014.165
450.2779, 2429.635
450.7600, 1913.016
451.2421, 1506.341
451.7242, 1196.499
452.2063, 957.8146
452.6884, 782.6829
453.1706, 657.6002
453.6527, 557.3000
454.1348, 486.2472
454.6169, 427.2905
455.0990, 381.1512
455.5811, 342.9026
456.0633, 310.5543
456.5454, 283.7500
457.0275, 261.2011
457.5096, 242.7594
457.9917, 227.8717
458.4738, 214.3968
458.9560, 202.3040
459.4381, 191.2936
459.9202, 180.8061
460.4023, 171.3485
460.8844, 164.2368
461.3665, 161.0606
461.8487, 158.3703
462.3308, 153.0049
462.8129, 145.8659
463.2950, 140.2974
463.7771, 137.5891
464.2592, 136.1556
464.7414, 133.6733
465.2235, 129.9237
465.7056, 126.7189
466.1877, 124.7063
466.6698, 122.9421
467.1519, 120.6912
467.6341, 117.9705
468.1162, 115.0973
468.5983, 112.1977
469.0804, 109.4121
469.5625, 107.5061
470.0446, 107.5696
470.5268, 107.1417
471.0089, 105.5806
471.4910, 103.7178
471.9731, 102.4708
472.4552, 101.9350
472.9373, 101.3733
473.4195, 99.87355
473.9016, 97.32136
474.3837, 95.40742
474.8658, 94.12244
475.3479, 93.58370
475.8300, 94.33923
476.3122, 95.69520
476.7943, 96.73502
477.2764, 97.08168
477.7585, 96.94967
478.2406, 96.31072
478.7227, 94.97128
479.2049, 94.92091
479.6870, 96.97871
480.1691, 100.0495
480.6512, 103.4564
481.1333, 107.1354
481.6154, 110.9283
482.0976, 115.0073
482.5797, 119.0474
483.0618, 122.7709
483.5439, 126.1946
484.0260, 128.3884
484.5081, 128.0615
484.9902, 126.8127
485.4724, 128.0743
485.9545, 132.4548
486.4366, 137.2910
486.9187, 141.6613
487.4008, 145.9975
487.8829, 150.5134
488.3651, 155.3422
488.8472, 161.4429
489.3293, 169.7802
489.8114, 180.3812
490.2935, 190.7452
490.7756, 198.6893
491.2578, 208.9261
491.7399, 221.4487
492.2220, 237.4709
492.7041, 258.0765
493.1862, 283.7029
493.6683, 314.9767
494.1505, 352.4682
494.6326, 395.2978
495.1147, 447.3549
495.5968, 510.6441
496.0789, 581.2786
496.5610, 666.7509
497.0432, 757.4258
497.5253, 841.0018
498.0074, 914.9195
498.4895, 965.4472
498.9716, 964.0972
499.4537, 906.6469
499.9359, 821.6805
500.4180, 692.0508
500.9001, 556.8049
501.3822, 444.6564
501.8643, 355.6112
502.3464, 285.2323
502.8286, 234.9973
503.3107, 199.8619
503.7928, 173.4426
504.2749, 155.5486
504.7570, 141.9961
505.2391, 131.4698
505.7213, 123.2813
506.2034, 115.7815
506.6855, 108.9520
507.1676, 102.7186
507.6497, 96.55838
508.1318, 91.24556
508.6140, 88.04283
509.0961, 86.94003
509.5782, 86.53342
510.0603, 85.69424
510.5424, 84.43105
511.0245, 82.85969
511.5067, 80.83223
511.9888, 78.67558
512.4709, 75.94153
512.9530, 73.34764
513.4351, 71.85999
513.9172, 71.63754
514.3994, 71.73824
514.8815, 70.89769
515.3636, 68.99035
515.8457, 67.82310
516.3278, 67.88440
516.8099, 68.05921
517.2921, 68.06508
517.7742, 67.83199
518.2563, 67.15528
518.7384, 65.81515
519.2205, 64.52123
519.7026, 64.07071
520.1848, 64.39213
520.6669, 65.01812
521.1490, 66.03842
521.6311, 66.96202
522.1132, 67.21109
522.5953, 66.89208
523.0775, 66.45837
523.5596, 65.77977
524.0417, 65.19600
524.5238, 64.90620
525.0059, 64.90763
525.4880, 65.25048
525.9702, 65.99024
526.4523, 66.84050
526.9344, 67.30822
527.4165, 67.20953
527.8986, 67.17825
528.3807, 67.39146
528.8629, 67.50362
529.3450, 67.18135
529.8271, 66.60931
530.3092, 66.18089
530.7913, 66.10282
531.2734, 66.38565
531.7556, 67.22739
532.2377, 69.10857
532.7198, 70.17327
533.2019, 68.99418
533.6840, 67.87476
534.1661, 68.24975
534.6483, 69.91436
535.1304, 71.63923
535.6125, 72.79134
536.0946, 73.53562
536.5767, 74.11846
537.0588, 74.53162
537.5410, 74.91890
538.0231, 75.17823
538.5052, 75.60130
538.9873, 76.79227
539.4694, 78.90182
539.9515, 80.56669
540.4337, 80.82629
540.9158, 80.86337
541.3979, 81.97414
541.8800, 84.07272
542.3621, 86.17545
542.8442, 87.62482
543.3264, 88.72878
543.8085, 90.53209
544.2906, 92.87449
544.7726, 96.23189
545.2548, 101.1722
545.7369, 106.6731
546.2190, 111.4191
546.7011, 115.8340
547.1832, 121.7138
547.6653, 130.3804
548.1475, 141.5304
548.6296, 153.7316
549.1117, 166.6093
549.5938, 181.4463
550.0759, 199.9437
550.5580, 219.7447
551.0402, 240.6667
551.5223, 262.2630
552.0044, 280.3069
552.4865, 294.3291
552.9686, 302.5462
553.4507, 301.2312
553.9329, 290.2185
554.4150, 272.8465
554.8971, 249.0613
555.3792, 221.4587
555.8613, 196.5381
556.3434, 173.5455
556.8256, 154.2793
557.3077, 140.0766
557.7898, 128.9271
558.2719, 119.5217
558.7540, 111.5482
559.2361, 105.1219
559.7183, 100.3865
560.2004, 97.03046
560.6825, 93.57803
561.1646, 89.54930
561.6467, 86.33410
562.1288, 84.42716
562.6110, 82.97010
563.0931, 81.47071
563.5752, 79.84276
564.0573, 78.09162
564.5394, 76.06145
565.0215, 73.99681
565.5037, 72.60246
565.9858, 71.96217
566.4679, 71.42243
566.9500, 70.81682
567.4321, 70.13230
567.9142, 69.17903
568.3964, 67.88961
568.8785, 67.25761
569.3606, 68.33395
569.8427, 69.73647
570.3248, 70.08782
570.8069, 69.41592
571.2891, 68.22560
571.7712, 66.70020
572.2533, 65.11807
572.7354, 64.18322
573.2175, 64.06131
573.6996, 64.35984
574.1818, 65.73892
574.6639, 66.92987
575.1460, 66.99886
575.6281, 66.21476
576.1102, 65.44294
576.5923, 65.20991
577.0745, 65.22237
577.5566, 64.68755
578.0387, 63.39118
578.5208, 62.74292
579.0029, 63.39320
579.4850, 64.40074
579.9672, 65.19576
580.4493, 65.75105
580.9314, 65.98256
581.4135, 65.58498
581.8956, 65.07862
582.3777, 64.98841
582.8599, 65.22879
583.3420, 65.54491
583.8241, 65.90236
584.3062, 66.03429
584.7883, 65.45164
585.2704, 63.83826
585.7526, 63.15275
586.2347, 64.20775
586.7168, 65.25359
587.1989, 65.33438
587.6810, 64.96626
588.1631, 65.11514
588.6453, 66.11332
589.1274, 67.32172
589.6095, 67.77581
590.0916, 67.38168
590.5737, 67.10551
591.0558, 66.97091
591.5380, 66.94067
592.0201, 66.76416
592.5022, 66.73935
592.9843, 67.48812
593.4664, 69.40995
593.9485, 71.16000
594.4307, 71.29663
594.9128, 70.54189
595.3949, 70.73048
595.8770, 72.18236
596.3591, 73.68204
596.8412, 74.21489
597.3234, 73.98032
597.8055, 74.43499
598.2876, 76.13625
598.7697, 77.67521
599.2518, 78.73613
599.7339, 79.59612
600.2161, 80.33321
600.6982, 81.08916
601.1803, 82.26528
601.6624, 84.25456
602.1445, 86.87229
602.6266, 89.20943
603.1088, 91.09182
603.5909, 93.12640
604.0730, 95.85838
604.5551, 98.49821
605.0372, 100.2485
605.5193, 101.1964
606.0015, 102.3262
606.4836, 104.5011
606.9657, 106.8664
607.4478, 108.3357
607.9299, 108.9875
608.4120, 109.4579
608.8942, 110.0751
609.3763, 110.3555
609.8584, 109.5295
610.3405, 107.3499
610.8226, 104.8232
611.3047, 101.6424
611.7869, 98.45503
612.2690, 95.50664
612.7511, 92.77219
613.2332, 90.13152
613.7153, 87.54124
614.1974, 85.17678
614.6796, 83.21866
615.1617, 81.65189
615.6438, 80.66031
616.1259, 80.50107
616.6080, 80.47984
617.0901, 80.67602
617.5723, 80.63830
618.0544, 79.47552
618.5365, 76.67818
619.0186, 74.12279
619.5007, 72.79717
619.9828, 72.44314
620.4650, 72.87563
620.9471, 73.99313
621.4292, 75.19595
621.9113, 76.15038
622.3934, 76.79504
622.8755, 76.86948
623.3577, 75.63677
623.8398, 74.88785
624.3219, 74.98357
624.8040, 75.27383
625.2861, 75.33312
625.7682, 75.20377
626.2504, 75.12818
626.7325, 75.22153
627.2145, 75.50982
627.6967, 76.25798
628.1788, 77.51515
628.6609, 77.99798
629.1430, 77.13768
629.6251, 75.94606
630.1072, 75.18735
630.5894, 74.82204
631.0715, 74.80608
631.5536, 75.35943
632.0357, 76.01085
632.5178, 76.55733
632.9999, 77.03589
633.4821, 77.52904
633.9642, 78.04348
634.4463, 78.45506
634.9284, 78.57999
635.4105, 78.47340
635.8926, 78.97590
636.3748, 80.63135
636.8569, 82.03025
637.3390, 82.71754
637.8211, 83.23737
638.3032, 83.87281
638.7853, 84.72472
639.2675, 86.04347
639.7496, 88.53987
640.2317, 91.24668
640.7138, 92.24192
641.1959, 91.68970
641.6780, 91.81688
642.1602, 93.45644
642.6423, 95.90421
643.1244, 98.39075
643.6065, 100.9662
644.0886, 103.0948
644.5707, 103.8408
645.0529, 105.1722
645.5350, 108.4243
646.0171, 112.5579
646.4992, 115.9965
646.9813, 118.3494
647.4634, 120.5946
647.9456, 123.7626
648.4277, 127.8041
648.9098, 132.1565
649.3919, 136.8226
649.8740, 141.7470
650.3561, 146.7754
650.8383, 152.1401
651.3204, 157.9700
651.8025, 164.2538
652.2846, 171.1782
652.7667, 179.0593
653.2488, 187.3994
653.7310, 195.6651
654.2131, 203.9197
654.6952, 212.2852
655.1773, 220.7786
655.6594, 229.9312
656.1415, 240.6204
656.6237, 252.8684
657.1058, 266.4521
657.5879, 281.6949
658.0700, 298.0414
658.5521, 315.5411
659.0342, 334.0316
659.5164, 353.4284
659.9985, 373.7408
660.4806, 394.1921
660.9627, 413.9931
661.4448, 433.4776
661.9269, 454.1703
662.4091, 476.1102
662.8912, 496.9580
663.3733, 516.2524
663.8554, 532.9836
664.3375, 545.0157
664.8196, 551.7243
665.3018, 555.0665
665.7839, 556.1508
666.2660, 552.8336
666.7481, 543.1623
667.2302, 528.5197
667.7123, 510.9231
668.1945, 491.0759
668.6766, 469.6999
669.1587, 447.3248
669.6408, 423.9857
670.1229, 399.7921
670.6050, 374.0676
671.0872, 349.8506
671.5693, 329.1977
672.0514, 310.9840
672.5335, 293.2886
673.0156, 276.0463
673.4977, 259.7628
673.9799, 244.3052
674.4620, 230.2807
674.9441, 218.6498
675.4262, 208.8477
675.9083, 199.2452
676.3904, 189.0743
676.8726, 179.0585
677.3547, 170.2299
677.8368, 162.5579
678.3189, 156.4254
678.8010, 153.1895
679.2831, 149.4790
679.7653, 143.1761
680.2474, 136.0999
680.7295, 130.6391
681.2116, 127.2796
681.6937, 124.0648
682.1758, 119.4085
682.6580, 114.5979
683.1401, 111.2391
683.6222, 109.3138
684.1043, 108.3595
684.5864, 108.2882
685.0685, 108.3052
685.5507, 106.9536
686.0328, 103.7996
686.5149, 101.0341
686.9970, 98.74285
687.4791, 96.77425
687.9612, 95.34891
688.4434, 94.10268
688.9255, 92.40451
689.4076, 90.14046
689.8897, 88.30310
690.3718, 88.07679
690.8539, 88.66167
691.3361, 88.43296
691.8182, 87.37875
692.3003, 86.33906
692.7824, 85.66152
693.2645, 85.19716
693.7466, 84.68642
694.2288, 84.05122
694.7109, 83.71890
695.1930, 84.37132
695.6751, 84.52357
696.1572, 83.33816
696.6393, 81.50566
697.1215, 79.74841
697.6036, 78.30245
698.0857, 77.33222
698.5678, 77.26111
699.0499, 77.73122
699.5320, 77.55387
700.0142, 76.68668
700.4963, 76.18693
700.9784, 76.54470
701.4605, 77.27160
701.9426, 77.92616
702.4247, 78.61417
702.9069, 78.04016
703.3890, 74.24551
703.8711, 71.42115
704.3532, 72.10747
704.8353, 74.19349
705.3174, 75.10040
705.7996, 74.32910
706.2817, 72.93208
706.7638, 71.66283
707.2459, 70.57652
707.7280, 69.85869
708.2101, 69.52737
708.6923, 69.45295
709.1743, 69.73967
709.6564, 70.05880
710.1385, 70.04888
710.6207, 69.73048
711.1028, 69.34728
711.5849, 68.75082
712.0670, 68.28422
712.5491, 68.35814
713.0313, 68.47009
713.5134, 67.90659
713.9955, 66.69082
714.4776, 65.49165
714.9597, 64.75710
715.4418, 64.48148
715.9240, 64.79108
716.4061, 65.78556
716.8882, 66.50230
717.3703, 66.82999
717.8524, 66.71307
718.3345, 65.67373
718.8167, 64.10513
719.2988, 63.44087
719.7809, 64.89272
720.2630, 65.58456
720.7451, 63.42594
721.2272, 60.81269
721.7094, 60.38481
722.1915, 61.94064
722.6736, 63.59332
723.1557, 64.23257
723.6378, 64.25016
724.1199, 64.39783
724.6021, 64.69162
725.0842, 64.86710
725.5663, 64.68352
726.0484, 64.83121
726.5305, 66.41070
727.0126, 68.40340
727.4948, 68.48192
727.9769, 65.62200
728.4590, 63.67694
728.9411, 64.57298
729.4232, 66.17378
729.9053, 66.90279
730.3875, 66.79946
730.8696, 66.29744
731.3517, 65.58920
731.8338, 64.81577
732.3159, 64.07547
732.7980, 63.37145
733.2802, 63.24324
733.7623, 63.96883
734.2444, 64.46275
734.7265, 63.97565
735.2086, 63.22918
735.6907, 63.47807
736.1729, 64.85542
736.6550, 65.33039
737.1371, 63.33525
737.6192, 61.51242
738.1013, 61.86321
738.5834, 63.28983
739.0656, 63.97292
739.5477, 63.48495
740.0298, 62.57159
740.5119, 61.89990
740.9940, 61.41685
741.4761, 60.79654
741.9583, 59.92453
742.4404, 59.62688
742.9225, 60.35233
743.4046, 61.40268
743.8867, 62.42819
744.3688, 63.29844
744.8510, 63.12872
745.3331, 60.79289
745.8152, 58.73292
746.2973, 57.66082
746.7794, 57.30524
747.2615, 57.68257
747.7437, 58.54039
748.2258, 59.16694
748.7079, 59.07908
749.1900, 58.74990
749.6721, 59.22461
750.1542, 60.48089
750.6364, 60.95984
751.1185, 60.21947
751.6006, 59.57670
752.0827, 60.12921
752.5648, 61.25872
753.0469, 61.14870
753.5291, 59.11384
754.0112, 57.77809
754.4933, 57.72470
754.9754, 58.21141
755.4575, 59.28542
755.9396, 60.41424
756.4218, 60.69065
756.9039, 59.84888
757.3860, 58.65583
757.8681, 57.75523
758.3502, 57.16827
758.8323, 57.15453
759.3145, 57.74769
759.7966, 57.97273
760.2787, 57.34300
760.7608, 56.48456
761.2429, 56.21710
761.7250, 56.60799
762.2072, 56.80503
762.6893, 56.68711
763.1714, 56.54712
763.6535, 56.20092
764.1356, 56.04255
764.6177, 56.64704
765.0999, 57.84448
765.5820, 58.78047
766.0641, 58.93566
766.5462, 58.67048
767.0283, 58.35437
767.5104, 58.01057
767.9926, 57.69789
768.4747, 57.42169
768.9568, 57.37986
769.4389, 57.81291
769.9210, 58.45337
770.4031, 58.34095
770.8853, 56.50750
771.3674, 55.82695
771.8495, 57.54631
772.3316, 59.02475
772.8137, 58.99529
773.2958, 58.06676
773.7780, 57.06692
774.2601, 56.15947
774.7422, 55.73980
775.2243, 56.48872
775.7064, 57.58491
776.1885, 57.75957
776.6707, 57.31105
777.1528, 57.60771
777.6349, 59.12590
778.1170, 60.70882
778.5991, 60.86612
779.0812, 59.69824
779.5634, 59.37181
780.0455, 60.48567
780.5276, 61.07956
781.0097, 60.08966
781.4918, 58.97211
781.9739, 58.91050
782.4561, 59.70081
782.9382, 60.43359
783.4203, 60.83236
783.9024, 61.24160
784.3845, 62.02574
784.8666, 62.78510
785.3488, 63.01725
785.8309, 62.75361
786.3130, 62.26551
786.7951, 61.68095
787.2772, 61.20711
787.7593, 61.22654
788.2415, 61.73103
788.7236, 62.48331
789.2057, 63.65883
789.6878, 64.35188
790.1699, 63.92922
790.6520, 62.94181
791.1342, 62.24528
791.6162, 61.80408
792.0983, 61.82169
792.5804, 62.91366
793.0626, 63.76178
793.5447, 64.03917
794.0268, 63.68229
794.5089, 62.32473
794.9910, 60.16040
795.4731, 58.23499
795.9553, 57.16973
796.4374, 56.82174
796.9195, 57.42382
797.4016, 58.64516
797.8837, 58.73187
798.3658, 57.32066
798.8480, 56.20724
799.3301, 56.87157
799.8122, 58.59114
800.2943, 58.85344
800.7764, 56.45040
801.2585, 55.18851
801.7407, 56.49997
802.2228, 57.44717
802.7049, 56.44665
803.1870, 54.62000
803.6691, 53.61907
804.1512, 53.75619
804.6334, 53.97668
805.1155, 53.66911
805.5976, 53.30321
806.0797, 53.42312
806.5618, 53.80630
807.0439, 53.78975
807.5261, 53.27379
808.0082, 53.11909
808.4903, 54.31545
808.9724, 56.30352
809.4545, 56.77118
809.9366, 55.45061
810.4188, 54.41680
810.9009, 54.01537
811.3830, 54.02373
811.8651, 54.43778
812.3472, 55.12459
812.8293, 55.64590
813.3115, 56.25328
813.7936, 56.16852
814.2757, 54.65277
814.7578, 53.03721
815.2399, 51.88448
815.7220, 51.30521
816.2042, 51.49963
816.6863, 52.47695
817.1684, 53.60764
817.6505, 54.67463
818.1326, 55.37265
818.6147, 54.89490
819.0969, 53.44392
819.5790, 52.00647
820.0611, 50.84013
820.5432, 50.22649
821.0253, 50.52326
821.5074, 51.57470
821.9896, 52.36973
822.4717, 52.98039
822.9538, 53.17075
823.4359, 52.48003
823.9180, 51.82907
824.4001, 51.73605
824.8823, 52.02805
825.3644, 52.41534
825.8465, 52.92069
826.3286, 53.24874
826.8107, 53.48093
827.2928, 53.32003
827.7750, 51.82268
828.2571, 49.93976
828.7392, 49.78347
829.2213, 51.78328
829.7034, 53.97744
830.1855, 54.43443
830.6677, 53.73442
831.1498, 53.53463
831.6319, 53.81810
832.1140, 53.93808
832.5961, 53.71944
833.0782, 53.44191
833.5604, 53.32646
834.0425, 53.33897
834.5246, 53.33927
835.0067, 53.48133
835.4888, 53.33901
835.9709, 52.57181
836.4531, 51.91311
836.9352, 51.72009
837.4173, 51.81762
837.8994, 51.96873
838.3815, 52.12982
838.8636, 52.23022
839.3458, 52.19031
839.8279, 52.11470
840.3100, 52.18115
840.7921, 52.25996
841.2742, 51.95777
841.7563, 51.28152
842.2385, 50.84925
842.7206, 51.21685
843.2027, 52.03260
843.6848, 52.41652
844.1669, 52.36123
844.6490, 52.16847
845.1312, 51.82162
845.6133, 51.55454
846.0954, 51.58661
846.5775, 51.71682
847.0596, 51.46570
847.5417, 50.59542
848.0239, 50.09201
848.5060, 50.24405
848.9881, 50.39590
849.4702, 50.22868
849.9523, 50.02493
850.4344, 50.09721
850.9166, 50.45489
851.3987, 50.91578
851.8808, 51.68357
852.3629, 52.12129
852.8450, 51.18286
853.3271, 49.80659
853.8093, 49.68135
854.2914, 50.76148
854.7735, 51.77242
855.2556, 52.00008
855.7377, 51.93261
856.2198, 52.53199
856.7020, 52.57980
857.1841, 52.46161
857.6662, 53.02893
858.1483, 52.32592
858.6304, 52.53222
859.1125, 53.02459
859.5947, 53.06040
860.0768, 52.63609
860.5589, 52.31871
861.0410, 52.16097
861.5231, 52.03127
862.0052, 52.05805
862.4874, 51.97458
862.9695, 51.53975
863.4516, 50.86512
863.9337, 50.13055
864.4158, 49.29760
864.8979, 48.90413
865.3801, 49.80920
865.8622, 50.90608
866.3443, 50.71060
866.8264, 49.75142
867.3085, 49.58989
867.7906, 50.57926
868.2728, 51.51350
868.7549, 51.21468
869.2370, 50.08737
869.7191, 49.15095
870.2012, 48.41040
870.6833, 48.26399
871.1655, 48.89302
871.6476, 49.54286
872.1297, 49.65779
872.6118, 49.49997
873.0939, 49.80456
873.5760, 51.07838
874.0581, 51.31158
874.5402, 49.07718
875.0223, 47.51669
875.5045, 48.08270
875.9866, 49.31904
876.4687, 49.86546
876.9508, 49.63896
877.4329, 49.08877
877.9150, 47.77758
878.3972, 46.93784
878.8793, 47.82782
879.3614, 49.11992
879.8435, 49.29712
880.3256, 48.46780
880.8077, 47.40015
881.2899, 46.42966
881.7720, 45.71087
882.2541, 45.37280
882.7362, 45.43761
883.2183, 46.27013
883.7004, 47.73880
884.1826, 48.44707
884.6647, 47.91904
885.1468, 46.96536
885.6289, 46.31731
886.1110, 45.97435
886.5931, 46.07417
887.0753, 47.08984
887.5574, 47.02382
888.0395, 44.70605
888.5216, 42.75566
889.0037, 42.86991
889.4858, 44.14560
889.9680, 45.17029
890.4501, 45.92912
890.9322, 46.36055
891.4143, 46.21206
891.8964, 46.03111
892.3785, 46.30190
892.8607, 46.47513
893.3428, 45.81085
893.8249, 44.45177
894.3070, 43.11501
894.7891, 41.91854
895.2712, 41.49691
895.7534, 43.30281
896.2355, 45.77355
896.7176, 46.21739
897.1997, 44.92116
897.6818, 43.66922
898.1639, 43.16214
898.6461, 43.06525
899.1282, 43.10077
899.6103, 43.18142
900.0924, 42.76279
900.5745, 41.79811
901.0566, 41.58625
901.5388, 42.63000
902.0209, 43.37505
902.5030, 42.43084
902.9851, 40.62908
903.4672, 40.39468
903.9493, 42.46392
904.4315, 44.03727
904.9136, 45.53780
905.3957, 45.96520
905.8778, 44.16228
906.3599, 41.77980
906.8420, 40.27050
907.3242, 39.70806
907.8063, 39.82061
908.2884, 41.28754
908.7705, 42.41161
909.2526, 42.26719
909.7347, 41.73918
910.2169, 41.46430
910.6990, 41.48293
911.1811, 41.81104
911.6632, 42.43847
912.1453, 42.79972
912.6274, 42.09336
913.1096, 41.05263
913.5917, 41.01146
914.0738, 41.55329
914.5559, 41.14903
915.0380, 39.64581
915.5201, 38.75271
916.0023, 39.77810
916.4844, 41.82878
916.9665, 43.05497
917.4486, 43.46157
917.9307, 43.59042
918.4128, 43.48830
918.8950, 42.92285
919.3771, 41.64873
919.8592, 40.17688
920.3413, 39.01568
920.8234, 38.17377
921.3055, 38.38684
921.7877, 40.94094
922.2698, 42.27195
922.7519, 40.71772
923.2340, 39.17674
923.7161, 39.56323
924.1982, 40.83988
924.6804, 40.99178
925.1625, 39.58938
925.6446, 38.63613
926.1267, 38.81342
926.6088, 39.33332
927.0909, 40.09627
927.5731, 40.79259
928.0552, 41.11635
928.5373, 41.05774
929.0194, 40.68758
929.5015, 39.90523
929.9836, 39.32052
930.4658, 39.76781
930.9479, 40.53239
931.4300, 40.32771
931.9121, 39.52550
932.3942, 39.67605
932.8763, 41.12463
933.3585, 42.23075
933.8406, 41.26932
934.3227, 39.20323
934.8048, 38.47579
935.2869, 38.94017
935.7690, 39.30709
936.2512, 39.40647
936.7333, 39.25095
937.2154, 38.77842
937.6975, 38.31595
938.1796, 38.49607
938.6617, 39.37274
939.1439, 39.57334
939.6260, 38.72053
940.1081, 38.24324
940.5902, 38.65993
941.0723, 39.25192
941.5544, 39.54187
942.0366, 39.55490
942.5187, 39.35584
943.0008, 38.85394
943.4829, 38.36968
943.9650, 37.70325
944.4471, 37.31166
944.9293, 37.57207
945.4114, 38.04944
945.8935, 38.39126
946.3756, 38.52474
946.8577, 38.30953
947.3398, 37.40834
947.8220, 36.68094
948.3041, 36.72221
948.7862, 36.96246
949.2683, 36.85122
949.7504, 36.54802
950.2325, 36.38087
950.7147, 36.46415
951.1968, 36.89087
951.6789, 38.10498
952.1610, 39.28839
952.6431, 39.16063
953.1252, 38.30746
953.6074, 37.97932
954.0895, 38.26924
954.5716, 38.74929
955.0537, 39.21444
955.5358, 39.29458
956.0179, 38.20124
956.5000, 36.29355
956.9821, 35.12808
957.4642, 34.70012
957.9464, 35.17030
958.4285, 36.65529
958.9106, 38.13432
959.3927, 38.87090
959.8748, 38.95461
960.3569, 38.42611
960.8391, 36.99963
961.3212, 36.68095
961.8033, 38.03367
962.2854, 38.81455
962.7675, 37.74414
963.2496, 36.60159
963.7318, 37.60854
964.2139, 40.30151
964.6960, 41.13350
965.1781, 38.07317
965.6602, 36.48492
966.1423, 37.46697
966.6245, 38.67907
967.1066, 39.33670
967.5887, 39.60745
968.0708, 39.79103
968.5529, 39.88380
969.0350, 39.44371
969.5172, 37.42206
969.9993, 36.14528
970.4814, 37.15651
970.9635, 38.45229
971.4456, 38.13838
971.9277, 37.03960
972.4099, 37.04369
972.8920, 38.58849
973.3741, 40.03826
973.8562, 40.57163
974.3383, 40.55700
974.8204, 39.99575
975.3026, 39.23756
975.7847, 38.69557
976.2668, 38.42247
976.7489, 38.30842
977.2310, 38.30286
977.7131, 38.58960
978.1953, 39.92955
978.6774, 41.33845
979.1595, 40.73833
979.6416, 38.78612
980.1237, 37.54521
980.6058, 37.37278
981.0880, 37.41008
981.5701, 37.09826
982.0522, 36.73603
982.5343, 36.91474
983.0164, 36.92215
983.4985, 37.14697
983.9807, 37.69435
984.4628, 38.03926
984.9449, 39.07052
985.4270, 39.99650
985.9091, 40.12893
986.3912, 39.65175
986.8734, 38.97093
987.3555, 37.98055
987.8376, 37.87187
988.3197, 39.02629
988.8018, 39.60842
989.2839, 38.64547
989.7661, 37.48254
990.2482, 37.68181
990.7303, 39.00774
991.2124, 39.72113
991.6945, 39.56400
992.1766, 39.37793
992.6588, 38.97071
993.1409, 38.90993
993.6230, 39.90676
994.1051, 41.04039
994.5872, 40.89217
995.0693, 39.48772
995.5515, 38.76140
996.0336, 39.28236
996.5157, 39.67561
996.9978, 39.40799
997.4799, 39.38319
997.9620, 40.54920
998.4442, 42.03444
998.9263, 42.32762
999.4084, 41.28639
999.8905, 40.81655
1000.373, 41.64277
1000.855, 42.77107
1001.337, 44.54852
1001.819, 45.85283
1002.301, 45.55800
1002.783, 44.18385
1003.265, 42.55654
1003.747, 40.89079
1004.230, 40.03612
1004.712, 41.16075
1005.194, 42.37062
1005.676, 42.32508
1006.158, 41.75771
1006.640, 41.36150
1007.122, 41.26467
1007.604, 41.53802
1008.086, 42.20412
1008.569, 42.89848
1009.051, 43.52630
1009.533, 43.86815
1010.015, 43.53145
1010.497, 42.80673
1010.979, 42.01203
1011.461, 41.33244
1011.943, 41.24936
1012.426, 41.99408
1012.908, 42.67839
1013.390, 42.10141
1013.872, 40.96809
1014.354, 40.57688
1014.836, 40.73933
1015.318, 40.86509
1015.800, 40.88163
1016.282, 41.06472
1016.765, 41.56758
1017.247, 42.36093
1017.729, 43.78649
1018.211, 45.41925
1018.693, 45.33957
1019.175, 43.87429
1019.657, 43.41241
1020.139, 44.41286
1020.622, 45.27205
1021.104, 44.91431
1021.586, 43.95616
1022.068, 43.45647
1022.550, 43.38121
1023.032, 43.32406
1023.514, 43.28295
1023.996, 43.53473
1024.478, 44.20526
1024.961, 44.44874
1025.443, 43.48028
1025.925, 42.20187
1026.407, 42.90062
1026.889, 45.72656
1027.371, 47.21776
1027.853, 47.18479
1028.335, 46.89077
1028.818, 46.58199
1029.300, 46.32094
1029.782, 46.06667
1030.264, 46.02877
1030.746, 46.88086
1031.228, 48.89478
1031.710, 50.06445
1032.192, 49.98417
1032.674, 50.30938
1033.156, 51.72043
1033.639, 53.17122
1034.121, 53.73517
1034.603, 53.76357
1035.085, 54.29445
1035.567, 55.46424
1036.049, 56.60412
1036.531, 57.43534
1037.013, 58.81976
1037.496, 61.51846
1037.978, 64.12180
1038.460, 65.17643
1038.942, 65.32156
1039.424, 66.65214
1039.906, 69.76950
1040.388, 72.20410
1040.870, 72.85860
1041.353, 74.40059
1041.835, 77.61434
1042.317, 81.82555
1042.799, 86.80022
1043.281, 92.32414
1043.763, 97.57634
1044.245, 103.8630
1044.727, 107.8753
1045.209, 116.9008
1045.692, 125.1812
1046.174, 132.0804
1046.656, 137.4625
1047.138, 141.4599
1047.620, 143.7984
1048.102, 143.9094
1048.584, 141.9135
1049.066, 137.0623
1049.548, 127.5044
1050.031, 117.3629
1050.513, 107.2086
1050.995, 97.63323
1051.477, 88.76939
1051.959, 80.82291
1052.441, 74.08017
1052.923, 68.63395
1053.405, 64.27126
1053.888, 61.98822
1054.370, 59.43637
1054.852, 54.76548
1055.334, 50.33133
1055.816, 48.60508
1056.298, 48.58499
1056.780, 47.62329
1057.262, 45.08030
1057.745, 43.02223
1058.227, 42.31077
1058.709, 41.83135
1059.191, 40.91753
1059.673, 40.23716
1060.155, 40.72925
1060.637, 41.80699
1061.119, 42.17413
1061.601, 41.55468
1062.083, 40.61183
1062.566, 39.02378
1063.048, 37.86189
1063.530, 38.05340
1064.012, 38.45464
1064.494, 37.76867
1064.976, 36.62904
1065.458, 36.67704
1065.940, 38.23068
1066.423, 39.07706
1066.905, 37.51371
1067.387, 36.15944
1067.869, 36.34772
1068.351, 37.11931
1068.833, 38.13922
1069.315, 38.92990
1069.797, 38.56038
1070.280, 36.95362
1070.762, 35.76888
1071.244, 35.68197
1071.726, 36.17764
1072.208, 37.77525
1072.690, 39.13501
1073.172, 38.83776
1073.654, 37.68739
1074.136, 37.17868
1074.619, 37.48280
1075.101, 37.54286
1075.583, 36.42905
1076.065, 35.84174
1076.547, 37.23365
1077.029, 38.82932
1077.511, 39.34266
1077.993, 39.09063
1078.475, 38.55567
1078.958, 37.88490
1079.440, 37.25045
1079.922, 36.54143
1080.404, 36.27119
1080.886, 37.01114
1081.368, 37.92824
1081.850, 38.69901
1082.332, 39.10923
1082.814, 38.88146
1083.297, 38.05999
1083.779, 36.84808
1084.261, 34.96479
1084.743, 33.83941
1085.225, 34.96501
1085.707, 36.12680
1086.189, 35.48009
1086.671, 34.37085
1087.154, 34.66834
1087.636, 36.00429
1088.118, 36.50244
1088.600, 35.43604
1089.082, 34.62529
1089.564, 35.06325
1090.046, 35.67077
1090.528, 36.10699
1091.010, 36.20261
1091.493, 35.48368
1091.975, 34.37324
1092.457, 33.82868
1092.939, 34.06411
1093.421, 34.85931
1093.903, 37.32167
1094.385, 38.78748
1094.867, 36.94184
1095.349, 34.60915
1095.832, 34.25880
1096.314, 35.17218
1096.796, 35.73463
1097.278, 35.67553
1097.760, 35.59916
1098.242, 35.50418
1098.724, 35.68346
1099.206, 36.66236
1099.689, 37.50336
1100.171, 37.65712
1100.653, 37.21381
1101.135, 35.99836
1101.617, 34.18866
1102.099, 33.34550
1102.581, 34.63282
1103.063, 35.54232
1103.546, 35.09318
1104.028, 34.58230
1104.510, 34.86704
1104.992, 35.32197
1105.474, 35.12817
1105.956, 34.40366
1106.438, 33.89670
1106.920, 33.60075
1107.402, 33.82095
1107.885, 35.41468
1108.367, 36.48806
1108.849, 35.88260
1109.331, 34.88834
1109.813, 34.63062
1110.295, 34.90038
1110.777, 34.98803
1111.259, 34.76712
1111.741, 34.70744
1112.224, 35.19722
1112.706, 35.35124
1113.188, 34.71789
1113.670, 33.97260
1114.152, 33.54964
1114.634, 33.30151
1115.116, 32.92253
1115.598, 32.38290
1116.081, 32.08216
1116.563, 31.76238
1117.045, 32.16796
1117.527, 34.24781
1118.009, 35.79671
1118.491, 35.55096
1118.973, 34.46737
1119.455, 33.49206
1119.938, 32.70237
1120.420, 32.90746
1120.902, 34.97149
1121.384, 35.83426
1121.866, 34.99372
1122.348, 33.77249
1122.830, 32.14984
1123.312, 31.18228
1123.794, 32.20045
1124.276, 34.36389
1124.759, 34.88149
1125.241, 33.31092
1125.723, 32.75504
1126.205, 33.61612
1126.687, 33.83029
1127.169, 32.66859
1127.651, 31.66822
1128.133, 31.87536
1128.616, 32.83205
1129.098, 33.83389
1129.580, 34.83902
1130.062, 35.06142
1130.544, 34.41531
1131.026, 34.06124
1131.508, 34.20828
1131.990, 34.08954
1132.473, 33.28570
1132.955, 32.51788
1133.437, 32.72702
1133.919, 33.51407
1134.401, 33.22383
1134.883, 32.04344
1135.365, 32.58123
1135.847, 34.85656
1136.329, 35.99492
1136.812, 35.11911
1137.294, 33.71296
1137.776, 32.85662
1138.258, 32.59484
1138.740, 33.47347
1139.222, 32.87534
1139.704, 34.63534
1140.186, 33.10838
1140.668, 32.52719
1141.151, 33.18321
1141.633, 34.10984
1142.115, 34.82311
1142.597, 35.04958
1143.079, 34.05113
1143.561, 34.51483
1144.043, 33.02831
1144.525, 34.06258
1145.008, 34.13162
1145.490, 33.47485
1145.972, 33.47947
1146.454, 34.51287
1146.936, 35.74047
1147.418, 36.81143
1147.900, 37.35461
1148.382, 36.73467
1148.865, 35.63196
1149.347, 34.57014
1149.829, 33.74421
1150.311, 33.61620
1150.793, 33.99183
1151.275, 33.72413
1151.757, 32.06666
1152.239, 31.30764
1152.721, 33.77319
1153.203, 36.34473
1153.686, 36.91636
1154.168, 36.62692
1154.650, 36.58213
1155.132, 36.73723
1155.614, 36.72945
1156.096, 36.49104
1156.578, 36.06565
1157.060, 35.12572
1157.543, 34.49488
1158.025, 34.76676
1158.507, 34.99717
1158.989, 34.33439
1159.471, 33.51881
1159.953, 33.77502
1160.435, 33.29108
1160.917, 32.80653
1161.400, 33.21259
1161.882, 32.27244
1162.364, 32.40625
1162.846, 33.16818
1163.328, 35.14192
1163.810, 36.77085
1164.292, 36.68523
1164.774, 37.41121
1165.256, 35.57362
1165.739, 36.43388
1166.221, 36.16908
1166.703, 34.16653
1167.185, 33.48139
1167.667, 34.87891
1168.149, 36.17858
1168.631, 36.35828
1169.113, 36.10329
1169.595, 36.11180
1170.078, 36.40807
1170.560, 37.27375
1171.042, 38.67113
1171.524, 39.20283
1172.006, 38.83332
1172.488, 38.15477
1172.970, 37.33421
1173.452, 37.01170
1173.934, 37.62477
1174.417, 38.69093
1174.899, 39.59101
1175.381, 40.36913
1175.863, 41.24414
1176.345, 42.08225
1176.827, 42.23263
1177.309, 41.90940
1177.791, 42.32993
1178.274, 43.83706
1178.756, 45.38109
1179.238, 46.07280
1179.720, 46.72167
1180.202, 48.11673
1180.684, 50.04720
1181.166, 52.65017
1181.648, 55.39029
1182.130, 57.16046
1182.613, 58.13657
1183.095, 59.49407
1183.577, 61.63016
1184.059, 64.31648
1184.541, 67.34021
1185.023, 70.99155
1185.505, 75.65756
1185.987, 80.78752
1186.469, 86.12754
1186.952, 91.53479
1187.434, 97.22407
1187.916, 103.0713
1188.398, 107.1877
1188.880, 109.5765
1189.362, 109.7150
1189.844, 106.9331
1190.326, 102.6429
1190.809, 96.34736
1191.291, 89.83989
1191.773, 84.53614
1192.255, 80.15812
1192.737, 76.01991
1193.219, 72.11745
1193.701, 68.74057
1194.183, 65.06398
1194.666, 62.94275
1195.148, 58.57904
1195.630, 54.67644
1196.112, 51.95656
1196.594, 50.12730
1197.076, 49.03965
1197.558, 48.27709
1198.040, 46.32743
1198.522, 43.45060
1199.005, 41.97775
1199.487, 41.83020
1199.969, 41.74636
1200.451, 41.42323
1200.933, 40.80779
1201.415, 39.86287
1201.897, 39.14083
1202.379, 39.74638
1202.861, 40.42783
1203.344, 38.42393
1203.826, 38.84548
1204.308, 35.37355
1204.790, 36.92672
1205.272, 36.61757
1205.754, 34.05513
1206.236, 32.20792
1206.718, 32.68190
1207.201, 33.54007
1207.683, 33.49215
1208.165, 33.54969
1208.647, 34.90654
1209.129, 36.27523
1209.611, 36.26628
1210.093, 35.23983
1210.575, 34.07821
1211.057, 32.89629
1211.540, 31.99126
1212.022, 31.25495
1212.504, 31.02537
1212.986, 31.66720
1213.468, 32.39720
1213.950, 33.04328
1214.432, 33.57203
1214.914, 34.08984
1215.396, 34.35197
1215.879, 33.48108
1216.361, 31.27252
1216.843, 30.75928
1217.325, 32.19761
1217.807, 33.76580
1218.289, 35.28326
1218.771, 35.83081
1219.253, 34.93957
1219.736, 33.45771
1220.218, 32.14488
1220.700, 31.18876
1221.182, 31.14826
1221.664, 31.77067
1222.146, 32.19203
1222.628, 32.51525
1223.110, 33.52697
1223.593, 35.04910
1224.075, 35.47392
1224.557, 34.11551
1225.039, 32.75416
1225.521, 33.15208
1226.003, 33.74982
1226.485, 32.68957
1226.967, 31.54315
1227.449, 32.32679
1227.932, 33.94109
1228.414, 34.61556
1228.896, 34.22788
1229.378, 33.47854
1229.860, 32.34093
1230.342, 31.62980
1230.824, 31.81454
1231.306, 32.05001
1231.788, 31.79037
1232.271, 31.88066
1232.753, 33.29020
1233.235, 34.87740
1233.717, 35.05165
1234.199, 34.03174
1234.681, 33.22028
1235.163, 32.59824
1235.645, 32.30766
1236.128, 32.40761
1236.610, 32.50272
1237.092, 32.50978
1237.574, 32.33077
1238.056, 31.86566
1238.538, 31.57541
1239.020, 32.20459
1239.502, 33.26693
1239.984, 33.49482
1240.467, 33.15179
1240.949, 33.00896
1241.431, 33.01484
1241.913, 32.70713
1242.395, 32.08491
1242.877, 31.70832
1243.359, 31.86859
1243.841, 32.16550
1244.323, 32.45223
1244.806, 32.58536
1245.288, 32.36651
1245.770, 32.03242
1246.252, 31.49204
1246.734, 31.16943
1247.216, 32.02584
1247.698, 33.87694
1248.180, 34.85558
1248.662, 34.35560
1249.145, 33.83677
1249.627, 33.28822
1250.109, 32.88822
1250.591, 32.66685
1251.073, 32.61180
1251.555, 32.72493
1252.037, 32.99940
1252.519, 33.48240
1253.002, 34.07192
1253.484, 34.30939
1253.966, 34.19633
1254.448, 33.68951
1254.930, 32.83037
1255.412, 32.16482
1255.894, 31.82400
1256.376, 31.79637
1256.859, 32.07840
1257.341, 32.34513
1257.823, 32.15631
1258.305, 31.91817
1258.787, 32.18986
1259.269, 32.72677
1259.751, 33.50459
1260.233, 34.13706
1260.715, 33.77530
1261.198, 32.64056
1261.680, 31.91240
1262.162, 31.90935
1262.644, 32.43991
1263.126, 34.34113
1263.608, 35.46691
1264.090, 34.31453
1264.572, 33.27584
1265.054, 34.14836
1265.537, 35.22157
1266.019, 34.47624
1266.501, 32.59068
1266.983, 31.91641
1267.465, 32.59273
1267.947, 32.99131
1268.429, 33.09789
1268.911, 32.98645
1269.394, 32.66137
1269.876, 32.86129
1270.358, 33.89458
1270.840, 34.90417
1271.322, 35.12815
1271.804, 34.90027
1272.286, 34.45789
1272.768, 34.10677
1273.250, 34.68304
1273.733, 34.27550
1274.215, 35.39204
1274.697, 34.51405
1275.179, 34.33106
1275.661, 35.12502
1276.143, 35.75372
1276.625, 35.80352
1277.107, 35.55713
1277.589, 34.48576
1278.072, 33.94288
1278.554, 35.34471
1279.036, 36.65834
1279.518, 35.94574
1280.000, 36.50151
1280.482, 34.26843
1280.964, 35.30795
1281.446, 35.10017
1281.929, 33.32455
1282.411, 33.05756
1282.893, 34.52562
1283.375, 35.98344
1283.857, 36.99065
1284.339, 37.32392
1284.821, 36.83059
1285.303, 36.44680
1285.786, 37.06632
1286.268, 38.68943
##END=



