##NAMES=Dickite
##RRUFFID=R060298
##IDEAL CHEMISTRY=Al_2_Si_2_O_5_(OH)_4_
##LOCALITY=Piast mine, Nowa Ruda, Sudety Mountains, Poland
##OWNER=RRUFF
##SOURCE=Herb Obodda
##DESCRIPTION=Greenish-blue massive
##STATUS=The identification of this mineral has been confirmed by X-ray diffraction and chemical analysis
##URL=rruff.info/R060298
##MEASURED CHEMISTRY=Al_2.00_Si_2.00_O_5_(OH)_4_ ; OH estimated by difference and charge balance
90.49219, 64.90977
90.97430, 64.36857
91.45642, 64.17829
91.93854, 64.45055
92.42065, 65.04375
92.90277, 65.89650
93.38489, 67.10898
93.86700, 68.14326
94.34912, 68.31612
94.83124, 67.70264
95.31335, 66.71400
95.79547, 65.21056
96.27759, 63.43517
96.75970, 62.39789
97.24182, 62.40461
97.72394, 63.02216
98.20605, 63.40490
98.68817, 63.55271
99.17029, 63.46498
99.65240, 62.93112
100.1345, 61.88696
100.6166, 61.35457
101.0988, 61.59354
101.5809, 62.53809
102.0630, 63.77857
102.5451, 65.62076
103.0272, 67.23581
103.5093, 67.37389
103.9915, 65.06100
104.4736, 63.84975
104.9557, 65.28709
105.4378, 70.28426
105.9199, 72.65378
106.4020, 71.00782
106.8842, 67.42876
107.3663, 65.59618
107.8484, 67.28346
108.3305, 68.68025
108.8126, 68.35743
109.2947, 64.42166
109.7769, 61.91451
110.2590, 61.41798
110.7411, 62.45095
111.2232, 63.53028
111.7053, 64.78265
112.1874, 65.97171
112.6696, 66.98081
113.1517, 67.04903
113.6338, 67.74432
114.1159, 70.12823
114.5980, 73.79507
115.0801, 75.90089
115.5623, 73.75671
116.0444, 70.74920
116.5265, 69.50093
117.0086, 73.47275
117.4907, 76.87188
117.9728, 77.12281
118.4550, 74.06921
118.9371, 70.78320
119.4192, 67.63933
119.9013, 65.25893
120.3834, 64.49004
120.8655, 67.40516
121.3477, 70.96310
121.8298, 72.90181
122.3119, 72.86108
122.7940, 72.27178
123.2761, 72.01600
123.7582, 71.96012
124.2404, 71.80663
124.7225, 71.31070
125.2046, 70.65651
125.6867, 69.79984
126.1688, 68.29619
126.6509, 67.64810
127.1331, 70.23625
127.6152, 75.50610
128.0973, 80.70110
128.5794, 83.40295
129.0615, 84.61343
129.5436, 86.78808
130.0258, 90.77216
130.5079, 95.62106
130.9900, 99.36958
131.4721, 101.9870
131.9542, 105.2985
132.4363, 110.9870
132.9185, 118.8536
133.4006, 127.5168
133.8827, 136.6168
134.3648, 146.1709
134.8469, 156.7626
135.3290, 168.3307
135.8112, 181.2657
136.2933, 195.5749
136.7754, 211.2551
137.2575, 229.2207
137.7396, 250.2503
138.2217, 273.9308
138.7039, 299.0589
139.1860, 326.4687
139.6681, 354.0726
140.1502, 378.7796
140.6323, 399.3484
141.1144, 420.3607
141.5966, 444.3058
142.0787, 472.4134
142.5608, 497.3098
143.0429, 518.4257
143.5250, 536.6216
144.0071, 553.2197
144.4893, 566.4695
144.9714, 580.7363
145.4535, 597.7764
145.9356, 618.4794
146.4177, 640.5051
146.8998, 663.4777
147.3820, 687.7344
147.8641, 715.9801
148.3462, 751.1016
148.8283, 787.1364
149.3104, 821.2164
149.7925, 849.5490
150.2747, 880.6571
150.7568, 915.9291
151.2389, 954.9188
151.7210, 992.2523
152.2031, 1028.043
152.6852, 1061.753
153.1674, 1093.435
153.6495, 1121.999
154.1316, 1149.356
154.6137, 1174.762
155.0958, 1198.164
155.5779, 1223.646
156.0601, 1256.826
156.5422, 1290.055
157.0243, 1316.387
157.5064, 1326.968
157.9885, 1337.638
158.4706, 1354.366
158.9528, 1378.557
159.4349, 1398.720
159.9170, 1406.755
160.3991, 1410.726
160.8812, 1419.957
161.3633, 1440.869
161.8455, 1464.611
162.3276, 1487.124
162.8097, 1507.046
163.2918, 1529.137
163.7739, 1556.149
164.2560, 1584.541
164.7382, 1601.472
165.2203, 1614.986
165.7024, 1627.795
166.1845, 1639.099
166.6666, 1648.350
167.1487, 1657.866
167.6309, 1669.843
168.1130, 1683.168
168.5951, 1695.264
169.0772, 1706.112
169.5593, 1714.785
170.0414, 1719.974
170.5236, 1720.241
171.0057, 1719.973
171.4878, 1722.487
171.9699, 1727.109
172.4520, 1731.773
172.9341, 1736.037
173.4163, 1739.470
173.8984, 1741.287
174.3805, 1740.400
174.8626, 1739.353
175.3447, 1741.504
175.8268, 1746.051
176.3090, 1749.312
176.7911, 1747.128
177.2732, 1742.283
177.7553, 1739.345
178.2374, 1739.968
178.7195, 1742.358
179.2017, 1744.535
179.6838, 1746.516
180.1659, 1748.333
180.6480, 1749.713
181.1301, 1750.945
181.6122, 1752.785
182.0944, 1755.701
182.5765, 1759.141
183.0586, 1762.441
183.5407, 1765.547
184.0228, 1768.225
184.5049, 1770.096
184.9871, 1771.305
185.4692, 1772.336
185.9513, 1773.720
186.4334, 1774.901
186.9155, 1773.548
187.3976, 1769.349
187.8798, 1766.323
188.3619, 1770.541
188.8440, 1780.709
189.3261, 1788.092
189.8082, 1788.232
190.2903, 1783.403
190.7725, 1782.401
191.2546, 1785.838
191.7367, 1789.805
192.2188, 1788.812
192.7009, 1783.177
193.1830, 1779.182
193.6652, 1779.246
194.1473, 1782.957
194.6294, 1788.476
195.1115, 1796.342
195.5936, 1804.222
196.0757, 1808.623
196.5579, 1809.436
197.0400, 1810.134
197.5221, 1812.399
198.0042, 1816.058
198.4863, 1818.607
198.9684, 1820.125
199.4506, 1820.355
199.9327, 1818.730
200.4148, 1815.148
200.8969, 1810.706
201.3790, 1805.606
201.8611, 1799.836
202.3433, 1793.831
202.8254, 1787.174
203.3075, 1780.856
203.7896, 1776.872
204.2717, 1775.505
204.7538, 1774.704
205.2360, 1773.661
205.7181, 1772.333
206.2002, 1770.979
206.6823, 1769.512
207.1644, 1768.107
207.6465, 1767.259
208.1287, 1767.244
208.6108, 1766.902
209.0929, 1765.294
209.5750, 1761.845
210.0571, 1760.661
210.5392, 1762.677
211.0214, 1766.184
211.5035, 1767.496
211.9856, 1766.044
212.4677, 1764.076
212.9498, 1762.269
213.4319, 1760.284
213.9140, 1760.159
214.3962, 1762.586
214.8783, 1766.434
215.3604, 1769.128
215.8425, 1770.562
216.3246, 1771.071
216.8067, 1770.506
217.2889, 1768.237
217.7710, 1766.891
218.2531, 1766.350
218.7352, 1766.773
219.2173, 1768.952
219.6994, 1774.162
220.1816, 1778.652
220.6637, 1780.331
221.1458, 1777.433
221.6279, 1776.915
222.1100, 1779.507
222.5921, 1784.304
223.0743, 1789.204
223.5564, 1794.555
224.0385, 1799.440
224.5206, 1803.194
225.0027, 1805.241
225.4848, 1808.041
225.9670, 1812.107
226.4491, 1816.797
226.9312, 1820.132
227.4133, 1820.387
227.8954, 1822.047
228.3775, 1827.712
228.8597, 1840.436
229.3418, 1849.611
229.8239, 1853.741
230.3060, 1854.565
230.7881, 1856.577
231.2702, 1859.159
231.7524, 1863.802
232.2345, 1871.345
232.7166, 1883.305
233.1987, 1895.025
233.6808, 1907.606
234.1629, 1919.604
234.6451, 1926.825
235.1272, 1926.066
235.6093, 1925.304
236.0914, 1928.340
236.5735, 1937.629
237.0556, 1945.289
237.5378, 1951.170
238.0199, 1955.558
238.5020, 1959.044
238.9841, 1961.445
239.4662, 1963.352
239.9483, 1964.910
240.4305, 1965.648
240.9126, 1967.193
241.3947, 1970.287
241.8768, 1973.918
242.3589, 1975.688
242.8410, 1975.559
243.3232, 1973.552
243.8053, 1969.215
244.2874, 1960.596
244.7695, 1954.451
245.2516, 1952.118
245.7337, 1951.684
246.2159, 1948.782
246.6980, 1942.175
247.1801, 1935.051
247.6622, 1928.248
248.1443, 1920.919
248.6264, 1916.386
249.1086, 1915.125
249.5907, 1916.403
250.0728, 1919.000
250.5549, 1924.035
251.0370, 1928.486
251.5191, 1930.899
252.0013, 1930.166
252.4834, 1930.956
252.9655, 1933.575
253.4476, 1937.468
253.9297, 1941.629
254.4118, 1945.799
254.8940, 1950.591
255.3761, 1956.629
255.8582, 1964.799
256.3403, 1970.544
256.8224, 1972.840
257.3046, 1973.529
257.7867, 1975.769
258.2688, 1980.567
258.7509, 1984.895
259.2330, 1987.479
259.7151, 1987.885
260.1973, 1989.261
260.6794, 1991.121
261.1615, 1994.443
261.6436, 2000.452
262.1257, 2009.044
262.6078, 2020.737
263.0900, 2036.213
263.5721, 2056.065
264.0542, 2075.415
264.5363, 2095.444
265.0184, 2113.719
265.5005, 2127.800
265.9827, 2137.297
266.4648, 2143.328
266.9469, 2146.339
267.4290, 2146.369
267.9111, 2141.262
268.3932, 2129.830
268.8754, 2115.105
269.3575, 2100.836
269.8396, 2087.722
270.3217, 2071.889
270.8038, 2051.690
271.2859, 2027.258
271.7681, 2004.193
272.2502, 1982.352
272.7323, 1962.204
273.2144, 1944.581
273.6965, 1929.298
274.1786, 1917.120
274.6608, 1908.644
275.1429, 1903.485
275.6250, 1898.767
276.1071, 1894.705
276.5892, 1890.506
277.0714, 1884.835
277.5535, 1877.229
278.0356, 1872.424
278.5177, 1872.211
278.9998, 1875.253
279.4819, 1876.060
279.9641, 1874.433
280.4462, 1871.517
280.9283, 1867.568
281.4104, 1862.552
281.8925, 1859.137
282.3746, 1858.346
282.8568, 1858.953
283.3389, 1856.990
283.8210, 1852.082
284.3031, 1847.409
284.7852, 1845.587
285.2673, 1846.428
285.7495, 1846.386
286.2316, 1844.485
286.7137, 1842.198
287.1958, 1843.312
287.6779, 1847.927
288.1600, 1852.121
288.6422, 1852.968
289.1243, 1850.943
289.6064, 1849.551
290.0885, 1849.143
290.5706, 1849.258
291.0527, 1849.005
291.5349, 1848.459
292.0170, 1848.518
292.4991, 1850.464
292.9812, 1853.575
293.4633, 1854.781
293.9454, 1853.619
294.4276, 1851.980
294.9097, 1852.501
295.3918, 1854.851
295.8739, 1857.274
296.3560, 1859.487
296.8381, 1861.090
297.3203, 1860.651
297.8024, 1857.950
298.2845, 1854.902
298.7666, 1853.090
299.2487, 1852.503
299.7308, 1853.084
300.2130, 1855.589
300.6951, 1858.967
301.1772, 1861.714
301.6593, 1863.834
302.1414, 1865.289
302.6235, 1865.871
303.1057, 1865.779
303.5878, 1865.359
304.0699, 1864.512
304.5520, 1863.601
305.0341, 1862.383
305.5162, 1861.069
305.9984, 1861.437
306.4805, 1866.160
306.9626, 1872.998
307.4447, 1878.858
307.9268, 1883.357
308.4089, 1886.057
308.8911, 1885.066
309.3732, 1881.381
309.8553, 1879.172
310.3374, 1882.062
310.8195, 1887.079
311.3016, 1891.103
311.7838, 1892.806
312.2659, 1894.873
312.7480, 1899.502
313.2301, 1905.873
313.7122, 1912.008
314.1943, 1918.514
314.6765, 1923.573
315.1586, 1924.810
315.6407, 1920.099
316.1228, 1917.992
316.6049, 1924.579
317.0870, 1936.228
317.5692, 1946.832
318.0513, 1953.096
318.5334, 1958.761
319.0155, 1966.016
319.4976, 1975.480
319.9797, 1983.506
320.4619, 1986.498
320.9440, 1988.227
321.4261, 1992.872
321.9082, 2004.889
322.3903, 2016.622
322.8724, 2025.620
323.3546, 2031.756
323.8367, 2037.521
324.3188, 2042.463
324.8009, 2047.782
325.2830, 2054.336
325.7651, 2062.620
326.2473, 2071.853
326.7294, 2081.058
327.2115, 2090.669
327.6936, 2103.955
328.1757, 2124.772
328.6578, 2146.534
329.1400, 2166.034
329.6221, 2180.408
330.1042, 2196.079
330.5863, 2213.762
331.0684, 2232.834
331.5505, 2251.149
332.0327, 2268.770
332.5148, 2285.683
332.9969, 2302.622
333.4790, 2321.495
333.9611, 2334.088
334.4432, 2339.270
334.9254, 2338.784
335.4075, 2335.695
335.8896, 2330.724
336.3717, 2321.622
336.8538, 2307.273
337.3359, 2287.159
337.8180, 2265.769
338.3001, 2242.359
338.7823, 2218.908
339.2644, 2198.582
339.7465, 2182.253
340.2286, 2164.467
340.7107, 2142.858
341.1928, 2118.347
341.6750, 2100.376
342.1571, 2089.975
342.6392, 2081.229
343.1213, 2067.976
343.6034, 2050.192
344.0855, 2036.313
344.5677, 2028.772
345.0498, 2024.959
345.5319, 2018.541
346.0140, 2009.420
346.4961, 2000.593
346.9782, 1994.198
347.4604, 1989.812
347.9425, 1984.884
348.4246, 1978.275
348.9067, 1973.749
349.3888, 1980.280
349.8709, 1995.500
350.3531, 2006.141
350.8352, 2002.220
351.3173, 1989.959
351.7994, 1980.979
352.2815, 1975.836
352.7636, 1972.440
353.2458, 1968.227
353.7279, 1964.249
354.2100, 1962.836
354.6921, 1966.876
355.1742, 1972.496
355.6563, 1975.666
356.1385, 1976.517
356.6206, 1976.769
357.1027, 1977.119
357.5848, 1977.686
358.0669, 1978.755
358.5490, 1981.194
359.0312, 1982.926
359.5133, 1981.836
359.9954, 1978.791
360.4775, 1976.497
360.9596, 1975.891
361.4417, 1976.702
361.9239, 1979.071
362.4060, 1983.717
362.8881, 1987.834
363.3702, 1989.881
363.8523, 1990.829
364.3344, 1992.165
364.8166, 1996.709
365.2987, 1999.596
365.7808, 1997.932
366.2629, 1990.889
366.7450, 1985.702
367.2271, 1985.799
367.7093, 1987.152
368.1914, 1986.223
368.6735, 1979.212
369.1556, 1973.795
369.6377, 1971.180
370.1198, 1971.161
370.6020, 1972.434
371.0841, 1976.344
371.5662, 1980.311
372.0483, 1982.960
372.5304, 1984.096
373.0125, 1984.231
373.4947, 1982.814
373.9768, 1980.593
374.4589, 1979.310
374.9410, 1979.147
375.4231, 1979.568
375.9052, 1980.840
376.3874, 1983.359
376.8695, 1983.103
377.3516, 1978.735
377.8337, 1973.856
378.3158, 1973.426
378.7979, 1978.101
379.2801, 1982.350
379.7622, 1984.512
380.2443, 1985.093
380.7264, 1986.940
381.2085, 1990.341
381.6906, 1992.801
382.1728, 1991.064
382.6549, 1985.948
383.1370, 1983.049
383.6191, 1983.829
384.1012, 1986.240
384.5833, 1986.595
385.0655, 1985.215
385.5476, 1984.518
386.0297, 1986.829
386.5118, 1990.551
386.9939, 1992.529
387.4760, 1992.278
387.9582, 1991.881
388.4403, 1993.712
388.9224, 1996.852
389.4045, 1999.376
389.8866, 1999.843
390.3687, 1999.826
390.8509, 2000.599
391.3330, 2002.120
391.8151, 2003.893
392.2972, 2006.362
392.7793, 2008.574
393.2614, 2009.578
393.7436, 2008.627
394.2257, 2007.129
394.7078, 2005.323
395.1899, 2003.394
395.6720, 2001.823
396.1541, 1998.582
396.6363, 1997.496
397.1184, 2001.457
397.6005, 2013.433
398.0826, 2022.031
398.5647, 2023.417
399.0468, 2021.264
399.5290, 2020.024
400.0111, 2019.550
400.4932, 2020.519
400.9753, 2023.090
401.4574, 2027.279
401.9395, 2032.878
402.4217, 2041.705
402.9038, 2050.045
403.3859, 2055.125
403.8680, 2055.071
404.3501, 2056.249
404.8322, 2059.560
405.3144, 2064.114
405.7965, 2067.364
406.2786, 2068.945
406.7607, 2070.467
407.2428, 2072.312
407.7249, 2074.452
408.2071, 2078.679
408.6892, 2085.585
409.1713, 2092.875
409.6534, 2097.281
410.1355, 2098.946
410.6176, 2101.195
411.0998, 2105.401
411.5819, 2110.595
412.0640, 2114.401
412.5461, 2116.828
413.0282, 2118.898
413.5103, 2121.308
413.9925, 2123.897
414.4746, 2126.225
414.9567, 2128.011
415.4388, 2130.163
415.9209, 2134.704
416.4030, 2140.446
416.8852, 2144.556
417.3673, 2143.430
417.8494, 2141.452
418.3315, 2142.896
418.8136, 2148.033
419.2957, 2152.514
419.7779, 2152.166
420.2600, 2150.658
420.7421, 2151.672
421.2242, 2159.496
421.7063, 2166.657
422.1884, 2170.269
422.6706, 2171.190
423.1527, 2172.785
423.6348, 2176.173
424.1169, 2180.130
424.5990, 2184.046
425.0811, 2187.303
425.5633, 2191.860
426.0454, 2198.366
426.5275, 2205.935
427.0096, 2213.666
427.4917, 2222.430
427.9738, 2229.837
428.4560, 2234.274
428.9381, 2236.070
429.4202, 2242.469
429.9023, 2255.387
430.3844, 2269.167
430.8665, 2279.840
431.3487, 2287.239
431.8308, 2291.999
432.3129, 2293.156
432.7950, 2292.974
433.2771, 2297.335
433.7592, 2306.461
434.2414, 2313.067
434.7235, 2312.797
435.2056, 2307.100
435.6877, 2301.746
436.1698, 2296.797
436.6519, 2291.532
437.1341, 2285.365
437.6162, 2278.403
438.0983, 2270.601
438.5804, 2261.284
439.0625, 2252.122
439.5446, 2245.792
440.0268, 2241.510
440.5089, 2236.372
440.9910, 2226.188
441.4731, 2215.914
441.9552, 2210.550
442.4373, 2211.603
442.9195, 2212.683
443.4016, 2209.447
443.8837, 2204.784
444.3658, 2202.204
444.8479, 2203.660
445.3300, 2206.444
445.8122, 2209.680
446.2943, 2213.413
446.7764, 2218.451
447.2585, 2225.473
447.7406, 2233.378
448.2227, 2241.927
448.7049, 2252.866
449.1870, 2260.765
449.6691, 2263.429
450.1512, 2264.108
450.6333, 2267.857
451.1154, 2275.548
451.5976, 2284.523
452.0797, 2294.247
452.5618, 2304.703
453.0439, 2315.193
453.5260, 2325.463
454.0081, 2335.924
454.4903, 2346.719
454.9724, 2357.765
455.4545, 2370.190
455.9366, 2384.716
456.4187, 2399.222
456.9008, 2408.272
457.3830, 2412.859
457.8651, 2419.620
458.3472, 2434.942
458.8293, 2453.633
459.3114, 2466.386
459.7935, 2473.053
460.2757, 2477.463
460.7578, 2482.154
461.2399, 2486.552
461.7220, 2489.996
462.2041, 2492.974
462.6862, 2493.863
463.1684, 2490.623
463.6505, 2484.444
464.1326, 2478.160
464.6147, 2475.348
465.0968, 2470.642
465.5789, 2459.913
466.0611, 2441.733
466.5432, 2426.700
467.0253, 2420.534
467.5074, 2416.530
467.9895, 2409.119
468.4716, 2395.309
468.9538, 2381.252
469.4359, 2367.051
469.9180, 2353.004
470.4001, 2339.647
470.8822, 2325.744
471.3643, 2315.078
471.8465, 2310.777
472.3286, 2314.026
472.8107, 2310.697
473.2928, 2299.260
473.7749, 2285.276
474.2570, 2274.894
474.7392, 2268.105
475.2213, 2262.050
475.7034, 2256.004
476.1855, 2250.466
476.6676, 2246.328
477.1497, 2243.571
477.6319, 2242.211
478.1140, 2243.155
478.5961, 2245.154
479.0782, 2246.346
479.5603, 2246.608
480.0424, 2245.736
480.5246, 2243.280
481.0067, 2239.632
481.4888, 2235.295
481.9709, 2229.189
482.4530, 2223.807
482.9352, 2220.732
483.4173, 2219.468
483.8994, 2218.460
484.3815, 2217.708
484.8636, 2216.654
485.3457, 2215.201
485.8279, 2213.583
486.3100, 2210.617
486.7921, 2204.113
487.2742, 2197.380
487.7563, 2193.439
488.2384, 2194.692
488.7206, 2194.608
489.2027, 2192.234
489.6848, 2188.063
490.1669, 2183.634
490.6490, 2178.780
491.1311, 2174.350
491.6133, 2170.976
492.0954, 2168.635
492.5775, 2165.867
493.0596, 2162.498
493.5417, 2159.557
494.0238, 2158.923
494.5060, 2159.947
494.9881, 2159.389
495.4702, 2155.756
495.9523, 2151.273
496.4344, 2149.233
496.9165, 2149.160
497.3987, 2149.281
497.8808, 2148.491
498.3629, 2147.474
498.8450, 2146.799
499.3271, 2146.486
499.8092, 2146.575
500.2914, 2147.155
500.7735, 2148.077
501.2556, 2149.218
501.7377, 2150.819
502.2198, 2152.254
502.7019, 2153.261
503.1841, 2153.988
503.6662, 2154.874
504.1483, 2156.871
504.6304, 2158.060
505.1125, 2157.508
505.5946, 2154.991
506.0768, 2154.034
506.5589, 2155.642
507.0410, 2157.388
507.5231, 2157.303
508.0052, 2155.236
508.4873, 2152.394
508.9695, 2148.703
509.4516, 2144.721
509.9337, 2141.141
510.4158, 2138.005
510.8979, 2136.273
511.3800, 2137.488
511.8622, 2140.003
512.3443, 2139.642
512.8264, 2136.544
513.3085, 2133.539
513.7906, 2133.292
514.2728, 2134.218
514.7549, 2134.124
515.2370, 2132.234
515.7191, 2130.400
516.2012, 2129.406
516.6833, 2129.316
517.1655, 2130.200
517.6476, 2134.674
518.1297, 2137.582
518.6118, 2136.246
519.0939, 2131.075
519.5760, 2126.931
520.0582, 2123.991
520.5403, 2122.611
521.0224, 2123.380
521.5045, 2127.755
521.9866, 2129.717
522.4688, 2127.655
522.9509, 2124.919
523.4330, 2126.210
523.9151, 2132.506
524.3972, 2137.289
524.8793, 2138.786
525.3615, 2138.164
525.8436, 2138.594
526.3257, 2140.052
526.8078, 2141.075
527.2899, 2139.922
527.7720, 2137.883
528.2542, 2138.568
528.7363, 2142.240
529.2184, 2145.406
529.7005, 2144.384
530.1826, 2141.273
530.6647, 2138.930
531.1469, 2138.590
531.6290, 2138.479
532.1111, 2136.312
532.5932, 2133.749
533.0753, 2134.183
533.5574, 2143.094
534.0396, 2150.804
534.5217, 2153.103
535.0038, 2149.433
535.4859, 2147.657
535.9680, 2149.639
536.4501, 2151.877
536.9323, 2152.397
537.4144, 2150.817
537.8965, 2148.221
538.3786, 2143.654
538.8607, 2139.405
539.3428, 2139.797
539.8250, 2145.264
540.3071, 2149.775
540.7892, 2151.739
541.2713, 2151.564
541.7534, 2149.219
542.2355, 2144.968
542.7177, 2141.499
543.1998, 2141.243
543.6819, 2142.570
544.1640, 2142.968
544.6461, 2142.218
545.1282, 2141.215
545.6104, 2140.491
546.0925, 2139.885
546.5746, 2139.195
547.0567, 2138.026
547.5388, 2137.209
548.0209, 2137.134
548.5031, 2137.598
548.9852, 2138.155
549.4673, 2138.506
549.9494, 2139.197
550.4315, 2140.491
550.9136, 2142.388
551.3958, 2143.926
551.8779, 2144.704
552.3600, 2145.813
552.8421, 2148.399
553.3242, 2152.799
553.8063, 2155.469
554.2885, 2156.184
554.7706, 2155.377
555.2527, 2152.994
555.7348, 2149.327
556.2169, 2146.079
556.6990, 2143.371
557.1812, 2141.884
557.6633, 2143.771
558.1454, 2148.081
558.6275, 2151.249
559.1096, 2150.685
559.5917, 2148.505
560.0739, 2145.810
560.5560, 2142.656
561.0381, 2140.865
561.5202, 2142.145
562.0023, 2144.510
562.4844, 2146.489
562.9666, 2147.334
563.4487, 2148.600
563.9308, 2150.629
564.4129, 2152.983
564.8950, 2155.307
565.3771, 2158.745
565.8593, 2159.145
566.3414, 2153.797
566.8235, 2144.896
567.3056, 2143.287
567.7877, 2149.922
568.2698, 2156.893
568.7520, 2159.248
569.2341, 2158.044
569.7162, 2157.388
570.1983, 2157.451
570.6804, 2157.474
571.1625, 2156.568
571.6447, 2155.218
572.1268, 2154.157
572.6089, 2153.474
573.0910, 2153.333
573.5731, 2155.064
574.0552, 2157.237
574.5374, 2157.374
575.0195, 2151.674
575.5016, 2146.877
575.9837, 2146.103
576.4658, 2148.979
576.9479, 2149.961
577.4301, 2147.611
577.9122, 2144.911
578.3943, 2142.529
578.8764, 2139.846
579.3585, 2142.059
579.8406, 2151.234
580.3228, 2160.690
580.8049, 2162.338
581.2870, 2156.674
581.7691, 2152.955
582.2512, 2153.072
582.7333, 2154.944
583.2155, 2155.352
583.6975, 2154.852
584.1796, 2155.286
584.6617, 2157.845
585.1439, 2161.416
585.6260, 2165.694
586.1081, 2170.345
586.5902, 2173.762
587.0723, 2175.131
587.5544, 2175.091
588.0366, 2173.803
588.5187, 2171.001
589.0008, 2168.262
589.4829, 2164.392
589.9650, 2161.639
590.4471, 2162.001
590.9293, 2167.488
591.4114, 2171.612
591.8935, 2174.136
592.3756, 2175.029
592.8577, 2173.276
593.3398, 2168.634
593.8220, 2166.067
594.3041, 2168.292
594.7862, 2172.777
595.2683, 2173.098
595.7504, 2169.794
596.2325, 2166.823
596.7147, 2167.298
597.1968, 2169.133
597.6789, 2169.729
598.1610, 2168.883
598.6431, 2168.575
599.1252, 2171.331
599.6074, 2174.291
600.0895, 2174.964
600.5716, 2171.085
601.0537, 2168.120
601.5358, 2167.186
602.0179, 2167.503
602.5001, 2168.109
602.9822, 2168.846
603.4643, 2170.270
603.9464, 2173.026
604.4285, 2176.280
604.9106, 2176.772
605.3928, 2174.069
605.8749, 2172.250
606.3570, 2174.044
606.8391, 2178.201
607.3212, 2180.585
607.8033, 2181.237
608.2855, 2181.599
608.7676, 2182.941
609.2497, 2184.567
609.7318, 2185.710
610.2139, 2186.369
610.6960, 2186.025
611.1782, 2182.757
611.6603, 2179.073
612.1424, 2177.612
612.6245, 2181.488
613.1066, 2184.622
613.5887, 2186.574
614.0709, 2187.241
614.5530, 2186.087
615.0351, 2181.941
615.5172, 2178.555
615.9993, 2176.983
616.4814, 2176.996
616.9636, 2177.501
617.4457, 2178.571
617.9278, 2179.466
618.4099, 2180.002
618.8920, 2179.993
619.3741, 2178.250
619.8563, 2174.681
620.3384, 2172.103
620.8205, 2173.481
621.3026, 2176.867
621.7847, 2180.069
622.2668, 2182.907
622.7490, 2184.813
623.2311, 2185.191
623.7132, 2184.637
624.1953, 2183.917
624.6774, 2182.300
625.1595, 2181.595
625.6417, 2182.212
626.1238, 2183.852
626.6059, 2185.995
627.0880, 2189.390
627.5701, 2191.025
628.0522, 2189.003
628.5344, 2184.386
629.0165, 2182.419
629.4986, 2183.133
629.9807, 2185.313
630.4628, 2190.017
630.9449, 2195.033
631.4271, 2195.447
631.9092, 2190.719
632.3913, 2185.908
632.8734, 2183.726
633.3555, 2183.792
633.8376, 2186.045
634.3198, 2192.295
634.8019, 2196.980
635.2840, 2197.085
635.7661, 2195.286
636.2482, 2195.461
636.7303, 2199.758
637.2125, 2202.554
637.6946, 2202.839
638.1767, 2201.255
638.6588, 2199.406
639.1409, 2197.212
639.6230, 2195.377
640.1052, 2194.305
640.5873, 2193.785
641.0694, 2193.108
641.5515, 2192.335
642.0336, 2191.868
642.5157, 2191.922
642.9979, 2192.519
643.4800, 2194.253
643.9621, 2197.297
644.4442, 2198.950
644.9263, 2194.985
645.4084, 2190.832
645.8906, 2191.130
646.3727, 2200.154
646.8548, 2207.010
647.3369, 2210.255
647.8190, 2211.601
648.3011, 2213.042
648.7833, 2214.881
649.2654, 2215.586
649.7475, 2214.728
650.2296, 2212.776
650.7117, 2209.995
651.1938, 2206.549
651.6760, 2204.891
652.1581, 2207.615
652.6402, 2211.444
653.1223, 2210.990
653.6044, 2207.108
654.0865, 2203.303
654.5687, 2201.248
655.0508, 2200.238
655.5329, 2199.545
656.0150, 2199.108
656.4971, 2200.515
656.9792, 2206.785
657.4614, 2212.820
657.9435, 2216.005
658.4256, 2216.093
658.9077, 2213.478
659.3898, 2206.293
659.8719, 2199.648
660.3541, 2200.202
660.8362, 2207.641
661.3183, 2211.979
661.8004, 2211.263
662.2825, 2208.474
662.7646, 2207.183
663.2468, 2206.891
663.7289, 2206.392
664.2110, 2205.319
664.6931, 2203.856
665.1752, 2201.198
665.6573, 2198.299
666.1395, 2197.321
666.6216, 2202.086
667.1037, 2205.655
667.5858, 2204.120
668.0679, 2198.645
668.5500, 2197.904
669.0322, 2204.677
669.5143, 2210.647
669.9964, 2211.630
670.4785, 2207.996
670.9606, 2205.837
671.4427, 2205.167
671.9249, 2205.610
672.4070, 2206.918
672.8891, 2209.080
673.3712, 2212.698
673.8533, 2218.075
674.3354, 2222.109
674.8176, 2222.946
675.2997, 2221.133
675.7818, 2216.797
676.2639, 2206.952
676.7460, 2200.252
677.2281, 2201.149
677.7103, 2205.308
678.1924, 2207.331
678.6745, 2205.382
679.1566, 2205.493
679.6387, 2209.212
680.1208, 2214.705
680.6030, 2218.031
681.0851, 2219.137
681.5672, 2219.860
682.0493, 2220.876
682.5314, 2221.823
683.0135, 2221.890
683.4957, 2221.257
683.9778, 2220.675
684.4599, 2220.706
684.9420, 2220.784
685.4241, 2219.961
685.9063, 2218.416
686.3884, 2218.528
686.8705, 2222.660
687.3526, 2227.076
687.8347, 2230.441
688.3168, 2232.873
688.7990, 2233.187
689.2811, 2230.436
689.7632, 2227.782
690.2453, 2228.247
690.7274, 2231.512
691.2095, 2233.147
691.6917, 2232.724
692.1738, 2231.693
692.6559, 2231.066
693.1380, 2230.988
693.6201, 2231.837
694.1022, 2233.950
694.5844, 2236.178
695.0665, 2237.090
695.5486, 2237.948
696.0307, 2240.390
696.5128, 2245.993
696.9949, 2251.733
697.4771, 2259.142
697.9592, 2265.753
698.4413, 2265.204
698.9234, 2254.793
699.4055, 2248.481
699.8876, 2251.498
700.3698, 2259.509
700.8519, 2260.918
701.3340, 2256.690
701.8161, 2253.080
702.2982, 2254.138
702.7803, 2257.000
703.2625, 2258.895
703.7446, 2259.910
704.2267, 2260.503
704.7088, 2259.878
705.1909, 2259.798
705.6730, 2261.826
706.1552, 2266.321
706.6373, 2268.347
707.1194, 2265.854
707.6015, 2263.714
708.0836, 2265.032
708.5657, 2270.025
709.0479, 2272.940
709.5300, 2273.422
710.0121, 2273.695
710.4942, 2276.391
710.9763, 2280.277
711.4584, 2282.284
711.9406, 2281.753
712.4227, 2281.171
712.9048, 2282.627
713.3869, 2284.854
713.8690, 2286.696
714.3511, 2288.827
714.8333, 2288.901
715.3154, 2284.799
715.7975, 2279.402
716.2796, 2275.696
716.7617, 2274.244
717.2438, 2273.086
717.7260, 2271.872
718.2081, 2271.183
718.6902, 2272.241
719.1723, 2274.905
719.6544, 2277.968
720.1365, 2281.446
720.6187, 2284.520
721.1008, 2285.917
721.5829, 2286.141
722.0650, 2286.435
722.5471, 2286.849
723.0292, 2287.849
723.5114, 2289.979
723.9935, 2292.888
724.4756, 2295.121
724.9577, 2295.642
725.4398, 2297.012
725.9219, 2300.507
726.4041, 2305.499
726.8862, 2307.567
727.3683, 2306.373
727.8504, 2306.670
728.3325, 2313.910
728.8146, 2323.742
729.2968, 2325.395
729.7789, 2319.747
730.2610, 2314.981
730.7431, 2315.903
731.2252, 2319.936
731.7073, 2326.177
732.1895, 2334.793
732.6716, 2341.596
733.1537, 2344.264
733.6358, 2346.277
734.1179, 2349.542
734.6000, 2354.542
735.0822, 2357.064
735.5643, 2356.091
736.0464, 2356.052
736.5285, 2362.319
737.0106, 2373.052
737.4927, 2381.153
737.9749, 2385.786
738.4570, 2389.323
738.9391, 2393.627
739.4212, 2398.106
739.9033, 2402.027
740.3854, 2405.067
740.8676, 2408.134
741.3497, 2411.340
741.8318, 2414.843
742.3139, 2418.963
742.7960, 2424.421
743.2781, 2428.465
743.7603, 2430.521
744.2424, 2431.695
744.7245, 2433.124
745.2066, 2434.871
745.6887, 2438.378
746.1708, 2444.931
746.6530, 2450.745
747.1351, 2450.460
747.6172, 2446.528
748.0993, 2443.280
748.5814, 2443.531
749.0635, 2443.284
749.5457, 2441.482
750.0278, 2438.174
750.5099, 2433.361
750.9920, 2424.883
751.4741, 2419.397
751.9562, 2419.533
752.4384, 2422.399
752.9205, 2420.388
753.4026, 2413.632
753.8847, 2406.016
754.3668, 2398.316
754.8489, 2391.465
755.3311, 2387.847
755.8132, 2386.307
756.2953, 2383.586
756.7774, 2376.211
757.2595, 2369.155
757.7416, 2365.524
758.2238, 2364.608
758.7059, 2361.637
759.1880, 2355.118
759.6701, 2348.597
760.1522, 2342.804
760.6343, 2337.844
761.1165, 2334.007
761.5986, 2331.306
762.0807, 2329.750
762.5628, 2330.817
763.0449, 2332.371
763.5270, 2329.634
764.0092, 2323.497
764.4913, 2318.719
764.9734, 2319.929
765.4555, 2321.642
765.9376, 2320.749
766.4197, 2317.065
766.9019, 2312.219
767.3840, 2304.738
767.8661, 2298.484
768.3482, 2295.367
768.8303, 2295.257
769.3124, 2295.701
769.7946, 2296.844
770.2767, 2296.829
770.7588, 2291.898
771.2409, 2285.809
771.7230, 2286.336
772.2051, 2293.451
772.6873, 2300.416
773.1694, 2304.317
773.6515, 2305.841
774.1336, 2304.485
774.6157, 2299.259
775.0978, 2297.514
775.5800, 2301.580
776.0621, 2306.229
776.5442, 2308.137
777.0263, 2307.116
777.5084, 2307.526
777.9905, 2309.437
778.4727, 2312.011
778.9548, 2315.391
779.4369, 2318.665
779.9190, 2320.089
780.4011, 2319.440
780.8832, 2318.171
781.3654, 2315.167
781.8475, 2313.270
782.3296, 2314.969
782.8117, 2322.038
783.2938, 2328.181
783.7759, 2333.016
784.2581, 2337.541
784.7402, 2342.504
785.2223, 2347.901
785.7044, 2353.408
786.1865, 2359.093
786.6686, 2363.708
787.1508, 2364.862
787.6329, 2364.548
788.1150, 2365.922
788.5971, 2369.594
789.0792, 2373.899
789.5613, 2378.826
790.0435, 2383.518
790.5256, 2387.099
791.0077, 2388.412
791.4898, 2391.698
791.9719, 2397.873
792.4540, 2404.427
792.9362, 2409.418
793.4183, 2412.851
793.9004, 2413.548
794.3825, 2411.285
794.8646, 2407.804
795.3467, 2404.552
795.8289, 2401.200
796.3110, 2397.230
796.7931, 2392.341
797.2752, 2387.668
797.7573, 2384.040
798.2394, 2380.501
798.7216, 2376.125
799.2037, 2369.960
799.6858, 2365.432
800.1679, 2362.748
800.6500, 2361.193
801.1321, 2360.972
801.6143, 2361.423
802.0964, 2359.093
802.5785, 2353.436
803.0606, 2346.470
803.5427, 2337.557
804.0248, 2329.599
804.5070, 2326.575
804.9891, 2331.830
805.4712, 2333.897
805.9533, 2327.312
806.4354, 2318.898
806.9175, 2313.396
807.3997, 2311.290
807.8818, 2310.377
808.3639, 2310.905
808.8460, 2311.666
809.3281, 2311.424
809.8102, 2310.452
810.2924, 2309.495
810.7745, 2308.709
811.2566, 2307.470
811.7387, 2304.575
812.2208, 2301.500
812.7029, 2299.580
813.1851, 2299.274
813.6672, 2299.490
814.1493, 2300.838
814.6314, 2301.815
815.1135, 2300.451
815.5956, 2296.497
816.0778, 2296.429
816.5599, 2300.914
817.0420, 2305.815
817.5241, 2307.000
818.0062, 2306.047
818.4883, 2305.759
818.9705, 2306.763
819.4526, 2306.101
819.9347, 2300.140
820.4168, 2293.616
820.8989, 2290.154
821.3810, 2290.505
821.8632, 2290.962
822.3453, 2291.128
822.8274, 2292.305
823.3095, 2297.042
823.7916, 2304.136
824.2737, 2305.494
824.7559, 2300.697
825.2380, 2296.177
825.7201, 2298.459
826.2022, 2302.820
826.6843, 2304.686
827.1664, 2303.345
827.6486, 2301.182
828.1307, 2296.192
828.6128, 2292.970
829.0949, 2294.566
829.5770, 2301.479
830.0591, 2304.857
830.5413, 2304.153
831.0234, 2303.132
831.5055, 2305.996
831.9876, 2310.040
832.4697, 2309.025
832.9518, 2303.076
833.4340, 2297.555
833.9161, 2294.276
834.3982, 2293.535
834.8803, 2297.123
835.3624, 2305.522
835.8445, 2308.632
836.3267, 2304.041
836.8088, 2298.862
837.2909, 2296.375
837.7730, 2296.247
838.2551, 2296.703
838.7372, 2297.731
839.2194, 2298.811
839.7015, 2300.312
840.1836, 2301.238
840.6657, 2299.658
841.1478, 2296.193
841.6299, 2294.636
842.1121, 2299.457
842.5942, 2302.730
843.0763, 2300.681
843.5584, 2294.712
844.0405, 2293.045
844.5226, 2296.094
845.0048, 2300.317
845.4869, 2304.983
845.9690, 2309.125
846.4511, 2310.358
846.9332, 2309.327
847.4153, 2308.185
847.8975, 2307.914
848.3796, 2307.824
848.8617, 2307.469
849.3438, 2307.038
849.8259, 2307.189
850.3080, 2308.277
850.7902, 2309.168
851.2723, 2309.284
851.7544, 2309.499
852.2365, 2313.072
852.7186, 2319.088
853.2007, 2321.750
853.6829, 2317.168
854.1650, 2311.448
854.6471, 2310.259
855.1292, 2311.525
855.6113, 2311.749
856.0934, 2309.157
856.5756, 2306.412
857.0577, 2302.743
857.5398, 2299.894
858.0219, 2300.990
858.5040, 2306.308
858.9861, 2310.055
859.4683, 2310.852
859.9504, 2311.385
860.4325, 2316.395
860.9146, 2323.032
861.3967, 2326.115
861.8788, 2323.140
862.3610, 2319.891
862.8431, 2317.552
863.3252, 2316.586
863.8073, 2317.659
864.2894, 2322.280
864.7715, 2324.083
865.2537, 2322.432
865.7358, 2319.802
866.2179, 2318.344
866.7000, 2317.913
867.1821, 2318.268
867.6642, 2319.444
868.1464, 2320.572
868.6285, 2321.466
869.1106, 2321.853
869.5927, 2321.426
870.0748, 2319.958
870.5569, 2318.546
871.0391, 2316.762
871.5212, 2315.793
872.0033, 2316.552
872.4854, 2318.794
872.9675, 2320.950
873.4496, 2323.002
873.9318, 2324.750
874.4139, 2325.912
874.8960, 2326.764
875.3781, 2327.531
875.8602, 2328.197
876.3423, 2328.640
876.8245, 2328.510
877.3066, 2328.601
877.7887, 2329.711
878.2708, 2331.137
878.7529, 2329.102
879.2350, 2323.638
879.7172, 2319.362
880.1993, 2318.069
880.6814, 2319.353
881.1635, 2324.097
881.6456, 2330.975
882.1277, 2336.863
882.6099, 2342.587
883.0920, 2344.786
883.5741, 2339.725
884.0562, 2331.906
884.5383, 2328.718
885.0204, 2331.063
885.5026, 2331.991
885.9847, 2329.731
886.4668, 2327.216
886.9489, 2329.056
887.4310, 2333.540
887.9131, 2337.128
888.3953, 2338.586
888.8774, 2340.002
889.3595, 2343.408
889.8416, 2346.453
890.3237, 2346.697
890.8058, 2342.606
891.2880, 2339.881
891.7701, 2338.320
892.2522, 2338.791
892.7343, 2343.726
893.2164, 2351.106
893.6985, 2354.753
894.1807, 2354.212
894.6628, 2354.644
895.1449, 2361.942
895.6270, 2369.210
896.1091, 2371.100
896.5912, 2366.789
897.0734, 2364.748
897.5555, 2365.667
898.0376, 2367.220
898.5197, 2368.229
899.0018, 2369.039
899.4839, 2370.567
899.9661, 2372.908
900.4482, 2376.581
900.9303, 2384.762
901.4124, 2391.718
901.8945, 2392.585
902.3766, 2389.104
902.8588, 2387.112
903.3409, 2386.996
903.8230, 2388.979
904.3051, 2393.992
904.7872, 2400.136
905.2693, 2403.574
905.7515, 2404.655
906.2336, 2405.453
906.7157, 2406.213
907.1978, 2407.673
907.6799, 2410.867
908.1620, 2414.912
908.6442, 2418.746
909.1263, 2421.226
909.6084, 2425.434
910.0905, 2433.307
910.5726, 2440.309
911.0547, 2441.001
911.5369, 2436.207
912.0190, 2436.213
912.5011, 2441.786
912.9832, 2447.816
913.4653, 2450.113
913.9474, 2450.873
914.4296, 2452.266
914.9117, 2454.551
915.3938, 2455.813
915.8759, 2454.921
916.3580, 2454.128
916.8401, 2454.571
917.3223, 2455.821
917.8044, 2455.535
918.2865, 2453.735
918.7686, 2451.093
919.2507, 2447.480
919.7328, 2443.595
920.2150, 2440.339
920.6971, 2437.371
921.1792, 2433.764
921.6613, 2429.145
922.1434, 2423.970
922.6255, 2417.728
923.1077, 2411.516
923.5898, 2407.274
924.0719, 2404.974
924.5540, 2403.508
925.0361, 2402.849
925.5182, 2402.139
926.0004, 2400.538
926.4825, 2398.327
926.9646, 2395.654
927.4467, 2391.982
927.9288, 2389.432
928.4109, 2388.528
928.8931, 2388.264
929.3752, 2387.934
929.8573, 2387.551
930.3394, 2388.604
930.8215, 2391.101
931.3036, 2391.703
931.7858, 2385.862
932.2679, 2378.540
932.7500, 2374.101
933.2321, 2372.726
933.7142, 2373.147
934.1964, 2377.711
934.6785, 2380.583
935.1606, 2379.710
935.6427, 2376.483
936.1248, 2374.672
936.6069, 2374.251
937.0891, 2375.471
937.5712, 2379.480
938.0533, 2383.036
938.5354, 2382.285
939.0175, 2379.250
939.4996, 2376.907
939.9818, 2375.349
940.4639, 2375.532
940.9460, 2378.055
941.4281, 2381.409
941.9102, 2384.737
942.3923, 2387.795
942.8745, 2387.707
943.3566, 2384.181
943.8387, 2380.399
944.3208, 2377.612
944.8029, 2376.749
945.2850, 2379.920
945.7672, 2387.433
946.2493, 2391.244
946.7314, 2388.642
947.2135, 2386.395
947.6956, 2387.415
948.1777, 2390.626
948.6599, 2392.233
949.1420, 2392.403
949.6241, 2392.026
950.1062, 2391.577
950.5883, 2390.655
951.0704, 2387.577
951.5526, 2384.134
952.0347, 2384.057
952.5168, 2390.153
952.9989, 2394.190
953.4810, 2395.185
953.9631, 2394.714
954.4453, 2394.309
954.9274, 2394.074
955.4095, 2394.563
955.8916, 2395.908
956.3737, 2397.002
956.8558, 2395.624
957.3380, 2394.839
957.8201, 2398.277
958.3022, 2406.551
958.7843, 2408.699
959.2664, 2402.781
959.7485, 2396.759
960.2307, 2394.765
960.7128, 2395.197
961.1949, 2394.282
961.6770, 2392.503
962.1591, 2391.567
962.6412, 2394.176
963.1234, 2395.672
963.6055, 2392.693
964.0876, 2388.025
964.5697, 2386.566
965.0518, 2389.320
965.5339, 2390.796
966.0161, 2390.215
966.4982, 2388.773
966.9803, 2386.950
967.4624, 2385.582
967.9445, 2386.617
968.4266, 2390.720
968.9088, 2393.823
969.3909, 2393.991
969.8730, 2393.034
970.3551, 2391.625
970.8372, 2389.812
971.3193, 2388.273
971.8015, 2386.942
972.2836, 2387.334
972.7657, 2392.814
973.2478, 2398.237
973.7299, 2396.243
974.2120, 2389.385
974.6942, 2384.007
975.1763, 2382.285
975.6584, 2381.944
976.1405, 2382.669
976.6226, 2384.594
977.1047, 2388.574
977.5869, 2394.350
978.0690, 2398.517
978.5511, 2400.489
979.0332, 2401.706
979.5153, 2402.302
979.9974, 2403.470
980.4796, 2407.310
980.9617, 2414.784
981.4438, 2417.368
981.9259, 2412.599
982.4080, 2407.779
982.8901, 2406.439
983.3723, 2407.393
983.8544, 2407.531
984.3365, 2406.738
984.8186, 2404.550
985.3007, 2397.088
985.7828, 2392.177
986.2650, 2395.663
986.7471, 2403.355
987.2292, 2408.127
987.7113, 2409.346
988.1934, 2409.479
988.6755, 2408.472
989.1577, 2407.308
989.6398, 2407.490
990.1219, 2408.108
990.6040, 2407.012
991.0861, 2403.933
991.5682, 2402.590
992.0504, 2406.729
992.5325, 2410.664
993.0146, 2412.048
993.4967, 2411.147
993.9788, 2408.856
994.4609, 2405.218
994.9431, 2402.491
995.4252, 2402.149
995.9073, 2402.379
996.3894, 2400.632
996.8715, 2398.271
997.3536, 2397.476
997.8358, 2399.194
998.3179, 2402.270
998.8000, 2407.598
999.2821, 2412.733
999.7642, 2414.434
1000.246, 2413.642
1000.728, 2416.427
1001.211, 2422.892
1001.693, 2427.758
1002.175, 2425.300
1002.657, 2422.086
1003.139, 2423.322
1003.621, 2428.150
1004.103, 2429.199
1004.585, 2425.386
1005.068, 2421.738
1005.550, 2419.381
1006.032, 2418.352
1006.514, 2420.561
1006.996, 2423.734
1007.478, 2422.685
1007.960, 2413.290
1008.442, 2406.545
1008.924, 2406.726
1009.407, 2410.057
1009.889, 2415.114
1010.371, 2422.040
1010.853, 2425.232
1011.335, 2424.685
1011.817, 2423.379
1012.299, 2422.964
1012.781, 2423.008
1013.263, 2423.431
1013.746, 2424.010
1014.228, 2423.952
1014.710, 2422.326
1015.192, 2421.740
1015.674, 2423.110
1016.156, 2424.789
1016.638, 2423.891
1017.120, 2421.237
1017.603, 2419.059
1018.085, 2417.573
1018.567, 2417.815
1019.049, 2422.925
1019.531, 2427.759
1020.013, 2428.144
1020.495, 2424.302
1020.977, 2423.179
1021.459, 2425.155
1021.942, 2426.335
1022.424, 2423.868
1022.906, 2420.848
1023.388, 2422.334
1023.870, 2426.320
1024.352, 2428.865
1024.834, 2427.543
1025.316, 2426.485
1025.799, 2426.150
1026.281, 2426.151
1026.763, 2425.562
1027.245, 2424.794
1027.727, 2427.727
1028.209, 2434.344
1028.691, 2438.621
1029.173, 2432.160
1029.656, 2425.800
1030.138, 2428.743
1030.620, 2438.849
1031.102, 2443.252
1031.584, 2440.373
1032.066, 2438.029
1032.548, 2438.309
1033.030, 2439.477
1033.512, 2437.458
1033.995, 2434.987
1034.477, 2438.087
1034.959, 2451.033
1035.441, 2458.079
1035.923, 2449.782
1036.405, 2441.055
1036.887, 2440.421
1037.369, 2446.787
1037.851, 2450.742
1038.334, 2452.306
1038.816, 2452.045
1039.298, 2448.174
1039.780, 2444.739
1040.262, 2445.137
1040.744, 2447.745
1041.226, 2449.232
1041.708, 2449.122
1042.191, 2449.001
1042.673, 2448.993
1043.155, 2448.985
1043.637, 2449.022
1044.119, 2448.891
1044.601, 2447.438
1045.083, 2444.755
1045.565, 2444.495
1046.047, 2452.113
1046.530, 2457.172
1047.012, 2455.287
1047.494, 2449.304
1047.976, 2447.818
1048.458, 2450.063
1048.940, 2449.407
1049.422, 2442.559
1049.904, 2437.151
1050.386, 2442.243
1050.869, 2449.605
1051.351, 2449.827
1051.833, 2440.657
1052.315, 2436.232
1052.797, 2437.138
1053.279, 2440.099
1053.761, 2444.205
1054.243, 2448.460
1054.726, 2452.250
1055.208, 2454.778
1055.690, 2453.972
1056.172, 2442.612
1056.654, 2437.231
1057.136, 2442.366
1057.618, 2450.902
1058.100, 2454.983
1058.583, 2455.064
1059.065, 2453.339
1059.547, 2450.047
1060.029, 2447.577
1060.511, 2449.582
1060.993, 2451.147
1061.475, 2448.383
1061.957, 2442.445
1062.439, 2437.839
1062.922, 2434.190
1063.404, 2434.925
1063.886, 2442.123
1064.368, 2450.286
1064.850, 2453.044
1065.332, 2452.370
1065.814, 2450.641
1066.296, 2447.997
1066.778, 2445.709
1067.261, 2444.316
1067.743, 2442.425
1068.225, 2438.500
1068.707, 2433.922
1069.189, 2433.615
1069.671, 2436.854
1070.153, 2441.179
1070.635, 2447.944
1071.118, 2452.254
1071.600, 2449.002
1072.082, 2444.329
1072.564, 2445.253
1073.046, 2452.573
1073.528, 2454.404
1074.010, 2450.191
1074.492, 2446.053
1074.974, 2447.730
1075.457, 2450.688
1075.939, 2450.648
1076.421, 2448.293
1076.903, 2447.036
1077.385, 2447.214
1077.867, 2448.052
1078.349, 2449.417
1078.831, 2451.415
1079.313, 2454.888
1079.796, 2458.844
1080.278, 2461.683
1080.760, 2463.223
1081.242, 2463.269
1081.724, 2459.934
1082.206, 2457.174
1082.688, 2456.474
1083.170, 2457.325
1083.652, 2458.024
1084.135, 2458.776
1084.617, 2460.951
1085.099, 2466.176
1085.581, 2469.903
1086.063, 2468.898
1086.545, 2465.378
1087.027, 2460.653
1087.509, 2454.248
1087.992, 2453.594
1088.474, 2459.093
1088.956, 2464.635
1089.438, 2466.262
1089.920, 2466.274
1090.402, 2466.930
1090.884, 2467.822
1091.366, 2468.030
1091.849, 2466.154
1092.331, 2466.090
1092.813, 2468.444
1093.295, 2471.245
1093.777, 2471.782
1094.259, 2471.574
1094.741, 2474.794
1095.223, 2480.940
1095.705, 2485.070
1096.188, 2483.421
1096.670, 2481.637
1097.152, 2480.967
1097.634, 2481.263
1098.116, 2483.265
1098.598, 2486.288
1099.080, 2485.165
1099.562, 2478.541
1100.044, 2474.289
1100.527, 2480.633
1101.009, 2488.438
1101.491, 2491.612
1101.973, 2490.778
1102.455, 2489.348
1102.937, 2487.244
1103.419, 2485.971
1103.901, 2486.209
1104.384, 2486.940
1104.866, 2487.152
1105.348, 2487.196
1105.830, 2487.496
1106.312, 2488.119
1106.794, 2488.843
1107.276, 2489.691
1107.758, 2490.475
1108.240, 2491.064
1108.723, 2491.543
1109.205, 2492.297
1109.687, 2493.072
1110.169, 2493.283
1110.651, 2492.030
1111.133, 2491.345
1111.615, 2491.552
1112.097, 2492.116
1112.579, 2492.413
1113.062, 2492.686
1113.544, 2494.817
1114.026, 2498.261
1114.508, 2499.089
1114.990, 2490.005
1115.472, 2484.495
1115.954, 2490.773
1116.436, 2500.825
1116.919, 2501.645
1117.401, 2493.950
1117.883, 2489.382
1118.365, 2489.252
1118.847, 2491.192
1119.329, 2495.963
1119.811, 2499.853
1120.293, 2499.252
1120.776, 2495.384
1121.258, 2493.107
1121.740, 2492.394
1122.222, 2493.855
1122.704, 2498.253
1123.186, 2502.371
1123.668, 2502.832
1124.150, 2501.266
1124.632, 2498.885
1125.115, 2495.657
1125.597, 2495.046
1126.079, 2498.205
1126.561, 2500.352
1127.043, 2499.490
1127.525, 2496.863
1128.007, 2493.062
1128.489, 2489.438
1128.971, 2488.505
1129.454, 2491.781
1129.936, 2495.317
1130.418, 2498.632
1130.900, 2502.253
1131.382, 2507.575
1131.864, 2512.949
1132.346, 2512.789
1132.828, 2508.500
1133.311, 2504.536
1133.793, 2501.418
1134.275, 2500.851
1134.757, 2504.529
1135.239, 2509.164
1135.721, 2512.288
1136.203, 2513.895
1136.685, 2513.453
1137.167, 2511.257
1137.650, 2509.914
1138.132, 2511.675
1138.614, 2513.810
1139.096, 2516.054
1139.578, 2517.382
1140.060, 2515.469
1140.542, 2510.233
1141.024, 2508.482
1141.506, 2510.823
1141.989, 2513.227
1142.471, 2512.297
1142.953, 2510.712
1143.435, 2510.598
1143.917, 2511.397
1144.399, 2510.642
1144.881, 2507.889
1145.363, 2507.478
1145.846, 2510.527
1146.328, 2513.740
1146.810, 2514.413
1147.292, 2513.160
1147.774, 2509.006
1148.256, 2502.371
1148.738, 2501.671
1149.220, 2508.866
1149.703, 2514.576
1150.185, 2516.024
1150.667, 2515.539
1151.149, 2515.909
1151.631, 2516.414
1152.113, 2515.731
1152.595, 2513.304
1153.077, 2512.433
1153.559, 2513.328
1154.042, 2515.821
1154.524, 2521.076
1155.006, 2526.044
1155.488, 2524.086
1155.970, 2517.890
1156.452, 2512.552
1156.934, 2509.031
1157.416, 2507.460
1157.898, 2508.861
1158.381, 2509.904
1158.863, 2508.203
1159.345, 2505.161
1159.827, 2504.892
1160.309, 2506.696
1160.791, 2508.756
1161.273, 2511.800
1161.755, 2512.479
1162.238, 2508.367
1162.720, 2504.334
1163.202, 2504.293
1163.684, 2507.491
1164.166, 2510.547
1164.648, 2513.209
1165.130, 2514.237
1165.612, 2511.621
1166.094, 2508.940
1166.577, 2505.761
1167.059, 2504.389
1167.541, 2508.703
1168.023, 2517.651
1168.505, 2521.099
1168.987, 2519.273
1169.469, 2517.105
1169.951, 2516.802
1170.433, 2517.505
1170.916, 2520.035
1171.398, 2522.580
1171.880, 2522.231
1172.362, 2519.231
1172.844, 2518.414
1173.326, 2520.124
1173.808, 2521.889
1174.290, 2523.372
1174.773, 2523.067
1175.255, 2518.462
1175.737, 2512.083
1176.219, 2508.665
1176.701, 2508.210
1177.183, 2508.556
1177.665, 2509.415
1178.147, 2511.393
1178.630, 2518.201
1179.112, 2523.301
1179.594, 2519.542
1180.076, 2510.361
1180.558, 2507.247
1181.040, 2510.475
1181.522, 2513.889
1182.004, 2516.468
1182.486, 2517.830
1182.969, 2515.024
1183.451, 2512.946
1183.933, 2517.535
1184.415, 2527.288
1184.897, 2530.836
1185.379, 2527.586
1185.861, 2524.737
1186.343, 2524.071
1186.825, 2524.693
1187.308, 2527.531
1187.790, 2529.995
1188.272, 2529.202
1188.754, 2525.153
1189.236, 2520.724
1189.718, 2515.734
1190.200, 2512.830
1190.682, 2512.994
1191.165, 2515.299
1191.647, 2521.377
1192.129, 2527.402
1192.611, 2528.352
1193.093, 2523.380
1193.575, 2521.044
1194.057, 2521.540
1194.539, 2523.155
1195.021, 2525.698
1195.504, 2527.970
1195.986, 2526.926
1196.468, 2525.652
1196.950, 2529.356
1197.432, 2540.125
1197.914, 2542.854
1198.396, 2536.202
1198.878, 2530.542
1199.360, 2531.882
1199.843, 2535.025
1200.325, 2532.635
1200.807, 2528.763
1201.289, 2530.184
1201.771, 2540.095
1202.253, 2542.749
1202.735, 2537.042
1203.217, 2531.449
1203.700, 2530.846
1204.182, 2532.730
1204.664, 2535.811
1205.146, 2538.804
1205.628, 2539.185
1206.110, 2534.953
1206.592, 2534.760
1207.074, 2539.227
1207.557, 2543.547
1208.039, 2544.167
1208.521, 2543.445
1209.003, 2543.854
1209.485, 2544.834
1209.967, 2545.376
1210.449, 2545.362
1210.931, 2544.675
1211.413, 2543.059
1211.896, 2542.400
1212.378, 2544.230
1212.860, 2547.497
1213.342, 2553.010
1213.824, 2558.646
1214.306, 2559.397
1214.788, 2553.043
1215.270, 2549.421
1215.752, 2549.076
1216.235, 2548.844
1216.717, 2546.031
1217.199, 2542.469
1217.681, 2538.606
1218.163, 2535.751
1218.645, 2537.345
1219.127, 2545.365
1219.609, 2549.413
1220.092, 2548.720
1220.574, 2547.655
1221.056, 2550.894
1221.538, 2554.259
1222.020, 2554.000
1222.502, 2550.751
1222.984, 2545.630
1223.466, 2537.117
1223.948, 2535.989
1224.431, 2543.501
1224.913, 2550.072
1225.395, 2544.701
1225.877, 2538.227
1226.359, 2540.931
1226.841, 2549.208
1227.323, 2553.522
1227.805, 2553.382
1228.287, 2551.438
1228.770, 2547.681
1229.252, 2546.383
1229.734, 2554.582
1230.216, 2562.964
1230.698, 2564.579
1231.180, 2561.021
1231.662, 2555.824
1232.144, 2548.523
1232.627, 2546.151
1233.109, 2549.394
1233.591, 2553.340
1234.073, 2555.055
1234.555, 2555.499
1235.037, 2554.646
1235.519, 2553.252
1236.001, 2552.566
1236.484, 2552.612
1236.966, 2553.449
1237.448, 2555.088
1237.930, 2556.228
1238.412, 2555.226
1238.894, 2554.311
1239.376, 2555.766
1239.858, 2557.538
1240.340, 2555.494
1240.823, 2550.129
1241.305, 2546.434
1241.787, 2544.946
1242.269, 2546.242
1242.751, 2554.670
1243.233, 2561.173
1243.715, 2560.386
1244.197, 2556.803
1244.679, 2557.618
1245.162, 2561.935
1245.644, 2565.398
1246.126, 2567.565
1246.608, 2567.686
1247.090, 2561.719
1247.572, 2558.597
1248.054, 2562.273
1248.536, 2568.216
1249.019, 2568.821
1249.501, 2565.962
1249.983, 2565.438
1250.465, 2567.695
1250.947, 2571.516
1251.429, 2580.463
1251.911, 2584.588
1252.393, 2580.073
1252.875, 2573.306
1253.358, 2574.170
1253.840, 2578.950
1254.322, 2578.769
1254.804, 2573.524
1255.286, 2569.136
1255.768, 2567.274
1256.250, 2566.507
1256.732, 2566.740
##END=



