##NAMES=Dickinsonite-(KMnNa)
##RRUFFID=R160071
##IDEAL CHEMISTRY=K(NaMn^2+^)CaNa_3_AlMn^2+^_13_(PO_4_)_12_(OH)_2_
##LOCALITY=Nancy Pegmatite, Chacabuco Dept, San Luis, Argentina
##OWNER=RRUFF
##SOURCE=Thomas A. Loomis
##DESCRIPTION=Dark green massive, associated with dark brown bobfergusonite (R160069)
##STATUS=The identification of this mineral is confirmed by single-crystal X-ray diffraction and chemical analysis.
##URL=rruff.info/R160071
##MEASURED CHEMISTRY=(K_0.61_Pb_0.32_)_Σ0.93_(Na_1.00_Mn_1.00_)_Σ2.00_(Ca_0.33_Ba_0.18_)_Σ0.51_Na_2.98_Al_0.94_(Mn_6.84_Fe^2+^_5.41_Mg_0.82_)_Σ13.07_(PO_4_)_12_(OH)_2_ 
8.813672e+001, 1.731747e+002
8.861884e+001, 1.753205e+002
8.910095e+001, 1.775989e+002
8.958307e+001, 1.801690e+002
9.006519e+001, 1.829777e+002
9.054730e+001, 1.859301e+002
9.102942e+001, 1.892002e+002
9.151154e+001, 1.924105e+002
9.199365e+001, 1.957626e+002
9.247577e+001, 1.989514e+002
9.295789e+001, 2.010145e+002
9.344000e+001, 2.005525e+002
9.392212e+001, 1.986218e+002
9.440424e+001, 1.982398e+002
9.488635e+001, 1.999283e+002
9.536847e+001, 2.023562e+002
9.585059e+001, 2.035400e+002
9.633270e+001, 2.035323e+002
9.681482e+001, 2.034950e+002
9.729694e+001, 2.040223e+002
9.777905e+001, 2.050832e+002
9.826117e+001, 2.062892e+002
9.874329e+001, 2.075350e+002
9.922540e+001, 2.089501e+002
9.970752e+001, 2.111012e+002
1.001896e+002, 2.141966e+002
1.006718e+002, 2.170778e+002
1.011539e+002, 2.187809e+002
1.016360e+002, 2.189905e+002
1.021181e+002, 2.195974e+002
1.026002e+002, 2.208980e+002
1.030823e+002, 2.228018e+002
1.035645e+002, 2.246226e+002
1.040466e+002, 2.262076e+002
1.045287e+002, 2.279459e+002
1.050108e+002, 2.301993e+002
1.054929e+002, 2.330687e+002
1.059750e+002, 2.362565e+002
1.064572e+002, 2.397825e+002
1.069393e+002, 2.437029e+002
1.074214e+002, 2.476291e+002
1.079035e+002, 2.526586e+002
1.083856e+002, 2.572283e+002
1.088677e+002, 2.595531e+002
1.093499e+002, 2.569764e+002
1.098320e+002, 2.548245e+002
1.103141e+002, 2.543080e+002
1.107962e+002, 2.559992e+002
1.112783e+002, 2.575536e+002
1.117604e+002, 2.586370e+002
1.122426e+002, 2.595417e+002
1.127247e+002, 2.606918e+002
1.132068e+002, 2.620578e+002
1.136889e+002, 2.637526e+002
1.141710e+002, 2.658381e+002
1.146531e+002, 2.684593e+002
1.151353e+002, 2.711929e+002
1.156174e+002, 2.741893e+002
1.160995e+002, 2.772635e+002
1.165816e+002, 2.799888e+002
1.170637e+002, 2.820431e+002
1.175458e+002, 2.837676e+002
1.180280e+002, 2.854180e+002
1.185101e+002, 2.871227e+002
1.189922e+002, 2.886465e+002
1.194743e+002, 2.897299e+002
1.199564e+002, 2.904582e+002
1.204385e+002, 2.912022e+002
1.209207e+002, 2.919685e+002
1.214028e+002, 2.929239e+002
1.218849e+002, 2.942328e+002
1.223670e+002, 2.956353e+002
1.228491e+002, 2.976867e+002
1.233312e+002, 3.015662e+002
1.238134e+002, 3.071572e+002
1.242955e+002, 3.121049e+002
1.247776e+002, 3.141168e+002
1.252597e+002, 3.140908e+002
1.257418e+002, 3.138574e+002
1.262239e+002, 3.138345e+002
1.267061e+002, 3.141456e+002
1.271882e+002, 3.149314e+002
1.276703e+002, 3.161888e+002
1.281524e+002, 3.180242e+002
1.286345e+002, 3.210396e+002
1.291166e+002, 3.249370e+002
1.295988e+002, 3.283893e+002
1.300809e+002, 3.303365e+002
1.305630e+002, 3.312698e+002
1.310451e+002, 3.330535e+002
1.315272e+002, 3.359732e+002
1.320093e+002, 3.390317e+002
1.324915e+002, 3.405166e+002
1.329736e+002, 3.404286e+002
1.334557e+002, 3.404711e+002
1.339378e+002, 3.417896e+002
1.344199e+002, 3.442878e+002
1.349020e+002, 3.462089e+002
1.353842e+002, 3.472110e+002
1.358663e+002, 3.478260e+002
1.363484e+002, 3.493937e+002
1.368305e+002, 3.521014e+002
1.373126e+002, 3.548343e+002
1.377947e+002, 3.566616e+002
1.382769e+002, 3.573440e+002
1.387590e+002, 3.588670e+002
1.392411e+002, 3.618390e+002
1.397232e+002, 3.656873e+002
1.402053e+002, 3.679506e+002
1.406874e+002, 3.682768e+002
1.411696e+002, 3.678152e+002
1.416517e+002, 3.673473e+002
1.421338e+002, 3.669705e+002
1.426159e+002, 3.663498e+002
1.430980e+002, 3.653003e+002
1.435801e+002, 3.639163e+002
1.440623e+002, 3.630758e+002
1.445444e+002, 3.630488e+002
1.450265e+002, 3.633073e+002
1.455086e+002, 3.634288e+002
1.459907e+002, 3.632683e+002
1.464728e+002, 3.632288e+002
1.469550e+002, 3.634092e+002
1.474371e+002, 3.638275e+002
1.479192e+002, 3.642106e+002
1.484013e+002, 3.648258e+002
1.488834e+002, 3.652466e+002
1.493655e+002, 3.650648e+002
1.498477e+002, 3.633102e+002
1.503298e+002, 3.619744e+002
1.508119e+002, 3.615258e+002
1.512940e+002, 3.621366e+002
1.517761e+002, 3.626122e+002
1.522583e+002, 3.628009e+002
1.527404e+002, 3.628752e+002
1.532225e+002, 3.630193e+002
1.537046e+002, 3.630472e+002
1.541867e+002, 3.633374e+002
1.546688e+002, 3.642188e+002
1.551510e+002, 3.660578e+002
1.556331e+002, 3.671250e+002
1.561152e+002, 3.666034e+002
1.565973e+002, 3.652880e+002
1.570794e+002, 3.642462e+002
1.575615e+002, 3.641561e+002
1.580437e+002, 3.640090e+002
1.585258e+002, 3.632029e+002
1.590079e+002, 3.612201e+002
1.594900e+002, 3.599850e+002
1.599721e+002, 3.606684e+002
1.604542e+002, 3.624186e+002
1.609364e+002, 3.637417e+002
1.614185e+002, 3.637051e+002
1.619006e+002, 3.633814e+002
1.623827e+002, 3.633793e+002
1.628648e+002, 3.639079e+002
1.633469e+002, 3.644804e+002
1.638291e+002, 3.649883e+002
1.643112e+002, 3.653802e+002
1.647933e+002, 3.655545e+002
1.652754e+002, 3.651383e+002
1.657575e+002, 3.646695e+002
1.662396e+002, 3.646431e+002
1.667218e+002, 3.654933e+002
1.672039e+002, 3.661645e+002
1.676860e+002, 3.656323e+002
1.681681e+002, 3.642983e+002
1.686502e+002, 3.633997e+002
1.691323e+002, 3.640606e+002
1.696145e+002, 3.653286e+002
1.700966e+002, 3.662208e+002
1.705787e+002, 3.662956e+002
1.710608e+002, 3.662609e+002
1.715429e+002, 3.668909e+002
1.720250e+002, 3.680161e+002
1.725072e+002, 3.688172e+002
1.729893e+002, 3.683882e+002
1.734714e+002, 3.674272e+002
1.739535e+002, 3.669440e+002
1.744356e+002, 3.675142e+002
1.749177e+002, 3.682785e+002
1.753999e+002, 3.681213e+002
1.758820e+002, 3.671608e+002
1.763641e+002, 3.663975e+002
1.768462e+002, 3.668248e+002
1.773283e+002, 3.679328e+002
1.778104e+002, 3.687349e+002
1.782926e+002, 3.687499e+002
1.787747e+002, 3.685024e+002
1.792568e+002, 3.688875e+002
1.797389e+002, 3.698661e+002
1.802210e+002, 3.706804e+002
1.807031e+002, 3.704281e+002
1.811853e+002, 3.694725e+002
1.816674e+002, 3.687826e+002
1.821495e+002, 3.688379e+002
1.826316e+002, 3.692293e+002
1.831137e+002, 3.691680e+002
1.835958e+002, 3.686456e+002
1.840780e+002, 3.679632e+002
1.845601e+002, 3.671153e+002
1.850422e+002, 3.662536e+002
1.855243e+002, 3.660244e+002
1.860064e+002, 3.670834e+002
1.864885e+002, 3.687702e+002
1.869707e+002, 3.691665e+002
1.874528e+002, 3.681757e+002
1.879349e+002, 3.669121e+002
1.884170e+002, 3.665658e+002
1.888991e+002, 3.670384e+002
1.893812e+002, 3.675281e+002
1.898634e+002, 3.678161e+002
1.903455e+002, 3.679289e+002
1.908276e+002, 3.678768e+002
1.913097e+002, 3.676107e+002
1.917918e+002, 3.674490e+002
1.922739e+002, 3.678620e+002
1.927561e+002, 3.688395e+002
1.932382e+002, 3.697151e+002
1.937203e+002, 3.703399e+002
1.942024e+002, 3.706889e+002
1.946845e+002, 3.705338e+002
1.951666e+002, 3.697536e+002
1.956488e+002, 3.688477e+002
1.961309e+002, 3.684267e+002
1.966130e+002, 3.685039e+002
1.970951e+002, 3.686883e+002
1.975772e+002, 3.689356e+002
1.980593e+002, 3.692184e+002
1.985415e+002, 3.691676e+002
1.990236e+002, 3.687020e+002
1.995057e+002, 3.681470e+002
1.999878e+002, 3.679485e+002
2.004699e+002, 3.681579e+002
2.009520e+002, 3.684380e+002
2.014342e+002, 3.687248e+002
2.019163e+002, 3.690271e+002
2.023984e+002, 3.692471e+002
2.028805e+002, 3.694265e+002
2.033626e+002, 3.694704e+002
2.038447e+002, 3.691263e+002
2.043269e+002, 3.682625e+002
2.048090e+002, 3.676671e+002
2.052911e+002, 3.676671e+002
2.057732e+002, 3.682723e+002
2.062553e+002, 3.688523e+002
2.067374e+002, 3.694769e+002
2.072196e+002, 3.699412e+002
2.077017e+002, 3.698307e+002
2.081838e+002, 3.689029e+002
2.086659e+002, 3.682095e+002
2.091480e+002, 3.681460e+002
2.096301e+002, 3.687541e+002
2.101123e+002, 3.693596e+002
2.105944e+002, 3.700269e+002
2.110765e+002, 3.706002e+002
2.115586e+002, 3.707842e+002
2.120407e+002, 3.703874e+002
2.125228e+002, 3.701403e+002
2.130050e+002, 3.703672e+002
2.134871e+002, 3.711513e+002
2.139692e+002, 3.715565e+002
2.144513e+002, 3.715093e+002
2.149334e+002, 3.711622e+002
2.154155e+002, 3.706616e+002
2.158977e+002, 3.698644e+002
2.163798e+002, 3.692800e+002
2.168619e+002, 3.692013e+002
2.173440e+002, 3.697599e+002
2.178261e+002, 3.697139e+002
2.183082e+002, 3.687774e+002
2.187904e+002, 3.675352e+002
2.192725e+002, 3.668393e+002
2.197546e+002, 3.669432e+002
2.202367e+002, 3.670688e+002
2.207188e+002, 3.670080e+002
2.212009e+002, 3.667482e+002
2.216831e+002, 3.663777e+002
2.221652e+002, 3.657183e+002
2.226473e+002, 3.651213e+002
2.231294e+002, 3.651852e+002
2.236115e+002, 3.664264e+002
2.240936e+002, 3.672801e+002
2.245758e+002, 3.671491e+002
2.250579e+002, 3.658022e+002
2.255400e+002, 3.651603e+002
2.260221e+002, 3.654944e+002
2.265042e+002, 3.662903e+002
2.269863e+002, 3.669569e+002
2.274685e+002, 3.677411e+002
2.279506e+002, 3.678987e+002
2.284327e+002, 3.669332e+002
2.289148e+002, 3.645307e+002
2.293969e+002, 3.633782e+002
2.298790e+002, 3.641302e+002
2.303612e+002, 3.655579e+002
2.308433e+002, 3.660746e+002
2.313254e+002, 3.649215e+002
2.318075e+002, 3.642497e+002
2.322896e+002, 3.648141e+002
2.327717e+002, 3.668292e+002
2.332539e+002, 3.679772e+002
2.337360e+002, 3.679011e+002
2.342181e+002, 3.672549e+002
2.347002e+002, 3.667298e+002
2.351823e+002, 3.662817e+002
2.356644e+002, 3.660687e+002
2.361466e+002, 3.662220e+002
2.366287e+002, 3.667980e+002
2.371108e+002, 3.671254e+002
2.375929e+002, 3.671198e+002
2.380750e+002, 3.669560e+002
2.385571e+002, 3.668070e+002
2.390393e+002, 3.666796e+002
2.395214e+002, 3.665638e+002
2.400035e+002, 3.663922e+002
2.404856e+002, 3.661429e+002
2.409677e+002, 3.662745e+002
2.414498e+002, 3.669154e+002
2.419320e+002, 3.678071e+002
2.424141e+002, 3.688008e+002
2.428962e+002, 3.703023e+002
2.433783e+002, 3.710744e+002
2.438604e+002, 3.705310e+002
2.443425e+002, 3.686655e+002
2.448247e+002, 3.679000e+002
2.453068e+002, 3.689250e+002
2.457889e+002, 3.702986e+002
2.462710e+002, 3.707310e+002
2.467531e+002, 3.695922e+002
2.472352e+002, 3.687544e+002
2.477174e+002, 3.686097e+002
2.481995e+002, 3.691148e+002
2.486816e+002, 3.693428e+002
2.491637e+002, 3.690594e+002
2.496458e+002, 3.687963e+002
2.501279e+002, 3.690678e+002
2.506101e+002, 3.703743e+002
2.510922e+002, 3.711556e+002
2.515743e+002, 3.710387e+002
2.520564e+002, 3.701622e+002
2.525385e+002, 3.695829e+002
2.530206e+002, 3.693332e+002
2.535028e+002, 3.693468e+002
2.539849e+002, 3.696291e+002
2.544670e+002, 3.703711e+002
2.549491e+002, 3.708921e+002
2.554312e+002, 3.709955e+002
2.559133e+002, 3.707876e+002
2.563955e+002, 3.709225e+002
2.568776e+002, 3.716364e+002
2.573597e+002, 3.723003e+002
2.578418e+002, 3.724313e+002
2.583239e+002, 3.716603e+002
2.588061e+002, 3.713703e+002
2.592882e+002, 3.719308e+002
2.597703e+002, 3.730019e+002
2.602524e+002, 3.732255e+002
2.607345e+002, 3.722174e+002
2.612166e+002, 3.710843e+002
2.616988e+002, 3.704312e+002
2.621809e+002, 3.704087e+002
2.626630e+002, 3.704756e+002
2.631451e+002, 3.707103e+002
2.636272e+002, 3.709933e+002
2.641093e+002, 3.709189e+002
2.645915e+002, 3.702989e+002
2.650736e+002, 3.697722e+002
2.655557e+002, 3.697621e+002
2.660378e+002, 3.705330e+002
2.665199e+002, 3.707133e+002
2.670020e+002, 3.700619e+002
2.674842e+002, 3.689893e+002
2.679663e+002, 3.683410e+002
2.684484e+002, 3.681597e+002
2.689305e+002, 3.682690e+002
2.694126e+002, 3.686917e+002
2.698947e+002, 3.695313e+002
2.703769e+002, 3.700322e+002
2.708590e+002, 3.700917e+002
2.713411e+002, 3.699310e+002
2.718232e+002, 3.699001e+002
2.723053e+002, 3.700008e+002
2.727874e+002, 3.701877e+002
2.732696e+002, 3.704788e+002
2.737517e+002, 3.708791e+002
2.742338e+002, 3.711638e+002
2.747159e+002, 3.713262e+002
2.751980e+002, 3.713787e+002
2.756801e+002, 3.712921e+002
2.761623e+002, 3.710321e+002
2.766444e+002, 3.708707e+002
2.771265e+002, 3.710233e+002
2.776086e+002, 3.714467e+002
2.780907e+002, 3.712025e+002
2.785728e+002, 3.700796e+002
2.790550e+002, 3.689184e+002
2.795371e+002, 3.688317e+002
2.800192e+002, 3.699250e+002
2.805013e+002, 3.707422e+002
2.809834e+002, 3.707687e+002
2.814655e+002, 3.702103e+002
2.819477e+002, 3.702093e+002
2.824298e+002, 3.708757e+002
2.829119e+002, 3.715793e+002
2.833940e+002, 3.716700e+002
2.838761e+002, 3.711551e+002
2.843582e+002, 3.706543e+002
2.848404e+002, 3.702610e+002
2.853225e+002, 3.699850e+002
2.858046e+002, 3.698789e+002
2.862867e+002, 3.699464e+002
2.867688e+002, 3.701137e+002
2.872509e+002, 3.702798e+002
2.877331e+002, 3.704644e+002
2.882152e+002, 3.709229e+002
2.886973e+002, 3.718347e+002
2.891794e+002, 3.728626e+002
2.896615e+002, 3.732496e+002
2.901436e+002, 3.730022e+002
2.906258e+002, 3.725235e+002
2.911079e+002, 3.720064e+002
2.915900e+002, 3.714661e+002
2.920721e+002, 3.709468e+002
2.925542e+002, 3.704428e+002
2.930363e+002, 3.700093e+002
2.935185e+002, 3.697075e+002
2.940006e+002, 3.695425e+002
2.944827e+002, 3.695580e+002
2.949648e+002, 3.698467e+002
2.954469e+002, 3.703330e+002
2.959290e+002, 3.708927e+002
2.964112e+002, 3.715753e+002
2.968933e+002, 3.720677e+002
2.973754e+002, 3.717580e+002
2.978575e+002, 3.708582e+002
2.983396e+002, 3.701483e+002
2.988217e+002, 3.702098e+002
2.993039e+002, 3.706548e+002
2.997860e+002, 3.708096e+002
3.002681e+002, 3.706483e+002
3.007502e+002, 3.703335e+002
3.012323e+002, 3.698674e+002
3.017144e+002, 3.693596e+002
3.021966e+002, 3.690936e+002
3.026787e+002, 3.693758e+002
3.031608e+002, 3.698432e+002
3.036429e+002, 3.699810e+002
3.041250e+002, 3.698087e+002
3.046071e+002, 3.697246e+002
3.050893e+002, 3.703964e+002
3.055714e+002, 3.712991e+002
3.060535e+002, 3.715315e+002
3.065356e+002, 3.703454e+002
3.070177e+002, 3.688851e+002
3.074998e+002, 3.682641e+002
3.079820e+002, 3.683446e+002
3.084641e+002, 3.684312e+002
3.089462e+002, 3.678015e+002
3.094283e+002, 3.670576e+002
3.099104e+002, 3.669721e+002
3.103925e+002, 3.681938e+002
3.108747e+002, 3.692726e+002
3.113568e+002, 3.689131e+002
3.118389e+002, 3.675699e+002
3.123210e+002, 3.665150e+002
3.128031e+002, 3.666299e+002
3.132852e+002, 3.671215e+002
3.137674e+002, 3.673580e+002
3.142495e+002, 3.671409e+002
3.147316e+002, 3.669703e+002
3.152137e+002, 3.672323e+002
3.156958e+002, 3.676930e+002
3.161779e+002, 3.679525e+002
3.166601e+002, 3.677935e+002
3.171422e+002, 3.674478e+002
3.176243e+002, 3.669023e+002
3.181064e+002, 3.660818e+002
3.185885e+002, 3.656287e+002
3.190706e+002, 3.661506e+002
3.195528e+002, 3.670273e+002
3.200349e+002, 3.675538e+002
3.205170e+002, 3.672460e+002
3.209991e+002, 3.668479e+002
3.214812e+002, 3.664992e+002
3.219633e+002, 3.662065e+002
3.224455e+002, 3.661983e+002
3.229276e+002, 3.668298e+002
3.234097e+002, 3.675872e+002
3.238918e+002, 3.680851e+002
3.243739e+002, 3.682406e+002
3.248560e+002, 3.681606e+002
3.253382e+002, 3.676996e+002
3.258203e+002, 3.669320e+002
3.263024e+002, 3.663768e+002
3.267845e+002, 3.658836e+002
3.272666e+002, 3.657397e+002
3.277487e+002, 3.661127e+002
3.282309e+002, 3.680211e+002
3.287130e+002, 3.690326e+002
3.291951e+002, 3.685831e+002
3.296772e+002, 3.672526e+002
3.301593e+002, 3.664997e+002
3.306414e+002, 3.667059e+002
3.311236e+002, 3.670652e+002
3.316057e+002, 3.673310e+002
3.320878e+002, 3.675046e+002
3.325699e+002, 3.675724e+002
3.330520e+002, 3.674102e+002
3.335341e+002, 3.672271e+002
3.340163e+002, 3.673834e+002
3.344984e+002, 3.681876e+002
3.349805e+002, 3.687342e+002
3.354626e+002, 3.687357e+002
3.359447e+002, 3.681685e+002
3.364268e+002, 3.676579e+002
3.369090e+002, 3.671148e+002
3.373911e+002, 3.667610e+002
3.378732e+002, 3.668820e+002
3.383553e+002, 3.676037e+002
3.388374e+002, 3.682838e+002
3.393195e+002, 3.688363e+002
3.398017e+002, 3.692495e+002
3.402838e+002, 3.694512e+002
3.407659e+002, 3.693658e+002
3.412480e+002, 3.693080e+002
3.417301e+002, 3.695745e+002
3.422122e+002, 3.701788e+002
3.426944e+002, 3.705714e+002
3.431765e+002, 3.706894e+002
3.436586e+002, 3.705710e+002
3.441407e+002, 3.702104e+002
3.446228e+002, 3.696042e+002
3.451049e+002, 3.690532e+002
3.455871e+002, 3.687773e+002
3.460692e+002, 3.687264e+002
3.465513e+002, 3.686068e+002
3.470334e+002, 3.684001e+002
3.475155e+002, 3.682010e+002
3.479977e+002, 3.680557e+002
3.484798e+002, 3.679978e+002
3.489619e+002, 3.682043e+002
3.494440e+002, 3.690870e+002
3.499261e+002, 3.701678e+002
3.504082e+002, 3.703106e+002
3.508904e+002, 3.695137e+002
3.513725e+002, 3.686665e+002
3.518546e+002, 3.684379e+002
3.523367e+002, 3.687148e+002
3.528188e+002, 3.693476e+002
3.533009e+002, 3.707230e+002
3.537831e+002, 3.718834e+002
3.542652e+002, 3.713146e+002
3.547473e+002, 3.693984e+002
3.552294e+002, 3.678944e+002
3.557115e+002, 3.685216e+002
3.561936e+002, 3.698736e+002
3.566758e+002, 3.703800e+002
3.571579e+002, 3.695853e+002
3.576400e+002, 3.684742e+002
3.581221e+002, 3.674416e+002
3.586042e+002, 3.666140e+002
3.590863e+002, 3.662122e+002
3.595685e+002, 3.666898e+002
3.600506e+002, 3.673736e+002
3.605327e+002, 3.678668e+002
3.610148e+002, 3.681245e+002
3.614969e+002, 3.683110e+002
3.619790e+002, 3.684840e+002
3.624612e+002, 3.686205e+002
3.629433e+002, 3.686969e+002
3.634254e+002, 3.686208e+002
3.639075e+002, 3.685528e+002
3.643896e+002, 3.684912e+002
3.648717e+002, 3.684411e+002
3.653539e+002, 3.685190e+002
3.658360e+002, 3.690160e+002
3.663181e+002, 3.694528e+002
3.668002e+002, 3.695439e+002
3.672823e+002, 3.687756e+002
3.677644e+002, 3.682635e+002
3.682466e+002, 3.681747e+002
3.687287e+002, 3.683972e+002
3.692108e+002, 3.686210e+002
3.696929e+002, 3.690674e+002
3.701750e+002, 3.692884e+002
3.706571e+002, 3.690739e+002
3.711393e+002, 3.682247e+002
3.716214e+002, 3.676285e+002
3.721035e+002, 3.674401e+002
3.725856e+002, 3.673975e+002
3.730677e+002, 3.671475e+002
3.735498e+002, 3.665599e+002
3.740320e+002, 3.660724e+002
3.745141e+002, 3.658512e+002
3.749962e+002, 3.658725e+002
3.754783e+002, 3.656419e+002
3.759604e+002, 3.650425e+002
3.764425e+002, 3.644680e+002
3.769247e+002, 3.642458e+002
3.774068e+002, 3.644097e+002
3.778889e+002, 3.647167e+002
3.783710e+002, 3.651868e+002
3.788531e+002, 3.657296e+002
3.793352e+002, 3.661181e+002
3.798174e+002, 3.663357e+002
3.802995e+002, 3.665279e+002
3.807816e+002, 3.667643e+002
3.812637e+002, 3.670361e+002
3.817458e+002, 3.672860e+002
3.822279e+002, 3.674972e+002
3.827101e+002, 3.677248e+002
3.831922e+002, 3.680137e+002
3.836743e+002, 3.683706e+002
3.841564e+002, 3.688445e+002
3.846385e+002, 3.696959e+002
3.851206e+002, 3.705584e+002
3.856028e+002, 3.706450e+002
3.860849e+002, 3.699921e+002
3.865670e+002, 3.692898e+002
3.870491e+002, 3.689849e+002
3.875312e+002, 3.690125e+002
3.880133e+002, 3.693137e+002
3.884955e+002, 3.700488e+002
3.889776e+002, 3.707526e+002
3.894597e+002, 3.708358e+002
3.899418e+002, 3.705225e+002
3.904239e+002, 3.704458e+002
3.909060e+002, 3.711641e+002
3.913882e+002, 3.721078e+002
3.918703e+002, 3.728537e+002
3.923524e+002, 3.733454e+002
3.928345e+002, 3.737109e+002
3.933166e+002, 3.738487e+002
3.937987e+002, 3.739442e+002
3.942809e+002, 3.742284e+002
3.947630e+002, 3.748303e+002
3.952451e+002, 3.755655e+002
3.957272e+002, 3.764938e+002
3.962093e+002, 3.775835e+002
3.966914e+002, 3.784393e+002
3.971736e+002, 3.787294e+002
3.976557e+002, 3.789218e+002
3.981378e+002, 3.793057e+002
3.986199e+002, 3.803777e+002
3.991020e+002, 3.810341e+002
3.995841e+002, 3.808791e+002
4.000663e+002, 3.803044e+002
4.005484e+002, 3.802706e+002
4.010305e+002, 3.812446e+002
4.015126e+002, 3.821720e+002
4.019947e+002, 3.826710e+002
4.024768e+002, 3.826268e+002
4.029590e+002, 3.827545e+002
4.034411e+002, 3.831406e+002
4.039232e+002, 3.836033e+002
4.044053e+002, 3.839184e+002
4.048874e+002, 3.840218e+002
4.053695e+002, 3.842387e+002
4.058517e+002, 3.847324e+002
4.063338e+002, 3.853778e+002
4.068159e+002, 3.855263e+002
4.072980e+002, 3.850659e+002
4.077801e+002, 3.846679e+002
4.082622e+002, 3.848579e+002
4.087444e+002, 3.855947e+002
4.092265e+002, 3.863577e+002
4.097086e+002, 3.871755e+002
4.101907e+002, 3.878133e+002
4.106728e+002, 3.877884e+002
4.111549e+002, 3.871870e+002
4.116371e+002, 3.865823e+002
4.121192e+002, 3.860949e+002
4.126013e+002, 3.858118e+002
4.130834e+002, 3.860583e+002
4.135655e+002, 3.868283e+002
4.140476e+002, 3.875753e+002
4.145298e+002, 3.878962e+002
4.150119e+002, 3.878822e+002
4.154940e+002, 3.876734e+002
4.159761e+002, 3.872393e+002
4.164582e+002, 3.867339e+002
4.169403e+002, 3.861577e+002
4.174225e+002, 3.856014e+002
4.179046e+002, 3.853280e+002
4.183867e+002, 3.858089e+002
4.188688e+002, 3.864099e+002
4.193509e+002, 3.865919e+002
4.198330e+002, 3.861702e+002
4.203152e+002, 3.860292e+002
4.207973e+002, 3.869215e+002
4.212794e+002, 3.881397e+002
4.217615e+002, 3.888701e+002
4.222436e+002, 3.882513e+002
4.227257e+002, 3.878272e+002
4.232079e+002, 3.881729e+002
4.236900e+002, 3.892100e+002
4.241721e+002, 3.898493e+002
4.246542e+002, 3.897104e+002
4.251363e+002, 3.893771e+002
4.256184e+002, 3.890927e+002
4.261006e+002, 3.886300e+002
4.265827e+002, 3.886572e+002
4.270648e+002, 3.894562e+002
4.275469e+002, 3.905981e+002
4.280290e+002, 3.912466e+002
4.285111e+002, 3.910819e+002
4.289933e+002, 3.911453e+002
4.294754e+002, 3.918580e+002
4.299575e+002, 3.931950e+002
4.304396e+002, 3.940967e+002
4.309217e+002, 3.944913e+002
4.314038e+002, 3.946767e+002
4.318860e+002, 3.948056e+002
4.323681e+002, 3.948763e+002
4.328502e+002, 3.953049e+002
4.333323e+002, 3.962812e+002
4.338144e+002, 3.974546e+002
4.342965e+002, 3.978492e+002
4.347787e+002, 3.975650e+002
4.352608e+002, 3.978785e+002
4.357429e+002, 4.001645e+002
4.362250e+002, 4.034488e+002
4.367071e+002, 4.056332e+002
4.371892e+002, 4.066313e+002
4.376714e+002, 4.066722e+002
4.381535e+002, 4.052489e+002
4.386356e+002, 4.031290e+002
4.391177e+002, 4.017032e+002
4.395998e+002, 4.019467e+002
4.400819e+002, 4.024313e+002
4.405641e+002, 4.018163e+002
4.410462e+002, 4.004154e+002
4.415283e+002, 3.993446e+002
4.420104e+002, 3.994040e+002
4.424925e+002, 3.998460e+002
4.429746e+002, 4.002091e+002
4.434568e+002, 4.004452e+002
4.439389e+002, 4.005505e+002
4.444210e+002, 4.001723e+002
4.449031e+002, 3.997740e+002
4.453852e+002, 3.999095e+002
4.458673e+002, 4.018317e+002
4.463495e+002, 4.030482e+002
4.468316e+002, 4.027184e+002
4.473137e+002, 4.009484e+002
4.477958e+002, 3.995466e+002
4.482779e+002, 3.985440e+002
4.487600e+002, 3.978877e+002
4.492422e+002, 3.975536e+002
4.497243e+002, 3.975303e+002
4.502064e+002, 3.979131e+002
4.506885e+002, 3.988706e+002
4.511706e+002, 4.001028e+002
4.516527e+002, 4.012148e+002
4.521349e+002, 4.023326e+002
4.526170e+002, 4.028613e+002
4.530991e+002, 4.024515e+002
4.535812e+002, 4.012954e+002
4.540633e+002, 4.004546e+002
4.545454e+002, 3.999209e+002
4.550276e+002, 3.997205e+002
4.555097e+002, 4.000912e+002
4.559918e+002, 4.008833e+002
4.564739e+002, 4.012675e+002
4.569560e+002, 4.010070e+002
4.574381e+002, 4.006530e+002
4.579203e+002, 4.008066e+002
4.584024e+002, 4.014490e+002
4.588845e+002, 4.025533e+002
4.593666e+002, 4.051402e+002
4.598488e+002, 4.075795e+002
4.603309e+002, 4.075197e+002
4.608130e+002, 4.050933e+002
4.612951e+002, 4.027885e+002
4.617772e+002, 4.022762e+002
4.622593e+002, 4.026641e+002
4.627415e+002, 4.032200e+002
4.632236e+002, 4.042199e+002
4.637057e+002, 4.045657e+002
4.641878e+002, 4.032946e+002
4.646699e+002, 4.011217e+002
4.651520e+002, 3.993944e+002
4.656342e+002, 3.987238e+002
4.661163e+002, 3.983441e+002
4.665984e+002, 3.979973e+002
4.670805e+002, 3.976495e+002
4.675626e+002, 3.976067e+002
4.680447e+002, 3.981585e+002
4.685269e+002, 3.987778e+002
4.690090e+002, 3.990892e+002
4.694911e+002, 3.988561e+002
4.699732e+002, 3.987730e+002
4.704553e+002, 3.988456e+002
4.709374e+002, 3.991026e+002
4.714196e+002, 3.997319e+002
4.719017e+002, 4.009050e+002
4.723838e+002, 4.017929e+002
4.728659e+002, 4.019480e+002
4.733480e+002, 4.014596e+002
4.738301e+002, 4.013268e+002
4.743123e+002, 4.015971e+002
4.747944e+002, 4.019174e+002
4.752765e+002, 4.019994e+002
4.757586e+002, 4.018627e+002
4.762407e+002, 4.015127e+002
4.767228e+002, 4.008332e+002
4.772050e+002, 4.002118e+002
4.776871e+002, 4.002999e+002
4.781692e+002, 4.009115e+002
4.786513e+002, 4.014623e+002
4.791334e+002, 4.017699e+002
4.796155e+002, 4.017896e+002
4.800977e+002, 4.012137e+002
4.805798e+002, 4.000572e+002
4.810619e+002, 3.993354e+002
4.815440e+002, 4.003304e+002
4.820261e+002, 4.016771e+002
4.825082e+002, 4.020888e+002
4.829904e+002, 4.003625e+002
4.834725e+002, 3.990451e+002
4.839546e+002, 3.993613e+002
4.844367e+002, 4.005562e+002
4.849188e+002, 4.010201e+002
4.854009e+002, 3.996806e+002
4.858831e+002, 3.984445e+002
4.863652e+002, 3.978939e+002
4.868473e+002, 3.980949e+002
4.873294e+002, 3.981092e+002
4.878115e+002, 3.978885e+002
4.882936e+002, 3.975392e+002
4.887758e+002, 3.971219e+002
4.892579e+002, 3.966174e+002
4.897400e+002, 3.960558e+002
4.902221e+002, 3.953345e+002
4.907042e+002, 3.946782e+002
4.911863e+002, 3.946556e+002
4.916685e+002, 3.953060e+002
4.921506e+002, 3.958660e+002
4.926327e+002, 3.959100e+002
4.931148e+002, 3.956419e+002
4.935969e+002, 3.958464e+002
4.940790e+002, 3.965218e+002
4.945612e+002, 3.971377e+002
4.950433e+002, 3.972690e+002
4.955254e+002, 3.970380e+002
4.960075e+002, 3.966401e+002
4.964896e+002, 3.960614e+002
4.969717e+002, 3.954829e+002
4.974539e+002, 3.949207e+002
4.979360e+002, 3.944919e+002
4.984181e+002, 3.944313e+002
4.989002e+002, 3.953355e+002
4.993823e+002, 3.961910e+002
4.998644e+002, 3.964345e+002
5.003466e+002, 3.960971e+002
5.008287e+002, 3.956083e+002
5.013108e+002, 3.948567e+002
5.017929e+002, 3.941720e+002
5.022750e+002, 3.937814e+002
5.027571e+002, 3.939987e+002
5.032393e+002, 3.939204e+002
5.037214e+002, 3.931187e+002
5.042035e+002, 3.922218e+002
5.046856e+002, 3.921395e+002
5.051677e+002, 3.935153e+002
5.056498e+002, 3.943888e+002
5.061320e+002, 3.942174e+002
5.066141e+002, 3.932335e+002
5.070962e+002, 3.927802e+002
5.075783e+002, 3.930013e+002
5.080604e+002, 3.931342e+002
5.085425e+002, 3.926245e+002
5.090247e+002, 3.915410e+002
5.095068e+002, 3.905571e+002
5.099889e+002, 3.896791e+002
5.104710e+002, 3.889859e+002
5.109531e+002, 3.886209e+002
5.114352e+002, 3.885226e+002
5.119174e+002, 3.885309e+002
5.123995e+002, 3.887094e+002
5.128816e+002, 3.888300e+002
5.133637e+002, 3.884595e+002
5.138458e+002, 3.877901e+002
5.143279e+002, 3.874354e+002
5.148101e+002, 3.882373e+002
5.152922e+002, 3.891057e+002
5.157743e+002, 3.891471e+002
5.162564e+002, 3.882045e+002
5.167385e+002, 3.874456e+002
5.172206e+002, 3.874314e+002
5.177028e+002, 3.876926e+002
5.181849e+002, 3.878516e+002
5.186670e+002, 3.878898e+002
5.191491e+002, 3.877662e+002
5.196312e+002, 3.872557e+002
5.201133e+002, 3.866193e+002
5.205955e+002, 3.864524e+002
5.210776e+002, 3.870464e+002
5.215597e+002, 3.875449e+002
5.220418e+002, 3.875863e+002
5.225239e+002, 3.872046e+002
5.230060e+002, 3.874010e+002
5.234882e+002, 3.883499e+002
5.239703e+002, 3.892303e+002
5.244524e+002, 3.891594e+002
5.249345e+002, 3.882655e+002
5.254166e+002, 3.880434e+002
5.258987e+002, 3.887804e+002
5.263809e+002, 3.897237e+002
5.268630e+002, 3.898736e+002
5.273451e+002, 3.894219e+002
5.278272e+002, 3.889663e+002
5.283093e+002, 3.886412e+002
5.287914e+002, 3.885099e+002
5.292736e+002, 3.887099e+002
5.297557e+002, 3.891935e+002
5.302378e+002, 3.897217e+002
5.307199e+002, 3.901386e+002
5.312020e+002, 3.905965e+002
5.316841e+002, 3.912621e+002
5.321663e+002, 3.922549e+002
5.326484e+002, 3.930338e+002
5.331305e+002, 3.933576e+002
5.336126e+002, 3.934667e+002
5.340947e+002, 3.935915e+002
5.345768e+002, 3.937452e+002
5.350590e+002, 3.939129e+002
5.355411e+002, 3.940915e+002
5.360232e+002, 3.942751e+002
5.365053e+002, 3.944279e+002
5.369874e+002, 3.944789e+002
5.374695e+002, 3.946501e+002
5.379517e+002, 3.950554e+002
5.384338e+002, 3.956714e+002
5.389159e+002, 3.961633e+002
5.393980e+002, 3.965019e+002
5.398801e+002, 3.968615e+002
5.403622e+002, 3.974649e+002
5.408444e+002, 3.982274e+002
5.413265e+002, 3.988184e+002
5.418086e+002, 3.991892e+002
5.422907e+002, 3.994360e+002
5.427728e+002, 3.996406e+002
5.432549e+002, 3.998123e+002
5.437371e+002, 3.999622e+002
5.442192e+002, 4.000134e+002
5.447013e+002, 4.001249e+002
5.451834e+002, 4.004659e+002
5.456655e+002, 4.009872e+002
5.461476e+002, 4.014639e+002
5.466298e+002, 4.017417e+002
5.471119e+002, 4.020088e+002
5.475940e+002, 4.024289e+002
5.480761e+002, 4.031390e+002
5.485582e+002, 4.034946e+002
5.490403e+002, 4.028564e+002
5.495225e+002, 4.022494e+002
5.500046e+002, 4.026167e+002
5.504867e+002, 4.047810e+002
5.509688e+002, 4.060294e+002
5.514509e+002, 4.057494e+002
5.519330e+002, 4.047116e+002
5.524152e+002, 4.046889e+002
5.528973e+002, 4.058124e+002
5.533794e+002, 4.068860e+002
5.538615e+002, 4.074547e+002
5.543436e+002, 4.076343e+002
5.548257e+002, 4.078159e+002
5.553079e+002, 4.079966e+002
5.557900e+002, 4.081104e+002
5.562721e+002, 4.080556e+002
5.567542e+002, 4.079189e+002
5.572363e+002, 4.078473e+002
5.577184e+002, 4.078694e+002
5.582006e+002, 4.079044e+002
5.586827e+002, 4.078195e+002
5.591648e+002, 4.077411e+002
5.596469e+002, 4.078277e+002
5.601290e+002, 4.083951e+002
5.606111e+002, 4.088518e+002
5.610933e+002, 4.089298e+002
5.615754e+002, 4.087469e+002
5.620575e+002, 4.086234e+002
5.625396e+002, 4.084431e+002
5.630217e+002, 4.084980e+002
5.635038e+002, 4.089875e+002
5.639860e+002, 4.099423e+002
5.644681e+002, 4.104471e+002
5.649502e+002, 4.102319e+002
5.654323e+002, 4.100659e+002
5.659144e+002, 4.106651e+002
5.663965e+002, 4.121192e+002
5.668787e+002, 4.128696e+002
5.673608e+002, 4.126572e+002
5.678429e+002, 4.122005e+002
5.683250e+002, 4.124205e+002
5.688071e+002, 4.132398e+002
5.692892e+002, 4.144160e+002
5.697714e+002, 4.162096e+002
5.702535e+002, 4.178682e+002
5.707356e+002, 4.181015e+002
5.712177e+002, 4.173055e+002
5.716998e+002, 4.167883e+002
5.721819e+002, 4.175244e+002
5.726641e+002, 4.185361e+002
5.731462e+002, 4.191553e+002
5.736283e+002, 4.193372e+002
5.741104e+002, 4.194905e+002
5.745925e+002, 4.195818e+002
5.750746e+002, 4.197964e+002
5.755568e+002, 4.202950e+002
5.760389e+002, 4.214527e+002
5.765210e+002, 4.222067e+002
5.770031e+002, 4.223854e+002
5.774852e+002, 4.222973e+002
5.779673e+002, 4.223820e+002
5.784495e+002, 4.227490e+002
5.789316e+002, 4.228727e+002
5.794137e+002, 4.224647e+002
5.798958e+002, 4.219004e+002
5.803779e+002, 4.223080e+002
5.808600e+002, 4.236821e+002
5.813422e+002, 4.251419e+002
5.818243e+002, 4.262317e+002
5.823064e+002, 4.270696e+002
5.827885e+002, 4.278946e+002
5.832706e+002, 4.287036e+002
5.837527e+002, 4.293697e+002
5.842349e+002, 4.296653e+002
5.847170e+002, 4.298342e+002
5.851991e+002, 4.301736e+002
5.856812e+002, 4.308326e+002
5.861633e+002, 4.313310e+002
5.866454e+002, 4.310425e+002
5.871276e+002, 4.306244e+002
5.876097e+002, 4.308805e+002
5.880918e+002, 4.330751e+002
5.885739e+002, 4.345833e+002
5.890560e+002, 4.347301e+002
5.895381e+002, 4.340042e+002
5.900203e+002, 4.338499e+002
5.905024e+002, 4.345011e+002
5.909845e+002, 4.352442e+002
5.914666e+002, 4.359065e+002
5.919487e+002, 4.364710e+002
5.924308e+002, 4.365656e+002
5.929130e+002, 4.361186e+002
5.933951e+002, 4.358120e+002
5.938772e+002, 4.362758e+002
5.943593e+002, 4.373006e+002
5.948414e+002, 4.382947e+002
5.953235e+002, 4.391873e+002
5.958057e+002, 4.400555e+002
5.962878e+002, 4.413477e+002
5.967699e+002, 4.425512e+002
5.972520e+002, 4.428156e+002
5.977341e+002, 4.411431e+002
5.982162e+002, 4.395809e+002
5.986984e+002, 4.393582e+002
5.991805e+002, 4.399304e+002
5.996626e+002, 4.401266e+002
6.001447e+002, 4.390977e+002
6.006268e+002, 4.383143e+002
6.011089e+002, 4.383548e+002
6.015911e+002, 4.391100e+002
6.020732e+002, 4.394176e+002
6.025553e+002, 4.393329e+002
6.030374e+002, 4.386974e+002
6.035195e+002, 4.370754e+002
6.040016e+002, 4.343925e+002
6.044838e+002, 4.331745e+002
6.049659e+002, 4.336458e+002
6.054480e+002, 4.345752e+002
6.059301e+002, 4.348018e+002
6.064122e+002, 4.344519e+002
6.068943e+002, 4.339336e+002
6.073765e+002, 4.332714e+002
6.078586e+002, 4.326200e+002
6.083407e+002, 4.323420e+002
6.088228e+002, 4.321643e+002
6.093049e+002, 4.315977e+002
6.097870e+002, 4.296277e+002
6.102692e+002, 4.280157e+002
6.107513e+002, 4.278999e+002
6.112334e+002, 4.288820e+002
6.117155e+002, 4.295138e+002
6.121976e+002, 4.293314e+002
6.126797e+002, 4.289257e+002
6.131619e+002, 4.284732e+002
6.136440e+002, 4.279691e+002
6.141261e+002, 4.273560e+002
6.146082e+002, 4.264977e+002
6.150903e+002, 4.257665e+002
6.155724e+002, 4.253818e+002
6.160546e+002, 4.253433e+002
6.165367e+002, 4.257019e+002
6.170188e+002, 4.265443e+002
6.175009e+002, 4.274191e+002
6.179830e+002, 4.276948e+002
6.184651e+002, 4.275723e+002
6.189473e+002, 4.275709e+002
6.194294e+002, 4.276845e+002
6.199115e+002, 4.282685e+002
6.203936e+002, 4.300372e+002
6.208757e+002, 4.324987e+002
6.213578e+002, 4.346614e+002
6.218400e+002, 4.368948e+002
6.223221e+002, 4.380039e+002
6.228042e+002, 4.366837e+002
6.232863e+002, 4.334106e+002
6.237684e+002, 4.313542e+002
6.242505e+002, 4.313038e+002
6.247327e+002, 4.319804e+002
6.252148e+002, 4.330924e+002
6.256969e+002, 4.346920e+002
6.261790e+002, 4.361059e+002
6.266611e+002, 4.373690e+002
6.271432e+002, 4.383104e+002
6.276254e+002, 4.384994e+002
6.281075e+002, 4.380526e+002
6.285896e+002, 4.384920e+002
6.290717e+002, 4.400823e+002
6.295538e+002, 4.418524e+002
6.300359e+002, 4.425948e+002
6.305181e+002, 4.427143e+002
6.310002e+002, 4.430964e+002
6.314823e+002, 4.442103e+002
6.319644e+002, 4.453270e+002
6.324465e+002, 4.459828e+002
6.329286e+002, 4.462778e+002
6.334108e+002, 4.463975e+002
6.338929e+002, 4.461544e+002
6.343750e+002, 4.460009e+002
6.348571e+002, 4.460949e+002
6.353392e+002, 4.464051e+002
6.358214e+002, 4.467328e+002
6.363035e+002, 4.471779e+002
6.367856e+002, 4.474420e+002
6.372677e+002, 4.473569e+002
6.377498e+002, 4.469120e+002
6.382319e+002, 4.464389e+002
6.387141e+002, 4.459188e+002
6.391962e+002, 4.454086e+002
6.396783e+002, 4.450519e+002
6.401604e+002, 4.447515e+002
6.406425e+002, 4.442213e+002
6.411246e+002, 4.434517e+002
6.416068e+002, 4.423500e+002
6.420889e+002, 4.405631e+002
6.425710e+002, 4.384912e+002
6.430531e+002, 4.367135e+002
6.435352e+002, 4.354171e+002
6.440173e+002, 4.343907e+002
6.444995e+002, 4.336977e+002
6.449816e+002, 4.331866e+002
6.454637e+002, 4.325690e+002
6.459458e+002, 4.316559e+002
6.464279e+002, 4.308124e+002
6.469100e+002, 4.301369e+002
6.473922e+002, 4.295572e+002
6.478743e+002, 4.287932e+002
6.483564e+002, 4.277299e+002
6.488385e+002, 4.268112e+002
6.493206e+002, 4.263010e+002
6.498027e+002, 4.260850e+002
6.502849e+002, 4.256902e+002
6.507670e+002, 4.251199e+002
6.512491e+002, 4.243792e+002
6.517312e+002, 4.230460e+002
6.522133e+002, 4.217403e+002
6.526954e+002, 4.215910e+002
6.531776e+002, 4.228178e+002
6.536597e+002, 4.238597e+002
6.541418e+002, 4.236815e+002
6.546239e+002, 4.229767e+002
6.551060e+002, 4.223792e+002
6.555881e+002, 4.221932e+002
6.560703e+002, 4.217732e+002
6.565524e+002, 4.205775e+002
6.570345e+002, 4.193250e+002
6.575166e+002, 4.189529e+002
6.579987e+002, 4.198880e+002
6.584808e+002, 4.204927e+002
6.589630e+002, 4.205117e+002
6.594451e+002, 4.200762e+002
6.599272e+002, 4.193096e+002
6.604093e+002, 4.182348e+002
6.608914e+002, 4.174903e+002
6.613735e+002, 4.175212e+002
6.618557e+002, 4.178875e+002
6.623378e+002, 4.178596e+002
6.628199e+002, 4.175266e+002
6.633020e+002, 4.172440e+002
6.637841e+002, 4.172239e+002
6.642662e+002, 4.173377e+002
6.647484e+002, 4.175428e+002
6.652305e+002, 4.178370e+002
6.657126e+002, 4.180847e+002
6.661947e+002, 4.179801e+002
6.666768e+002, 4.180530e+002
6.671589e+002, 4.187098e+002
6.676411e+002, 4.203042e+002
6.681232e+002, 4.209091e+002
6.686053e+002, 4.201289e+002
6.690874e+002, 4.189824e+002
6.695695e+002, 4.183655e+002
6.700516e+002, 4.182503e+002
6.705338e+002, 4.183144e+002
6.710159e+002, 4.185396e+002
6.714980e+002, 4.188181e+002
6.719801e+002, 4.191587e+002
6.724622e+002, 4.194406e+002
6.729443e+002, 4.193507e+002
6.734265e+002, 4.185775e+002
6.739086e+002, 4.177997e+002
6.743907e+002, 4.176576e+002
6.748728e+002, 4.178246e+002
6.753549e+002, 4.176755e+002
6.758370e+002, 4.166084e+002
6.763192e+002, 4.157220e+002
6.768013e+002, 4.153797e+002
6.772834e+002, 4.154739e+002
6.777655e+002, 4.156586e+002
6.782476e+002, 4.160185e+002
6.787297e+002, 4.162805e+002
6.792119e+002, 4.162773e+002
6.796940e+002, 4.160772e+002
6.801761e+002, 4.161104e+002
6.806582e+002, 4.163734e+002
6.811403e+002, 4.167021e+002
6.816224e+002, 4.170186e+002
6.821046e+002, 4.172916e+002
6.825867e+002, 4.174174e+002
6.830688e+002, 4.173825e+002
6.835509e+002, 4.174034e+002
6.840330e+002, 4.176114e+002
6.845151e+002, 4.179301e+002
6.849973e+002, 4.182864e+002
6.854794e+002, 4.186362e+002
6.859615e+002, 4.191335e+002
6.864436e+002, 4.202900e+002
6.869257e+002, 4.212953e+002
6.874078e+002, 4.213997e+002
6.878900e+002, 4.201293e+002
6.883721e+002, 4.194194e+002
6.888542e+002, 4.195914e+002
6.893363e+002, 4.200593e+002
6.898184e+002, 4.198787e+002
6.903005e+002, 4.191365e+002
6.907827e+002, 4.185123e+002
6.912648e+002, 4.181654e+002
6.917469e+002, 4.180607e+002
6.922290e+002, 4.184600e+002
6.927111e+002, 4.190569e+002
6.931932e+002, 4.191523e+002
6.936754e+002, 4.175851e+002
6.941575e+002, 4.162773e+002
6.946396e+002, 4.164869e+002
6.951217e+002, 4.177870e+002
6.956038e+002, 4.185785e+002
6.960859e+002, 4.182615e+002
6.965681e+002, 4.178125e+002
6.970502e+002, 4.175041e+002
6.975323e+002, 4.173010e+002
6.980144e+002, 4.166875e+002
6.984965e+002, 4.154780e+002
6.989786e+002, 4.147067e+002
6.994608e+002, 4.153569e+002
6.999429e+002, 4.169853e+002
7.004250e+002, 4.176632e+002
7.009071e+002, 4.174267e+002
7.013892e+002, 4.171214e+002
7.018713e+002, 4.175583e+002
7.023535e+002, 4.181761e+002
7.028356e+002, 4.182814e+002
7.033177e+002, 4.177075e+002
7.037998e+002, 4.172686e+002
7.042819e+002, 4.173314e+002
7.047640e+002, 4.176109e+002
7.052462e+002, 4.178865e+002
7.057283e+002, 4.180742e+002
7.062104e+002, 4.183648e+002
7.066925e+002, 4.187218e+002
7.071746e+002, 4.192031e+002
7.076567e+002, 4.199802e+002
7.081389e+002, 4.210656e+002
7.086210e+002, 4.218040e+002
7.091031e+002, 4.220631e+002
7.095852e+002, 4.220686e+002
7.100673e+002, 4.221126e+002
7.105494e+002, 4.221474e+002
7.110316e+002, 4.220551e+002
7.115137e+002, 4.217773e+002
7.119958e+002, 4.214042e+002
7.124779e+002, 4.208240e+002
7.129600e+002, 4.202229e+002
7.134421e+002, 4.199512e+002
7.139243e+002, 4.205239e+002
7.144064e+002, 4.209469e+002
7.148885e+002, 4.208627e+002
7.153706e+002, 4.205027e+002
7.158527e+002, 4.206199e+002
7.163348e+002, 4.213487e+002
7.168170e+002, 4.221043e+002
7.172991e+002, 4.227426e+002
7.177812e+002, 4.232246e+002
7.182633e+002, 4.232932e+002
7.187454e+002, 4.229877e+002
7.192275e+002, 4.227606e+002
7.197097e+002, 4.230958e+002
7.201918e+002, 4.234936e+002
7.206739e+002, 4.231864e+002
7.211560e+002, 4.222808e+002
7.216381e+002, 4.218022e+002
7.221202e+002, 4.228296e+002
7.226024e+002, 4.238991e+002
7.230845e+002, 4.240280e+002
7.235666e+002, 4.229777e+002
7.240487e+002, 4.227557e+002
7.245308e+002, 4.238995e+002
7.250129e+002, 4.250519e+002
7.254951e+002, 4.252810e+002
7.259772e+002, 4.245475e+002
7.264593e+002, 4.242059e+002
7.269414e+002, 4.242856e+002
7.274235e+002, 4.246036e+002
7.279056e+002, 4.253517e+002
7.283878e+002, 4.261276e+002
7.288699e+002, 4.258769e+002
7.293520e+002, 4.242285e+002
7.298341e+002, 4.231159e+002
7.303162e+002, 4.244928e+002
7.307983e+002, 4.266450e+002
7.312805e+002, 4.279149e+002
7.317626e+002, 4.273667e+002
7.322447e+002, 4.270704e+002
7.327268e+002, 4.274886e+002
7.332089e+002, 4.279597e+002
7.336910e+002, 4.275860e+002
7.341732e+002, 4.260525e+002
7.346553e+002, 4.252792e+002
7.351374e+002, 4.255797e+002
7.356195e+002, 4.265219e+002
7.361016e+002, 4.278124e+002
7.365837e+002, 4.292453e+002
7.370659e+002, 4.300509e+002
7.375480e+002, 4.297054e+002
7.380301e+002, 4.291996e+002
7.385122e+002, 4.295675e+002
7.389943e+002, 4.303369e+002
7.394764e+002, 4.306975e+002
7.399586e+002, 4.298429e+002
7.404407e+002, 4.291984e+002
7.409228e+002, 4.294334e+002
7.414049e+002, 4.300729e+002
7.418870e+002, 4.299892e+002
7.423691e+002, 4.288922e+002
7.428513e+002, 4.279723e+002
7.433334e+002, 4.275090e+002
7.438155e+002, 4.274634e+002
7.442976e+002, 4.278855e+002
7.447797e+002, 4.287202e+002
7.452618e+002, 4.294394e+002
7.457440e+002, 4.297896e+002
7.462261e+002, 4.298948e+002
7.467082e+002, 4.297518e+002
7.471903e+002, 4.294489e+002
7.476724e+002, 4.293142e+002
7.481545e+002, 4.296873e+002
7.486367e+002, 4.300500e+002
7.491188e+002, 4.300960e+002
7.496009e+002, 4.298591e+002
7.500830e+002, 4.298846e+002
7.505651e+002, 4.302253e+002
7.510472e+002, 4.307263e+002
7.515294e+002, 4.314771e+002
7.520115e+002, 4.323648e+002
7.524936e+002, 4.324281e+002
7.529757e+002, 4.316754e+002
7.534578e+002, 4.308836e+002
7.539399e+002, 4.304986e+002
7.544221e+002, 4.304618e+002
7.549042e+002, 4.308065e+002
7.553863e+002, 4.315107e+002
7.558684e+002, 4.322032e+002
7.563505e+002, 4.327608e+002
7.568326e+002, 4.332044e+002
7.573148e+002, 4.334893e+002
7.577969e+002, 4.335515e+002
7.582790e+002, 4.338596e+002
7.587611e+002, 4.346852e+002
7.592432e+002, 4.353159e+002
7.597253e+002, 4.350898e+002
7.602075e+002, 4.339995e+002
7.606896e+002, 4.337885e+002
7.611717e+002, 4.345553e+002
7.616538e+002, 4.353319e+002
7.621359e+002, 4.351133e+002
7.626180e+002, 4.344113e+002
7.631002e+002, 4.340317e+002
7.635823e+002, 4.340992e+002
7.640644e+002, 4.343056e+002
7.645465e+002, 4.346573e+002
7.650286e+002, 4.349851e+002
7.655107e+002, 4.351501e+002
7.659929e+002, 4.351191e+002
7.664750e+002, 4.349406e+002
7.669571e+002, 4.343791e+002
7.674392e+002, 4.339811e+002
7.679213e+002, 4.343950e+002
7.684034e+002, 4.356368e+002
7.688856e+002, 4.364731e+002
7.693677e+002, 4.367615e+002
7.698498e+002, 4.368338e+002
7.703319e+002, 4.369156e+002
7.708140e+002, 4.370545e+002
7.712961e+002, 4.374044e+002
7.717783e+002, 4.381148e+002
7.722604e+002, 4.386078e+002
7.727425e+002, 4.384976e+002
7.732246e+002, 4.380566e+002
7.737067e+002, 4.375539e+002
7.741888e+002, 4.367345e+002
7.746710e+002, 4.363653e+002
7.751531e+002, 4.366798e+002
7.756352e+002, 4.371802e+002
7.761173e+002, 4.371571e+002
7.765994e+002, 4.366148e+002
7.770815e+002, 4.364673e+002
7.775637e+002, 4.369059e+002
7.780458e+002, 4.375614e+002
7.785279e+002, 4.381948e+002
7.790100e+002, 4.386845e+002
7.794921e+002, 4.386949e+002
7.799742e+002, 4.375832e+002
7.804564e+002, 4.370918e+002
7.809385e+002, 4.389185e+002
7.814206e+002, 4.414643e+002
7.819027e+002, 4.424761e+002
7.823848e+002, 4.407219e+002
7.828669e+002, 4.395002e+002
7.833491e+002, 4.391907e+002
7.838312e+002, 4.393239e+002
7.843133e+002, 4.390732e+002
7.847954e+002, 4.384742e+002
7.852775e+002, 4.382829e+002
7.857596e+002, 4.387298e+002
7.862418e+002, 4.394864e+002
7.867239e+002, 4.405984e+002
7.872060e+002, 4.416484e+002
7.876881e+002, 4.418358e+002
7.881702e+002, 4.395788e+002
7.886523e+002, 4.382096e+002
7.891345e+002, 4.397664e+002
7.896166e+002, 4.427121e+002
7.900987e+002, 4.444301e+002
7.905808e+002, 4.444623e+002
7.910629e+002, 4.441215e+002
7.915450e+002, 4.434107e+002
7.920272e+002, 4.426364e+002
7.925093e+002, 4.424337e+002
7.929914e+002, 4.427435e+002
7.934735e+002, 4.431085e+002
7.939556e+002, 4.433568e+002
7.944377e+002, 4.436885e+002
7.949199e+002, 4.445842e+002
7.954020e+002, 4.456713e+002
7.958841e+002, 4.462533e+002
7.963662e+002, 4.453443e+002
7.968483e+002, 4.447634e+002
7.973304e+002, 4.452501e+002
7.978126e+002, 4.462550e+002
7.982947e+002, 4.468350e+002
7.987768e+002, 4.468282e+002
7.992589e+002, 4.468847e+002
7.997410e+002, 4.471693e+002
8.002231e+002, 4.474974e+002
8.007053e+002, 4.475368e+002
8.011874e+002, 4.473297e+002
8.016695e+002, 4.470075e+002
8.021516e+002, 4.465393e+002
8.026337e+002, 4.461385e+002
8.031158e+002, 4.461057e+002
8.035980e+002, 4.462619e+002
8.040801e+002, 4.462834e+002
8.045622e+002, 4.462134e+002
8.050443e+002, 4.458135e+002
8.055264e+002, 4.445501e+002
8.060085e+002, 4.432065e+002
8.064907e+002, 4.434740e+002
8.069728e+002, 4.457077e+002
8.074549e+002, 4.472895e+002
8.079370e+002, 4.475630e+002
8.084191e+002, 4.470899e+002
8.089012e+002, 4.464387e+002
8.093834e+002, 4.457775e+002
8.098655e+002, 4.455970e+002
8.103476e+002, 4.463033e+002
8.108297e+002, 4.471942e+002
8.113118e+002, 4.481597e+002
8.117939e+002, 4.489557e+002
8.122761e+002, 4.491285e+002
8.127582e+002, 4.476770e+002
8.132403e+002, 4.471100e+002
8.137224e+002, 4.481339e+002
8.142045e+002, 4.497629e+002
8.146866e+002, 4.500156e+002
8.151688e+002, 4.489278e+002
8.156509e+002, 4.482235e+002
8.161330e+002, 4.484249e+002
8.166151e+002, 4.489402e+002
8.170972e+002, 4.490088e+002
8.175793e+002, 4.488473e+002
8.180615e+002, 4.488652e+002
8.185436e+002, 4.494038e+002
8.190257e+002, 4.498651e+002
8.195078e+002, 4.499275e+002
8.199899e+002, 4.498272e+002
8.204720e+002, 4.499926e+002
8.209542e+002, 4.507490e+002
8.214363e+002, 4.507617e+002
8.219184e+002, 4.495279e+002
8.224005e+002, 4.480778e+002
8.228826e+002, 4.483281e+002
8.233647e+002, 4.498752e+002
8.238469e+002, 4.509237e+002
8.243290e+002, 4.509778e+002
8.248111e+002, 4.506012e+002
8.252932e+002, 4.500088e+002
8.257753e+002, 4.493947e+002
8.262574e+002, 4.490353e+002
8.267396e+002, 4.490858e+002
8.272217e+002, 4.492803e+002
8.277038e+002, 4.494965e+002
8.281859e+002, 4.499212e+002
8.286681e+002, 4.510045e+002
8.291502e+002, 4.529130e+002
8.296323e+002, 4.537849e+002
8.301144e+002, 4.531479e+002
8.305966e+002, 4.522130e+002
8.310787e+002, 4.526513e+002
8.315608e+002, 4.538165e+002
8.320429e+002, 4.543930e+002
8.325250e+002, 4.538419e+002
8.330071e+002, 4.533423e+002
8.334893e+002, 4.535783e+002
8.339714e+002, 4.541014e+002
8.344535e+002, 4.544576e+002
8.349356e+002, 4.546701e+002
8.354177e+002, 4.545752e+002
8.358998e+002, 4.539872e+002
8.363820e+002, 4.534609e+002
8.368641e+002, 4.537603e+002
8.373462e+002, 4.547373e+002
8.378283e+002, 4.553108e+002
8.383104e+002, 4.553419e+002
8.387925e+002, 4.551966e+002
8.392747e+002, 4.550525e+002
8.397568e+002, 4.549804e+002
8.402389e+002, 4.550472e+002
8.407210e+002, 4.552555e+002
8.412031e+002, 4.556154e+002
8.416852e+002, 4.563457e+002
8.421674e+002, 4.569965e+002
8.426495e+002, 4.572555e+002
8.431316e+002, 4.570558e+002
8.436137e+002, 4.567573e+002
8.440958e+002, 4.563122e+002
8.445779e+002, 4.559818e+002
8.450601e+002, 4.560832e+002
8.455422e+002, 4.564394e+002
8.460243e+002, 4.568128e+002
8.465064e+002, 4.571910e+002
8.469885e+002, 4.573262e+002
8.474706e+002, 4.569477e+002
8.479528e+002, 4.564247e+002
8.484349e+002, 4.559702e+002
8.489170e+002, 4.556006e+002
8.493991e+002, 4.553721e+002
8.498812e+002, 4.552943e+002
8.503633e+002, 4.553496e+002
8.508455e+002, 4.553131e+002
8.513276e+002, 4.553566e+002
8.518097e+002, 4.567367e+002
8.522918e+002, 4.593449e+002
8.527739e+002, 4.616948e+002
8.532560e+002, 4.629890e+002
8.537382e+002, 4.634532e+002
8.542203e+002, 4.631597e+002
8.547024e+002, 4.621437e+002
8.551845e+002, 4.607635e+002
8.556666e+002, 4.584651e+002
8.561487e+002, 4.565785e+002
8.566309e+002, 4.555485e+002
8.571130e+002, 4.552940e+002
8.575951e+002, 4.554006e+002
8.580772e+002, 4.558881e+002
8.585593e+002, 4.562706e+002
8.590414e+002, 4.562390e+002
8.595236e+002, 4.560387e+002
8.600057e+002, 4.560556e+002
8.604878e+002, 4.562140e+002
8.609699e+002, 4.562571e+002
8.614520e+002, 4.557871e+002
8.619341e+002, 4.555073e+002
8.624163e+002, 4.557745e+002
8.628984e+002, 4.564031e+002
8.633805e+002, 4.569675e+002
8.638626e+002, 4.574917e+002
8.643447e+002, 4.578545e+002
8.648268e+002, 4.580303e+002
8.653090e+002, 4.580109e+002
8.657911e+002, 4.575861e+002
8.662732e+002, 4.569336e+002
8.667553e+002, 4.566133e+002
8.672374e+002, 4.570239e+002
8.677195e+002, 4.575160e+002
8.682017e+002, 4.578873e+002
8.686838e+002, 4.580544e+002
8.691659e+002, 4.578068e+002
8.696480e+002, 4.565992e+002
8.701301e+002, 4.561598e+002
8.706122e+002, 4.569666e+002
8.710944e+002, 4.580770e+002
8.715765e+002, 4.580767e+002
8.720586e+002, 4.571508e+002
8.725407e+002, 4.562968e+002
8.730228e+002, 4.556758e+002
8.735049e+002, 4.552824e+002
8.739871e+002, 4.550538e+002
8.744692e+002, 4.550800e+002
8.749513e+002, 4.555341e+002
8.754334e+002, 4.568195e+002
8.759155e+002, 4.575935e+002
8.763976e+002, 4.574870e+002
8.768798e+002, 4.571817e+002
8.773619e+002, 4.571816e+002
8.778440e+002, 4.574938e+002
8.783261e+002, 4.579581e+002
8.788082e+002, 4.585995e+002
8.792903e+002, 4.590225e+002
8.797725e+002, 4.587904e+002
8.802546e+002, 4.582000e+002
8.807367e+002, 4.574118e+002
8.812188e+002, 4.564388e+002
8.817009e+002, 4.561046e+002
8.821830e+002, 4.573026e+002
8.826652e+002, 4.586396e+002
8.831473e+002, 4.594670e+002
8.836294e+002, 4.598028e+002
8.841115e+002, 4.600026e+002
8.845936e+002, 4.600331e+002
8.850757e+002, 4.601552e+002
8.855579e+002, 4.605537e+002
8.860400e+002, 4.611210e+002
8.865221e+002, 4.617980e+002
8.870042e+002, 4.624980e+002
8.874863e+002, 4.628951e+002
8.879684e+002, 4.623859e+002
8.884506e+002, 4.619920e+002
8.889327e+002, 4.623325e+002
8.894148e+002, 4.631447e+002
8.898969e+002, 4.635280e+002
8.903790e+002, 4.633407e+002
8.908611e+002, 4.631984e+002
8.913433e+002, 4.632272e+002
8.918254e+002, 4.634507e+002
8.923075e+002, 4.639820e+002
8.927896e+002, 4.647576e+002
8.932717e+002, 4.655910e+002
8.937538e+002, 4.666121e+002
8.942360e+002, 4.673930e+002
8.947181e+002, 4.674452e+002
8.952002e+002, 4.672010e+002
8.956823e+002, 4.673043e+002
8.961644e+002, 4.679791e+002
8.966465e+002, 4.685443e+002
8.971287e+002, 4.689016e+002
8.976108e+002, 4.692580e+002
8.980929e+002, 4.699076e+002
8.985750e+002, 4.707758e+002
8.990571e+002, 4.715131e+002
8.995392e+002, 4.720314e+002
9.000214e+002, 4.727541e+002
9.005035e+002, 4.742432e+002
9.009856e+002, 4.759149e+002
9.014677e+002, 4.772316e+002
9.019498e+002, 4.779146e+002
9.024319e+002, 4.789431e+002
9.029141e+002, 4.805591e+002
9.033962e+002, 4.820962e+002
9.038783e+002, 4.831768e+002
9.043604e+002, 4.838139e+002
9.048425e+002, 4.839794e+002
9.053246e+002, 4.837159e+002
9.058068e+002, 4.837323e+002
9.062889e+002, 4.848761e+002
9.067710e+002, 4.861904e+002
9.072531e+002, 4.869442e+002
9.077352e+002, 4.871561e+002
9.082173e+002, 4.872560e+002
9.086995e+002, 4.871527e+002
9.091816e+002, 4.872165e+002
9.096637e+002, 4.876157e+002
9.101458e+002, 4.882213e+002
9.106279e+002, 4.885911e+002
9.111100e+002, 4.887581e+002
9.115922e+002, 4.890006e+002
9.120743e+002, 4.894046e+002
9.125564e+002, 4.899658e+002
9.130385e+002, 4.909886e+002
9.135206e+002, 4.920898e+002
9.140027e+002, 4.926294e+002
9.144849e+002, 4.918294e+002
9.149670e+002, 4.912946e+002
9.154491e+002, 4.911505e+002
9.159312e+002, 4.912981e+002
9.164133e+002, 4.917164e+002
9.168954e+002, 4.923798e+002
9.173776e+002, 4.928047e+002
9.178597e+002, 4.929085e+002
9.183418e+002, 4.929330e+002
9.188239e+002, 4.928035e+002
9.193060e+002, 4.928830e+002
9.197881e+002, 4.937940e+002
9.202703e+002, 4.959649e+002
9.207524e+002, 4.972026e+002
9.212345e+002, 4.963840e+002
9.217166e+002, 4.956411e+002
9.221987e+002, 4.962680e+002
9.226808e+002, 4.981723e+002
9.231630e+002, 4.995053e+002
9.236451e+002, 5.002813e+002
9.241272e+002, 5.010177e+002
9.246093e+002, 5.019220e+002
9.250914e+002, 5.030723e+002
9.255735e+002, 5.046855e+002
9.260557e+002, 5.066509e+002
9.265378e+002, 5.085093e+002
9.270199e+002, 5.099868e+002
9.275020e+002, 5.115245e+002
9.279841e+002, 5.131581e+002
9.284662e+002, 5.149581e+002
9.289484e+002, 5.172114e+002
9.294305e+002, 5.198901e+002
9.299126e+002, 5.224890e+002
9.303947e+002, 5.248386e+002
9.308768e+002, 5.270035e+002
9.313589e+002, 5.289867e+002
9.318411e+002, 5.308191e+002
9.323232e+002, 5.325009e+002
9.328053e+002, 5.336644e+002
9.332874e+002, 5.353580e+002
9.337695e+002, 5.381319e+002
9.342516e+002, 5.408717e+002
9.347338e+002, 5.422206e+002
9.352159e+002, 5.422653e+002
9.356980e+002, 5.432829e+002
9.361801e+002, 5.454587e+002
9.366622e+002, 5.476564e+002
9.371443e+002, 5.488742e+002
9.376265e+002, 5.496693e+002
9.381086e+002, 5.503719e+002
9.385907e+002, 5.510150e+002
9.390728e+002, 5.523242e+002
9.395549e+002, 5.549230e+002
9.400370e+002, 5.573834e+002
9.405192e+002, 5.590890e+002
9.410013e+002, 5.602157e+002
9.414834e+002, 5.615798e+002
9.419655e+002, 5.631708e+002
9.424476e+002, 5.647819e+002
9.429297e+002, 5.663055e+002
9.434119e+002, 5.678276e+002
9.438940e+002, 5.694661e+002
9.443761e+002, 5.711640e+002
9.448582e+002, 5.727872e+002
9.453403e+002, 5.737003e+002
9.458224e+002, 5.755753e+002
9.463046e+002, 5.789588e+002
9.467867e+002, 5.828376e+002
9.472688e+002, 5.854208e+002
9.477509e+002, 5.870479e+002
9.482330e+002, 5.898696e+002
9.487151e+002, 5.943585e+002
9.491973e+002, 5.989269e+002
9.496794e+002, 6.018486e+002
9.501615e+002, 6.045203e+002
9.506436e+002, 6.083124e+002
9.511257e+002, 6.136560e+002
9.516078e+002, 6.187090e+002
9.520900e+002, 6.233676e+002
9.525721e+002, 6.278737e+002
9.530542e+002, 6.323444e+002
9.535363e+002, 6.367810e+002
9.540184e+002, 6.414439e+002
9.545005e+002, 6.461709e+002
9.549827e+002, 6.501628e+002
9.554648e+002, 6.521197e+002
9.559469e+002, 6.540380e+002
9.564290e+002, 6.573253e+002
9.569111e+002, 6.615583e+002
9.573932e+002, 6.652948e+002
9.578754e+002, 6.683909e+002
9.583575e+002, 6.712682e+002
9.588396e+002, 6.738981e+002
9.593217e+002, 6.764706e+002
9.598038e+002, 6.792574e+002
9.602859e+002, 6.821837e+002
9.607681e+002, 6.850254e+002
9.612502e+002, 6.877094e+002
9.617323e+002, 6.904037e+002
9.622144e+002, 6.928160e+002
9.626965e+002, 6.955521e+002
9.631786e+002, 6.992249e+002
9.636608e+002, 7.039786e+002
9.641429e+002, 7.085004e+002
9.646250e+002, 7.126304e+002
9.651071e+002, 7.171158e+002
9.655892e+002, 7.226890e+002
9.660714e+002, 7.288642e+002
9.665535e+002, 7.351575e+002
9.670356e+002, 7.414211e+002
9.675177e+002, 7.472581e+002
9.679998e+002, 7.512907e+002
9.684819e+002, 7.561927e+002
9.689641e+002, 7.635496e+002
9.694462e+002, 7.723508e+002
9.699283e+002, 7.802988e+002
9.704104e+002, 7.873144e+002
9.708925e+002, 7.942913e+002
9.713746e+002, 8.014603e+002
9.718568e+002, 8.087816e+002
9.723389e+002, 8.168914e+002
9.728210e+002, 8.249935e+002
9.733031e+002, 8.318176e+002
9.737852e+002, 8.365790e+002
9.742673e+002, 8.414501e+002
9.747495e+002, 8.474140e+002
9.752316e+002, 8.530607e+002
9.757137e+002, 8.572628e+002
9.761958e+002, 8.600499e+002
9.766779e+002, 8.636147e+002
9.771600e+002, 8.679519e+002
9.776422e+002, 8.715434e+002
9.781243e+002, 8.732620e+002
9.786064e+002, 8.739183e+002
9.790885e+002, 8.741228e+002
9.795706e+002, 8.739012e+002
9.800527e+002, 8.732142e+002
9.805349e+002, 8.718875e+002
9.810170e+002, 8.704887e+002
9.814991e+002, 8.693750e+002
9.819812e+002, 8.679401e+002
9.824633e+002, 8.648574e+002
9.829454e+002, 8.603739e+002
9.834276e+002, 8.553563e+002
9.839097e+002, 8.497143e+002
9.843918e+002, 8.444553e+002
9.848739e+002, 8.408483e+002
9.853560e+002, 8.375206e+002
9.858381e+002, 8.330555e+002
9.863203e+002, 8.271586e+002
9.868024e+002, 8.212049e+002
9.872845e+002, 8.152318e+002
9.877666e+002, 8.090721e+002
9.882487e+002, 8.024003e+002
9.887308e+002, 7.955402e+002
9.892130e+002, 7.890214e+002
9.896951e+002, 7.828810e+002
9.901772e+002, 7.769795e+002
9.906593e+002, 7.717531e+002
9.911414e+002, 7.661985e+002
9.916235e+002, 7.593598e+002
9.921057e+002, 7.521315e+002
9.925878e+002, 7.464867e+002
9.930699e+002, 7.425955e+002
9.935520e+002, 7.381600e+002
9.940341e+002, 7.326547e+002
9.945162e+002, 7.265974e+002
9.949984e+002, 7.200485e+002
9.954805e+002, 7.135522e+002
9.959626e+002, 7.079812e+002
9.964447e+002, 7.037959e+002
9.969268e+002, 6.990967e+002
9.974089e+002, 6.933356e+002
9.978911e+002, 6.874655e+002
9.983732e+002, 6.821329e+002
9.988553e+002, 6.772346e+002
9.993374e+002, 6.713517e+002
9.998195e+002, 6.646283e+002
1.000302e+003, 6.582629e+002
1.000784e+003, 6.531942e+002
1.001266e+003, 6.484366e+002
1.001748e+003, 6.432668e+002
1.002230e+003, 6.378270e+002
1.002712e+003, 6.325623e+002
1.003194e+003, 6.274959e+002
1.003676e+003, 6.226144e+002
1.004159e+003, 6.178577e+002
1.004641e+003, 6.133166e+002
1.005123e+003, 6.092472e+002
1.005605e+003, 6.053851e+002
1.006087e+003, 6.008666e+002
1.006569e+003, 5.953665e+002
1.007051e+003, 5.905880e+002
1.007533e+003, 5.881065e+002
1.008016e+003, 5.857526e+002
1.008498e+003, 5.820884e+002
1.008980e+003, 5.772362e+002
1.009462e+003, 5.730771e+002
1.009944e+003, 5.695906e+002
1.010426e+003, 5.666174e+002
1.010908e+003, 5.644429e+002
1.011390e+003, 5.623771e+002
1.011872e+003, 5.593659e+002
1.012355e+003, 5.558781e+002
1.012837e+003, 5.528416e+002
1.013319e+003, 5.508463e+002
1.013801e+003, 5.487862e+002
1.014283e+003, 5.463466e+002
1.014765e+003, 5.441441e+002
1.015247e+003, 5.430164e+002
1.015729e+003, 5.427526e+002
1.016211e+003, 5.423312e+002
1.016694e+003, 5.416683e+002
1.017176e+003, 5.405665e+002
1.017658e+003, 5.384037e+002
1.018140e+003, 5.361765e+002
1.018622e+003, 5.344907e+002
1.019104e+003, 5.333573e+002
1.019586e+003, 5.326323e+002
1.020068e+003, 5.324549e+002
1.020551e+003, 5.320543e+002
1.021033e+003, 5.310643e+002
1.021515e+003, 5.299440e+002
1.021997e+003, 5.294733e+002
1.022479e+003, 5.294283e+002
1.022961e+003, 5.294024e+002
1.023443e+003, 5.293113e+002
1.023925e+003, 5.291539e+002
1.024407e+003, 5.290026e+002
1.024890e+003, 5.287083e+002
1.025372e+003, 5.280701e+002
1.025854e+003, 5.270935e+002
1.026336e+003, 5.263729e+002
1.026818e+003, 5.259077e+002
1.027300e+003, 5.257126e+002
1.027782e+003, 5.261539e+002
1.028264e+003, 5.265513e+002
1.028746e+003, 5.262382e+002
1.029229e+003, 5.253989e+002
1.029711e+003, 5.247969e+002
1.030193e+003, 5.244973e+002
1.030675e+003, 5.244120e+002
1.031157e+003, 5.246140e+002
1.031639e+003, 5.248282e+002
1.032121e+003, 5.245776e+002
1.032603e+003, 5.240455e+002
1.033086e+003, 5.237270e+002
1.033568e+003, 5.237611e+002
1.034050e+003, 5.235421e+002
1.034532e+003, 5.226447e+002
1.035014e+003, 5.215546e+002
1.035496e+003, 5.204496e+002
1.035978e+003, 5.193674e+002
1.036460e+003, 5.186859e+002
1.036943e+003, 5.184102e+002
1.037425e+003, 5.183029e+002
1.037907e+003, 5.185741e+002
1.038389e+003, 5.185671e+002
1.038871e+003, 5.171957e+002
1.039353e+003, 5.152267e+002
1.039835e+003, 5.140281e+002
1.040317e+003, 5.141096e+002
1.040799e+003, 5.145614e+002
1.041281e+003, 5.156248e+002
1.041764e+003, 5.164538e+002
1.042246e+003, 5.160247e+002
1.042728e+003, 5.147472e+002
1.043210e+003, 5.135627e+002
1.043692e+003, 5.125394e+002
1.044174e+003, 5.118942e+002
1.044656e+003, 5.125862e+002
1.045138e+003, 5.126926e+002
1.045621e+003, 5.109030e+002
1.046103e+003, 5.081165e+002
1.046585e+003, 5.068940e+002
1.047067e+003, 5.072741e+002
1.047549e+003, 5.076152e+002
1.048031e+003, 5.075121e+002
1.048513e+003, 5.072574e+002
1.048995e+003, 5.071859e+002
1.049478e+003, 5.071137e+002
1.049960e+003, 5.067479e+002
1.050442e+003, 5.058376e+002
1.050924e+003, 5.055683e+002
1.051406e+003, 5.061918e+002
1.051888e+003, 5.068781e+002
1.052370e+003, 5.071680e+002
1.052852e+003, 5.071789e+002
1.053334e+003, 5.070103e+002
1.053817e+003, 5.068038e+002
1.054299e+003, 5.070471e+002
1.054781e+003, 5.087429e+002
1.055263e+003, 5.099222e+002
1.055745e+003, 5.098502e+002
1.056227e+003, 5.090679e+002
1.056709e+003, 5.078063e+002
1.057191e+003, 5.060393e+002
1.057673e+003, 5.059532e+002
1.058156e+003, 5.078005e+002
1.058638e+003, 5.094368e+002
1.059120e+003, 5.086104e+002
1.059602e+003, 5.072591e+002
1.060084e+003, 5.071551e+002
1.060566e+003, 5.082319e+002
1.061048e+003, 5.086904e+002
1.061530e+003, 5.082932e+002
1.062013e+003, 5.078112e+002
1.062495e+003, 5.073538e+002
1.062977e+003, 5.071014e+002
1.063459e+003, 5.074726e+002
1.063941e+003, 5.082271e+002
1.064423e+003, 5.089297e+002
1.064905e+003, 5.095119e+002
1.065387e+003, 5.099163e+002
1.065870e+003, 5.098548e+002
1.066352e+003, 5.098803e+002
1.066834e+003, 5.103336e+002
1.067316e+003, 5.111317e+002
1.067798e+003, 5.117357e+002
1.068280e+003, 5.121434e+002
1.068762e+003, 5.123626e+002
1.069244e+003, 5.120905e+002
1.069726e+003, 5.119618e+002
1.070208e+003, 5.127638e+002
1.070691e+003, 5.138218e+002
1.071173e+003, 5.139532e+002
1.071655e+003, 5.127065e+002
1.072137e+003, 5.123313e+002
1.072619e+003, 5.131227e+002
1.073101e+003, 5.137732e+002
1.073583e+003, 5.125746e+002
1.074065e+003, 5.108269e+002
1.074548e+003, 5.104112e+002
1.075030e+003, 5.112273e+002
1.075512e+003, 5.116476e+002
1.075994e+003, 5.109811e+002
1.076476e+003, 5.103156e+002
1.076958e+003, 5.098398e+002
1.077440e+003, 5.095236e+002
1.077922e+003, 5.092753e+002
1.078405e+003, 5.091385e+002
1.078887e+003, 5.093407e+002
1.079369e+003, 5.100107e+002
1.079851e+003, 5.104972e+002
1.080333e+003, 5.102066e+002
1.080815e+003, 5.098546e+002
1.081297e+003, 5.100129e+002
1.081779e+003, 5.105816e+002
1.082261e+003, 5.103234e+002
1.082744e+003, 5.092441e+002
1.083226e+003, 5.083833e+002
1.083708e+003, 5.083399e+002
1.084190e+003, 5.084734e+002
1.084672e+003, 5.082833e+002
1.085154e+003, 5.078422e+002
1.085636e+003, 5.072021e+002
1.086118e+003, 5.059574e+002
1.086601e+003, 5.056997e+002
1.087083e+003, 5.067569e+002
1.087565e+003, 5.076354e+002
1.088047e+003, 5.066766e+002
1.088529e+003, 5.049888e+002
1.089011e+003, 5.045801e+002
1.089493e+003, 5.052446e+002
1.089975e+003, 5.059200e+002
1.090458e+003, 5.064328e+002
1.090940e+003, 5.066179e+002
1.091422e+003, 5.063072e+002
1.091904e+003, 5.058621e+002
1.092386e+003, 5.058684e+002
1.092868e+003, 5.062174e+002
1.093350e+003, 5.064131e+002
1.093832e+003, 5.063849e+002
1.094314e+003, 5.064109e+002
1.094797e+003, 5.066948e+002
1.095279e+003, 5.070486e+002
1.095761e+003, 5.074514e+002
1.096243e+003, 5.078241e+002
1.096725e+003, 5.076624e+002
1.097207e+003, 5.069380e+002
1.097689e+003, 5.070036e+002
1.098171e+003, 5.085763e+002
1.098653e+003, 5.101673e+002
1.099136e+003, 5.102404e+002
1.099618e+003, 5.095425e+002
1.100100e+003, 5.088456e+002
1.100582e+003, 5.082003e+002
1.101064e+003, 5.078062e+002
1.101546e+003, 5.076456e+002
1.102028e+003, 5.078056e+002
1.102510e+003, 5.086320e+002
1.102993e+003, 5.095442e+002
1.103475e+003, 5.094554e+002
1.103957e+003, 5.086483e+002
1.104439e+003, 5.077568e+002
1.104921e+003, 5.065901e+002
1.105403e+003, 5.060515e+002
1.105885e+003, 5.066242e+002
1.106367e+003, 5.071758e+002
1.106849e+003, 5.064499e+002
1.107332e+003, 5.048001e+002
1.107814e+003, 5.035609e+002
1.108296e+003, 5.027605e+002
1.108778e+003, 5.022471e+002
1.109260e+003, 5.022013e+002
1.109742e+003, 5.021403e+002
1.110224e+003, 5.021144e+002
1.110706e+003, 5.018193e+002
1.111188e+003, 5.004452e+002
1.111671e+003, 4.980428e+002
1.112153e+003, 4.963953e+002
1.112635e+003, 4.957550e+002
1.113117e+003, 4.956398e+002
1.113599e+003, 4.961434e+002
1.114081e+003, 4.966121e+002
1.114563e+003, 4.964091e+002
1.115045e+003, 4.956081e+002
1.115528e+003, 4.949460e+002
1.116010e+003, 4.943717e+002
1.116492e+003, 4.942074e+002
1.116974e+003, 4.946202e+002
1.117456e+003, 4.952403e+002
1.117938e+003, 4.957740e+002
1.118420e+003, 4.961294e+002
1.118902e+003, 4.961366e+002
1.119385e+003, 4.956258e+002
1.119867e+003, 4.952740e+002
1.120349e+003, 4.951331e+002
1.120831e+003, 4.950258e+002
1.121313e+003, 4.948372e+002
1.121795e+003, 4.946382e+002
1.122277e+003, 4.947705e+002
1.122759e+003, 4.950052e+002
1.123241e+003, 4.947833e+002
1.123724e+003, 4.935878e+002
1.124206e+003, 4.924786e+002
1.124688e+003, 4.914735e+002
1.125170e+003, 4.908310e+002
1.125652e+003, 4.910693e+002
1.126134e+003, 4.919177e+002
1.126616e+003, 4.918279e+002
1.127098e+003, 4.909214e+002
1.127580e+003, 4.899828e+002
1.128063e+003, 4.890706e+002
1.128545e+003, 4.886499e+002
1.129027e+003, 4.894697e+002
1.129509e+003, 4.905160e+002
1.129991e+003, 4.901570e+002
1.130473e+003, 4.884499e+002
1.130955e+003, 4.880923e+002
1.131437e+003, 4.893369e+002
1.131920e+003, 4.905308e+002
1.132402e+003, 4.902845e+002
1.132884e+003, 4.896862e+002
1.133366e+003, 4.894232e+002
1.133848e+003, 4.894392e+002
1.134330e+003, 4.894442e+002
1.134812e+003, 4.894361e+002
1.135294e+003, 4.894230e+002
1.135776e+003, 4.894121e+002
1.136259e+003, 4.893704e+002
1.136741e+003, 4.890912e+002
1.137223e+003, 4.888798e+002
1.137705e+003, 4.891291e+002
1.138187e+003, 4.899107e+002
1.138669e+003, 4.905396e+002
1.139151e+003, 4.911013e+002
1.139633e+003, 4.911346e+002
1.140115e+003, 4.903061e+002
1.140598e+003, 4.892255e+002
1.141080e+003, 4.887614e+002
1.141562e+003, 4.886701e+002
1.142044e+003, 4.886124e+002
1.142526e+003, 4.886224e+002
1.143008e+003, 4.882071e+002
1.143490e+003, 4.870215e+002
1.143972e+003, 4.861615e+002
1.144455e+003, 4.864198e+002
1.144937e+003, 4.872641e+002
1.145419e+003, 4.874567e+002
1.145901e+003, 4.871833e+002
1.146383e+003, 4.869201e+002
1.146865e+003, 4.867966e+002
1.147347e+003, 4.867903e+002
1.147829e+003, 4.870572e+002
1.148312e+003, 4.871979e+002
1.148794e+003, 4.867905e+002
1.149276e+003, 4.859717e+002
1.149758e+003, 4.853910e+002
1.150240e+003, 4.850376e+002
1.150722e+003, 4.848260e+002
1.151204e+003, 4.848424e+002
1.151686e+003, 4.848270e+002
1.152168e+003, 4.845286e+002
1.152651e+003, 4.843022e+002
1.153133e+003, 4.847149e+002
1.153615e+003, 4.856705e+002
1.154097e+003, 4.861728e+002
1.154579e+003, 4.861574e+002
1.155061e+003, 4.859036e+002
1.155543e+003, 4.855431e+002
1.156025e+003, 4.850356e+002
1.156507e+003, 4.840994e+002
1.156990e+003, 4.830909e+002
1.157472e+003, 4.828519e+002
1.157954e+003, 4.833872e+002
1.158436e+003, 4.833544e+002
1.158918e+003, 4.825270e+002
1.159400e+003, 4.816228e+002
1.159882e+003, 4.813690e+002
1.160364e+003, 4.811407e+002
1.160847e+003, 4.803246e+002
1.161329e+003, 4.790763e+002
1.161811e+003, 4.783554e+002
1.162293e+003, 4.782543e+002
1.162775e+003, 4.775954e+002
1.163257e+003, 4.759126e+002
1.163739e+003, 4.743183e+002
1.164221e+003, 4.739478e+002
1.164703e+003, 4.742097e+002
1.165186e+003, 4.747674e+002
1.165668e+003, 4.755995e+002
1.166150e+003, 4.752727e+002
1.166632e+003, 4.735330e+002
1.167114e+003, 4.721995e+002
1.167596e+003, 4.720579e+002
1.168078e+003, 4.723739e+002
1.168560e+003, 4.722462e+002
1.169042e+003, 4.719745e+002
1.169525e+003, 4.720579e+002
1.170007e+003, 4.728336e+002
1.170489e+003, 4.727852e+002
1.170971e+003, 4.717092e+002
1.171453e+003, 4.705167e+002
1.171935e+003, 4.695353e+002
1.172417e+003, 4.688401e+002
1.172899e+003, 4.686100e+002
1.173382e+003, 4.687177e+002
1.173864e+003, 4.689680e+002
1.174346e+003, 4.695941e+002
1.174828e+003, 4.696595e+002
1.175310e+003, 4.689101e+002
1.175792e+003, 4.682409e+002
1.176274e+003, 4.683842e+002
1.176756e+003, 4.689781e+002
1.177239e+003, 4.695647e+002
1.177721e+003, 4.700087e+002
1.178203e+003, 4.699729e+002
1.178685e+003, 4.687707e+002
1.179167e+003, 4.679908e+002
1.179649e+003, 4.678174e+002
1.180131e+003, 4.679145e+002
1.180613e+003, 4.681351e+002
1.181095e+003, 4.683505e+002
1.181578e+003, 4.682246e+002
1.182060e+003, 4.678075e+002
1.182542e+003, 4.673335e+002
1.183024e+003, 4.666222e+002
1.183506e+003, 4.663130e+002
1.183988e+003, 4.666885e+002
1.184470e+003, 4.671250e+002
1.184952e+003, 4.666690e+002
1.185434e+003, 4.657515e+002
1.185917e+003, 4.656555e+002
1.186399e+003, 4.663309e+002
1.186881e+003, 4.666231e+002
1.187363e+003, 4.654334e+002
1.187845e+003, 4.646070e+002
1.188327e+003, 4.645300e+002
1.188809e+003, 4.649855e+002
1.189291e+003, 4.659502e+002
1.189774e+003, 4.671470e+002
1.190256e+003, 4.677221e+002
1.190738e+003, 4.675810e+002
1.191220e+003, 4.672085e+002
1.191702e+003, 4.666402e+002
1.192184e+003, 4.660616e+002
1.192666e+003, 4.653845e+002
1.193148e+003, 4.649006e+002
1.193630e+003, 4.654767e+002
1.194113e+003, 4.667495e+002
1.194595e+003, 4.674059e+002
1.195077e+003, 4.671707e+002
1.195559e+003, 4.670049e+002
1.196041e+003, 4.677619e+002
1.196523e+003, 4.681757e+002
1.197005e+003, 4.676845e+002
1.197487e+003, 4.665988e+002
1.197969e+003, 4.654124e+002
1.198452e+003, 4.643372e+002
1.198934e+003, 4.643314e+002
1.199416e+003, 4.658821e+002
1.199898e+003, 4.670482e+002
1.200380e+003, 4.665900e+002
1.200862e+003, 4.658615e+002
1.201344e+003, 4.654731e+002
1.201826e+003, 4.653221e+002
1.202309e+003, 4.651031e+002
1.202791e+003, 4.648155e+002
1.203273e+003, 4.644323e+002
1.203755e+003, 4.638607e+002
1.204237e+003, 4.634763e+002
1.204719e+003, 4.636359e+002
1.205201e+003, 4.638703e+002
1.205683e+003, 4.638931e+002
1.206166e+003, 4.637922e+002
1.206648e+003, 4.640538e+002
1.207130e+003, 4.645704e+002
1.207612e+003, 4.648688e+002
1.208094e+003, 4.647001e+002
1.208576e+003, 4.644518e+002
1.209058e+003, 4.640226e+002
1.209540e+003, 4.638381e+002
1.210022e+003, 4.643165e+002
1.210505e+003, 4.652890e+002
1.210987e+003, 4.656602e+002
1.211469e+003, 4.655240e+002
1.211951e+003, 4.653025e+002
1.212433e+003, 4.649877e+002
1.212915e+003, 4.649216e+002
1.213397e+003, 4.656210e+002
1.213879e+003, 4.662251e+002
1.214361e+003, 4.658438e+002
1.214844e+003, 4.647225e+002
1.215326e+003, 4.649061e+002
1.215808e+003, 4.661390e+002
1.216290e+003, 4.671333e+002
1.216772e+003, 4.672983e+002
1.217254e+003, 4.670518e+002
1.217736e+003, 4.661779e+002
1.218218e+003, 4.653060e+002
1.218701e+003, 4.650883e+002
1.219183e+003, 4.653817e+002
1.219665e+003, 4.651449e+002
1.220147e+003, 4.644671e+002
1.220629e+003, 4.638872e+002
1.221111e+003, 4.635431e+002
1.221593e+003, 4.635329e+002
1.222075e+003, 4.641020e+002
1.222557e+003, 4.647495e+002
1.223040e+003, 4.649416e+002
1.223522e+003, 4.647754e+002
1.224004e+003, 4.647055e+002
1.224486e+003, 4.647292e+002
1.224968e+003, 4.647230e+002
1.225450e+003, 4.648330e+002
1.225932e+003, 4.645643e+002
1.226414e+003, 4.634197e+002
1.226896e+003, 4.623971e+002
1.227379e+003, 4.630929e+002
1.227861e+003, 4.648469e+002
1.228343e+003, 4.650424e+002
1.228825e+003, 4.638070e+002
1.229307e+003, 4.629077e+002
1.229789e+003, 4.636375e+002
1.230271e+003, 4.640996e+002
1.230753e+003, 4.637619e+002
1.231236e+003, 4.631727e+002
1.231718e+003, 4.631008e+002
1.232200e+003, 4.633351e+002
1.232682e+003, 4.632137e+002
1.233164e+003, 4.627602e+002
1.233646e+003, 4.625144e+002
1.234128e+003, 4.631198e+002
1.234610e+003, 4.632998e+002
1.235093e+003, 4.625358e+002
1.235575e+003, 4.617735e+002
1.236057e+003, 4.625738e+002
1.236539e+003, 4.642509e+002
1.237021e+003, 4.652798e+002
1.237503e+003, 4.655750e+002
1.237985e+003, 4.657604e+002
1.238467e+003, 4.662339e+002
1.238949e+003, 4.662108e+002
1.239432e+003, 4.653709e+002
1.239914e+003, 4.643808e+002
1.240396e+003, 4.641622e+002
1.240878e+003, 4.644484e+002
1.241360e+003, 4.648710e+002
1.241842e+003, 4.653682e+002
1.242324e+003, 4.656126e+002
1.242806e+003, 4.653315e+002
1.243288e+003, 4.652285e+002
1.243771e+003, 4.654178e+002
1.244253e+003, 4.658745e+002
1.244735e+003, 4.668247e+002
1.245217e+003, 4.678872e+002
1.245699e+003, 4.685994e+002
1.246181e+003, 4.688927e+002
1.246663e+003, 4.684348e+002
1.247145e+003, 4.667056e+002
1.247628e+003, 4.658364e+002
1.248110e+003, 4.664323e+002
1.248592e+003, 4.674733e+002
1.249074e+003, 4.679813e+002
1.249556e+003, 4.680000e+002
1.250038e+003, 4.673721e+002
1.250520e+003, 4.661594e+002
1.251002e+003, 4.654428e+002
1.251484e+003, 4.653004e+002
1.251967e+003, 4.655218e+002
1.252449e+003, 4.661615e+002
1.252931e+003, 4.667477e+002
1.253413e+003, 4.668041e+002
1.253895e+003, 4.665224e+002
1.254377e+003, 4.658227e+002
1.254859e+003, 4.648418e+002
1.255341e+003, 4.649251e+002
1.255823e+003, 4.662381e+002
1.256306e+003, 4.671398e+002
1.256788e+003, 4.672021e+002
1.257270e+003, 4.669803e+002
1.257752e+003, 4.668209e+002
1.258234e+003, 4.667389e+002
1.258716e+003, 4.667335e+002
1.259198e+003, 4.668145e+002
1.259680e+003, 4.672278e+002
1.260163e+003, 4.679810e+002
1.260645e+003, 4.678803e+002
1.261127e+003, 4.664808e+002
1.261609e+003, 4.653460e+002
1.262091e+003, 4.661905e+002
1.262573e+003, 4.672326e+002
1.263055e+003, 4.672446e+002
1.263537e+003, 4.664802e+002
1.264020e+003, 4.656650e+002
1.264502e+003, 4.648636e+002
1.264984e+003, 4.646844e+002
1.265466e+003, 4.653544e+002
1.265948e+003, 4.660204e+002
1.266430e+003, 4.665670e+002
1.266912e+003, 4.664540e+002
1.267394e+003, 4.650156e+002
1.267876e+003, 4.630900e+002
1.268359e+003, 4.632630e+002
1.268841e+003, 4.649484e+002
1.269323e+003, 4.660109e+002
1.269805e+003, 4.659494e+002
1.270287e+003, 4.656094e+002
1.270769e+003, 4.649873e+002
1.271251e+003, 4.646153e+002
1.271733e+003, 4.647961e+002
1.272215e+003, 4.651737e+002
1.272698e+003, 4.646817e+002
1.273180e+003, 4.638507e+002
1.273662e+003, 4.641314e+002
1.274144e+003, 4.659936e+002
1.274626e+003, 4.669310e+002
1.275108e+003, 4.662537e+002
1.275590e+003, 4.651351e+002
1.276072e+003, 4.637612e+002
1.276555e+003, 4.625295e+002
1.277037e+003, 4.622125e+002
1.277519e+003, 4.624445e+002
1.278001e+003, 4.626778e+002
1.278483e+003, 4.628156e+002
1.278965e+003, 4.630889e+002
1.279447e+003, 4.634714e+002
1.279929e+003, 4.640877e+002
1.280411e+003, 4.650333e+002
1.280894e+003, 4.660132e+002
1.281376e+003, 4.670172e+002
1.281858e+003, 4.676226e+002
1.282340e+003, 4.670172e+002
1.282822e+003, 4.652362e+002
1.283304e+003, 4.647157e+002
1.283786e+003, 4.656131e+002
1.284268e+003, 4.660223e+002
1.284750e+003, 4.653053e+002
1.285233e+003, 4.645207e+002
1.285715e+003, 4.648778e+002
1.286197e+003, 4.654000e+002
1.286679e+003, 4.649883e+002
1.287161e+003, 4.640366e+002
1.287643e+003, 4.648119e+002
1.288125e+003, 4.670972e+002
1.288607e+003, 4.677531e+002
1.289090e+003, 4.657708e+002
1.289572e+003, 4.638875e+002
1.290054e+003, 4.642642e+002
1.290536e+003, 4.646990e+002
1.291018e+003, 4.638347e+002
1.291500e+003, 4.623161e+002
1.291982e+003, 4.618627e+002
1.292464e+003, 4.623321e+002
1.292947e+003, 4.635005e+002
1.293429e+003, 4.654746e+002
1.293911e+003, 4.664531e+002
1.294393e+003, 4.641153e+002
1.294875e+003, 4.627791e+002
1.295357e+003, 4.640472e+002
1.295839e+003, 4.664659e+002
1.296321e+003, 4.675963e+002
1.296803e+003, 4.678547e+002
1.297286e+003, 4.678573e+002
1.297768e+003, 4.676745e+002
1.298250e+003, 4.677018e+002
1.298732e+003, 4.681733e+002
1.299214e+003, 4.682727e+002
1.299696e+003, 4.677004e+002
1.300178e+003, 4.670238e+002
1.300660e+003, 4.669382e+002
##END=



