##NAMES=Dickthomssenite
##RRUFFID=R070165
##IDEAL CHEMISTRY=MgV^5+^_2_O_6_&#183;7H_2_O
##LOCALITY=Firefly-Pigmay mine, La Sal Quadrangle, San Juan County, Utah, USA
##OWNER=RRUFF
##SOURCE=Michael Scott
##DESCRIPTION=Light brown radiating acicular crystals, portion of the type material. Unit cell is triclinc, twinned around a-axis. The monoclinc cell of Hughes et al (2001) is obtained by doubling our b-axis, and transforming.
##STATUS=The identification of this mineral has been confirmed by single-crystal X-ray diffraction.
##URL=rruff.info/R070165
134.8090, 1495.435
135.2911, 1541.919
135.7732, 1593.361
136.2553, 1647.380
136.7375, 1714.433
137.2196, 1798.457
137.7017, 1893.279
138.1838, 1995.596
138.6659, 2103.906
139.1480, 2220.214
139.6302, 2346.097
140.1123, 2480.880
140.5944, 2631.318
141.0765, 2807.700
141.5586, 2991.750
142.0407, 3165.399
142.5229, 3322.208
143.0050, 3472.437
143.4871, 3638.032
143.9692, 3822.452
144.4513, 4019.182
144.9334, 4231.989
145.4156, 4453.689
145.8977, 4673.886
146.3798, 4888.657
146.8619, 5105.860
147.3440, 5343.857
147.8261, 5619.495
148.3083, 5898.898
148.7904, 6176.824
149.2725, 6457.740
149.7546, 6747.716
150.2367, 7049.143
150.7188, 7361.980
151.2010, 7687.089
151.6831, 8019.747
152.1652, 8370.230
152.6473, 8741.463
153.1294, 9129.470
153.6115, 9538.581
154.0937, 9972.508
154.5758, 10410.48
155.0579, 10788.89
155.5400, 11125.39
156.0221, 11386.73
156.5042, 11593.25
156.9864, 11715.71
157.4685, 11700.98
157.9506, 11519.89
158.4327, 11201.66
158.9148, 10818.25
159.3969, 10329.25
159.8791, 9844.843
160.3612, 9383.163
160.8433, 8946.197
161.3254, 8536.116
161.8075, 8150.403
162.2896, 7799.216
162.7718, 7516.023
163.2539, 7314.759
163.7360, 7140.844
164.2181, 6975.753
164.7002, 6824.430
165.1823, 6701.433
165.6645, 6616.003
166.1466, 6558.905
166.6287, 6508.790
167.1108, 6467.485
167.5929, 6427.588
168.0750, 6383.484
168.5572, 6337.833
169.0393, 6298.551
169.5214, 6269.736
170.0035, 6248.192
170.4856, 6227.504
170.9677, 6208.313
171.4499, 6188.325
171.9320, 6163.886
172.4141, 6137.146
172.8962, 6116.013
173.3783, 6104.653
173.8604, 6099.457
174.3426, 6092.119
174.8247, 6079.701
175.3068, 6074.692
175.7889, 6089.391
176.2710, 6119.342
176.7531, 6143.940
177.2353, 6152.822
177.7174, 6157.461
178.1995, 6173.633
178.6816, 6202.650
179.1637, 6235.414
179.6458, 6270.129
180.1279, 6305.364
180.6101, 6333.662
181.0922, 6352.791
181.5743, 6363.501
182.0564, 6368.914
182.5385, 6369.090
183.0206, 6363.545
183.5028, 6352.910
183.9849, 6336.697
184.4670, 6311.062
184.9491, 6270.055
185.4312, 6224.581
185.9133, 6187.199
186.3955, 6158.078
186.8776, 6126.653
187.3597, 6086.671
187.8418, 6038.598
188.3239, 5983.491
188.8060, 5916.206
189.2882, 5847.710
189.7703, 5787.770
190.2524, 5736.062
190.7345, 5685.813
191.2166, 5630.825
191.6987, 5572.396
192.1809, 5522.162
192.6630, 5488.221
193.1451, 5454.492
193.6272, 5407.787
194.1093, 5349.900
194.5914, 5292.635
195.0736, 5247.517
195.5557, 5211.438
196.0378, 5163.708
196.5199, 5093.261
197.0020, 5023.255
197.4841, 4967.608
197.9663, 4924.543
198.4484, 4887.880
198.9305, 4857.377
199.4126, 4831.289
199.8947, 4798.392
200.3768, 4753.372
200.8590, 4708.578
201.3411, 4664.222
201.8232, 4624.496
202.3053, 4600.294
202.7874, 4606.615
203.2695, 4635.045
203.7517, 4648.468
204.2338, 4637.764
204.7159, 4626.529
205.1980, 4622.374
205.6801, 4625.992
206.1622, 4639.429
206.6444, 4667.854
207.1265, 4705.768
207.6086, 4735.962
208.0907, 4755.530
208.5728, 4772.432
209.0549, 4791.610
209.5371, 4810.455
210.0192, 4825.495
210.5013, 4836.083
210.9834, 4841.034
211.4655, 4836.107
211.9476, 4817.002
212.4298, 4797.680
212.9119, 4787.132
213.3940, 4778.104
213.8761, 4759.904
214.3582, 4724.551
214.8403, 4686.352
215.3225, 4674.639
215.8046, 4698.896
216.2867, 4721.733
216.7688, 4727.895
217.2509, 4728.407
217.7330, 4731.828
218.2152, 4740.218
218.6973, 4754.804
219.1794, 4776.457
219.6615, 4804.072
220.1436, 4843.491
220.6257, 4898.782
221.1079, 4965.227
221.5900, 5044.897
222.0721, 5138.537
222.5542, 5233.141
223.0363, 5308.389
223.5184, 5360.222
224.0006, 5425.126
224.4827, 5517.478
224.9648, 5622.239
225.4469, 5733.713
225.9290, 5850.043
226.4111, 5968.761
226.8933, 6086.248
227.3754, 6202.441
227.8575, 6319.595
228.3396, 6440.453
228.8217, 6560.468
229.3038, 6673.910
229.7859, 6782.388
230.2681, 6897.208
230.7502, 7029.722
231.2323, 7178.382
231.7144, 7325.616
232.1965, 7471.669
232.6786, 7615.356
233.1608, 7755.892
233.6429, 7893.457
234.1250, 8030.171
234.6071, 8163.360
235.0892, 8296.321
235.5714, 8445.881
236.0535, 8625.524
236.5356, 8799.205
237.0177, 8951.817
237.4998, 9086.578
237.9819, 9207.331
238.4641, 9305.921
238.9462, 9396.024
239.4283, 9513.199
239.9104, 9669.054
240.3925, 9819.249
240.8746, 9942.074
241.3568, 10046.34
241.8389, 10139.96
242.3210, 10220.30
242.8031, 10297.94
243.2852, 10393.65
243.7673, 10513.06
244.2495, 10618.78
244.7316, 10682.60
245.2137, 10731.05
245.6958, 10788.53
246.1779, 10859.13
246.6600, 10940.24
247.1422, 11035.79
247.6243, 11146.02
248.1064, 11246.02
248.5885, 11327.78
249.0706, 11396.48
249.5527, 11463.37
250.0349, 11530.38
250.5170, 11578.18
250.9991, 11586.19
251.4812, 11560.41
251.9633, 11535.16
252.4454, 11521.74
252.9276, 11503.66
253.4097, 11451.36
253.8918, 11369.01
254.3739, 11317.48
254.8560, 11325.60
255.3381, 11385.70
255.8203, 11477.26
256.3024, 11592.99
256.7845, 11753.61
257.2666, 11987.77
257.7487, 12281.12
258.2308, 12608.69
258.7130, 12977.96
259.1951, 13370.68
259.6772, 13764.99
260.1593, 14160.83
260.6414, 14556.42
261.1235, 14949.69
261.6057, 15342.42
262.0878, 15747.72
262.5699, 16168.53
263.0520, 16597.35
263.5341, 17020.99
264.0162, 17441.42
264.4984, 17891.49
264.9805, 18378.38
265.4626, 18913.72
265.9447, 19512.63
266.4268, 20187.85
266.9089, 20898.75
267.3911, 21592.27
267.8732, 22301.04
268.3553, 23120.97
268.8374, 24098.55
269.3195, 25177.22
269.8016, 26281.70
270.2838, 27418.88
270.7659, 28525.62
271.2480, 29672.01
271.7301, 30747.27
272.2122, 31652.20
272.6943, 32376.38
273.1765, 32808.04
273.6586, 32809.46
274.1407, 32336.83
274.6228, 31518.10
275.1049, 30249.42
275.5870, 28701.77
276.0692, 26923.72
276.5513, 24956.23
277.0334, 22968.96
277.5155, 21071.45
277.9976, 19267.16
278.4797, 17670.88
278.9619, 16295.56
279.4440, 15084.42
279.9261, 14035.21
280.4082, 13127.09
280.8903, 12338.95
281.3724, 11656.87
281.8546, 11075.27
282.3367, 10571.25
282.8188, 10184.38
283.3009, 9825.489
283.7830, 9481.809
284.2651, 9160.300
284.7473, 8870.213
285.2294, 8616.544
285.7115, 8389.691
286.1936, 8171.867
286.6757, 7966.979
287.1578, 7767.675
287.6400, 7579.850
288.1221, 7394.286
288.6042, 7202.687
289.0863, 7003.906
289.5684, 6803.426
290.0505, 6605.893
290.5327, 6409.198
291.0148, 6226.378
291.4969, 6068.992
291.9790, 5912.313
292.4611, 5739.057
292.9432, 5557.315
293.4254, 5387.498
293.9075, 5246.555
294.3896, 5130.728
294.8717, 5011.879
295.3538, 4883.333
295.8359, 4759.782
296.3181, 4646.736
296.8002, 4539.783
297.2823, 4435.567
297.7644, 4332.124
298.2465, 4229.007
298.7286, 4123.055
299.2108, 4008.332
299.6929, 3906.055
300.1750, 3823.783
300.6571, 3752.993
301.1392, 3690.596
301.6213, 3634.988
302.1035, 3581.910
302.5855, 3526.915
303.0677, 3469.949
303.5498, 3412.552
304.0319, 3353.211
304.5140, 3295.866
304.9961, 3241.655
305.4782, 3191.214
305.9604, 3146.635
306.4425, 3114.600
306.9246, 3089.490
307.4067, 3051.800
307.8888, 2994.255
308.3709, 2943.392
308.8531, 2924.177
309.3352, 2921.778
309.8173, 2912.948
310.2994, 2886.914
310.7815, 2857.375
311.2636, 2839.812
311.7458, 2833.792
312.2279, 2828.391
312.7100, 2821.413
313.1921, 2810.293
313.6742, 2789.120
314.1563, 2751.710
314.6385, 2722.902
315.1206, 2719.848
315.6027, 2733.498
316.0848, 2745.789
316.5669, 2753.328
317.0490, 2753.911
317.5312, 2740.807
318.0133, 2711.798
318.4954, 2692.745
318.9775, 2693.736
319.4596, 2701.663
319.9417, 2704.792
320.4239, 2702.630
320.9060, 2702.147
321.3881, 2710.218
321.8702, 2725.984
322.3523, 2730.647
322.8344, 2715.355
323.3166, 2700.471
323.7987, 2693.651
324.2808, 2692.295
324.7629, 2691.525
325.2450, 2689.161
325.7271, 2685.190
326.2093, 2679.277
326.6914, 2661.782
327.1735, 2656.255
327.6556, 2675.703
328.1377, 2698.666
328.6198, 2706.029
329.1020, 2695.244
329.5841, 2678.976
330.0662, 2672.474
330.5483, 2678.869
331.0304, 2678.175
331.5125, 2665.519
331.9947, 2650.487
332.4768, 2635.399
332.9589, 2620.617
333.4410, 2605.964
333.9231, 2591.528
334.4052, 2577.075
334.8874, 2561.359
335.3695, 2542.224
335.8516, 2526.215
336.3337, 2520.902
336.8158, 2516.187
337.2979, 2499.898
337.7801, 2467.943
338.2622, 2433.634
338.7443, 2413.708
339.2264, 2408.685
339.7085, 2403.493
340.1906, 2397.732
340.6728, 2388.472
341.1549, 2373.049
341.6370, 2351.986
342.1191, 2329.842
342.6012, 2307.149
343.0833, 2285.273
343.5655, 2268.458
344.0476, 2258.051
344.5297, 2246.760
345.0118, 2227.545
345.4939, 2203.906
345.9760, 2185.123
346.4582, 2175.398
346.9403, 2167.167
347.4224, 2154.353
347.9045, 2138.471
348.3866, 2125.373
348.8687, 2118.199
349.3509, 2113.539
349.8330, 2103.856
350.3151, 2086.506
350.7972, 2072.816
351.2793, 2067.282
351.7614, 2064.986
352.2436, 2059.393
352.7257, 2050.106
353.2078, 2043.989
353.6899, 2048.895
354.1720, 2066.476
354.6541, 2075.658
355.1363, 2072.113
355.6184, 2066.497
356.1005, 2064.151
356.5826, 2062.446
357.0647, 2054.771
357.5468, 2037.266
358.0290, 2015.119
358.5111, 2003.898
358.9932, 2014.274
359.4753, 2017.211
359.9574, 2004.644
360.4395, 1988.895
360.9217, 1977.020
361.4038, 1971.143
361.8859, 1972.268
362.3680, 1983.671
362.8501, 2005.804
363.3322, 2025.372
363.8144, 2046.914
364.2965, 2059.192
364.7786, 2050.548
365.2607, 2030.939
365.7428, 2018.965
366.2249, 2024.885
366.7071, 2040.270
367.1892, 2052.927
367.6713, 2063.021
368.1534, 2068.870
368.6355, 2065.648
369.1176, 2060.905
369.5998, 2064.270
370.0819, 2077.211
370.5640, 2091.111
371.0461, 2102.449
371.5282, 2111.389
372.0103, 2117.997
372.4925, 2122.161
372.9746, 2124.682
373.4567, 2125.427
373.9388, 2124.575
374.4209, 2126.285
374.9030, 2136.403
375.3852, 2143.974
375.8673, 2138.087
376.3494, 2123.734
376.8315, 2116.031
377.3136, 2123.200
377.7957, 2139.567
378.2779, 2150.229
378.7600, 2148.679
379.2421, 2150.043
379.7242, 2155.293
380.2063, 2163.038
380.6884, 2172.711
381.1706, 2183.941
381.6527, 2195.638
382.1348, 2206.681
382.6169, 2216.976
383.0990, 2227.976
383.5811, 2237.315
384.0633, 2250.148
384.5454, 2274.023
385.0275, 2300.534
385.5096, 2315.407
385.9917, 2310.825
386.4738, 2299.965
386.9560, 2307.809
387.4381, 2338.671
387.9202, 2364.745
388.4023, 2375.811
388.8844, 2383.633
389.3665, 2397.124
389.8487, 2416.242
390.3308, 2434.795
390.8129, 2446.855
391.2950, 2456.344
391.7771, 2473.615
392.2592, 2500.783
392.7414, 2526.027
393.2235, 2540.311
393.7056, 2546.726
394.1877, 2555.604
394.6698, 2568.791
395.1519, 2582.702
395.6341, 2596.528
396.1162, 2609.640
396.5983, 2620.011
397.0804, 2626.748
397.5625, 2632.972
398.0446, 2643.713
398.5268, 2662.315
399.0089, 2674.279
399.4910, 2673.753
399.9731, 2671.886
400.4552, 2675.315
400.9373, 2683.247
401.4194, 2691.665
401.9016, 2697.980
402.3837, 2702.694
402.8658, 2708.203
403.3479, 2715.772
403.8300, 2722.030
404.3121, 2725.365
404.7943, 2728.148
405.2764, 2733.014
405.7585, 2740.159
406.2406, 2746.691
406.7227, 2748.837
407.2048, 2746.838
407.6870, 2747.530
408.1691, 2754.522
408.6512, 2758.523
409.1333, 2754.146
409.6154, 2743.697
410.0975, 2730.448
410.5797, 2713.302
411.0618, 2696.885
411.5439, 2687.872
412.0260, 2684.958
412.5081, 2679.003
412.9902, 2666.594
413.4724, 2650.625
413.9545, 2634.877
414.4366, 2619.147
414.9187, 2604.398
415.4008, 2587.438
415.8829, 2573.719
416.3651, 2569.537
416.8472, 2574.014
417.3293, 2580.388
417.8114, 2583.790
418.2935, 2585.553
418.7756, 2593.139
419.2578, 2616.356
419.7399, 2633.197
420.2220, 2632.648
420.7041, 2629.818
421.1862, 2639.398
421.6683, 2664.203
422.1505, 2696.824
422.6326, 2728.850
423.1147, 2759.833
423.5968, 2797.116
424.0789, 2842.866
424.5610, 2892.849
425.0432, 2945.220
425.5253, 3000.257
426.0074, 3059.041
426.4895, 3123.206
426.9716, 3188.082
427.4537, 3244.716
427.9359, 3294.045
428.4180, 3353.295
428.9001, 3430.116
429.3822, 3514.024
429.8643, 3592.926
430.3464, 3667.222
430.8286, 3747.780
431.3107, 3843.182
431.7928, 3942.572
432.2749, 4035.971
432.7570, 4123.757
433.2391, 4208.425
433.7213, 4289.517
434.2034, 4372.063
434.6855, 4471.484
435.1676, 4602.676
435.6497, 4729.170
436.1318, 4846.502
436.6140, 4960.132
437.0961, 5078.981
437.5782, 5200.731
438.0603, 5312.226
438.5424, 5398.938
439.0245, 5462.684
439.5067, 5531.573
439.9888, 5615.455
440.4709, 5688.944
440.9530, 5757.439
441.4351, 5808.037
441.9172, 5827.755
442.3994, 5812.830
442.8815, 5767.701
443.3636, 5687.908
443.8457, 5577.889
444.3278, 5471.036
444.8099, 5376.607
445.2921, 5273.420
445.7742, 5141.087
446.2563, 4985.551
446.7384, 4819.499
447.2205, 4632.634
447.7026, 4448.700
448.1848, 4285.639
448.6669, 4138.334
449.1490, 3995.717
449.6311, 3852.286
450.1132, 3712.776
450.5953, 3582.213
451.0775, 3460.280
451.5596, 3352.022
452.0417, 3263.575
452.5238, 3181.417
453.0059, 3096.646
453.4880, 3012.541
453.9702, 2938.932
454.4523, 2882.233
454.9344, 2835.952
455.4165, 2783.156
455.8986, 2719.302
456.3807, 2661.508
456.8629, 2613.689
457.3450, 2572.408
457.8271, 2537.676
458.3092, 2508.667
458.7913, 2482.229
459.2734, 2453.607
459.7556, 2427.149
460.2377, 2415.297
460.7198, 2419.621
461.2019, 2415.381
461.6840, 2386.799
462.1661, 2345.056
462.6483, 2313.787
463.1304, 2296.002
463.6125, 2279.549
464.0946, 2257.207
464.5767, 2236.715
465.0588, 2230.364
465.5410, 2237.152
466.0231, 2241.209
466.5052, 2229.237
466.9873, 2203.236
467.4694, 2182.111
467.9515, 2166.666
468.4337, 2155.414
468.9158, 2151.009
469.3979, 2148.980
469.8800, 2146.120
470.3621, 2141.398
470.8442, 2134.255
471.3264, 2123.169
471.8085, 2108.623
472.2906, 2095.254
472.7727, 2083.744
473.2548, 2072.056
473.7369, 2058.472
474.2191, 2044.374
474.7012, 2031.672
475.1833, 2021.079
475.6654, 2010.932
476.1475, 2000.808
476.6296, 1990.317
477.1118, 1977.735
477.5939, 1962.630
478.0760, 1949.430
478.5581, 1943.831
479.0402, 1945.903
479.5223, 1936.614
480.0045, 1900.563
480.4866, 1873.100
480.9687, 1868.075
481.4508, 1875.612
481.9329, 1885.494
482.4150, 1893.762
482.8972, 1897.045
483.3793, 1888.770
483.8614, 1867.204
484.3435, 1854.074
484.8256, 1857.092
485.3077, 1858.241
485.7899, 1848.530
486.2720, 1833.006
486.7541, 1818.520
487.2362, 1806.057
487.7183, 1798.415
488.2004, 1801.510
488.6826, 1812.077
489.1647, 1816.637
489.6468, 1811.172
490.1289, 1805.971
490.6110, 1812.485
491.0931, 1830.483
491.5753, 1839.092
492.0574, 1828.541
492.5395, 1819.557
493.0216, 1822.931
493.5037, 1832.419
493.9858, 1838.224
494.4680, 1837.361
494.9501, 1833.972
495.4322, 1833.012
495.9143, 1834.341
496.3964, 1839.096
496.8785, 1849.662
497.3607, 1861.048
497.8428, 1875.683
498.3249, 1888.769
498.8070, 1892.163
499.2891, 1881.869
499.7712, 1868.676
500.2533, 1863.532
500.7354, 1865.203
501.2176, 1867.008
501.6997, 1867.057
502.1818, 1870.238
502.6639, 1883.586
503.1460, 1904.989
503.6281, 1917.529
504.1103, 1912.793
504.5924, 1908.079
505.0745, 1910.947
505.5566, 1918.062
506.0387, 1924.785
506.5208, 1929.803
507.0030, 1933.721
507.4851, 1936.673
507.9672, 1938.273
508.4493, 1944.352
508.9314, 1958.061
509.4135, 1972.619
509.8957, 1990.022
510.3778, 2005.514
510.8599, 2011.738
511.3420, 2006.457
511.8241, 2000.144
512.3063, 2002.110
512.7884, 2011.163
513.2705, 2023.036
513.7526, 2037.506
514.2347, 2054.042
514.7169, 2075.599
515.1990, 2098.651
515.6811, 2109.799
516.1632, 2098.167
516.6453, 2090.773
517.1274, 2098.792
517.6096, 2113.928
518.0917, 2127.295
518.5738, 2137.183
519.0559, 2145.834
519.5380, 2154.970
520.0201, 2164.697
520.5023, 2176.504
520.9844, 2192.115
521.4665, 2206.937
521.9486, 2220.044
522.4307, 2232.081
522.9128, 2242.088
523.3950, 2250.523
523.8771, 2262.485
524.3592, 2283.939
524.8413, 2310.874
525.3234, 2333.807
525.8055, 2352.252
526.2877, 2373.699
526.7698, 2403.228
527.2519, 2437.104
527.7340, 2465.028
528.2161, 2483.104
528.6982, 2506.716
529.1804, 2539.309
529.6625, 2577.302
530.1446, 2619.924
530.6267, 2665.587
531.1088, 2710.077
531.5909, 2750.606
532.0731, 2789.358
532.5552, 2831.972
533.0373, 2878.311
533.5194, 2929.343
534.0015, 2988.703
534.4836, 3049.731
534.9658, 3107.996
535.4479, 3164.348
535.9300, 3223.494
536.4121, 3285.338
536.8942, 3352.931
537.3763, 3435.566
537.8585, 3528.211
538.3406, 3606.427
538.8227, 3660.697
539.3048, 3707.244
539.7869, 3766.797
540.2690, 3843.933
540.7512, 3907.726
541.2333, 3950.487
541.7154, 3990.265
542.1975, 4034.320
542.6796, 4079.186
543.1617, 4120.157
543.6439, 4155.461
544.1260, 4185.338
544.6081, 4210.810
545.0902, 4231.700
545.5723, 4243.757
546.0544, 4245.426
546.5366, 4241.326
547.0187, 4233.021
547.5008, 4220.646
547.9829, 4205.306
548.4650, 4190.089
548.9471, 4163.202
549.4292, 4116.214
549.9113, 4056.215
550.3934, 3985.133
550.8755, 3906.866
551.3577, 3842.350
551.8398, 3808.674
552.3219, 3795.251
552.8040, 3756.841
553.2861, 3673.206
553.7682, 3598.823
554.2504, 3539.349
554.7325, 3487.846
555.2146, 3439.949
555.6967, 3395.785
556.1788, 3357.630
556.6609, 3329.011
557.1431, 3304.402
557.6252, 3277.086
558.1073, 3246.727
558.5894, 3209.694
559.0715, 3163.438
559.5536, 3113.475
560.0358, 3063.977
560.5179, 3014.224
561.0000, 2974.224
561.4821, 2951.280
561.9642, 2930.066
562.4464, 2903.602
562.9285, 2874.829
563.4106, 2848.696
563.8927, 2826.563
564.3748, 2805.388
564.8569, 2780.879
565.3391, 2753.296
565.8212, 2729.875
566.3033, 2713.772
566.7854, 2695.412
567.2675, 2669.326
567.7496, 2639.373
568.2318, 2608.900
568.7139, 2577.928
569.1960, 2548.913
569.6781, 2522.872
570.1602, 2499.507
570.6423, 2478.911
571.1245, 2460.656
571.6066, 2442.741
572.0887, 2424.167
572.5708, 2405.195
573.0529, 2386.440
573.5350, 2365.959
574.0172, 2349.591
574.4993, 2339.990
574.9814, 2331.557
575.4635, 2323.422
575.9456, 2314.247
576.4277, 2301.320
576.9099, 2282.635
577.3920, 2263.098
577.8741, 2247.598
578.3562, 2235.777
578.8383, 2227.234
579.3204, 2222.649
579.8026, 2216.247
580.2847, 2202.149
580.7668, 2181.866
581.2489, 2167.732
581.7310, 2162.183
582.2131, 2158.546
582.6953, 2158.465
583.1774, 2158.000
583.6595, 2153.810
584.1416, 2145.708
584.6237, 2135.189
585.1058, 2123.127
585.5880, 2109.759
586.0701, 2093.592
586.5522, 2073.228
587.0343, 2062.524
587.5164, 2071.347
587.9985, 2082.610
588.4807, 2078.225
588.9628, 2060.196
589.4449, 2040.608
589.9270, 2017.868
590.4091, 1997.816
590.8912, 1983.383
591.3734, 1973.687
591.8555, 1968.606
592.3376, 1967.475
592.8197, 1966.130
593.3018, 1959.225
593.7839, 1947.495
594.2661, 1944.089
594.7482, 1956.015
595.2303, 1962.174
595.7124, 1950.077
596.1945, 1933.352
596.6766, 1924.212
597.1588, 1923.263
597.6409, 1921.090
598.1230, 1909.491
598.6051, 1897.752
599.0872, 1898.389
599.5693, 1907.693
600.0515, 1912.300
600.5336, 1907.077
601.0157, 1895.303
601.4978, 1880.093
601.9799, 1859.023
602.4620, 1849.401
602.9442, 1866.035
603.4263, 1876.795
603.9084, 1869.023
604.3905, 1853.190
604.8726, 1841.465
605.3547, 1836.405
605.8369, 1833.713
606.3190, 1830.475
606.8011, 1827.451
607.2832, 1825.882
607.7653, 1825.832
608.2474, 1828.397
608.7296, 1835.659
609.2117, 1841.598
609.6938, 1833.283
610.1759, 1800.599
610.6580, 1782.846
611.1401, 1793.604
611.6223, 1803.350
612.1044, 1798.955
612.5865, 1785.693
613.0686, 1770.803
613.5507, 1756.546
614.0328, 1747.769
614.5150, 1754.889
614.9971, 1771.562
615.4792, 1774.160
615.9613, 1760.173
616.4434, 1747.096
616.9255, 1745.211
617.4077, 1749.264
617.8898, 1747.164
618.3719, 1737.301
618.8540, 1724.925
619.3361, 1702.570
619.8182, 1685.059
620.3004, 1684.395
620.7825, 1694.207
621.2646, 1702.075
621.7467, 1703.038
622.2288, 1700.521
622.7109, 1698.040
623.1931, 1695.674
623.6752, 1693.998
624.1573, 1693.093
624.6394, 1692.807
625.1215, 1693.909
625.6036, 1695.130
626.0858, 1692.621
626.5679, 1683.914
627.0500, 1678.322
627.5321, 1677.820
628.0142, 1680.237
628.4963, 1686.638
628.9785, 1694.457
629.4606, 1698.619
629.9427, 1696.826
630.4248, 1691.429
630.9069, 1683.687
631.3890, 1674.131
631.8712, 1672.741
632.3533, 1683.969
632.8354, 1690.868
633.3175, 1680.019
633.7996, 1659.865
634.2817, 1650.701
634.7639, 1655.412
635.2460, 1662.658
635.7281, 1678.781
636.2102, 1689.216
636.6923, 1676.867
637.1744, 1650.591
637.6566, 1632.677
638.1387, 1633.184
638.6208, 1642.036
639.1029, 1645.065
639.5850, 1642.460
640.0671, 1639.630
640.5493, 1636.440
641.0314, 1634.353
641.5135, 1634.714
641.9956, 1636.492
642.4777, 1637.171
642.9598, 1635.854
643.4420, 1636.250
643.9241, 1642.826
644.4062, 1648.080
644.8883, 1645.368
645.3704, 1637.098
645.8525, 1628.824
646.3347, 1622.904
646.8168, 1618.924
647.2989, 1617.194
647.7810, 1617.501
648.2631, 1615.179
648.7452, 1608.994
649.2274, 1603.981
649.7095, 1604.040
650.1916, 1605.964
650.6737, 1602.517
651.1558, 1591.206
651.6379, 1585.232
652.1201, 1588.708
652.6022, 1596.279
653.0843, 1610.493
653.5664, 1624.752
654.0485, 1623.795
654.5306, 1603.098
655.0128, 1582.321
655.4949, 1590.243
655.9770, 1622.000
656.4591, 1637.792
656.9412, 1634.959
657.4233, 1626.942
657.9055, 1617.401
658.3876, 1607.756
658.8697, 1599.869
659.3518, 1593.139
659.8339, 1590.849
660.3160, 1593.128
660.7982, 1600.073
661.2803, 1617.287
661.7624, 1636.946
662.2445, 1646.856
662.7266, 1644.378
663.2087, 1638.732
663.6909, 1638.386
664.1730, 1642.090
664.6551, 1646.195
665.1372, 1650.894
665.6193, 1652.625
666.1014, 1648.989
666.5836, 1644.026
667.0657, 1643.027
667.5478, 1646.619
668.0299, 1649.081
668.5120, 1648.753
668.9941, 1649.322
669.4763, 1652.317
669.9584, 1656.571
670.4405, 1661.466
670.9226, 1666.493
671.4047, 1670.147
671.8868, 1670.879
672.3690, 1670.057
672.8511, 1669.320
673.3332, 1668.962
673.8153, 1672.557
674.2974, 1681.725
674.7795, 1691.818
675.2617, 1698.618
675.7438, 1702.177
676.2259, 1703.458
676.7080, 1697.024
677.1901, 1695.670
677.6722, 1703.146
678.1544, 1714.252
678.6365, 1728.318
679.1186, 1742.578
679.6007, 1749.808
680.0828, 1744.089
680.5649, 1734.973
681.0471, 1732.224
681.5292, 1734.578
682.0113, 1737.192
682.4934, 1739.472
682.9755, 1749.725
683.4576, 1775.990
683.9398, 1811.457
684.4219, 1832.413
684.9040, 1831.163
685.3861, 1831.355
685.8682, 1834.091
686.3503, 1838.178
686.8325, 1839.312
687.3146, 1842.401
687.7967, 1859.263
688.2788, 1897.350
688.7609, 1929.425
689.2430, 1930.837
689.7252, 1921.168
690.2073, 1926.475
690.6894, 1945.960
691.1715, 1966.142
691.6536, 1980.617
692.1357, 1993.388
692.6179, 2011.744
693.1000, 2036.935
693.5821, 2057.032
694.0642, 2069.363
694.5463, 2081.748
695.0284, 2095.378
695.5106, 2111.981
695.9927, 2133.251
696.4748, 2159.236
696.9569, 2190.668
697.4390, 2236.980
697.9211, 2279.427
698.4033, 2301.151
698.8854, 2312.353
699.3675, 2329.684
699.8496, 2357.357
700.3317, 2389.739
700.8138, 2422.063
701.2960, 2454.665
701.7781, 2488.432
702.2602, 2523.609
702.7423, 2558.832
703.2244, 2592.228
703.7065, 2628.608
704.1887, 2674.494
704.6708, 2729.054
705.1529, 2777.508
705.6350, 2810.737
706.1171, 2850.156
706.5992, 2901.121
707.0814, 2958.688
707.5635, 3023.732
708.0456, 3091.630
708.5277, 3149.505
709.0098, 3187.911
709.4919, 3225.448
709.9741, 3285.720
710.4562, 3362.588
710.9383, 3437.760
711.4204, 3509.206
711.9025, 3579.888
712.3846, 3651.551
712.8668, 3724.777
713.3489, 3800.482
713.8310, 3878.135
714.3131, 3960.313
714.7952, 4049.244
715.2773, 4140.428
715.7595, 4234.804
716.2416, 4329.011
716.7237, 4419.136
717.2058, 4504.999
717.6879, 4582.971
718.1700, 4640.877
718.6522, 4698.740
719.1343, 4777.988
719.6164, 4871.328
720.0985, 4961.602
720.5806, 5043.431
721.0627, 5118.851
721.5449, 5186.643
722.0270, 5250.890
722.5091, 5341.500
722.9912, 5468.743
723.4733, 5564.106
723.9554, 5599.522
724.4376, 5617.045
724.9197, 5656.130
725.4018, 5713.643
725.8839, 5758.484
726.3660, 5774.908
726.8481, 5799.353
727.3303, 5844.857
727.8124, 5896.421
728.2945, 5941.001
728.7766, 5980.968
729.2587, 6028.695
729.7408, 6092.480
730.2230, 6151.074
730.7051, 6172.585
731.1872, 6172.088
731.6693, 6185.209
732.1514, 6215.630
732.6335, 6269.490
733.1157, 6353.635
733.5978, 6447.671
734.0799, 6512.269
734.5620, 6538.120
735.0441, 6585.260
735.5262, 6677.491
736.0084, 6756.293
736.4905, 6785.179
736.9726, 6804.806
737.4547, 6861.771
737.9368, 6956.940
738.4189, 7039.883
738.9011, 7083.596
739.3832, 7122.221
739.8653, 7185.755
740.3474, 7253.581
740.8295, 7291.586
741.3116, 7298.222
741.7938, 7300.888
742.2759, 7320.727
742.7580, 7345.955
743.2401, 7358.352
743.7222, 7356.938
744.2043, 7314.138
744.6865, 7219.314
745.1686, 7111.475
745.6507, 7015.487
746.1328, 6924.997
746.6149, 6823.404
747.0970, 6715.425
747.5791, 6583.675
748.0612, 6414.231
748.5433, 6237.324
749.0255, 6066.896
749.5076, 5895.129
749.9897, 5708.345
750.4718, 5504.352
750.9539, 5301.841
751.4360, 5109.281
751.9182, 4926.301
752.4003, 4753.637
752.8824, 4591.179
753.3645, 4440.767
753.8466, 4301.969
754.3287, 4167.087
754.8109, 4028.719
755.2930, 3889.020
755.7751, 3755.360
756.2572, 3627.119
756.7393, 3509.076
757.2214, 3403.594
757.7036, 3302.757
758.1857, 3197.803
758.6678, 3092.671
759.1499, 3001.463
759.6320, 2929.246
760.1141, 2859.858
760.5963, 2793.774
761.0784, 2728.103
761.5605, 2655.104
762.0426, 2583.284
762.5247, 2528.702
763.0068, 2495.543
763.4890, 2464.157
763.9711, 2419.217
764.4532, 2368.760
764.9353, 2319.427
765.4174, 2273.878
765.8995, 2242.587
766.3817, 2227.784
766.8638, 2212.589
767.3459, 2179.024
767.8280, 2132.447
768.3101, 2098.831
768.7922, 2080.558
769.2744, 2064.816
769.7565, 2052.676
770.2386, 2037.007
770.7207, 2010.137
771.2028, 1975.642
771.6849, 1946.223
772.1671, 1923.082
772.6492, 1902.613
773.1313, 1882.298
773.6134, 1866.848
774.0955, 1864.643
774.5776, 1866.870
775.0598, 1857.583
775.5419, 1833.128
776.0240, 1809.759
776.5061, 1800.560
776.9882, 1797.563
777.4703, 1791.679
777.9525, 1783.067
778.4346, 1772.069
778.9167, 1759.105
779.3988, 1747.069
779.8809, 1739.342
780.3630, 1733.743
780.8452, 1719.947
781.3273, 1695.406
781.8094, 1682.491
782.2915, 1689.704
782.7736, 1696.616
783.2557, 1687.386
783.7379, 1669.072
784.2200, 1662.287
784.7021, 1675.321
785.1842, 1678.889
785.6663, 1658.855
786.1484, 1643.542
786.6306, 1652.591
787.1127, 1669.890
787.5948, 1673.854
788.0769, 1661.282
788.5590, 1645.234
789.0411, 1627.819
789.5233, 1614.798
790.0054, 1614.193
790.4875, 1621.049
790.9696, 1627.498
791.4517, 1631.355
791.9338, 1630.844
792.4160, 1624.188
792.8981, 1614.436
793.3802, 1608.068
793.8623, 1605.005
794.3444, 1602.513
794.8265, 1601.007
795.3087, 1596.159
795.7908, 1584.001
796.2729, 1569.816
796.7550, 1563.641
797.2371, 1567.679
797.7192, 1569.207
798.2014, 1564.644
798.6835, 1562.072
799.1656, 1566.137
799.6477, 1570.725
800.1298, 1568.519
800.6119, 1560.992
801.0941, 1558.146
801.5762, 1568.205
802.0583, 1576.143
802.5404, 1571.455
803.0225, 1562.331
803.5046, 1557.632
803.9868, 1556.910
804.4689, 1554.357
804.9510, 1547.232
805.4331, 1542.843
805.9152, 1554.192
806.3973, 1574.352
806.8795, 1582.251
807.3616, 1578.077
807.8437, 1568.901
808.3258, 1556.188
808.8079, 1548.819
809.2900, 1558.729
809.7722, 1582.746
810.2543, 1590.958
810.7364, 1576.996
811.2185, 1565.545
811.7006, 1560.686
812.1827, 1558.365
812.6649, 1554.772
813.1470, 1551.923
813.6291, 1556.283
814.1112, 1574.606
814.5933, 1581.997
815.0754, 1562.055
815.5576, 1544.286
816.0397, 1548.464
816.5218, 1561.435
817.0039, 1563.221
817.4860, 1551.691
817.9681, 1542.902
818.4503, 1549.241
818.9324, 1559.140
819.4145, 1560.359
819.8966, 1557.478
820.3787, 1560.880
820.8608, 1570.043
821.3430, 1573.266
821.8251, 1562.849
822.3072, 1548.295
822.7893, 1547.321
823.2714, 1557.993
823.7535, 1560.819
824.2357, 1553.855
824.7178, 1554.342
825.1999, 1571.266
825.6820, 1592.173
826.1641, 1601.405
826.6462, 1598.958
827.1284, 1594.501
827.6105, 1586.887
828.0926, 1579.341
828.5747, 1567.333
829.0568, 1560.614
829.5389, 1570.026
830.0211, 1588.748
830.5032, 1598.780
830.9853, 1593.168
831.4674, 1592.784
831.9495, 1611.234
832.4316, 1627.480
832.9138, 1626.764
833.3959, 1616.562
833.8780, 1605.351
834.3601, 1596.506
834.8422, 1597.773
835.3243, 1623.284
835.8065, 1650.918
836.2886, 1651.991
836.7707, 1639.537
837.2528, 1641.166
837.7349, 1657.613
838.2170, 1668.087
838.6992, 1659.802
839.1813, 1646.749
839.6634, 1654.139
840.1455, 1678.751
840.6276, 1696.067
841.1097, 1705.147
841.5919, 1708.951
842.0740, 1707.305
842.5561, 1705.477
843.0382, 1709.229
843.5203, 1718.378
844.0024, 1731.296
844.4846, 1753.117
844.9667, 1766.598
845.4488, 1763.406
845.9309, 1759.166
846.4130, 1763.248
846.8951, 1773.033
847.3773, 1784.240
847.8594, 1797.828
848.3415, 1808.803
848.8236, 1813.803
849.3057, 1819.151
849.7878, 1826.219
850.2700, 1836.014
850.7521, 1852.781
851.2342, 1874.313
851.7163, 1887.996
852.1984, 1882.631
852.6805, 1878.005
853.1627, 1893.181
853.6448, 1914.448
854.1269, 1921.121
854.6090, 1917.740
855.0911, 1924.422
855.5732, 1948.880
856.0554, 1976.647
856.5375, 1989.693
857.0196, 1994.811
857.5017, 2010.746
857.9838, 2035.367
858.4659, 2053.838
858.9481, 2062.763
859.4302, 2076.125
859.9123, 2105.832
860.3944, 2145.251
860.8765, 2174.762
861.3586, 2192.645
861.8408, 2215.921
862.3229, 2247.967
862.8050, 2276.609
863.2871, 2292.700
863.7692, 2308.747
864.2513, 2343.020
864.7335, 2396.832
865.2156, 2447.115
865.6977, 2487.437
866.1798, 2533.965
866.6619, 2593.619
867.1440, 2655.368
867.6262, 2712.720
868.1083, 2766.825
868.5904, 2820.118
869.0725, 2871.645
869.5546, 2927.028
870.0367, 2996.732
870.5189, 3060.164
871.0010, 3092.817
871.4831, 3120.219
871.9652, 3179.569
872.4473, 3270.104
872.9294, 3356.031
873.4116, 3420.924
873.8937, 3473.636
874.3758, 3514.637
874.8579, 3552.802
875.3400, 3603.356
875.8221, 3662.566
876.3043, 3717.220
876.7864, 3762.132
877.2685, 3795.392
877.7506, 3813.559
878.2327, 3819.616
878.7148, 3819.125
879.1970, 3812.513
879.6791, 3800.663
880.1612, 3783.989
880.6433, 3767.469
881.1254, 3755.659
881.6075, 3741.384
882.0897, 3708.445
882.5718, 3656.656
883.0539, 3600.370
883.5360, 3540.845
884.0181, 3470.341
884.5002, 3381.313
884.9824, 3292.932
885.4645, 3228.503
885.9466, 3184.800
886.4287, 3131.054
886.9108, 3064.471
887.3929, 2993.450
887.8751, 2913.161
888.3572, 2835.990
888.8393, 2768.213
889.3214, 2707.639
889.8035, 2653.020
890.2856, 2606.049
890.7678, 2552.326
891.2499, 2481.333
891.7320, 2416.402
892.2141, 2362.147
892.6962, 2318.064
893.1783, 2289.352
893.6605, 2269.548
894.1426, 2241.207
894.6247, 2197.445
895.1068, 2155.087
895.5889, 2124.376
896.0710, 2094.557
896.5532, 2053.887
897.0353, 2011.146
897.5174, 1980.232
897.9995, 1962.160
898.4816, 1947.292
898.9637, 1932.095
899.4459, 1914.569
899.9280, 1890.467
900.4101, 1864.333
900.8922, 1841.559
901.3743, 1822.900
901.8564, 1809.222
902.3386, 1800.482
902.8207, 1793.111
903.3028, 1784.284
903.7849, 1773.937
904.2670, 1761.587
904.7491, 1747.698
905.2313, 1734.989
905.7134, 1723.515
906.1955, 1708.270
906.6776, 1685.796
907.1597, 1663.444
907.6418, 1653.305
908.1240, 1654.710
908.6061, 1660.902
909.0882, 1672.131
909.5703, 1683.701
910.0524, 1695.132
910.5345, 1701.941
911.0167, 1699.859
911.4988, 1690.946
911.9809, 1680.377
912.4630, 1665.395
912.9451, 1663.082
913.4272, 1679.405
913.9094, 1693.398
914.3915, 1695.079
914.8736, 1693.543
915.3557, 1697.942
915.8378, 1708.440
916.3199, 1727.946
916.8021, 1766.618
917.2842, 1795.897
917.7663, 1804.739
918.2484, 1814.528
918.7305, 1837.550
919.2126, 1866.968
919.6948, 1893.815
920.1769, 1918.010
920.6590, 1937.571
921.1411, 1947.242
921.6232, 1959.037
922.1053, 1972.445
922.5875, 1992.141
923.0696, 2025.882
923.5517, 2067.738
924.0338, 2105.517
924.5159, 2137.881
924.9980, 2161.378
925.4802, 2169.063
925.9623, 2174.594
926.4444, 2191.652
926.9265, 2206.405
927.4086, 2199.140
927.8907, 2173.981
928.3729, 2152.556
928.8550, 2144.213
929.3371, 2136.601
929.8192, 2124.199
930.3013, 2106.936
930.7834, 2082.439
931.2656, 2053.992
931.7477, 2026.083
932.2298, 1999.987
932.7119, 1977.117
933.1940, 1959.800
933.6761, 1941.955
934.1583, 1912.322
934.6404, 1881.104
935.1225, 1866.703
935.6046, 1865.397
936.0867, 1864.576
936.5688, 1859.579
937.0510, 1848.524
937.5331, 1826.364
938.0152, 1802.449
938.4973, 1793.085
938.9794, 1794.649
939.4615, 1799.235
939.9437, 1804.972
940.4258, 1808.421
940.9079, 1808.066
941.3900, 1805.029
941.8721, 1799.966
942.3542, 1793.671
942.8364, 1786.933
943.3185, 1780.743
943.8006, 1781.871
944.2827, 1791.389
944.7648, 1809.554
945.2469, 1837.351
945.7290, 1866.389
946.2111, 1881.400
946.6932, 1884.393
947.1754, 1894.952
947.6575, 1913.348
948.1396, 1928.516
948.6217, 1936.976
949.1038, 1951.080
949.5859, 1980.377
950.0681, 2018.991
950.5502, 2053.328
951.0323, 2082.569
951.5144, 2116.962
951.9965, 2154.405
952.4786, 2209.885
952.9608, 2290.760
953.4429, 2379.698
953.9250, 2460.836
954.4071, 2539.683
954.8892, 2633.814
955.3713, 2742.260
955.8535, 2868.830
956.3356, 3014.420
956.8177, 3174.556
957.2998, 3348.633
957.7819, 3535.725
958.2640, 3735.206
958.7462, 3946.763
959.2283, 4170.597
959.7104, 4399.129
960.1925, 4658.357
960.6746, 4965.962
961.1567, 5274.073
961.6389, 5557.728
962.1210, 5841.788
962.6031, 6154.549
963.0852, 6493.224
963.5673, 6846.118
964.0494, 7215.833
964.5316, 7594.503
965.0137, 8001.660
965.4958, 8394.535
965.9779, 8761.536
966.4600, 9104.827
966.9421, 9461.048
967.4243, 9828.024
967.9064, 10024.43
968.3885, 10003.40
968.8706, 9875.036
969.3527, 9645.116
969.8348, 9315.661
970.3170, 8861.490
970.7991, 8321.931
971.2812, 7736.884
971.7633, 7108.586
972.2454, 6504.168
972.7275, 5921.327
973.2097, 5377.767
973.6918, 4872.325
974.1739, 4411.172
974.6560, 3996.268
975.1381, 3631.005
975.6202, 3326.750
976.1024, 3085.088
976.5845, 2872.308
977.0666, 2687.496
977.5487, 2522.772
978.0308, 2375.177
978.5129, 2247.579
978.9951, 2149.857
979.4772, 2070.410
979.9593, 1986.622
980.4414, 1893.975
980.9235, 1818.410
981.4056, 1779.801
981.8878, 1742.619
982.3699, 1686.161
982.8520, 1632.964
983.3341, 1605.147
983.8162, 1593.239
984.2983, 1578.383
984.7805, 1557.313
985.2626, 1527.371
985.7447, 1477.779
986.2268, 1431.986
986.7089, 1400.545
987.1910, 1376.951
987.6732, 1358.386
988.1553, 1341.892
988.6374, 1322.713
989.1195, 1299.658
989.6016, 1276.264
990.0837, 1254.412
990.5659, 1231.757
991.0480, 1201.773
991.5301, 1174.928
992.0122, 1165.329
992.4943, 1165.894
992.9764, 1158.200
993.4586, 1137.190
993.9407, 1117.916
994.4228, 1109.649
994.9049, 1101.432
995.3870, 1086.133
995.8691, 1069.167
996.3513, 1055.464
996.8334, 1044.841
997.3155, 1035.114
997.7976, 1025.597
998.2797, 1019.674
998.7618, 1022.179
999.2440, 1024.669
999.7261, 1026.009
1000.208, 1022.124
1000.690, 1003.052
1001.172, 976.9066
1001.655, 963.0322
1002.137, 966.9880
1002.619, 973.8263
1003.101, 981.7742
1003.583, 984.6564
1004.065, 972.2048
1004.547, 958.6495
1005.029, 961.7448
1005.511, 974.7734
1005.994, 978.9009
1006.476, 969.1146
1006.958, 958.7849
1007.440, 952.9883
1007.922, 949.3722
1008.404, 949.7392
1008.886, 949.1005
1009.368, 940.0655
1009.851, 926.9057
1010.333, 919.8574
1010.815, 921.4343
1011.297, 924.3229
1011.779, 927.1420
1012.261, 928.3834
1012.743, 928.2077
1013.225, 925.3262
1013.707, 916.0516
1014.190, 903.9921
1014.672, 895.9146
1015.154, 893.2975
1015.636, 894.3871
1016.118, 906.9864
1016.600, 912.1482
1017.082, 890.9387
1017.564, 868.6002
1018.047, 870.3105
1018.529, 884.9901
1019.011, 887.1850
1019.493, 872.6297
1019.975, 867.1578
1020.457, 889.8363
1020.939, 908.8181
1021.421, 912.0057
1021.903, 907.3035
1022.386, 897.4786
1022.868, 885.4639
1023.350, 872.6007
1023.832, 859.6558
1024.314, 856.8477
1024.796, 879.9917
1025.278, 895.1076
1025.760, 884.8536
1026.243, 871.6938
1026.725, 870.2196
1027.207, 875.0020
1027.689, 877.1590
1028.171, 876.0249
1028.653, 876.5201
1029.135, 882.1050
1029.617, 885.6730
1030.099, 884.2202
1030.582, 882.3139
1031.064, 884.1035
1031.546, 885.7423
1032.028, 881.0415
1032.510, 870.5732
1032.992, 863.1777
1033.474, 857.1554
1033.956, 858.6558
1034.438, 881.6910
1034.921, 896.2465
1035.403, 881.8099
1035.885, 858.3580
1036.367, 846.4029
1036.849, 845.0017
1037.331, 845.4636
1037.813, 849.3986
1038.295, 851.6272
1038.778, 850.2386
1039.260, 849.6854
1039.742, 852.7292
1040.224, 855.8046
1040.706, 855.9155
1041.188, 853.4322
1041.670, 849.2930
1042.152, 841.0829
1042.635, 838.6216
1043.117, 846.2892
1043.599, 851.3624
1044.081, 848.5771
1044.563, 845.3787
1045.045, 848.3564
1045.527, 854.5076
1046.009, 856.3184
1046.491, 853.3871
1046.974, 848.1035
1047.456, 838.6884
1047.938, 831.6644
1048.420, 827.5060
1048.902, 828.7520
1049.384, 839.5238
1049.866, 852.6899
1050.348, 854.3517
1050.830, 844.4758
1051.313, 837.8535
1051.795, 834.6385
1052.277, 834.2196
1052.759, 837.2040
1053.241, 839.5670
1053.723, 839.2961
1054.205, 836.9316
1054.687, 832.9942
1055.169, 827.7455
1055.652, 822.3228
1056.134, 816.7246
1056.616, 811.9917
1057.098, 808.1026
1057.580, 810.8250
1058.062, 823.1694
1058.544, 833.9249
1059.026, 829.7089
1059.509, 818.3348
1059.991, 824.7652
1060.473, 844.7321
1060.955, 851.6395
1061.437, 844.9761
1061.919, 836.6432
1062.401, 830.4785
1062.883, 825.8218
1063.365, 821.9076
1063.848, 820.0096
1064.330, 823.4643
1064.812, 830.1928
1065.294, 835.9229
1065.776, 839.9021
1066.258, 839.6360
1066.740, 835.2383
1067.222, 830.4265
1067.704, 827.3209
1068.187, 824.0237
1068.669, 814.4955
1069.151, 806.5193
1069.633, 817.1581
1070.115, 835.1781
1070.597, 836.7277
1071.079, 823.8466
1071.561, 816.2488
1072.044, 821.6072
1072.526, 826.9503
1073.008, 822.1304
1073.490, 813.7948
1073.972, 804.2094
1074.454, 796.9433
1074.936, 798.3812
1075.418, 804.6631
1075.901, 805.7783
1076.383, 800.1256
1076.865, 798.6196
1077.347, 810.4213
1077.829, 821.1354
1078.311, 825.4907
1078.793, 824.7994
1079.275, 816.0125
1079.757, 805.2095
1080.240, 800.9649
1080.722, 803.1564
1081.204, 804.3203
1081.686, 798.8259
1082.168, 801.0470
1082.650, 825.4006
1083.132, 843.3344
1083.614, 839.2245
1084.096, 827.0038
1084.579, 815.8759
1085.061, 807.5627
1085.543, 807.6161
1086.025, 819.8234
1086.507, 826.0460
1086.989, 823.6461
1087.471, 819.8828
1087.953, 814.9813
1088.436, 810.7889
1088.918, 808.1282
1089.400, 807.3345
1089.882, 809.8121
1090.364, 815.4068
1090.846, 815.0682
1091.328, 806.9299
1091.810, 802.4146
1092.292, 803.5864
1092.775, 804.7592
1093.257, 803.6723
1093.739, 800.5640
1094.221, 795.2404
1094.703, 788.8342
1095.185, 784.7873
1095.667, 783.0787
1096.149, 784.5349
1096.631, 788.8375
1097.114, 790.5173
1097.596, 788.2455
1098.078, 787.4611
1098.560, 792.2959
1099.042, 798.6105
1099.524, 800.8305
1100.006, 799.4151
1100.488, 790.8679
1100.971, 780.6638
1101.453, 788.5439
1101.935, 811.4178
1102.417, 822.2689
1102.899, 809.9476
1103.381, 797.0405
1103.863, 809.0709
1104.345, 823.0136
1104.828, 809.8177
1105.310, 788.8010
1105.792, 785.4196
1106.274, 793.9286
1106.756, 797.5661
1107.238, 793.5931
1107.720, 791.9122
1108.202, 798.2322
1108.684, 804.6566
1109.167, 810.5954
1109.649, 812.0720
1110.131, 800.1246
1110.613, 787.2089
1111.095, 790.1011
1111.577, 804.6946
1112.059, 812.2369
1112.541, 808.8597
1113.023, 804.2004
1113.506, 797.2119
1113.988, 791.8787
1114.470, 786.2925
1114.952, 786.1325
1115.434, 798.7885
1115.916, 815.6545
1116.398, 822.5685
1116.880, 819.8200
1117.363, 818.2017
1117.845, 820.0442
1118.327, 812.3127
1118.809, 790.7354
1119.291, 772.7105
1119.773, 764.1097
1120.255, 765.6375
1120.737, 779.7140
1121.219, 800.1653
1121.702, 812.5540
1122.184, 816.8947
1122.666, 808.8956
1123.148, 790.7646
1123.630, 781.3237
1124.112, 783.7335
1124.594, 787.2565
1125.076, 785.9301
1125.558, 785.3444
1126.041, 794.8665
1126.523, 806.6256
1127.005, 807.0547
1127.487, 800.5468
1127.969, 791.6191
1128.451, 783.7709
1128.933, 787.0673
1129.415, 801.6044
1129.898, 806.6158
1130.380, 784.5901
1130.862, 764.5009
1131.344, 769.4830
1131.826, 778.5062
1132.308, 775.0518
1132.790, 766.7608
1133.272, 762.6789
1133.755, 763.2162
1134.237, 765.5868
1134.719, 768.9713
1135.201, 775.8536
1135.683, 795.3582
1136.165, 805.8658
1136.647, 793.9438
1137.129, 781.7180
1137.611, 782.2883
1138.094, 787.5102
1138.576, 785.7560
1139.058, 777.9605
1139.540, 773.0339
1140.022, 770.5135
1140.504, 774.3691
1140.986, 786.7598
1141.468, 795.0079
1141.950, 795.3709
1142.433, 788.7377
1142.915, 774.0969
1143.397, 760.1348
1143.879, 766.1299
1144.361, 786.2804
1144.843, 796.2286
1145.325, 797.1587
1145.807, 789.9336
1146.290, 777.7445
1146.772, 775.6685
1147.254, 788.5667
1147.736, 800.0040
1148.218, 795.9149
1148.700, 786.1536
1149.182, 776.9272
1149.664, 771.4918
1150.146, 777.2667
1150.629, 787.7041
1151.111, 792.0479
1151.593, 790.0486
1152.075, 788.0090
1152.557, 787.9063
1153.039, 787.3999
1153.521, 788.2585
1154.003, 785.0920
1154.485, 768.6166
1154.968, 754.9568
1155.450, 759.2845
1155.932, 771.6047
1156.414, 775.2368
1156.896, 770.8908
1157.378, 770.2853
1157.860, 774.9700
1158.342, 779.3167
1158.825, 784.7301
1159.307, 782.7435
1159.789, 768.3546
1160.271, 757.2330
1160.753, 761.9259
1161.235, 774.4330
1161.717, 780.5620
1162.199, 781.2977
1162.682, 781.7925
1163.164, 781.5315
1163.646, 776.1426
1164.128, 766.8300
1164.610, 762.7983
1165.092, 766.8892
1165.574, 773.0782
1166.056, 777.8793
1166.538, 780.1172
1167.021, 777.4525
1167.503, 772.6618
1167.985, 766.4117
1168.467, 761.5541
1168.949, 763.6190
1169.431, 770.3932
1169.913, 774.0391
1170.395, 772.5703
1170.877, 769.4335
1171.360, 762.9575
1171.842, 758.8015
1172.324, 757.5800
1172.806, 760.0723
1173.288, 769.3227
1173.770, 780.0431
1174.252, 787.8921
1174.734, 791.9637
1175.217, 787.1344
1175.699, 770.5889
1176.181, 761.0296
1176.663, 758.6915
1177.145, 763.5535
1177.627, 776.4645
1178.109, 783.3751
1178.591, 776.2808
1179.073, 765.7740
1179.556, 764.7383
1180.038, 768.3817
1180.520, 766.2692
1181.002, 760.8156
1181.484, 756.2548
1181.966, 753.6702
1182.448, 756.9690
1182.930, 764.6343
1183.412, 766.2084
1183.895, 756.0807
1184.377, 746.9847
1184.859, 748.2201
1185.341, 750.9442
1185.823, 749.6763
1186.305, 748.0724
1186.787, 751.4458
1187.269, 755.4493
1187.752, 749.8473
1188.234, 735.5554
1188.716, 733.3813
1189.198, 752.5349
1189.680, 762.5320
1190.162, 759.7645
1190.644, 757.8832
1191.126, 761.4274
1191.609, 761.7209
1192.091, 752.3007
1192.573, 740.3535
1193.055, 736.5987
1193.537, 739.3293
1194.019, 743.5552
1194.501, 748.5787
1194.983, 752.9381
1195.465, 755.2435
1195.948, 746.8430
1196.430, 729.0162
1196.912, 722.7379
1197.394, 741.0366
1197.876, 760.3118
1198.358, 759.5267
1198.840, 753.7396
1199.322, 754.8528
1199.804, 756.8211
1200.287, 752.4987
1200.769, 744.8926
1201.251, 739.6059
1201.733, 737.2261
1202.215, 736.2563
1202.697, 736.5613
1203.179, 738.4605
1203.661, 743.8822
1204.144, 746.9188
1204.626, 746.0649
1205.108, 742.2751
1205.590, 734.7854
1206.072, 728.8212
1206.554, 733.2278
1207.036, 744.2862
1207.518, 746.6131
1208.000, 742.1963
1208.483, 742.1577
1208.965, 746.1679
1209.447, 749.1380
##END=



