##NAMES=Diegogattaite
##RRUFFID=R120156
##IDEAL CHEMISTRY=Na_2_CaCu^2+^_2_Si_8_O_20_&#183;H_2_O
##LOCALITY=Wessels mine, Kalahari manganese field, Northern Cape Province, South Africa
##OWNER=RRUFF
##SOURCE=Marcus Origlieri
##DESCRIPTION=Lighter greenish blue massive, associated with darker blue wesselsite and quartz
##STATUS=The identification of this mineral is confirmed by single-crystal X-ray diffraction and chemical analysis.
##URL=rruff.info/R120156
##MEASURED CHEMISTRY=(Na_1.98_Mg_0.01_)_Σ=1.99_(Ca_0.98_Cu_0.02_)_Σ=1.00_Cu_2.00_Si_8_O_20.00_·H_2_O; The mineral is medium gray, associated with wesselsite (white) and quartz (dark gray); Normalized to 8 Si atoms; water assumed from crystal structure solution
93.97052, 101.4862
94.45264, 98.02782
94.93475, 93.03945
95.41687, 88.42754
95.89898, 84.01115
96.38110, 80.06950
96.86321, 76.93034
97.34533, 74.66762
97.82745, 72.88716
98.30956, 71.05977
98.79168, 69.01669
99.27380, 67.13950
99.75591, 65.48803
100.2380, 64.03635
100.7201, 62.77011
101.2023, 61.68910
101.6844, 60.79330
102.1665, 59.98867
102.6486, 59.31350
103.1307, 58.68679
103.6128, 58.01687
104.0950, 57.27589
104.5771, 56.59829
105.0592, 56.15188
105.5413, 55.80350
106.0234, 55.35358
106.5055, 54.67359
106.9877, 53.81324
107.4698, 52.96358
107.9519, 52.03657
108.4340, 51.23597
108.9161, 50.67853
109.3982, 50.30625
109.8804, 49.98065
110.3625, 49.52983
110.8446, 48.86694
111.3267, 48.55409
111.8088, 48.78294
112.2909, 49.16664
112.7731, 49.58640
113.2552, 49.99598
113.7373, 50.37196
114.2194, 50.66273
114.7015, 50.69250
115.1836, 50.98685
115.6658, 51.82508
116.1479, 52.78976
116.6300, 53.50629
117.1121, 53.84655
117.5942, 53.86333
118.0763, 53.61431
118.5584, 53.04317
119.0406, 52.40696
119.5227, 51.70592
120.0048, 50.98421
120.4869, 50.35553
120.9690, 49.86723
121.4511, 49.52803
121.9333, 49.31667
122.4154, 49.31505
122.8975, 49.30040
123.3796, 49.07275
123.8617, 48.61466
124.3438, 48.08685
124.8260, 47.57500
125.3081, 47.02873
125.7902, 46.35359
126.2723, 45.45309
126.7544, 44.49334
127.2365, 43.90156
127.7187, 43.96767
128.2008, 43.92145
128.6829, 43.57560
129.1650, 42.98901
129.6471, 42.22576
130.1292, 41.30320
130.6114, 40.23545
131.0935, 39.22994
131.5756, 38.36671
132.0577, 37.48587
132.5398, 36.48578
133.0219, 35.42546
133.5041, 34.45376
133.9862, 33.70262
134.4683, 33.20474
134.9504, 32.72855
135.4325, 32.18260
135.9146, 31.72109
136.3968, 31.49114
136.8789, 31.48364
137.3610, 31.51239
137.8431, 31.34961
138.3252, 30.93476
138.8073, 30.64269
139.2895, 30.64692
139.7716, 30.72388
140.2537, 30.56852
140.7358, 30.07364
141.2179, 29.50710
141.7000, 29.23839
142.1821, 29.23636
142.6643, 29.26269
143.1464, 29.21582
143.6285, 29.11849
144.1106, 29.06027
144.5927, 29.10105
145.0748, 29.13828
145.5570, 29.08484
146.0391, 28.93982
146.5212, 28.75402
147.0033, 28.54090
147.4854, 28.28937
147.9675, 28.11744
148.4497, 28.13001
148.9318, 28.17917
149.4139, 28.21658
149.8960, 28.22542
150.3781, 28.16825
150.8602, 27.96164
151.3424, 27.47750
151.8245, 27.12387
152.3066, 26.91400
152.7887, 26.83110
153.2708, 26.89618
153.7529, 27.11121
154.2351, 27.41038
154.7172, 27.63298
155.1993, 27.85581
155.6814, 27.87915
156.1635, 27.48974
156.6456, 26.95844
157.1278, 26.62399
157.6099, 26.66242
158.0920, 26.97948
158.5741, 27.17936
159.0562, 27.20022
159.5383, 27.19372
160.0205, 27.14514
160.5026, 27.09090
160.9847, 27.14363
161.4668, 27.42159
161.9489, 27.81857
162.4310, 27.88934
162.9131, 27.40386
163.3953, 26.84422
163.8774, 26.48083
164.3595, 26.29810
164.8416, 26.15742
165.3237, 26.01607
165.8058, 25.84449
166.2880, 25.57058
166.7701, 25.00424
167.2522, 24.47524
167.7343, 24.46801
168.2164, 25.11185
168.6985, 25.66219
169.1807, 25.55266
169.6628, 25.11933
170.1449, 24.74386
170.6270, 24.57442
171.1091, 24.54724
171.5912, 24.51082
172.0734, 24.42412
172.5555, 24.41151
173.0376, 24.56218
173.5197, 24.79593
174.0018, 24.99910
174.4839, 25.09887
174.9661, 25.11389
175.4482, 25.15732
175.9303, 25.27927
176.4124, 25.37304
176.8945, 25.39777
177.3766, 25.37556
177.8588, 25.34842
178.3409, 25.35012
178.8230, 25.38116
179.3051, 25.36854
179.7872, 25.30266
180.2693, 25.20339
180.7515, 25.00833
181.2336, 24.77307
181.7157, 24.63519
182.1978, 24.73046
182.6799, 25.09842
183.1620, 25.30343
183.6441, 25.14170
184.1263, 25.03309
184.6084, 25.22389
185.0905, 25.69076
185.5726, 26.21869
186.0547, 26.60209
186.5368, 26.81240
187.0190, 27.12958
187.5011, 27.67756
187.9832, 28.23810
188.4653, 28.66618
188.9474, 28.94276
189.4296, 29.10905
189.9117, 29.19666
190.3938, 29.20023
190.8759, 29.10273
191.3580, 28.86362
191.8401, 28.53986
192.3223, 28.16735
192.8044, 27.73529
193.2865, 27.32935
193.7686, 27.05110
194.2507, 26.86910
194.7328, 26.71317
195.2150, 26.52753
195.6971, 26.35841
196.1792, 26.28971
196.6613, 26.32187
197.1434, 26.47817
197.6255, 26.79430
198.1077, 27.23729
198.5898, 27.73180
199.0719, 28.27574
199.5540, 28.85107
200.0361, 29.37542
200.5182, 29.84440
201.0004, 30.26019
201.4825, 30.69307
201.9646, 31.09120
202.4467, 31.31978
202.9288, 31.22209
203.4109, 30.82147
203.8930, 30.52118
204.3752, 30.46902
204.8573, 30.36691
205.3394, 30.10648
205.8215, 29.70749
206.3036, 29.22955
206.7857, 28.71113
207.2679, 28.14993
207.7500, 27.59414
208.2321, 26.97946
208.7142, 26.43031
209.1963, 26.01616
209.6784, 25.71066
210.1606, 25.44035
210.6427, 25.14245
211.1248, 24.81618
211.6069, 24.48369
212.0890, 24.07380
212.5711, 23.72324
213.0533, 23.49146
213.5354, 23.37127
214.0175, 23.31690
214.4996, 23.28669
214.9817, 23.27539
215.4638, 23.33848
215.9460, 23.50358
216.4281, 23.69986
216.9102, 23.96537
217.3923, 24.25641
217.8744, 24.42318
218.3565, 24.30187
218.8387, 23.84341
219.3208, 23.53374
219.8029, 23.52656
220.2850, 23.52386
220.7671, 23.32521
221.2492, 22.93513
221.7314, 22.50658
222.2135, 22.16887
222.6956, 21.93023
223.1777, 21.66539
223.6598, 21.29679
224.1419, 20.95762
224.6240, 20.77082
225.1062, 20.73647
225.5883, 20.73461
226.0704, 20.67341
226.5525, 20.55842
227.0346, 20.45119
227.5167, 20.31334
227.9989, 20.21118
228.4810, 20.21518
228.9631, 20.33000
229.4452, 20.49912
229.9273, 20.73021
230.4094, 20.98342
230.8916, 21.14860
231.3737, 21.10549
231.8558, 21.02197
232.3379, 21.12727
232.8200, 21.45441
233.3021, 21.73713
233.7843, 21.71583
234.2664, 21.55558
234.7485, 21.50265
235.2306, 21.60919
235.7127, 21.85769
236.1948, 22.29074
236.6770, 22.98026
237.1591, 23.56352
237.6412, 23.70543
238.1233, 23.68368
238.6054, 23.80472
239.0875, 24.18875
239.5697, 24.71810
240.0518, 25.20227
240.5339, 25.61883
241.0160, 26.07023
241.4981, 26.63290
241.9802, 27.23311
242.4624, 27.83976
242.9445, 28.47285
243.4266, 29.00557
243.9087, 29.18949
244.3908, 28.91962
244.8729, 28.57565
245.3550, 28.27411
245.8372, 27.94662
246.3193, 27.53347
246.8014, 27.01320
247.2835, 26.40707
247.7656, 25.71894
248.2477, 24.88205
248.7299, 24.13085
249.2120, 23.52506
249.6941, 22.99899
250.1762, 22.53171
250.6583, 22.11172
251.1404, 21.69188
251.6226, 21.16660
252.1047, 20.43564
252.5868, 19.83927
253.0689, 19.49831
253.5510, 19.22052
254.0331, 18.86044
254.5153, 18.38587
254.9974, 17.87409
255.4795, 17.42203
255.9616, 16.97674
256.4437, 16.73064
256.9258, 16.77527
257.4080, 16.91322
257.8901, 17.06573
258.3722, 17.19424
258.8543, 17.24750
259.3364, 17.13666
259.8185, 16.74832
260.3007, 16.48409
260.7828, 16.36546
261.2649, 16.32252
261.7470, 16.35170
262.2291, 16.43044
262.7112, 16.48837
263.1934, 16.42646
263.6755, 16.16047
264.1576, 16.09592
264.6397, 16.45716
265.1218, 16.79268
265.6039, 16.83846
266.0861, 16.60028
266.5682, 16.24118
267.0503, 15.89841
267.5324, 15.55080
268.0145, 15.39090
268.4966, 15.53219
268.9788, 15.71600
269.4609, 15.85170
269.9430, 15.92204
270.4251, 15.92403
270.9072, 15.85067
271.3893, 15.70034
271.8715, 15.52679
272.3536, 15.11928
272.8357, 14.89520
273.3178, 15.24793
273.7999, 15.96454
274.2820, 16.44099
274.7642, 16.22707
275.2463, 15.39847
275.7284, 14.90070
276.2105, 14.91515
276.6926, 14.97445
277.1747, 14.90869
277.6568, 14.76803
278.1389, 14.68166
278.6211, 14.72483
279.1032, 14.86754
279.5853, 14.98430
280.0674, 15.08949
280.5495, 15.15959
281.0316, 15.15809
281.5138, 15.12108
281.9959, 15.11812
282.4780, 15.18343
282.9601, 15.28542
283.4422, 15.33846
283.9243, 15.31134
284.4065, 15.30283
284.8886, 15.38503
285.3707, 15.48445
285.8528, 15.45913
286.3349, 15.24700
286.8170, 14.99553
287.2992, 14.98842
287.7813, 15.33099
288.2634, 15.53858
288.7455, 15.44479
289.2276, 15.21216
289.7097, 15.01691
290.1919, 14.89718
290.6740, 14.84912
291.1561, 14.91087
291.6382, 15.11415
292.1203, 15.15560
292.6024, 14.83454
293.0846, 14.43448
293.5667, 14.25382
294.0488, 14.32766
294.5309, 14.45521
295.0130, 14.44151
295.4951, 14.28594
295.9773, 14.22304
296.4594, 14.36333
296.9415, 14.52488
297.4236, 14.56947
297.9057, 14.49473
298.3878, 14.35459
298.8700, 14.13637
299.3521, 13.88594
299.8342, 13.82959
300.3163, 14.21160
300.7984, 14.56215
301.2805, 14.56150
301.7627, 14.27194
302.2448, 13.98068
302.7269, 13.81643
303.2090, 13.77113
303.6911, 13.80426
304.1732, 13.96511
304.6554, 14.11626
305.1375, 14.16068
305.6196, 14.14627
306.1017, 14.22439
306.5838, 14.49278
307.0659, 14.80336
307.5481, 14.82251
308.0302, 14.47071
308.5123, 14.20918
308.9944, 14.24625
309.4765, 14.45757
309.9586, 14.64625
310.4408, 14.76842
310.9229, 14.83220
311.4050, 14.83463
311.8871, 14.77763
312.3692, 14.69469
312.8513, 14.56067
313.3335, 14.41845
313.8156, 14.31200
314.2977, 14.24752
314.7798, 14.22898
315.2619, 14.29442
315.7440, 14.43147
316.2262, 14.46899
316.7083, 14.32060
317.1904, 14.11879
317.6725, 13.94708
318.1546, 13.81269
318.6367, 13.74626
319.1188, 13.79471
319.6010, 13.92816
320.0831, 13.99350
320.5652, 13.93170
321.0473, 13.86317
321.5294, 13.85054
322.0115, 13.88539
322.4937, 13.94508
322.9758, 14.03190
323.4579, 14.12145
323.9400, 14.13518
324.4221, 13.99939
324.9042, 13.95445
325.3864, 14.16414
325.8685, 14.51129
326.3506, 14.77385
326.8327, 14.87730
327.3148, 14.89676
327.7969, 14.93819
328.2791, 15.00135
328.7612, 15.07853
329.2433, 15.19455
329.7254, 15.31169
330.2075, 15.36289
330.6896, 15.33655
331.1718, 15.33340
331.6539, 15.48358
332.1360, 15.80145
332.6181, 15.98857
333.1002, 15.94839
333.5823, 15.83989
334.0645, 15.77918
334.5466, 15.76516
335.0287, 15.73251
335.5108, 15.63831
335.9929, 15.48411
336.4750, 15.30480
336.9572, 15.07638
337.4393, 14.84906
337.9214, 14.60829
338.4035, 14.38254
338.8856, 14.24301
339.3677, 14.22552
339.8499, 14.30670
340.3320, 14.44698
340.8141, 14.77405
341.2962, 14.92702
341.7783, 14.67774
342.2604, 14.27374
342.7426, 14.05816
343.2247, 14.12996
343.7068, 14.30449
344.1889, 14.33101
344.6710, 14.15543
345.1531, 13.95935
345.6353, 13.67193
346.1174, 13.41533
346.5995, 13.28751
347.0816, 13.29313
347.5637, 13.38344
348.0458, 13.53662
348.5280, 13.76026
349.0101, 13.84271
349.4922, 13.69233
349.9743, 13.51939
350.4564, 13.40005
350.9385, 13.32926
351.4207, 13.27301
351.9028, 13.20766
352.3849, 13.15146
352.8670, 13.18683
353.3491, 13.40360
353.8312, 13.59978
354.3134, 13.72899
354.7955, 13.83368
355.2776, 13.97981
355.7597, 14.18764
356.2418, 14.39786
356.7239, 14.50495
357.2061, 14.41857
357.6882, 14.41267
358.1703, 14.51571
358.6524, 14.66930
359.1345, 14.83367
359.6166, 15.00635
360.0987, 15.21218
360.5808, 15.48847
361.0630, 15.85251
361.5451, 16.11553
362.0272, 16.14482
362.5093, 16.21669
362.9914, 16.48427
363.4735, 16.85871
363.9557, 17.15509
364.4378, 17.25685
364.9199, 17.21081
365.4020, 17.21177
365.8841, 17.22776
366.3662, 17.34751
366.8484, 17.59339
367.3305, 17.93376
367.8126, 18.39047
368.2947, 18.95398
368.7768, 19.49780
369.2589, 19.77769
369.7411, 19.60535
370.2232, 19.68825
370.7053, 20.20698
371.1874, 20.83641
371.6695, 21.44387
372.1516, 22.00757
372.6338, 22.56714
373.1159, 23.18906
373.5980, 23.86469
374.0801, 24.31570
374.5622, 24.30698
375.0443, 24.35650
375.5265, 24.71724
376.0086, 25.22695
376.4907, 25.64097
376.9728, 25.85071
377.4549, 25.87980
377.9370, 25.76378
378.4192, 25.46558
378.9013, 25.12488
379.3834, 24.81147
379.8655, 24.45248
380.3476, 23.96437
380.8297, 23.33244
381.3119, 22.66488
381.7940, 22.06984
382.2761, 21.54495
382.7582, 21.03172
383.2403, 20.52805
383.7224, 20.02917
384.2046, 19.49921
384.6867, 18.96303
385.1688, 18.49508
385.6509, 18.22321
386.1330, 18.03694
386.6151, 17.60810
387.0973, 16.82384
387.5794, 16.21125
388.0615, 16.27386
388.5436, 16.64565
389.0257, 16.80208
389.5078, 16.55746
389.9900, 16.23838
390.4721, 16.15522
390.9542, 16.27520
391.4363, 16.33094
391.9184, 16.18807
392.4005, 16.00379
392.8827, 16.00828
393.3648, 16.21101
393.8469, 16.41858
394.3290, 16.55441
394.8111, 16.64871
395.2932, 16.72922
395.7754, 16.79527
396.2575, 16.91026
396.7396, 17.17547
397.2217, 17.56657
397.7038, 17.81511
398.1859, 17.77152
398.6681, 17.70582
399.1501, 17.81648
399.6323, 18.06239
400.1144, 18.27803
400.5965, 18.37447
401.0786, 18.39718
401.5607, 18.47718
402.0428, 18.64356
402.5250, 18.80584
403.0071, 18.97835
403.4892, 19.12514
403.9713, 19.20053
404.4534, 19.19500
404.9355, 19.13829
405.4177, 19.07189
405.8998, 19.01589
406.3819, 18.83001
406.8640, 18.42772
407.3461, 17.99709
407.8282, 17.61952
408.3104, 17.28938
408.7925, 16.97106
409.2746, 16.63969
409.7567, 16.29925
410.2388, 15.96183
410.7209, 15.61699
411.2031, 15.29131
411.6852, 15.02590
412.1673, 14.75912
412.6494, 14.40027
413.1315, 13.93945
413.6136, 13.48700
414.0958, 13.19692
414.5779, 13.10427
415.0600, 13.02971
415.5421, 13.05513
416.0242, 13.02189
416.5063, 12.79705
416.9885, 12.45884
417.4706, 12.20539
417.9527, 12.18570
418.4348, 12.32012
418.9169, 12.32553
419.3990, 12.14014
419.8812, 11.96147
420.3633, 11.85321
420.8454, 11.77780
421.3275, 11.69590
421.8096, 11.59706
422.2917, 11.52282
422.7739, 11.55017
423.2560, 11.67044
423.7381, 11.69526
424.2202, 11.53693
424.7023, 11.35843
425.1844, 11.27471
425.6666, 11.27290
426.1487, 11.30935
426.6308, 11.39381
427.1129, 11.49352
427.5950, 11.56504
428.0771, 11.60887
428.5593, 11.61996
429.0414, 11.59603
429.5235, 11.53357
430.0056, 11.43149
430.4877, 11.26826
430.9698, 11.11441
431.4520, 10.98491
431.9341, 10.89283
432.4162, 10.87963
432.8983, 10.96318
433.3804, 11.07313
433.8625, 11.13163
434.3447, 11.13188
434.8268, 11.11695
435.3089, 11.04078
435.7910, 10.99003
436.2731, 11.04637
436.7552, 11.18361
437.2374, 11.31543
437.7195, 11.39725
438.2016, 11.42504
438.6837, 11.38032
439.1658, 11.08957
439.6479, 10.95022
440.1301, 11.12536
440.6122, 11.38630
441.0943, 11.51190
441.5764, 11.46191
442.0585, 11.34658
442.5406, 11.28123
443.0227, 11.26226
443.5049, 11.31942
443.9870, 11.57941
444.4691, 11.78437
444.9512, 11.82228
445.4333, 11.75678
445.9154, 11.69601
446.3976, 11.69477
446.8797, 11.73029
447.3618, 11.75681
447.8439, 11.77897
448.3260, 11.77781
448.8081, 11.68470
449.2903, 11.61509
449.7724, 11.66046
450.2545, 11.81664
450.7366, 11.99051
451.2187, 12.13879
451.7008, 12.25131
452.1830, 12.26812
452.6651, 12.15917
453.1472, 12.02671
453.6293, 11.88648
454.1114, 11.77157
454.5935, 11.74874
455.0757, 11.87353
455.5578, 12.01217
456.0399, 12.06373
456.5220, 12.03684
457.0041, 11.95285
457.4862, 11.78812
457.9684, 11.63140
458.4505, 11.62220
458.9326, 11.75761
459.4147, 11.87303
459.8968, 11.92140
460.3789, 11.95084
460.8611, 12.02001
461.3432, 12.11802
461.8253, 12.15967
462.3074, 12.07143
462.7895, 11.90870
463.2716, 11.90456
463.7538, 12.28585
464.2359, 12.51829
464.7180, 12.40587
465.2001, 12.19120
465.6822, 12.13799
466.1643, 12.28791
466.6465, 12.48693
467.1286, 12.56917
467.6107, 12.52556
468.0928, 12.45539
468.5749, 12.29429
469.0570, 12.17571
469.5392, 12.20393
470.0213, 12.27911
470.5034, 12.23729
470.9855, 12.00215
471.4676, 11.68776
471.9497, 11.49372
472.4319, 11.43995
472.9140, 11.42030
473.3961, 11.45353
473.8782, 11.49039
474.3603, 11.51096
474.8424, 11.51197
475.3246, 11.48850
475.8067, 11.41270
476.2888, 11.31929
476.7709, 11.28919
477.2530, 11.33058
477.7351, 11.38332
478.2173, 11.40507
478.6994, 11.43199
479.1815, 11.54108
479.6636, 11.77885
480.1457, 11.93802
480.6278, 11.83285
481.1100, 11.59923
481.5920, 11.47887
482.0742, 11.51478
482.5563, 11.64604
483.0384, 11.85543
483.5205, 12.13526
484.0026, 12.27904
484.4847, 12.21307
484.9669, 12.10048
485.4490, 11.96934
485.9311, 11.84430
486.4132, 11.76686
486.8953, 11.75185
487.3774, 11.77365
487.8596, 11.78975
488.3417, 11.79006
488.8238, 11.81394
489.3059, 11.91484
489.7880, 11.98472
490.2701, 11.93266
490.7523, 11.80804
491.2344, 11.73072
491.7165, 11.77946
492.1986, 11.90431
492.6807, 11.96937
493.1628, 11.96175
493.6450, 11.92955
494.1271, 11.82837
494.6092, 11.74551
495.0913, 11.75617
495.5734, 11.85601
496.0555, 11.96193
496.5377, 12.03011
497.0198, 12.05934
497.5019, 12.02548
497.9840, 11.90736
498.4661, 11.82593
498.9482, 11.87083
499.4304, 11.98771
499.9125, 12.06851
500.3946, 12.09555
500.8767, 12.11725
501.3588, 12.19143
501.8409, 12.26800
502.3231, 12.23129
502.8052, 12.05608
503.2873, 11.87816
503.7694, 11.82877
504.2515, 11.91344
504.7336, 11.99250
505.2158, 12.09026
505.6979, 12.15639
506.1800, 12.12625
506.6621, 12.06698
507.1442, 12.09016
507.6263, 12.23327
508.1085, 12.42650
508.5906, 12.56106
509.0727, 12.61846
509.5548, 12.68427
510.0369, 12.80108
510.5190, 12.88319
511.0012, 12.84707
511.4833, 12.75910
511.9654, 12.76064
512.4475, 12.94247
512.9296, 13.17972
513.4117, 13.22914
513.8939, 13.06362
514.3760, 12.91971
514.8581, 12.85042
515.3402, 12.81770
515.8223, 12.81517
516.3044, 12.83057
516.7866, 12.78863
517.2687, 12.58825
517.7508, 12.35303
518.2329, 12.25564
518.7150, 12.28911
519.1971, 12.33411
519.6793, 12.35059
520.1614, 12.32580
520.6435, 12.20307
521.1256, 11.91003
521.6077, 11.74408
522.0898, 11.87865
522.5720, 12.07445
523.0541, 12.11807
523.5362, 12.00811
524.0183, 11.85241
524.5004, 11.71698
524.9825, 11.61629
525.4647, 11.63059
525.9468, 11.88665
526.4289, 12.07864
526.9110, 12.16846
527.3931, 12.19658
527.8752, 12.17692
528.3574, 12.12304
528.8395, 12.06959
529.3216, 12.04823
529.8037, 12.05402
530.2858, 12.04239
530.7679, 11.96940
531.2501, 11.98205
531.7322, 12.22396
532.2143, 12.54632
532.6964, 12.82969
533.1785, 13.06880
533.6606, 13.17710
534.1428, 13.00404
534.6249, 12.67859
535.1070, 12.50387
535.5891, 12.53040
536.0712, 12.53698
536.5533, 12.32446
537.0355, 11.94625
537.5176, 11.74107
537.9997, 11.84371
538.4818, 11.93683
538.9639, 11.94363
539.4460, 11.88591
539.9282, 11.75875
540.4103, 11.57635
540.8924, 11.42419
541.3745, 11.40044
541.8566, 11.50965
542.3387, 11.58885
542.8209, 11.61179
543.3029, 11.63392
543.7850, 11.70401
544.2672, 11.76076
544.7493, 11.71591
545.2314, 11.55114
545.7135, 11.36520
546.1956, 11.28331
546.6777, 11.29280
547.1599, 11.22930
547.6420, 11.02638
548.1241, 10.87336
548.6062, 10.96154
549.0883, 11.16272
549.5704, 11.26351
550.0526, 11.17886
550.5347, 11.09653
551.0168, 11.18964
551.4989, 11.36001
551.9810, 11.38254
552.4631, 11.20762
552.9453, 10.98167
553.4274, 10.82164
553.9095, 10.72806
554.3916, 10.76237
554.8737, 11.09734
555.3558, 11.33406
555.8380, 11.27232
556.3201, 11.09389
556.8022, 11.03455
557.2843, 11.14890
557.7664, 11.31151
558.2485, 11.39467
558.7307, 11.39927
559.2128, 11.28161
559.6949, 10.88526
560.1770, 10.59645
560.6591, 10.60458
561.1412, 10.75101
561.6234, 10.84908
562.1055, 10.85067
562.5876, 10.81686
563.0697, 10.76507
563.5518, 10.71849
564.0339, 10.77802
564.5161, 10.97789
564.9982, 11.16956
565.4803, 11.24967
565.9624, 11.23067
566.4445, 11.19186
566.9266, 11.09320
567.4088, 11.03148
567.8909, 11.06279
568.3730, 11.13834
568.8551, 11.19375
569.3372, 11.21969
569.8193, 11.25938
570.3015, 11.36384
570.7836, 11.52490
571.2657, 11.57645
571.7478, 11.42942
572.2299, 11.28745
572.7120, 11.14088
573.1942, 11.03791
573.6763, 11.06250
574.1584, 11.20670
574.6405, 11.32057
575.1226, 11.22312
575.6047, 10.98035
576.0869, 10.87702
576.5690, 10.93806
577.0511, 11.03692
577.5332, 11.14480
578.0153, 11.23725
578.4974, 11.27244
578.9796, 11.23707
579.4617, 11.20192
579.9438, 11.13771
580.4259, 11.12078
580.9080, 11.29782
581.3901, 11.63925
581.8723, 11.92386
582.3544, 12.01030
582.8365, 11.93977
583.3186, 11.85108
583.8007, 11.71248
584.2828, 11.60455
584.7650, 11.49009
585.2471, 11.43628
585.7292, 11.52124
586.2113, 11.71048
586.6934, 11.88910
587.1755, 11.97369
587.6577, 12.02446
588.1398, 12.23270
588.6219, 12.65219
589.1040, 12.83856
589.5861, 12.50051
590.0682, 12.09700
590.5504, 12.04430
591.0325, 12.30614
591.5146, 12.66574
591.9967, 13.20672
592.4788, 13.69315
592.9609, 13.81955
593.4431, 13.71362
593.9252, 13.80414
594.4073, 14.26164
594.8894, 14.79491
595.3715, 14.97581
595.8536, 14.68480
596.3358, 14.58368
596.8179, 14.78945
597.3000, 15.02530
597.7821, 15.19444
598.2642, 15.33315
598.7463, 15.48234
599.2285, 15.65987
599.7106, 15.91139
600.1927, 16.32155
600.6748, 16.88536
601.1569, 17.41261
601.6390, 17.85962
602.1212, 18.34204
602.6033, 18.95057
603.0854, 19.62914
603.5675, 20.29010
604.0496, 20.93135
604.5317, 21.53884
605.0139, 22.07335
605.4960, 22.58783
605.9781, 23.20550
606.4602, 23.91754
606.9423, 24.53216
607.4244, 24.90752
607.9066, 25.07405
608.3887, 25.16884
608.8708, 25.14022
609.3529, 25.10941
609.8350, 25.26294
610.3171, 25.26957
610.7993, 24.82085
611.2814, 23.99582
611.7635, 23.12166
612.2456, 22.39833
612.7277, 21.76170
613.2098, 21.02278
613.6920, 20.15092
614.1741, 19.51309
614.6562, 19.29297
615.1383, 19.20896
615.6204, 18.98392
616.1025, 18.64050
616.5847, 18.30839
617.0668, 17.94980
617.5489, 17.67354
618.0310, 17.61327
618.5131, 17.67484
618.9952, 17.65512
619.4774, 17.49619
619.9595, 17.31161
620.4416, 17.23486
620.9237, 17.27169
621.4058, 17.32587
621.8879, 17.40937
622.3701, 17.49676
622.8522, 17.58233
623.3343, 17.66920
623.8164, 17.77099
624.2985, 17.88593
624.7806, 17.97536
625.2628, 18.01264
625.7448, 17.99952
626.2269, 17.92766
626.7090, 17.79202
627.1912, 17.65872
627.6733, 17.57022
628.1554, 17.48911
628.6375, 17.35528
629.1196, 17.19079
629.6017, 16.90443
630.0839, 16.35146
630.5660, 15.78848
631.0481, 15.38454
631.5302, 15.11547
632.0123, 14.89126
632.4944, 14.67173
632.9766, 14.47510
633.4587, 14.34398
633.9408, 14.29666
634.4229, 14.20979
634.9050, 13.97464
635.3871, 13.84629
635.8693, 14.08531
636.3514, 14.44157
636.8335, 14.49431
637.3156, 14.08290
637.7977, 13.64609
638.2798, 13.56978
638.7620, 13.66229
639.2441, 13.50478
639.7262, 13.06259
640.2083, 12.69844
640.6904, 12.66440
641.1725, 12.86361
641.6547, 12.97295
642.1368, 12.94249
642.6189, 12.88836
643.1010, 12.79257
643.5831, 12.68935
644.0652, 12.58265
644.5474, 12.48742
645.0295, 12.43870
645.5116, 12.46226
645.9937, 12.50657
646.4758, 12.45631
646.9579, 12.31321
647.4401, 12.32121
647.9222, 12.61739
648.4043, 12.85405
648.8864, 12.69266
649.3685, 12.25613
649.8506, 11.92764
650.3328, 11.71841
650.8149, 11.64721
651.2970, 11.80730
651.7791, 12.06359
652.2612, 12.27392
652.7433, 12.41242
653.2255, 12.49115
653.7076, 12.51207
654.1897, 12.49516
654.6718, 12.53172
655.1539, 12.69760
655.6360, 12.73174
656.1182, 12.43052
656.6003, 12.13099
657.0824, 12.03387
657.5645, 12.09474
658.0466, 12.15094
658.5287, 12.12354
659.0109, 12.09710
659.4930, 12.21407
659.9751, 12.39415
660.4572, 12.35338
660.9393, 12.02269
661.4214, 11.73835
661.9036, 11.81575
662.3857, 12.21543
662.8678, 12.50602
663.3499, 12.66243
663.8320, 12.73867
664.3141, 12.66370
664.7963, 12.56834
665.2784, 12.57419
665.7605, 12.66307
666.2426, 12.71713
666.7247, 12.64529
667.2068, 12.52877
667.6890, 12.53343
668.1711, 12.65467
668.6532, 12.71741
669.1353, 12.65138
669.6174, 12.59609
670.0995, 12.72765
670.5817, 13.01364
671.0638, 13.12885
671.5459, 12.92831
672.0280, 12.72894
672.5101, 12.58961
672.9922, 12.52679
673.4744, 12.61140
673.9565, 12.81058
674.4386, 12.95175
674.9207, 12.88884
675.4028, 12.69561
675.8849, 12.62655
676.3671, 12.71986
676.8492, 12.76582
677.3313, 12.69411
677.8134, 12.59606
678.2955, 12.54600
678.7776, 12.53146
679.2598, 12.50659
679.7419, 12.42032
680.2240, 12.37344
680.7061, 12.49774
681.1882, 12.67203
681.6703, 12.66169
682.1525, 12.45148
682.6346, 12.27245
683.1167, 12.32341
683.5988, 12.55110
684.0809, 12.68504
684.5630, 12.65172
685.0452, 12.68500
685.5273, 12.94323
686.0094, 13.16304
686.4915, 13.14545
686.9736, 12.95892
687.4557, 12.82872
687.9379, 12.87505
688.4200, 12.94009
688.9021, 12.83103
689.3842, 12.64205
689.8663, 12.60946
690.3484, 12.77359
690.8306, 13.00736
691.3127, 13.24191
691.7948, 13.44156
692.2769, 13.41801
692.7590, 12.90390
693.2411, 12.59547
693.7233, 12.63012
694.2054, 12.77011
694.6875, 12.92405
695.1696, 13.06071
695.6517, 13.13469
696.1339, 13.10971
696.6160, 13.06771
697.0981, 13.12438
697.5802, 13.24201
698.0623, 13.27057
698.5444, 13.18116
699.0266, 13.09793
699.5087, 13.11321
699.9908, 13.19843
700.4729, 13.24501
700.9550, 13.23204
701.4371, 13.21022
701.9193, 13.13491
702.4014, 13.09266
702.8835, 13.15227
703.3656, 13.28430
703.8477, 13.41925
704.3298, 13.52562
704.8120, 13.63519
705.2941, 13.81568
705.7762, 14.03899
706.2583, 14.16727
706.7404, 14.18395
707.2225, 14.11549
707.7046, 13.91900
708.1867, 13.69016
708.6688, 13.69195
709.1509, 14.04216
709.6331, 14.30834
710.1152, 14.40915
710.5973, 14.47145
711.0794, 14.56705
711.5615, 14.67852
712.0436, 14.76681
712.5258, 14.81781
713.0079, 14.83748
713.4900, 14.76793
713.9721, 14.65642
714.4542, 14.83067
714.9363, 15.36154
715.4185, 15.77065
715.9006, 15.78678
716.3827, 15.61338
716.8648, 15.59956
717.3469, 15.77783
717.8290, 15.90067
718.3112, 15.82182
718.7933, 15.81735
719.2754, 16.06976
719.7575, 16.46380
720.2396, 16.85151
720.7217, 17.18359
721.2039, 17.46121
721.6860, 17.68887
722.1681, 17.86249
722.6502, 17.94083
723.1323, 17.90775
723.6144, 17.92502
724.0966, 18.07463
724.5787, 18.24798
725.0608, 18.29705
725.5429, 18.22601
726.0250, 18.22985
726.5071, 18.52376
726.9893, 18.64882
727.4714, 18.33813
727.9535, 17.83203
728.4356, 17.35215
728.9177, 16.96012
729.3998, 16.68230
729.8820, 16.56331
730.3641, 16.52497
730.8462, 16.35262
731.3283, 16.03759
731.8104, 15.87039
732.2925, 15.96198
732.7747, 16.08647
733.2568, 16.09059
733.7389, 15.97074
734.2210, 15.73697
734.7031, 15.20464
735.1852, 14.84599
735.6674, 14.86341
736.1495, 15.00383
736.6316, 15.10062
737.1137, 15.13121
737.5958, 15.10448
738.0779, 15.02096
738.5601, 14.91828
739.0422, 14.84652
739.5243, 14.80486
740.0064, 14.79330
740.4885, 14.82237
740.9706, 14.83162
741.4528, 14.77390
741.9349, 14.68472
742.4170, 14.64191
742.8991, 14.64965
743.3812, 14.68301
743.8633, 14.82230
744.3455, 14.90147
744.8276, 14.75256
745.3097, 14.51668
745.7918, 14.42443
746.2739, 14.53387
746.7560, 14.69705
747.2382, 14.76949
747.7203, 14.78462
748.2024, 14.85312
748.6845, 14.97689
749.1666, 15.09236
749.6487, 15.20123
750.1309, 15.23366
750.6130, 15.06553
751.0951, 14.67804
751.5772, 14.47497
752.0593, 14.62809
752.5414, 14.72667
753.0236, 14.61195
753.5057, 14.45410
753.9878, 14.38582
754.4699, 14.42605
754.9520, 14.56142
755.4341, 14.82015
755.9163, 15.09581
756.3984, 15.25069
756.8805, 15.29419
757.3626, 15.23372
757.8447, 15.06178
758.3268, 14.92667
758.8090, 14.94153
759.2911, 15.06437
759.7732, 15.15670
760.2553, 15.23604
760.7374, 15.25102
761.2195, 15.10669
761.7017, 15.00310
762.1838, 15.07928
762.6659, 15.24285
763.1480, 15.36075
763.6301, 15.39841
764.1122, 15.33997
764.5944, 15.05898
765.0765, 14.73415
765.5586, 14.67727
766.0407, 14.85892
766.5228, 15.07020
767.0049, 15.23584
767.4871, 15.34234
767.9692, 15.36583
768.4513, 15.30319
768.9334, 15.22901
769.4155, 15.09330
769.8976, 15.02839
770.3798, 15.13379
770.8619, 15.26164
771.3440, 15.30028
771.8261, 15.25393
772.3082, 15.18135
772.7903, 15.07288
773.2725, 14.98465
773.7546, 14.93264
774.2367, 14.93681
774.7188, 15.06391
775.2009, 15.29681
775.6830, 15.50987
776.1652, 15.62231
776.6473, 15.65652
777.1294, 15.65171
777.6115, 15.59596
778.0936, 15.58541
778.5757, 15.65188
779.0579, 15.71678
779.5400, 15.74127
780.0221, 15.73559
780.5042, 15.70736
780.9863, 15.64413
781.4684, 15.62089
781.9506, 15.71724
782.4327, 15.79750
782.9148, 15.70739
783.3969, 15.56497
783.8790, 15.58716
784.3611, 15.81795
784.8433, 16.10737
785.3254, 16.35224
785.8075, 16.52902
786.2896, 16.53077
786.7717, 16.35460
787.2538, 16.19608
787.7360, 16.09129
788.2181, 16.05541
788.7002, 16.11839
789.1823, 16.26810
789.6644, 16.39917
790.1465, 16.52979
790.6286, 16.61736
791.1107, 16.65734
791.5928, 16.65454
792.0750, 16.56252
792.5571, 16.44035
793.0392, 16.41248
793.5213, 16.53127
794.0034, 16.68333
794.4855, 16.77785
794.9677, 16.83454
795.4498, 16.91129
795.9319, 16.99614
796.4140, 16.96675
796.8961, 16.76237
797.3782, 16.53299
797.8604, 16.50101
798.3425, 16.67895
798.8246, 16.73649
799.3067, 16.58307
799.7888, 16.47319
800.2709, 16.49592
800.7531, 16.56449
801.2352, 16.63587
801.7173, 16.70151
802.1994, 16.73430
802.6815, 16.72345
803.1636, 16.68410
803.6458, 16.58405
804.1279, 16.48506
804.6100, 16.44632
805.0921, 16.47940
805.5742, 16.60168
806.0563, 16.82679
806.5385, 17.08418
807.0206, 17.30415
807.5027, 17.47633
807.9848, 17.39118
808.4669, 16.97545
808.9490, 16.63550
809.4312, 16.55953
809.9133, 16.64185
810.3954, 16.75035
810.8775, 16.90031
811.3596, 16.96618
811.8417, 16.89597
812.3239, 16.80941
812.8060, 16.71505
813.2881, 16.63600
813.7702, 16.59676
814.2523, 16.59443
814.7344, 16.60981
815.2166, 16.64440
815.6987, 16.66948
816.1808, 16.61516
816.6629, 16.53862
817.1450, 16.59042
817.6271, 16.77334
818.1093, 16.95048
818.5914, 17.04395
819.0735, 17.08528
819.5556, 17.13638
820.0377, 17.20305
820.5198, 17.24309
821.0020, 17.26088
821.4841, 17.24263
821.9662, 17.14315
822.4483, 17.03304
822.9304, 16.97539
823.4125, 16.97205
823.8947, 17.04693
824.3768, 17.37880
824.8589, 17.58113
825.3410, 17.32279
825.8231, 16.95396
826.3052, 16.88868
826.7874, 17.11247
827.2695, 17.35732
827.7516, 17.48334
828.2337, 17.52133
828.7158, 17.49029
829.1979, 17.40683
829.6801, 17.31858
830.1622, 17.22958
830.6443, 17.24170
831.1264, 17.42997
831.6085, 17.67537
832.0906, 17.78427
832.5728, 17.74243
833.0549, 17.66145
833.5370, 17.47748
834.0191, 17.34809
834.5012, 17.33570
834.9833, 17.36667
835.4655, 17.39743
835.9476, 17.41946
836.4297, 17.41064
836.9118, 17.31061
837.3939, 17.26421
837.8760, 17.42430
838.3582, 17.63146
838.8403, 17.68592
839.3224, 17.60902
839.8045, 17.53204
840.2866, 17.51674
840.7687, 17.54321
841.2509, 17.61994
841.7330, 17.72316
842.2151, 17.68323
842.6972, 17.48613
843.1793, 17.33521
843.6614, 17.30065
844.1436, 17.35082
844.6257, 17.46169
845.1078, 17.63158
845.5899, 17.78597
846.0720, 18.01199
846.5541, 18.08842
847.0363, 17.81892
847.5184, 17.56632
848.0005, 17.62243
848.4826, 17.85916
848.9647, 17.95084
849.4468, 17.77843
849.9290, 17.62296
850.4111, 17.71356
850.8932, 17.83271
851.3753, 17.65517
851.8574, 17.34106
852.3395, 17.36065
852.8217, 17.81603
853.3038, 18.24200
853.7859, 18.13723
854.2680, 17.68874
854.7501, 17.47641
855.2322, 17.49944
855.7144, 17.58828
856.1965, 17.72555
856.6786, 17.85750
857.1607, 17.95681
857.6428, 18.01011
858.1249, 17.96969
858.6071, 17.78148
859.0892, 17.61616
859.5713, 17.43299
860.0534, 17.31907
860.5355, 17.31703
861.0176, 17.39387
861.4998, 17.53893
861.9819, 17.74219
862.4640, 17.89286
862.9461, 18.00589
863.4282, 17.98974
863.9103, 17.61433
864.3925, 17.15993
864.8746, 17.08209
865.3567, 17.35555
865.8388, 17.58595
866.3209, 17.53648
866.8030, 17.39322
867.2852, 17.48581
867.7673, 17.74888
868.2494, 17.82322
868.7315, 17.68435
869.2136, 17.45159
869.6957, 17.13425
870.1779, 16.88436
870.6600, 16.93052
871.1421, 17.27599
871.6242, 17.52621
872.1063, 17.71417
872.5884, 17.74829
873.0705, 17.50590
873.5526, 17.20263
874.0347, 16.85865
874.5168, 16.56693
874.9990, 16.58035
875.4811, 17.08342
875.9632, 17.44912
876.4453, 17.33920
876.9274, 17.12809
877.4095, 17.03128
877.8917, 17.05342
878.3738, 17.22275
878.8559, 17.51062
879.3380, 17.71882
879.8201, 17.67456
880.3022, 17.48307
880.7844, 17.23915
881.2665, 16.99399
881.7486, 17.00943
882.2307, 17.30552
882.7128, 17.47871
883.1949, 17.25029
883.6771, 16.84496
884.1592, 16.75448
884.6413, 17.03506
885.1234, 17.20354
885.6055, 17.23101
886.0876, 17.21613
886.5698, 17.18586
887.0519, 17.13490
887.5340, 17.02447
888.0161, 16.86530
888.4982, 16.81839
888.9803, 17.03289
889.4625, 17.15552
889.9446, 17.02859
890.4267, 16.88290
890.9088, 16.90165
891.3909, 17.01591
891.8730, 17.08218
892.3552, 17.06298
892.8373, 16.96395
893.3194, 16.70562
893.8015, 16.43893
894.2836, 16.30993
894.7657, 16.30268
895.2479, 16.41882
895.7300, 16.63011
896.2121, 16.80029
896.6942, 16.82543
897.1763, 16.75420
897.6584, 16.66326
898.1406, 16.55785
898.6227, 16.49754
899.1048, 16.49242
899.5869, 16.47366
900.0690, 16.40687
900.5511, 16.31134
901.0333, 16.19953
901.5154, 16.06468
901.9975, 16.08019
902.4796, 16.40241
902.9617, 16.58246
903.4438, 16.37996
903.9260, 16.16460
904.4081, 16.23964
904.8902, 16.48902
905.3723, 16.59663
905.8544, 16.45227
906.3365, 16.38659
906.8187, 16.60825
907.3008, 16.79479
907.7829, 16.71552
908.2650, 16.49997
908.7471, 16.31548
909.2292, 16.20017
909.7114, 16.13287
910.1935, 16.11040
910.6756, 16.11695
911.1577, 16.13464
911.6398, 16.17050
912.1219, 16.24943
912.6041, 16.36268
913.0862, 16.48264
913.5683, 16.59643
914.0504, 16.64261
914.5325, 16.49548
915.0146, 16.20489
915.4968, 16.06463
915.9789, 16.07920
916.4610, 16.11816
916.9431, 16.15370
917.4252, 16.18764
917.9073, 16.22721
918.3895, 16.26185
918.8716, 16.24603
919.3537, 16.12923
919.8358, 16.09424
920.3179, 16.21714
920.8000, 16.31266
921.2822, 16.29023
921.7643, 16.21486
922.2464, 16.13778
922.7285, 16.06277
923.2106, 16.03858
923.6927, 16.13592
924.1749, 16.19805
924.6570, 16.13342
925.1391, 16.05987
925.6212, 16.08605
926.1033, 16.17288
926.5854, 16.21183
927.0676, 16.16889
927.5497, 16.16514
928.0318, 16.35294
928.5139, 16.55369
928.9960, 16.55842
929.4781, 16.45048
929.9603, 16.38299
930.4424, 16.38735
930.9245, 16.45115
931.4066, 16.57850
931.8887, 16.69081
932.3708, 16.62046
932.8530, 16.42530
933.3351, 16.37235
933.8172, 16.46502
934.2993, 16.48880
934.7814, 16.35574
935.2635, 16.21903
935.7457, 16.25127
936.2278, 16.42277
936.7099, 16.58726
937.1920, 16.79127
937.6741, 16.74125
938.1563, 16.22617
938.6384, 15.86248
939.1205, 16.10732
939.6026, 16.61169
940.0847, 16.72340
940.5668, 16.34250
941.0490, 16.15998
941.5311, 16.33826
942.0132, 16.48423
942.4953, 16.51630
942.9774, 16.49900
943.4595, 16.45808
943.9417, 16.40986
944.4238, 16.36185
944.9059, 16.26650
945.3880, 16.36123
945.8701, 17.10678
946.3522, 17.67179
946.8344, 17.23235
947.3165, 16.42112
947.7986, 16.12308
948.2807, 16.40890
948.7628, 16.78591
949.2449, 17.03553
949.7271, 17.17174
950.2092, 17.15610
950.6913, 17.06709
951.1734, 17.02409
951.6555, 17.02200
952.1376, 17.00816
952.6198, 16.96491
953.1019, 16.90955
953.5840, 16.84632
954.0661, 16.79800
954.5482, 16.84572
955.0303, 16.96857
955.5124, 17.02781
955.9945, 17.00394
956.4766, 16.92785
956.9587, 16.80699
957.4409, 16.69189
957.9230, 16.66579
958.4051, 16.72736
958.8872, 16.80663
959.3693, 16.90139
959.8514, 17.02795
960.3336, 17.20008
960.8157, 17.38350
961.2978, 17.56766
961.7799, 17.73359
962.2620, 17.83184
962.7441, 17.87564
963.2263, 17.80899
963.7084, 17.50784
964.1905, 17.26512
964.6726, 17.15567
965.1547, 17.13668
965.6368, 17.19928
966.1190, 17.32501
966.6011, 17.44004
967.0832, 17.55363
967.5653, 17.61962
968.0474, 17.55758
968.5295, 17.52168
969.0117, 17.71195
969.4938, 17.91858
969.9759, 17.79391
970.4580, 17.35061
970.9401, 17.01537
971.4222, 16.99659
971.9044, 17.09968
972.3865, 17.28214
972.8686, 17.46185
973.3507, 17.55883
973.8328, 17.57602
974.3149, 17.50840
974.7971, 17.36895
975.2792, 17.28200
975.7613, 17.38601
976.2434, 17.55231
976.7255, 17.70508
977.2076, 17.75672
977.6898, 17.34424
978.1719, 16.58142
978.6540, 16.22917
979.1361, 16.64514
979.6182, 17.27766
980.1003, 17.41393
980.5825, 17.22439
981.0646, 17.31203
981.5467, 17.63182
982.0288, 17.81510
982.5109, 17.78862
982.9930, 17.65481
983.4752, 17.45735
983.9573, 17.30139
984.4394, 17.43374
984.9215, 17.85739
985.4036, 18.07681
985.8857, 18.05981
986.3679, 18.02775
986.8500, 18.04538
987.3321, 18.03071
987.8142, 17.88879
988.2963, 17.68986
988.7784, 17.66754
989.2606, 17.89182
989.7427, 18.04585
990.2248, 18.11803
990.7069, 18.13775
991.1890, 18.06245
991.6711, 17.99744
992.1533, 18.10584
992.6354, 18.32994
993.1175, 18.31542
993.5996, 17.82073
994.0817, 17.52369
994.5638, 17.58921
995.0460, 17.66615
995.5281, 17.58201
996.0102, 17.46850
996.4923, 17.47805
996.9744, 17.60271
997.4565, 17.72426
997.9387, 17.82246
998.4208, 17.91266
998.9029, 18.01884
999.3850, 18.09649
999.8671, 18.08847
1000.349, 18.04864
1000.831, 18.08713
1001.313, 18.19750
1001.796, 18.19180
1002.278, 17.84813
1002.760, 17.59112
1003.242, 17.76490
1003.724, 18.03213
1004.206, 18.05755
1004.688, 17.93482
1005.170, 17.91334
1005.653, 18.04408
1006.135, 18.15536
1006.617, 18.13826
1007.099, 18.05789
1007.581, 17.94243
1008.063, 17.82292
1008.545, 17.71293
1009.027, 17.64301
1009.509, 17.71281
1009.992, 17.94342
1010.474, 18.15640
1010.956, 18.15503
1011.438, 18.08822
1011.920, 18.25694
1012.402, 18.51343
1012.884, 18.42400
1013.366, 18.03860
1013.849, 17.85048
1014.331, 18.07074
1014.813, 18.39349
1015.295, 18.47992
1015.777, 18.41131
1016.259, 18.38622
1016.741, 18.39100
1017.223, 18.36989
1017.705, 18.31231
1018.188, 18.17776
1018.670, 17.93812
1019.152, 17.74649
1019.634, 17.86844
1020.116, 18.20515
1020.598, 18.20319
1021.080, 17.88264
1021.562, 17.84085
1022.044, 18.19900
1022.527, 18.48462
1023.009, 18.41223
1023.491, 18.18380
1023.973, 18.11798
1024.455, 18.20665
1024.937, 18.34533
1025.419, 18.55783
1025.901, 18.57902
1026.384, 18.30451
1026.866, 18.09477
1027.348, 18.19994
1027.830, 18.44959
1028.312, 18.51950
1028.794, 18.39957
1029.276, 18.37082
1029.758, 18.46161
1030.240, 18.55909
1030.723, 18.69497
1031.205, 18.69006
1031.687, 18.32501
1032.169, 17.85658
1032.651, 17.83977
1033.133, 18.35068
1033.615, 18.67176
1034.097, 18.75990
1034.579, 18.74319
1035.062, 18.57498
1035.544, 18.41406
1036.026, 18.38161
1036.508, 18.41853
1036.990, 18.40034
1037.472, 18.31564
1037.954, 18.23677
1038.436, 18.09640
1038.919, 18.07334
1039.401, 18.30836
1039.883, 18.54904
1040.365, 18.63405
1040.847, 18.61108
1041.329, 18.56666
1041.811, 18.48643
1042.293, 18.46080
1042.776, 18.51767
1043.258, 18.59254
1043.740, 18.74960
1044.222, 18.84577
1044.704, 18.70917
1045.186, 18.47263
1045.668, 18.39521
1046.150, 18.50758
1046.632, 18.67721
1047.115, 19.04689
1047.597, 19.25544
1048.079, 19.02858
1048.561, 18.79305
1049.043, 18.92385
1049.525, 19.22640
1050.007, 19.28065
1050.489, 19.00907
1050.971, 18.87252
1051.454, 19.04003
1051.936, 19.24429
1052.418, 19.48758
1052.900, 19.66180
1053.382, 19.65513
1053.864, 19.53853
1054.346, 19.42688
1054.828, 19.33503
1055.311, 19.30469
1055.793, 19.40108
1056.275, 19.48719
1056.757, 19.50192
1057.239, 19.50342
1057.721, 19.55611
1058.203, 19.61818
1058.685, 19.58503
1059.167, 19.44571
1059.650, 19.39664
1060.132, 19.60459
1060.614, 19.77488
1061.096, 19.73192
1061.578, 19.67215
1062.060, 19.82642
1062.542, 20.03231
1063.024, 19.93222
1063.506, 19.50845
1063.989, 19.28766
1064.471, 19.63446
1064.953, 19.97073
1065.435, 20.01874
1065.917, 20.00595
1066.399, 20.12341
1066.881, 20.28950
1067.363, 20.32629
1067.846, 20.23278
1068.328, 20.23594
1068.810, 20.49621
1069.292, 20.73481
1069.774, 20.79612
1070.256, 20.82080
1070.738, 20.93798
1071.220, 21.07393
1071.703, 21.12891
1072.185, 21.08600
1072.667, 20.94850
1073.149, 20.62918
1073.631, 20.42000
1074.113, 20.61886
1074.595, 20.80724
1075.077, 20.59734
1075.559, 20.24434
1076.042, 20.13430
1076.524, 20.24873
1077.006, 20.24298
1077.488, 19.92750
1077.970, 19.71399
1078.452, 19.81132
1078.934, 20.05595
1079.416, 20.50944
1079.898, 20.92709
1080.380, 20.98466
1080.863, 20.74212
1081.345, 20.48673
1081.827, 20.27640
1082.309, 20.21349
1082.791, 20.46362
1083.273, 20.73548
1083.755, 20.87564
1084.237, 20.92508
1084.720, 20.88124
1085.202, 20.80128
1085.684, 20.80199
1086.166, 20.91289
1086.648, 21.11473
1087.130, 21.54103
1087.612, 21.87977
1088.094, 21.83916
1088.577, 21.75214
1089.059, 21.99217
1089.541, 22.41721
1090.023, 22.65117
1090.505, 22.61771
1090.987, 22.65595
1091.469, 22.94199
1091.951, 23.26147
1092.433, 23.46803
1092.916, 23.72585
1093.398, 24.32720
1093.880, 24.99372
1094.362, 25.20953
1094.844, 24.93233
1095.326, 24.67944
1095.808, 24.74490
1096.290, 24.66313
1096.772, 24.07880
1097.255, 23.51882
1097.737, 23.32203
1098.219, 23.34812
1098.701, 23.47910
1099.183, 23.64795
1099.665, 23.58315
1100.147, 23.03197
1100.629, 22.64272
1101.112, 22.74524
1101.594, 22.85496
1102.076, 22.69958
1102.558, 22.45650
1103.040, 22.29634
1103.522, 22.22573
1104.004, 22.21741
1104.486, 22.29607
1104.969, 22.34403
1105.451, 22.38876
1105.933, 22.33635
1106.415, 22.02297
1106.897, 21.71999
1107.379, 21.69975
1107.861, 21.84740
1108.343, 21.86136
1108.825, 21.69301
1109.307, 21.54547
1109.790, 21.44669
1110.272, 21.35517
1110.754, 21.21060
1111.236, 21.12662
1111.718, 21.25159
1112.200, 21.44324
1112.682, 21.46362
1113.164, 21.30322
1113.647, 21.11889
1114.129, 20.79550
1114.611, 20.64439
1115.093, 20.82785
1115.575, 20.99303
1116.057, 20.95106
1116.539, 20.85601
1117.021, 20.92338
1117.504, 21.11058
1117.986, 21.08377
1118.468, 20.64561
1118.950, 20.48151
1119.432, 20.78386
1119.914, 20.97690
1120.396, 20.81293
1120.878, 20.59020
1121.360, 20.55572
1121.843, 20.66373
1122.325, 20.78006
1122.807, 20.89834
1123.289, 21.07543
1123.771, 21.34990
1124.253, 21.56085
1124.735, 21.68945
1125.217, 21.68784
1125.699, 21.48655
1126.182, 21.22090
1126.664, 21.12737
1127.146, 21.19722
1127.628, 21.28562
1128.110, 21.40231
1128.592, 21.43692
1129.074, 21.36567
1129.556, 21.27157
1130.039, 21.18291
1130.521, 21.15201
1131.003, 21.26692
1131.485, 21.44446
1131.967, 21.31734
1132.449, 20.91707
1132.931, 20.86206
1133.413, 21.17662
1133.896, 21.40461
1134.378, 21.40667
1134.860, 21.34299
1135.342, 21.33752
1135.824, 21.34214
1136.306, 21.23781
1136.788, 21.07253
1137.270, 21.04091
1137.752, 21.12441
1138.234, 21.23453
1138.717, 21.34779
1139.199, 21.43091
1139.681, 21.46704
1140.163, 21.51141
1140.645, 21.65518
1141.127, 21.82197
1141.609, 21.88870
1142.091, 21.86364
1142.574, 21.70542
1143.056, 21.47399
1143.538, 21.38699
1144.020, 21.49051
1144.502, 21.54776
1144.984, 21.35095
1145.466, 21.13601
1145.948, 21.18238
1146.431, 21.32696
1146.913, 21.37696
1147.395, 21.36093
1147.877, 21.34282
1148.359, 21.34116
1148.841, 21.35726
1149.323, 21.38456
1149.805, 21.47378
1150.287, 21.72102
1150.770, 21.96900
1151.252, 22.15136
1151.734, 22.23641
1152.216, 22.16907
1152.698, 21.98639
1153.180, 21.70134
1153.662, 21.31992
1154.144, 21.22377
1154.626, 21.92346
1155.109, 22.38334
1155.591, 22.07623
1156.073, 21.63115
1156.555, 21.33900
1157.037, 21.20503
1157.519, 21.23593
1158.001, 21.41100
1158.483, 21.60992
1158.966, 21.86440
1159.448, 22.05269
1159.930, 22.14202
1160.412, 22.19889
1160.894, 22.21953
1161.376, 22.23895
1161.858, 22.29412
1162.340, 22.35960
1162.822, 22.37642
1163.305, 22.33883
1163.787, 22.31247
1164.269, 22.29150
1164.751, 22.30741
1165.233, 22.39133
1165.715, 22.43030
1166.197, 22.36205
1166.679, 22.24319
1167.161, 22.12439
1167.644, 22.02760
1168.126, 22.04457
1168.608, 22.17696
1169.090, 22.43950
1169.572, 22.84304
1170.054, 22.87209
1170.536, 22.37472
1171.018, 22.01294
1171.500, 22.26226
1171.983, 22.76225
1172.465, 22.95654
1172.947, 22.92047
1173.429, 22.88018
1173.911, 22.83621
1174.393, 22.79687
1174.875, 22.75741
1175.357, 22.66513
1175.840, 22.51050
1176.322, 22.43544
1176.804, 22.57351
1177.286, 22.80921
1177.768, 23.12877
1178.250, 23.35880
1178.732, 23.07072
1179.214, 22.56729
1179.697, 22.53506
1180.179, 22.95605
1180.661, 23.21602
1181.143, 23.03787
1181.625, 22.87091
1182.107, 23.03983
1182.589, 23.24714
1183.071, 23.32298
1183.553, 23.32237
1184.036, 23.29059
1184.518, 23.23166
1185.000, 23.07962
1185.482, 22.84602
1185.964, 22.85639
1186.446, 23.47196
1186.928, 23.87012
1187.410, 23.76848
1187.892, 23.60607
1188.375, 23.55087
1188.857, 23.53039
1189.339, 23.48088
1189.821, 23.40911
1190.303, 23.32856
1190.785, 23.22648
1191.267, 23.18943
1191.749, 23.21347
1192.232, 23.32457
1192.714, 23.56130
1193.196, 23.78919
1193.678, 23.95260
1194.160, 24.03216
1194.642, 23.97459
1195.124, 23.84719
1195.606, 23.97956
1196.089, 24.35266
1196.571, 24.40487
1197.053, 24.12651
1197.535, 23.85851
1198.017, 23.68930
1198.499, 23.57253
1198.981, 23.48013
1199.463, 23.42234
1199.945, 23.44504
1200.427, 23.48760
1200.910, 23.34516
1201.392, 23.16210
1201.874, 23.35840
1202.356, 23.80408
1202.838, 23.94919
1203.320, 23.69845
1203.802, 23.56346
1204.284, 23.90510
1204.767, 24.25634
1205.249, 24.23920
1205.731, 24.11081
1206.213, 24.01565
1206.695, 23.98546
1207.177, 24.07624
1207.659, 24.24456
1208.141, 24.38473
1208.624, 24.47609
1209.106, 24.53367
1209.588, 24.57879
1210.070, 24.56329
1210.552, 24.39337
1211.034, 24.25988
1211.516, 24.23088
1211.998, 24.31183
1212.480, 24.60177
1212.963, 24.98942
1213.445, 25.02137
1213.927, 24.59358
1214.409, 24.34385
1214.891, 24.32566
1215.373, 24.24622
1215.855, 24.00798
1216.337, 23.95177
1216.819, 24.30188
1217.302, 24.67212
1217.784, 24.54689
1218.266, 24.13957
1218.748, 24.17078
1219.230, 24.52561
1219.712, 24.61030
1220.194, 24.44000
1220.676, 24.23526
1221.159, 24.07178
1221.641, 24.04989
1222.123, 24.22770
1222.605, 24.45889
1223.087, 24.64873
1223.569, 24.76099
1224.051, 24.66320
1224.533, 24.53185
1225.016, 24.61088
1225.498, 24.83694
1225.980, 25.08833
1226.462, 25.31650
1226.944, 25.43843
1227.426, 25.40433
1227.908, 25.31889
1228.390, 25.16085
1228.872, 25.03322
1229.354, 24.93538
1229.837, 24.92807
1230.319, 25.15376
1230.801, 25.45381
1231.283, 25.53714
1231.765, 25.41107
1232.247, 25.30710
1232.729, 25.18973
1233.211, 25.22724
1233.694, 25.49716
1234.176, 25.66244
1234.658, 25.60328
1235.140, 25.49928
1235.622, 25.47778
1236.104, 25.49856
1236.586, 25.49574
1237.068, 25.47462
1237.551, 25.44860
1238.033, 25.42445
1238.515, 25.44522
1238.997, 25.50104
1239.479, 25.53285
1239.961, 25.52135
1240.443, 25.45856
1240.925, 25.32178
1241.407, 25.22574
1241.890, 25.32314
1242.372, 25.47005
1242.854, 25.51883
1243.336, 25.53886
1243.818, 25.66382
1244.300, 25.81842
1244.782, 25.78257
1245.264, 25.54503
1245.746, 25.44944
1246.229, 25.69685
1246.711, 25.88414
1247.193, 25.83080
1247.675, 25.86287
1248.157, 26.19803
1248.639, 26.52638
1249.121, 26.65319
1249.603, 26.60602
1250.085, 26.38993
1250.568, 26.02765
1251.050, 25.96848
1251.532, 26.26569
1252.014, 26.20621
1252.496, 25.71578
1252.978, 25.49400
1253.460, 25.74943
1253.942, 26.05785
1254.425, 26.12525
1254.907, 26.11345
1255.389, 26.26949
1255.871, 26.48155
1256.353, 26.49796
1256.835, 26.43589
1257.317, 26.58284
1257.799, 26.82506
1258.281, 26.78068
1258.764, 26.43550
1259.246, 26.22149
1259.728, 26.37451
1260.210, 26.47597
1260.692, 26.12623
1261.174, 25.94941
1261.656, 26.48441
1262.138, 27.05839
1262.620, 27.08144
1263.103, 26.84348
1263.585, 26.86041
1264.067, 27.08989
1264.549, 27.13053
1265.031, 26.88630
1265.513, 26.79639
1265.995, 26.91473
1266.477, 26.94251
1266.960, 26.79819
1267.442, 26.65509
1267.924, 26.60647
1268.406, 26.62967
1268.888, 26.69362
1269.370, 26.81883
1269.852, 27.12846
1270.334, 27.50496
1270.817, 27.65472
1271.299, 27.60805
1271.781, 27.45268
1272.263, 27.24141
1272.745, 27.03995
1273.227, 26.87371
1273.709, 26.86399
1274.191, 27.22831
1274.673, 27.56448
1275.156, 27.60130
1275.638, 27.62444
1276.120, 27.95645
1276.602, 28.27569
1277.084, 28.09944
1277.566, 27.61085
1278.048, 27.48154
1278.530, 27.78044
1279.012, 27.77352
1279.495, 27.28199
1279.977, 27.18848
1280.459, 27.69515
1280.941, 27.98550
1281.423, 27.73605
1281.905, 27.46700
1282.387, 27.60345
1282.869, 27.88435
1283.352, 27.81306
1283.834, 27.57796
1284.316, 27.58040
1284.798, 27.82184
##END=



