##NAMES=Digenite
##RRUFFID=R060840
##IDEAL CHEMISTRY=Cu_1.8_S
##LOCALITY=Butte, Montana, USA
##OWNER=RRUFF
##SOURCE=Michael Scott
##DESCRIPTION=Black to deep blue metallic massive, diffraction indicates that this sample is in the high temperature form
##STATUS=The identification of this mineral has been confirmed by X-ray diffraction and chemical analysis
##URL=rruff.info/R060840
##MEASURED CHEMISTRY=(Cu_1.66_Fe_0.02_)_Î£=1.68_S_1.00_
83.44019, 0.0000000E+00
83.92230, 0.0000000E+00
84.40442, 0.0000000E+00
84.88654, 0.0000000E+00
85.36865, 0.0000000E+00
85.85077, 0.0000000E+00
86.33289, 0.0000000E+00
86.81500, 0.0000000E+00
87.29712, 0.0000000E+00
87.77924, 0.0000000E+00
88.26135, 0.0000000E+00
88.74347, 0.0000000E+00
89.22559, 779.9367
89.70770, 762.4955
90.18982, 741.7635
90.67194, 717.4539
91.15405, 694.6317
91.63617, 667.1564
92.11829, 647.4888
92.60040, 641.7126
93.08252, 647.7150
93.56464, 659.8699
94.04675, 674.3710
94.52887, 693.6909
95.01099, 700.8939
95.49310, 692.6346
95.97522, 677.6042
96.45734, 656.2609
96.93945, 630.7858
97.42157, 609.0765
97.90369, 601.7034
98.38580, 618.1671
98.86792, 625.9598
99.35004, 618.7102
99.83215, 605.9747
100.3143, 596.8602
100.7964, 593.9140
101.2785, 594.0428
101.7606, 592.3830
102.2427, 588.9791
102.7249, 584.1037
103.2070, 574.7648
103.6891, 564.2922
104.1712, 560.5403
104.6533, 568.9883
105.1354, 580.4391
105.6176, 574.2208
106.0997, 541.6074
106.5818, 515.3127
107.0639, 517.2264
107.5460, 541.1316
108.0281, 559.1818
108.5103, 556.6389
108.9924, 542.8854
109.4745, 536.9235
109.9566, 541.8488
110.4387, 550.1038
110.9208, 552.5298
111.4030, 548.5712
111.8851, 553.8282
112.3672, 588.8362
112.8493, 633.1869
113.3314, 659.4970
113.8135, 653.8624
114.2957, 636.4303
114.7778, 637.3167
115.2599, 662.9496
115.7420, 685.7444
116.2241, 686.6796
116.7062, 678.1280
117.1884, 675.3730
117.6705, 686.7128
118.1526, 707.1243
118.6347, 723.5902
119.1168, 732.8936
119.5989, 743.3906
120.0811, 750.5425
120.5632, 761.3915
121.0453, 788.8721
121.5274, 847.3183
122.0095, 931.2849
122.4916, 997.6409
122.9738, 1021.898
123.4559, 1055.756
123.9380, 1120.264
124.4201, 1208.503
124.9022, 1303.085
125.3843, 1389.532
125.8665, 1466.519
126.3486, 1553.745
126.8307, 1662.041
127.3128, 1772.220
127.7949, 1885.885
128.2770, 1997.964
128.7592, 2095.333
129.2413, 2164.472
129.7234, 2200.708
130.2055, 2227.847
130.6876, 2250.504
131.1697, 2261.830
131.6519, 2249.308
132.1340, 2216.832
132.6161, 2185.152
133.0982, 2183.154
133.5803, 2235.173
134.0624, 2252.721
134.5446, 2217.779
135.0267, 2167.963
135.5088, 2123.583
135.9909, 2090.328
136.4730, 2066.402
136.9551, 2049.547
137.4373, 2045.702
137.9194, 2038.323
138.4015, 2011.029
138.8836, 1989.066
139.3657, 1996.639
139.8478, 2040.264
140.3300, 2105.340
140.8121, 2167.664
141.2942, 2228.255
141.7763, 2282.840
142.2584, 2322.540
142.7405, 2359.659
143.2227, 2408.803
143.7048, 2475.596
144.1869, 2552.818
144.6690, 2626.226
145.1511, 2699.139
145.6333, 2762.943
146.1154, 2815.313
146.5975, 2858.338
147.0796, 2896.005
147.5617, 2930.205
148.0438, 2958.383
148.5260, 2971.067
149.0081, 2956.593
149.4902, 2948.978
149.9723, 2968.154
150.4544, 2999.890
150.9365, 3014.429
151.4187, 2996.261
151.9008, 2957.150
152.3829, 2930.308
152.8650, 2916.359
153.3471, 2910.074
153.8292, 2915.927
154.3114, 2928.932
154.7935, 2933.275
155.2756, 2917.463
155.7577, 2892.247
156.2398, 2886.742
156.7219, 2911.311
157.2041, 2938.423
157.6862, 2953.987
158.1683, 2959.944
158.6504, 2966.157
159.1325, 2981.430
159.6146, 2996.649
160.0968, 2990.789
160.5789, 2951.448
161.0610, 2907.981
161.5431, 2878.058
162.0252, 2860.635
162.5073, 2847.856
162.9895, 2838.265
163.4716, 2829.826
163.9537, 2817.583
164.4358, 2795.693
164.9179, 2776.904
165.4000, 2779.326
165.8822, 2801.746
166.3643, 2808.345
166.8464, 2769.213
167.3285, 2706.704
167.8106, 2662.735
168.2927, 2646.569
168.7749, 2643.633
169.2570, 2644.134
169.7391, 2648.287
170.2212, 2650.479
170.7033, 2649.369
171.1854, 2643.758
171.6676, 2631.531
172.1497, 2610.008
172.6318, 2584.796
173.1139, 2562.350
173.5960, 2543.111
174.0781, 2520.989
174.5603, 2488.036
175.0424, 2452.161
175.5245, 2423.962
176.0066, 2405.973
176.4887, 2395.764
176.9708, 2391.759
177.4530, 2394.486
177.9351, 2399.899
178.4172, 2416.254
178.8993, 2430.639
179.3814, 2423.426
179.8635, 2377.672
180.3457, 2325.038
180.8278, 2309.760
181.3099, 2339.026
181.7920, 2367.751
182.2741, 2370.666
182.7562, 2362.302
183.2384, 2357.932
183.7205, 2364.714
184.2026, 2372.211
184.6847, 2362.949
185.1668, 2332.177
185.6489, 2306.809
186.1311, 2309.146
186.6132, 2319.810
187.0953, 2318.094
187.5774, 2269.512
188.0595, 2299.035
188.5416, 2315.382
189.0238, 2319.260
189.5059, 2273.328
189.9880, 2291.716
190.4701, 2284.328
190.9522, 2275.882
191.4343, 2303.324
191.9165, 2264.636
192.3986, 2291.508
192.8807, 2292.210
193.3628, 2304.889
193.8449, 2291.633
194.3270, 2286.387
194.8092, 2307.085
195.2913, 2313.418
195.7734, 2297.176
196.2555, 2310.617
196.7376, 2271.023
197.2197, 2277.968
197.7019, 2304.992
198.1840, 2290.053
198.6661, 2303.968
199.1482, 2306.895
199.6303, 2259.881
200.1124, 2299.717
200.5946, 2301.994
201.0767, 2265.704
201.5588, 2284.737
202.0409, 2304.054
202.5230, 2332.007
203.0051, 2372.494
203.4873, 2399.971
203.9694, 2369.913
204.4515, 2269.627
204.9336, 2193.941
205.4157, 2189.354
205.8978, 2213.688
206.3800, 2240.881
206.8621, 2267.526
207.3442, 2286.758
207.8263, 2286.325
208.3084, 2263.682
208.7905, 2247.235
209.2727, 2246.712
209.7548, 2254.906
210.2369, 2270.310
210.7190, 2293.628
211.2011, 2312.598
211.6832, 2310.658
212.1654, 2286.535
212.6475, 2268.861
213.1296, 2268.658
213.6117, 2274.609
214.0938, 2277.767
214.5759, 2277.127
215.0581, 2277.382
215.5402, 2285.180
216.0223, 2300.299
216.5044, 2308.866
216.9865, 2304.723
217.4686, 2295.798
217.9508, 2288.070
218.4329, 2281.890
218.9150, 2275.894
219.3971, 2265.087
219.8792, 2250.911
220.3613, 2250.677
220.8435, 2277.957
221.3256, 2308.460
221.8077, 2323.407
222.2898, 2323.407
222.7719, 2318.344
223.2540, 2310.977
223.7362, 2302.757
224.2183, 2302.308
224.7004, 2315.289
225.1825, 2329.878
225.6646, 2337.290
226.1467, 2338.184
226.6289, 2335.692
227.1110, 2325.099
227.5931, 2311.809
228.0752, 2315.222
228.5573, 2344.415
229.0394, 2376.673
229.5216, 2398.685
230.0037, 2410.543
230.4858, 2409.832
230.9679, 2383.782
231.4500, 2346.184
231.9321, 2328.284
232.4143, 2337.094
232.8964, 2350.292
233.3785, 2349.699
233.8606, 2340.581
234.3427, 2335.061
234.8248, 2340.412
235.3070, 2350.231
235.7891, 2354.029
236.2712, 2350.340
236.7533, 2347.640
237.2354, 2351.086
237.7175, 2359.822
238.1997, 2372.577
238.6818, 2392.848
239.1639, 2414.710
239.6460, 2432.060
240.1281, 2444.887
240.6102, 2456.235
241.0924, 2472.948
241.5745, 2487.527
242.0566, 2482.666
242.5387, 2442.264
243.0208, 2397.820
243.5029, 2372.587
243.9851, 2365.132
244.4672, 2364.901
244.9493, 2371.194
245.4314, 2378.935
245.9135, 2375.136
246.3956, 2347.592
246.8778, 2328.226
247.3599, 2344.528
247.8420, 2385.525
248.3241, 2413.650
248.8062, 2412.306
249.2883, 2392.696
249.7705, 2376.549
250.2526, 2360.203
250.7347, 2354.269
251.2168, 2372.168
251.6989, 2401.803
252.1810, 2419.082
252.6632, 2414.941
253.1453, 2400.811
253.6274, 2396.386
254.1095, 2405.508
254.5916, 2409.184
255.0737, 2399.590
255.5559, 2384.373
256.0380, 2370.993
256.5201, 2361.074
257.0022, 2357.389
257.4843, 2365.710
257.9665, 2392.167
258.4486, 2406.561
258.9307, 2399.289
259.4128, 2385.376
259.8949, 2371.890
260.3770, 2361.568
260.8592, 2364.047
261.3413, 2392.710
261.8234, 2454.270
262.3055, 2487.590
262.7876, 2470.592
263.2697, 2448.487
263.7519, 2446.973
264.2340, 2463.269
264.7161, 2481.035
265.1982, 2488.740
265.6803, 2486.496
266.1624, 2477.227
266.6446, 2449.158
267.1267, 2427.631
267.6088, 2425.082
268.0909, 2434.229
268.5730, 2440.808
269.0551, 2436.321
269.5373, 2423.962
270.0194, 2418.138
270.5015, 2426.729
270.9836, 2433.421
271.4657, 2435.277
271.9478, 2435.000
272.4300, 2436.384
272.9121, 2440.956
273.3942, 2446.280
273.8763, 2446.697
274.3584, 2437.193
274.8405, 2431.356
275.3227, 2433.200
275.8048, 2436.427
276.2869, 2431.564
276.7690, 2418.316
277.2511, 2410.618
277.7332, 2434.843
278.2154, 2511.453
278.6975, 2551.407
279.1796, 2515.430
279.6617, 2473.473
280.1438, 2464.315
280.6259, 2485.828
281.1081, 2507.827
281.5902, 2499.135
282.0723, 2458.756
282.5544, 2434.187
283.0365, 2440.227
283.5186, 2446.411
284.0008, 2435.654
284.4829, 2415.183
284.9650, 2402.793
285.4471, 2415.212
285.9292, 2442.188
286.4113, 2447.449
286.8935, 2423.570
287.3756, 2392.996
287.8577, 2350.987
288.3398, 2312.553
288.8219, 2303.027
289.3040, 2344.039
289.7862, 2397.245
290.2683, 2398.257
290.7504, 2336.850
291.2325, 2300.803
291.7146, 2351.854
292.1967, 2430.965
292.6789, 2468.072
293.1610, 2445.836
293.6431, 2413.438
294.1252, 2410.417
294.6073, 2431.334
295.0894, 2444.973
295.5716, 2440.964
296.0537, 2428.612
296.5358, 2419.223
297.0179, 2412.657
297.5000, 2408.153
297.9821, 2405.435
298.4643, 2404.584
298.9464, 2406.054
299.4285, 2410.075
299.9106, 2415.563
300.3927, 2424.560
300.8748, 2436.997
301.3570, 2436.594
301.8391, 2405.448
302.3212, 2372.139
302.8033, 2361.754
303.2854, 2374.126
303.7675, 2392.701
304.2497, 2406.812
304.7318, 2416.513
305.2139, 2424.148
305.6960, 2431.434
306.1781, 2435.338
306.6602, 2432.724
307.1424, 2426.003
307.6245, 2419.117
308.1066, 2413.660
308.5887, 2410.770
309.0708, 2413.978
309.5529, 2431.688
310.0351, 2445.391
310.5172, 2458.811
310.9993, 2465.585
311.4814, 2453.302
311.9635, 2420.480
312.4456, 2385.685
312.9278, 2378.964
313.4099, 2419.984
313.8920, 2439.260
314.3741, 2423.111
314.8562, 2400.314
315.3383, 2383.443
315.8205, 2374.481
316.3026, 2371.767
316.7847, 2376.299
317.2668, 2388.046
317.7489, 2388.822
318.2310, 2371.532
318.7132, 2350.747
319.1953, 2326.435
319.6774, 2302.715
320.1595, 2285.636
320.6416, 2278.748
321.1237, 2279.914
321.6059, 2286.328
322.0880, 2301.947
322.5701, 2311.449
323.0522, 2302.049
323.5343, 2287.692
324.0164, 2280.959
324.4986, 2284.923
324.9807, 2294.315
325.4628, 2309.266
325.9449, 2328.545
326.4270, 2332.392
326.9091, 2305.749
327.3913, 2274.618
327.8734, 2270.217
328.3555, 2292.048
328.8376, 2307.130
329.3197, 2292.080
329.8018, 2263.487
330.2840, 2254.448
330.7661, 2272.209
331.2482, 2286.139
331.7303, 2265.980
332.2124, 2215.290
332.6945, 2175.684
333.1767, 2147.562
333.6588, 2133.285
334.1409, 2142.751
334.6230, 2169.965
335.1051, 2191.806
335.5872, 2195.474
336.0694, 2184.558
336.5515, 2173.196
337.0336, 2163.223
337.5157, 2150.719
337.9978, 2133.660
338.4799, 2114.124
338.9621, 2092.334
339.4442, 2068.754
339.9263, 2049.114
340.4084, 2044.102
340.8905, 2066.781
341.3727, 2072.200
341.8548, 2040.997
342.3369, 2011.222
342.8190, 2013.027
343.3011, 2040.289
343.7832, 2060.092
344.2654, 2039.953
344.7475, 1982.264
345.2296, 1955.196
345.7117, 1985.951
346.1938, 2015.237
346.6759, 2027.543
347.1581, 2027.894
347.6402, 2023.040
348.1223, 2015.073
348.6044, 2006.221
349.0865, 2000.588
349.5686, 1998.659
350.0508, 1997.820
350.5329, 2000.233
351.0150, 2001.537
351.4971, 1997.297
351.9792, 1986.895
352.4613, 1976.093
352.9435, 1966.169
353.4256, 1958.751
353.9077, 1962.057
354.3898, 1981.492
354.8719, 2002.018
355.3540, 2013.304
355.8362, 2015.511
356.3183, 2002.957
356.8004, 1957.172
357.2825, 1907.678
357.7646, 1883.368
358.2467, 1883.266
358.7289, 1892.016
359.2110, 1902.984
359.6931, 1914.937
360.1752, 1922.762
360.6573, 1923.946
361.1394, 1924.858
361.6216, 1929.142
362.1037, 1933.462
362.5858, 1932.686
363.0679, 1925.253
363.5500, 1913.917
364.0321, 1901.258
364.5143, 1878.949
364.9964, 1878.499
365.4785, 1929.019
365.9606, 1973.214
366.4427, 1970.123
366.9248, 1928.927
367.4070, 1889.097
367.8891, 1882.919
368.3712, 1905.537
368.8533, 1914.024
369.3354, 1894.017
369.8175, 1880.443
370.2997, 1888.398
370.7818, 1904.332
371.2639, 1910.844
371.7460, 1900.960
372.2281, 1887.589
372.7102, 1893.607
373.1924, 1922.040
373.6745, 1928.893
374.1566, 1881.985
374.6387, 1833.713
375.1208, 1833.560
375.6029, 1878.842
376.0851, 1918.307
376.5672, 1922.747
377.0493, 1905.815
377.5314, 1889.421
378.0135, 1874.656
378.4956, 1865.304
378.9778, 1866.003
379.4599, 1875.014
379.9420, 1881.264
380.4241, 1884.148
380.9062, 1884.757
381.3883, 1885.375
381.8705, 1884.039
382.3526, 1874.438
382.8347, 1853.308
383.3168, 1828.383
383.7989, 1814.062
384.2810, 1813.810
384.7632, 1819.330
385.2453, 1839.407
385.7274, 1858.595
386.2095, 1866.517
386.6916, 1862.419
387.1737, 1849.208
387.6559, 1826.475
388.1380, 1795.244
388.6201, 1785.367
389.1022, 1820.706
389.5843, 1848.324
390.0664, 1852.085
390.5486, 1842.888
391.0307, 1835.030
391.5128, 1834.155
391.9949, 1833.875
392.4770, 1823.210
392.9591, 1800.841
393.4413, 1781.715
393.9234, 1764.216
394.4055, 1756.073
394.8876, 1766.739
395.3697, 1794.183
395.8518, 1819.385
396.3340, 1830.970
396.8161, 1835.047
397.2982, 1842.490
397.7803, 1854.243
398.2624, 1863.576
398.7445, 1866.676
399.2267, 1863.444
399.7088, 1855.875
400.1909, 1838.212
400.6730, 1823.150
401.1551, 1817.834
401.6372, 1817.756
402.1194, 1814.002
402.6015, 1803.698
403.0836, 1793.564
403.5657, 1794.529
404.0478, 1813.884
404.5299, 1823.178
405.0121, 1816.899
405.4942, 1807.133
405.9763, 1794.638
406.4584, 1783.793
406.9405, 1785.573
407.4226, 1810.530
407.9048, 1849.143
408.3869, 1860.233
408.8690, 1824.414
409.3511, 1799.785
409.8332, 1806.786
410.3153, 1825.997
410.7975, 1842.363
411.2796, 1852.720
411.7617, 1859.668
412.2438, 1866.854
412.7259, 1873.115
413.2080, 1871.410
413.6902, 1859.224
414.1723, 1842.646
414.6544, 1818.919
415.1365, 1793.109
415.6186, 1784.919
416.1007, 1819.284
416.5829, 1854.631
417.0650, 1854.531
417.5471, 1827.269
418.0292, 1804.553
418.5113, 1800.908
418.9934, 1807.355
419.4756, 1804.256
419.9577, 1777.728
420.4398, 1767.642
420.9219, 1788.049
421.4040, 1816.194
421.8861, 1838.188
422.3683, 1851.205
422.8504, 1855.239
423.3325, 1849.193
423.8146, 1833.984
424.2967, 1820.636
424.7788, 1808.962
425.2610, 1799.684
425.7431, 1790.708
426.2252, 1784.967
426.7073, 1788.219
427.1894, 1802.474
427.6715, 1816.374
428.1537, 1814.060
428.6358, 1796.791
429.1179, 1786.384
429.6000, 1787.640
430.0821, 1793.606
430.5642, 1805.457
431.0464, 1819.273
431.5285, 1816.842
432.0106, 1773.573
432.4927, 1727.090
432.9748, 1711.629
433.4569, 1723.806
433.9391, 1748.529
434.4212, 1783.066
434.9033, 1817.306
435.3854, 1826.609
435.8675, 1790.814
436.3496, 1766.659
436.8318, 1761.926
437.3139, 1766.478
437.7960, 1776.331
438.2781, 1788.543
438.7602, 1797.301
439.2423, 1797.458
439.7245, 1789.666
440.2066, 1779.448
440.6887, 1757.777
441.1708, 1747.903
441.6529, 1760.116
442.1350, 1782.879
442.6172, 1806.533
443.0993, 1828.779
443.5814, 1845.596
444.0635, 1851.263
444.5456, 1847.076
445.0277, 1843.156
445.5099, 1843.042
445.9920, 1838.280
446.4741, 1811.205
446.9562, 1771.341
447.4383, 1754.109
447.9204, 1783.074
448.4026, 1820.231
448.8847, 1845.001
449.3668, 1857.498
449.8489, 1854.707
450.3310, 1833.661
450.8131, 1808.256
451.2953, 1803.529
451.7774, 1833.892
452.2595, 1852.364
452.7416, 1854.805
453.2237, 1850.058
453.7059, 1839.339
454.1880, 1825.648
454.6701, 1815.088
455.1522, 1812.412
455.6343, 1814.255
456.1165, 1808.452
456.5986, 1789.651
457.0807, 1776.988
457.5628, 1776.181
458.0449, 1782.917
458.5270, 1799.630
459.0092, 1825.656
459.4913, 1842.854
459.9734, 1830.997
460.4555, 1804.484
460.9376, 1794.047
461.4197, 1802.752
461.9019, 1815.928
462.3840, 1827.760
462.8661, 1835.755
463.3482, 1830.573
463.8303, 1789.262
464.3124, 1765.946
464.7946, 1797.091
465.2767, 1844.909
465.7588, 1857.496
466.2409, 1826.472
466.7230, 1788.557
467.2051, 1785.764
467.6873, 1821.734
468.1694, 1843.083
468.6515, 1836.857
469.1336, 1829.853
469.6157, 1829.553
470.0978, 1832.172
470.5800, 1832.357
471.0621, 1828.209
471.5442, 1821.432
472.0263, 1815.277
472.5084, 1809.280
472.9905, 1793.460
473.4727, 1756.509
473.9548, 1727.210
474.4369, 1744.632
474.9190, 1795.365
475.4011, 1826.938
475.8832, 1819.027
476.3654, 1799.103
476.8475, 1776.374
477.3296, 1756.409
477.8117, 1755.687
478.2938, 1781.719
478.7759, 1818.092
479.2581, 1837.432
479.7402, 1833.172
480.2223, 1828.761
480.7044, 1824.731
481.1865, 1820.126
481.6686, 1813.563
482.1508, 1806.130
482.6329, 1800.028
483.1150, 1796.400
483.5971, 1794.964
484.0792, 1794.998
484.5613, 1796.364
485.0435, 1800.157
485.5256, 1807.627
486.0077, 1816.786
486.4898, 1825.083
486.9719, 1832.778
487.4540, 1843.043
487.9362, 1862.916
488.4183, 1881.938
488.9004, 1886.332
489.3825, 1878.203
489.8646, 1873.166
490.3467, 1881.151
490.8289, 1891.570
491.3110, 1878.042
491.7931, 1806.401
492.2752, 1768.020
492.7573, 1788.949
493.2394, 1820.927
493.7216, 1832.944
494.2037, 1825.677
494.6858, 1814.009
495.1679, 1806.970
495.6500, 1804.250
496.1321, 1804.928
496.6143, 1809.005
497.0964, 1817.047
497.5785, 1842.699
498.0606, 1861.867
498.5427, 1844.117
499.0248, 1789.428
499.5070, 1750.643
499.9891, 1766.725
500.4712, 1804.620
500.9533, 1822.097
501.4354, 1818.377
501.9175, 1808.248
502.3997, 1797.422
502.8818, 1789.376
503.3639, 1794.539
503.8460, 1833.391
504.3281, 1855.040
504.8102, 1843.148
505.2924, 1825.331
505.7745, 1819.414
506.2566, 1826.851
506.7387, 1843.387
507.2208, 1869.728
507.7029, 1898.861
508.1851, 1905.068
508.6672, 1881.829
509.1493, 1856.628
509.6314, 1831.780
510.1135, 1812.456
510.5956, 1807.203
511.0778, 1816.283
511.5599, 1819.922
512.0420, 1802.784
512.5241, 1779.181
513.0062, 1764.228
513.4883, 1759.044
513.9705, 1766.910
514.4526, 1793.797
514.9347, 1826.850
515.4168, 1830.309
515.8989, 1765.048
516.3810, 1730.025
516.8632, 1746.468
517.3453, 1775.305
517.8274, 1791.503
518.3095, 1795.744
518.7916, 1802.323
519.2737, 1823.015
519.7559, 1848.672
520.2380, 1853.110
520.7201, 1831.570
521.2022, 1815.076
521.6843, 1814.207
522.1664, 1820.125
522.6486, 1821.658
523.1307, 1818.999
523.6128, 1823.106
524.0949, 1850.217
524.5770, 1875.934
525.0591, 1869.159
525.5413, 1839.110
526.0234, 1824.599
526.5055, 1845.753
526.9876, 1883.358
527.4697, 1897.407
527.9518, 1876.466
528.4340, 1856.594
528.9161, 1828.244
529.3982, 1809.753
529.8803, 1822.171
530.3624, 1850.889
530.8445, 1861.723
531.3267, 1833.778
531.8088, 1790.442
532.2909, 1765.770
532.7730, 1759.424
533.2551, 1762.631
533.7372, 1776.250
534.2194, 1793.730
534.7015, 1811.490
535.1836, 1828.973
535.6657, 1835.659
536.1478, 1810.578
536.6299, 1794.536
537.1121, 1825.885
537.5942, 1878.185
538.0763, 1897.975
538.5584, 1868.399
539.0405, 1823.628
539.5226, 1812.112
540.0048, 1840.072
540.4869, 1858.673
540.9690, 1859.384
541.4511, 1861.365
541.9332, 1879.796
542.4153, 1900.883
542.8975, 1900.718
543.3796, 1868.011
543.8617, 1836.872
544.3438, 1841.788
544.8259, 1868.619
545.3080, 1880.730
545.7902, 1872.493
546.2723, 1855.044
546.7544, 1832.836
547.2365, 1808.322
547.7186, 1803.576
548.2007, 1834.973
548.6829, 1862.617
549.1650, 1888.334
549.6471, 1902.735
550.1292, 1891.590
550.6113, 1857.287
551.0934, 1819.437
551.5756, 1789.277
552.0577, 1770.312
552.5398, 1782.681
553.0219, 1837.412
553.5040, 1878.446
553.9861, 1881.046
554.4683, 1864.096
554.9504, 1849.903
555.4325, 1838.054
555.9146, 1834.488
556.3967, 1846.692
556.8788, 1863.533
557.3610, 1880.861
557.8431, 1894.712
558.3252, 1892.947
558.8073, 1868.715
559.2894, 1833.862
559.7715, 1811.489
560.2537, 1801.827
560.7358, 1804.109
561.2179, 1833.854
561.7000, 1860.761
562.1821, 1875.288
562.6642, 1877.489
563.1464, 1866.287
563.6285, 1835.171
564.1106, 1806.067
564.5927, 1806.661
565.0748, 1828.457
565.5569, 1843.424
566.0391, 1846.542
566.5212, 1838.009
567.0033, 1814.237
567.4854, 1776.171
567.9675, 1753.913
568.4496, 1758.860
568.9318, 1762.951
569.4139, 1745.519
569.8960, 1733.490
570.3781, 1765.787
570.8602, 1840.500
571.3423, 1908.792
571.8245, 1925.185
572.3066, 1901.934
572.7887, 1884.217
573.2708, 1872.815
573.7529, 1863.013
574.2350, 1851.706
574.7172, 1842.360
575.1993, 1840.221
575.6814, 1845.839
576.1635, 1852.645
576.6456, 1859.159
577.1277, 1866.326
577.6099, 1876.086
578.0920, 1887.077
578.5741, 1896.931
579.0562, 1904.630
579.5383, 1908.172
580.0204, 1903.394
580.5026, 1888.757
580.9847, 1872.119
581.4668, 1843.421
581.9489, 1826.686
582.4310, 1844.460
582.9131, 1877.897
583.3953, 1892.343
583.8774, 1873.797
584.3595, 1852.273
584.8416, 1845.758
585.3237, 1849.828
585.8058, 1860.604
586.2880, 1876.272
586.7701, 1885.775
587.2522, 1879.022
587.7343, 1860.722
588.2164, 1855.329
588.6985, 1875.869
589.1807, 1888.485
589.6628, 1889.522
590.1449, 1883.331
590.6270, 1866.246
591.1091, 1843.393
591.5912, 1831.872
592.0734, 1848.493
592.5555, 1872.551
593.0376, 1873.917
593.5197, 1856.074
594.0018, 1838.118
594.4839, 1823.750
594.9661, 1818.619
595.4482, 1831.810
595.9303, 1865.940
596.4124, 1888.151
596.8945, 1895.760
597.3766, 1896.390
597.8588, 1889.847
598.3409, 1878.670
598.8230, 1864.958
599.3051, 1849.426
599.7872, 1832.626
600.2693, 1806.154
600.7515, 1779.195
601.2336, 1794.204
601.7157, 1858.375
602.1978, 1898.198
602.6799, 1870.556
603.1620, 1816.790
603.6442, 1811.067
604.1263, 1866.505
604.6084, 1899.610
605.0905, 1889.960
605.5726, 1867.453
606.0547, 1837.696
606.5369, 1810.408
607.0190, 1802.697
607.5011, 1820.971
607.9832, 1848.467
608.4653, 1863.112
608.9474, 1865.151
609.4296, 1866.263
609.9117, 1865.818
610.3938, 1867.200
610.8759, 1874.435
611.3580, 1883.913
611.8401, 1887.605
612.3223, 1882.114
612.8044, 1879.896
613.2865, 1892.792
613.7686, 1904.253
614.2507, 1892.284
614.7328, 1864.454
615.2150, 1849.782
615.6971, 1865.286
616.1792, 1893.943
616.6613, 1896.425
617.1434, 1865.498
617.6255, 1859.301
618.1077, 1897.817
618.5898, 1939.817
619.0719, 1965.712
619.5540, 1975.056
620.0361, 1961.695
620.5182, 1906.873
621.0004, 1863.659
621.4825, 1869.677
621.9646, 1894.058
622.4467, 1898.607
622.9288, 1881.013
623.4109, 1859.239
623.8931, 1844.760
624.3752, 1837.230
624.8573, 1836.259
625.3394, 1843.623
625.8215, 1851.495
626.3036, 1859.066
626.7858, 1866.694
627.2679, 1875.047
627.7500, 1883.672
628.2321, 1891.497
628.7142, 1901.337
629.1964, 1906.013
629.6785, 1892.271
630.1606, 1874.176
630.6427, 1882.924
631.1248, 1918.180
631.6069, 1937.597
632.0891, 1901.998
632.5712, 1827.642
633.0533, 1791.392
633.5354, 1806.737
634.0175, 1825.522
634.4996, 1850.142
634.9818, 1865.784
635.4639, 1858.026
635.9460, 1831.579
636.4281, 1806.492
636.9102, 1781.842
637.3923, 1768.464
637.8745, 1784.432
638.3566, 1813.547
638.8387, 1824.701
639.3208, 1812.933
639.8029, 1798.111
640.2850, 1797.563
640.7672, 1809.824
641.2493, 1827.697
641.7314, 1859.712
642.2135, 1877.559
642.6956, 1863.160
643.1777, 1842.836
643.6599, 1836.601
644.1420, 1842.074
644.6241, 1843.159
645.1062, 1825.449
645.5883, 1810.902
646.0704, 1820.285
646.5526, 1841.853
647.0347, 1854.025
647.5168, 1852.412
647.9989, 1846.428
648.4810, 1843.902
648.9631, 1844.980
649.4453, 1851.302
649.9274, 1865.626
650.4095, 1878.479
650.8916, 1891.561
651.3737, 1898.923
651.8558, 1892.887
652.3380, 1875.673
652.8201, 1861.006
653.3022, 1850.951
653.7843, 1846.580
654.2664, 1850.266
654.7485, 1859.543
655.2307, 1872.682
655.7128, 1888.157
656.1949, 1900.018
656.6770, 1902.798
657.1591, 1897.590
657.6412, 1889.173
658.1234, 1875.319
658.6055, 1865.327
659.0876, 1859.961
659.5697, 1860.586
660.0518, 1872.544
660.5339, 1892.856
661.0161, 1904.235
661.4982, 1892.367
661.9803, 1882.877
662.4624, 1899.069
662.9445, 1920.540
663.4266, 1911.194
663.9088, 1871.281
664.3909, 1840.927
664.8730, 1857.187
665.3551, 1902.303
665.8372, 1912.688
666.3193, 1880.854
666.8015, 1861.012
667.2836, 1867.294
667.7657, 1884.866
668.2478, 1909.524
668.7299, 1936.824
669.2120, 1941.473
669.6942, 1899.660
670.1763, 1861.634
670.6584, 1844.896
671.1405, 1839.854
671.6226, 1839.784
672.1047, 1841.738
672.5869, 1840.545
673.0690, 1830.736
673.5511, 1820.092
674.0332, 1831.430
674.5153, 1864.457
674.9974, 1873.432
675.4796, 1841.404
675.9617, 1808.979
676.4438, 1811.485
676.9259, 1842.675
677.4080, 1860.616
677.8901, 1860.690
678.3723, 1855.224
678.8544, 1837.274
679.3365, 1821.369
679.8186, 1819.609
680.3007, 1829.979
680.7828, 1844.317
681.2650, 1859.553
681.7471, 1873.043
682.2292, 1879.059
682.7113, 1879.885
683.1934, 1887.621
683.6755, 1904.644
684.1577, 1915.695
684.6398, 1908.799
685.1219, 1889.886
685.6040, 1879.009
686.0861, 1882.612
686.5682, 1883.387
687.0504, 1877.078
687.5325, 1872.455
688.0146, 1876.744
688.4967, 1885.253
688.9788, 1889.583
689.4609, 1887.417
689.9431, 1879.299
690.4252, 1852.185
690.9073, 1825.251
691.3894, 1841.785
691.8715, 1896.641
692.3536, 1938.104
692.8358, 1939.122
693.3179, 1915.766
693.8000, 1896.279
694.2821, 1879.870
694.7642, 1870.943
695.2463, 1871.467
695.7285, 1876.859
696.2106, 1889.606
696.6927, 1903.841
697.1748, 1913.481
697.6569, 1918.367
698.1390, 1914.212
698.6212, 1881.935
699.1033, 1855.253
699.5854, 1876.872
700.0675, 1923.748
700.5496, 1940.671
701.0317, 1910.948
701.5139, 1869.746
701.9960, 1858.557
702.4781, 1872.768
702.9602, 1877.848
703.4423, 1875.025
703.9244, 1852.814
704.4066, 1785.542
704.8887, 1724.595
705.3708, 1747.603
705.8529, 1858.863
706.3350, 1922.846
706.8171, 1902.685
707.2993, 1873.020
707.7814, 1850.547
708.2635, 1836.241
708.7456, 1831.930
709.2277, 1836.316
709.7098, 1843.628
710.1920, 1850.022
710.6741, 1857.243
711.1562, 1872.278
711.6383, 1891.745
712.1204, 1896.508
712.6025, 1881.648
713.0847, 1863.003
713.5668, 1852.984
714.0489, 1850.528
714.5310, 1850.060
715.0131, 1853.478
715.4952, 1855.445
715.9774, 1860.660
716.4595, 1859.520
716.9416, 1837.083
717.4237, 1805.567
717.9058, 1793.978
718.3879, 1815.677
718.8701, 1841.936
719.3522, 1855.977
719.8343, 1864.464
720.3164, 1875.834
720.7985, 1889.969
721.2806, 1905.566
721.7628, 1922.437
722.2449, 1931.154
722.7270, 1909.118
723.2091, 1854.511
723.6912, 1821.446
724.1733, 1812.546
724.6555, 1821.932
725.1376, 1860.828
725.6197, 1906.509
726.1018, 1916.666
726.5839, 1884.898
727.0660, 1866.109
727.5482, 1876.958
728.0303, 1888.685
728.5124, 1890.970
728.9945, 1885.608
729.4766, 1871.492
729.9587, 1850.834
730.4409, 1836.849
730.9230, 1845.179
731.4051, 1861.565
731.8872, 1859.949
732.3693, 1844.466
732.8514, 1833.765
733.3336, 1832.359
733.8157, 1840.934
734.2978, 1863.690
734.7799, 1895.652
735.2620, 1902.073
735.7441, 1863.837
736.2263, 1840.659
736.7084, 1853.139
737.1905, 1869.544
737.6726, 1873.289
738.1547, 1866.496
738.6368, 1853.720
739.1190, 1827.212
739.6011, 1814.463
740.0832, 1835.322
740.5653, 1869.767
741.0474, 1908.423
741.5295, 1942.413
742.0117, 1950.958
742.4938, 1924.399
742.9759, 1886.751
743.4580, 1870.710
743.9401, 1872.409
744.4222, 1868.566
744.9044, 1857.851
745.3865, 1847.510
745.8686, 1839.998
746.3507, 1835.788
746.8328, 1837.050
747.3149, 1846.019
747.7971, 1845.565
748.2792, 1813.211
748.7613, 1800.006
749.2434, 1829.293
749.7255, 1873.560
750.2076, 1917.231
750.6898, 1953.765
751.1719, 1964.026
751.6540, 1917.830
752.1361, 1868.476
752.6182, 1866.711
753.1003, 1886.710
753.5825, 1883.192
754.0646, 1853.010
754.5467, 1824.141
755.0288, 1816.331
755.5109, 1819.664
755.9930, 1805.208
756.4752, 1771.340
756.9573, 1782.404
757.4394, 1862.569
757.9215, 1927.042
758.4036, 1919.574
758.8857, 1869.262
759.3679, 1840.714
759.8500, 1840.547
760.3321, 1846.629
760.8142, 1871.073
761.2963, 1887.963
761.7784, 1884.629
762.2606, 1869.001
762.7427, 1847.111
763.2248, 1821.597
763.7069, 1805.915
764.1890, 1817.638
764.6711, 1834.877
765.1533, 1835.327
765.6354, 1822.827
766.1175, 1804.420
766.5996, 1782.828
767.0817, 1762.870
767.5638, 1748.911
768.0460, 1739.453
768.5281, 1723.692
769.0102, 1697.391
769.4923, 1710.748
769.9744, 1789.159
770.4565, 1862.416
770.9387, 1876.607
771.4208, 1851.487
771.9029, 1851.034
772.3850, 1900.135
772.8671, 1922.087
773.3492, 1889.940
773.8314, 1856.033
774.3135, 1841.795
774.7956, 1843.511
775.2777, 1859.770
775.7598, 1889.576
776.2419, 1905.898
776.7241, 1878.264
777.2062, 1839.870
777.6883, 1822.369
778.1704, 1824.087
778.6525, 1846.091
779.1346, 1885.146
779.6168, 1914.115
780.0989, 1904.982
780.5810, 1872.064
781.0631, 1865.853
781.5452, 1889.052
782.0273, 1898.918
782.5095, 1884.979
782.9916, 1866.261
783.4737, 1853.180
783.9558, 1846.898
784.4379, 1852.217
784.9200, 1884.026
785.4022, 1899.585
785.8843, 1883.009
786.3664, 1867.889
786.8485, 1872.271
787.3306, 1885.842
787.8127, 1894.846
788.2949, 1896.727
788.7770, 1890.465
789.2591, 1866.989
789.7412, 1843.042
790.2233, 1832.726
790.7054, 1832.742
791.1876, 1838.708
791.6697, 1848.339
792.1518, 1856.352
792.6339, 1858.014
793.1160, 1856.222
793.5981, 1860.727
794.0803, 1870.111
794.5624, 1862.179
795.0445, 1830.920
795.5266, 1803.155
796.0087, 1797.302
796.4908, 1806.381
796.9730, 1812.995
797.4551, 1821.033
797.9372, 1815.255
798.4193, 1781.617
798.9014, 1752.344
799.3835, 1745.354
799.8657, 1745.282
800.3478, 1728.290
800.8299, 1692.146
801.3120, 1676.308
801.7941, 1705.075
802.2762, 1741.258
802.7584, 1773.570
803.2405, 1797.568
803.7226, 1806.892
804.2047, 1802.897
804.6868, 1793.884
805.1689, 1783.034
805.6511, 1773.857
806.1332, 1765.999
806.6153, 1764.121
807.0974, 1786.969
807.5795, 1832.970
808.0616, 1872.432
808.5438, 1889.924
809.0259, 1893.510
809.5080, 1897.799
809.9901, 1903.548
810.4722, 1888.740
810.9543, 1842.389
811.4365, 1811.617
811.9186, 1817.839
812.4007, 1839.195
812.8828, 1854.262
813.3649, 1862.911
813.8470, 1865.933
814.3292, 1855.507
814.8113, 1850.557
815.2934, 1862.057
815.7755, 1872.531
816.2576, 1865.267
816.7397, 1847.828
817.2219, 1839.264
817.7040, 1845.212
818.1861, 1859.820
818.6682, 1888.397
819.1503, 1917.093
819.6324, 1935.032
820.1146, 1940.628
820.5967, 1926.789
821.0788, 1894.038
821.5609, 1865.782
822.0430, 1865.731
822.5251, 1885.150
823.0073, 1909.609
823.4894, 1936.691
823.9716, 1942.717
824.4537, 1921.867
824.9358, 1895.879
825.4179, 1880.049
825.9000, 1873.144
826.3821, 1873.980
826.8643, 1889.010
827.3464, 1885.391
827.8285, 1848.771
828.3106, 1817.608
828.7927, 1813.527
829.2748, 1822.929
829.7570, 1823.485
830.2391, 1813.306
830.7212, 1811.747
831.2033, 1831.049
831.6854, 1845.510
832.1675, 1849.304
832.6497, 1843.004
833.1318, 1815.061
833.6139, 1776.280
834.0960, 1766.496
834.5781, 1814.149
835.0602, 1863.172
835.5424, 1880.051
836.0245, 1873.720
836.5066, 1840.427
836.9887, 1794.804
837.4708, 1774.084
837.9529, 1791.853
838.4351, 1823.884
838.9172, 1849.791
839.3993, 1867.532
839.8814, 1866.995
840.3635, 1850.692
840.8456, 1838.438
841.3278, 1835.341
841.8099, 1837.542
842.2920, 1843.519
842.7741, 1849.569
843.2562, 1837.674
843.7383, 1798.307
844.2205, 1787.911
844.7026, 1827.718
845.1847, 1859.594
845.6668, 1846.996
846.1489, 1813.483
846.6310, 1799.117
847.1132, 1806.393
847.5953, 1822.538
848.0774, 1865.777
848.5595, 1894.379
849.0416, 1889.868
849.5237, 1872.248
850.0059, 1850.851
850.4880, 1831.592
850.9701, 1831.389
851.4522, 1865.748
851.9343, 1898.658
852.4164, 1912.747
852.8986, 1916.915
853.3807, 1915.479
853.8628, 1911.749
854.3449, 1915.469
854.8270, 1928.348
855.3091, 1927.298
855.7913, 1868.035
856.2734, 1797.129
856.7555, 1798.681
857.2376, 1851.679
857.7197, 1897.711
858.2018, 1922.990
858.6840, 1927.381
859.1661, 1909.288
859.6482, 1876.343
860.1303, 1838.376
860.6124, 1796.225
861.0945, 1781.212
861.5767, 1798.057
862.0588, 1823.393
862.5409, 1849.932
863.0230, 1872.681
863.5051, 1883.458
863.9872, 1881.777
864.4694, 1889.259
864.9515, 1922.030
865.4336, 1929.221
865.9157, 1876.541
866.3978, 1823.619
866.8799, 1821.344
867.3621, 1852.047
867.8442, 1866.159
868.3263, 1852.380
868.8084, 1844.987
869.2905, 1854.874
869.7726, 1864.450
870.2548, 1866.334
870.7369, 1862.482
871.2190, 1852.754
871.7011, 1838.688
872.1832, 1831.203
872.6653, 1841.027
873.1475, 1851.599
873.6296, 1851.958
874.1117, 1848.070
874.5938, 1851.286
875.0759, 1856.534
875.5580, 1842.261
876.0402, 1798.154
876.5223, 1759.124
877.0044, 1767.242
877.4865, 1798.238
877.9686, 1806.959
878.4507, 1800.640
878.9329, 1813.061
879.4150, 1850.087
879.8971, 1877.274
880.3792, 1862.797
880.8613, 1827.699
881.3434, 1825.312
881.8256, 1852.270
882.3077, 1865.131
882.7898, 1858.488
883.2719, 1859.443
883.7540, 1884.889
884.2361, 1909.602
884.7183, 1891.978
885.2004, 1831.748
885.6825, 1796.417
886.1646, 1791.787
886.6467, 1795.715
887.1288, 1809.172
887.6110, 1820.354
888.0931, 1816.446
888.5752, 1803.762
889.0573, 1804.916
889.5394, 1830.057
890.0215, 1847.488
890.5037, 1854.748
890.9858, 1857.517
891.4679, 1857.338
891.9500, 1853.848
892.4321, 1845.409
892.9142, 1832.437
893.3964, 1820.404
893.8785, 1808.825
894.3606, 1800.455
894.8427, 1789.698
895.3248, 1788.323
895.8069, 1817.700
896.2891, 1860.107
896.7712, 1878.427
897.2533, 1861.902
897.7354, 1840.521
898.2175, 1821.662
898.6996, 1814.779
899.1818, 1832.978
899.6639, 1865.819
900.1460, 1907.086
900.6281, 1947.866
901.1102, 1962.723
901.5923, 1933.764
902.0745, 1890.259
902.5566, 1856.158
903.0387, 1834.661
903.5208, 1838.466
904.0029, 1861.092
904.4850, 1880.028
904.9672, 1887.270
905.4493, 1881.512
905.9314, 1857.487
906.4135, 1825.573
906.8956, 1812.575
907.3777, 1816.311
907.8599, 1820.485
908.3420, 1822.997
908.8241, 1831.991
909.3062, 1853.448
909.7883, 1873.662
910.2704, 1867.244
910.7526, 1835.930
911.2347, 1826.458
911.7168, 1842.524
912.1989, 1856.691
912.6810, 1861.249
913.1631, 1868.516
913.6453, 1894.370
914.1274, 1924.823
914.6095, 1909.431
915.0916, 1817.244
915.5737, 1781.159
916.0558, 1839.215
916.5380, 1881.231
917.0201, 1859.106
917.5022, 1813.166
917.9843, 1781.800
918.4664, 1765.080
918.9485, 1765.978
919.4307, 1802.558
919.9128, 1829.382
920.3949, 1850.562
920.8770, 1854.605
921.3591, 1814.690
921.8412, 1763.909
922.3234, 1756.783
922.8055, 1800.660
923.2876, 1834.182
923.7697, 1847.137
924.2518, 1846.046
924.7339, 1812.353
925.2161, 1783.471
925.6982, 1799.967
926.1803, 1845.473
926.6624, 1876.286
927.1445, 1880.810
927.6266, 1871.897
928.1088, 1834.052
928.5909, 1807.158
929.0730, 1834.958
929.5551, 1880.920
930.0372, 1895.797
930.5193, 1877.960
931.0015, 1853.770
931.4836, 1829.765
931.9657, 1821.056
932.4478, 1864.459
932.9299, 1910.144
933.4120, 1887.609
933.8942, 1823.095
934.3763, 1776.225
934.8584, 1763.185
935.3405, 1772.534
935.8226, 1804.047
936.3047, 1839.596
936.7869, 1857.785
937.2690, 1862.586
937.7511, 1857.459
938.2332, 1846.312
938.7153, 1839.797
939.1974, 1842.219
939.6796, 1851.763
940.1617, 1872.394
940.6438, 1894.080
941.1259, 1888.065
941.6080, 1862.443
942.0901, 1846.667
942.5723, 1845.957
943.0544, 1865.802
943.5365, 1911.532
944.0186, 1951.088
944.5007, 1921.827
944.9828, 1840.803
945.4650, 1811.890
945.9471, 1832.134
946.4292, 1841.561
946.9113, 1825.630
947.3934, 1815.600
947.8755, 1836.446
948.3577, 1872.499
948.8398, 1888.274
949.3219, 1883.605
949.8040, 1869.540
950.2861, 1844.216
950.7682, 1829.986
951.2504, 1836.544
951.7325, 1843.750
952.2146, 1830.756
952.6967, 1804.764
953.1788, 1795.388
953.6609, 1805.289
954.1431, 1817.643
954.6252, 1833.753
955.1073, 1845.425
955.5894, 1850.274
956.0715, 1846.742
956.5536, 1830.060
957.0358, 1802.425
957.5179, 1789.608
958.0000, 1792.412
958.4821, 1810.899
958.9642, 1863.557
959.4464, 1894.474
959.9285, 1866.759
960.4106, 1777.211
960.8927, 1818.649
961.3748, 1841.923
961.8569, 1848.010
962.3391, 1785.429
962.8212, 1811.517
963.3033, 1802.071
963.7854, 1791.168
964.2675, 1829.736
964.7496, 1777.143
965.2318, 1814.927
965.7139, 1816.634
966.1960, 1834.852
966.6781, 1817.317
967.1602, 1810.824
967.6423, 1840.098
968.1245, 1849.567
968.6066, 1827.915
969.0887, 1847.183
969.5708, 1793.341
970.0529, 1803.654
970.5350, 1841.647
971.0172, 1821.793
971.4993, 1841.715
971.9814, 1846.488
972.4635, 1782.417
972.9456, 1838.073
973.4277, 1841.950
973.9099, 1792.663
974.3920, 1844.217
974.8741, 1802.259
975.3562, 1793.679
975.8383, 1810.218
976.3204, 1800.571
976.8026, 1832.210
977.2847, 1824.075
977.7668, 1812.387
978.2489, 1816.207
978.7310, 1776.083
979.2131, 1817.483
979.6953, 1803.196
980.1774, 1816.589
980.6595, 1836.257
981.1416, 1807.883
981.6237, 1830.370
982.1058, 1773.982
982.5880, 1783.592
983.0701, 1786.095
983.5522, 1830.783
984.0343, 1774.780
984.5164, 1782.556
984.9985, 1817.488
985.4807, 1814.423
985.9628, 1827.245
986.4449, 1793.034
986.9270, 1803.006
987.4091, 1800.801
987.8912, 1840.678
988.3734, 1847.333
988.8555, 1813.920
989.3376, 1780.677
989.8197, 1823.584
990.3018, 1794.315
990.7839, 1803.984
991.2661, 1773.439
991.7482, 1777.616
992.2303, 1781.242
992.7124, 1802.668
993.1945, 1770.120
993.6766, 1807.585
994.1588, 1804.584
994.6409, 1813.503
995.1230, 1821.096
995.6051, 1774.390
996.0872, 1772.196
996.5693, 1833.695
997.0515, 1798.059
997.5336, 1782.028
998.0157, 1779.934
998.4978, 1843.615
998.9799, 1846.159
999.4620, 1775.626
999.9442, 1836.408
1000.426, 1816.403
1000.908, 1820.405
1001.391, 1815.648
1001.873, 1813.483
1002.355, 1778.339
1002.837, 1786.656
1003.319, 1830.312
1003.801, 1813.721
1004.283, 1838.068
1004.765, 1787.807
1005.247, 1781.832
1005.730, 1787.612
1006.212, 1797.679
1006.694, 1773.491
1007.176, 1817.808
1007.658, 1816.513
1008.140, 1775.690
1008.622, 1777.746
1009.104, 1772.683
1009.586, 1841.736
1010.069, 1808.888
1010.551, 1768.823
1011.033, 1809.542
1011.515, 1824.368
1011.997, 1804.189
1012.479, 1802.611
1012.961, 1765.744
1013.443, 1782.994
1013.926, 1781.632
1014.408, 1810.936
1014.890, 1774.210
1015.372, 1813.498
1015.854, 1778.544
1016.336, 1820.910
1016.818, 1784.386
1017.300, 1818.137
1017.782, 1768.005
1018.265, 1778.587
1018.747, 1793.982
1019.229, 1824.921
1019.711, 1796.099
1020.193, 1830.724
1020.675, 1809.670
1021.157, 1824.858
1021.639, 1819.949
1022.122, 1789.887
1022.604, 1830.768
1023.086, 1806.946
1023.568, 1826.813
1024.050, 1775.916
1024.532, 1811.044
1025.014, 1827.651
1025.496, 1840.444
1025.978, 1837.190
1026.461, 1826.785
1026.943, 1827.601
1027.425, 1809.690
1027.907, 1764.433
1028.389, 1775.916
1028.871, 1804.564
1029.353, 1824.703
1029.835, 1787.236
1030.318, 1811.764
1030.800, 1851.429
1031.282, 1872.369
1031.764, 1851.128
1032.246, 1815.186
1032.728, 1755.926
1033.210, 1704.242
1033.692, 1709.230
1034.174, 1766.994
1034.656, 1803.481
1035.139, 1795.977
1035.621, 1791.229
1036.103, 1802.804
1036.585, 1806.162
1037.067, 1773.185
1037.549, 1739.188
1038.031, 1750.982
1038.513, 1802.856
1038.996, 1835.691
1039.478, 1839.202
1039.960, 1840.939
1040.442, 1841.392
1040.924, 1839.235
1041.406, 1830.957
1041.888, 1822.984
1042.370, 1824.480
1042.853, 1831.933
1043.335, 1826.235
1043.817, 1793.417
1044.299, 1783.345
1044.781, 1808.494
1045.263, 1832.947
1045.745, 1851.553
1046.227, 1856.163
1046.709, 1833.378
1047.192, 1794.484
1047.674, 1778.611
1048.156, 1795.396
1048.638, 1789.583
1049.120, 1745.177
1049.602, 1731.095
1050.084, 1776.735
1050.566, 1827.064
1051.048, 1841.592
1051.531, 1829.479
1052.013, 1808.265
1052.495, 1775.866
1052.977, 1767.641
1053.459, 1788.329
1053.941, 1799.807
1054.423, 1792.006
1054.905, 1784.181
1055.388, 1787.552
1055.870, 1802.766
1056.352, 1837.589
1056.834, 1886.909
1057.316, 1892.555
1057.798, 1854.873
1058.280, 1838.439
1058.762, 1854.182
1059.245, 1852.566
1059.727, 1805.563
1060.209, 1753.915
1060.691, 1756.394
1061.173, 1793.771
1061.655, 1794.440
1062.137, 1768.255
1062.619, 1778.269
1063.101, 1824.839
1063.583, 1845.448
1064.066, 1815.276
1064.548, 1767.098
1065.030, 1726.512
1065.512, 1700.332
1065.994, 1714.118
1066.476, 1748.484
1066.958, 1749.027
1067.440, 1723.164
1067.923, 1717.462
1068.405, 1743.217
1068.887, 1768.330
1069.369, 1768.802
1069.851, 1759.324
1070.333, 1754.912
1070.815, 1753.000
1071.297, 1751.123
1071.780, 1748.270
1072.262, 1735.939
1072.744, 1718.845
1073.226, 1727.896
1073.708, 1787.738
1074.190, 1841.272
1074.672, 1838.105
1075.154, 1817.972
1075.636, 1816.584
1076.119, 1820.409
1076.601, 1805.064
1077.083, 1774.884
1077.565, 1752.818
1078.047, 1745.524
1078.529, 1748.903
1079.011, 1776.063
1079.493, 1794.905
1079.976, 1779.917
1080.458, 1757.208
1080.940, 1747.522
1081.422, 1749.981
1081.904, 1760.037
1082.386, 1777.784
1082.868, 1792.802
1083.350, 1801.212
1083.833, 1809.534
1084.315, 1828.410
1084.797, 1837.645
1085.279, 1816.385
1085.761, 1783.630
1086.243, 1764.292
1086.725, 1758.572
1087.207, 1770.575
1087.689, 1824.333
1088.172, 1845.246
1088.654, 1809.564
1089.136, 1779.336
1089.618, 1780.149
1090.100, 1792.759
1090.582, 1800.607
1091.064, 1802.343
1091.546, 1790.099
1092.028, 1759.131
1092.511, 1741.722
1092.993, 1739.435
1093.475, 1743.919
1093.957, 1752.914
1094.439, 1771.074
1094.921, 1805.457
1095.403, 1837.693
1095.885, 1821.050
1096.368, 1766.750
1096.850, 1781.930
1097.332, 1854.754
1097.814, 1850.068
1098.296, 1753.781
1098.778, 1688.897
1099.260, 1716.462
1099.742, 1771.422
1100.224, 1779.227
1100.707, 1764.474
1101.189, 1779.483
1101.671, 1809.221
1102.153, 1821.975
1102.635, 1815.327
1103.117, 1790.288
1103.599, 1749.809
1104.081, 1711.362
1104.563, 1685.233
1105.046, 1669.975
1105.528, 1659.029
1106.010, 1663.053
1106.492, 1704.043
1106.974, 1763.067
1107.456, 1818.656
1107.938, 1861.043
1108.420, 1870.478
1108.903, 1830.822
1109.385, 1796.538
1109.867, 1799.893
1110.349, 1804.722
1110.831, 1788.814
1111.313, 1768.824
1111.795, 1754.157
1112.277, 1749.677
1112.760, 1768.896
1113.242, 1818.198
1113.724, 1846.824
1114.206, 1844.897
1114.688, 1828.552
1115.170, 1780.715
1115.652, 1745.355
1116.134, 1750.688
1116.616, 1771.146
1117.099, 1774.645
1117.581, 1764.335
1118.063, 1764.045
1118.545, 1779.257
1119.027, 1778.236
1119.509, 1753.276
1119.991, 1744.292
1120.473, 1765.829
1120.955, 1795.112
1121.438, 1816.300
1121.920, 1826.192
1122.402, 1813.055
1122.884, 1781.106
1123.366, 1762.457
1123.848, 1755.937
1124.330, 1751.699
1124.812, 1748.927
1125.295, 1758.558
1125.777, 1785.583
1126.259, 1809.850
1126.741, 1807.853
1127.223, 1794.452
1127.705, 1788.803
1128.187, 1789.736
1128.669, 1800.216
1129.151, 1814.071
1129.634, 1816.440
1130.116, 1805.468
1130.598, 1793.729
1131.080, 1787.662
1131.562, 1782.046
1132.044, 1771.136
1132.526, 1762.346
1133.008, 1761.111
1133.490, 1764.866
1133.973, 1775.086
1134.455, 1786.886
1134.937, 1787.846
1135.419, 1775.400
1135.901, 1755.772
1136.383, 1710.635
1136.865, 1686.591
1137.347, 1711.506
1137.830, 1737.952
1138.312, 1741.365
1138.794, 1734.468
1139.276, 1733.853
1139.758, 1738.435
1140.240, 1737.940
1140.722, 1729.650
1141.204, 1729.728
1141.687, 1739.952
1142.169, 1756.771
1142.651, 1782.707
1143.133, 1786.000
1143.615, 1737.863
1144.097, 1672.982
1144.579, 1654.303
1145.061, 1674.063
1145.543, 1706.219
1146.026, 1745.760
1146.508, 1769.953
1146.990, 1777.603
1147.472, 1782.711
1147.954, 1790.274
1148.436, 1786.807
1148.918, 1752.154
1149.400, 1717.677
1149.882, 1727.063
1150.365, 1746.649
1150.847, 1729.415
1151.329, 1696.719
1151.811, 1690.204
1152.293, 1710.685
1152.775, 1731.600
1153.257, 1746.163
1153.739, 1754.108
1154.222, 1748.238
1154.704, 1745.264
1155.186, 1768.607
1155.668, 1780.609
1156.150, 1728.254
1156.632, 1656.677
1157.114, 1650.571
1157.596, 1709.773
1158.078, 1765.051
1158.561, 1827.622
1159.043, 1847.091
1159.525, 1802.967
1160.007, 1778.991
1160.489, 1810.830
1160.971, 1842.484
1161.453, 1823.838
1161.935, 1779.593
1162.417, 1765.027
1162.900, 1773.569
1163.382, 1754.381
1163.864, 1717.891
1164.346, 1731.459
1164.828, 1792.911
1165.310, 1823.314
1165.792, 1791.445
1166.274, 1751.553
1166.757, 1747.220
1167.239, 1759.807
1167.721, 1777.125
1168.203, 1793.159
1168.685, 1801.456
1169.167, 1803.099
1169.649, 1804.995
1170.131, 1803.343
1170.614, 1775.545
1171.096, 1703.005
1171.578, 1657.825
1172.060, 1686.773
1172.542, 1709.439
1173.024, 1685.513
1173.506, 1662.998
1173.988, 1678.134
1174.470, 1708.750
1174.953, 1723.936
1175.435, 1725.390
1175.917, 1732.540
1176.399, 1750.809
1176.881, 1741.309
1177.363, 1694.697
1177.845, 1682.725
1178.327, 1729.390
1178.809, 1762.938
1179.292, 1729.870
1179.774, 1679.120
1180.256, 1696.910
1180.738, 1748.655
1181.220, 1734.766
1181.702, 1682.947
1182.184, 1656.784
1182.666, 1660.845
1183.149, 1694.020
1183.631, 1747.522
1184.113, 1765.643
1184.595, 1700.817
1185.077, 1638.384
1185.559, 1627.255
1186.041, 1645.028
1186.523, 1700.097
1187.005, 1756.051
1187.488, 1779.964
1187.970, 1773.825
1188.452, 1741.551
1188.934, 1676.371
1189.416, 1651.552
1189.898, 1697.867
1190.380, 1719.268
1190.862, 1696.799
1191.344, 1676.237
1191.827, 1674.231
1192.309, 1681.231
1192.791, 1689.000
1193.273, 1698.673
1193.755, 1716.507
1194.237, 1739.272
1194.719, 1742.249
1195.201, 1729.281
1195.684, 1716.250
1196.166, 1707.895
1196.648, 1714.524
1197.130, 1738.993
1197.612, 1766.418
1198.094, 1788.614
1198.576, 1802.960
1199.058, 1805.812
1199.541, 1800.944
1200.023, 1788.379
1200.505, 1772.815
1200.987, 1760.971
1201.469, 1751.103
1201.951, 1732.901
1202.433, 1700.590
1202.915, 1688.765
1203.397, 1734.608
1203.880, 1744.843
1204.362, 1681.466
1204.844, 1639.610
1205.326, 1673.131
1205.808, 1708.697
1206.290, 1670.456
1206.772, 1589.593
1207.254, 1538.628
1207.736, 1519.073
1208.219, 1567.247
1208.701, 1668.617
1209.183, 1726.430
1209.665, 1730.379
1210.147, 1715.529
1210.629, 1696.815
1211.111, 1678.675
1211.593, 1659.995
1212.076, 1653.510
1212.558, 1681.871
1213.040, 1717.218
1213.522, 1738.981
1214.004, 1747.127
1214.486, 1736.993
1214.968, 1716.338
1215.450, 1706.198
1215.932, 1711.482
1216.415, 1711.404
1216.897, 1696.207
1217.379, 1691.241
1217.861, 1709.439
1218.343, 1711.304
1218.825, 1672.003
1219.307, 1641.619
1219.789, 1667.648
1220.271, 1721.025
1220.754, 1739.547
1221.236, 1729.457
1221.718, 1723.725
1222.200, 1721.547
1222.682, 1718.297
1223.164, 1715.104
1223.646, 1727.119
1224.128, 1753.750
1224.611, 1746.884
1225.093, 1655.779
1225.575, 1590.568
1226.057, 1669.918
1226.539, 1757.249
1227.021, 1748.884
1227.503, 1706.675
1227.985, 1682.338
1228.468, 1677.927
1228.950, 1692.444
1229.432, 1725.313
1229.914, 1747.076
1230.396, 1760.297
1230.878, 1752.748
1231.360, 1718.950
1231.842, 1680.395
1232.324, 1638.852
1232.807, 1631.420
1233.289, 1687.063
1233.771, 1745.733
1234.253, 1720.308
1234.735, 1643.834
1235.217, 1567.532
1235.699, 1506.204
1236.181, 1503.615
1236.663, 1538.028
1237.146, 1552.383
1237.628, 1543.200
1238.110, 1552.573
1238.592, 1600.500
1239.074, 1637.063
1239.556, 1637.397
1240.038, 1631.444
1240.520, 1618.007
1241.003, 1614.541
1241.485, 1636.545
1241.967, 1664.677
1242.449, 1677.452
1242.931, 1680.766
1243.413, 1695.489
1243.895, 1721.938
1244.377, 1737.697
1244.859, 1742.890
1245.342, 1733.948
1245.824, 1713.716
1246.306, 1711.406
1246.788, 1735.613
1247.270, 1751.896
1247.752, 1733.782
1248.234, 1700.997
1248.716, 1649.821
1249.198, 1616.905
1249.681, 1664.571
1250.163, 1722.917
1250.645, 1697.112
1251.127, 1627.426
1251.609, 1618.489
1252.091, 1679.223
1252.573, 1704.938
1253.055, 1679.245
1253.538, 1655.313
1254.020, 1630.773
1254.502, 1625.354
1254.984, 1648.744
1255.466, 1652.761
1255.948, 1605.953
1256.430, 1561.503
1256.912, 1589.332
1257.395, 1651.859
1257.877, 1689.038
1258.359, 1701.624
1258.841, 1670.611
1259.323, 1626.188
1259.805, 1637.450
1260.287, 1690.792
1260.769, 1701.255
1261.251, 1641.631
1261.734, 1619.628
1262.216, 1713.104
1262.698, 1772.360
1263.180, 1749.685
1263.662, 1722.215
1264.144, 1712.383
1264.626, 1711.050
1265.108, 1711.668
1265.590, 1715.232
1266.073, 1726.389
1266.555, 1740.439
1267.037, 1723.991
1267.519, 1692.980
1268.001, 1729.836
1268.483, 1809.649
1268.965, 1817.343
1269.447, 1744.405
1269.930, 1686.098
1270.412, 1684.700
1270.894, 1694.130
1271.376, 1686.261
##END=



