##NAMES=Diopside
##RRUFFID=R060061
##IDEAL CHEMISTRY=CaMgSi_2_O_6_
##LOCALITY=Oka, near Montreal, Quebec, Canada
##OWNER=RRUFF
##SOURCE=University of Arizona Mineral Museum
##DESCRIPTION=Pale green prismatic single crystal
##STATUS=The identification of this mineral is confirmed by single-crystal X-ray diffraction and chemical analysis.
##URL=rruff.info/R060061
##MEASURED CHEMISTRY=(Ca_0.99_Mn_0.01_)_Σ=1_(Mg_0.92_Fe^2+^_0.06_Mn_0.02_)_Σ=1_(Si_1.99_Al_0.01_)_Σ=2_O_6_
107.1171, 134.6064
107.5992, 133.7307
108.0813, 133.1810
108.5634, 133.1303
109.0455, 133.4056
109.5276, 133.7478
110.0098, 134.0186
110.4919, 134.3595
110.9740, 135.1564
111.4561, 136.6901
111.9382, 138.1111
112.4203, 138.8058
112.9025, 138.8441
113.3846, 139.0283
113.8667, 139.8119
114.3488, 140.9819
114.8309, 142.2440
115.3130, 143.5759
115.7952, 144.9548
116.2773, 146.4054
116.7594, 147.9974
117.2415, 149.4558
117.7236, 150.5697
118.2057, 151.5282
118.6879, 152.5513
119.1700, 153.7875
119.6521, 155.1968
120.1342, 156.4507
120.6163, 157.4245
121.0984, 158.3418
121.5805, 159.2112
122.0627, 160.0587
122.5448, 160.9226
123.0269, 161.8388
123.5090, 162.8143
123.9911, 163.7808
124.4732, 164.4542
124.9554, 165.3363
125.4375, 166.7629
125.9196, 168.7269
126.4017, 170.9333
126.8838, 173.0651
127.3659, 175.0883
127.8481, 177.0650
128.3302, 178.8855
128.8123, 180.7021
129.2944, 182.6689
129.7765, 184.8150
130.2586, 187.1712
130.7408, 189.8533
131.2229, 192.8475
131.7050, 195.8817
132.1871, 198.5982
132.6692, 201.1971
133.1513, 204.4707
133.6335, 208.8434
134.1156, 213.8553
134.5977, 219.0735
135.0798, 224.5340
135.5619, 229.8655
136.0440, 234.9019
136.5262, 239.7595
137.0083, 243.6054
137.4904, 247.2180
137.9725, 249.1566
138.4546, 248.0627
138.9367, 243.5103
139.4189, 236.4407
139.9010, 228.4003
140.3831, 218.8078
140.8652, 209.2900
141.3473, 199.6744
141.8294, 190.4428
142.3116, 182.0896
142.7937, 174.8061
143.2758, 168.5972
143.7579, 163.3064
144.2400, 159.4351
144.7221, 156.0711
145.2043, 153.1648
145.6864, 150.6775
146.1685, 148.6404
146.6506, 147.0955
147.1327, 146.0161
147.6148, 144.8950
148.0969, 143.6432
148.5791, 142.4455
149.0612, 141.2303
149.5433, 140.0715
150.0254, 139.3029
150.5075, 139.2805
150.9896, 139.9778
151.4718, 140.5177
151.9539, 140.9412
152.4360, 141.1731
152.9181, 141.1168
153.4002, 140.7500
153.8823, 140.2188
154.3645, 139.5964
154.8466, 138.8926
155.3287, 138.1179
155.8108, 137.1596
156.2929, 136.1369
156.7750, 135.2977
157.2572, 134.6047
157.7393, 134.2027
158.2214, 134.2454
158.7035, 134.6033
159.1856, 134.9919
159.6677, 135.3259
160.1499, 135.5903
160.6320, 135.4965
161.1141, 134.5704
161.5962, 133.7286
162.0783, 133.3674
162.5604, 133.4166
163.0426, 133.5930
163.5247, 133.6134
164.0068, 133.4137
164.4889, 133.3994
164.9710, 133.7910
165.4531, 134.1735
165.9353, 134.3388
166.4174, 134.2839
166.8995, 134.1434
167.3816, 134.0540
167.8637, 133.9146
168.3458, 134.1602
168.8279, 135.1047
169.3101, 136.1693
169.7922, 136.8813
170.2743, 137.1559
170.7564, 137.3162
171.2385, 137.8580
171.7206, 139.0217
172.2028, 140.0267
172.6849, 140.7255
173.1670, 141.2888
173.6491, 141.9306
174.1312, 142.7285
174.6133, 143.5509
175.0955, 144.0827
175.5776, 144.2326
176.0597, 144.6326
176.5418, 145.5961
177.0239, 146.9422
177.5060, 148.3097
177.9882, 149.6583
178.4703, 150.8803
178.9524, 152.1624
179.4345, 153.6734
179.9166, 154.1328
180.3987, 152.1830
180.8809, 148.1240
181.3630, 144.4830
181.8451, 142.0442
182.3272, 140.2386
182.8093, 138.5167
183.2914, 136.8388
183.7736, 135.3783
184.2557, 134.3400
184.7378, 133.7612
185.2199, 133.3130
185.7020, 133.0550
186.1841, 132.8309
186.6663, 132.5809
187.1484, 132.2872
187.6305, 131.9122
188.1126, 131.3275
188.5947, 130.3331
189.0768, 129.6929
189.5589, 129.7803
190.0411, 130.0280
190.5232, 129.9910
191.0053, 129.5471
191.4874, 128.9706
191.9695, 128.8182
192.4516, 129.5957
192.9338, 129.9578
193.4159, 129.7830
193.8980, 129.2514
194.3801, 128.3474
194.8622, 127.0915
195.3443, 125.8140
195.8265, 125.2744
196.3086, 126.7892
196.7907, 127.5212
197.2728, 126.9077
197.7549, 125.6779
198.2370, 124.6223
198.7192, 124.0698
199.2013, 123.8796
199.6834, 123.6974
200.1655, 123.5322
200.6476, 123.3600
201.1297, 123.2316
201.6119, 123.0858
202.0940, 122.7896
202.5761, 122.2560
203.0582, 121.6130
203.5403, 121.2137
204.0224, 121.1143
204.5046, 121.0691
204.9867, 120.9118
205.4688, 120.7329
205.9509, 120.8226
206.4330, 121.4160
206.9151, 122.2013
207.3973, 122.5507
207.8794, 122.3376
208.3615, 122.0763
208.8436, 122.0405
209.3257, 122.2062
209.8078, 122.4458
210.2899, 122.7554
210.7721, 123.0847
211.2542, 123.3682
211.7363, 123.5987
212.2184, 123.8035
212.7005, 123.9373
213.1826, 123.9995
213.6648, 124.2625
214.1469, 125.1172
214.6290, 125.9961
215.1111, 126.3225
215.5932, 125.9783
216.0753, 125.5566
216.5575, 125.8167
217.0396, 126.9134
217.5217, 127.6520
218.0038, 127.1263
218.4859, 126.5195
218.9680, 126.6235
219.4502, 127.5909
219.9323, 128.8892
220.4144, 129.8505
220.8965, 130.3768
221.3786, 130.8887
221.8607, 131.2952
222.3429, 131.8033
222.8250, 132.6526
223.3071, 133.8640
223.7892, 135.1221
224.2713, 135.8634
224.7534, 135.6130
225.2356, 135.9975
225.7177, 137.4915
226.1998, 139.2693
226.6819, 140.7997
227.1640, 141.9507
227.6461, 142.9399
228.1283, 144.0715
228.6104, 145.3211
229.0925, 146.8024
229.5746, 148.8826
230.0567, 150.9156
230.5388, 152.5742
231.0210, 153.7288
231.5031, 154.3047
231.9852, 154.1664
232.4673, 152.9870
232.9494, 151.6251
233.4315, 150.2326
233.9137, 148.5901
234.3958, 146.3105
234.8779, 143.3855
235.3600, 140.3899
235.8421, 138.1194
236.3242, 136.8436
236.8064, 135.8380
237.2885, 135.4872
237.7706, 135.1700
238.2527, 134.1109
238.7348, 132.2084
239.2169, 130.3710
239.6991, 129.8408
240.1812, 131.1445
240.6633, 131.9988
241.1454, 132.1433
241.6275, 131.9202
242.1096, 131.5126
242.5918, 130.9643
243.0739, 130.5476
243.5560, 130.6184
244.0381, 131.2235
244.5202, 131.8782
245.0023, 132.7022
245.4845, 133.4769
245.9666, 133.9155
246.4487, 133.9659
246.9308, 133.9133
247.4129, 133.9338
247.8950, 134.0504
248.3772, 134.5204
248.8593, 135.8329
249.3414, 137.3046
249.8235, 138.0663
250.3056, 137.9924
250.7877, 137.7248
251.2698, 137.8591
251.7520, 138.2383
252.2341, 138.3534
252.7162, 138.1569
253.1983, 137.6144
253.6804, 136.5863
254.1625, 134.9972
254.6447, 133.3210
255.1268, 131.7327
255.6089, 130.2959
256.0910, 129.1680
256.5731, 128.5705
257.0552, 128.1784
257.5374, 127.5413
258.0195, 126.6155
258.5016, 125.6703
258.9837, 124.9282
259.4658, 124.2307
259.9479, 123.3095
260.4301, 121.8520
260.9122, 120.4782
261.3943, 120.2113
261.8764, 121.3152
262.3585, 122.2705
262.8406, 122.2408
263.3228, 121.8010
263.8049, 121.4159
264.2870, 121.2092
264.7691, 121.0712
265.2512, 120.7792
265.7333, 120.2352
266.2155, 120.0094
266.6976, 120.7306
267.1797, 121.6030
267.6618, 121.9662
268.1439, 121.6430
268.6260, 121.1854
269.1082, 121.3470
269.5903, 122.2824
270.0724, 123.0321
270.5545, 123.1234
271.0366, 123.1395
271.5187, 123.4308
272.0009, 124.0499
272.4830, 124.8075
272.9651, 125.4956
273.4472, 126.0893
273.9293, 126.7552
274.4114, 127.6449
274.8936, 128.5139
275.3757, 129.2827
275.8578, 129.9254
276.3399, 130.4313
276.8220, 130.7271
277.3041, 130.7639
277.7863, 130.9417
278.2684, 131.3898
278.7505, 131.8891
279.2326, 132.4947
279.7147, 133.1093
280.1968, 133.4921
280.6789, 133.3910
281.1610, 132.7912
281.6432, 132.2072
282.1253, 131.7706
282.6074, 131.2121
283.0895, 130.2278
283.5716, 129.0504
284.0537, 128.1836
284.5359, 128.0484
285.0180, 128.5651
285.5001, 128.8114
285.9822, 128.5505
286.4643, 128.2595
286.9464, 127.9850
287.4286, 127.7645
287.9107, 127.6172
288.3928, 127.5387
288.8749, 127.5718
289.3570, 127.9331
289.8391, 129.1239
290.3213, 129.9828
290.8034, 129.9888
291.2855, 129.7120
291.7676, 129.8727
292.2497, 130.8058
292.7318, 132.1550
293.2140, 132.9501
293.6961, 132.4201
294.1782, 132.5742
294.6603, 133.9103
295.1424, 135.7462
295.6245, 137.5097
296.1067, 139.0132
296.5888, 140.4105
297.0709, 141.9899
297.5530, 143.9082
298.0351, 145.7010
298.5172, 147.0666
298.9994, 148.5256
299.4815, 150.4515
299.9636, 152.9029
300.4457, 155.6885
300.9278, 158.6251
301.4099, 161.8085
301.8921, 164.8336
302.3742, 167.7025
302.8563, 170.4749
303.3384, 173.2144
303.8205, 175.9083
304.3026, 178.4530
304.7848, 180.7349
305.2669, 182.7467
305.7490, 184.7534
306.2311, 186.3110
306.7132, 188.3038
307.1953, 191.4265
307.6775, 195.2444
308.1596, 198.7793
308.6417, 201.3207
309.1238, 202.9744
309.6059, 204.8629
310.0880, 206.9362
310.5702, 209.3246
311.0523, 212.2339
311.5344, 215.4259
312.0165, 218.5910
312.4986, 221.5726
312.9807, 224.4276
313.4629, 227.4164
313.9450, 230.6351
314.4271, 233.8460
314.9092, 236.6997
315.3913, 239.6804
315.8734, 243.4095
316.3556, 248.0675
316.8377, 253.0975
317.3198, 257.5161
317.8019, 261.0566
318.2840, 264.3821
318.7661, 267.8739
319.2483, 270.9252
319.7304, 273.2234
320.2125, 274.6650
320.6946, 275.2356
321.1767, 275.0171
321.6588, 274.2967
322.1409, 271.4204
322.6230, 265.3760
323.1052, 258.4802
323.5873, 251.5374
324.0694, 244.6458
324.5515, 237.7525
325.0336, 230.7296
325.5157, 223.6048
325.9979, 216.7552
326.4800, 210.1350
326.9621, 203.8683
327.4442, 198.1100
327.9263, 192.7473
328.4084, 187.5817
328.8906, 182.4771
329.3727, 177.5807
329.8548, 173.5423
330.3369, 170.9448
330.8190, 168.5783
331.3011, 166.3452
331.7833, 164.2685
332.2654, 162.3418
332.7475, 160.5752
333.2296, 159.0239
333.7117, 157.8523
334.1938, 157.4891
334.6760, 156.6703
335.1581, 154.7804
335.6402, 152.9245
336.1223, 151.9021
336.6044, 151.7845
337.0865, 152.0626
337.5687, 152.1778
338.0508, 152.0870
338.5329, 152.0339
339.0150, 152.0767
339.4971, 152.1015
339.9792, 151.8885
340.4614, 151.6015
340.9435, 151.6858
341.4256, 152.5872
341.9077, 154.1912
342.3898, 155.0587
342.8719, 154.3364
343.3541, 153.8237
343.8362, 153.7931
344.3183, 154.2211
344.8004, 155.1630
345.2825, 156.6830
345.7646, 158.4495
346.2468, 159.5551
346.7289, 159.5433
347.2110, 159.7061
347.6931, 160.0587
348.1752, 160.7128
348.6573, 161.9305
349.1395, 163.7184
349.6216, 165.5686
350.1037, 166.8088
350.5858, 167.3173
351.0679, 167.6624
351.5500, 167.4827
352.0322, 167.4661
352.5143, 168.1482
352.9964, 169.3610
353.4785, 170.4333
353.9606, 170.7649
354.4427, 170.3910
354.9249, 170.0795
355.4070, 170.0065
355.8891, 169.7605
356.3712, 169.4221
356.8533, 168.7951
357.3354, 167.4941
357.8176, 165.1880
358.2997, 162.3371
358.7818, 160.1146
359.2639, 158.7390
359.7460, 157.4233
360.2281, 156.1177
360.7103, 154.6763
361.1924, 152.8365
361.6745, 150.5220
362.1566, 148.2200
362.6387, 146.5654
363.1208, 145.6034
363.6029, 144.6760
364.0851, 143.6018
364.5672, 142.6112
365.0493, 141.8912
365.5314, 141.4133
366.0135, 140.9729
366.4956, 140.3318
366.9778, 139.5868
367.4599, 139.1925
367.9420, 139.2372
368.4241, 139.5110
368.9062, 139.8910
369.3883, 140.3925
369.8705, 141.0968
370.3526, 142.2143
370.8347, 143.3582
371.3168, 143.8817
371.7989, 143.7047
372.2810, 143.5497
372.7632, 143.6743
373.2453, 144.0131
373.7274, 144.5246
374.2095, 145.2498
374.6916, 145.9554
375.1737, 146.2717
375.6559, 146.3507
376.1380, 147.0264
376.6201, 148.7502
377.1022, 150.7009
377.5843, 151.9434
378.0664, 152.5593
378.5486, 153.2648
379.0307, 154.3362
379.5128, 155.6404
379.9949, 156.9668
380.4770, 158.2948
380.9591, 159.7509
381.4413, 161.5256
381.9234, 163.5144
382.4055, 165.2920
382.8876, 166.5725
383.3697, 167.8973
383.8518, 169.6915
384.3340, 171.8554
384.8161, 174.1203
385.2982, 176.5128
385.7803, 178.7134
386.2624, 179.9198
386.7445, 180.1280
387.2267, 179.7550
387.7088, 178.9320
388.1909, 177.5827
388.6730, 175.6021
389.1551, 172.9585
389.6372, 169.7121
390.1194, 165.8242
390.6015, 161.1669
391.0836, 156.6931
391.5657, 152.2610
392.0478, 148.1476
392.5299, 144.7291
393.0121, 141.8248
393.4942, 138.7666
393.9763, 135.0390
394.4584, 130.8940
394.9405, 127.6588
395.4226, 126.0402
395.9048, 124.4016
396.3869, 122.3975
396.8690, 120.2790
397.3511, 118.2383
397.8332, 116.3683
398.3153, 114.8309
398.7975, 113.9742
399.2796, 114.3569
399.7617, 113.9309
400.2438, 111.9175
400.7259, 109.8962
401.2080, 108.8332
401.6902, 108.6166
402.1723, 108.5536
402.6544, 108.0825
403.1365, 107.2561
403.6186, 106.7312
404.1007, 106.7557
404.5828, 106.8106
405.0649, 106.9795
405.5471, 107.0603
406.0292, 106.7335
406.5113, 105.8764
406.9934, 104.8548
407.4755, 104.3215
407.9576, 104.4594
408.4398, 104.5385
408.9219, 104.5678
409.4040, 104.4562
409.8861, 103.9802
410.3682, 103.2459
410.8503, 102.7113
411.3325, 102.8567
411.8146, 103.5721
412.2967, 104.0229
412.7788, 104.1753
413.2609, 104.1021
413.7430, 103.6334
414.2252, 103.0463
414.7073, 102.7570
415.1894, 102.9704
415.6715, 103.3681
416.1536, 103.5785
416.6357, 103.6013
417.1179, 103.4346
417.6000, 102.9527
418.0821, 102.3837
418.5642, 101.9066
419.0463, 101.5265
419.5284, 101.3104
420.0106, 101.4701
420.4927, 101.7914
420.9748, 101.7507
421.4569, 101.2332
421.9390, 100.6717
422.4211, 100.4336
422.9033, 100.4120
423.3854, 100.2533
423.8675, 99.67048
424.3496, 99.17893
424.8317, 99.23774
425.3138, 99.71095
425.7960, 100.1118
426.2781, 100.2389
426.7602, 100.2019
427.2423, 100.2239
427.7244, 100.3691
428.2065, 100.3567
428.6887, 99.98348
429.1708, 99.51807
429.6529, 99.27283
430.1350, 99.26616
430.6171, 99.22655
431.0992, 98.86656
431.5814, 98.18056
432.0635, 97.94250
432.5456, 98.41917
433.0277, 98.94590
433.5098, 99.44187
433.9919, 99.82027
434.4741, 99.92734
434.9562, 99.69906
435.4383, 99.29941
435.9204, 99.06898
436.4025, 99.20853
436.8846, 99.12803
437.3668, 98.46933
437.8489, 97.91698
438.3310, 98.03036
438.8131, 98.69522
439.2952, 99.33960
439.7773, 99.49080
440.2595, 99.19308
440.7416, 98.88226
441.2237, 98.51114
441.7058, 98.20027
442.1879, 97.94613
442.6700, 97.77705
443.1522, 97.71703
443.6343, 97.77388
444.1164, 97.95315
444.5985, 98.33248
445.0806, 98.93713
445.5627, 99.38618
446.0448, 99.63409
446.5269, 99.68325
447.0091, 99.47228
447.4912, 99.06423
447.9733, 98.68949
448.4554, 98.36246
448.9375, 98.18021
449.4196, 98.45783
449.9018, 99.27813
450.3839, 99.83731
450.8660, 99.49540
451.3481, 98.77774
451.8302, 98.66590
452.3123, 99.40818
452.7945, 100.1068
453.2766, 100.2195
453.7587, 99.96852
454.2408, 99.78515
454.7229, 99.75679
455.2050, 99.82452
455.6872, 99.96497
456.1693, 100.1832
456.6514, 100.2790
457.1335, 100.1328
457.6156, 99.97409
458.0977, 99.90833
458.5799, 99.93574
459.0620, 100.0812
459.5441, 100.3751
460.0262, 100.6942
460.5083, 100.7274
460.9904, 100.1647
461.4726, 99.78735
461.9547, 99.69637
462.4368, 99.71159
462.9189, 99.73595
463.4010, 99.74153
463.8831, 99.71790
464.3653, 99.65852
464.8474, 99.56229
465.3295, 99.40305
465.8116, 99.02128
466.2937, 98.79042
466.7758, 98.88328
467.2580, 99.11159
467.7401, 99.31989
468.2222, 99.45190
468.7043, 99.43894
469.1864, 99.07491
469.6685, 98.30796
470.1507, 97.90291
470.6328, 98.20788
471.1149, 98.56738
471.5970, 98.63115
472.0791, 98.45425
472.5612, 98.18266
473.0434, 97.77160
473.5255, 97.39835
474.0076, 97.38194
474.4897, 97.73203
474.9718, 98.07536
475.4539, 98.30984
475.9361, 98.42417
476.4182, 98.39332
476.9003, 98.19735
477.3824, 98.01417
477.8645, 97.90813
478.3466, 97.85478
478.8288, 97.82600
479.3109, 97.81823
479.7930, 97.83263
480.2751, 97.87242
480.7572, 97.93619
481.2393, 98.01009
481.7215, 98.07479
482.2036, 98.17058
482.6857, 98.19805
483.1678, 98.30471
483.6499, 98.75855
484.1320, 99.61575
484.6142, 100.5847
485.0963, 101.2645
485.5784, 101.5456
486.0605, 102.0544
486.5426, 103.0459
487.0247, 103.9826
487.5068, 104.6262
487.9890, 105.0820
488.4711, 105.5432
488.9532, 106.0986
489.4353, 106.7363
489.9174, 107.4837
490.3995, 108.4503
490.8817, 109.1363
491.3638, 109.1343
491.8459, 109.0859
492.3280, 109.3392
492.8101, 109.8763
493.2922, 110.4826
493.7744, 110.9527
494.2565, 111.4293
494.7386, 112.2618
495.2207, 113.4811
495.7028, 114.8712
496.1849, 116.5426
496.6671, 118.2047
497.1492, 119.3807
497.6313, 119.9264
498.1134, 120.5215
498.5955, 121.4398
499.0776, 122.6244
499.5598, 124.0888
500.0419, 125.8318
500.5240, 127.4699
501.0061, 128.5780
501.4882, 129.2366
501.9703, 130.5194
502.4525, 132.9509
502.9346, 135.2997
503.4167, 137.4244
503.8988, 139.1519
504.3809, 140.2366
504.8630, 140.6140
505.3452, 140.4410
505.8273, 139.9392
506.3094, 139.1623
506.7915, 137.7735
507.2736, 135.4064
507.7557, 132.8154
508.2379, 130.0266
508.7200, 127.2263
509.2021, 124.6790
509.6842, 122.4965
510.1663, 120.5553
510.6484, 118.6008
511.1306, 116.5945
511.6127, 114.8988
512.0948, 113.6718
512.5769, 112.6819
513.0590, 111.7839
513.5411, 110.9853
514.0233, 110.3350
514.5054, 109.8970
514.9875, 109.5907
515.4696, 109.3614
515.9517, 109.2026
516.4338, 108.9537
516.9160, 108.5021
517.3981, 107.9920
517.8802, 107.6534
518.3623, 107.4796
518.8444, 107.4388
519.3265, 107.6392
519.8087, 107.8888
520.2908, 108.0851
520.7729, 108.1829
521.2550, 108.0162
521.7371, 107.4199
522.2192, 106.5761
522.7014, 106.2113
523.1835, 106.8305
523.6656, 107.2851
524.1477, 107.3788
524.6298, 107.4102
525.1119, 107.6352
525.5941, 108.0571
526.0762, 108.5059
526.5583, 108.8719
527.0404, 109.1363
527.5225, 109.1399
528.0046, 108.6909
528.4868, 108.3579
528.9689, 108.4664
529.4510, 108.6738
529.9331, 108.6304
530.4152, 108.2791
530.8973, 107.9221
531.3795, 107.8069
531.8616, 107.8675
532.3437, 107.9367
532.8258, 108.0197
533.3079, 108.0111
533.7900, 107.7860
534.2722, 107.4230
534.7543, 107.1926
535.2364, 107.2674
535.7185, 107.1841
536.2006, 106.5358
536.6827, 105.6943
537.1649, 105.2411
537.6470, 105.2761
538.1291, 105.4718
538.6112, 105.5296
539.0933, 105.4482
539.5754, 105.3316
540.0576, 104.9939
540.5397, 104.8478
541.0218, 105.1567
541.5039, 105.6189
541.9860, 105.8832
542.4681, 105.8614
542.9503, 105.7245
543.4324, 105.6569
543.9145, 105.6600
544.3966, 105.6826
544.8787, 105.6741
545.3608, 105.7687
545.8430, 106.1558
546.3251, 106.6211
546.8072, 106.8318
547.2892, 106.6485
547.7714, 106.4366
548.2535, 106.5973
548.7356, 106.9965
549.2177, 107.1511
549.6998, 106.9436
550.1819, 106.6390
550.6641, 106.4139
551.1462, 106.2819
551.6283, 106.2639
552.1104, 106.4213
552.5925, 106.6244
553.0746, 106.8676
553.5568, 107.1078
554.0389, 107.3143
554.5210, 107.4699
555.0031, 107.4891
555.4852, 107.2468
555.9673, 106.7099
556.4495, 106.3027
556.9316, 106.1805
557.4137, 106.0134
557.8958, 105.6785
558.3779, 105.2807
558.8600, 104.9381
559.3422, 104.6873
559.8243, 104.5101
560.3064, 104.4808
560.7885, 104.5721
561.2706, 104.2826
561.7527, 103.3230
562.2349, 102.5195
562.7170, 102.6718
563.1991, 103.2448
563.6812, 103.3860
564.1633, 102.8360
564.6454, 102.1278
565.1276, 101.4305
565.6097, 100.8438
566.0918, 100.6400
566.5739, 100.8695
567.0560, 101.1655
567.5381, 101.2177
568.0203, 101.0342
568.5024, 100.8216
568.9845, 100.7057
569.4666, 100.4085
569.9487, 99.66611
570.4308, 98.82010
570.9130, 98.23681
571.3951, 97.98259
571.8772, 97.89908
572.3593, 97.84153
572.8414, 97.81045
573.3235, 97.84547
573.8057, 98.11733
574.2878, 98.13892
574.7699, 97.61256
575.2520, 96.85882
575.7341, 96.13001
576.2162, 95.46916
576.6984, 94.97123
577.1805, 94.79967
577.6626, 94.81434
578.1447, 94.65751
578.6268, 94.28962
579.1089, 94.11797
579.5911, 94.50316
580.0732, 95.18047
580.5553, 95.33735
581.0374, 94.74138
581.5195, 94.20531
582.0016, 93.97680
582.4838, 93.80649
582.9659, 93.42536
583.4480, 92.86608
583.9301, 92.37399
584.4122, 92.11388
584.8943, 92.05343
585.3765, 92.10432
585.8586, 92.43767
586.3407, 92.51775
586.8228, 92.00823
587.3049, 91.46971
587.7870, 91.27926
588.2692, 91.39055
588.7513, 91.49748
589.2334, 91.38106
589.7155, 91.20586
590.1976, 91.29723
590.6797, 91.64831
591.1619, 91.89198
591.6440, 91.88987
592.1261, 91.76846
592.6082, 91.70745
593.0903, 91.71110
593.5724, 91.57812
594.0546, 91.08416
594.5367, 90.63356
595.0188, 90.56779
595.5009, 90.72490
595.9830, 90.73098
596.4651, 90.44183
596.9473, 90.02447
597.4294, 89.71692
597.9115, 89.51463
598.3936, 89.44353
598.8757, 89.67233
599.3578, 89.85685
599.8400, 89.95147
600.3221, 89.92036
600.8042, 89.59406
601.2863, 88.88749
601.7684, 88.40313
602.2505, 89.08212
602.7327, 90.58461
603.2148, 91.26199
603.6969, 90.78559
604.1790, 90.17545
604.6611, 90.05710
605.1432, 90.33427
605.6254, 90.61398
606.1075, 90.80350
606.5896, 91.16600
607.0717, 92.05423
607.5538, 92.99443
608.0359, 93.45011
608.5181, 93.39725
609.0002, 93.10390
609.4823, 92.73118
609.9644, 92.33820
610.4465, 92.19548
610.9286, 92.45954
611.4108, 92.67133
611.8929, 92.66666
612.3750, 92.69225
612.8571, 92.87656
613.3392, 93.23026
613.8214, 93.76375
614.3035, 94.65058
614.7856, 95.52485
615.2677, 95.70222
615.7498, 95.24538
616.2319, 94.91049
616.7141, 94.88342
617.1962, 95.12301
617.6783, 95.71336
618.1604, 96.66337
618.6425, 97.22756
619.1246, 97.13486
619.6068, 96.90901
620.0889, 96.59956
620.5710, 96.37937
621.0531, 96.50400
621.5352, 97.03442
622.0173, 97.84303
622.4995, 98.88004
622.9816, 100.1460
623.4637, 100.8037
623.9458, 100.4655
624.4279, 100.1457
624.9100, 100.0234
625.3922, 100.1376
625.8743, 100.6301
626.3564, 101.5089
626.8385, 102.3310
627.3206, 102.6808
627.8027, 102.8615
628.2849, 103.4691
628.7670, 104.4823
629.2491, 105.3098
629.7311, 105.5854
630.2133, 105.6737
630.6954, 106.3003
631.1775, 107.7970
631.6596, 108.9699
632.1417, 109.5543
632.6238, 110.0687
633.1060, 110.7812
633.5881, 111.6254
634.0702, 112.3868
634.5523, 112.9768
635.0344, 113.6632
635.5165, 114.9017
635.9987, 116.7113
636.4808, 118.4694
636.9629, 120.2086
637.4450, 121.8022
637.9271, 122.9439
638.4092, 123.9830
638.8914, 125.4302
639.3735, 127.3958
639.8556, 129.6463
640.3377, 132.2130
640.8198, 134.9326
641.3019, 137.4270
641.7841, 139.7740
642.2662, 142.6257
642.7483, 146.4155
643.2304, 150.8849
643.7125, 155.2699
644.1946, 159.2276
644.6768, 163.7626
645.1589, 169.0203
645.6410, 174.6423
646.1231, 180.5541
646.6052, 186.6629
647.0873, 192.9059
647.5695, 199.2831
648.0516, 205.6067
648.5337, 211.3349
649.0158, 216.7263
649.4979, 223.4728
649.9800, 232.2175
650.4622, 240.8811
650.9443, 247.7878
651.4264, 253.3675
651.9085, 259.8275
652.3906, 267.7897
652.8727, 275.5937
653.3549, 282.4106
653.8370, 289.2758
654.3191, 297.0760
654.8012, 305.8915
655.2833, 315.4345
655.7654, 325.5865
656.2476, 336.1212
656.7297, 346.3992
657.2118, 356.2618
657.6939, 366.5244
658.1760, 377.2952
658.6581, 388.4952
659.1403, 400.2119
659.6224, 412.2108
660.1045, 424.0454
660.5866, 435.9588
661.0687, 446.8852
661.5508, 456.3742
662.0330, 464.2716
662.5151, 470.4216
662.9972, 474.7258
663.4793, 476.2743
663.9614, 474.3260
664.4435, 469.0977
664.9257, 461.5175
665.4078, 451.6057
665.8899, 439.1570
666.3720, 423.2321
666.8541, 405.9091
667.3362, 387.8286
667.8184, 369.4303
668.3005, 351.3813
668.7826, 334.0620
669.2647, 317.0714
669.7468, 299.6094
670.2289, 281.9211
670.7111, 265.9236
671.1932, 252.0541
671.6753, 239.3755
672.1574, 227.0197
672.6395, 215.1192
673.1216, 204.5907
673.6038, 196.0497
674.0859, 187.9236
674.5680, 179.4494
675.0501, 171.6404
675.5322, 165.7294
676.0143, 161.3776
676.4965, 157.1968
676.9786, 152.2646
677.4607, 147.1812
677.9428, 143.3052
678.4249, 140.7452
678.9070, 137.8345
679.3892, 134.0461
679.8713, 130.3342
680.3534, 127.3572
680.8355, 125.0350
681.3176, 123.2085
681.7997, 122.3799
682.2819, 121.1973
682.7640, 118.6987
683.2461, 115.8114
683.7282, 113.5616
684.2103, 112.0280
684.6924, 110.8746
685.1746, 109.9097
685.6567, 109.0420
686.1388, 108.0323
686.6209, 106.8280
687.1030, 105.6659
687.5851, 104.4581
688.0673, 103.4255
688.5494, 102.8134
689.0315, 102.4347
689.5136, 101.8713
689.9957, 100.9174
690.4778, 100.0533
690.9600, 99.79557
691.4421, 99.73544
691.9242, 99.08871
692.4063, 97.86958
692.8884, 96.87418
693.3705, 96.63493
693.8527, 96.86344
694.3348, 96.76008
694.8169, 96.14053
695.2990, 95.60263
695.7811, 95.08060
696.2632, 94.71175
696.7454, 94.67701
697.2275, 94.80212
697.7096, 94.79180
698.1917, 94.54908
698.6738, 94.22128
699.1559, 93.97350
699.6381, 93.71432
700.1202, 93.16541
700.6023, 92.32988
701.0844, 91.64577
701.5665, 91.36466
702.0486, 91.35621
702.5308, 91.35232
703.0129, 91.41209
703.4950, 91.31819
703.9771, 90.85883
704.4592, 90.49206
704.9413, 90.53041
705.4235, 90.73295
705.9056, 90.71248
706.3877, 90.36233
706.8698, 89.98373
707.3519, 89.83700
707.8340, 89.86630
708.3162, 89.86364
708.7983, 89.82227
709.2804, 90.19231
709.7625, 91.37851
710.2446, 92.63545
710.7267, 92.65398
711.2089, 90.96008
711.6909, 90.03708
712.1730, 90.48917
712.6552, 90.97648
713.1373, 91.14773
713.6194, 91.01152
714.1015, 90.51514
714.5836, 89.70437
715.0657, 88.91439
715.5479, 88.54311
716.0300, 88.35883
716.5121, 87.66252
716.9942, 86.44315
717.4763, 85.43354
717.9584, 84.86232
718.4406, 84.58819
718.9227, 84.52626
719.4048, 84.69157
719.8869, 84.65389
720.3690, 84.15206
720.8511, 83.78011
721.3333, 83.84285
721.8154, 84.02620
722.2975, 83.97440
722.7796, 83.69250
723.2617, 83.46315
723.7438, 83.51071
724.2260, 83.68175
724.7081, 83.65772
725.1902, 83.44338
725.6723, 83.20644
726.1544, 82.94727
726.6365, 82.76938
727.1187, 82.83586
727.6008, 83.06745
728.0829, 83.00315
728.5650, 82.30566
729.0471, 81.83192
729.5292, 81.87321
730.0114, 82.07107
730.4935, 82.13998
730.9756, 82.11611
731.4577, 82.23051
731.9398, 82.62173
732.4219, 82.98634
732.9041, 82.73807
733.3862, 81.98210
733.8683, 81.69083
734.3504, 82.03121
734.8325, 82.46262
735.3146, 82.72799
735.7968, 82.85339
736.2789, 82.91112
736.7610, 82.95874
737.2431, 82.76963
737.7252, 81.95616
738.2073, 81.27638
738.6895, 81.27223
739.1716, 81.64254
739.6537, 81.87400
740.1358, 81.81486
740.6179, 81.67979
741.1000, 81.67156
741.5822, 81.76543
742.0643, 81.89642
742.5464, 82.07240
743.0285, 82.16488
743.5106, 82.10502
743.9927, 81.98738
744.4749, 81.91782
744.9570, 81.89863
745.4391, 81.92066
745.9212, 82.02759
746.4033, 82.11893
746.8854, 82.08091
747.3676, 82.06998
747.8497, 82.36305
748.3318, 82.87776
748.8139, 83.13795
749.2960, 82.74187
749.7781, 82.12135
750.2603, 82.04700
750.7424, 82.44591
751.2245, 82.74902
751.7066, 82.85315
752.1887, 82.82854
752.6708, 82.63000
753.1530, 82.38066
753.6351, 82.60400
754.1172, 83.86236
754.5993, 84.68233
755.0814, 84.79704
755.5635, 84.69152
756.0457, 84.62792
756.5278, 84.55431
757.0099, 84.25867
757.4920, 83.65724
757.9741, 83.15698
758.4562, 83.33603
758.9384, 83.85629
759.4205, 83.81005
759.9026, 83.19099
760.3847, 82.63013
760.8668, 82.36933
761.3489, 82.40582
761.8311, 82.79346
762.3132, 83.61449
762.7953, 84.18926
763.2774, 84.47260
763.7595, 84.55616
764.2416, 84.33427
764.7238, 84.00256
765.2059, 83.71352
765.6880, 83.48947
766.1701, 83.30257
766.6522, 83.07876
767.1343, 82.96140
767.6165, 83.27677
768.0986, 83.80341
768.5807, 83.85609
769.0628, 83.33434
769.5449, 82.90565
770.0270, 83.12376
770.5092, 83.74733
770.9913, 83.87334
771.4734, 83.15569
771.9555, 82.79053
772.4376, 83.01675
772.9197, 83.42788
773.4019, 84.04652
773.8840, 84.65999
774.3661, 84.91724
774.8482, 84.72773
775.3303, 84.34098
775.8124, 83.65440
776.2946, 83.00513
776.7767, 82.75898
777.2588, 82.86082
777.7409, 83.16444
778.2230, 83.60307
778.7051, 84.00501
779.1873, 84.17164
779.6694, 84.11072
780.1515, 83.90955
780.6336, 83.52132
781.1157, 83.12641
781.5978, 82.63479
782.0800, 82.29882
782.5621, 82.54343
783.0442, 83.20786
783.5263, 83.46190
784.0084, 82.65909
784.4905, 82.10823
784.9727, 82.54484
785.4548, 83.25678
785.9369, 83.57497
786.4190, 83.48434
786.9011, 83.24312
787.3832, 82.97670
787.8654, 82.72441
788.3475, 82.57636
788.8296, 82.51046
789.3117, 82.31895
789.7938, 81.95761
790.2759, 81.68395
790.7581, 81.64591
791.2402, 81.73553
791.7223, 81.76089
792.2044, 81.68648
792.6865, 81.70986
793.1686, 82.00713
793.6508, 82.18516
794.1328, 81.96708
794.6149, 81.66508
795.0970, 81.71117
795.5792, 82.06252
796.0613, 82.17651
796.5434, 81.54475
797.0255, 80.78801
797.5076, 80.74673
797.9897, 81.19823
798.4719, 81.48695
798.9540, 81.50109
799.4361, 81.44215
799.9182, 81.43908
800.4003, 81.49160
800.8824, 81.63579
801.3646, 82.01835
801.8467, 82.05503
802.3288, 81.36768
802.8109, 80.80372
803.2930, 80.77245
803.7751, 81.02184
804.2573, 81.28811
804.7394, 81.54997
805.2215, 81.62895
805.7036, 81.17911
806.1857, 80.79314
806.6678, 81.10603
807.1500, 81.74199
807.6321, 81.97448
808.1142, 81.69084
808.5963, 81.36523
809.0784, 81.38233
809.5605, 81.66243
810.0427, 82.08619
810.5248, 82.67710
811.0069, 82.82981
811.4890, 82.28879
811.9711, 81.75388
812.4532, 81.74352
812.9354, 82.08755
813.4175, 82.24656
813.8996, 82.10515
814.3817, 82.06023
814.8638, 82.23978
815.3459, 82.40565
815.8281, 82.38426
816.3102, 82.30165
816.7923, 82.33594
817.2744, 82.52676
817.7565, 82.80547
818.2386, 83.29699
818.7208, 83.73278
819.2029, 83.53841
819.6850, 82.94440
820.1671, 82.83418
820.6492, 83.39942
821.1313, 83.93804
821.6135, 83.82227
822.0956, 83.27530
822.5777, 83.20672
823.0598, 83.82394
823.5419, 84.24989
824.0240, 84.29240
824.5062, 84.29841
824.9883, 84.63359
825.4704, 84.98027
825.9525, 84.76669
826.4346, 83.83720
826.9167, 83.01872
827.3989, 82.45291
827.8810, 82.16801
828.3631, 82.35452
828.8452, 82.76228
829.3273, 83.03745
829.8094, 83.10217
830.2916, 83.04240
830.7737, 82.82162
831.2558, 82.67622
831.7379, 83.28928
832.2200, 84.52763
832.7021, 85.21934
833.1843, 85.13451
833.6664, 84.80782
834.1485, 84.52792
834.6306, 84.36663
835.1127, 84.55101
835.5948, 85.30637
836.0770, 85.80884
836.5591, 85.80801
837.0412, 85.84161
837.5233, 86.01463
838.0054, 86.34264
838.4875, 86.87302
838.9697, 87.59779
839.4518, 88.36264
839.9339, 89.16471
840.4160, 89.92126
840.8981, 90.62469
841.3802, 91.22424
841.8624, 91.54808
842.3445, 91.65801
842.8266, 91.91322
843.3087, 92.55039
843.7908, 93.38271
844.2729, 94.04415
844.7551, 94.55923
845.2372, 95.31870
845.7193, 96.40142
846.2014, 97.38626
846.6835, 98.06760
847.1656, 98.55254
847.6478, 98.88736
848.1299, 98.94115
848.6120, 99.88767
849.0941, 102.9143
849.5762, 105.2306
850.0583, 105.8196
850.5405, 105.9180
851.0226, 106.5895
851.5047, 107.6663
851.9868, 108.3384
852.4689, 108.3210
852.9510, 107.8652
853.4332, 106.9480
853.9153, 105.8124
854.3974, 104.6650
854.8795, 103.5805
855.3616, 102.7381
855.8438, 102.1944
856.3259, 101.7025
856.8080, 100.9554
857.2901, 100.0057
857.7722, 99.18014
858.2543, 98.51897
858.7365, 97.41246
859.2186, 95.45996
859.7007, 93.73359
860.1828, 93.29002
860.6649, 93.84783
861.1470, 93.96000
861.6292, 93.31046
862.1113, 92.70995
862.5934, 92.18209
863.0755, 91.67579
863.5576, 91.10038
864.0397, 90.56546
864.5219, 90.25086
865.0040, 90.18610
865.4861, 90.15637
865.9682, 90.04563
866.4503, 89.94030
866.9324, 90.05864
867.4146, 90.17152
867.8967, 89.78519
868.3788, 88.91978
868.8609, 88.13290
869.3430, 87.80024
869.8251, 87.69407
870.3073, 87.36468
870.7894, 86.84925
871.2715, 86.51266
871.7536, 86.37715
872.2357, 86.50992
872.7178, 87.05392
873.2000, 87.61287
873.6821, 87.55589
874.1642, 86.81969
874.6463, 86.38103
875.1284, 86.44640
875.6105, 86.50127
876.0927, 86.48821
876.5747, 86.42236
877.0568, 86.29244
877.5389, 86.12071
878.0211, 85.95077
878.5032, 85.76476
878.9853, 85.66531
879.4674, 85.87361
879.9495, 86.02601
880.4316, 85.73969
880.9138, 85.18855
881.3959, 84.67551
881.8780, 84.30469
882.3601, 84.12122
882.8422, 84.19718
883.3243, 84.44137
883.8065, 84.76455
884.2886, 85.11522
884.7707, 85.26795
885.2528, 85.18442
885.7349, 84.77780
886.2170, 83.90641
886.6992, 82.95794
887.1813, 82.82735
887.6634, 83.70429
888.1455, 84.25394
888.6276, 84.41596
889.1097, 84.35563
889.5919, 83.93748
890.0740, 83.48975
890.5561, 83.45000
891.0382, 83.74111
891.5203, 83.76926
892.0024, 83.33356
892.4846, 82.84513
892.9667, 82.19776
893.4488, 81.69946
893.9309, 81.70688
894.4130, 81.98833
894.8951, 82.06023
895.3773, 81.78911
895.8594, 81.54699
896.3415, 81.75762
896.8236, 82.00816
897.3057, 81.59140
897.7878, 80.87203
898.2700, 80.82375
898.7521, 81.55090
899.2342, 82.29467
899.7163, 82.52686
900.1984, 82.42930
900.6805, 82.35178
901.1627, 82.29117
901.6448, 82.16453
902.1269, 81.95157
902.6090, 81.80811
903.0911, 81.84199
903.5732, 81.87600
904.0554, 81.65728
904.5375, 81.18676
905.0196, 80.82745
905.5017, 80.66225
905.9838, 80.47244
906.4659, 80.02175
906.9481, 79.75167
907.4302, 80.05525
907.9123, 80.67316
908.3944, 81.10535
908.8765, 81.28749
909.3586, 81.29183
909.8408, 80.97829
910.3229, 80.66976
910.8050, 80.62074
911.2871, 80.65736
911.7692, 80.51415
912.2513, 80.19702
912.7335, 79.92377
913.2156, 79.79147
913.6977, 79.81892
914.1798, 80.11741
914.6619, 80.55605
915.1440, 80.90639
915.6262, 81.14124
916.1083, 81.25145
916.5904, 81.23352
917.0725, 81.08547
917.5546, 80.76794
918.0367, 80.33872
918.5189, 80.08646
919.0010, 80.02308
919.4831, 79.98131
919.9652, 79.93502
920.4473, 79.88853
920.9294, 79.82218
921.4116, 79.78578
921.8937, 79.91941
922.3758, 80.32151
922.8579, 80.50991
923.3400, 80.10009
923.8221, 80.02361
924.3043, 81.08723
924.7864, 82.10303
925.2685, 81.86881
925.7506, 80.66159
926.2327, 79.81177
926.7148, 79.70476
927.1970, 79.65170
927.6791, 79.37606
928.1612, 79.15268
928.6433, 79.22237
929.1254, 79.45842
929.6075, 79.71486
930.0897, 79.92464
930.5718, 79.90297
931.0539, 79.35287
931.5360, 78.73759
932.0181, 78.60638
932.5002, 78.73131
932.9824, 78.68716
933.4645, 78.46172
933.9466, 78.25239
934.4287, 78.15505
934.9108, 78.21378
935.3929, 78.61092
935.8751, 79.21069
936.3572, 79.35357
936.8393, 79.05404
937.3214, 78.77573
937.8035, 78.63486
938.2856, 78.47581
938.7678, 78.15168
939.2499, 77.76202
939.7320, 77.58979
940.2141, 77.64254
940.6962, 77.93796
941.1783, 78.75449
941.6605, 79.19278
942.1426, 78.62830
942.6247, 77.84652
943.1068, 77.79198
943.5889, 78.39380
944.0710, 78.64130
944.5532, 78.18819
945.0353, 77.89381
945.5174, 77.94797
945.9995, 78.06213
946.4816, 78.12487
946.9637, 78.12694
947.4459, 78.04094
947.9280, 77.86912
948.4101, 77.75276
948.8922, 77.69413
949.3743, 77.76733
949.8564, 78.13575
950.3386, 78.57098
950.8207, 78.81923
951.3028, 78.90076
951.7849, 78.96005
952.2670, 79.05351
952.7491, 79.10164
953.2313, 79.07528
953.7134, 78.93116
954.1955, 78.41333
954.6776, 77.75213
955.1597, 77.65646
955.6418, 78.18483
956.1240, 78.70816
956.6061, 78.81547
957.0882, 78.70896
957.5703, 78.73692
958.0524, 78.87399
958.5345, 78.94898
959.0166, 78.95656
959.4987, 78.86644
959.9808, 78.63301
960.4630, 78.58074
960.9451, 79.10159
961.4272, 79.95892
961.9093, 80.08611
962.3914, 79.20607
962.8735, 78.78713
963.3557, 79.03817
963.8378, 79.45490
964.3199, 79.99109
964.8020, 80.38792
965.2841, 80.15925
965.7662, 79.31637
966.2484, 79.12994
966.7305, 80.30116
967.2126, 81.10389
967.6947, 81.33965
968.1768, 81.28580
968.6589, 80.75546
969.1411, 80.17802
969.6232, 80.28232
970.1053, 81.16504
970.5874, 81.89550
971.0695, 82.14510
971.5516, 82.33887
972.0338, 82.79958
972.5159, 83.15148
972.9980, 82.86064
973.4801, 82.22381
973.9622, 81.93053
974.4443, 82.18673
974.9265, 82.78422
975.4086, 83.99886
975.8907, 85.10781
976.3728, 85.30593
976.8549, 85.04079
977.3370, 84.98818
977.8192, 85.21130
978.3013, 85.43488
978.7834, 85.51254
979.2655, 85.64671
979.7476, 86.06640
980.2297, 86.69617
980.7119, 87.49622
981.1940, 88.37103
981.6761, 88.88680
982.1582, 89.01633
982.6403, 89.49281
983.1224, 90.89558
983.6046, 92.64907
984.0867, 93.62243
984.5688, 93.93734
985.0509, 94.38911
985.5330, 95.00998
986.0151, 95.89107
986.4973, 97.07374
986.9794, 98.40739
987.4615, 99.74411
987.9436, 101.1359
988.4257, 102.7954
988.9078, 104.7814
989.3900, 106.5070
989.8721, 107.7430
990.3542, 109.4310
990.8363, 111.9835
991.3184, 115.0611
991.8005, 118.2940
992.2827, 121.6955
992.7648, 125.3363
993.2469, 129.1497
993.7290, 133.3222
994.2111, 137.9029
994.6932, 142.7565
995.1754, 147.6848
995.6575, 152.9775
996.1396, 159.0727
996.6217, 165.9462
997.1038, 172.9101
997.5859, 180.1441
998.0681, 187.2190
998.5502, 193.9117
999.0323, 200.6486
999.5144, 207.5994
999.9965, 214.7901
1000.479, 222.1271
1000.961, 229.6359
1001.443, 237.4341
1001.925, 245.9896
1002.407, 254.2962
1002.889, 261.3383
1003.371, 268.5899
1003.853, 277.3388
1004.336, 287.1700
1004.818, 297.3518
1005.300, 307.6741
1005.782, 318.0439
1006.264, 328.4574
1006.746, 338.8471
1007.228, 349.1902
1007.710, 359.4048
1008.193, 369.7222
1008.675, 379.7675
1009.157, 389.1010
1009.639, 397.5269
1010.121, 403.5794
1010.603, 407.0409
1011.085, 406.7856
1011.567, 401.0631
1012.049, 390.9588
1012.532, 377.9250
1013.014, 362.4139
1013.496, 344.9063
1013.978, 325.5957
1014.460, 305.1459
1014.942, 283.2563
1015.424, 261.5417
1015.906, 243.0649
1016.388, 227.2835
1016.871, 212.5732
1017.353, 198.7564
1017.835, 186.2518
1018.317, 175.2668
1018.799, 165.7329
1019.281, 157.5594
1019.763, 150.7050
1020.245, 145.3258
1020.728, 141.2280
1021.210, 137.1336
1021.692, 132.8486
1022.174, 129.0573
1022.656, 126.1658
1023.138, 123.8502
1023.620, 121.6594
1024.102, 119.6224
1024.584, 117.9819
1025.067, 116.7443
1025.549, 115.8280
1026.031, 115.2649
1026.513, 114.5277
1026.995, 113.2452
1027.477, 111.8131
1027.959, 110.9311
1028.441, 110.5760
1028.923, 110.0843
1029.406, 109.3816
1029.888, 108.9665
1030.370, 108.9309
1030.852, 109.2135
1031.334, 109.8628
1031.816, 110.6552
1032.298, 111.1547
1032.780, 111.3322
1033.263, 111.9166
1033.745, 113.1706
1034.227, 114.0123
1034.709, 114.0301
1035.191, 114.0749
1035.673, 114.7318
1036.155, 115.6749
1036.637, 116.2838
1037.120, 116.5135
1037.602, 116.8599
1038.084, 117.2058
1038.566, 117.9270
1039.048, 119.3932
1039.530, 120.8058
1040.012, 121.6246
1040.494, 122.1255
1040.976, 122.8246
1041.458, 123.7738
1041.941, 124.4971
1042.423, 125.1167
1042.905, 125.3254
1043.387, 124.7830
1043.869, 124.1394
1044.351, 123.8643
1044.833, 123.6558
1045.315, 123.0574
1045.798, 122.0588
1046.280, 120.6752
1046.762, 118.8491
1047.244, 116.7151
1047.726, 113.9114
1048.208, 111.2085
1048.690, 109.2359
1049.172, 107.5703
1049.655, 105.4674
1050.137, 102.8781
1050.619, 100.6963
1051.101, 99.35698
1051.583, 98.00831
1052.065, 96.28360
1052.547, 94.71687
1053.029, 93.80167
1053.511, 93.16647
1053.994, 92.16225
1054.476, 90.77102
1054.958, 89.82664
1055.440, 89.99863
1055.922, 89.93540
1056.404, 89.04916
1056.886, 88.10287
1057.368, 87.62441
1057.850, 87.33560
1058.333, 86.76030
1058.815, 85.89998
1059.297, 85.24873
1059.779, 85.06477
1060.261, 84.88486
1060.743, 84.56405
1061.225, 84.20342
1061.707, 83.87798
1062.190, 83.54430
1062.672, 83.07455
1063.154, 82.51359
1063.636, 82.15569
1064.118, 82.16447
1064.600, 82.22204
1065.082, 82.20628
1065.564, 82.20784
1066.047, 82.44553
1066.529, 82.62789
1067.011, 82.26598
1067.493, 81.47588
1067.975, 80.94149
1068.457, 80.92788
1068.939, 81.00705
1069.421, 80.99083
1069.903, 81.02453
1070.385, 81.28699
1070.868, 81.58802
1071.350, 81.63528
1071.832, 81.51343
1072.314, 81.58230
1072.796, 81.96667
1073.278, 82.45089
1073.760, 83.23791
1074.242, 83.74754
1074.725, 83.22539
1075.207, 82.54457
1075.689, 82.81438
1076.171, 83.73220
1076.653, 84.18128
1077.135, 83.80074
1077.617, 83.60241
1078.099, 84.17740
1078.582, 84.89876
1079.064, 85.24757
1079.546, 85.71566
1080.028, 86.96824
1080.510, 88.69357
1080.992, 90.05226
1081.474, 90.85723
1081.956, 92.00778
1082.438, 93.87618
1082.921, 96.21772
1083.403, 98.68198
1083.885, 101.7641
1084.367, 106.2658
1084.849, 111.5144
1085.331, 117.1768
1085.813, 122.7998
1086.295, 125.2512
1086.777, 122.2199
1087.260, 117.3394
1087.742, 110.7645
1088.224, 104.4778
1088.706, 100.0734
1089.188, 96.95432
1089.670, 94.12673
1090.152, 91.51013
1090.634, 89.57708
1091.116, 88.70472
1091.599, 88.05910
1092.081, 87.28336
1092.563, 86.63194
1093.045, 86.17882
1093.527, 85.99704
1094.009, 86.28996
1094.491, 86.92788
1094.973, 87.39933
1095.456, 87.49446
1095.938, 87.72431
1096.420, 88.47258
1096.902, 89.16167
1097.384, 89.57014
1097.866, 89.71495
1098.348, 89.39033
1098.830, 88.87112
1099.313, 88.82639
1099.795, 89.43118
1100.277, 90.11362
1100.759, 90.85233
1101.241, 91.44431
1101.723, 91.78465
1102.205, 91.97173
1102.687, 91.90907
1103.169, 91.81961
1103.651, 92.15804
1104.134, 92.97236
1104.616, 93.58971
1105.098, 93.73545
1105.580, 93.85488
1106.062, 93.90871
1106.544, 94.12637
1107.026, 94.92260
1107.508, 95.78323
1107.991, 95.88323
1108.473, 95.30699
1108.955, 95.15844
1109.437, 95.85131
1109.919, 96.47103
1110.401, 96.90977
1110.883, 97.24630
1111.365, 97.46970
1111.848, 97.64267
1112.330, 97.89654
1112.812, 98.15221
1113.294, 98.08937
1113.776, 97.53072
1114.258, 97.14204
1114.740, 97.22192
1115.222, 97.09220
1115.704, 96.43672
1116.187, 95.69288
1116.669, 95.11594
1117.151, 94.66424
1117.633, 94.26819
1118.115, 93.93044
1118.597, 93.61392
1119.079, 93.24142
1119.561, 93.06367
1120.043, 93.47775
1120.526, 93.48605
1121.008, 92.26372
1121.490, 90.74976
1121.972, 90.21176
1122.454, 90.54980
1122.936, 90.66753
1123.418, 90.53014
1123.900, 90.26448
1124.383, 89.83493
1124.865, 89.37634
1125.347, 88.94837
1125.829, 88.47379
1126.311, 87.85233
1126.793, 87.15417
1127.275, 86.56405
1127.757, 86.05627
1128.240, 85.90787
1128.722, 86.23011
1129.204, 86.37366
1129.686, 86.19431
1130.168, 85.79025
1130.650, 85.18847
1131.132, 84.51670
1131.614, 84.00423
1132.096, 83.62939
1132.578, 83.15862
1133.061, 82.58022
1133.543, 82.34106
1134.025, 82.51432
1134.507, 82.72643
1134.989, 82.84048
1135.471, 82.60035
1135.953, 81.62777
1136.435, 80.32232
1136.918, 79.87009
1137.400, 80.12521
1137.882, 80.15015
1138.364, 79.90876
1138.846, 79.54284
1139.328, 79.10557
1139.810, 78.74878
1140.292, 78.58076
1140.775, 78.50835
1141.257, 78.40359
1141.739, 78.28222
1142.221, 78.21457
1142.703, 78.15993
1143.185, 77.91923
1143.667, 77.53600
1144.149, 77.36974
1144.631, 77.56162
1145.114, 77.79671
1145.596, 77.77622
1146.078, 77.65085
1146.560, 77.66494
1147.042, 77.68533
1147.524, 77.48621
1148.006, 77.10676
1148.488, 76.60170
1148.970, 76.04893
1149.453, 75.75570
1149.935, 75.97155
1150.417, 76.18537
1150.899, 75.89489
1151.381, 75.51320
1151.863, 75.48989
1152.345, 75.57723
1152.827, 75.38972
1153.310, 74.97934
1153.792, 74.62081
1154.274, 74.38924
1154.756, 74.27431
1155.238, 74.39317
1155.720, 74.46838
1156.202, 74.18060
1156.684, 73.98237
1157.167, 74.43833
1157.649, 75.11227
1158.131, 75.23818
1158.613, 74.80566
1159.095, 74.53527
1159.577, 74.71146
1160.059, 74.77671
1160.541, 74.52763
1161.023, 74.29691
1161.505, 74.20274
1161.988, 74.19081
1162.470, 74.24855
1162.952, 74.34140
1163.434, 74.35068
1163.916, 74.21638
1164.398, 74.34268
1164.880, 75.08116
1165.362, 75.31739
1165.844, 74.59219
1166.327, 73.92642
1166.809, 73.90569
1167.291, 74.11247
1167.773, 73.99621
1168.255, 73.62817
1168.737, 73.45069
1169.219, 73.50127
1169.701, 73.47453
1170.184, 73.32539
1170.666, 73.35128
1171.148, 73.66024
1171.630, 74.02393
1172.112, 74.29101
1172.594, 74.42355
1173.076, 74.28801
1173.558, 73.95937
1174.041, 73.89532
1174.523, 74.05457
1175.005, 74.15541
1175.487, 74.15606
1175.969, 74.04527
1176.451, 73.82648
1176.933, 73.65367
1177.415, 73.67655
1177.897, 73.79878
1178.380, 73.93120
1178.862, 74.01865
1179.344, 73.81737
1179.826, 73.52063
1180.308, 73.73847
1180.790, 74.41477
1181.272, 74.79133
1181.754, 74.50366
1182.236, 74.09580
1182.719, 73.89994
1183.201, 73.85262
1183.683, 73.91667
1184.165, 74.08359
1184.647, 74.44640
1185.129, 74.86263
1185.611, 75.03555
1186.093, 74.94718
1186.576, 74.91840
1187.058, 75.09529
1187.540, 75.25919
1188.022, 75.41379
1188.504, 75.44618
1188.986, 75.10771
1189.468, 74.79095
1189.950, 74.97865
1190.432, 75.45737
1190.915, 75.62580
1191.397, 75.40312
1191.879, 75.20273
1192.361, 75.01462
1192.843, 74.85530
1193.325, 74.62862
1193.807, 74.63389
1194.289, 75.12280
1194.771, 75.68353
1195.254, 75.81200
1195.736, 75.69297
1196.218, 76.11617
1196.700, 77.20004
1197.182, 77.52796
1197.664, 77.01440
1198.146, 76.68026
1198.628, 76.74091
1199.111, 76.95287
1199.593, 77.19156
1200.075, 77.39703
1200.557, 77.49635
1201.039, 77.50143
1201.521, 77.37448
1202.003, 77.19107
1202.485, 77.29522
1202.968, 77.58440
1203.450, 77.50529
1203.932, 77.01012
1204.414, 76.72285
1204.896, 77.01551
1205.378, 77.46761
1205.860, 77.73840
1206.342, 77.90845
1206.824, 77.99156
1207.307, 78.08060
1207.789, 78.35794
1208.271, 78.71632
1208.753, 78.92457
1209.235, 78.93201
1209.717, 78.77792
1210.199, 78.27854
1210.681, 78.03006
1211.163, 78.49594
1211.646, 78.94694
1212.128, 78.98759
1212.610, 78.87838
1213.092, 78.74705
1213.574, 78.69166
1214.056, 78.95736
1214.538, 79.57397
1215.020, 80.18452
1215.503, 80.84969
1215.985, 81.38039
1216.467, 81.78823
1216.949, 81.97035
1217.431, 81.82603
1217.913, 81.59127
1218.395, 81.46453
1218.877, 81.44807
1219.359, 81.57900
1219.842, 81.84556
1220.324, 82.03454
1220.806, 82.14260
1221.288, 82.05390
1221.770, 81.77666
1222.252, 81.51388
1222.734, 81.36629
1223.216, 81.66657
1223.698, 82.87244
1224.181, 84.23378
1224.663, 84.65472
1225.145, 84.49753
1225.627, 84.16765
1226.109, 83.82590
1226.591, 83.75609
1227.073, 83.91110
1227.555, 83.95171
1228.038, 83.76413
1228.520, 83.78156
1229.002, 84.44212
1229.484, 85.08522
1229.966, 85.24841
1230.448, 85.42813
1230.930, 86.25683
1231.412, 87.08907
1231.895, 86.90719
1232.377, 85.99337
1232.859, 85.69608
1233.341, 86.27462
1233.823, 86.82585
1234.305, 87.38841
1234.787, 87.83777
1235.269, 88.07497
1235.751, 88.40245
1236.234, 89.02927
1236.716, 89.64986
1237.198, 89.92116
1237.680, 89.93597
1238.162, 89.99535
1238.644, 90.08881
1239.126, 89.94162
1239.608, 89.58861
1240.090, 89.46733
1240.573, 89.63381
1241.055, 89.81711
1241.537, 89.89675
1242.019, 90.05883
1242.501, 90.53826
1242.983, 91.03904
1243.465, 91.04493
1243.947, 90.93707
1244.430, 91.36478
1244.912, 92.00336
1245.394, 92.18691
1245.876, 92.00337
1246.358, 92.05742
1246.840, 92.53268
1247.322, 92.97960
1247.804, 93.22045
1248.286, 93.41562
1248.769, 93.57235
1249.251, 93.75069
1249.733, 94.02830
1250.215, 94.30830
1250.697, 94.55296
1251.179, 94.69489
1251.661, 94.43938
1252.143, 93.65108
1252.625, 93.86443
1253.108, 95.47569
1253.590, 96.18916
1254.072, 95.54530
1254.554, 95.15511
1255.036, 95.67134
1255.518, 96.54677
1256.000, 97.36870
1256.482, 97.91859
1256.964, 97.51458
1257.447, 96.61530
1257.929, 96.55798
1258.411, 97.11735
1258.893, 97.76852
1259.375, 98.38348
1259.857, 98.86033
1260.339, 99.17063
1260.821, 99.33723
1261.304, 99.29922
1261.786, 99.33512
1262.268, 99.70594
1262.750, 100.1130
1263.232, 100.3437
1263.714, 100.5300
1264.196, 100.7938
1264.678, 101.1199
1265.161, 101.4327
1265.643, 101.7325
1266.125, 102.2171
1266.607, 103.1221
1267.089, 103.6825
1267.571, 103.8142
1268.053, 103.7629
1268.535, 103.5000
1269.017, 103.3986
1269.500, 103.7202
1269.982, 104.2241
1270.464, 104.5869
1270.946, 104.8380
##END=



