##NAMES=Diopside
##RRUFFID=R050496
##IDEAL CHEMISTRY=CaMgSi_2_O_6_
##LOCALITY=New City Quarry, Riverside, Riverside County, Calfornia, USA
##OWNER=RRUFF
##SOURCE=California Institute of Technology
##DESCRIPTION=Aggregate of light green irregular grains
##STATUS=The identification of this mineral has been confirmed by X-ray diffraction and chemical analysis
##URL=rruff.info/R050496
##MEASURED CHEMISTRY=Ca(Mg_0.66_Fe_0.33_Mn_0.01_)(Si_0.95_Al_0.05_)_2_O_6_
90.92609, 0.0000000E+00
91.40820, 112.7164
91.89032, 115.8901
92.37244, 114.0558
92.85455, 108.0734
93.33667, 103.0832
93.81879, 104.4143
94.30090, 109.9083
94.78302, 112.8436
95.26514, 110.8434
95.74725, 106.1871
96.22937, 103.7014
96.71149, 103.4876
97.19360, 104.5353
97.67572, 106.3321
98.15784, 108.8317
98.63995, 111.1362
99.12207, 113.4325
99.60419, 115.4881
100.0863, 114.8303
100.5684, 110.4783
101.0505, 105.3671
101.5327, 103.4034
102.0148, 105.3913
102.4969, 107.8636
102.9790, 109.3903
103.4611, 109.3785
103.9432, 112.0966
104.4253, 119.7868
104.9075, 128.9774
105.3896, 131.9132
105.8717, 122.9097
106.3538, 115.4048
106.8359, 114.6469
107.3180, 125.1146
107.8002, 134.5444
108.2823, 141.7607
108.7644, 147.6989
109.2465, 156.1250
109.7286, 168.2602
110.2107, 181.9041
110.6929, 196.3353
111.1750, 210.1677
111.6571, 226.1267
112.1392, 244.3107
112.6213, 264.7466
113.1034, 287.9464
113.5856, 315.2855
114.0677, 345.0735
114.5498, 375.8431
115.0319, 403.6176
115.5140, 436.0816
115.9961, 474.7102
116.4783, 519.5774
116.9604, 571.0479
117.4425, 630.8666
117.9246, 697.5833
118.4067, 768.9547
118.8888, 846.0812
119.3710, 926.9160
119.8531, 1011.940
120.3352, 1101.362
120.8173, 1189.505
121.2994, 1272.410
121.7815, 1350.905
122.2637, 1426.754
122.7458, 1500.910
123.2279, 1571.984
123.7100, 1637.528
124.1921, 1696.518
124.6742, 1753.201
125.1564, 1807.980
125.6385, 1862.748
126.1206, 1923.776
126.6027, 1994.873
127.0848, 2074.188
127.5669, 2157.227
128.0491, 2241.847
128.5312, 2333.057
129.0133, 2440.912
129.4954, 2563.348
129.9775, 2690.319
130.4596, 2814.859
130.9418, 2937.180
131.4239, 3063.524
131.9060, 3196.919
132.3881, 3333.679
132.8702, 3462.198
133.3523, 3582.670
133.8345, 3700.519
134.3166, 3821.743
134.7987, 3947.268
135.2808, 4066.440
135.7629, 4179.193
136.2450, 4285.614
136.7272, 4384.480
137.2093, 4477.712
137.6914, 4559.473
138.1735, 4623.501
138.6556, 4668.389
139.1377, 4700.128
139.6199, 4717.933
140.1020, 4721.725
140.5841, 4724.972
141.0662, 4726.328
141.5483, 4728.885
142.0304, 4735.133
142.5126, 4741.515
142.9947, 4757.635
143.4768, 4773.391
143.9589, 4779.984
144.4410, 4789.041
144.9231, 4799.740
145.4053, 4813.352
145.8874, 4832.606
146.3695, 4861.138
146.8516, 4890.067
147.3337, 4915.941
147.8158, 4937.243
148.2980, 4960.847
148.7801, 4987.786
149.2622, 5016.972
149.7443, 5045.557
150.2264, 5077.163
150.7085, 5105.558
151.1907, 5128.080
151.6728, 5141.413
152.1549, 5155.424
152.6370, 5169.984
153.1191, 5185.271
153.6012, 5201.473
154.0834, 5223.452
154.5655, 5242.408
155.0476, 5254.662
155.5297, 5255.146
156.0118, 5254.775
156.4939, 5252.830
156.9761, 5250.564
157.4582, 5252.421
157.9403, 5261.125
158.4224, 5273.002
158.9045, 5286.081
159.3866, 5302.130
159.8688, 5316.712
160.3509, 5326.519
160.8330, 5332.996
161.3151, 5342.774
161.7972, 5361.749
162.2793, 5383.167
162.7615, 5401.890
163.2436, 5416.172
163.7257, 5427.876
164.2078, 5436.100
164.6899, 5441.513
165.1720, 5449.004
165.6541, 5463.245
166.1363, 5479.735
166.6184, 5494.036
167.1005, 5503.137
167.5826, 5510.697
168.0647, 5519.119
168.5468, 5528.276
169.0290, 5536.667
169.5111, 5542.405
169.9932, 5547.042
170.4753, 5552.665
170.9574, 5561.407
171.4395, 5570.570
171.9217, 5578.029
172.4038, 5583.807
172.8859, 5588.773
173.3680, 5592.513
173.8501, 5596.025
174.3322, 5601.105
174.8144, 5607.951
175.2965, 5617.103
175.7786, 5629.872
176.2607, 5646.470
176.7428, 5663.415
177.2249, 5677.854
177.7071, 5690.122
178.1892, 5701.446
178.6713, 5712.508
179.1534, 5722.844
179.6355, 5732.235
180.1176, 5740.875
180.5998, 5747.087
181.0819, 5746.861
181.5640, 5742.049
182.0461, 5739.405
182.5282, 5743.946
183.0103, 5752.711
183.4925, 5759.148
183.9746, 5762.898
184.4567, 5764.802
184.9388, 5764.743
185.4209, 5763.210
185.9030, 5763.023
186.3852, 5767.205
186.8673, 5774.121
187.3494, 5777.917
187.8315, 5778.091
188.3136, 5776.285
188.7957, 5774.431
189.2779, 5772.575
189.7600, 5770.507
190.2421, 5766.992
190.7242, 5762.750
191.2063, 5762.881
191.6884, 5768.904
192.1706, 5775.931
192.6527, 5775.854
193.1348, 5768.491
193.6169, 5759.858
194.0990, 5752.758
194.5811, 5747.007
195.0633, 5740.300
195.5454, 5732.143
196.0275, 5723.587
196.5096, 5716.967
196.9917, 5712.356
197.4738, 5708.414
197.9560, 5704.975
198.4381, 5702.124
198.9202, 5697.872
199.4023, 5691.751
199.8844, 5685.055
200.3665, 5680.619
200.8487, 5678.852
201.3308, 5677.379
201.8129, 5675.022
202.2950, 5671.756
202.7771, 5668.386
203.2592, 5664.498
203.7414, 5660.942
204.2235, 5660.259
204.7056, 5663.396
205.1877, 5665.461
205.6698, 5662.870
206.1519, 5654.321
206.6341, 5649.121
207.1162, 5647.876
207.5983, 5649.747
208.0804, 5653.646
208.5625, 5660.381
209.0446, 5666.431
209.5268, 5669.352
210.0089, 5667.907
210.4910, 5669.808
210.9731, 5677.033
211.4552, 5686.595
211.9373, 5690.801
212.4195, 5688.029
212.9016, 5684.265
213.3837, 5681.728
213.8658, 5679.729
214.3479, 5681.997
214.8300, 5689.974
215.3121, 5701.465
215.7943, 5711.235
216.2764, 5718.822
216.7585, 5725.307
217.2406, 5731.500
217.7227, 5738.139
218.2048, 5741.238
218.6870, 5739.055
219.1691, 5734.023
219.6512, 5732.231
220.1333, 5735.606
220.6154, 5738.537
221.0975, 5737.671
221.5797, 5729.541
222.0618, 5728.433
222.5439, 5738.137
223.0260, 5753.201
223.5081, 5761.031
223.9902, 5757.840
224.4724, 5754.286
224.9545, 5755.125
225.4366, 5762.534
225.9187, 5768.440
226.4008, 5772.479
226.8829, 5775.350
227.3651, 5778.163
227.8472, 5779.651
228.3293, 5783.228
228.8114, 5790.750
229.2935, 5804.065
229.7757, 5815.206
230.2578, 5822.915
230.7399, 5828.795
231.2220, 5836.386
231.7041, 5847.176
232.1862, 5856.972
232.6684, 5864.460
233.1505, 5869.806
233.6326, 5871.737
234.1147, 5868.208
234.5968, 5862.319
235.0789, 5859.850
235.5611, 5862.290
236.0432, 5865.792
236.5253, 5869.326
237.0074, 5872.948
237.4895, 5876.555
237.9716, 5881.151
238.4538, 5885.190
238.9359, 5885.727
239.4180, 5879.892
239.9001, 5875.311
240.3822, 5874.538
240.8643, 5878.395
241.3465, 5882.377
241.8286, 5886.760
242.3107, 5891.043
242.7928, 5894.540
243.2749, 5897.155
243.7570, 5899.030
244.2392, 5900.194
244.7213, 5900.647
245.2034, 5899.993
245.6855, 5896.526
246.1676, 5893.396
246.6497, 5895.122
247.1319, 5905.372
247.6140, 5913.964
248.0961, 5918.101
248.5782, 5917.312
249.0603, 5916.986
249.5424, 5916.319
250.0246, 5917.001
250.5067, 5921.435
250.9888, 5932.494
251.4709, 5941.644
251.9530, 5946.436
252.4351, 5946.576
252.9173, 5947.802
253.3994, 5949.525
253.8815, 5952.718
254.3636, 5958.709
254.8457, 5968.912
255.3278, 5978.442
255.8100, 5987.468
256.2921, 5995.799
256.7742, 5996.851
257.2563, 5986.525
257.7384, 5974.408
258.2205, 5969.396
258.7026, 5975.266
259.1848, 5978.651
259.6669, 5976.406
260.1490, 5969.542
260.6311, 5966.958
261.1132, 5970.874
261.5953, 5975.684
262.0775, 5976.901
262.5596, 5972.955
263.0417, 5970.050
263.5238, 5968.294
264.0059, 5968.050
264.4880, 5972.025
264.9702, 5982.594
265.4523, 5992.475
265.9344, 5996.334
266.4165, 5992.115
266.8986, 5989.363
267.3807, 5989.308
267.8629, 5991.013
268.3450, 5991.401
268.8271, 5990.139
269.3092, 5988.563
269.7913, 5987.547
270.2734, 5987.438
270.7556, 5986.651
271.2377, 5984.700
271.7198, 5982.657
272.2019, 5982.764
272.6840, 5985.174
273.1661, 5989.667
273.6483, 5996.350
274.1304, 6005.327
274.6125, 6015.912
275.0946, 6029.013
275.5767, 6042.208
276.0588, 6050.110
276.5410, 6051.245
277.0231, 6053.835
277.5052, 6062.381
277.9873, 6076.937
278.4694, 6086.773
278.9515, 6090.531
279.4337, 6091.999
279.9158, 6096.595
280.3979, 6104.521
280.8800, 6112.775
281.3621, 6120.670
281.8442, 6128.126
282.3264, 6133.654
282.8085, 6137.172
283.2906, 6139.486
283.7727, 6140.909
284.2548, 6141.507
284.7369, 6143.409
285.2191, 6147.221
285.7012, 6152.897
286.1833, 6160.482
286.6654, 6170.123
287.1475, 6180.900
287.6296, 6192.894
288.1118, 6205.801
288.5939, 6215.758
289.0760, 6220.625
289.5581, 6222.794
290.0402, 6228.732
290.5223, 6238.529
291.0045, 6248.962
291.4866, 6258.092
291.9687, 6265.925
292.4508, 6272.100
292.9329, 6275.651
293.4150, 6279.059
293.8972, 6287.541
294.3793, 6300.784
294.8614, 6314.571
295.3435, 6324.909
295.8256, 6333.565
296.3077, 6345.688
296.7899, 6362.415
297.2720, 6381.077
297.7541, 6397.821
298.2362, 6413.015
298.7183, 6428.638
299.2004, 6445.994
299.6826, 6464.333
300.1647, 6482.675
300.6468, 6500.763
301.1289, 6518.833
301.6110, 6536.921
302.0931, 6555.110
302.5753, 6574.294
303.0574, 6594.165
303.5395, 6615.379
304.0216, 6638.366
304.5037, 6663.342
304.9858, 6690.213
305.4680, 6720.170
305.9501, 6751.958
306.4322, 6783.283
306.9143, 6813.313
307.3964, 6842.920
307.8785, 6872.664
308.3607, 6902.679
308.8428, 6934.833
309.3249, 6972.675
309.8070, 7012.563
310.2891, 7049.946
310.7712, 7082.712
311.2534, 7114.207
311.7355, 7145.032
312.2176, 7176.125
312.6997, 7210.274
313.1818, 7249.696
313.6639, 7291.738
314.1461, 7334.822
314.6282, 7378.665
315.1103, 7422.564
315.5924, 7468.096
316.0745, 7513.251
316.5566, 7554.597
317.0388, 7587.743
317.5209, 7618.446
318.0030, 7651.793
318.4851, 7690.703
318.9672, 7722.787
319.4493, 7742.850
319.9315, 7753.942
320.4136, 7760.274
320.8957, 7762.689
321.3778, 7760.713
321.8599, 7753.669
322.3420, 7741.308
322.8242, 7726.470
323.3063, 7712.454
323.7884, 7694.896
324.2705, 7669.988
324.7526, 7629.551
325.2347, 7589.446
325.7169, 7554.482
326.1990, 7523.854
326.6811, 7490.817
327.1632, 7453.628
327.6453, 7414.766
328.1274, 7375.609
328.6096, 7333.488
329.0917, 7294.185
329.5738, 7258.213
330.0559, 7225.491
330.5380, 7195.216
331.0201, 7167.854
331.5023, 7142.472
331.9844, 7119.050
332.4665, 7099.643
332.9486, 7077.188
333.4307, 7048.343
333.9128, 7018.263
334.3950, 6996.763
334.8771, 6987.324
335.3592, 6979.515
335.8413, 6969.966
336.3234, 6958.136
336.8055, 6949.522
337.2877, 6945.147
337.7698, 6942.627
338.2519, 6939.147
338.7340, 6934.189
339.2161, 6930.505
339.6982, 6929.243
340.1803, 6929.844
340.6624, 6928.876
341.1446, 6926.202
341.6267, 6922.470
342.1088, 6916.744
342.5909, 6908.859
343.0730, 6905.738
343.5551, 6909.501
344.0373, 6917.130
344.5194, 6921.452
345.0015, 6922.335
345.4836, 6923.122
345.9657, 6925.559
346.4478, 6929.535
346.9300, 6934.353
347.4121, 6939.906
347.8942, 6946.788
348.3763, 6957.292
348.8584, 6970.671
349.3405, 6982.502
349.8227, 6990.858
350.3048, 6996.445
350.7869, 7000.869
351.2690, 7004.225
351.7511, 7005.498
352.2332, 7002.995
352.7154, 6997.729
353.1975, 6991.869
353.6796, 6986.564
354.1617, 6980.366
354.6438, 6970.103
355.1259, 6956.604
355.6081, 6944.768
356.0902, 6940.833
356.5723, 6938.688
357.0544, 6930.374
357.5365, 6911.667
358.0186, 6892.681
358.5008, 6880.477
358.9829, 6873.071
359.4650, 6866.286
359.9471, 6859.341
360.4292, 6851.623
360.9113, 6842.085
361.3935, 6830.356
361.8756, 6820.171
362.3577, 6812.894
362.8398, 6808.222
363.3219, 6805.806
363.8040, 6810.364
364.2862, 6812.713
364.7683, 6806.549
365.2504, 6792.683
365.7325, 6786.607
366.2146, 6797.409
366.6967, 6813.065
367.1789, 6826.106
367.6610, 6832.827
368.1431, 6840.387
368.6252, 6848.630
369.1073, 6858.055
369.5894, 6870.009
370.0716, 6886.975
370.5537, 6903.958
371.0358, 6919.016
371.5179, 6930.808
372.0000, 6944.592
372.4821, 6959.702
372.9643, 6977.010
373.4464, 6998.255
373.9285, 7025.661
374.4106, 7051.587
374.8927, 7073.380
375.3748, 7091.333
375.8570, 7113.067
376.3391, 7139.687
376.8212, 7167.908
377.3033, 7196.014
377.7854, 7224.117
378.2675, 7249.671
378.7497, 7271.877
379.2318, 7292.028
379.7139, 7314.357
380.1960, 7338.927
380.6781, 7363.309
381.1602, 7386.464
381.6424, 7408.326
382.1245, 7427.592
382.6066, 7444.117
383.0887, 7459.550
383.5708, 7477.482
384.0529, 7496.839
384.5351, 7513.067
385.0172, 7523.492
385.4993, 7529.821
385.9814, 7536.467
386.4635, 7543.131
386.9456, 7545.003
387.4278, 7537.940
387.9099, 7523.498
388.3920, 7503.845
388.8741, 7479.102
389.3562, 7449.991
389.8383, 7416.603
390.3205, 7378.852
390.8026, 7337.523
391.2847, 7291.461
391.7668, 7243.064
392.2489, 7192.769
392.7310, 7140.273
393.2132, 7089.352
393.6953, 7041.469
394.1774, 6996.958
394.6595, 6955.896
395.1416, 6921.043
395.6237, 6887.591
396.1059, 6853.201
396.5880, 6818.110
397.0701, 6786.114
397.5522, 6758.744
398.0343, 6734.620
398.5164, 6713.063
398.9986, 6696.741
399.4807, 6679.555
399.9628, 6660.744
400.4449, 6641.029
400.9270, 6621.642
401.4091, 6599.534
401.8913, 6582.081
402.3734, 6572.928
402.8555, 6574.096
403.3376, 6571.732
403.8197, 6563.716
404.3018, 6554.561
404.7840, 6549.331
405.2661, 6549.034
405.7482, 6548.994
406.2303, 6548.657
406.7124, 6547.727
407.1945, 6544.616
407.6767, 6538.795
408.1588, 6532.992
408.6409, 6529.200
409.1230, 6527.251
409.6051, 6524.811
410.0872, 6521.345
410.5694, 6518.257
411.0515, 6517.664
411.5336, 6519.429
412.0157, 6522.651
412.4978, 6529.501
412.9799, 6536.919
413.4621, 6538.026
413.9442, 6533.007
414.4263, 6526.489
414.9084, 6521.173
415.3905, 6517.170
415.8727, 6514.716
416.3548, 6514.638
416.8369, 6514.958
417.3190, 6513.379
417.8011, 6510.794
418.2832, 6509.543
418.7654, 6511.423
419.2475, 6514.516
419.7296, 6517.948
420.2117, 6521.884
420.6938, 6524.195
421.1759, 6522.972
421.6581, 6520.036
422.1402, 6517.298
422.6223, 6512.241
423.1044, 6510.483
423.5865, 6516.612
424.0686, 6528.986
424.5508, 6535.248
425.0329, 6527.438
425.5150, 6518.778
425.9971, 6515.396
426.4792, 6520.769
426.9613, 6524.299
427.4435, 6524.646
427.9256, 6523.995
428.4077, 6526.329
428.8898, 6534.276
429.3719, 6539.282
429.8540, 6537.502
430.3362, 6529.749
430.8183, 6529.170
431.3004, 6538.189
431.7825, 6547.458
432.2646, 6547.553
432.7467, 6538.431
433.2289, 6533.830
433.7110, 6536.759
434.1931, 6542.995
434.6752, 6544.190
435.1573, 6540.825
435.6394, 6538.600
436.1216, 6541.533
436.6036, 6547.488
437.0858, 6551.717
437.5679, 6554.107
438.0500, 6555.876
438.5321, 6557.894
439.0142, 6560.067
439.4963, 6562.248
439.9785, 6564.391
440.4606, 6566.633
440.9427, 6569.408
441.4248, 6572.517
441.9069, 6575.210
442.3890, 6576.564
442.8712, 6577.950
443.3533, 6580.765
443.8354, 6585.767
444.3175, 6589.248
444.7996, 6587.604
445.2817, 6584.729
445.7639, 6584.650
446.2460, 6590.231
446.7281, 6596.150
447.2102, 6599.916
447.6923, 6602.303
448.1744, 6609.490
448.6566, 6628.497
449.1387, 6644.697
449.6208, 6650.710
450.1029, 6641.925
450.5850, 6636.628
451.0671, 6635.366
451.5493, 6637.053
452.0314, 6640.646
452.5135, 6646.589
452.9956, 6652.783
453.4777, 6659.483
453.9598, 6665.893
454.4420, 6667.813
454.9241, 6664.874
455.4062, 6661.013
455.8883, 6659.572
456.3704, 6659.856
456.8525, 6658.386
457.3347, 6654.558
457.8168, 6650.089
458.2989, 6646.881
458.7810, 6644.788
459.2631, 6643.455
459.7452, 6644.515
460.2274, 6645.200
460.7095, 6641.239
461.1916, 6633.291
461.6737, 6626.714
462.1558, 6625.753
462.6379, 6627.044
463.1201, 6627.367
463.6022, 6625.358
464.0843, 6623.966
464.5664, 6625.469
465.0485, 6628.070
465.5306, 6628.925
466.0128, 6626.665
466.4949, 6623.195
466.9770, 6617.721
467.4591, 6610.111
467.9412, 6606.636
468.4233, 6610.843
468.9055, 6616.247
469.3876, 6618.988
469.8697, 6616.956
470.3518, 6617.300
470.8339, 6621.385
471.3160, 6627.231
471.7982, 6631.267
472.2803, 6633.405
472.7624, 6634.111
473.2445, 6632.554
473.7266, 6629.519
474.2087, 6630.358
474.6909, 6635.337
475.1730, 6641.267
475.6551, 6645.123
476.1372, 6647.424
476.6193, 6650.825
477.1014, 6655.969
477.5836, 6661.089
478.0657, 6663.923
478.5478, 6664.898
479.0299, 6665.285
479.5120, 6664.627
479.9941, 6664.367
480.4763, 6666.442
480.9584, 6670.646
481.4405, 6674.490
481.9226, 6676.115
482.4047, 6677.203
482.8868, 6679.249
483.3690, 6683.309
483.8511, 6686.812
484.3332, 6688.500
484.8153, 6689.313
485.2974, 6690.812
485.7795, 6693.013
486.2617, 6696.167
486.7438, 6700.969
487.2259, 6707.378
487.7080, 6711.769
488.1901, 6711.548
488.6722, 6712.761
489.1544, 6720.089
489.6365, 6736.119
490.1186, 6747.826
490.6007, 6754.017
491.0828, 6756.993
491.5649, 6758.950
492.0471, 6759.617
492.5292, 6764.630
493.0113, 6776.922
493.4934, 6794.087
493.9755, 6811.404
494.4576, 6828.542
494.9398, 6842.819
495.4219, 6849.300
495.9040, 6852.045
496.3861, 6858.618
496.8682, 6870.510
497.3503, 6883.197
497.8325, 6892.441
498.3146, 6900.221
498.7967, 6909.813
499.2788, 6923.634
499.7609, 6938.585
500.2430, 6954.862
500.7252, 6971.617
501.2073, 6985.181
501.6894, 6991.757
502.1715, 6997.134
502.6536, 7004.556
503.1357, 7016.024
503.6179, 7024.571
504.1000, 7028.980
504.5821, 7031.125
505.0642, 7032.916
505.5463, 7035.058
506.0284, 7034.888
506.5106, 7031.213
506.9927, 7025.042
507.4748, 7019.654
507.9569, 7014.917
508.4390, 7011.017
508.9211, 7008.025
509.4033, 7005.880
509.8854, 7004.900
510.3675, 7005.266
510.8496, 7005.102
511.3317, 7002.072
511.8138, 6997.040
512.2960, 6992.558
512.7781, 6989.613
513.2602, 6986.486
513.7423, 6980.345
514.2244, 6972.584
514.7065, 6966.538
515.1887, 6966.927
515.6708, 6967.167
516.1529, 6961.649
516.6350, 6950.458
517.1171, 6941.610
517.5992, 6939.419
518.0814, 6939.623
518.5635, 6939.446
519.0456, 6937.493
519.5277, 6936.986
520.0098, 6938.709
520.4919, 6941.648
520.9741, 6944.267
521.4562, 6945.938
521.9383, 6948.378
522.4204, 6951.892
522.9025, 6956.416
523.3846, 6962.219
523.8668, 6969.718
524.3489, 6976.278
524.8310, 6979.691
525.3131, 6980.354
525.7952, 6982.229
526.2773, 6985.771
526.7595, 6988.821
527.2416, 6989.031
527.7237, 6986.834
528.2058, 6983.084
528.6879, 6977.275
529.1700, 6971.335
529.6522, 6967.389
530.1343, 6965.014
530.6164, 6962.709
531.0985, 6959.296
531.5806, 6956.218
532.0627, 6954.507
532.5449, 6954.322
533.0270, 6954.542
533.5091, 6955.165
533.9912, 6955.864
534.4733, 6956.358
534.9554, 6954.436
535.4376, 6955.376
535.9197, 6960.859
536.4018, 6968.231
536.8839, 6972.874
537.3660, 6974.417
537.8481, 6973.742
538.3303, 6969.407
538.8124, 6962.986
539.2945, 6964.953
539.7766, 6976.519
540.2587, 6986.293
540.7408, 6983.179
541.2230, 6971.487
541.7051, 6968.081
542.1872, 6974.861
542.6693, 6984.356
543.1514, 6990.271
543.6335, 6993.552
544.1157, 6995.993
544.5978, 6997.875
545.0799, 6999.548
545.5620, 7000.406
546.0441, 7001.196
546.5262, 7003.760
547.0084, 7006.991
547.4905, 7013.698
547.9726, 7027.355
548.4547, 7048.835
548.9368, 7065.017
549.4189, 7069.296
549.9011, 7072.270
550.3832, 7080.218
550.8653, 7096.522
551.3474, 7109.602
551.8295, 7118.397
552.3116, 7124.687
552.7938, 7130.971
553.2759, 7137.313
553.7580, 7142.854
554.2401, 7147.552
554.7222, 7151.177
555.2043, 7153.708
555.6865, 7155.018
556.1686, 7153.548
556.6507, 7147.231
557.1328, 7138.092
557.6149, 7128.901
558.0970, 7119.886
558.5792, 7110.677
559.0613, 7102.517
559.5434, 7093.542
560.0255, 7081.411
560.5076, 7062.890
560.9897, 7046.446
561.4719, 7035.748
561.9540, 7028.644
562.4361, 7021.679
562.9182, 7015.836
563.4003, 7008.105
563.8824, 6995.836
564.3646, 6980.337
564.8467, 6971.131
565.3288, 6970.539
565.8109, 6971.140
566.2930, 6969.117
566.7751, 6964.314
567.2573, 6959.131
567.7394, 6953.250
568.2215, 6947.928
568.7036, 6944.110
569.1857, 6941.854
569.6678, 6941.977
570.1500, 6945.994
570.6321, 6949.183
571.1142, 6945.900
571.5963, 6937.679
572.0784, 6927.958
572.5605, 6914.276
573.0427, 6903.104
573.5248, 6900.667
574.0069, 6905.489
574.4890, 6907.171
574.9711, 6899.914
575.4532, 6890.950
575.9354, 6883.833
576.4175, 6879.318
576.8996, 6874.743
577.3817, 6869.575
577.8638, 6864.924
578.3459, 6861.889
578.8281, 6860.888
579.3102, 6859.436
579.7923, 6856.471
580.2744, 6853.942
580.7565, 6857.298
581.2386, 6866.022
581.7208, 6871.728
582.2029, 6870.421
582.6850, 6864.647
583.1671, 6857.544
583.6492, 6849.568
584.1313, 6843.451
584.6134, 6842.100
585.0955, 6842.728
585.5776, 6842.310
586.0598, 6840.330
586.5419, 6840.308
587.0240, 6846.414
587.5061, 6853.649
587.9882, 6857.849
588.4703, 6855.633
588.9525, 6854.100
589.4346, 6853.570
589.9167, 6853.783
590.3988, 6854.671
590.8809, 6857.158
591.3630, 6857.317
591.8452, 6852.966
592.3273, 6845.882
592.8094, 6843.243
593.2915, 6845.151
593.7736, 6848.800
594.2557, 6853.878
594.7379, 6859.313
595.2200, 6862.310
595.7021, 6862.818
596.1842, 6862.016
596.6663, 6860.122
597.1484, 6857.829
597.6306, 6855.678
598.1127, 6853.333
598.5948, 6852.904
599.0769, 6857.858
599.5590, 6864.575
600.0411, 6868.483
600.5233, 6866.394
601.0054, 6864.112
601.4875, 6861.948
601.9696, 6860.320
602.4517, 6860.640
602.9338, 6863.967
603.4160, 6866.982
603.8981, 6868.302
604.3802, 6868.172
604.8623, 6869.149
605.3444, 6871.319
605.8265, 6873.867
606.3087, 6875.087
606.7908, 6876.167
607.2729, 6881.460
607.7550, 6891.776
608.2371, 6902.070
608.7192, 6908.405
609.2014, 6911.755
609.6835, 6913.339
610.1656, 6911.891
610.6477, 6911.351
611.1298, 6912.942
611.6119, 6916.665
612.0941, 6922.547
612.5762, 6936.183
613.0583, 6945.470
613.5404, 6945.446
614.0225, 6938.450
614.5046, 6937.726
614.9868, 6946.130
615.4689, 6954.282
615.9510, 6957.170
616.4331, 6955.154
616.9152, 6957.090
617.3973, 6963.427
617.8795, 6969.637
618.3616, 6969.326
618.8437, 6965.981
619.3258, 6968.761
619.8079, 6979.840
620.2900, 6992.625
620.7722, 7003.585
621.2543, 7012.149
621.7364, 7017.292
622.2185, 7016.075
622.7006, 7014.819
623.1827, 7015.151
623.6649, 7016.958
624.1470, 7019.954
624.6291, 7023.581
625.1112, 7029.052
625.5933, 7037.201
626.0754, 7047.536
626.5576, 7056.742
627.0397, 7064.986
627.5218, 7071.268
628.0039, 7073.034
628.4860, 7071.305
628.9681, 7076.459
629.4503, 7088.987
629.9324, 7102.324
630.4145, 7110.620
630.8966, 7115.926
631.3787, 7121.621
631.8608, 7128.228
632.3430, 7135.706
632.8251, 7144.661
633.3072, 7154.323
633.7893, 7163.856
634.2714, 7171.815
634.7535, 7181.123
635.2357, 7193.425
635.7178, 7207.415
636.1999, 7219.930
636.6820, 7228.875
637.1641, 7239.840
637.6462, 7254.275
638.1284, 7271.730
638.6105, 7290.442
639.0926, 7310.823
639.5747, 7328.591
640.0568, 7337.282
640.5389, 7341.531
641.0211, 7355.718
641.5032, 7379.807
641.9853, 7406.516
642.4674, 7429.531
642.9495, 7452.200
643.4316, 7478.767
643.9138, 7510.731
644.3959, 7542.788
644.8780, 7570.064
645.3601, 7597.206
645.8422, 7628.249
646.3243, 7664.694
646.8065, 7704.454
647.2886, 7747.890
647.7707, 7794.608
648.2528, 7845.162
648.7349, 7899.983
649.2170, 7956.298
649.6992, 8013.968
650.1813, 8073.224
650.6634, 8135.995
651.1455, 8202.107
651.6276, 8272.020
652.1097, 8347.444
652.5919, 8426.645
653.0740, 8509.213
653.5561, 8594.638
654.0382, 8682.637
654.5203, 8772.246
655.0024, 8863.489
655.4846, 8956.786
655.9667, 9051.029
656.4488, 9150.622
656.9309, 9257.509
657.4130, 9367.350
657.8951, 9478.402
658.3773, 9589.987
658.8594, 9703.882
659.3415, 9822.659
659.8236, 9939.087
660.3057, 10045.29
660.7878, 10140.38
661.2700, 10224.46
661.7521, 10297.98
662.2342, 10359.29
662.7163, 10410.50
663.1984, 10448.40
663.6805, 10465.62
664.1627, 10460.39
664.6448, 10432.10
665.1269, 10378.49
665.6090, 10300.85
666.0911, 10205.52
666.5732, 10085.89
667.0554, 9955.965
667.5375, 9818.927
668.0196, 9674.309
668.5017, 9528.141
668.9838, 9377.842
669.4659, 9229.769
669.9481, 9086.069
670.4302, 8947.927
670.9123, 8816.130
671.3944, 8690.425
671.8765, 8572.446
672.3586, 8464.745
672.8408, 8366.979
673.3229, 8278.514
673.8050, 8200.355
674.2871, 8126.171
674.7692, 8051.103
675.2513, 7978.933
675.7335, 7913.698
676.2156, 7860.143
676.6977, 7811.245
677.1798, 7768.377
677.6619, 7729.142
678.1440, 7688.576
678.6262, 7643.857
679.1083, 7605.400
679.5904, 7575.393
680.0725, 7552.392
680.5546, 7532.693
681.0367, 7515.979
681.5189, 7498.854
682.0010, 7477.749
682.4831, 7456.240
682.9652, 7440.803
683.4473, 7430.237
683.9294, 7417.784
684.4116, 7397.243
684.8937, 7375.837
685.3758, 7357.554
685.8579, 7342.913
686.3400, 7330.381
686.8221, 7320.454
687.3043, 7312.258
687.7864, 7305.828
688.2685, 7301.703
688.7506, 7296.477
689.2327, 7289.618
689.7148, 7283.057
690.1970, 7279.507
690.6791, 7278.201
691.1612, 7274.107
691.6433, 7266.388
692.1254, 7257.583
692.6075, 7249.687
693.0897, 7242.519
693.5718, 7235.588
694.0539, 7227.926
694.5360, 7222.139
695.0181, 7221.339
695.5002, 7222.655
695.9824, 7221.542
696.4645, 7214.392
696.9466, 7208.815
697.4287, 7205.329
697.9108, 7204.122
698.3929, 7206.498
698.8751, 7213.374
699.3572, 7218.801
699.8393, 7221.221
700.3214, 7220.647
700.8035, 7215.423
701.2856, 7206.424
701.7678, 7198.882
702.2499, 7197.141
702.7320, 7197.206
703.2141, 7194.720
703.6962, 7190.095
704.1783, 7187.526
704.6605, 7191.584
705.1426, 7195.330
705.6247, 7194.437
706.1068, 7188.017
706.5889, 7184.471
707.0710, 7185.054
707.5532, 7186.255
708.0353, 7186.317
708.5174, 7185.260
708.9995, 7181.958
709.4816, 7176.300
709.9637, 7169.417
710.4459, 7161.237
710.9280, 7153.007
711.4101, 7147.409
711.8922, 7145.274
712.3743, 7144.191
712.8564, 7143.709
713.3386, 7143.106
713.8207, 7141.487
714.3028, 7135.560
714.7849, 7133.447
715.2670, 7138.519
715.7491, 7145.615
716.2313, 7147.156
716.7134, 7140.572
717.1955, 7139.173
717.6776, 7146.827
718.1597, 7157.530
718.6418, 7159.428
719.1240, 7154.063
719.6061, 7149.179
720.0882, 7147.962
720.5703, 7148.018
721.0524, 7147.337
721.5345, 7146.065
722.0167, 7144.576
722.4988, 7143.805
722.9809, 7142.208
723.4630, 7138.650
723.9451, 7133.804
724.4272, 7130.397
724.9094, 7128.389
725.3915, 7128.596
725.8736, 7132.861
726.3557, 7139.782
726.8378, 7140.081
727.3199, 7133.703
727.8021, 7127.960
728.2842, 7128.669
728.7663, 7132.381
729.2484, 7132.991
729.7305, 7130.615
730.2126, 7129.089
730.6948, 7130.125
731.1769, 7132.850
731.6590, 7137.055
732.1411, 7142.946
732.6232, 7147.860
733.1053, 7151.273
733.5875, 7153.942
734.0696, 7156.139
734.5517, 7157.780
735.0338, 7160.541
735.5159, 7165.248
735.9980, 7167.944
736.4802, 7161.489
736.9623, 7150.313
737.4444, 7148.139
737.9265, 7157.900
738.4086, 7167.190
738.8907, 7163.167
739.3729, 7155.308
739.8550, 7154.662
740.3371, 7170.175
740.8192, 7179.299
741.3013, 7171.271
741.7834, 7159.187
742.2656, 7156.349
742.7477, 7166.780
743.2298, 7171.267
743.7119, 7165.711
744.1940, 7157.855
744.6761, 7160.775
745.1583, 7172.217
745.6404, 7181.506
746.1225, 7186.169
746.6046, 7187.023
747.0867, 7181.708
747.5688, 7173.798
748.0510, 7169.390
748.5331, 7174.528
749.0152, 7178.945
749.4973, 7178.907
749.9794, 7176.653
750.4615, 7176.512
750.9437, 7178.974
751.4258, 7182.716
751.9079, 7188.362
752.3900, 7194.311
752.8721, 7195.281
753.3542, 7191.958
753.8364, 7191.125
754.3185, 7196.379
754.8006, 7204.749
755.2827, 7215.361
755.7648, 7226.423
756.2469, 7232.556
756.7291, 7224.829
757.2112, 7218.442
757.6933, 7221.294
758.1754, 7231.486
758.6575, 7237.075
759.1396, 7235.760
759.6218, 7234.245
760.1039, 7234.827
760.5860, 7237.021
761.0681, 7238.608
761.5502, 7239.636
762.0323, 7240.978
762.5145, 7242.804
762.9966, 7245.573
763.4787, 7251.474
763.9608, 7259.657
764.4429, 7264.728
764.9250, 7259.367
765.4072, 7254.522
765.8893, 7257.200
766.3714, 7268.070
766.8535, 7274.600
767.3356, 7274.599
767.8177, 7274.008
768.2999, 7275.777
768.7820, 7279.516
769.2641, 7281.626
769.7462, 7281.929
770.2283, 7283.117
770.7104, 7288.185
771.1926, 7294.756
771.6747, 7299.632
772.1568, 7302.581
772.6389, 7304.872
773.1210, 7308.075
773.6031, 7310.120
774.0853, 7309.553
774.5674, 7306.025
775.0495, 7302.021
775.5316, 7297.164
776.0137, 7292.818
776.4958, 7290.295
776.9780, 7289.545
777.4601, 7287.026
777.9422, 7282.556
778.4243, 7279.479
778.9064, 7281.435
779.3885, 7286.078
779.8707, 7290.602
780.3528, 7294.702
780.8349, 7298.051
781.3170, 7300.579
781.7991, 7302.143
782.2812, 7302.486
782.7633, 7301.401
783.2454, 7299.370
783.7275, 7295.005
784.2097, 7292.300
784.6918, 7295.894
785.1739, 7304.953
785.6560, 7311.986
786.1381, 7316.638
786.6202, 7318.616
787.1024, 7315.456
787.5845, 7310.572
788.0666, 7308.186
788.5487, 7309.089
789.0308, 7311.893
789.5129, 7318.293
789.9951, 7324.890
790.4772, 7329.026
790.9593, 7330.380
791.4414, 7329.590
791.9235, 7325.446
792.4056, 7321.665
792.8878, 7322.229
793.3699, 7326.392
793.8520, 7330.773
794.3341, 7335.140
794.8162, 7338.505
795.2983, 7339.829
795.7805, 7339.891
796.2626, 7339.666
796.7447, 7339.607
797.2268, 7338.604
797.7089, 7335.833
798.1910, 7332.519
798.6732, 7329.180
799.1553, 7324.801
799.6374, 7325.209
800.1195, 7331.834
800.6016, 7339.349
801.0837, 7341.860
801.5659, 7340.719
802.0480, 7339.661
802.5301, 7339.060
803.0122, 7339.847
803.4943, 7342.908
803.9764, 7347.543
804.4586, 7353.209
804.9407, 7360.298
805.4228, 7366.990
805.9049, 7373.008
806.3870, 7378.576
806.8691, 7383.534
807.3513, 7387.501
807.8334, 7394.344
808.3155, 7404.844
808.7976, 7414.933
809.2797, 7420.084
809.7618, 7421.785
810.2440, 7422.167
810.7261, 7421.102
811.2082, 7422.011
811.6903, 7429.458
812.1724, 7438.128
812.6545, 7442.834
813.1367, 7439.760
813.6188, 7441.843
814.1009, 7451.482
814.5830, 7462.429
815.0651, 7469.633
815.5472, 7473.239
816.0294, 7474.153
816.5115, 7472.338
816.9936, 7469.860
817.4757, 7467.974
817.9578, 7467.002
818.4399, 7467.534
818.9221, 7469.906
819.4042, 7472.674
819.8863, 7474.789
820.3684, 7477.695
820.8505, 7483.068
821.3326, 7492.845
821.8148, 7496.044
822.2969, 7490.900
822.7790, 7484.532
823.2611, 7484.234
823.7432, 7487.559
824.2253, 7485.703
824.7075, 7477.760
825.1896, 7471.544
825.6717, 7475.083
826.1538, 7481.036
826.6359, 7484.086
827.1180, 7483.791
827.6002, 7478.342
828.0823, 7462.471
828.5644, 7448.196
829.0465, 7443.154
829.5286, 7447.719
830.0107, 7453.532
830.4929, 7461.150
830.9750, 7464.496
831.4571, 7455.156
831.9392, 7440.204
832.4213, 7430.851
832.9034, 7427.745
833.3856, 7424.153
833.8677, 7412.017
834.3498, 7402.726
834.8319, 7405.192
835.3140, 7419.966
835.7961, 7428.643
836.2783, 7429.700
836.7604, 7428.572
837.2425, 7427.070
837.7246, 7425.748
838.2067, 7427.316
838.6888, 7431.544
839.1710, 7436.701
839.6531, 7441.088
840.1352, 7446.273
840.6173, 7454.392
841.0994, 7465.020
841.5815, 7473.526
842.0637, 7476.812
842.5458, 7480.600
843.0279, 7487.802
843.5100, 7497.107
843.9921, 7499.417
844.4742, 7494.477
844.9564, 7489.559
845.4385, 7488.125
845.9206, 7489.272
846.4027, 7491.805
846.8848, 7495.903
847.3669, 7501.848
847.8491, 7512.746
848.3312, 7522.729
848.8133, 7527.968
849.2954, 7530.579
849.7775, 7537.503
850.2596, 7550.315
850.7418, 7562.317
851.2239, 7570.682
851.7060, 7578.077
852.1881, 7591.504
852.6702, 7609.360
853.1523, 7625.241
853.6345, 7635.934
854.1166, 7644.243
854.5987, 7652.430
855.0808, 7659.240
855.5629, 7662.542
856.0450, 7661.179
856.5272, 7657.031
857.0093, 7650.093
857.4914, 7640.841
857.9735, 7629.307
858.4556, 7615.899
858.9377, 7603.685
859.4199, 7593.656
859.9020, 7585.714
860.3841, 7581.700
860.8662, 7579.388
861.3483, 7575.190
861.8304, 7566.948
862.3126, 7559.347
862.7947, 7552.050
863.2768, 7546.910
863.7589, 7546.773
864.2410, 7553.311
864.7231, 7553.547
865.2053, 7544.995
865.6874, 7536.203
866.1695, 7539.144
866.6516, 7547.739
867.1337, 7548.398
867.6158, 7537.799
868.0980, 7529.757
868.5801, 7534.938
869.0622, 7543.152
869.5443, 7546.515
870.0264, 7544.072
870.5085, 7541.542
870.9907, 7539.712
871.4728, 7536.479
871.9549, 7528.434
872.4370, 7517.726
872.9191, 7513.613
873.4012, 7515.979
873.8834, 7519.474
874.3655, 7521.399
874.8476, 7522.168
875.3297, 7521.279
875.8118, 7518.764
876.2939, 7518.196
876.7761, 7519.665
877.2582, 7523.087
877.7403, 7529.483
878.2224, 7537.599
878.7045, 7540.685
879.1866, 7539.084
879.6688, 7537.390
880.1509, 7539.245
880.6330, 7541.214
881.1151, 7538.625
881.5972, 7533.272
882.0793, 7530.313
882.5615, 7531.958
883.0436, 7535.580
883.5257, 7541.791
884.0078, 7549.000
884.4899, 7554.085
884.9720, 7557.155
885.4542, 7556.287
885.9363, 7549.465
886.4184, 7542.231
886.9005, 7541.732
887.3826, 7546.058
887.8647, 7552.013
888.3469, 7559.310
888.8290, 7566.929
889.3111, 7576.476
889.7932, 7584.839
890.2753, 7588.624
890.7574, 7586.796
891.2396, 7584.262
891.7217, 7580.829
892.2038, 7578.240
892.6859, 7578.042
893.1680, 7580.125
893.6501, 7585.572
894.1323, 7595.097
894.6144, 7601.674
895.0965, 7600.684
895.5786, 7596.429
896.0607, 7590.912
896.5428, 7583.706
897.0250, 7580.980
897.5071, 7583.235
897.9892, 7588.634
898.4713, 7599.072
898.9534, 7611.333
899.4355, 7614.217
899.9177, 7609.137
900.3998, 7605.981
900.8819, 7612.699
901.3640, 7620.872
901.8461, 7625.857
902.3282, 7627.688
902.8104, 7629.039
903.2925, 7629.750
903.7746, 7629.907
904.2567, 7629.127
904.7388, 7628.182
905.2209, 7629.953
905.7031, 7633.484
906.1852, 7634.670
906.6673, 7630.531
907.1494, 7626.022
907.6315, 7624.420
908.1136, 7624.792
908.5958, 7625.815
909.0779, 7629.445
909.5600, 7629.834
910.0421, 7625.495
910.5242, 7620.087
911.0063, 7617.364
911.4885, 7617.431
911.9706, 7621.563
912.4527, 7630.350
912.9348, 7638.766
913.4169, 7642.149
913.8990, 7643.645
914.3812, 7646.053
914.8633, 7649.945
915.3454, 7653.178
915.8275, 7654.643
916.3096, 7656.864
916.7917, 7661.172
917.2739, 7667.369
917.7560, 7676.793
918.2381, 7688.742
918.7202, 7695.636
919.2023, 7686.638
919.6844, 7675.526
920.1666, 7674.320
920.6487, 7681.210
921.1308, 7684.870
921.6129, 7683.440
922.0950, 7679.231
922.5771, 7671.287
923.0593, 7662.380
923.5414, 7660.802
924.0235, 7665.482
924.5056, 7668.321
924.9877, 7666.435
925.4698, 7662.658
925.9520, 7658.810
926.4341, 7654.890
926.9162, 7650.877
927.3983, 7643.488
927.8804, 7641.602
928.3625, 7647.689
928.8447, 7655.704
929.3268, 7659.022
929.8089, 7658.253
930.2910, 7658.688
930.7731, 7660.742
931.2552, 7663.083
931.7374, 7664.947
932.2195, 7666.333
932.7016, 7666.662
933.1837, 7665.646
933.6658, 7667.256
934.1479, 7674.545
934.6301, 7679.584
935.1122, 7677.913
935.5943, 7671.565
936.0764, 7668.995
936.5585, 7669.946
937.0406, 7672.435
937.5228, 7676.095
938.0049, 7680.361
938.4870, 7685.602
938.9691, 7691.109
939.4512, 7695.180
939.9333, 7698.736
940.4155, 7698.266
940.8976, 7690.839
941.3797, 7682.809
941.8618, 7686.521
942.3439, 7699.134
942.8260, 7706.337
943.3082, 7704.685
943.7903, 7701.897
944.2724, 7703.042
944.7545, 7706.345
945.2366, 7710.478
945.7188, 7715.759
946.2009, 7720.442
946.6830, 7725.923
947.1651, 7727.892
947.6472, 7720.290
948.1293, 7706.811
948.6115, 7703.823
949.0936, 7710.312
949.5757, 7717.431
950.0578, 7719.526
950.5399, 7721.032
951.0220, 7724.258
951.5042, 7729.260
951.9863, 7736.057
952.4684, 7747.312
952.9505, 7752.743
953.4326, 7748.244
953.9147, 7740.013
954.3969, 7738.427
954.8790, 7742.165
955.3611, 7747.948
955.8432, 7755.755
956.3253, 7762.770
956.8074, 7764.779
957.2896, 7766.891
957.7717, 7774.744
958.2538, 7791.326
958.7359, 7801.241
959.2180, 7802.635
959.7001, 7803.918
960.1823, 7814.806
960.6644, 7829.320
961.1465, 7833.394
961.6286, 7827.813
962.1107, 7823.496
962.5928, 7827.225
963.0750, 7831.610
963.5571, 7832.683
964.0392, 7832.011
964.5213, 7837.354
965.0034, 7850.375
965.4855, 7855.057
965.9677, 7843.925
966.4498, 7828.361
966.9319, 7822.761
967.4140, 7824.717
967.8961, 7830.618
968.3782, 7844.600
968.8604, 7852.888
969.3425, 7849.547
969.8246, 7842.891
970.3067, 7838.834
970.7888, 7837.337
971.2709, 7839.161
971.7531, 7844.336
972.2352, 7849.980
972.7173, 7852.663
973.1994, 7855.192
973.6815, 7860.729
974.1636, 7869.061
974.6458, 7876.953
975.1279, 7883.267
975.6100, 7889.502
976.0921, 7895.776
976.5742, 7902.397
977.0563, 7910.469
977.5385, 7919.872
978.0206, 7929.475
978.5027, 7939.050
978.9848, 7948.580
979.4669, 7958.580
979.9490, 7968.433
980.4311, 7977.474
980.9132, 7987.754
981.3953, 7992.000
981.8774, 7987.549
982.3596, 7983.947
982.8417, 7991.896
983.3238, 8007.313
983.8059, 8016.609
984.2880, 8019.854
984.7701, 8026.108
985.2523, 8042.522
985.7344, 8061.272
986.2165, 8078.156
986.6986, 8093.739
987.1807, 8110.682
987.6628, 8128.671
988.1450, 8148.836
988.6271, 8171.698
989.1092, 8196.477
989.5913, 8222.513
990.0734, 8249.576
990.5555, 8277.425
991.0377, 8306.463
991.5198, 8334.866
992.0019, 8357.050
992.4840, 8383.187
992.9661, 8422.478
993.4482, 8475.450
993.9304, 8525.135
994.4125, 8571.624
994.8946, 8620.364
995.3767, 8674.707
995.8588, 8734.911
996.3409, 8802.776
996.8231, 8876.932
997.3052, 8952.592
997.7873, 9025.864
998.2694, 9106.631
998.7515, 9197.756
999.2336, 9296.377
999.7158, 9393.194
1000.198, 9490.670
1000.680, 9598.440
1001.162, 9720.731
1001.644, 9844.847
1002.126, 9959.566
1002.608, 10071.71
1003.091, 10184.19
1003.573, 10296.49
1004.055, 10418.78
1004.537, 10553.63
1005.019, 10690.83
1005.501, 10825.28
1005.983, 10963.93
1006.465, 11097.19
1006.948, 11240.23
1007.430, 11380.01
1007.912, 11516.32
1008.394, 11643.73
1008.876, 11763.18
1009.358, 11871.38
1009.840, 11967.13
1010.322, 12049.83
1010.804, 12098.19
1011.287, 12109.51
1011.769, 12083.28
1012.251, 12016.58
1012.733, 11913.87
1013.215, 11778.23
1013.697, 11607.73
1014.179, 11407.98
1014.661, 11170.62
1015.143, 10926.17
1015.626, 10688.88
1016.108, 10458.21
1016.590, 10225.95
1017.072, 9998.704
1017.554, 9793.340
1018.036, 9623.044
1018.518, 9470.716
1019.000, 9332.745
1019.483, 9209.614
1019.965, 9102.471
1020.447, 9012.854
1020.929, 8928.411
1021.411, 8847.481
1021.893, 8773.357
1022.375, 8709.983
1022.857, 8654.795
1023.339, 8605.065
1023.822, 8560.506
1024.304, 8520.675
1024.786, 8487.232
1025.268, 8456.766
1025.750, 8428.650
1026.232, 8403.273
1026.714, 8381.960
1027.196, 8364.674
1027.679, 8351.284
1028.161, 8343.506
1028.643, 8335.853
1029.125, 8324.316
1029.607, 8311.143
1030.089, 8298.314
1030.571, 8284.937
1031.053, 8275.600
1031.536, 8270.746
1032.018, 8266.815
1032.500, 8258.919
1032.982, 8251.318
1033.464, 8252.335
1033.946, 8260.355
1034.428, 8268.295
1034.910, 8277.964
1035.392, 8280.974
1035.875, 8272.525
1036.357, 8260.033
1036.839, 8257.219
1037.321, 8263.018
1037.803, 8268.020
1038.285, 8270.983
1038.767, 8271.063
1039.249, 8265.182
1039.731, 8257.932
1040.214, 8253.395
1040.696, 8252.045
1041.178, 8248.946
1041.660, 8243.426
1042.142, 8238.756
1042.624, 8237.709
1043.106, 8236.733
1043.588, 8228.504
1044.071, 8215.313
1044.553, 8202.275
1045.035, 8189.159
1045.517, 8179.635
1045.999, 8178.821
1046.481, 8177.151
1046.963, 8163.718
1047.445, 8139.586
1047.927, 8123.478
1048.410, 8115.702
1048.892, 8108.764
1049.374, 8096.072
1049.856, 8083.276
1050.338, 8076.707
1050.820, 8062.840
1051.302, 8063.347
1051.784, 8041.151
1052.266, 8024.343
1052.749, 8016.856
1053.231, 8014.422
1053.713, 8015.050
1054.195, 8015.223
1054.677, 8007.042
1055.159, 7986.633
1055.641, 7972.884
1056.123, 7976.963
1056.606, 7981.967
1057.088, 7980.647
1057.570, 7973.872
1058.052, 7965.291
1058.534, 7955.403
1059.016, 7947.279
1059.498, 7942.484
1059.980, 7939.701
1060.463, 7939.091
1060.945, 7939.596
1061.427, 7939.784
1061.909, 7939.741
1062.391, 7938.661
1062.873, 7936.268
1063.355, 7934.219
1063.837, 7934.975
1064.319, 7936.292
1064.802, 7935.046
1065.284, 7931.342
1065.766, 7926.821
1066.248, 7920.086
1066.730, 7915.286
1067.212, 7914.072
1067.694, 7913.950
1068.176, 7907.985
1068.658, 7898.956
1069.141, 7899.110
1069.623, 7912.322
1070.105, 7923.292
1070.587, 7922.497
1071.069, 7916.924
1071.551, 7910.092
1072.033, 7902.495
1072.515, 7899.729
1072.998, 7902.019
1073.480, 7903.242
1073.962, 7898.857
1074.444, 7894.884
1074.926, 7900.226
1075.408, 7909.494
1075.890, 7914.122
1076.372, 7908.990
1076.854, 7906.128
1077.337, 7906.287
1077.819, 7906.706
1078.301, 7904.017
1078.783, 7900.284
1079.265, 7901.521
1079.747, 7906.775
1080.229, 7910.476
1080.711, 7907.970
1081.193, 7906.360
1081.676, 7907.563
1082.158, 7910.483
1082.640, 7914.134
1083.122, 7918.162
1083.604, 7918.609
1084.086, 7914.531
1084.568, 7911.586
1085.050, 7917.171
1085.532, 7922.905
1086.015, 7922.043
1086.497, 7915.111
1086.979, 7907.433
1087.461, 7898.495
1087.943, 7893.416
1088.425, 7895.400
1088.907, 7898.937
1089.389, 7896.335
1089.872, 7890.917
1090.354, 7887.092
1090.836, 7885.069
1091.318, 7887.747
1091.800, 7897.146
1092.282, 7906.838
1092.764, 7913.984
1093.246, 7917.893
1093.729, 7914.501
1094.211, 7905.626
1094.693, 7898.468
1095.175, 7896.061
1095.657, 7895.615
1096.139, 7897.232
1096.621, 7899.508
1097.103, 7900.938
1097.585, 7901.588
1098.068, 7902.528
1098.550, 7903.875
1099.032, 7905.720
1099.514, 7907.851
1099.996, 7910.936
1100.478, 7917.557
1100.960, 7925.665
1101.442, 7927.298
1101.924, 7921.153
1102.407, 7916.296
1102.889, 7914.372
1103.371, 7914.070
1103.853, 7912.875
1104.335, 7912.930
1104.817, 7917.515
1105.299, 7927.518
1105.781, 7936.197
1106.264, 7944.001
1106.746, 7947.794
1107.228, 7945.502
1107.710, 7939.574
1108.192, 7933.568
1108.674, 7928.138
1109.156, 7924.717
1109.638, 7924.266
1110.120, 7924.845
1110.603, 7925.979
1111.085, 7928.217
1111.567, 7933.978
1112.049, 7941.702
1112.531, 7936.973
1113.013, 7922.197
1113.495, 7912.075
1113.977, 7920.510
1114.459, 7928.417
1114.942, 7924.775
1115.424, 7916.552
1115.906, 7912.935
1116.388, 7914.476
1116.870, 7915.005
1117.352, 7914.178
1117.834, 7913.739
1118.316, 7914.418
1118.799, 7916.636
1119.281, 7922.420
1119.763, 7930.265
1120.245, 7933.815
1120.727, 7931.831
1121.209, 7928.587
1121.691, 7923.721
1122.173, 7921.494
1122.656, 7932.796
1123.138, 7946.584
1123.620, 7945.021
1124.102, 7925.467
1124.584, 7914.700
1125.066, 7920.534
1125.548, 7924.591
1126.030, 7919.140
1126.512, 7911.682
1126.995, 7920.493
1127.477, 7938.729
1127.959, 7950.114
1128.441, 7949.638
1128.923, 7946.886
1129.405, 7943.623
1129.887, 7940.194
1130.369, 7936.436
1130.851, 7932.683
1131.334, 7930.249
1131.816, 7929.095
1132.298, 7929.268
1132.780, 7932.093
1133.262, 7933.917
1133.744, 7931.206
1134.226, 7927.872
1134.708, 7927.406
1135.191, 7929.851
1135.673, 7935.006
1136.155, 7942.702
1136.637, 7946.841
1137.119, 7939.415
1137.601, 7931.394
1138.083, 7932.089
1138.565, 7937.462
1139.047, 7938.945
1139.530, 7936.455
1140.012, 7929.811
1140.494, 7918.331
1140.976, 7909.593
1141.458, 7913.267
1141.940, 7920.982
1142.422, 7925.797
1142.904, 7926.978
1143.386, 7922.864
1143.869, 7909.593
1144.351, 7903.182
1144.833, 7907.479
1145.315, 7915.768
1145.797, 7921.555
1146.279, 7924.799
1146.761, 7924.778
1147.243, 7921.374
1147.726, 7918.279
1148.208, 7915.065
1148.690, 7914.467
1149.172, 7918.210
1149.654, 7923.618
1150.136, 7925.899
1150.618, 7925.801
1151.100, 7924.300
1151.583, 7920.737
1152.065, 7919.646
1152.547, 7923.789
1153.029, 7928.104
1153.511, 7930.267
1153.993, 7930.814
1154.475, 7931.351
1154.957, 7931.961
1155.439, 7933.096
1155.922, 7936.194
1156.404, 7937.453
1156.886, 7934.041
1157.368, 7929.836
1157.850, 7927.187
1158.332, 7926.039
1158.814, 7925.716
1159.296, 7926.081
1159.778, 7926.108
1160.261, 7923.664
1160.743, 7922.528
1161.225, 7925.547
1161.707, 7929.945
1162.189, 7932.352
1162.671, 7932.566
1163.153, 7937.108
1163.635, 7945.826
1164.118, 7951.734
1164.600, 7946.700
1165.082, 7940.791
1165.564, 7941.336
1166.046, 7945.114
1166.528, 7945.445
1167.010, 7941.780
1167.492, 7941.188
1167.974, 7944.509
1168.457, 7947.997
1168.939, 7948.885
1169.421, 7948.431
1169.903, 7947.427
1170.385, 7945.889
1170.867, 7943.583
1171.349, 7940.072
1171.831, 7938.242
1172.313, 7938.711
1172.796, 7940.120
1173.278, 7941.351
1173.760, 7942.652
1174.242, 7943.544
1174.724, 7944.377
1175.206, 7950.017
1175.688, 7962.851
1176.170, 7969.483
1176.653, 7965.326
1177.135, 7957.263
1177.617, 7951.118
1178.099, 7947.749
1178.581, 7949.307
1179.063, 7956.726
1179.545, 7961.148
1180.027, 7960.972
1180.510, 7962.414
1180.992, 7968.548
1181.474, 7975.632
1181.956, 7977.731
1182.438, 7977.177
1182.920, 7977.851
1183.402, 7981.245
1183.884, 7982.492
1184.366, 7980.638
1184.849, 7979.171
1185.331, 7980.205
1185.813, 7982.392
1186.295, 7983.921
1186.777, 7984.575
1187.259, 7983.661
1187.741, 7979.546
1188.223, 7977.699
1188.705, 7979.524
1189.188, 7980.765
1189.670, 7976.874
1190.152, 7971.579
1190.634, 7973.704
1191.116, 7980.771
1191.598, 7986.896
1192.080, 7990.117
1192.562, 7991.880
1193.045, 7991.513
1193.527, 7991.304
1194.009, 7993.869
1194.491, 7997.653
1194.973, 7998.006
1195.455, 7996.221
1195.937, 7996.786
1196.419, 8003.791
1196.901, 8009.735
1197.384, 8014.189
1197.866, 8016.613
1198.348, 8015.119
1198.830, 8011.726
1199.312, 8012.752
1199.794, 8017.067
1200.276, 8018.041
1200.758, 8006.638
1201.240, 8002.043
1201.723, 8010.537
1202.205, 8020.569
1202.687, 8015.024
1203.169, 8001.080
1203.651, 7996.979
1204.133, 8002.942
1204.615, 8008.812
1205.097, 8010.633
1205.580, 8012.165
1206.062, 8014.259
1206.544, 8016.040
1207.026, 8016.343
1207.508, 8015.221
1207.990, 8011.405
1208.472, 8005.060
1208.954, 8002.913
1209.437, 8012.062
1209.919, 8019.259
1210.401, 8020.638
1210.883, 8019.996
1211.365, 8024.068
1211.847, 8031.160
1212.329, 8037.266
1212.811, 8041.812
1213.293, 8047.283
1213.776, 8057.935
1214.258, 8064.726
1214.740, 8063.802
1215.222, 8059.854
1215.704, 8062.993
1216.186, 8069.998
1216.668, 8073.769
1217.150, 8073.057
1217.632, 8068.885
1218.115, 8056.205
1218.597, 8048.286
1219.079, 8050.631
1219.561, 8058.544
1220.043, 8064.248
1220.525, 8067.736
1221.007, 8068.306
1221.489, 8064.945
1221.972, 8064.360
1222.454, 8069.872
1222.936, 8075.008
1223.418, 8077.776
1223.900, 8078.147
1224.382, 8073.872
1224.864, 8067.759
1225.346, 8066.222
1225.828, 8072.160
1226.311, 8076.944
1226.793, 8080.042
1227.275, 8080.364
1227.757, 8076.473
1228.239, 8070.697
1228.721, 8067.748
1229.203, 8066.643
1229.685, 8065.247
1230.167, 8062.439
1230.650, 8061.799
1231.132, 8064.319
1231.614, 8067.141
1232.096, 8068.625
1232.578, 8069.689
1233.060, 8072.406
1233.542, 8075.881
1234.024, 8078.385
1234.507, 8079.173
1234.989, 8079.673
1235.471, 8080.065
1235.953, 8079.416
1236.435, 8080.734
1236.917, 8071.194
1237.399, 8082.899
1237.881, 8079.055
1238.364, 8079.998
1238.846, 8087.511
1239.328, 8082.327
1239.810, 8094.849
1240.292, 8106.840
1240.774, 8105.455
1241.256, 8098.971
1241.738, 8097.540
1242.220, 8099.667
1242.703, 8102.726
1243.185, 8106.140
1243.667, 8110.923
1244.149, 8117.271
1244.631, 8122.889
1245.113, 8125.091
1245.595, 8126.565
1246.077, 8131.273
1246.559, 8136.792
1247.042, 8138.625
1247.524, 8135.235
1248.006, 8132.948
1248.488, 8131.795
1248.970, 8131.782
1249.452, 8135.732
1249.934, 8138.360
1250.416, 8132.748
1250.899, 8124.186
1251.381, 8122.075
1251.863, 8129.453
1252.345, 8124.851
1252.827, 8108.237
1253.309, 8097.042
1253.791, 8108.916
1254.273, 8123.641
1254.755, 8128.476
1255.238, 8127.002
1255.720, 8124.311
1256.202, 8120.182
1256.684, 8115.116
1257.166, 8109.325
1257.648, 8107.525
1258.130, 8114.811
1258.612, 8124.211
1259.094, 8135.220
1259.577, 8144.244
1260.059, 8145.638
1260.541, 8140.431
1261.023, 8142.559
1261.505, 8151.305
1261.987, 8157.626
1262.469, 8153.190
1262.951, 8150.069
1263.434, 8153.626
1263.916, 8158.383
1264.398, 8158.203
1264.880, 8154.373
1265.362, 8152.298
1265.844, 8152.175
1266.326, 8154.530
1266.808, 8162.708
1267.291, 8168.217
1267.773, 8167.542
1268.255, 8167.578
1268.737, 8179.097
1269.219, 8195.364
1269.701, 8197.688
1270.183, 8189.028
1270.665, 8182.898
1271.147, 8185.764
1271.630, 8189.200
1272.112, 8193.718
1272.594, 8195.904
1273.076, 8190.341
1273.558, 8181.772
1274.040, 8176.198
1274.522, 8173.946
1275.004, 8175.774
1275.486, 8184.877
1275.969, 8188.743
1276.451, 8185.612
1276.933, 8182.688
1277.415, 8187.778
1277.897, 8194.832
1278.379, 8196.995
1278.861, 8196.121
1279.343, 8196.961
1279.825, 8199.756
1280.308, 8204.483
1280.790, 8211.249
1281.272, 8217.085
1281.754, 8218.843
1282.236, 8219.683
1282.718, 8221.910
1283.200, 8224.572
1283.682, 8226.091
1284.165, 8226.408
1284.647, 8226.074
1285.129, 8225.235
1285.611, 8225.914
1286.093, 8230.937
1286.575, 8235.965
1287.057, 8240.225
1287.539, 8242.480
1288.021, 8239.869
1288.504, 8233.726
1288.986, 8232.458
1289.468, 8235.384
1289.950, 8236.505
1290.432, 8229.558
1290.914, 8225.780
1291.396, 8228.565
1291.878, 8232.805
1292.360, 8232.716
1292.843, 8230.726
1293.325, 8234.630
1293.807, 8242.178
1294.289, 8245.154
1294.771, 8232.561
1295.253, 8229.949
1295.735, 8241.058
1296.217, 8252.975
1296.700, 8252.850
1297.182, 8248.227
1297.664, 8247.246
1298.146, 8249.921
1298.628, 8258.807
1299.110, 8280.591
1299.592, 8287.431
1300.074, 8277.129
1300.557, 8264.988
1301.039, 8263.180
1301.521, 8262.475
1302.003, 8255.364
1302.485, 8244.808
1302.967, 8237.616
1303.449, 8238.565
##END=



