##NAMES=Diopside
##RRUFFID=R040009
##IDEAL CHEMISTRY=CaMgSi_2_O_6_
##LOCALITY=Otter Lake, Quebec, Canada
##OWNER=RRUFF
##SOURCE=University of Arizona Mineral Museum
##DESCRIPTION=Green square prismatic crystal associated with pale orange calcite
##STATUS=The identification of this mineral has been confirmed by X-ray diffraction and chemical analysis
##URL=rruff.info/R040009
##MEASURED CHEMISTRY=(Ca_0.97_Fe_0.02_Na_0.01_)_Σ=1_(Mg_0.97_Fe_0.02_Al_0.01_)_Σ=1_Si_2.00_O_6_; trace amounts of Mn and Ti
113.3126, 2739.261
113.7947, 2746.424
114.2769, 2751.870
114.7590, 2754.953
115.2411, 2757.111
115.7232, 2758.148
116.2053, 2758.469
116.6874, 2759.150
117.1695, 2761.410
117.6517, 2765.832
118.1338, 2769.239
118.6159, 2770.895
119.0980, 2772.009
119.5801, 2773.723
120.0622, 2776.304
120.5444, 2778.971
121.0265, 2780.306
121.5086, 2780.234
121.9907, 2780.851
122.4728, 2782.717
122.9549, 2785.696
123.4371, 2789.570
123.9192, 2794.629
124.4013, 2800.177
124.8834, 2805.286
125.3655, 2809.929
125.8476, 2814.587
126.3298, 2819.761
126.8119, 2825.478
127.2940, 2830.960
127.7761, 2835.329
128.2582, 2839.758
128.7404, 2844.562
129.2225, 2849.832
129.7046, 2856.398
130.1867, 2865.938
130.6688, 2879.942
131.1509, 2894.430
131.6331, 2909.227
132.1152, 2923.985
132.5973, 2938.078
133.0794, 2951.078
133.5615, 2963.810
134.0436, 2979.514
134.5258, 2997.819
135.0079, 3019.831
135.4900, 3046.358
135.9721, 3076.758
136.4542, 3110.995
136.9363, 3149.897
137.4184, 3192.723
137.9006, 3227.183
138.3827, 3261.044
138.8648, 3282.343
139.3469, 3284.945
139.8290, 3269.338
140.3111, 3239.530
140.7933, 3194.735
141.2754, 3135.987
141.7575, 3079.699
142.2396, 3025.187
142.7217, 2974.419
143.2038, 2929.672
143.6860, 2890.940
144.1681, 2858.364
144.6502, 2834.455
145.1323, 2816.906
145.6144, 2801.820
146.0965, 2787.446
146.5787, 2774.380
147.0608, 2764.844
147.5429, 2761.289
148.0250, 2758.207
148.5071, 2751.775
148.9892, 2743.028
149.4714, 2734.898
149.9535, 2729.622
150.4356, 2727.309
150.9177, 2726.302
151.3998, 2729.028
151.8819, 2731.182
152.3641, 2730.583
152.8462, 2727.515
153.3283, 2724.075
153.8104, 2722.791
154.2925, 2724.776
154.7746, 2725.891
155.2568, 2725.599
155.7389, 2725.034
156.2210, 2724.721
156.7031, 2724.841
157.1852, 2725.455
157.6673, 2726.759
158.1495, 2730.129
158.6316, 2731.648
159.1137, 2729.044
159.5958, 2725.630
160.0779, 2724.929
160.5600, 2728.184
161.0422, 2733.744
161.5243, 2738.348
162.0064, 2741.686
162.4885, 2744.964
162.9706, 2748.636
163.4527, 2752.413
163.9349, 2755.738
164.4170, 2758.396
164.8991, 2760.469
165.3812, 2762.464
165.8633, 2764.939
166.3454, 2766.025
166.8276, 2764.941
167.3097, 2761.692
167.7918, 2755.883
168.2739, 2745.112
168.7560, 2733.269
169.2381, 2724.810
169.7203, 2720.464
170.2024, 2718.645
170.6845, 2718.162
171.1666, 2719.195
171.6487, 2720.537
172.1308, 2721.821
172.6130, 2723.218
173.0951, 2724.903
173.5772, 2726.945
174.0593, 2729.179
174.5414, 2731.170
175.0235, 2732.235
175.5057, 2734.553
175.9878, 2738.639
176.4699, 2743.855
176.9520, 2749.710
177.4341, 2755.977
177.9162, 2762.676
178.3984, 2769.906
178.8805, 2776.616
179.3626, 2785.466
179.8447, 2799.489
180.3268, 2815.024
180.8089, 2828.727
181.2911, 2838.920
181.7732, 2844.862
182.2553, 2841.766
182.7374, 2822.190
183.2195, 2801.846
183.7016, 2781.563
184.1838, 2762.661
184.6659, 2746.959
185.1480, 2735.542
185.6301, 2728.295
186.1122, 2724.231
186.5943, 2725.126
187.0765, 2726.573
187.5586, 2726.734
188.0407, 2725.960
188.5228, 2725.612
189.0049, 2726.558
189.4870, 2728.762
189.9692, 2731.355
190.4513, 2734.620
190.9334, 2737.979
191.4155, 2740.447
191.8976, 2742.146
192.3797, 2745.280
192.8619, 2752.016
193.3440, 2761.294
193.8261, 2769.897
194.3082, 2779.459
194.7903, 2786.896
195.2724, 2788.718
195.7546, 2784.625
196.2367, 2777.070
196.7188, 2764.961
197.2009, 2750.737
197.6830, 2737.363
198.1651, 2725.146
198.6473, 2714.683
199.1294, 2707.309
199.6115, 2703.975
200.0936, 2701.525
200.5757, 2699.350
201.0578, 2696.863
201.5400, 2693.041
202.0221, 2686.868
202.5042, 2679.426
202.9863, 2673.716
203.4684, 2669.754
203.9505, 2667.832
204.4327, 2668.990
204.9148, 2671.634
205.3969, 2673.492
205.8790, 2673.105
206.3611, 2671.067
206.8432, 2670.432
207.3254, 2672.222
207.8075, 2674.372
208.2896, 2675.983
208.7717, 2677.705
209.2538, 2680.820
209.7359, 2686.356
210.2181, 2693.864
210.7002, 2698.875
211.1823, 2700.345
211.6644, 2700.200
212.1465, 2697.636
212.6286, 2693.773
213.1108, 2690.351
213.5929, 2688.542
214.0750, 2688.240
214.5571, 2687.911
215.0392, 2686.606
215.5213, 2686.259
216.0035, 2688.090
216.4856, 2691.353
216.9677, 2694.224
217.4498, 2695.315
217.9319, 2694.904
218.4140, 2697.082
218.8961, 2704.077
219.3783, 2710.752
219.8604, 2714.614
220.3425, 2716.397
220.8246, 2718.578
221.3067, 2722.820
221.7888, 2728.842
222.2710, 2734.365
222.7531, 2738.367
223.2352, 2742.856
223.7173, 2748.099
224.1994, 2754.405
224.6815, 2763.398
225.1637, 2776.912
225.6458, 2793.788
226.1279, 2808.808
226.6100, 2820.068
227.0921, 2831.368
227.5742, 2846.211
228.0564, 2864.106
228.5385, 2880.972
229.0206, 2896.382
229.5027, 2907.950
229.9848, 2911.814
230.4669, 2906.400
230.9491, 2895.042
231.4312, 2878.741
231.9133, 2857.435
232.3954, 2836.558
232.8775, 2818.688
233.3596, 2802.845
233.8418, 2787.858
234.3239, 2773.562
234.8060, 2759.803
235.2881, 2746.312
235.7702, 2733.060
236.2523, 2720.348
236.7345, 2708.044
237.2166, 2696.600
237.6987, 2686.406
238.1808, 2677.434
238.6629, 2670.225
239.1451, 2665.766
239.6272, 2664.393
240.1093, 2663.954
240.5914, 2664.940
241.0735, 2666.030
241.5556, 2666.346
242.0378, 2665.677
242.5199, 2664.234
243.0020, 2662.134
243.4841, 2659.193
243.9662, 2656.246
244.4483, 2651.844
244.9305, 2648.473
245.4126, 2648.482
245.8947, 2652.213
246.3768, 2657.073
246.8589, 2659.352
247.3410, 2657.969
247.8232, 2657.345
248.3053, 2657.994
248.7874, 2659.390
249.2695, 2661.253
249.7516, 2663.543
250.2337, 2666.413
250.7159, 2670.117
251.1980, 2674.867
251.6801, 2679.997
252.1622, 2687.173
252.6443, 2693.469
253.1264, 2697.008
253.6086, 2697.690
254.0907, 2696.898
254.5728, 2696.627
255.0549, 2698.268
255.5370, 2695.879
256.0191, 2688.302
256.5013, 2678.424
256.9834, 2666.383
257.4655, 2653.050
257.9476, 2640.680
258.4297, 2631.900
258.9118, 2627.598
259.3940, 2623.263
259.8761, 2618.393
260.3582, 2613.893
260.8403, 2610.531
261.3224, 2608.109
261.8045, 2605.567
262.2867, 2601.673
262.7688, 2595.898
263.2509, 2592.660
263.7330, 2593.558
264.2151, 2594.938
264.6972, 2595.534
265.1794, 2595.156
265.6615, 2593.840
266.1436, 2591.466
266.6257, 2587.952
267.1078, 2585.482
267.5899, 2584.761
268.0721, 2584.147
268.5542, 2582.972
269.0363, 2581.316
269.5184, 2579.405
270.0005, 2577.226
270.4826, 2574.910
270.9648, 2574.483
271.4469, 2577.624
271.9290, 2580.450
272.4111, 2581.474
272.8932, 2581.048
273.3753, 2580.075
273.8575, 2578.978
274.3396, 2577.817
274.8217, 2576.940
275.3038, 2576.594
275.7859, 2576.165
276.2680, 2575.319
276.7502, 2574.251
277.2323, 2573.251
277.7144, 2572.351
278.1965, 2571.796
278.6786, 2572.523
279.1607, 2575.121
279.6429, 2577.617
280.1250, 2579.800
280.6071, 2581.502
281.0892, 2582.035
281.5713, 2580.847
282.0534, 2579.337
282.5356, 2580.792
283.0177, 2586.271
283.4998, 2590.463
283.9819, 2591.021
284.4640, 2589.754
284.9461, 2589.460
285.4283, 2590.950
285.9104, 2593.207
286.3925, 2594.966
286.8746, 2596.278
287.3567, 2597.007
287.8388, 2595.755
288.3210, 2594.435
288.8031, 2596.128
289.2852, 2601.651
289.7673, 2607.746
290.2494, 2610.531
290.7315, 2610.238
291.2137, 2610.916
291.6958, 2612.862
292.1779, 2616.248
292.6600, 2621.745
293.1421, 2629.453
293.6242, 2637.502
294.1064, 2644.091
294.5885, 2649.639
295.0706, 2656.241
295.5527, 2665.246
296.0348, 2674.575
296.5169, 2681.604
296.9991, 2686.426
297.4812, 2692.789
297.9633, 2703.154
298.4454, 2716.983
298.9275, 2731.615
299.4096, 2747.285
299.8918, 2763.363
300.3739, 2778.665
300.8560, 2793.588
301.3381, 2811.374
301.8202, 2836.461
302.3023, 2862.855
302.7845, 2879.409
303.2666, 2883.363
303.7487, 2884.194
304.2308, 2885.732
304.7129, 2888.165
305.1950, 2892.446
305.6772, 2899.616
306.1593, 2907.786
306.6414, 2913.688
307.1235, 2916.942
307.6056, 2921.736
308.0877, 2930.254
308.5699, 2941.630
309.0520, 2953.791
309.5341, 2966.109
310.0162, 2979.708
310.4983, 2996.732
310.9804, 3016.684
311.4626, 3035.829
311.9447, 3052.403
312.4268, 3067.621
312.9089, 3082.940
313.3910, 3098.312
313.8731, 3115.185
314.3553, 3135.059
314.8374, 3157.519
315.3195, 3181.970
315.8016, 3207.743
316.2837, 3235.819
316.7658, 3266.815
317.2480, 3300.711
317.7301, 3338.116
318.2122, 3378.825
318.6943, 3424.216
319.1764, 3476.436
319.6585, 3539.507
320.1407, 3604.640
320.6228, 3666.281
321.1049, 3724.411
321.5870, 3780.712
322.0691, 3839.285
322.5512, 3892.305
323.0334, 3929.930
323.5155, 3953.148
323.9976, 3959.113
324.4797, 3946.108
324.9618, 3914.440
325.4439, 3863.521
325.9261, 3789.470
326.4082, 3702.405
326.8903, 3610.644
327.3724, 3514.421
327.8545, 3423.777
328.3366, 3343.551
328.8188, 3271.227
329.3009, 3201.568
329.7830, 3133.016
330.2651, 3070.340
330.7472, 3019.477
331.2293, 2979.073
331.7115, 2943.481
332.1936, 2911.964
332.6757, 2884.680
333.1578, 2862.707
333.6399, 2846.037
334.1220, 2831.122
334.6042, 2815.671
335.0863, 2800.174
335.5684, 2786.345
336.0505, 2774.448
336.5326, 2764.037
337.0147, 2754.422
337.4969, 2745.869
337.9790, 2739.710
338.4611, 2736.899
338.9432, 2736.585
339.4253, 2736.763
339.9074, 2737.456
340.3896, 2738.450
340.8717, 2740.024
341.3538, 2741.795
341.8359, 2742.885
342.3180, 2742.931
342.8001, 2742.652
343.2822, 2742.944
343.7643, 2743.732
344.2465, 2745.285
344.7286, 2746.570
345.2107, 2749.196
345.6928, 2755.522
346.1749, 2765.862
346.6570, 2777.557
347.1392, 2788.548
347.6213, 2798.742
348.1034, 2807.925
348.5855, 2813.312
349.0676, 2820.054
349.5497, 2832.924
350.0319, 2850.811
350.5140, 2867.712
350.9961, 2879.556
351.4782, 2887.993
351.9603, 2900.758
352.4424, 2920.829
352.9246, 2940.833
353.4067, 2958.771
353.8888, 2975.181
354.3709, 2991.148
354.8530, 3007.204
355.3351, 3022.460
355.8173, 3035.522
356.2994, 3048.517
356.7815, 3054.401
357.2636, 3050.828
357.7457, 3040.836
358.2278, 3025.990
358.7100, 3007.052
359.1921, 2986.315
359.6742, 2966.281
360.1563, 2946.932
360.6384, 2928.505
361.1205, 2910.116
361.6027, 2893.305
362.0848, 2878.032
362.5669, 2864.944
363.0490, 2855.665
363.5311, 2851.646
364.0132, 2852.283
364.4954, 2852.936
364.9775, 2851.822
365.4596, 2852.777
365.9417, 2857.863
366.4238, 2865.079
366.9059, 2872.126
367.3881, 2878.082
367.8702, 2882.641
368.3523, 2885.208
368.8344, 2885.344
369.3165, 2883.865
369.7986, 2880.435
370.2808, 2875.770
370.7629, 2869.660
371.2450, 2862.508
371.7271, 2855.790
372.2092, 2851.069
372.6913, 2848.378
373.1735, 2847.411
373.6556, 2849.609
374.1377, 2851.994
374.6198, 2852.879
375.1019, 2853.162
375.5840, 2854.743
376.0662, 2858.844
376.5483, 2865.191
377.0304, 2872.339
377.5125, 2879.297
377.9946, 2888.735
378.4767, 2901.530
378.9589, 2916.470
379.4410, 2932.601
379.9231, 2949.557
380.4052, 2967.055
380.8873, 2983.994
381.3694, 2998.568
381.8516, 3018.521
382.3337, 3047.259
382.8158, 3079.193
383.2979, 3111.735
383.7800, 3144.849
384.2621, 3179.836
384.7443, 3217.644
385.2264, 3258.148
385.7085, 3301.677
386.1906, 3348.544
386.6727, 3398.501
387.1548, 3453.581
387.6370, 3510.655
388.1191, 3565.705
388.6012, 3619.014
389.0833, 3665.999
389.5654, 3700.040
390.0475, 3722.429
390.5297, 3725.946
391.0118, 3702.742
391.4939, 3661.515
391.9760, 3605.792
392.4581, 3535.882
392.9402, 3458.599
393.4224, 3375.977
393.9045, 3289.379
394.3866, 3206.915
394.8687, 3128.848
395.3508, 3056.900
395.8329, 2991.998
396.3151, 2933.597
396.7972, 2881.015
397.2793, 2834.310
397.7614, 2793.207
398.2435, 2757.742
398.7256, 2728.337
399.2078, 2701.331
399.6899, 2674.788
400.1720, 2649.887
400.6541, 2628.534
401.1362, 2611.850
401.6183, 2596.966
402.1005, 2582.138
402.5826, 2567.872
403.0647, 2555.603
403.5468, 2545.983
404.0289, 2538.042
404.5110, 2530.614
404.9932, 2523.688
405.4753, 2516.987
405.9574, 2509.679
406.4395, 2503.064
406.9216, 2498.672
407.4037, 2496.492
407.8859, 2495.284
408.3680, 2494.426
408.8501, 2493.756
409.3322, 2491.547
409.8143, 2486.511
410.2964, 2481.604
410.7786, 2477.855
411.2607, 2474.947
411.7428, 2472.301
412.2249, 2469.708
412.7070, 2467.157
413.1891, 2464.608
413.6713, 2461.961
414.1534, 2459.574
414.6355, 2456.676
415.1176, 2454.595
415.5997, 2455.411
416.0818, 2458.508
416.5640, 2460.495
417.0461, 2457.921
417.5282, 2450.691
418.0103, 2446.277
418.4924, 2447.560
418.9745, 2448.621
419.4567, 2448.134
419.9388, 2446.653
420.4209, 2445.015
420.9030, 2443.606
421.3851, 2442.258
421.8672, 2440.382
422.3494, 2437.014
422.8315, 2435.637
423.3136, 2438.300
423.7957, 2441.583
424.2778, 2443.897
424.7599, 2444.934
425.2421, 2444.697
425.7242, 2442.657
426.2063, 2439.080
426.6884, 2436.683
427.1705, 2436.099
427.6526, 2435.682
428.1348, 2434.902
428.6169, 2433.768
429.0990, 2432.205
429.5811, 2430.063
430.0632, 2427.809
430.5453, 2425.948
431.0275, 2424.480
431.5096, 2423.450
431.9917, 2422.723
432.4738, 2422.670
432.9559, 2423.641
433.4380, 2425.628
433.9202, 2427.925
434.4023, 2430.837
434.8844, 2433.650
435.3665, 2435.026
435.8486, 2434.794
436.3307, 2433.548
436.8129, 2431.052
437.2950, 2427.859
437.7771, 2426.210
438.2592, 2427.805
438.7413, 2429.163
439.2234, 2427.924
439.7056, 2425.011
440.1877, 2422.956
440.6698, 2422.875
441.1519, 2423.038
441.6340, 2420.201
442.1161, 2412.386
442.5983, 2407.556
443.0804, 2408.213
443.5625, 2410.401
444.0446, 2411.147
444.5267, 2410.452
445.0089, 2410.175
445.4910, 2411.951
445.9731, 2415.356
446.4552, 2416.237
446.9373, 2411.698
447.4194, 2408.074
447.9016, 2406.753
448.3837, 2406.582
448.8658, 2406.140
449.3479, 2405.042
449.8300, 2404.120
450.3121, 2404.880
450.7943, 2408.192
451.2764, 2409.902
451.7585, 2408.348
452.2406, 2406.704
452.7227, 2406.118
453.2048, 2406.414
453.6870, 2406.973
454.1691, 2407.452
454.6512, 2407.923
455.1333, 2408.751
455.6154, 2410.304
456.0975, 2411.091
456.5797, 2409.545
457.0618, 2407.693
457.5439, 2407.153
458.0260, 2408.151
458.5081, 2409.591
458.9902, 2410.910
459.4724, 2412.028
459.9545, 2412.421
460.4366, 2411.602
460.9187, 2411.270
461.4008, 2413.176
461.8829, 2416.582
462.3651, 2419.796
462.8472, 2423.416
463.3293, 2425.859
463.8114, 2424.974
464.2935, 2421.708
464.7756, 2419.684
465.2578, 2420.498
465.7399, 2422.454
466.2220, 2422.805
466.7041, 2421.469
467.1862, 2419.050
467.6683, 2414.831
468.1505, 2410.088
468.6326, 2405.740
469.1147, 2401.856
469.5968, 2398.202
470.0789, 2394.534
470.5610, 2390.963
471.0432, 2388.332
471.5253, 2387.898
472.0074, 2386.836
472.4895, 2384.719
472.9716, 2381.902
473.4537, 2378.074
473.9359, 2373.504
474.4180, 2369.939
474.9001, 2369.972
475.3822, 2374.242
475.8643, 2376.846
476.3464, 2377.018
476.8286, 2376.191
477.3107, 2374.223
477.7928, 2371.717
478.2749, 2369.592
478.7570, 2368.298
479.2391, 2367.395
479.7213, 2366.012
480.2034, 2364.004
480.6855, 2362.756
481.1676, 2363.293
481.6497, 2363.979
482.1318, 2363.292
482.6140, 2361.391
483.0961, 2359.714
483.5782, 2358.553
484.0603, 2358.192
484.5424, 2359.683
485.0245, 2363.133
485.5067, 2365.772
485.9888, 2366.013
486.4709, 2364.418
486.9530, 2362.551
487.4351, 2360.106
487.9172, 2358.087
488.3994, 2357.248
488.8815, 2356.862
489.3636, 2355.853
489.8457, 2354.047
490.3278, 2352.133
490.8099, 2350.641
491.2921, 2349.553
491.7742, 2349.614
492.2563, 2352.640
492.7384, 2354.548
493.2205, 2352.966
493.7026, 2349.879
494.1848, 2348.052
494.6669, 2348.528
495.1490, 2350.409
495.6311, 2352.638
496.1132, 2355.903
496.5953, 2357.236
497.0775, 2354.035
497.5596, 2351.338
498.0417, 2352.005
498.5238, 2354.701
499.0059, 2356.165
499.4880, 2354.283
499.9702, 2350.977
500.4523, 2350.345
500.9344, 2352.863
501.4165, 2355.024
501.8986, 2356.175
502.3807, 2356.247
502.8629, 2354.546
503.3450, 2351.220
503.8271, 2349.103
504.3092, 2350.475
504.7913, 2353.492
505.2734, 2354.975
505.7556, 2354.776
506.2377, 2355.500
506.7198, 2359.043
507.2019, 2364.397
507.6840, 2368.368
508.1661, 2370.630
508.6482, 2372.390
509.1303, 2373.136
509.6125, 2373.982
510.0946, 2376.690
510.5767, 2381.300
511.0588, 2385.685
511.5409, 2387.681
512.0231, 2387.311
512.5052, 2388.670
512.9873, 2393.612
513.4694, 2398.084
513.9515, 2401.640
514.4337, 2404.151
514.9158, 2405.294
515.3979, 2405.057
515.8800, 2404.157
516.3621, 2403.539
516.8442, 2403.279
517.3264, 2402.398
517.8085, 2400.074
518.2906, 2398.195
518.7727, 2398.806
519.2548, 2400.120
519.7369, 2398.797
520.2191, 2392.929
520.7012, 2386.110
521.1833, 2382.004
521.6654, 2380.460
522.1475, 2380.473
522.6296, 2382.211
523.1118, 2384.640
523.5939, 2386.458
524.0760, 2387.805
524.5581, 2390.099
525.0402, 2394.231
525.5223, 2398.797
526.0045, 2402.959
526.4866, 2406.724
526.9687, 2410.284
527.4508, 2413.709
527.9329, 2416.947
528.4150, 2419.934
528.8972, 2422.915
529.3793, 2424.944
529.8614, 2426.648
530.3435, 2426.905
530.8256, 2425.005
531.3077, 2421.129
531.7899, 2415.555
532.2720, 2408.270
532.7541, 2400.155
533.2362, 2393.677
533.7183, 2389.583
534.2004, 2384.922
534.6826, 2378.864
535.1647, 2372.331
535.6468, 2365.169
536.1289, 2357.788
536.6110, 2351.883
537.0931, 2349.203
537.5753, 2348.277
538.0574, 2346.226
538.5395, 2342.964
539.0216, 2340.394
539.5037, 2339.234
539.9858, 2339.313
540.4680, 2340.812
540.9501, 2344.290
541.4322, 2345.990
541.9143, 2343.065
542.3964, 2339.077
542.8785, 2337.666
543.3607, 2338.800
543.8428, 2340.450
544.3249, 2341.334
544.8070, 2341.758
545.2891, 2342.863
545.7712, 2345.874
546.2534, 2347.862
546.7355, 2348.302
547.2176, 2348.036
547.6997, 2347.393
548.1818, 2346.590
548.6639, 2345.884
549.1461, 2345.253
549.6282, 2345.029
550.1103, 2346.887
550.5924, 2351.691
551.0745, 2356.299
551.5566, 2360.288
552.0388, 2363.362
552.5209, 2364.437
553.0030, 2363.589
553.4851, 2364.062
553.9672, 2368.137
554.4493, 2374.635
554.9315, 2382.312
555.4136, 2391.120
555.8957, 2398.063
556.3778, 2400.909
556.8599, 2401.247
557.3420, 2403.511
557.8242, 2409.107
558.3063, 2413.030
558.7884, 2414.496
559.2705, 2413.768
559.7526, 2410.504
560.2347, 2405.085
560.7169, 2398.690
561.1990, 2392.096
561.6811, 2385.387
562.1632, 2379.194
562.6453, 2374.912
563.1274, 2368.616
563.6096, 2357.896
564.0917, 2346.823
564.5738, 2338.446
565.0559, 2332.683
565.5380, 2327.320
566.0201, 2320.479
566.5023, 2313.061
566.9844, 2307.607
567.4665, 2304.358
567.9486, 2301.490
568.4307, 2298.521
568.9128, 2295.497
569.3950, 2292.305
569.8771, 2288.865
570.3592, 2286.225
570.8413, 2285.121
571.3234, 2284.727
571.8055, 2284.644
572.2877, 2284.607
572.7698, 2283.617
573.2519, 2281.031
573.7340, 2277.426
574.2161, 2274.248
574.6982, 2270.854
575.1804, 2269.083
575.6625, 2270.594
576.1446, 2272.137
576.6267, 2271.735
577.1088, 2269.638
577.5909, 2266.894
578.0731, 2263.986
578.5552, 2261.222
579.0373, 2259.214
579.5194, 2257.931
580.0015, 2257.682
580.4836, 2259.971
580.9658, 2261.788
581.4479, 2260.257
581.9300, 2256.166
582.4121, 2252.969
582.8942, 2252.121
583.3763, 2252.544
583.8585, 2254.128
584.3406, 2256.281
584.8227, 2256.492
585.3048, 2253.704
585.7869, 2249.675
586.2690, 2246.596
586.7512, 2244.428
587.2333, 2243.842
587.7154, 2245.872
588.1975, 2248.259
588.6796, 2250.946
589.1617, 2253.089
589.6438, 2253.151
590.1259, 2250.655
590.6080, 2247.306
591.0901, 2245.797
591.5723, 2246.445
592.0544, 2245.629
592.5365, 2242.312
593.0186, 2238.935
593.5007, 2235.788
593.9828, 2233.555
594.4650, 2233.740
594.9471, 2237.385
595.4292, 2240.771
595.9113, 2240.447
596.3934, 2237.842
596.8755, 2236.469
597.3577, 2236.905
597.8398, 2237.277
598.3219, 2236.019
598.8040, 2233.465
599.2861, 2231.844
599.7682, 2231.271
600.2504, 2231.363
600.7325, 2232.853
601.2146, 2234.498
601.6967, 2235.111
602.1788, 2234.641
602.6609, 2233.792
603.1431, 2233.108
603.6252, 2232.511
604.1073, 2231.535
604.5894, 2229.729
605.0715, 2228.712
605.5536, 2230.207
606.0358, 2231.618
606.5179, 2230.511
607.0000, 2227.164
607.4821, 2224.559
607.9642, 2225.058
608.4464, 2226.437
608.9285, 2225.709
609.4106, 2223.226
609.8927, 2221.217
610.3748, 2220.553
610.8569, 2220.681
611.3391, 2220.877
611.8212, 2221.260
612.3033, 2221.187
612.7854, 2220.230
613.2675, 2219.305
613.7496, 2218.926
614.2318, 2218.830
614.7139, 2218.391
615.1960, 2217.417
615.6781, 2216.645
616.1602, 2217.310
616.6423, 2219.505
617.1245, 2221.102
617.6066, 2222.237
618.0887, 2222.450
618.5708, 2220.197
619.0529, 2217.379
619.5350, 2217.066
620.0172, 2220.475
620.4993, 2223.232
620.9814, 2221.973
621.4635, 2218.861
621.9456, 2217.281
622.4277, 2217.522
622.9099, 2218.199
623.3920, 2218.471
623.8741, 2218.432
624.3562, 2218.395
624.8383, 2218.135
625.3204, 2218.237
625.8026, 2218.611
626.2847, 2219.414
626.7668, 2220.984
627.2489, 2223.074
627.7310, 2225.213
628.2131, 2227.334
628.6953, 2228.762
629.1774, 2227.612
629.6595, 2223.727
630.1416, 2221.534
630.6237, 2222.033
631.1058, 2224.063
631.5880, 2228.080
632.0701, 2233.057
632.5522, 2235.349
633.0343, 2231.854
633.5164, 2228.618
633.9985, 2229.291
634.4807, 2231.923
634.9628, 2233.343
635.4449, 2233.014
635.9270, 2232.781
636.4091, 2234.407
636.8912, 2237.692
637.3734, 2240.359
637.8555, 2242.046
638.3376, 2243.693
638.8197, 2245.916
639.3018, 2247.827
639.7839, 2248.212
640.2661, 2247.395
640.7482, 2247.405
641.2303, 2249.750
641.7124, 2253.402
642.1945, 2256.755
642.6766, 2259.858
643.1588, 2263.229
643.6409, 2266.848
644.1230, 2271.264
644.6051, 2277.225
645.0872, 2284.905
645.5693, 2293.138
646.0515, 2301.862
646.5336, 2311.212
647.0157, 2321.268
647.4978, 2331.976
647.9799, 2343.334
648.4620, 2355.330
648.9442, 2367.762
649.4263, 2380.720
649.9084, 2394.115
650.3905, 2406.052
650.8726, 2415.617
651.3547, 2426.302
651.8369, 2440.025
652.3190, 2455.108
652.8011, 2469.433
653.2832, 2482.953
653.7653, 2497.932
654.2474, 2516.742
654.7296, 2536.271
655.2117, 2552.866
655.6938, 2567.608
656.1759, 2583.873
656.6580, 2602.987
657.1401, 2624.115
657.6223, 2645.793
658.1044, 2667.397
658.5865, 2693.280
659.0686, 2725.854
659.5507, 2760.267
660.0328, 2794.716
660.5150, 2830.477
660.9971, 2869.684
661.4792, 2912.390
661.9613, 2955.797
662.4434, 2998.171
662.9255, 3039.141
663.4077, 3078.078
663.8898, 3114.893
664.3719, 3147.818
664.8540, 3177.522
665.3361, 3200.552
665.8182, 3210.990
666.3004, 3207.624
666.7825, 3194.122
667.2646, 3170.543
667.7467, 3136.821
668.2288, 3089.275
668.7109, 3032.775
669.1931, 2973.707
669.6752, 2914.246
670.1573, 2855.138
670.6394, 2797.040
671.1215, 2739.963
671.6036, 2685.087
672.0858, 2632.109
672.5679, 2583.097
673.0500, 2538.827
673.5321, 2499.721
674.0142, 2465.871
674.4963, 2437.368
674.9785, 2412.638
675.4606, 2393.238
675.9427, 2375.822
676.4248, 2358.239
676.9069, 2340.418
677.3890, 2322.074
677.8712, 2303.060
678.3533, 2285.621
678.8354, 2273.488
679.3175, 2267.327
679.7996, 2259.835
680.2817, 2249.028
680.7639, 2239.891
681.2460, 2235.691
681.7281, 2233.060
682.2102, 2228.482
682.6923, 2221.433
683.1744, 2213.042
683.6566, 2201.863
684.1387, 2190.969
684.6208, 2184.459
685.1029, 2181.907
685.5850, 2180.788
686.0671, 2180.222
686.5493, 2179.581
687.0314, 2177.918
687.5135, 2175.176
687.9956, 2171.780
688.4777, 2166.577
688.9598, 2162.070
689.4420, 2158.614
689.9241, 2156.306
690.4062, 2155.554
690.8883, 2156.310
691.3704, 2157.337
691.8525, 2158.225
692.3347, 2158.545
692.8168, 2157.022
693.2989, 2153.787
693.7810, 2151.116
694.2631, 2149.885
694.7452, 2149.507
695.2274, 2149.334
695.7095, 2149.536
696.1916, 2148.835
696.6737, 2146.564
697.1558, 2144.303
697.6379, 2142.295
698.1201, 2140.721
698.6022, 2140.203
699.0843, 2140.584
699.5664, 2140.243
700.0485, 2136.933
700.5306, 2132.352
701.0128, 2131.335
701.4949, 2133.990
701.9770, 2137.121
702.4591, 2140.077
702.9412, 2142.433
703.4233, 2143.824
703.9055, 2144.199
704.3876, 2142.935
704.8697, 2138.088
705.3518, 2133.888
705.8339, 2132.296
706.3160, 2131.849
706.7982, 2131.152
707.2803, 2129.825
707.7624, 2127.724
708.2445, 2124.392
708.7266, 2120.634
709.2087, 2119.384
709.6909, 2121.061
710.1730, 2120.396
710.6551, 2114.772
711.1372, 2108.806
711.6193, 2107.462
712.1014, 2109.840
712.5836, 2110.598
713.0657, 2108.085
713.5478, 2105.540
714.0299, 2104.089
714.5120, 2103.118
714.9941, 2102.562
715.4763, 2101.938
715.9584, 2099.462
716.4405, 2093.469
716.9226, 2086.390
717.4047, 2084.590
717.8868, 2088.708
718.3690, 2091.950
718.8511, 2093.629
719.3332, 2093.807
719.8153, 2091.171
720.2974, 2087.194
720.7795, 2085.690
721.2617, 2088.177
721.7438, 2090.565
722.2259, 2091.529
722.7080, 2091.733
723.1901, 2092.222
723.6722, 2092.573
724.1544, 2090.879
724.6365, 2086.043
725.1186, 2080.417
725.6007, 2078.847
726.0828, 2081.854
726.5649, 2081.210
727.0471, 2074.418
727.5292, 2068.452
728.0113, 2067.867
728.4934, 2069.867
728.9755, 2069.920
729.4576, 2067.409
729.9398, 2065.229
730.4219, 2064.601
730.9040, 2064.255
731.3861, 2062.822
731.8682, 2060.945
732.3503, 2060.080
732.8325, 2060.742
733.3146, 2062.461
733.7967, 2065.116
734.2788, 2068.539
734.7609, 2069.973
735.2430, 2069.074
735.7252, 2067.156
736.2073, 2063.688
736.6894, 2060.250
737.1715, 2059.025
737.6536, 2059.898
738.1357, 2059.824
738.6179, 2057.136
739.1000, 2054.477
739.5821, 2053.327
740.0642, 2053.064
740.5463, 2052.757
741.0284, 2052.235
741.5106, 2052.004
741.9927, 2052.702
742.4748, 2053.687
742.9569, 2052.355
743.4390, 2048.092
743.9211, 2045.468
744.4033, 2046.307
744.8854, 2047.524
745.3675, 2046.145
745.8496, 2043.062
746.3317, 2041.243
746.8138, 2041.580
747.2960, 2042.158
747.7781, 2042.766
748.2602, 2043.087
748.7423, 2042.549
749.2244, 2041.439
749.7065, 2040.578
750.1887, 2040.373
750.6708, 2040.833
751.1529, 2042.345
751.6350, 2044.849
752.1171, 2046.381
752.5992, 2046.761
753.0814, 2046.347
753.5635, 2045.111
754.0456, 2043.302
754.5277, 2041.352
755.0098, 2039.199
755.4919, 2037.164
755.9741, 2034.978
756.4562, 2033.210
756.9383, 2032.040
757.4204, 2031.531
757.9025, 2032.026
758.3846, 2033.466
758.8668, 2034.898
759.3489, 2035.723
759.8310, 2035.742
760.3131, 2033.484
760.7952, 2028.864
761.2773, 2027.078
761.7595, 2030.731
762.2416, 2034.932
762.7237, 2034.270
763.2058, 2028.912
763.6879, 2025.618
764.1700, 2024.823
764.6522, 2025.298
765.1343, 2028.344
765.6164, 2031.386
766.0985, 2032.257
766.5806, 2031.223
767.0627, 2029.673
767.5449, 2028.179
768.0270, 2026.910
768.5091, 2026.203
768.9912, 2025.912
769.4733, 2025.388
769.9554, 2024.555
770.4376, 2024.220
770.9197, 2024.862
771.4018, 2026.311
771.8839, 2028.378
772.3660, 2032.160
772.8481, 2033.399
773.3303, 2029.588
773.8124, 2026.251
774.2945, 2025.895
774.7766, 2026.690
775.2587, 2026.277
775.7408, 2024.286
776.2230, 2022.205
776.7051, 2020.837
777.1872, 2019.920
777.6693, 2019.018
778.1514, 2018.293
778.6335, 2018.366
779.1157, 2019.391
779.5978, 2020.810
780.0799, 2022.233
780.5620, 2023.498
781.0441, 2023.401
781.5262, 2021.166
782.0084, 2019.409
782.4905, 2018.662
782.9726, 2018.338
783.4547, 2018.146
783.9368, 2018.077
784.4189, 2018.240
784.9011, 2019.086
785.3832, 2019.083
785.8653, 2016.279
786.3474, 2013.139
786.8295, 2013.029
787.3116, 2014.986
787.7938, 2015.347
788.2759, 2012.510
788.7580, 2008.555
789.2401, 2006.461
789.7222, 2006.133
790.2043, 2005.195
790.6865, 2003.160
791.1686, 2002.631
791.6507, 2005.288
792.1328, 2009.096
792.6149, 2011.165
793.0970, 2011.463
793.5792, 2013.489
794.0613, 2020.681
794.5434, 2025.546
795.0255, 2024.205
795.5076, 2020.523
795.9897, 2017.900
796.4719, 2016.711
796.9540, 2016.070
797.4361, 2015.591
797.9182, 2015.070
798.4003, 2014.397
798.8824, 2013.457
799.3646, 2011.610
799.8467, 2008.755
800.3288, 2005.820
800.8109, 2003.168
801.2930, 2001.060
801.7751, 2000.157
802.2573, 2000.978
802.7394, 2001.225
803.2215, 1999.142
803.7036, 1998.534
804.1857, 2003.013
804.6678, 2007.930
805.1500, 2007.112
805.6321, 2000.462
806.1142, 1995.322
806.5963, 1996.358
807.0784, 1999.167
807.5605, 2000.518
808.0427, 2000.813
808.5248, 2000.864
809.0069, 2000.812
809.4890, 2000.132
809.9711, 1998.284
810.4532, 1996.052
810.9354, 1995.651
811.4175, 1997.326
811.8996, 1999.044
812.3817, 2000.761
812.8638, 2002.231
813.3459, 2003.562
813.8281, 2004.431
814.3102, 2004.152
814.7923, 2002.521
815.2744, 2000.574
815.7565, 1997.611
816.2386, 1995.225
816.7208, 1994.415
817.2029, 1994.576
817.6850, 1994.918
818.1671, 1995.262
818.6492, 1995.852
819.1313, 1997.059
819.6135, 1998.401
820.0956, 1999.221
820.5777, 1999.496
821.0598, 1998.933
821.5419, 1997.452
822.0240, 1995.941
822.5062, 1995.023
822.9883, 1994.619
823.4704, 1994.432
823.9525, 1994.271
824.4346, 1994.851
824.9167, 1997.317
825.3989, 1999.148
825.8810, 1999.016
826.3631, 1997.864
826.8452, 1996.904
827.3273, 1996.295
827.8094, 1995.642
828.2916, 1995.318
828.7737, 1994.390
829.2558, 1991.579
829.7379, 1987.967
830.2200, 1985.146
830.7021, 1983.479
831.1843, 1982.724
831.6664, 1982.796
832.1485, 1983.418
832.6306, 1983.901
833.1127, 1984.272
833.5948, 1985.404
834.0770, 1987.621
834.5591, 1989.500
835.0412, 1990.200
835.5233, 1989.872
836.0054, 1988.731
836.4875, 1985.947
836.9697, 1984.667
837.4518, 1985.834
837.9339, 1987.211
838.4160, 1987.722
838.8981, 1988.280
839.3802, 1990.440
839.8624, 1994.025
840.3445, 1996.471
840.8266, 1995.755
841.3087, 1994.346
841.7908, 1994.202
842.2729, 1994.845
842.7551, 1995.017
843.2372, 1994.928
843.7193, 1996.849
844.2014, 2002.417
844.6835, 2009.055
845.1656, 2011.845
845.6478, 2010.776
846.1299, 2008.957
846.6120, 2006.134
847.0941, 2004.010
847.5762, 2003.256
848.0583, 2003.609
848.5405, 2004.682
849.0226, 2006.438
849.5047, 2009.278
849.9868, 2014.537
850.4689, 2019.027
850.9510, 2022.293
851.4332, 2024.285
851.9153, 2023.959
852.3974, 2022.353
852.8795, 2022.482
853.3616, 2025.987
853.8438, 2029.918
854.3259, 2032.524
854.8080, 2033.804
855.2901, 2033.486
855.7722, 2031.804
856.2543, 2029.608
856.7365, 2027.231
857.2186, 2024.198
857.7007, 2019.645
858.1828, 2013.873
858.6649, 2009.075
859.1470, 2005.201
859.6292, 2002.719
860.1113, 2002.401
860.5934, 2002.089
861.0755, 1999.619
861.5576, 1995.571
862.0397, 1992.975
862.5219, 1994.282
863.0040, 1992.909
863.4861, 1984.647
863.9682, 1977.834
864.4503, 1977.864
864.9324, 1981.572
865.4146, 1983.948
865.8967, 1983.974
866.3788, 1984.543
866.8609, 1988.996
867.3430, 1993.203
867.8251, 1992.561
868.3073, 1988.890
868.7894, 1985.760
869.2715, 1983.777
869.7536, 1981.613
870.2357, 1978.232
870.7178, 1974.472
871.2000, 1972.105
871.6821, 1971.102
872.1642, 1970.225
872.6463, 1969.377
873.1284, 1968.768
873.6105, 1968.668
874.0927, 1968.579
874.5748, 1967.654
875.0569, 1965.747
875.5390, 1964.302
876.0211, 1964.092
876.5032, 1963.327
876.9854, 1960.651
877.4675, 1958.264
877.9496, 1958.273
878.4317, 1959.971
878.9138, 1961.077
879.3959, 1960.985
879.8781, 1960.205
880.3602, 1958.461
880.8423, 1956.590
881.3244, 1955.875
881.8065, 1955.585
882.2886, 1953.440
882.7708, 1949.048
883.2529, 1945.625
883.7350, 1947.123
884.2171, 1950.815
884.6992, 1949.241
885.1813, 1943.333
885.6635, 1941.138
886.1456, 1944.372
886.6277, 1947.689
887.1098, 1947.049
887.5919, 1944.607
888.0740, 1946.341
888.5562, 1954.211
889.0383, 1958.745
889.5204, 1958.919
890.0025, 1957.418
890.4846, 1954.961
890.9667, 1951.407
891.4489, 1945.717
891.9310, 1938.209
892.4131, 1933.107
892.8952, 1932.189
893.3773, 1932.239
893.8594, 1932.892
894.3416, 1933.623
894.8237, 1934.355
895.3058, 1934.753
895.7879, 1933.851
896.2700, 1931.251
896.7521, 1929.272
897.2343, 1930.867
897.7164, 1933.461
898.1985, 1933.156
898.6806, 1930.726
899.1627, 1928.422
899.6448, 1926.906
900.1270, 1926.240
900.6091, 1926.563
901.0912, 1927.580
901.5733, 1928.664
902.0554, 1929.826
902.5375, 1930.515
903.0197, 1930.726
903.5018, 1930.168
903.9839, 1928.457
904.4660, 1926.297
904.9481, 1924.882
905.4302, 1924.346
905.9124, 1923.192
906.3945, 1920.035
906.8766, 1918.276
907.3587, 1919.682
907.8408, 1921.480
908.3229, 1921.284
908.8051, 1919.981
909.2872, 1920.164
909.7693, 1922.688
910.2514, 1925.486
910.7335, 1929.005
911.2156, 1931.315
911.6978, 1930.166
912.1799, 1927.215
912.6620, 1924.896
913.1441, 1923.781
913.6262, 1923.502
914.1083, 1924.357
914.5905, 1924.978
915.0726, 1923.268
915.5547, 1920.004
916.0368, 1916.648
916.5189, 1913.588
917.0010, 1911.781
917.4832, 1911.762
917.9652, 1912.361
918.4473, 1911.744
918.9294, 1910.098
919.4116, 1909.522
919.8937, 1910.119
920.3758, 1911.130
920.8579, 1912.560
921.3400, 1913.838
921.8221, 1914.692
922.3043, 1914.930
922.7864, 1913.811
923.2685, 1910.678
923.7506, 1907.611
924.2327, 1904.517
924.7148, 1901.581
925.1970, 1897.943
925.6791, 1895.093
926.1612, 1895.832
926.6433, 1899.705
927.1254, 1900.677
927.6075, 1895.068
928.0897, 1889.314
928.5718, 1884.879
929.0539, 1882.082
929.5360, 1881.911
930.0181, 1883.438
930.5002, 1884.856
930.9824, 1885.581
931.4645, 1886.009
931.9466, 1886.803
932.4287, 1887.180
932.9108, 1885.787
933.3929, 1883.277
933.8751, 1880.691
934.3572, 1878.485
934.8393, 1878.142
935.3214, 1880.868
935.8035, 1884.081
936.2856, 1882.568
936.7678, 1877.180
937.2499, 1873.866
937.7320, 1872.848
938.2141, 1874.684
938.6962, 1880.127
939.1783, 1885.493
939.6605, 1886.841
940.1426, 1884.686
940.6247, 1881.783
941.1068, 1877.192
941.5889, 1874.954
942.0710, 1877.112
942.5532, 1878.682
943.0353, 1876.249
943.5174, 1872.329
943.9995, 1871.353
944.4816, 1873.676
944.9637, 1874.356
945.4459, 1871.287
945.9280, 1869.176
946.4101, 1869.947
946.8922, 1871.214
947.3743, 1871.435
947.8564, 1870.692
948.3386, 1869.112
948.8207, 1866.394
949.3028, 1865.153
949.7849, 1868.139
950.2670, 1871.408
950.7491, 1871.814
951.2313, 1870.801
951.7134, 1870.869
952.1955, 1871.969
952.6776, 1871.761
953.1597, 1868.523
953.6418, 1865.396
954.1240, 1866.361
954.6061, 1869.528
955.0882, 1871.621
955.5703, 1872.684
956.0524, 1873.951
956.5345, 1875.761
957.0167, 1877.160
957.4988, 1877.206
957.9809, 1876.337
958.4630, 1875.713
958.9451, 1875.285
959.4272, 1873.797
959.9094, 1870.964
960.3915, 1870.215
960.8736, 1873.481
961.3557, 1878.677
961.8378, 1883.192
962.3199, 1886.971
962.8021, 1887.641
963.2842, 1883.980
963.7663, 1880.974
964.2484, 1878.800
964.7305, 1878.727
965.2126, 1882.960
965.6948, 1889.068
966.1769, 1891.317
966.6590, 1888.420
967.1411, 1886.691
967.6232, 1886.277
968.1053, 1886.787
968.5875, 1887.755
969.0696, 1889.942
969.5517, 1895.405
970.0338, 1902.471
970.5159, 1906.360
970.9980, 1905.570
971.4802, 1903.708
971.9623, 1900.576
972.4444, 1898.012
972.9265, 1897.244
973.4086, 1897.531
973.8907, 1898.302
974.3729, 1899.201
974.8550, 1899.339
975.3371, 1897.872
975.8192, 1896.768
976.3013, 1897.749
976.7834, 1899.627
977.2656, 1901.941
977.7477, 1903.836
978.2298, 1903.189
978.7119, 1899.886
979.1940, 1896.971
979.6761, 1896.803
980.1583, 1897.984
980.6404, 1899.005
981.1225, 1899.651
981.6046, 1898.616
982.0867, 1896.432
982.5688, 1896.392
983.0510, 1899.788
983.5331, 1904.099
984.0152, 1906.181
984.4973, 1907.365
984.9794, 1913.318
985.4615, 1923.387
985.9437, 1928.065
986.4258, 1925.782
986.9079, 1923.315
987.3900, 1924.201
987.8721, 1927.171
988.3542, 1930.395
988.8364, 1933.855
989.3185, 1937.063
989.8006, 1939.477
990.2827, 1944.324
990.7648, 1952.775
991.2469, 1962.318
991.7291, 1971.510
992.2112, 1980.557
992.6933, 1989.928
993.1754, 1999.661
993.6575, 2009.224
994.1396, 2016.086
994.6218, 2027.347
995.1039, 2046.150
995.5860, 2068.105
996.0681, 2089.422
996.5502, 2111.342
997.0323, 2137.893
997.5145, 2171.352
997.9966, 2202.416
998.4787, 2228.388
998.9608, 2254.555
999.4429, 2283.188
999.9250, 2312.225
1000.407, 2339.316
1000.889, 2365.197
1001.371, 2392.529
1001.854, 2422.630
1002.336, 2452.421
1002.818, 2478.861
1003.300, 2507.301
1003.782, 2539.519
1004.264, 2576.387
1004.746, 2618.465
1005.228, 2665.663
1005.710, 2717.426
1006.193, 2774.324
1006.675, 2833.953
1007.157, 2893.139
1007.639, 2955.781
1008.121, 3025.645
1008.603, 3101.606
1009.085, 3180.836
1009.567, 3262.845
1010.049, 3349.126
1010.532, 3443.750
1011.014, 3533.194
1011.496, 3612.780
1011.978, 3673.764
1012.460, 3705.545
1012.942, 3707.355
1013.424, 3678.945
1013.906, 3620.724
1014.389, 3532.613
1014.871, 3410.621
1015.353, 3270.462
1015.835, 3128.291
1016.317, 2987.166
1016.799, 2856.402
1017.281, 2736.520
1017.763, 2625.012
1018.245, 2521.635
1018.728, 2431.357
1019.210, 2360.440
1019.692, 2304.056
1020.174, 2253.865
1020.656, 2209.477
1021.138, 2168.672
1021.620, 2131.407
1022.102, 2099.816
1022.585, 2074.873
1023.067, 2054.253
1023.549, 2035.822
1024.031, 2019.488
1024.513, 2004.901
1024.995, 1992.062
1025.477, 1979.911
1025.959, 1968.279
1026.442, 1958.008
1026.924, 1949.460
1027.406, 1942.579
1027.888, 1937.467
1028.370, 1933.844
1028.852, 1930.594
1029.334, 1927.937
1029.816, 1923.618
1030.298, 1916.820
1030.781, 1910.905
1031.263, 1907.231
1031.745, 1905.699
1032.227, 1906.943
1032.709, 1910.248
1033.191, 1908.910
1033.673, 1900.814
1034.155, 1895.497
1034.637, 1894.929
1035.120, 1894.238
1035.602, 1890.952
1036.084, 1886.834
1036.566, 1883.913
1037.048, 1882.212
1037.530, 1882.066
1038.012, 1884.216
1038.494, 1886.341
1038.977, 1888.424
1039.459, 1890.321
1039.941, 1892.218
1040.423, 1893.683
1040.905, 1894.058
1041.387, 1893.381
1041.869, 1892.525
1042.351, 1891.538
1042.833, 1890.266
1043.316, 1887.233
1043.798, 1885.641
1044.280, 1887.641
1044.762, 1891.221
1045.244, 1894.124
1045.726, 1896.355
1046.208, 1898.675
1046.690, 1903.716
1047.172, 1904.808
1047.655, 1898.827
1048.137, 1891.823
1048.619, 1885.554
1049.101, 1880.380
1049.583, 1876.875
1050.065, 1874.934
1050.547, 1873.111
1051.029, 1872.221
1051.512, 1869.860
1051.994, 1864.975
1052.476, 1859.338
1052.958, 1852.450
1053.440, 1846.210
1053.922, 1843.807
1054.404, 1844.580
1054.886, 1843.062
1055.369, 1835.386
1055.851, 1830.662
1056.333, 1832.554
1056.815, 1836.066
1057.297, 1839.999
1057.779, 1843.125
1058.261, 1844.212
1058.743, 1843.289
1059.225, 1841.010
1059.708, 1836.777
1060.190, 1832.992
1060.672, 1829.726
1061.154, 1827.863
1061.636, 1828.916
1062.118, 1830.943
1062.600, 1832.095
1063.082, 1832.122
1063.564, 1831.093
1064.047, 1828.885
1064.529, 1826.032
1065.011, 1821.526
1065.493, 1817.775
1065.975, 1817.004
1066.457, 1817.106
1066.939, 1815.263
1067.421, 1812.045
1067.904, 1810.326
1068.386, 1811.130
1068.868, 1812.439
1069.350, 1813.561
1069.832, 1814.796
1070.314, 1817.012
1070.796, 1818.905
1071.278, 1818.539
1071.760, 1816.660
1072.243, 1815.890
1072.725, 1817.168
1073.207, 1817.956
1073.689, 1816.585
1074.171, 1815.090
1074.653, 1814.614
1075.135, 1814.604
1075.617, 1814.304
1076.099, 1813.980
1076.582, 1814.561
1077.064, 1816.334
1077.546, 1817.923
1078.028, 1818.946
1078.510, 1819.342
1078.992, 1818.320
1079.474, 1817.313
1079.956, 1818.267
1080.439, 1820.125
1080.921, 1820.079
1081.403, 1817.598
1081.885, 1816.485
1082.367, 1819.609
1082.849, 1822.930
1083.331, 1824.010
1083.813, 1824.771
1084.295, 1827.003
1084.778, 1830.075
1085.260, 1833.042
1085.742, 1835.586
1086.224, 1836.886
1086.706, 1835.572
1087.188, 1834.581
1087.670, 1834.980
1088.152, 1836.487
1088.635, 1840.155
1089.117, 1844.091
1089.599, 1844.502
1090.081, 1841.939
1090.563, 1842.608
1091.045, 1850.435
1091.527, 1857.826
1092.009, 1861.687
1092.491, 1864.012
1092.974, 1865.240
1093.456, 1866.272
1093.938, 1867.545
1094.420, 1869.521
1094.902, 1873.313
1095.384, 1878.928
1095.866, 1887.410
1096.348, 1903.635
1096.830, 1917.431
1097.313, 1922.102
1097.795, 1922.687
1098.277, 1924.045
1098.759, 1926.090
1099.241, 1926.558
1099.723, 1924.391
1100.205, 1924.364
1100.687, 1929.633
1101.170, 1935.114
1101.652, 1937.258
1102.134, 1940.147
1102.616, 1947.724
1103.098, 1958.407
1103.580, 1969.275
1104.062, 1979.933
1104.544, 1988.733
1105.026, 1995.615
1105.509, 2000.009
1105.991, 1999.202
1106.473, 1998.533
1106.955, 2001.649
1107.437, 2006.885
1107.919, 2011.889
1108.401, 2016.423
1108.883, 2020.383
1109.365, 2022.666
1109.848, 2026.070
1110.330, 2031.714
1110.812, 2037.704
1111.294, 2045.132
1111.776, 2051.045
1112.258, 2051.610
1112.740, 2047.568
1113.222, 2043.636
1113.705, 2040.526
1114.187, 2036.594
1114.669, 2030.231
1115.151, 2025.106
1115.633, 2023.271
1116.115, 2022.159
1116.597, 2019.943
1117.079, 2016.836
1117.562, 2013.350
1118.044, 2009.407
1118.526, 2005.447
1119.008, 2001.260
1119.490, 1997.514
1119.972, 1995.427
1120.454, 1992.216
1120.936, 1985.639
1121.418, 1977.293
1121.901, 1969.591
1122.383, 1962.483
1122.865, 1957.160
1123.347, 1954.048
1123.829, 1951.688
1124.311, 1950.893
1124.793, 1948.565
1125.275, 1942.972
1125.757, 1935.806
1126.240, 1928.677
1126.722, 1921.809
1127.204, 1916.588
1127.686, 1913.571
1128.168, 1909.204
1128.650, 1902.686
1129.132, 1898.051
1129.614, 1897.237
1130.097, 1895.846
1130.579, 1889.943
1131.061, 1881.608
1131.543, 1876.338
1132.025, 1874.194
1132.507, 1867.813
1132.989, 1856.699
1133.471, 1848.862
1133.953, 1846.006
1134.436, 1845.087
1134.918, 1844.652
1135.400, 1843.176
1135.882, 1837.765
1136.364, 1829.935
1136.846, 1826.860
1137.328, 1827.874
1137.810, 1827.021
1138.292, 1823.773
1138.775, 1820.368
1139.257, 1817.656
1139.739, 1815.225
1140.221, 1812.489
1140.703, 1810.267
1141.185, 1810.633
1141.667, 1812.713
1142.149, 1814.024
1142.632, 1814.578
1143.114, 1815.509
1143.596, 1816.742
1144.078, 1815.976
1144.560, 1811.734
1145.042, 1806.162
1145.524, 1801.344
1146.006, 1797.158
1146.489, 1793.464
1146.971, 1790.218
1147.453, 1787.333
1147.935, 1784.844
1148.417, 1782.872
1148.899, 1781.451
1149.381, 1780.387
1149.863, 1779.625
1150.345, 1779.036
1150.828, 1778.833
1151.310, 1778.463
1151.792, 1777.065
1152.274, 1775.111
1152.756, 1773.364
1153.238, 1772.047
1153.720, 1771.356
1154.202, 1771.437
1154.684, 1771.918
1155.167, 1772.974
1155.649, 1773.925
1156.131, 1774.509
1156.613, 1774.603
1157.095, 1774.153
1157.577, 1773.110
1158.059, 1771.029
1158.541, 1767.539
1159.024, 1765.560
1159.506, 1767.178
1159.988, 1768.428
1160.470, 1767.271
1160.952, 1766.434
1161.434, 1768.187
1161.916, 1770.966
1162.398, 1772.656
1162.880, 1773.199
1163.363, 1772.942
1163.845, 1770.252
1164.327, 1769.919
1164.809, 1773.942
1165.291, 1776.945
1165.773, 1777.141
1166.255, 1775.865
1166.737, 1773.756
1167.219, 1771.351
1167.702, 1770.036
1168.184, 1769.889
1168.666, 1769.840
1169.148, 1769.711
1169.630, 1770.785
1170.112, 1773.708
1170.594, 1775.445
1171.076, 1774.092
1171.559, 1772.534
1172.041, 1774.786
1172.523, 1779.276
1173.005, 1779.571
1173.487, 1776.076
1173.969, 1773.615
1174.451, 1772.525
1174.933, 1772.749
1175.416, 1774.270
1175.898, 1777.506
1176.380, 1783.061
1176.862, 1787.851
1177.344, 1786.643
1177.826, 1781.670
1178.308, 1777.434
1178.790, 1773.901
1179.272, 1770.541
1179.755, 1767.608
1180.237, 1766.670
1180.719, 1768.073
1181.201, 1768.706
1181.683, 1765.373
1182.165, 1761.922
1182.647, 1762.929
1183.129, 1765.101
1183.611, 1764.719
1184.094, 1762.758
1184.576, 1761.767
1185.058, 1761.403
1185.540, 1758.050
1186.022, 1749.370
1186.504, 1743.477
1186.986, 1746.476
1187.468, 1749.862
1187.951, 1749.018
1188.433, 1747.310
1188.915, 1748.095
1189.397, 1749.824
1189.879, 1749.158
1190.361, 1745.855
1190.843, 1743.379
1191.325, 1742.542
1191.807, 1741.729
1192.290, 1741.500
1192.772, 1740.237
1193.254, 1735.952
1193.736, 1732.462
1194.218, 1733.884
1194.700, 1737.988
1195.182, 1739.011
1195.664, 1736.783
1196.146, 1733.247
1196.629, 1727.838
1197.111, 1724.234
1197.593, 1723.058
1198.075, 1723.696
1198.557, 1726.215
1199.039, 1727.975
1199.521, 1725.670
1200.003, 1721.277
1200.486, 1720.511
1200.968, 1722.585
1201.450, 1723.977
1201.932, 1724.318
1202.414, 1722.024
1202.896, 1717.281
1203.378, 1713.346
1203.860, 1712.010
1204.343, 1712.076
1204.825, 1712.773
1205.307, 1713.653
1205.789, 1713.351
1206.271, 1713.344
1206.753, 1717.066
1207.235, 1722.526
1207.717, 1725.263
1208.199, 1724.391
1208.682, 1721.566
1209.164, 1716.949
1209.646, 1712.207
1210.128, 1707.406
1210.610, 1703.655
1211.092, 1701.916
1211.574, 1701.297
1212.056, 1701.705
1212.538, 1702.334
1213.021, 1700.928
1213.503, 1696.984
1213.985, 1696.575
1214.467, 1704.325
1214.949, 1708.606
1215.431, 1707.256
1215.913, 1704.865
1216.395, 1701.996
1216.878, 1700.626
1217.360, 1703.394
1217.842, 1707.994
1218.324, 1708.009
1218.806, 1703.276
1219.288, 1701.680
1219.770, 1703.533
1220.252, 1702.278
1220.734, 1696.855
1221.217, 1693.599
1221.699, 1695.303
1222.181, 1698.444
1222.663, 1699.872
1223.145, 1699.637
1223.627, 1696.360
1224.109, 1692.187
1224.591, 1693.252
1225.073, 1697.561
1225.556, 1699.082
1226.038, 1697.549
1226.520, 1696.294
1227.002, 1696.674
1227.484, 1698.727
1227.966, 1703.670
1228.448, 1708.763
1228.930, 1713.178
1229.413, 1715.793
1229.895, 1715.128
1230.377, 1712.323
1230.859, 1708.464
1231.341, 1704.015
1231.823, 1699.846
1232.305, 1695.881
1232.787, 1693.059
1233.270, 1691.512
1233.752, 1691.105
1234.234, 1692.571
1234.716, 1693.993
1235.198, 1694.138
1235.680, 1694.110
1236.162, 1695.700
1236.644, 1698.124
1237.126, 1697.072
1237.609, 1691.901
1238.091, 1690.140
1238.573, 1692.114
1239.055, 1694.806
1239.537, 1697.561
1240.019, 1698.024
1240.501, 1694.810
1240.983, 1691.316
1241.465, 1691.821
1241.948, 1694.149
1242.430, 1694.147
1242.912, 1692.819
1243.394, 1692.313
1243.876, 1692.255
1244.358, 1690.730
1244.840, 1688.115
1245.322, 1687.505
1245.805, 1690.280
1246.287, 1693.886
1246.769, 1698.294
1247.251, 1701.183
1247.733, 1700.133
1248.215, 1698.197
1248.697, 1697.430
1249.179, 1697.489
1249.661, 1697.906
1250.144, 1698.527
1250.626, 1698.665
1251.108, 1697.760
1251.590, 1697.971
1252.072, 1699.092
1252.554, 1702.227
1253.036, 1709.264
1253.518, 1713.654
1254.000, 1711.553
##END=



