##NAMES=Diopside
##RRUFFID=R070123
##IDEAL CHEMISTRY=CaMgSi_2_O_6_
##LOCALITY=Yates mine, Otter Lake, Huddersfield Township, Pontiac County, Québec, Canada
##OWNER=RRUFF
##SOURCE=Michael Scott
##DESCRIPTION=Black prismatic crystals associated with orange calcite
##STATUS=The identification of this mineral has been confirmed by X-ray diffraction and chemical analysis
##URL=rruff.info/R070123
##MEASURED CHEMISTRY=(Ca_0.95_Na_0.04_Mn_0.01_)_Σ=1_(Mg_0.63_Fe_0.33_Al_0.04_)_Σ=1_Si_2.00_O_6_
164.7005, 1014.673
165.1826, 1021.336
165.6648, 1030.000
166.1469, 1041.702
166.6290, 1056.662
167.1111, 1074.635
167.5932, 1099.380
168.0753, 1125.249
168.5575, 1145.868
169.0396, 1160.244
169.5217, 1173.213
170.0038, 1189.915
170.4859, 1209.822
170.9680, 1226.893
171.4502, 1239.138
171.9323, 1248.603
172.4144, 1257.662
172.8965, 1266.633
173.3786, 1274.288
173.8607, 1276.498
174.3429, 1275.418
174.8250, 1281.585
175.3071, 1308.021
175.7892, 1338.153
176.2713, 1348.527
176.7534, 1334.994
177.2356, 1316.149
177.7177, 1303.187
178.1998, 1296.073
178.6819, 1297.004
179.1640, 1313.677
179.6461, 1335.897
180.1283, 1347.866
180.6104, 1346.784
181.0925, 1346.168
181.5746, 1360.658
182.0567, 1382.759
182.5388, 1398.107
183.0210, 1399.291
183.5031, 1392.798
183.9852, 1386.343
184.4673, 1378.720
184.9494, 1375.863
185.4315, 1388.595
185.9137, 1407.830
186.3958, 1419.297
186.8779, 1412.901
187.3600, 1400.444
187.8421, 1402.270
188.3242, 1422.842
188.8064, 1439.705
189.2885, 1434.682
189.7706, 1419.532
190.2527, 1408.034
190.7348, 1404.077
191.2169, 1405.913
191.6991, 1413.578
192.1812, 1429.593
192.6633, 1440.729
193.1454, 1435.951
193.6275, 1424.154
194.1096, 1413.781
194.5918, 1406.683
195.0739, 1402.787
195.5560, 1403.890
196.0381, 1411.971
196.5202, 1416.061
197.0023, 1407.200
197.4845, 1393.873
197.9666, 1383.439
198.4487, 1378.155
198.9308, 1375.206
199.4129, 1371.198
199.8950, 1365.976
200.3772, 1360.464
200.8593, 1356.064
201.3414, 1350.854
201.8235, 1342.351
202.3056, 1329.533
202.7877, 1316.401
203.2699, 1307.908
203.7520, 1304.576
204.2341, 1301.837
204.7162, 1299.232
205.1983, 1296.313
205.6804, 1291.586
206.1626, 1284.698
206.6447, 1279.873
207.1268, 1283.826
207.6089, 1297.789
208.0910, 1306.617
208.5731, 1303.360
209.0553, 1296.645
209.5374, 1293.072
210.0195, 1292.994
210.5016, 1290.108
210.9837, 1274.726
211.4658, 1246.107
211.9480, 1227.791
212.4301, 1232.184
212.9122, 1239.870
213.3943, 1238.672
213.8764, 1229.000
214.3585, 1218.839
214.8407, 1214.397
215.3228, 1215.530
215.8049, 1218.894
216.2870, 1228.070
216.7691, 1235.122
217.2512, 1234.804
217.7334, 1228.470
218.2155, 1221.230
218.6976, 1216.711
219.1797, 1214.580
219.6618, 1211.462
220.1439, 1204.455
220.6261, 1200.714
221.1082, 1205.524
221.5903, 1215.930
222.0724, 1225.174
222.5545, 1228.061
223.0366, 1226.715
223.5188, 1230.330
224.0009, 1243.629
224.4830, 1253.507
224.9651, 1254.233
225.4472, 1248.251
225.9293, 1237.946
226.4115, 1220.173
226.8936, 1202.217
227.3757, 1205.621
227.8578, 1243.303
228.3399, 1271.528
228.8220, 1262.020
229.3041, 1238.045
229.7863, 1227.719
230.2684, 1244.870
230.7505, 1271.755
231.2326, 1277.260
231.7147, 1255.164
232.1968, 1234.512
232.6790, 1223.243
233.1611, 1219.086
233.6432, 1223.406
234.1253, 1238.114
234.6074, 1252.816
235.0895, 1252.633
235.5717, 1235.403
236.0538, 1221.774
236.5359, 1221.900
237.0180, 1224.668
237.5001, 1219.639
237.9822, 1205.314
238.4644, 1193.513
238.9465, 1199.009
239.4286, 1221.247
239.9107, 1235.342
240.3928, 1231.267
240.8749, 1222.888
241.3571, 1222.333
241.8392, 1228.932
242.3213, 1232.051
242.8034, 1221.082
243.2855, 1199.088
243.7676, 1182.490
244.2498, 1172.638
244.7319, 1169.262
245.2140, 1175.507
245.6961, 1188.238
246.1782, 1196.369
246.6603, 1190.369
247.1425, 1175.940
247.6246, 1168.896
248.1067, 1172.414
248.5888, 1176.407
249.0709, 1173.750
249.5530, 1167.014
250.0352, 1160.592
250.5173, 1156.261
250.9994, 1152.904
251.4815, 1148.342
251.9636, 1142.121
252.4457, 1137.480
252.9279, 1135.737
253.4100, 1136.980
253.8921, 1142.715
254.3742, 1158.090
254.8563, 1170.724
255.3384, 1163.982
255.8206, 1138.640
256.3027, 1120.783
256.7848, 1126.429
257.2669, 1141.395
257.7490, 1142.626
258.2311, 1125.306
258.7133, 1107.711
259.1954, 1102.160
259.6775, 1106.135
260.1596, 1110.148
260.6417, 1112.461
261.1238, 1112.374
261.6060, 1108.000
262.0881, 1099.070
262.5702, 1091.622
263.0523, 1088.109
263.5344, 1087.704
264.0165, 1090.389
264.4987, 1097.403
264.9808, 1102.412
265.4629, 1096.344
265.9450, 1080.396
266.4271, 1066.971
266.9092, 1059.263
267.3914, 1054.675
267.8735, 1048.067
268.3556, 1039.167
268.8377, 1038.522
269.3198, 1059.176
269.8019, 1097.861
270.2841, 1119.740
270.7662, 1114.937
271.2483, 1101.960
271.7304, 1090.125
272.2125, 1079.584
272.6946, 1069.102
273.1768, 1057.007
273.6589, 1045.192
274.1410, 1041.174
274.6231, 1052.789
275.1052, 1060.853
275.5873, 1056.598
276.0695, 1045.237
276.5516, 1032.806
277.0337, 1020.204
277.5158, 1000.714
277.9979, 1020.955
278.4800, 1033.888
278.9622, 1039.905
279.4443, 1018.292
279.9264, 1032.357
280.4085, 1032.124
280.8906, 1031.304
281.3727, 1050.391
281.8549, 1032.797
282.3370, 1051.568
282.8191, 1050.733
283.3012, 1055.686
283.7833, 1061.438
284.2654, 1065.846
284.7476, 1068.778
285.2297, 1071.159
285.7118, 1073.861
286.1939, 1076.869
286.6760, 1077.371
287.1581, 1071.297
287.6403, 1067.319
288.1224, 1070.101
288.6045, 1076.192
289.0866, 1079.550
289.5687, 1076.854
290.0508, 1070.100
290.5330, 1065.761
291.0151, 1063.231
291.4972, 1064.515
291.9793, 1070.264
292.4614, 1079.311
292.9435, 1092.447
293.4257, 1109.306
293.9078, 1125.459
294.3899, 1132.931
294.8720, 1126.921
295.3541, 1125.936
295.8362, 1134.336
296.3184, 1144.354
296.8005, 1153.819
297.2826, 1161.528
297.7647, 1165.189
298.2468, 1160.222
298.7289, 1146.774
299.2111, 1143.313
299.6932, 1159.815
300.1753, 1174.684
300.6574, 1176.337
301.1395, 1171.192
301.6216, 1171.713
302.1038, 1186.438
302.5859, 1208.593
303.0680, 1221.423
303.5501, 1222.079
304.0322, 1220.781
304.5143, 1215.571
304.9964, 1212.833
305.4785, 1221.151
305.9607, 1244.312
306.4428, 1269.407
306.9249, 1279.539
307.4070, 1274.823
307.8891, 1278.261
308.3712, 1298.460
308.8534, 1326.018
309.3355, 1353.838
309.8176, 1381.733
310.2997, 1404.229
310.7818, 1416.605
311.2639, 1421.656
311.7461, 1424.674
312.2282, 1424.195
312.7103, 1428.342
313.1924, 1448.290
313.6745, 1479.397
314.1566, 1506.911
314.6388, 1527.585
315.1209, 1543.583
315.6030, 1553.932
316.0851, 1559.495
316.5672, 1570.332
317.0493, 1595.737
317.5315, 1628.312
318.0136, 1644.361
318.4957, 1632.479
318.9778, 1622.932
319.4599, 1630.983
319.9420, 1648.746
320.4242, 1662.294
320.9063, 1667.092
321.3884, 1665.434
321.8705, 1660.098
322.3526, 1648.819
322.8347, 1639.964
323.3169, 1637.024
323.7990, 1634.539
324.2811, 1628.344
324.7632, 1618.001
325.2453, 1605.547
325.7274, 1593.388
326.2096, 1581.940
326.6917, 1561.570
327.1738, 1518.229
327.6559, 1482.083
328.1380, 1468.753
328.6201, 1468.615
329.1023, 1463.588
329.5844, 1444.032
330.0665, 1415.840
330.5486, 1397.442
331.0307, 1398.348
331.5128, 1393.759
331.9950, 1376.528
332.4771, 1356.880
332.9592, 1342.824
333.4413, 1336.097
333.9234, 1333.661
334.4055, 1333.011
334.8877, 1334.778
335.3698, 1334.251
335.8519, 1329.082
336.3340, 1323.721
336.8161, 1320.263
337.2982, 1318.125
337.7804, 1315.395
338.2625, 1309.909
338.7446, 1303.566
339.2267, 1302.574
339.7088, 1309.046
340.1909, 1315.112
340.6731, 1314.487
341.1552, 1312.936
341.6373, 1316.773
342.1194, 1327.693
342.6015, 1342.954
343.0836, 1364.395
343.5658, 1390.362
344.0479, 1404.403
344.5300, 1397.377
345.0121, 1384.099
345.4942, 1380.212
345.9763, 1385.281
346.4585, 1394.939
346.9406, 1406.820
347.4227, 1422.837
347.9048, 1450.735
348.3869, 1491.533
348.8690, 1523.862
349.3512, 1528.270
349.8333, 1508.219
350.3154, 1499.419
350.7975, 1509.143
351.2796, 1522.066
351.7617, 1534.211
352.2439, 1544.168
352.7260, 1547.991
353.2081, 1543.449
353.6902, 1535.367
354.1723, 1534.159
354.6544, 1550.929
355.1366, 1555.890
355.6187, 1540.922
356.1008, 1519.655
356.5829, 1502.398
357.0650, 1490.333
357.5471, 1478.641
358.0293, 1462.241
358.5114, 1440.784
358.9935, 1423.226
359.4756, 1410.735
359.9577, 1401.227
360.4398, 1386.709
360.9220, 1371.309
361.4041, 1376.457
361.8862, 1378.703
362.3683, 1378.201
362.8504, 1366.726
363.3326, 1369.421
363.8147, 1366.438
364.2968, 1363.221
364.7789, 1367.911
365.2610, 1358.031
365.7431, 1362.356
366.2253, 1362.829
366.7074, 1359.180
367.1895, 1352.660
367.6716, 1349.755
368.1537, 1350.898
368.6358, 1355.490
369.1180, 1364.666
369.6001, 1376.761
370.0822, 1388.853
370.5643, 1399.371
371.0464, 1410.470
371.5285, 1423.363
372.0107, 1438.260
372.4928, 1458.147
372.9749, 1487.310
373.4570, 1518.074
373.9391, 1533.848
374.4212, 1529.692
374.9034, 1533.951
375.3855, 1560.620
375.8676, 1595.852
376.3497, 1623.585
376.8318, 1641.874
377.3139, 1659.025
377.7961, 1683.562
378.2782, 1715.755
378.7603, 1738.291
379.2424, 1737.472
379.7245, 1743.883
380.2066, 1774.115
380.6888, 1816.910
381.1709, 1853.644
381.6530, 1876.162
382.1351, 1890.163
382.6172, 1906.179
383.0993, 1921.834
383.5815, 1945.165
384.0636, 1988.225
384.5457, 2028.268
385.0278, 2052.611
385.5099, 2060.804
385.9920, 2058.802
386.4742, 2049.569
386.9563, 2034.082
387.4384, 2018.710
387.9205, 2004.976
388.4026, 1988.146
388.8847, 1968.769
389.3669, 1944.622
389.8490, 1912.888
390.3311, 1872.465
390.8132, 1824.857
391.2953, 1769.047
391.7774, 1706.009
392.2596, 1644.711
392.7417, 1587.076
393.2238, 1532.011
393.7059, 1479.000
394.1880, 1427.910
394.6701, 1379.342
395.1523, 1331.173
395.6344, 1287.047
396.1165, 1252.407
396.5986, 1226.563
397.0807, 1203.918
397.5628, 1182.023
398.0450, 1160.223
398.5271, 1135.126
399.0092, 1098.720
399.4913, 1070.089
399.9734, 1058.037
400.4555, 1052.101
400.9377, 1039.988
401.4197, 1019.646
401.9019, 999.3397
402.3840, 989.1539
402.8661, 991.2513
403.3482, 987.3297
403.8303, 966.7216
404.3124, 951.2534
404.7946, 951.4974
405.2767, 960.3187
405.7588, 966.0360
406.2409, 963.2306
406.7230, 954.7141
407.2051, 944.8583
407.6873, 932.8776
408.1694, 923.2209
408.6515, 917.7469
409.1336, 914.2192
409.6157, 910.2308
410.0978, 906.1687
410.5800, 905.7236
411.0621, 916.1204
411.5442, 930.1309
412.0263, 931.6999
412.5084, 918.9091
412.9905, 905.5020
413.4727, 899.2283
413.9548, 898.3596
414.4369, 896.5969
414.9190, 891.7906
415.4011, 889.6935
415.8832, 895.8473
416.3654, 905.3451
416.8475, 910.8857
417.3296, 910.6586
417.8117, 905.2222
418.2938, 894.2727
418.7759, 876.1085
419.2581, 863.1418
419.7402, 851.3065
420.2223, 847.8467
420.7044, 865.9865
421.1865, 892.9255
421.6686, 904.5411
422.1508, 888.5587
422.6329, 857.5758
423.1150, 837.5146
423.5971, 827.7307
424.0792, 831.0193
424.5613, 867.4598
425.0435, 900.7289
425.5256, 907.4542
426.0077, 890.3148
426.4898, 868.6768
426.9719, 851.9312
427.4540, 840.7818
427.9362, 838.1255
428.4183, 845.4119
428.9004, 854.6151
429.3825, 864.6390
429.8646, 872.9750
430.3467, 875.0048
430.8289, 868.1729
431.3110, 862.4645
431.7931, 865.1625
432.2752, 871.6083
432.7573, 872.5099
433.2394, 866.1300
433.7216, 860.6246
434.2037, 865.1121
434.6858, 879.7823
435.1679, 883.2261
435.6500, 863.0841
436.1321, 846.9601
436.6143, 846.6430
437.0964, 855.5781
437.5785, 854.1565
438.0606, 836.8307
438.5427, 814.6046
439.0248, 848.4435
439.5070, 870.6478
439.9891, 881.8407
440.4712, 849.0454
440.9533, 873.0516
441.4354, 874.2941
441.9175, 874.6036
442.3997, 906.6052
442.8818, 880.2083
443.3639, 911.7059
443.8460, 890.4722
444.3281, 895.1788
444.8102, 897.8174
445.2924, 889.0255
445.7745, 877.7133
446.2566, 874.9895
446.7387, 881.0444
447.2208, 885.6437
447.7029, 882.3229
448.1851, 877.1534
448.6672, 878.1890
449.1493, 885.2590
449.6314, 891.9464
450.1135, 894.1194
450.5956, 893.1450
451.0778, 894.2408
451.5599, 895.1360
452.0420, 901.0064
452.5241, 922.0984
453.0062, 942.1668
453.4883, 943.1243
453.9705, 925.1180
454.4526, 904.8558
454.9347, 897.7531
455.4168, 903.1642
455.8989, 909.8331
456.3810, 919.7743
456.8632, 927.8950
457.3453, 933.5296
457.8274, 936.5440
458.3095, 936.2572
458.7916, 932.4072
459.2737, 927.5492
459.7559, 923.3223
460.2380, 919.9401
460.7201, 918.7226
461.2022, 920.4636
461.6843, 922.4716
462.1664, 923.1849
462.6486, 922.4814
463.1307, 919.9455
463.6128, 911.7286
464.0949, 905.7738
464.5770, 901.5512
465.0591, 896.2465
465.5413, 905.1873
466.0234, 910.2662
466.5055, 911.6908
466.9876, 898.5159
467.4697, 904.1932
467.9518, 902.3154
468.4340, 900.1279
468.9161, 908.4586
469.3982, 897.4072
469.8803, 900.2495
470.3624, 905.4160
470.8445, 902.7788
471.3267, 895.5061
471.8088, 886.6286
472.2909, 874.9941
472.7730, 871.7451
473.2551, 884.2632
473.7372, 898.4662
474.2194, 906.3755
474.7015, 908.3807
475.1836, 905.7585
475.6657, 895.2502
476.1478, 883.6193
476.6299, 878.3468
477.1121, 878.2590
477.5942, 878.1807
478.0763, 876.6364
478.5584, 873.0800
479.0405, 865.7078
479.5226, 851.4225
480.0048, 844.5137
480.4869, 852.7597
480.9690, 861.5851
481.4511, 861.2973
481.9332, 854.5475
482.4153, 848.8173
482.8975, 848.0421
483.3796, 850.5126
483.8617, 853.0404
484.3438, 857.1357
484.8259, 856.9142
485.3080, 842.0134
485.7902, 831.0215
486.2723, 837.8123
486.7544, 857.6078
487.2365, 873.3856
487.7186, 873.6390
488.2007, 867.3507
488.6829, 869.2893
489.1650, 879.0136
489.6471, 885.0663
490.1292, 882.3176
490.6113, 875.6132
491.0934, 872.5692
491.5756, 873.6839
492.0577, 873.4546
492.5398, 867.0859
493.0219, 862.4334
493.5040, 867.5774
493.9861, 879.6384
494.4683, 889.1179
494.9504, 890.6871
495.4325, 888.2405
495.9146, 891.8420
496.3967, 906.5229
496.8788, 916.0674
497.3610, 917.7385
497.8431, 916.2675
498.3252, 912.6248
498.8073, 907.8370
499.2894, 903.3158
499.7715, 897.8557
500.2536, 895.6332
500.7357, 906.8629
501.2179, 931.7451
501.7000, 951.7990
502.1821, 959.6459
502.6642, 962.9498
503.1463, 972.7380
503.6284, 988.9825
504.1106, 1000.233
504.5927, 1004.102
505.0748, 1002.452
505.5569, 990.5353
506.0390, 974.0802
506.5211, 969.0797
507.0033, 983.4966
507.4854, 1007.493
507.9675, 1021.986
508.4496, 1023.259
508.9317, 1023.875
509.4138, 1021.076
509.8960, 1020.340
510.3781, 1024.680
510.8602, 1032.961
511.3423, 1043.127
511.8244, 1055.220
512.3066, 1066.004
512.7887, 1069.544
513.2708, 1066.188
513.7529, 1063.212
514.2350, 1060.980
514.7172, 1061.766
515.1993, 1068.765
515.6814, 1081.315
516.1635, 1095.319
516.6456, 1116.140
517.1277, 1132.362
517.6099, 1135.130
518.0920, 1128.902
518.5741, 1120.196
519.0562, 1111.522
519.5383, 1107.255
520.0204, 1114.533
520.5026, 1136.075
520.9847, 1153.591
521.4668, 1170.184
521.9489, 1178.714
522.4310, 1169.558
522.9131, 1153.770
523.3953, 1146.507
523.8774, 1152.937
524.3595, 1165.640
524.8416, 1179.984
525.3237, 1194.761
525.8058, 1202.661
526.2880, 1201.020
526.7701, 1200.459
527.2522, 1212.402
527.7343, 1232.102
528.2164, 1236.831
528.6985, 1208.120
529.1807, 1189.089
529.6628, 1203.691
530.1449, 1229.441
530.6270, 1239.316
531.1091, 1229.857
531.5912, 1214.670
532.0734, 1205.480
532.5555, 1201.848
533.0376, 1200.387
533.5197, 1205.099
534.0018, 1204.632
534.4839, 1189.085
534.9661, 1172.574
535.4482, 1167.902
535.9303, 1175.931
536.4124, 1186.621
536.8945, 1194.750
537.3766, 1201.015
537.8588, 1207.565
538.3409, 1214.212
538.8230, 1216.106
539.3051, 1209.887
539.7872, 1199.125
540.2693, 1191.078
540.7515, 1186.903
541.2336, 1182.527
541.7157, 1173.046
542.1978, 1167.518
542.6799, 1174.563
543.1620, 1190.085
543.6442, 1205.539
544.1263, 1216.996
544.6084, 1221.918
545.0905, 1209.888
545.5726, 1175.724
546.0547, 1162.422
546.5369, 1189.467
547.0190, 1219.375
547.5011, 1223.975
547.9832, 1211.854
548.4653, 1205.790
548.9474, 1217.197
549.4296, 1228.229
549.9116, 1223.602
550.3937, 1210.088
550.8759, 1201.209
551.3580, 1200.093
551.8401, 1203.364
552.3222, 1207.735
552.8043, 1213.213
553.2864, 1221.884
553.7686, 1244.479
554.2507, 1257.118
554.7328, 1244.522
555.2149, 1227.556
555.6970, 1230.201
556.1791, 1253.684
556.6613, 1274.594
557.1434, 1269.367
557.6255, 1247.381
558.1076, 1235.371
558.5897, 1233.871
559.0718, 1237.918
559.5540, 1249.769
560.0361, 1261.922
560.5182, 1259.162
561.0003, 1239.274
561.4824, 1220.377
561.9645, 1205.181
562.4467, 1191.834
562.9288, 1178.188
563.4109, 1165.463
563.8930, 1157.612
564.3751, 1156.623
564.8572, 1157.597
565.3394, 1151.591
565.8215, 1137.286
566.3036, 1122.589
566.7857, 1102.574
567.2678, 1089.447
567.7499, 1096.510
568.2321, 1112.460
568.7142, 1115.861
569.1963, 1097.757
569.6784, 1076.809
570.1605, 1064.943
570.6426, 1058.974
571.1248, 1054.061
571.6069, 1049.280
572.0890, 1043.134
572.5711, 1033.996
573.0532, 1022.859
573.5353, 1013.141
574.0175, 926.0438
574.4996, 936.8627
574.9817, 942.8260
575.4638, 944.1949
575.9459, 927.2081
576.4280, 933.9238
576.9102, 931.1406
577.3923, 927.9679
577.8744, 938.0195
578.3565, 925.2064
578.8386, 916.6696
579.3207, 911.3800
579.8029, 909.0469
580.2850, 906.7534
580.7671, 900.3428
581.2492, 889.5217
581.7313, 883.9120
582.2134, 894.0571
582.6956, 897.3378
583.1777, 879.2519
583.6598, 852.4433
584.1419, 832.3798
584.6240, 822.7396
585.1061, 817.9254
585.5883, 812.7232
586.0704, 807.5327
586.5525, 805.6752
587.0346, 809.0176
587.5167, 809.4688
587.9988, 800.1174
588.4810, 789.5690
588.9631, 790.7360
589.4452, 804.7144
589.9273, 809.9135
590.4094, 790.9721
590.8915, 768.2766
591.3737, 758.9874
591.8558, 759.6859
592.3379, 759.3969
592.8200, 753.7484
593.3021, 747.2564
593.7842, 747.3198
594.2664, 755.5177
594.7485, 759.6487
595.2306, 760.4180
595.7127, 755.8266
596.1948, 735.8032
596.6769, 714.8856
597.1591, 715.5794
597.6412, 744.2538
598.1233, 768.0237
598.6054, 759.9911
599.0875, 737.4738
599.5696, 726.7916
600.0518, 728.3613
600.5339, 729.9224
601.0160, 724.7972
601.4981, 716.7398
601.9802, 714.1942
602.4623, 721.0305
602.9445, 724.0314
603.4266, 719.8686
603.9087, 715.6559
604.3908, 714.9615
604.8729, 716.1773
605.3550, 716.4995
605.8372, 715.0032
606.3193, 712.1440
606.8014, 706.5906
607.2835, 700.1240
607.7656, 698.9156
608.2477, 703.8647
608.7299, 708.8129
609.2120, 709.5364
609.6941, 707.8717
610.1762, 709.5757
610.6583, 717.9995
611.1404, 724.2163
611.6226, 726.1068
612.1047, 727.4918
612.5868, 734.1968
613.0689, 741.9464
613.5510, 738.6853
614.0331, 716.9042
614.5153, 693.6520
614.9974, 697.7426
615.4795, 724.4968
615.9616, 736.0117
616.4437, 724.2713
616.9258, 710.2869
617.4080, 708.0479
617.8901, 714.9798
618.3722, 721.0042
618.8543, 728.2069
619.3364, 731.1288
619.8185, 724.1402
620.3007, 716.3947
620.7828, 716.2248
621.2649, 721.8406
621.7470, 725.7946
622.2291, 723.8347
622.7112, 718.8553
623.1934, 715.3146
623.6755, 713.2006
624.1576, 712.3068
624.6397, 711.1034
625.1218, 715.0113
625.6039, 732.3652
626.0861, 757.8397
626.5682, 771.8911
627.0503, 768.1037
627.5324, 763.2177
628.0145, 759.5076
628.4966, 758.1239
628.9788, 762.0520
629.4609, 769.6130
629.9430, 774.4987
630.4251, 772.4130
630.9072, 768.3417
631.3893, 774.6324
631.8715, 792.6680
632.3536, 801.5020
632.8357, 794.0016
633.3178, 785.5618
633.7999, 788.0963
634.2820, 797.9192
634.7642, 805.0339
635.2463, 808.4573
635.7284, 809.8440
636.2105, 807.9156
636.6926, 805.4265
637.1747, 804.9618
637.6569, 806.5820
638.1390, 809.3585
638.6211, 812.8262
639.1032, 816.6390
639.5853, 820.1985
640.0674, 823.5737
640.5496, 825.2914
641.0317, 821.5510
641.5138, 822.6835
641.9959, 841.9083
642.4780, 870.1577
642.9601, 885.2377
643.4423, 876.7643
643.9244, 874.0552
644.4065, 893.7157
644.8886, 918.8560
645.3707, 931.9392
645.8528, 934.9148
646.3350, 940.3067
646.8171, 955.2148
647.2992, 974.6363
647.7813, 988.4236
648.2634, 995.7983
648.7455, 1006.827
649.2277, 1021.163
649.7098, 1041.601
650.1919, 1075.137
650.6740, 1114.572
651.1561, 1144.626
651.6382, 1159.628
652.1204, 1177.999
652.6025, 1204.112
653.0846, 1236.592
653.5667, 1279.025
654.0488, 1326.692
654.5309, 1367.175
655.0131, 1394.162
655.4952, 1418.710
655.9773, 1461.259
656.4594, 1522.277
656.9415, 1569.827
657.4236, 1596.821
657.9058, 1626.394
658.3879, 1672.341
658.8700, 1727.896
659.3521, 1777.601
659.8342, 1818.303
660.3163, 1865.733
660.7985, 1928.709
661.2806, 1994.094
661.7627, 2056.267
662.2448, 2112.581
662.7269, 2159.896
663.2090, 2196.919
663.6912, 2225.743
664.1733, 2252.103
664.6554, 2274.118
665.1375, 2274.177
665.6196, 2248.636
666.1017, 2218.992
666.5839, 2197.228
667.0660, 2173.060
667.5481, 2127.826
668.0302, 2058.833
668.5123, 1990.356
668.9944, 1924.591
669.4766, 1858.933
669.9587, 1790.117
670.4408, 1721.094
670.9229, 1656.944
671.4050, 1598.005
671.8871, 1540.952
672.3693, 1482.284
672.8514, 1422.990
673.3335, 1362.981
673.8156, 1302.332
674.2977, 1250.742
674.7798, 1211.317
675.2620, 1182.332
675.7441, 1164.101
676.2262, 1157.584
676.7083, 1144.554
677.1904, 1120.835
677.6725, 1096.557
678.1547, 1073.711
678.6368, 1051.538
679.1189, 1029.586
679.6010, 1007.664
680.0831, 985.0378
680.5652, 959.2362
681.0474, 935.5178
681.5295, 922.1337
682.0116, 917.9668
682.4937, 919.6628
682.9758, 927.1570
683.4579, 932.1100
683.9401, 927.5204
684.4222, 914.3542
684.9043, 897.8744
685.3864, 871.5404
685.8685, 852.8179
686.3506, 845.9098
686.8328, 843.0341
687.3149, 840.0130
687.7970, 837.2434
688.2791, 837.4816
688.7612, 843.6887
689.2433, 846.7537
689.7255, 834.6133
690.2076, 816.3726
690.6897, 809.2343
691.1718, 813.3760
691.6539, 816.7391
692.1360, 812.2323
692.6182, 804.0965
693.1003, 801.3555
693.5824, 805.2283
694.0645, 810.2066
694.5466, 820.6525
695.0287, 825.8694
695.5109, 816.2915
695.9930, 801.4761
696.4751, 794.9653
696.9572, 799.5135
697.4393, 800.8951
697.9214, 786.8622
698.4036, 773.5847
698.8857, 778.1249
699.3678, 793.2554
699.8499, 801.9830
700.3320, 799.0669
700.8141, 792.4176
701.2963, 790.5480
701.7784, 792.7709
702.2605, 795.5540
702.7426, 799.8470
703.2247, 799.6365
703.7068, 791.4318
704.1890, 780.2902
704.6711, 769.9946
705.1532, 760.7911
705.6353, 758.1240
706.1174, 771.3258
706.5995, 779.6269
707.0817, 772.1910
707.5638, 760.3158
708.0459, 754.9539
708.5280, 756.3004
709.0101, 758.7540
709.4922, 759.5906
709.9744, 758.5093
710.4565, 753.6305
710.9386, 746.1530
711.4207, 742.1213
711.9028, 742.6069
712.3849, 743.2271
712.8671, 740.4329
713.3492, 736.3350
713.8313, 737.6108
714.3134, 748.4766
714.7955, 756.2589
715.2776, 767.5969
715.7598, 768.7799
716.2419, 740.6649
716.7240, 703.8210
717.2061, 692.9023
717.6882, 717.5066
718.1703, 741.4392
718.6525, 741.7560
719.1346, 732.3461
719.6167, 726.5065
720.0988, 725.1003
720.5809, 729.5153
721.0630, 739.8946
721.5452, 749.4872
722.0273, 749.6885
722.5094, 741.3060
722.9915, 733.2252
723.4736, 723.6682
723.9557, 721.2145
724.4379, 735.1913
724.9200, 749.5102
725.4021, 743.6083
725.8842, 721.3826
726.3663, 708.7013
726.8484, 714.4752
727.3306, 721.8048
727.8127, 728.5954
728.2948, 732.4391
728.7769, 729.5522
729.2590, 721.5196
729.7411, 713.7876
730.2233, 709.0891
730.7054, 706.5808
731.1875, 705.3240
731.6696, 705.3144
732.1517, 706.5216
732.6339, 708.9410
733.1160, 713.1715
733.5981, 720.1476
734.0802, 727.6840
734.5623, 731.4278
735.0444, 731.7681
735.5266, 726.7814
736.0087, 707.9747
736.4908, 694.2733
736.9729, 693.7134
737.4550, 699.5775
737.9371, 705.1056
738.4193, 709.4191
738.9014, 713.1891
739.3835, 716.8550
739.8656, 719.9217
740.3477, 722.9681
740.8298, 724.8067
741.3120, 722.7169
741.7941, 716.6428
742.2762, 709.4426
742.7583, 702.6458
743.2404, 697.8337
743.7225, 701.2796
744.2047, 713.6285
744.6868, 719.9586
745.1689, 716.4265
745.6510, 711.4066
746.1331, 711.4757
746.6152, 714.3050
747.0973, 711.6563
747.5794, 697.3359
748.0615, 689.5853
748.5436, 694.5200
749.0258, 700.1566
749.5079, 701.3167
749.9900, 698.9043
750.4721, 693.2719
750.9542, 684.6619
751.4363, 679.9900
751.9185, 688.6372
752.4006, 700.5402
752.8827, 701.9427
753.3648, 695.6127
753.8469, 689.0462
754.3290, 684.7917
754.8112, 687.5350
755.2933, 704.7643
755.7754, 730.8560
756.2575, 733.7203
756.7396, 705.5838
757.2217, 688.6020
757.7039, 694.2213
758.1860, 706.3459
758.6681, 715.6273
759.1502, 721.5219
759.6323, 722.5911
760.1144, 715.5611
760.5966, 709.7985
761.0787, 705.3947
761.5608, 703.9542
762.0429, 711.3002
762.5250, 720.8862
763.0071, 719.6180
763.4893, 703.6315
763.9714, 687.0935
764.4535, 679.4431
764.9356, 679.8871
765.4177, 691.5839
765.8998, 710.8995
766.3820, 723.1283
766.8641, 723.6844
767.3462, 719.8632
767.8283, 719.2686
768.3104, 720.9164
768.7925, 718.3831
769.2747, 711.2604
769.7568, 700.7949
770.2389, 683.0264
770.7210, 667.8511
771.2031, 662.5761
771.6852, 665.6490
772.1674, 673.1305
772.6495, 691.0394
773.1316, 700.5264
773.6137, 689.0303
774.0958, 677.0682
774.5779, 678.7530
775.0601, 689.0868
775.5422, 699.3331
776.0243, 706.7867
776.5064, 710.2177
776.9885, 708.4107
777.4706, 702.1167
777.9528, 688.1293
778.4349, 670.3329
778.9170, 663.7565
779.3991, 672.2289
779.8812, 684.1848
780.3633, 688.8889
780.8455, 688.2767
781.3276, 691.8808
781.8097, 702.2659
782.2918, 703.9700
782.7739, 688.2665
783.2560, 675.7472
783.7382, 682.7430
784.2203, 702.0768
784.7024, 715.0388
785.1845, 722.3984
785.6666, 721.6046
786.1487, 701.8388
786.6309, 685.4031
787.1130, 686.8314
787.5951, 696.6259
788.0772, 702.0987
788.5593, 700.7640
789.0414, 696.6094
789.5236, 688.4579
790.0057, 681.9903
790.4878, 685.6649
790.9699, 695.4167
791.4520, 704.1917
791.9341, 709.7923
792.4163, 707.5776
792.8984, 692.7711
793.3805, 673.7247
793.8626, 672.9294
794.3447, 691.6402
794.8268, 696.8659
795.3090, 682.0063
795.7911, 669.1838
796.2732, 670.4988
796.7553, 679.4464
797.2374, 685.4832
797.7195, 689.0765
798.2017, 687.4882
798.6838, 673.1476
799.1659, 663.6426
799.6480, 664.1468
800.1301, 670.6796
800.6122, 684.6672
801.0944, 702.3187
801.5765, 708.4003
802.0586, 688.8459
802.5407, 670.6606
803.0228, 672.0990
803.5049, 683.1843
803.9871, 697.6802
804.4692, 710.4046
804.9513, 708.1132
805.4334, 684.7173
805.9155, 658.1516
806.3976, 653.0208
806.8798, 663.4894
807.3619, 666.6934
807.8440, 662.5743
808.3261, 660.8013
808.8082, 664.5197
809.2903, 671.7462
809.7725, 680.8690
810.2546, 691.5477
810.7367, 701.3098
811.2188, 714.4039
811.7009, 716.0284
812.1830, 695.3564
812.6652, 673.5375
813.1473, 661.1312
813.6294, 657.2057
814.1115, 660.9056
814.5936, 674.3025
815.0757, 688.1420
815.5579, 703.4594
816.0400, 715.6591
816.5221, 723.2571
817.0042, 725.6354
817.4863, 719.4506
817.9684, 705.8950
818.4506, 695.3292
818.9327, 694.7794
819.4148, 699.2280
819.8969, 705.4951
820.3790, 711.9377
820.8611, 713.3787
821.3433, 710.4930
821.8254, 711.8388
822.3075, 722.8298
822.7896, 736.4083
823.2717, 724.0663
823.7538, 672.9014
824.2360, 691.9516
824.7181, 703.5190
825.2002, 708.0068
825.6823, 684.2092
826.1644, 696.9362
826.6465, 695.0255
827.1287, 692.5154
827.6108, 710.3828
828.0929, 690.6992
828.5750, 708.2437
829.0571, 710.2569
829.5392, 714.9141
830.0214, 708.2988
830.5035, 696.7941
830.9856, 695.7523
831.4677, 710.2745
831.9498, 724.2290
832.4319, 736.4899
832.9141, 742.7749
833.3962, 735.7541
833.8783, 723.1769
834.3604, 715.9537
834.8425, 715.8748
835.3246, 718.2271
835.8068, 721.6699
836.2889, 723.6018
836.7710, 719.3327
837.2531, 711.7277
837.7352, 706.2097
838.2173, 703.7324
838.6995, 705.2077
839.1816, 711.3794
839.6637, 718.1614
840.1458, 716.8439
840.6279, 708.6086
841.1100, 711.9207
841.5922, 728.4932
842.0743, 739.4680
842.5564, 737.7642
843.0385, 731.6885
843.5206, 729.3281
844.0027, 730.4076
844.4849, 732.3359
844.9670, 734.2040
845.4491, 738.9483
845.9312, 751.0320
846.4133, 761.0842
846.8954, 763.5279
847.3776, 761.2114
847.8597, 757.3843
848.3418, 750.9750
848.8239, 750.7860
849.3060, 762.5211
849.7881, 776.0411
850.2703, 787.5524
850.7524, 798.0337
851.2345, 809.1702
851.7166, 820.6227
852.1987, 829.9926
852.6808, 835.2888
853.1630, 840.4894
853.6451, 847.6448
854.1272, 857.3021
854.6093, 874.8924
855.0914, 895.5721
855.5735, 905.1496
856.0557, 898.7087
856.5378, 884.2700
857.0199, 867.6407
857.5020, 850.7874
857.9841, 838.9023
858.4662, 831.7778
858.9484, 830.2031
859.4305, 834.4827
859.9126, 832.8302
860.3947, 815.4625
860.8768, 790.3533
861.3589, 776.8361
861.8411, 776.3680
862.3232, 778.3778
862.8053, 784.1542
863.2874, 788.2696
863.7695, 787.9308
864.2516, 786.2030
864.7338, 787.9503
865.2159, 792.9969
865.6980, 790.2709
866.1801, 772.6628
866.6622, 757.6075
867.1443, 740.0878
867.6265, 731.6579
868.1086, 746.0624
868.5907, 771.6578
869.0728, 788.0615
869.5549, 792.4329
870.0370, 788.5012
870.5192, 769.2891
871.0013, 751.2278
871.4834, 744.2402
871.9655, 742.9179
872.4476, 739.6674
872.9297, 735.0718
873.4119, 736.7993
873.8940, 750.9964
874.3761, 765.0587
874.8582, 765.1592
875.3403, 760.4659
875.8224, 766.9491
876.3046, 780.0583
876.7867, 781.9509
877.2688, 767.6654
877.7509, 753.1185
878.2330, 754.7116
878.7151, 765.3898
879.1973, 770.8339
879.6794, 771.1616
880.1615, 765.1434
880.6436, 752.9420
881.1257, 742.7728
881.6078, 739.0364
882.0900, 742.7418
882.5721, 759.5515
883.0542, 790.1508
883.5363, 799.7667
884.0184, 783.4587
884.5005, 770.7315
884.9827, 771.1692
885.4648, 775.0614
885.9469, 773.5360
886.4290, 767.7144
886.9111, 763.4453
887.3932, 760.5276
887.8754, 759.5277
888.3575, 759.6574
888.8396, 762.7584
889.3217, 773.1132
889.8038, 784.8903
890.2859, 789.6662
890.7681, 787.1871
891.2502, 788.7246
891.7323, 805.0046
892.2144, 812.2927
892.6965, 795.8354
893.1786, 776.8521
893.6608, 770.5522
894.1429, 773.9728
894.6250, 778.6854
895.1071, 782.7733
895.5892, 787.7718
896.0714, 796.8805
896.5535, 804.4694
897.0356, 804.2849
897.5177, 801.5650
897.9998, 804.5682
898.4819, 812.7352
898.9641, 818.9324
899.4462, 819.9219
899.9283, 816.4340
900.4104, 802.4655
900.8925, 788.6426
901.3746, 795.0984
901.8568, 815.3017
902.3389, 827.7181
902.8210, 826.5268
903.3031, 823.1575
903.7852, 827.6065
904.2673, 835.7254
904.7495, 840.2142
905.2316, 841.3295
905.7137, 840.5652
906.1958, 837.8509
906.6779, 827.6703
907.1600, 806.4937
907.6422, 789.7230
908.1243, 803.3580
908.6064, 840.6633
909.0885, 849.6719
909.5706, 828.4644
910.0527, 814.1709
910.5349, 815.0244
911.0170, 819.3389
911.4991, 819.2042
911.9812, 816.6249
912.4633, 815.8598
912.9454, 816.3342
913.4276, 823.1834
913.9097, 841.2303
914.3918, 852.1953
914.8739, 844.3932
915.3560, 837.3503
915.8381, 853.7662
916.3203, 887.1967
916.8024, 901.6505
917.2845, 882.8303
917.7666, 871.0301
918.2487, 874.9756
918.7308, 875.4576
919.2130, 856.7206
919.6951, 836.6052
920.1772, 839.8347
920.6593, 865.4042
921.1414, 878.7709
921.6235, 867.8641
922.1057, 856.1953
922.5878, 842.8034
923.0699, 835.4631
923.5520, 822.7828
924.0341, 813.1970
924.5162, 834.9173
924.9984, 848.3138
925.4805, 853.8320
925.9626, 827.8785
926.4447, 842.5643
926.9268, 840.9638
927.4089, 838.6951
927.8911, 859.1013
928.3732, 837.7256
928.8553, 857.7712
929.3374, 861.2825
929.8195, 872.3612
930.3016, 867.0529
930.7838, 854.3480
931.2659, 854.6536
931.7480, 852.6050
932.2301, 843.8341
932.7122, 829.8259
933.1943, 816.6812
933.6765, 806.2698
934.1586, 805.1404
934.6407, 829.2406
935.1228, 860.5193
935.6049, 849.1018
936.0870, 798.9619
936.5692, 809.7755
937.0513, 814.2358
937.5334, 812.6824
938.0155, 787.1053
938.4976, 792.5499
938.9797, 785.5629
939.4619, 778.0647
939.9440, 787.8759
940.4261, 765.7931
940.9082, 775.3293
941.3903, 797.9781
941.8724, 814.6284
942.3546, 827.7541
942.8367, 835.1691
943.3188, 828.1660
943.8009, 809.4290
944.2830, 795.4809
944.7651, 788.1041
945.2472, 788.4709
945.7293, 797.7054
946.2114, 807.2441
946.6935, 806.1066
947.1757, 796.2698
947.6578, 786.9122
948.1399, 777.9484
948.6220, 770.6022
949.1041, 764.3853
949.5862, 767.0679
950.0684, 785.0477
950.5505, 806.8373
951.0326, 813.8889
951.5147, 806.6047
951.9968, 798.5225
952.4789, 788.7115
952.9611, 783.2018
953.4432, 783.8494
953.9253, 786.8006
954.4074, 790.2847
954.8895, 793.4710
955.3716, 795.0947
955.8538, 795.6195
956.3359, 789.1855
956.8180, 769.7319
957.3001, 760.1215
957.7822, 768.1426
958.2643, 783.0062
958.7465, 801.3043
959.2286, 817.7285
959.7107, 815.9138
960.1928, 787.2205
960.6749, 772.6870
961.1570, 775.0256
961.6392, 787.3784
962.1213, 819.1790
962.6034, 847.4536
963.0855, 850.4068
963.5676, 834.5062
964.0497, 824.0472
964.5319, 821.2056
965.0140, 818.5310
965.4961, 811.4612
965.9782, 810.5791
966.4603, 826.9751
966.9424, 844.3037
967.4246, 847.5017
967.9067, 838.8104
968.3888, 828.6480
968.8709, 812.4988
969.3530, 804.6838
969.8351, 811.9874
970.3173, 820.4714
970.7994, 823.6178
971.2815, 826.5194
971.7636, 836.3201
972.2457, 851.4751
972.7278, 861.6028
973.2100, 862.6413
973.6921, 864.0414
974.1742, 868.8391
974.6563, 872.3752
975.1384, 856.6955
975.6205, 838.8448
976.1027, 848.8161
976.5848, 853.3140
977.0669, 852.6313
977.5490, 831.2531
978.0311, 836.5989
978.5132, 831.2354
978.9954, 815.3121
979.4775, 832.3372
979.9596, 843.8884
980.4417, 850.2594
980.9238, 835.9348
981.4059, 848.3337
981.8881, 850.0245
982.3702, 851.2744
982.8523, 867.4352
983.3344, 849.4146
983.8165, 857.6033
984.2986, 872.4070
984.7808, 878.0500
985.2629, 873.6202
985.7450, 871.1156
986.2271, 876.0079
986.7092, 880.8492
987.1913, 885.1647
987.6735, 886.2536
988.1556, 876.6803
988.6377, 865.4588
989.1198, 868.0133
989.6019, 884.9050
990.0840, 898.4026
990.5662, 898.1999
991.0483, 899.3169
991.5304, 908.8737
992.0125, 921.2983
992.4946, 935.0298
992.9767, 947.4005
993.4589, 952.7410
993.9410, 951.4750
994.4231, 953.7792
994.9052, 936.4406
995.3873, 968.9478
995.8694, 1009.297
996.3516, 1043.565
996.8337, 1072.058
997.3158, 1077.524
997.7979, 1112.729
998.2800, 1136.017
998.7621, 1158.813
999.2443, 1149.277
999.7264, 1162.038
1000.208, 1199.078
1000.691, 1244.829
1001.173, 1293.949
1001.655, 1339.608
1002.137, 1365.211
1002.619, 1372.694
1003.101, 1399.683
1003.583, 1476.556
1004.065, 1551.918
1004.548, 1595.272
1005.030, 1632.414
1005.512, 1683.842
1005.994, 1742.920
1006.476, 1796.902
1006.958, 1844.133
1007.440, 1892.017
1007.922, 1935.574
1008.404, 1993.374
1008.887, 2086.285
1009.369, 2184.688
1009.851, 2275.565
1010.333, 2351.769
1010.815, 2401.910
1011.297, 2427.566
1011.779, 2448.440
1012.261, 2474.040
1012.744, 2491.747
1013.226, 2501.555
1013.708, 2495.892
1014.190, 2469.825
1014.672, 2424.467
1015.154, 2359.457
1015.636, 2276.648
1016.118, 2181.724
1016.600, 2067.613
1017.083, 1961.112
1017.565, 1878.646
1018.047, 1799.678
1018.529, 1705.998
1019.011, 1610.688
1019.493, 1528.956
1019.975, 1462.522
1020.457, 1409.665
1020.940, 1377.721
1021.422, 1340.683
1021.904, 1278.931
1022.386, 1222.719
1022.868, 1191.081
1023.350, 1172.485
1023.832, 1155.401
1024.314, 1138.277
1024.797, 1121.272
1025.279, 1103.948
1025.761, 1087.837
1026.243, 1073.467
1026.725, 1060.295
1027.207, 1050.007
1027.689, 1039.386
1028.171, 1022.771
1028.653, 1002.896
1029.135, 989.4101
1029.618, 983.3975
1030.100, 984.8399
1030.582, 1006.384
1031.064, 1019.154
1031.546, 1003.857
1032.028, 983.3804
1032.510, 977.4371
1032.992, 982.2872
1033.475, 983.9329
1033.957, 977.3640
1034.439, 982.5756
1034.921, 1023.165
1035.403, 1045.804
1035.885, 1020.542
1036.367, 989.0585
1036.849, 981.1836
1037.332, 988.6057
1037.814, 992.5221
1038.296, 991.9173
1038.778, 991.7557
1039.260, 992.8766
1039.742, 993.1630
1040.224, 993.4009
1040.706, 991.0992
1041.188, 978.7424
1041.671, 967.0181
1042.153, 978.5428
1042.635, 1016.017
1043.117, 1031.131
1043.599, 1013.265
1044.081, 995.0064
1044.563, 973.0840
1045.045, 964.4715
1045.527, 984.5746
1046.010, 1013.644
1046.492, 1025.590
1046.974, 1021.144
1047.456, 1010.447
1047.938, 990.5793
1048.420, 974.6981
1048.902, 964.3371
1049.384, 956.8005
1049.866, 951.6700
1050.349, 947.3019
1050.831, 941.6231
1051.313, 935.3503
1051.795, 932.8879
1052.277, 935.5322
1052.759, 930.0223
1053.241, 913.7874
1053.723, 902.7419
1054.206, 902.5186
1054.688, 906.1601
1055.170, 907.8324
1055.652, 908.3112
1056.134, 911.4681
1056.616, 916.8661
1057.098, 906.9550
1057.580, 881.6226
1058.063, 872.0135
1058.545, 885.9109
1059.027, 902.1121
1059.509, 906.6996
1059.991, 901.9895
1060.473, 888.4003
1060.955, 869.0569
1061.437, 852.9996
1061.919, 843.0751
1062.401, 820.6359
1062.884, 832.6151
1063.366, 838.5025
1063.848, 838.6208
1064.330, 815.6936
1064.812, 822.5251
1065.294, 817.4309
1065.776, 811.8472
1066.258, 822.8671
1066.741, 803.2878
1067.223, 814.0444
1067.705, 812.6934
1068.187, 801.1658
1068.669, 795.6339
1069.151, 792.8946
1069.633, 793.5344
1070.115, 801.6968
1070.598, 811.3549
1071.080, 813.2093
1071.562, 809.1613
1072.044, 803.3618
1072.526, 797.7799
1073.008, 796.4453
1073.490, 802.8154
1073.972, 810.2664
1074.454, 817.4413
1074.937, 820.0883
1075.419, 810.4452
1075.901, 796.1742
1076.383, 785.8988
1076.865, 781.5480
1077.347, 784.7332
1077.829, 798.0815
1078.311, 808.9706
1078.793, 811.6903
1079.276, 811.2508
1079.758, 810.6121
1080.240, 807.5740
1080.722, 799.6301
1081.204, 787.7579
1081.686, 772.3924
1082.168, 752.1441
1082.650, 741.9180
1083.133, 748.5822
1083.615, 758.7927
1084.097, 780.1277
1084.579, 793.0224
1085.061, 775.0125
1085.543, 748.7568
1086.025, 749.8996
1086.507, 776.5150
1086.990, 785.3558
1087.472, 764.3439
1087.954, 752.5643
1088.436, 755.2288
1088.918, 759.6772
1089.400, 761.6432
1089.882, 763.6605
1090.364, 769.9224
1090.846, 776.6351
1091.328, 768.5630
1091.811, 741.7540
1092.293, 730.8740
1092.775, 738.4834
1093.257, 743.2531
1093.739, 739.5991
1094.221, 737.5246
1094.703, 744.3659
1095.185, 752.6393
1095.668, 748.4019
1096.150, 735.1172
1096.632, 730.8696
1097.114, 734.5187
1097.596, 740.3088
1098.078, 746.2307
1098.560, 741.0611
1099.042, 720.5148
1099.525, 703.5471
1100.007, 710.5754
1100.489, 728.0231
1100.971, 733.2024
1101.453, 732.1762
1101.935, 741.3601
1102.417, 754.6985
1102.899, 749.7715
1103.381, 725.3002
1103.864, 705.8838
1104.346, 706.7686
1104.828, 710.4608
1105.310, 699.6983
1105.792, 687.8073
1106.274, 689.5720
1106.756, 696.6171
1107.238, 694.7442
1107.720, 687.4244
1108.203, 691.6481
1108.685, 713.5759
1109.167, 725.6666
1109.649, 706.0175
1110.131, 689.9178
1110.613, 695.7706
1111.095, 705.5489
1111.577, 707.8220
1112.060, 704.5668
1112.542, 699.1821
1113.024, 692.0065
1113.506, 684.5215
1113.988, 670.9261
1114.470, 667.4898
1114.952, 683.8912
1115.434, 695.1025
1115.917, 690.6435
1116.399, 681.3843
1116.881, 675.7283
1117.363, 673.4100
1117.845, 674.6022
1118.327, 680.2317
1118.809, 679.0862
1119.291, 669.8010
1119.773, 663.0588
1120.255, 661.0339
1120.738, 660.3905
1121.220, 659.2770
1121.702, 659.1152
1122.184, 662.4147
1122.666, 667.4177
1123.148, 667.8484
1123.630, 664.8401
1124.112, 663.4102
1124.595, 663.8553
1125.077, 662.6796
1125.559, 660.1450
1126.041, 632.3297
1126.523, 636.2618
1127.005, 635.3187
1127.487, 629.7639
1127.969, 605.7871
1128.452, 584.7509
1128.934, 607.7645
1129.416, 610.8193
1129.898, 613.0538
1130.380, 643.0800
1130.862, 621.8982
1131.344, 651.4818
1131.826, 660.8022
1132.308, 628.5187
1132.791, 630.9495
1133.273, 635.3310
1133.755, 625.8726
1134.237, 611.3830
1134.719, 605.9160
1135.201, 609.8508
1135.683, 614.3733
1136.165, 619.0291
1136.647, 623.5066
1137.130, 629.7315
1137.612, 632.7434
1138.094, 631.0423
1138.576, 625.5784
1139.058, 614.5707
1139.540, 603.2031
1140.022, 603.4384
1140.504, 615.1796
1140.987, 618.9360
1141.469, 614.0341
1141.951, 607.2653
1142.433, 599.2369
1142.915, 595.2952
1143.397, 597.9155
1143.879, 601.7468
1144.361, 601.4122
1144.844, 599.3519
1145.326, 601.4402
1145.808, 605.4769
1146.290, 605.7285
1146.772, 602.4001
1147.254, 594.5662
1147.736, 584.3098
1148.218, 581.5356
1148.700, 591.1915
1149.182, 601.1808
1149.665, 601.0518
1150.147, 598.2894
1150.629, 598.4881
1151.111, 599.8925
1151.593, 600.9664
1152.075, 601.6174
1152.557, 602.4489
1153.039, 603.2823
1153.522, 602.0505
1154.004, 597.2095
1154.486, 592.4070
1154.968, 587.3360
1155.450, 583.7018
1155.932, 586.3734
1156.414, 585.9895
1156.896, 571.4343
1157.379, 551.9791
1157.861, 547.6799
1158.343, 559.0525
1158.825, 568.6192
1159.307, 577.3180
1159.789, 577.6205
1160.271, 567.1323
1160.753, 561.0449
1161.235, 565.7136
1161.718, 572.3243
1162.200, 572.8902
1162.682, 569.4432
1163.164, 563.3475
1163.646, 557.4700
1164.128, 562.8288
1164.610, 575.7006
1165.092, 584.6970
1165.574, 588.0236
1166.057, 587.0495
1166.539, 582.5052
1167.021, 579.9150
1167.503, 585.5795
1167.985, 591.7915
1168.467, 595.3452
1168.949, 594.1735
1169.431, 579.1691
1169.914, 562.6489
1170.396, 567.1229
1170.878, 588.5117
1171.360, 596.3246
1171.842, 579.5009
1172.324, 567.1624
1172.806, 563.7416
1173.288, 563.5427
1173.771, 567.7373
1174.253, 571.3527
1174.735, 570.9833
1175.217, 569.6437
1175.699, 572.5188
1176.181, 577.8417
1176.663, 571.5712
1177.145, 552.7924
1177.627, 557.6414
1178.109, 587.1591
1178.592, 598.6061
1179.074, 581.7961
1179.556, 562.9185
1180.038, 558.0206
1180.520, 560.7253
1181.002, 564.7396
1181.484, 569.8021
1181.966, 578.7680
1182.449, 586.4265
1182.931, 582.2900
1183.413, 569.9333
1183.895, 558.6246
1184.377, 550.3651
1184.859, 542.1304
1185.341, 530.0313
1185.823, 525.4960
1186.306, 537.3633
1186.788, 552.2181
1187.270, 568.3033
1187.752, 580.6646
1188.234, 586.3008
1188.716, 584.9124
1189.198, 574.4241
1189.680, 555.1435
1190.162, 539.6807
1190.645, 525.2727
1191.127, 527.9435
1191.609, 534.3237
1192.091, 541.9442
1192.573, 545.8152
1193.055, 546.1384
1193.537, 532.2878
1194.019, 536.7398
1194.501, 533.8571
1194.984, 530.6714
1195.466, 537.6996
1195.948, 525.9105
1196.430, 532.7765
1196.912, 532.1960
1197.394, 535.0234
1197.876, 530.4709
1198.358, 521.9421
1198.841, 543.3133
1199.323, 564.7102
1199.805, 562.7109
1200.287, 555.8456
1200.769, 552.6662
1201.251, 551.5364
1201.733, 548.4583
1202.215, 546.8549
1202.698, 556.8478
1203.180, 578.0112
1203.662, 587.7473
1204.144, 581.6744
1204.626, 577.0939
1205.108, 574.4281
1205.590, 575.7050
1206.072, 582.8754
1206.554, 584.8279
1207.036, 573.1072
1207.519, 556.5134
1208.001, 546.9041
1208.483, 544.1107
1208.965, 552.9466
1209.447, 566.2856
1209.929, 561.4734
1210.411, 544.8808
1210.893, 541.3812
1211.376, 554.3986
1211.858, 567.1136
1212.340, 571.8311
1212.822, 574.5054
1213.304, 577.1996
1213.786, 580.4174
1214.268, 589.1622
1214.750, 593.7376
1215.233, 580.6307
1215.715, 561.7327
1216.197, 558.6332
1216.679, 568.5620
1217.161, 568.0142
1217.643, 551.4197
1218.125, 545.0206
1218.607, 549.4243
1219.089, 565.3925
1219.572, 595.1747
1220.054, 608.9192
1220.536, 589.2365
1221.018, 564.6280
1221.500, 569.1634
1221.982, 587.5609
1222.464, 594.7521
1222.946, 592.6072
1223.428, 578.8481
1223.911, 561.1147
1224.393, 555.9695
1224.875, 562.1495
1225.357, 564.8063
1225.839, 558.9333
1226.321, 554.1758
1226.803, 552.1611
1227.285, 555.0132
1227.768, 572.6518
1228.250, 583.7618
1228.732, 572.6708
1229.214, 555.5580
1229.696, 544.3895
1230.178, 540.5019
1230.660, 549.6061
##END=



