##NAMES=Diopside
##RRUFFID=R060171
##IDEAL CHEMISTRY=CaMgSi_2_O_6_
##LOCALITY=Jeffrey mine, Asbestos, Quebec, Canada
##OWNER=RRUFF
##SOURCE=Guy Ouellet
##DESCRIPTION=Yellowish-brown tabular crystals associated with vesuvianite, R060170
##STATUS=The identification of this mineral has been confirmed by X-ray diffraction and chemical analysis
##URL=rruff.info/R060171
##MEASURED CHEMISTRY=Ca_1.00_(Mg_0.98_Mn_0.02_)_Î£=1_Si_2.00_O_6_
92.02539, 3529.568
92.50751, 3471.474
92.98962, 3469.563
93.47174, 3509.489
93.95386, 3576.703
94.43597, 3632.154
94.91809, 3665.536
95.40021, 3683.755
95.88232, 3694.911
96.36444, 3698.658
96.84656, 3695.994
97.32867, 3688.595
97.81078, 3678.402
98.29290, 3667.531
98.77502, 3655.263
99.25713, 3635.961
99.73925, 3616.538
100.2214, 3595.654
100.7035, 3577.077
101.1856, 3562.263
101.6677, 3550.938
102.1498, 3541.802
102.6320, 3533.203
103.1141, 3523.604
103.5962, 3518.762
104.0783, 3520.813
104.5604, 3526.195
105.0425, 3531.245
105.5247, 3534.872
106.0068, 3537.430
106.4889, 3538.491
106.9710, 3537.766
107.4531, 3536.634
107.9352, 3535.413
108.4173, 3534.069
108.8995, 3532.601
109.3816, 3529.721
109.8637, 3527.609
110.3458, 3528.541
110.8279, 3533.021
111.3100, 3539.374
111.7922, 3546.076
112.2743, 3553.527
112.7564, 3559.806
113.2385, 3565.579
113.7206, 3569.612
114.2027, 3570.466
114.6849, 3567.364
115.1670, 3561.028
115.6491, 3553.930
116.1312, 3543.097
116.6133, 3535.032
117.0954, 3532.340
117.5776, 3532.801
118.0597, 3532.909
118.5418, 3530.058
119.0239, 3524.142
119.5060, 3520.969
119.9881, 3521.990
120.4703, 3523.690
120.9524, 3524.722
121.4345, 3525.067
121.9166, 3525.482
122.3987, 3526.907
122.8808, 3529.552
123.3630, 3530.300
123.8451, 3527.175
124.3272, 3523.132
124.8093, 3521.306
125.2914, 3522.389
125.7735, 3524.303
126.2557, 3524.600
126.7378, 3523.626
127.2199, 3522.750
127.7020, 3522.502
128.1841, 3522.761
128.6662, 3523.165
129.1483, 3523.788
129.6305, 3524.412
130.1126, 3524.622
130.5947, 3524.519
131.0768, 3524.890
131.5589, 3526.737
132.0410, 3530.322
132.5232, 3533.308
133.0053, 3534.750
133.4874, 3535.985
133.9695, 3537.237
134.4516, 3538.714
134.9337, 3541.073
135.4159, 3545.574
135.8980, 3553.978
136.3801, 3561.296
136.8622, 3566.297
137.3443, 3570.795
137.8264, 3576.391
138.3086, 3583.684
138.7907, 3592.012
139.2728, 3599.405
139.7549, 3609.948
140.2370, 3614.632
140.7191, 3610.561
141.2013, 3600.578
141.6834, 3588.312
142.1655, 3575.349
142.6476, 3562.063
143.1297, 3550.309
143.6118, 3539.829
144.0939, 3530.759
144.5761, 3523.044
145.0582, 3516.766
145.5403, 3512.337
146.0224, 3510.769
146.5045, 3511.160
146.9866, 3510.392
147.4688, 3507.111
147.9509, 3503.667
148.4330, 3502.868
148.9151, 3505.226
149.3972, 3506.998
149.8793, 3504.324
150.3615, 3499.956
150.8436, 3497.422
151.3257, 3498.908
151.8078, 3502.534
152.2899, 3503.765
152.7720, 3500.910
153.2542, 3498.585
153.7363, 3499.315
154.2184, 3501.612
154.7005, 3503.166
155.1826, 3502.297
155.6647, 3499.305
156.1469, 3497.352
156.6290, 3497.120
157.1111, 3497.400
157.5932, 3498.387
158.0753, 3499.666
158.5574, 3500.422
159.0396, 3499.804
159.5217, 3497.505
160.0038, 3496.672
160.4859, 3498.378
160.9680, 3500.355
161.4501, 3501.363
161.9323, 3501.586
162.4144, 3502.288
162.8965, 3504.951
163.3786, 3510.443
163.8607, 3514.004
164.3428, 3515.528
164.8250, 3515.435
165.3071, 3513.665
165.7892, 3510.293
166.2713, 3506.059
166.7534, 3501.396
167.2355, 3496.059
167.7177, 3492.635
168.1998, 3493.212
168.6819, 3495.226
169.1640, 3495.346
169.6461, 3492.746
170.1282, 3488.784
170.6104, 3484.646
171.0925, 3480.354
171.5746, 3476.629
172.0567, 3473.758
172.5388, 3471.676
173.0209, 3470.186
173.5031, 3469.195
173.9852, 3468.977
174.4673, 3469.917
174.9494, 3471.893
175.4315, 3473.777
175.9136, 3473.911
176.3958, 3472.426
176.8779, 3473.608
177.3600, 3481.487
177.8421, 3489.364
178.3242, 3492.968
178.8063, 3492.362
179.2885, 3490.709
179.7706, 3491.318
180.2527, 3494.740
180.7348, 3498.084
181.2169, 3503.909
181.6990, 3507.626
182.1812, 3506.027
182.6633, 3498.915
183.1454, 3488.946
183.6275, 3479.289
184.1096, 3468.426
184.5917, 3461.534
185.0738, 3460.406
185.5560, 3461.208
186.0381, 3461.185
186.5202, 3459.679
187.0023, 3458.078
187.4844, 3458.825
187.9665, 3464.368
188.4487, 3468.472
188.9308, 3469.749
189.4129, 3470.305
189.8950, 3471.923
190.3771, 3475.192
190.8592, 3479.825
191.3414, 3485.479
191.8235, 3493.297
192.3056, 3499.929
192.7877, 3504.923
193.2698, 3508.538
193.7519, 3511.153
194.2341, 3512.913
194.7162, 3513.666
195.1983, 3513.340
195.6804, 3513.113
196.1625, 3509.336
196.6446, 3499.660
197.1268, 3485.602
197.6089, 3469.899
198.0910, 3452.240
198.5731, 3435.301
199.0552, 3423.290
199.5373, 3416.487
200.0195, 3411.271
200.5016, 3405.808
200.9837, 3400.264
201.4658, 3395.571
201.9479, 3392.078
202.4300, 3389.574
202.9122, 3387.727
203.3943, 3386.548
203.8764, 3385.797
204.3585, 3385.669
204.8406, 3386.162
205.3227, 3385.804
205.8048, 3383.805
206.2870, 3381.096
206.7691, 3378.099
207.2512, 3374.892
207.7333, 3371.942
208.2154, 3369.922
208.6975, 3369.024
209.1797, 3367.899
209.6618, 3365.902
210.1439, 3363.877
210.6260, 3362.174
211.1081, 3360.887
211.5902, 3360.081
212.0724, 3360.123
212.5545, 3361.673
213.0366, 3361.985
213.5187, 3360.061
214.0008, 3357.532
214.4829, 3355.121
214.9651, 3353.078
215.4472, 3351.465
215.9293, 3350.400
216.4114, 3350.024
216.8935, 3349.974
217.3756, 3351.215
217.8578, 3352.081
218.3399, 3350.853
218.8220, 3347.424
219.3041, 3343.600
219.7862, 3342.272
220.2683, 3345.431
220.7505, 3347.356
221.2326, 3346.706
221.7147, 3345.803
222.1968, 3346.736
222.6789, 3349.890
223.1610, 3353.797
223.6432, 3356.260
224.1253, 3356.304
224.6074, 3356.766
225.0895, 3357.523
225.5716, 3358.744
226.0537, 3360.635
226.5358, 3363.236
227.0180, 3366.303
227.5001, 3369.475
227.9822, 3372.567
228.4643, 3376.428
228.9464, 3381.708
229.4285, 3387.500
229.9107, 3392.613
230.3928, 3396.751
230.8749, 3400.914
231.3570, 3406.617
231.8391, 3414.062
232.3212, 3420.855
232.8034, 3427.007
233.2855, 3432.164
233.7676, 3436.806
234.2497, 3441.509
234.7318, 3442.884
235.2139, 3435.543
235.6961, 3420.601
236.1782, 3403.758
236.6603, 3384.064
237.1424, 3364.031
237.6245, 3347.479
238.1066, 3335.098
238.5888, 3325.167
239.0709, 3316.285
239.5530, 3308.424
240.0351, 3302.036
240.5172, 3298.227
240.9993, 3295.776
241.4815, 3291.847
241.9636, 3285.142
242.4457, 3279.902
242.9278, 3281.063
243.4099, 3285.954
243.8920, 3289.068
244.3742, 3286.789
244.8563, 3281.354
245.3384, 3277.793
245.8205, 3276.387
246.3026, 3276.353
246.7847, 3277.460
247.2668, 3279.475
247.7490, 3282.237
248.2311, 3286.371
248.7132, 3290.868
249.1953, 3292.975
249.6774, 3291.356
250.1595, 3290.035
250.6417, 3290.506
251.1238, 3292.278
251.6059, 3294.959
252.0880, 3298.698
252.5701, 3302.844
253.0522, 3306.003
253.5344, 3308.645
254.0165, 3309.130
254.4986, 3306.829
254.9807, 3302.603
255.4628, 3297.265
255.9449, 3291.161
256.4271, 3284.250
256.9092, 3276.203
257.3913, 3266.292
257.8734, 3256.677
258.3555, 3247.473
258.8376, 3238.877
259.3198, 3230.797
259.8019, 3223.215
260.2840, 3216.673
260.7661, 3212.708
261.2482, 3213.756
261.7303, 3212.657
262.2125, 3207.098
262.6946, 3200.243
263.1767, 3194.573
263.6588, 3190.872
264.1409, 3188.525
264.6230, 3186.612
265.1052, 3185.934
265.5873, 3183.981
266.0694, 3179.792
266.5515, 3175.068
267.0336, 3170.897
267.5157, 3167.601
267.9979, 3164.989
268.4800, 3162.776
268.9621, 3160.831
269.4442, 3159.721
269.9263, 3160.831
270.4084, 3161.633
270.8906, 3160.462
271.3727, 3157.140
271.8548, 3152.555
272.3369, 3147.535
272.8190, 3141.421
273.3011, 3137.409
273.7833, 3136.754
274.2654, 3136.744
274.7475, 3136.022
275.2296, 3134.471
275.7117, 3132.661
276.1938, 3131.196
276.6760, 3130.248
277.1581, 3128.565
277.6402, 3125.755
278.1223, 3122.758
278.6044, 3119.308
279.0865, 3115.887
279.5686, 3113.879
280.0508, 3114.627
280.5329, 3118.213
281.0150, 3120.070
281.4971, 3118.707
281.9792, 3117.465
282.4613, 3118.295
282.9435, 3120.273
283.4256, 3121.059
283.9077, 3119.056
284.3898, 3114.555
284.8719, 3110.333
285.3540, 3106.029
285.8362, 3102.293
286.3183, 3099.288
286.8004, 3096.962
287.2825, 3095.311
287.7646, 3094.382
288.2467, 3093.976
288.7289, 3093.391
289.2110, 3092.486
289.6931, 3091.616
290.1752, 3091.233
290.6573, 3090.836
291.1394, 3089.440
291.6216, 3086.600
292.1037, 3083.347
292.5858, 3081.905
293.0679, 3083.797
293.5500, 3084.601
294.0321, 3082.831
294.5143, 3080.234
294.9964, 3078.775
295.4785, 3078.981
295.9606, 3080.062
296.4427, 3080.936
296.9248, 3081.478
297.4070, 3082.216
297.8891, 3082.731
298.3712, 3083.705
298.8533, 3086.112
299.3354, 3089.975
299.8175, 3093.954
300.2997, 3096.577
300.7818, 3097.524
301.2639, 3099.287
301.7460, 3101.924
302.2281, 3105.272
302.7102, 3109.827
303.1924, 3115.306
303.6745, 3120.176
304.1566, 3123.137
304.6387, 3124.256
305.1208, 3125.967
305.6029, 3126.964
306.0851, 3129.687
306.5672, 3135.817
307.0493, 3144.790
307.5314, 3154.955
308.0135, 3165.667
308.4956, 3176.632
308.9778, 3186.386
309.4599, 3194.455
309.9420, 3202.178
310.4241, 3210.703
310.9062, 3219.120
311.3883, 3225.543
311.8705, 3229.148
312.3526, 3230.476
312.8347, 3230.341
313.3168, 3228.305
313.7989, 3226.167
314.2810, 3222.553
314.7632, 3219.631
315.2453, 3220.161
315.7274, 3224.903
316.2095, 3233.115
316.6916, 3244.097
317.1737, 3258.128
317.6559, 3274.329
318.1380, 3291.012
318.6201, 3310.821
319.1022, 3337.325
319.5843, 3370.777
320.0664, 3406.592
320.5485, 3441.119
321.0306, 3474.043
321.5128, 3505.423
321.9949, 3539.197
322.4770, 3568.388
322.9591, 3591.644
323.4412, 3607.332
323.9233, 3610.115
324.4055, 3596.056
324.8876, 3565.458
325.3697, 3525.012
325.8518, 3469.201
326.3339, 3411.155
326.8160, 3351.759
327.2982, 3293.723
327.7803, 3242.332
328.2624, 3200.297
328.7445, 3165.694
329.2266, 3133.572
329.7087, 3102.515
330.1909, 3075.837
330.6730, 3055.950
331.1551, 3040.277
331.6372, 3025.694
332.1193, 3011.302
332.6014, 2997.602
333.0836, 2985.116
333.5657, 2973.698
334.0478, 2964.581
334.5299, 2959.250
335.0120, 2955.348
335.4941, 2951.118
335.9763, 2946.316
336.4584, 2941.266
336.9405, 2936.158
337.4226, 2930.922
337.9047, 2926.882
338.3868, 2924.648
338.8690, 2922.836
339.3511, 2920.953
339.8332, 2918.908
340.3153, 2916.640
340.7974, 2914.110
341.2795, 2911.335
341.7617, 2908.412
342.2438, 2904.253
342.7259, 2901.253
343.2080, 2900.865
343.6901, 2901.762
344.1722, 2901.787
344.6544, 2900.027
345.1365, 2897.582
345.6186, 2896.754
346.1007, 2899.296
346.5828, 2900.892
347.0649, 2899.935
347.5471, 2898.948
348.0292, 2900.623
348.5113, 2905.234
348.9934, 2910.534
349.4755, 2913.667
349.9576, 2913.788
350.4398, 2915.273
350.9219, 2917.346
351.4040, 2921.179
351.8861, 2928.159
352.3682, 2937.556
352.8503, 2947.420
353.3325, 2956.339
353.8146, 2964.291
354.2967, 2971.265
354.7788, 2978.175
355.2609, 2983.036
355.7430, 2986.098
356.2252, 2986.655
356.7073, 2983.827
357.1894, 2977.180
357.6715, 2966.929
358.1536, 2953.272
358.6357, 2932.622
359.1179, 2913.972
359.5999, 2897.731
360.0821, 2883.374
360.5642, 2870.590
361.0463, 2859.246
361.5284, 2849.503
362.0105, 2841.606
362.4926, 2835.895
362.9748, 2830.826
363.4569, 2827.618
363.9390, 2823.913
364.4211, 2817.957
364.9032, 2810.509
365.3853, 2803.784
365.8675, 2799.449
366.3496, 2797.325
366.8317, 2795.740
367.3138, 2794.926
367.7959, 2794.397
368.2780, 2793.756
368.7602, 2793.409
369.2423, 2794.184
369.7244, 2796.496
370.2065, 2799.161
370.6886, 2799.617
371.1707, 2796.770
371.6529, 2794.425
372.1350, 2793.027
372.6171, 2792.312
373.0992, 2792.634
373.5813, 2793.803
374.0634, 2794.518
374.5456, 2792.746
375.0277, 2788.277
375.5098, 2786.004
375.9919, 2787.227
376.4740, 2789.556
376.9561, 2792.586
377.4383, 2795.814
377.9204, 2798.110
378.4025, 2798.273
378.8846, 2797.391
379.3667, 2798.397
379.8488, 2801.370
380.3310, 2806.098
380.8131, 2813.748
381.2952, 2822.506
381.7773, 2830.332
382.2594, 2836.443
382.7415, 2842.818
383.2237, 2851.329
383.7058, 2861.981
384.1879, 2874.474
384.6700, 2888.899
385.1521, 2905.212
385.6342, 2923.603
386.1164, 2943.838
386.5985, 2964.425
387.0806, 2984.040
387.5627, 3003.276
388.0448, 3024.791
388.5269, 3050.192
389.0091, 3072.946
389.4912, 3088.302
389.9733, 3097.398
390.4554, 3101.690
390.9375, 3101.566
391.4196, 3096.640
391.9018, 3085.584
392.3839, 3068.749
392.8660, 3049.688
393.3481, 3029.767
393.8302, 3008.535
394.3123, 2984.954
394.7945, 2958.273
395.2766, 2931.922
395.7587, 2907.399
396.2408, 2884.072
396.7229, 2861.149
397.2050, 2838.230
397.6872, 2815.742
398.1693, 2793.350
398.6514, 2770.973
399.1335, 2752.640
399.6156, 2740.280
400.0977, 2730.415
400.5798, 2721.076
401.0620, 2712.066
401.5441, 2703.401
402.0262, 2695.099
402.5083, 2687.139
402.9904, 2679.634
403.4725, 2671.749
403.9547, 2665.242
404.4368, 2661.587
404.9189, 2659.062
405.4010, 2655.273
405.8831, 2649.551
406.3652, 2643.412
406.8474, 2639.163
407.3295, 2637.751
407.8116, 2635.628
408.2937, 2632.601
408.7758, 2629.146
409.2579, 2625.156
409.7401, 2620.917
410.2222, 2617.129
410.7043, 2614.329
411.1864, 2612.394
411.6685, 2610.116
412.1506, 2606.956
412.6328, 2604.133
413.1149, 2601.914
413.5970, 2600.088
414.0791, 2598.520
414.5612, 2597.144
415.0433, 2595.736
415.5255, 2593.944
416.0076, 2591.688
416.4897, 2589.294
416.9718, 2587.003
417.4539, 2584.385
417.9360, 2580.604
418.4182, 2576.148
418.9003, 2572.673
419.3824, 2571.611
419.8645, 2572.434
420.3466, 2572.882
420.8287, 2573.075
421.3109, 2572.569
421.7930, 2570.870
422.2751, 2568.553
422.7572, 2566.308
423.2393, 2564.390
423.7214, 2562.247
424.2036, 2558.796
424.6857, 2554.141
425.1678, 2550.883
425.6499, 2550.441
426.1320, 2550.554
426.6141, 2548.975
427.0963, 2545.926
427.5784, 2543.013
428.0605, 2541.082
428.5426, 2539.641
429.0247, 2537.850
429.5068, 2535.626
429.9890, 2533.752
430.4711, 2533.115
430.9532, 2533.109
431.4353, 2531.809
431.9174, 2528.336
432.3995, 2524.859
432.8817, 2522.673
433.3638, 2521.244
433.8459, 2519.300
434.3280, 2516.375
434.8101, 2513.305
435.2922, 2511.324
435.7744, 2510.766
436.2565, 2509.918
436.7386, 2508.618
437.2207, 2507.067
437.7028, 2505.643
438.1849, 2504.161
438.6671, 2501.771
439.1492, 2497.718
439.6313, 2492.475
440.1134, 2488.928
440.5955, 2488.943
441.0776, 2488.388
441.5598, 2485.831
442.0418, 2483.027
442.5240, 2482.255
443.0061, 2483.911
443.4882, 2486.010
443.9703, 2485.927
444.4524, 2483.229
444.9345, 2480.433
445.4167, 2476.460
445.8988, 2473.489
446.3809, 2473.098
446.8630, 2474.234
447.3451, 2474.904
447.8272, 2473.998
448.3094, 2471.865
448.7915, 2469.016
449.2736, 2464.609
449.7557, 2461.860
450.2378, 2463.341
450.7199, 2465.543
451.2021, 2465.791
451.6842, 2463.859
452.1663, 2461.741
452.6484, 2461.474
453.1305, 2462.453
453.6126, 2461.683
454.0948, 2458.153
454.5769, 2454.901
455.0590, 2454.555
455.5411, 2455.865
456.0232, 2456.704
456.5053, 2456.238
456.9875, 2455.705
457.4696, 2456.205
457.9517, 2457.568
458.4338, 2459.071
458.9159, 2460.566
459.3980, 2461.927
459.8802, 2462.848
460.3623, 2463.272
460.8444, 2463.885
461.3265, 2465.495
461.8086, 2466.853
462.2907, 2466.778
462.7729, 2465.280
463.2550, 2463.033
463.7371, 2460.401
464.2192, 2457.432
464.7013, 2454.335
465.1834, 2452.375
465.6656, 2448.701
466.1477, 2441.291
466.6298, 2432.739
467.1119, 2425.719
467.5940, 2420.879
468.0761, 2417.490
468.5583, 2414.969
469.0404, 2413.691
469.5225, 2410.707
470.0046, 2404.015
470.4867, 2397.672
470.9688, 2392.681
471.4510, 2388.921
471.9331, 2386.259
472.4152, 2384.715
472.8973, 2383.652
473.3794, 2381.743
473.8615, 2378.672
474.3437, 2376.078
474.8258, 2374.801
475.3079, 2373.654
475.7900, 2372.184
476.2721, 2370.266
476.7542, 2367.532
477.2364, 2363.339
477.7185, 2358.274
478.2006, 2353.375
478.6827, 2348.535
479.1648, 2344.734
479.6469, 2342.930
480.1291, 2342.358
480.6112, 2341.653
481.0933, 2340.865
481.5754, 2339.697
482.0575, 2338.042
482.5396, 2335.905
483.0217, 2333.033
483.5038, 2329.330
483.9860, 2325.817
484.4681, 2323.564
484.9502, 2322.638
485.4323, 2321.209
485.9144, 2318.481
486.3965, 2316.113
486.8787, 2315.128
487.3608, 2314.918
487.8429, 2314.362
488.3250, 2313.004
488.8071, 2311.187
489.2892, 2309.567
489.7714, 2308.430
490.2535, 2306.706
490.7356, 2303.074
491.2177, 2300.168
491.6998, 2300.125
492.1819, 2301.952
492.6641, 2303.034
493.1462, 2301.609
493.6283, 2298.588
494.1104, 2296.672
494.5925, 2296.265
495.0746, 2295.882
495.5568, 2295.534
496.0389, 2294.841
496.5210, 2293.237
497.0031, 2290.798
497.4852, 2288.579
497.9673, 2287.244
498.4495, 2286.703
498.9316, 2286.986
499.4137, 2288.342
499.8958, 2289.331
500.3779, 2288.980
500.8600, 2287.726
501.3422, 2286.309
501.8243, 2284.015
502.3064, 2283.193
502.7885, 2285.947
503.2706, 2290.727
503.7527, 2294.562
504.2349, 2296.788
504.7170, 2299.273
505.1991, 2304.069
505.6812, 2311.397
506.1633, 2317.262
506.6454, 2321.129
507.1276, 2324.320
507.6097, 2328.646
508.0918, 2332.247
508.5739, 2332.047
509.0560, 2326.957
509.5381, 2318.627
510.0203, 2309.378
510.5024, 2298.583
510.9845, 2289.002
511.4666, 2280.183
511.9487, 2273.066
512.4308, 2269.331
512.9130, 2267.414
513.3951, 2264.159
513.8772, 2257.658
514.3593, 2249.946
514.8414, 2245.201
515.3235, 2243.970
515.8057, 2241.264
516.2878, 2234.657
516.7699, 2227.462
517.2520, 2222.618
517.7341, 2219.862
518.2162, 2217.124
518.6984, 2213.254
519.1805, 2209.065
519.6626, 2205.736
520.1447, 2203.210
520.6268, 2200.387
521.1089, 2196.524
521.5911, 2192.308
522.0732, 2189.402
522.5553, 2187.872
523.0374, 2187.074
523.5195, 2188.096
524.0016, 2188.988
524.4838, 2187.486
524.9659, 2183.929
525.4480, 2180.714
525.9301, 2179.638
526.4122, 2180.265
526.8943, 2180.350
527.3765, 2179.841
527.8586, 2178.802
528.3407, 2176.995
528.8228, 2174.866
529.3049, 2172.732
529.7870, 2170.653
530.2692, 2168.597
530.7513, 2166.765
531.2334, 2164.968
531.7155, 2161.842
532.1976, 2156.816
532.6797, 2151.822
533.1619, 2147.087
533.6440, 2143.113
534.1261, 2140.781
534.6082, 2140.444
535.0903, 2140.011
535.5724, 2138.224
536.0546, 2135.349
536.5367, 2131.452
537.0188, 2126.400
537.5009, 2122.257
537.9830, 2120.903
538.4651, 2121.772
538.9473, 2121.565
539.4294, 2119.585
539.9115, 2117.496
540.3936, 2115.390
540.8757, 2113.583
541.3578, 2112.580
541.8400, 2112.420
542.3221, 2112.643
542.8042, 2112.938
543.2863, 2113.330
543.7684, 2112.320
544.2505, 2107.736
544.7326, 2104.385
545.2147, 2104.397
545.6968, 2105.497
546.1790, 2104.765
546.6611, 2101.602
547.1432, 2098.577
547.6253, 2099.139
548.1074, 2102.870
548.5895, 2104.593
549.0717, 2103.153
549.5538, 2101.763
550.0359, 2102.111
550.5180, 2103.797
551.0001, 2106.531
551.4822, 2110.608
551.9644, 2114.851
552.4465, 2117.911
552.9286, 2120.734
553.4107, 2125.329
553.8928, 2132.091
554.3749, 2140.182
554.8571, 2149.041
555.3392, 2158.665
555.8213, 2168.012
556.3034, 2177.480
556.7855, 2186.225
557.2676, 2194.925
557.7498, 2202.413
558.2319, 2207.488
558.7140, 2209.790
559.1961, 2209.302
559.6782, 2206.244
560.1603, 2200.677
560.6425, 2190.236
561.1246, 2171.842
561.6067, 2153.035
562.0888, 2134.551
562.5709, 2117.705
563.0530, 2104.281
563.5352, 2094.829
564.0173, 2086.696
564.4994, 2077.362
564.9815, 2067.521
565.4636, 2059.666
565.9457, 2054.249
566.4279, 2049.458
566.9100, 2043.651
567.3921, 2037.662
567.8742, 2034.207
568.3563, 2034.884
568.8384, 2035.402
569.3206, 2033.903
569.8027, 2031.652
570.2848, 2030.905
570.7669, 2031.595
571.2490, 2030.686
571.7311, 2025.241
572.2133, 2015.774
572.6954, 2008.158
573.1775, 2002.871
573.6596, 1998.915
574.1417, 1996.283
574.6238, 1994.757
575.1060, 1994.813
575.5881, 1996.112
576.0702, 1996.799
576.5523, 1994.940
577.0344, 1991.274
577.5165, 1988.598
577.9987, 1987.139
578.4808, 1985.706
578.9629, 1983.854
579.4450, 1981.736
579.9271, 1979.393
580.4092, 1976.688
580.8914, 1974.758
581.3735, 1975.025
581.8556, 1975.662
582.3377, 1974.335
582.8198, 1971.215
583.3019, 1968.113
583.7841, 1966.006
584.2662, 1964.763
584.7483, 1964.042
585.2304, 1964.203
585.7125, 1964.302
586.1946, 1965.182
586.6768, 1965.260
587.1589, 1962.942
587.6410, 1958.970
588.1231, 1955.333
588.6052, 1953.161
589.0873, 1952.045
589.5695, 1951.324
590.0516, 1951.077
590.5337, 1950.568
591.0158, 1949.209
591.4979, 1948.090
591.9800, 1949.099
592.4622, 1951.364
592.9443, 1951.185
593.4264, 1945.310
593.9085, 1938.514
594.3906, 1934.680
594.8727, 1933.107
595.3549, 1931.915
595.8370, 1930.539
596.3191, 1929.241
596.8012, 1928.305
597.2833, 1927.716
597.7654, 1927.646
598.2476, 1929.439
598.7297, 1930.131
599.2118, 1928.148
599.6939, 1924.818
600.1760, 1921.724
600.6581, 1919.363
601.1403, 1917.463
601.6224, 1915.843
602.1045, 1914.472
602.5866, 1912.787
603.0687, 1910.551
603.5508, 1908.521
604.0330, 1906.909
604.5151, 1905.798
604.9972, 1905.550
605.4793, 1906.420
605.9614, 1907.055
606.4435, 1907.195
606.9257, 1906.493
607.4078, 1903.818
607.8899, 1899.402
608.3720, 1895.707
608.8541, 1894.417
609.3362, 1894.783
609.8184, 1894.391
610.3005, 1892.131
610.7826, 1890.805
611.2647, 1891.723
611.7468, 1892.411
612.2289, 1890.720
612.7111, 1887.423
613.1932, 1884.964
613.6753, 1884.880
614.1574, 1885.880
614.6395, 1885.431
615.1216, 1883.396
615.6038, 1881.632
616.0859, 1880.395
616.5680, 1879.611
617.0501, 1879.637
617.5322, 1880.116
618.0143, 1879.782
618.4965, 1877.726
618.9786, 1875.513
619.4607, 1873.847
619.9428, 1872.732
620.4249, 1872.366
620.9070, 1872.749
621.3892, 1873.214
621.8713, 1873.121
622.3534, 1872.475
622.8355, 1871.496
623.3176, 1869.899
623.7997, 1868.342
624.2819, 1866.281
624.7640, 1864.737
625.2461, 1865.219
625.7282, 1867.553
626.2103, 1869.424
626.6924, 1868.693
627.1745, 1866.373
627.6566, 1865.046
628.1387, 1864.799
628.6208, 1864.267
629.1030, 1862.711
629.5851, 1860.891
630.0672, 1860.138
630.5493, 1860.537
631.0314, 1860.303
631.5135, 1858.067
631.9957, 1856.168
632.4778, 1856.387
632.9599, 1858.010
633.4420, 1859.493
633.9241, 1860.237
634.4063, 1860.664
634.8884, 1861.389
635.3705, 1862.477
635.8526, 1863.310
636.3347, 1864.027
636.8168, 1864.242
637.2990, 1863.356
637.7811, 1862.176
638.2632, 1861.303
638.7453, 1860.792
639.2274, 1861.959
639.7095, 1867.787
640.1917, 1875.128
640.6738, 1877.781
641.1559, 1875.513
641.6380, 1872.881
642.1201, 1872.265
642.6022, 1872.908
643.0844, 1872.965
643.5665, 1870.972
644.0486, 1871.649
644.5307, 1876.633
645.0128, 1882.679
645.4949, 1888.176
645.9771, 1893.349
646.4592, 1898.933
646.9413, 1905.219
647.4234, 1912.174
647.9055, 1919.752
648.3876, 1927.949
648.8698, 1936.820
649.3519, 1946.568
649.8340, 1956.425
650.3161, 1965.101
650.7982, 1973.786
651.2803, 1984.734
651.7625, 1998.540
652.2446, 2013.419
652.7267, 2028.261
653.2088, 2044.035
653.6909, 2061.280
654.1730, 2080.323
654.6552, 2101.997
655.1373, 2126.847
655.6194, 2154.412
656.1015, 2183.550
656.5836, 2213.344
657.0657, 2246.917
657.5479, 2284.751
658.0300, 2326.401
658.5121, 2371.465
658.9942, 2420.454
659.4763, 2474.064
659.9584, 2532.806
660.4406, 2595.839
660.9227, 2663.379
661.4048, 2734.413
661.8869, 2808.651
662.3690, 2885.974
662.8511, 2961.063
663.3333, 3031.343
663.8154, 3096.199
664.2975, 3152.393
664.7796, 3206.246
665.2617, 3241.814
665.7438, 3259.293
666.2260, 3258.135
666.7081, 3236.493
667.1902, 3196.021
667.6723, 3139.681
668.1544, 3067.794
668.6365, 2984.579
669.1187, 2892.879
669.6008, 2793.195
670.0829, 2696.179
670.5650, 2602.701
671.0471, 2514.768
671.5292, 2434.471
672.0114, 2361.893
672.4935, 2296.947
672.9756, 2241.383
673.4577, 2190.497
673.9398, 2143.106
674.4219, 2100.220
674.9041, 2063.261
675.3862, 2031.760
675.8683, 2003.535
676.3504, 1977.122
676.8325, 1952.955
677.3146, 1932.297
677.7968, 1915.768
678.2789, 1899.737
678.7610, 1883.353
679.2431, 1867.971
679.7252, 1854.779
680.2073, 1843.035
680.6895, 1831.191
681.1716, 1818.493
681.6537, 1806.761
682.1358, 1797.129
682.6179, 1789.066
683.1000, 1781.800
683.5822, 1775.258
684.0643, 1769.698
684.5464, 1765.416
685.0285, 1761.828
685.5106, 1757.203
685.9927, 1751.057
686.4749, 1745.043
686.9570, 1738.891
687.4391, 1733.268
687.9212, 1728.835
688.4033, 1725.081
688.8854, 1720.970
689.3676, 1716.089
689.8497, 1711.278
690.3318, 1707.103
690.8139, 1703.566
691.2960, 1700.887
691.7781, 1699.038
692.2603, 1697.214
692.7424, 1694.890
693.2245, 1692.297
693.7066, 1690.041
694.1887, 1688.573
694.6708, 1686.499
695.1530, 1683.164
695.6351, 1679.939
696.1172, 1677.683
696.5993, 1675.914
697.0814, 1673.680
697.5635, 1670.618
698.0457, 1667.539
698.5278, 1665.197
699.0099, 1663.491
699.4920, 1662.147
699.9741, 1661.174
700.4562, 1660.318
700.9384, 1659.665
701.4205, 1658.771
701.9026, 1656.547
702.3847, 1652.087
702.8668, 1648.809
703.3489, 1647.578
703.8311, 1646.699
704.3132, 1645.391
704.7953, 1643.867
705.2774, 1642.442
705.7595, 1641.249
706.2416, 1640.465
706.7238, 1640.839
707.2059, 1641.864
707.6880, 1640.952
708.1701, 1637.766
708.6522, 1634.961
709.1343, 1633.819
709.6164, 1633.385
710.0985, 1632.177
710.5806, 1630.096
711.0627, 1627.983
711.5449, 1625.401
712.0270, 1623.307
712.5091, 1622.829
712.9912, 1622.826
713.4733, 1621.154
713.9554, 1617.620
714.4376, 1614.994
714.9197, 1616.880
715.4018, 1621.505
715.8839, 1621.246
716.3660, 1615.332
716.8481, 1610.288
717.3303, 1608.216
717.8124, 1607.706
718.2945, 1607.537
718.7766, 1607.672
719.2587, 1607.474
719.7408, 1606.933
720.2230, 1606.005
720.7051, 1604.436
721.1872, 1602.606
721.6693, 1601.027
722.1514, 1599.698
722.6335, 1598.097
723.1157, 1595.721
723.5978, 1592.979
724.0799, 1591.115
724.5620, 1590.229
725.0441, 1588.996
725.5262, 1586.928
726.0084, 1584.896
726.4905, 1583.738
726.9726, 1583.226
727.4547, 1582.489
727.9368, 1580.982
728.4189, 1580.030
728.9011, 1580.987
729.3832, 1581.978
729.8653, 1580.786
730.3474, 1577.893
730.8295, 1575.531
731.3116, 1574.979
731.7938, 1575.208
732.2759, 1574.352
732.7580, 1572.393
733.2401, 1570.786
733.7222, 1569.744
734.2043, 1568.793
734.6865, 1567.554
735.1686, 1566.271
735.6507, 1565.577
736.1328, 1565.828
736.6149, 1565.431
737.0970, 1563.561
737.5792, 1561.391
738.0613, 1559.451
738.5434, 1557.884
739.0255, 1557.017
739.5076, 1556.894
739.9897, 1556.706
740.4719, 1555.191
740.9540, 1552.646
741.4361, 1551.372
741.9182, 1551.623
742.4003, 1551.867
742.8824, 1551.553
743.3646, 1550.957
743.8467, 1550.605
744.3288, 1550.528
744.8109, 1549.522
745.2930, 1546.250
745.7751, 1543.485
746.2573, 1543.003
746.7394, 1543.283
747.2215, 1542.265
747.7036, 1539.882
748.1857, 1537.796
748.6678, 1537.363
749.1500, 1537.889
749.6321, 1538.041
750.1142, 1537.822
750.5963, 1536.604
751.0784, 1533.980
751.5605, 1531.171
752.0427, 1529.040
752.5248, 1527.549
753.0069, 1526.414
753.4890, 1526.045
753.9711, 1525.365
754.4532, 1523.830
754.9354, 1522.284
755.4175, 1521.359
755.8996, 1520.910
756.3817, 1520.595
756.8638, 1520.293
757.3459, 1519.636
757.8281, 1517.949
758.3102, 1515.523
758.7923, 1513.375
759.2744, 1511.547
759.7565, 1510.415
760.2386, 1510.322
760.7208, 1510.738
761.2029, 1510.772
761.6850, 1510.378
762.1671, 1509.784
762.6492, 1508.722
763.1313, 1507.808
763.6135, 1507.424
764.0956, 1507.184
764.5777, 1506.490
765.0598, 1505.373
765.5419, 1504.683
766.0240, 1505.538
766.5062, 1506.624
766.9883, 1505.924
767.4704, 1503.775
767.9525, 1501.489
768.4346, 1499.361
768.9167, 1497.512
769.3989, 1496.117
769.8810, 1495.064
770.3631, 1493.729
770.8452, 1491.747
771.3273, 1490.132
771.8094, 1488.993
772.2916, 1488.173
772.7737, 1487.586
773.2558, 1487.269
773.7379, 1487.446
774.2200, 1488.374
774.7021, 1488.954
775.1843, 1488.461
775.6664, 1487.197
776.1485, 1485.017
776.6306, 1482.351
777.1127, 1480.946
777.5948, 1481.607
778.0770, 1482.841
778.5591, 1482.307
779.0412, 1479.898
779.5233, 1477.992
780.0054, 1476.543
780.4875, 1475.724
780.9697, 1476.426
781.4518, 1477.151
781.9339, 1476.040
782.4160, 1473.288
782.8981, 1471.487
783.3802, 1472.459
783.8624, 1473.149
784.3445, 1471.354
784.8266, 1468.727
785.3087, 1467.558
785.7908, 1467.915
786.2729, 1468.263
786.7551, 1467.550
787.2372, 1466.368
787.7193, 1466.216
788.2014, 1467.067
788.6835, 1466.433
789.1656, 1463.613
789.6478, 1460.791
790.1299, 1459.165
790.6120, 1458.519
791.0941, 1458.423
791.5762, 1459.006
792.0583, 1459.729
792.5404, 1461.564
793.0225, 1462.448
793.5046, 1460.744
793.9868, 1457.844
794.4689, 1455.538
794.9510, 1454.233
795.4331, 1453.315
795.9152, 1452.444
796.3973, 1451.589
796.8795, 1450.828
797.3616, 1450.068
797.8437, 1448.689
798.3258, 1446.489
798.8079, 1444.628
799.2900, 1444.226
799.7722, 1444.976
800.2543, 1445.243
800.7364, 1445.160
801.2185, 1444.313
801.7006, 1442.194
802.1827, 1439.762
802.6649, 1437.251
803.1470, 1434.808
803.6291, 1432.510
804.1112, 1430.187
804.5933, 1429.068
805.0754, 1430.758
805.5576, 1433.204
806.0397, 1434.714
806.5218, 1435.220
807.0039, 1434.615
807.4860, 1432.963
807.9681, 1431.368
808.4503, 1431.223
808.9324, 1432.150
809.4145, 1432.035
809.8966, 1430.717
810.3787, 1429.337
810.8608, 1428.220
811.3430, 1427.018
811.8251, 1425.238
812.3072, 1423.031
812.7893, 1421.468
813.2714, 1420.949
813.7535, 1420.453
814.2357, 1419.604
814.7178, 1418.943
815.1999, 1419.109
815.6820, 1419.702
816.1641, 1419.853
816.6462, 1419.255
817.1284, 1418.501
817.6105, 1418.284
818.0926, 1418.226
818.5747, 1417.390
819.0568, 1415.920
819.5389, 1414.921
820.0211, 1414.802
820.5032, 1414.948
820.9853, 1414.703
821.4674, 1414.064
821.9495, 1412.909
822.4316, 1410.670
822.9138, 1409.140
823.3959, 1409.556
823.8780, 1409.838
824.3601, 1408.130
824.8422, 1405.270
825.3243, 1403.622
825.8065, 1404.303
826.2886, 1404.445
826.7707, 1401.871
827.2528, 1399.207
827.7349, 1399.344
828.2170, 1401.203
828.6992, 1401.901
829.1813, 1400.490
829.6634, 1398.752
830.1455, 1398.704
830.6276, 1399.847
831.1097, 1400.822
831.5919, 1401.609
832.0740, 1400.755
832.5561, 1397.460
833.0382, 1393.997
833.5203, 1392.598
834.0024, 1392.961
834.4846, 1392.761
834.9667, 1391.041
835.4488, 1390.317
835.9309, 1391.796
836.4130, 1393.097
836.8951, 1392.794
837.3773, 1391.516
837.8594, 1390.438
838.3415, 1389.822
838.8236, 1389.340
839.3057, 1389.153
839.7878, 1388.748
840.2700, 1387.384
840.7521, 1385.478
841.2342, 1383.889
841.7163, 1382.876
842.1984, 1382.338
842.6805, 1382.401
843.1627, 1382.609
843.6448, 1381.169
844.1269, 1378.017
844.6090, 1376.270
845.0911, 1376.801
845.5732, 1377.618
846.0554, 1377.261
846.5375, 1376.242
847.0196, 1376.057
847.5017, 1377.137
847.9838, 1378.067
848.4659, 1378.637
848.9481, 1379.292
849.4302, 1380.139
849.9123, 1381.189
850.3944, 1382.575
850.8765, 1384.246
851.3586, 1385.672
851.8408, 1386.499
852.3229, 1387.059
852.8050, 1387.787
853.2871, 1388.385
853.7692, 1388.467
854.2513, 1387.903
854.7335, 1386.351
855.2156, 1383.515
855.6977, 1380.221
856.1798, 1378.258
856.6619, 1377.556
857.1440, 1375.905
857.6262, 1373.076
858.1083, 1369.928
858.5904, 1366.556
859.0725, 1363.527
859.5546, 1361.720
860.0367, 1361.262
860.5189, 1360.640
861.0010, 1360.097
861.4831, 1359.086
861.9652, 1357.240
862.4473, 1355.143
862.9294, 1352.894
863.4116, 1350.789
863.8937, 1349.658
864.3758, 1350.115
864.8579, 1350.298
865.3400, 1348.744
865.8221, 1346.525
866.3043, 1344.566
866.7864, 1343.030
867.2685, 1342.162
867.7506, 1342.009
868.2327, 1342.235
868.7148, 1342.683
869.1970, 1343.103
869.6791, 1342.435
870.1612, 1340.674
870.6433, 1339.442
871.1254, 1339.151
871.6075, 1339.068
872.0897, 1338.729
872.5718, 1338.097
873.0539, 1336.984
873.5360, 1334.833
874.0181, 1333.491
874.5002, 1334.033
874.9823, 1334.165
875.4644, 1332.547
875.9465, 1330.507
876.4286, 1329.768
876.9108, 1330.392
877.3929, 1330.567
877.8750, 1329.719
878.3571, 1328.230
878.8392, 1325.564
879.3214, 1322.855
879.8035, 1321.577
880.2856, 1321.592
880.7677, 1321.880
881.2498, 1321.958
881.7319, 1321.813
882.2141, 1321.343
882.6962, 1320.647
883.1783, 1319.820
883.6604, 1318.944
884.1425, 1318.977
884.6246, 1320.332
885.1068, 1322.025
885.5889, 1323.135
886.0710, 1323.561
886.5531, 1322.219
887.0352, 1318.023
887.5173, 1315.316
887.9995, 1315.698
888.4816, 1316.161
888.9637, 1314.318
889.4458, 1311.426
889.9279, 1310.158
890.4100, 1311.073
890.8922, 1311.501
891.3743, 1310.614
891.8564, 1309.688
892.3385, 1309.462
892.8206, 1309.402
893.3027, 1308.700
893.7849, 1307.456
894.2670, 1306.679
894.7491, 1307.196
895.2312, 1307.644
895.7133, 1306.745
896.1954, 1304.966
896.6776, 1302.471
897.1597, 1299.770
897.6418, 1298.728
898.1239, 1300.116
898.6060, 1302.012
899.0881, 1302.089
899.5703, 1300.583
900.0524, 1298.397
900.5345, 1295.454
901.0166, 1293.501
901.4987, 1293.037
901.9808, 1293.364
902.4630, 1294.285
902.9451, 1295.291
903.4272, 1294.406
903.9093, 1289.900
904.3914, 1287.530
904.8735, 1288.967
905.3557, 1290.473
905.8378, 1290.661
906.3199, 1290.321
906.8020, 1290.435
907.2841, 1290.990
907.7662, 1290.952
908.2484, 1289.528
908.7305, 1288.165
909.2126, 1287.374
909.6947, 1286.962
910.1768, 1286.822
910.6589, 1286.887
911.1411, 1286.906
911.6232, 1286.768
912.1053, 1287.331
912.5874, 1290.535
913.0695, 1294.156
913.5516, 1294.613
914.0338, 1292.492
914.5159, 1289.378
914.9980, 1285.845
915.4801, 1283.001
915.9622, 1281.727
916.4443, 1281.623
916.9265, 1282.093
917.4086, 1283.132
917.8907, 1282.433
918.3728, 1279.327
918.8549, 1277.665
919.3370, 1279.862
919.8192, 1282.792
920.3013, 1281.776
920.7834, 1276.648
921.2655, 1274.279
921.7476, 1277.306
922.2297, 1278.529
922.7119, 1274.562
923.1940, 1270.915
923.6761, 1271.884
924.1582, 1275.146
924.6403, 1275.656
925.1224, 1272.233
925.6046, 1269.201
926.0867, 1267.341
926.5688, 1266.451
927.0509, 1266.899
927.5330, 1267.959
928.0151, 1268.956
928.4973, 1269.734
928.9794, 1270.307
929.4615, 1270.753
929.9436, 1270.789
930.4257, 1269.814
930.9078, 1268.485
931.3900, 1268.046
931.8721, 1268.147
932.3542, 1267.296
932.8363, 1265.069
933.3184, 1262.722
933.8005, 1261.470
934.2827, 1261.071
934.7648, 1260.933
935.2469, 1261.057
935.7290, 1261.677
936.2111, 1262.882
936.6932, 1263.331
937.1754, 1262.126
937.6575, 1260.057
938.1396, 1258.468
938.6217, 1257.337
939.1038, 1257.087
939.5859, 1258.184
940.0681, 1258.862
940.5502, 1258.253
941.0323, 1257.703
941.5144, 1258.851
941.9965, 1261.021
942.4786, 1261.222
942.9608, 1257.930
943.4429, 1255.915
943.9250, 1256.633
944.4071, 1257.167
944.8892, 1256.022
945.3713, 1254.281
945.8535, 1253.158
946.3356, 1252.726
946.8177, 1252.445
947.2998, 1252.205
947.7819, 1251.987
948.2640, 1251.745
948.7462, 1251.556
949.2283, 1251.637
949.7104, 1251.789
950.1925, 1251.488
950.6746, 1250.623
951.1567, 1249.874
951.6389, 1249.917
952.1210, 1250.228
952.6031, 1249.983
953.0852, 1249.526
953.5673, 1249.837
954.0494, 1250.841
954.5316, 1251.438
955.0137, 1251.040
955.4958, 1249.886
955.9779, 1247.702
956.4600, 1244.998
956.9421, 1244.774
957.4242, 1246.922
957.9063, 1248.320
958.3884, 1248.118
958.8705, 1247.573
959.3527, 1247.661
959.8348, 1248.220
960.3169, 1248.868
960.7990, 1249.718
961.2811, 1250.005
961.7632, 1249.605
962.2454, 1248.898
962.7275, 1247.703
963.2096, 1246.746
963.6917, 1247.100
964.1738, 1248.572
964.6559, 1248.930
965.1381, 1246.479
965.6202, 1245.695
966.1023, 1248.159
966.5844, 1250.629
967.0665, 1251.949
967.5486, 1252.345
968.0308, 1252.159
968.5129, 1251.419
968.9950, 1249.969
969.4771, 1246.665
969.9592, 1244.118
970.4413, 1243.610
970.9235, 1243.834
971.4056, 1243.972
971.8877, 1243.937
972.3698, 1243.654
972.8519, 1243.096
973.3340, 1242.940
973.8162, 1243.625
974.2983, 1244.789
974.7804, 1246.896
975.2625, 1248.850
975.7446, 1248.311
976.2267, 1246.033
976.7089, 1245.685
977.1910, 1249.109
977.6731, 1252.576
978.1552, 1251.543
978.6373, 1248.397
979.1194, 1247.200
979.6016, 1247.541
980.0837, 1247.838
980.5658, 1247.767
981.0479, 1247.838
981.5300, 1248.379
982.0121, 1249.344
982.4943, 1251.092
982.9764, 1253.267
983.4585, 1253.437
983.9406, 1251.615
984.4227, 1250.618
984.9048, 1251.360
985.3870, 1252.678
985.8691, 1253.513
986.3512, 1254.087
986.8333, 1255.083
987.3154, 1256.479
987.7975, 1258.677
988.2797, 1262.068
988.7618, 1264.745
989.2439, 1265.731
989.7260, 1266.169
990.2081, 1267.401
990.6902, 1269.315
991.1724, 1270.741
991.6545, 1270.891
992.1366, 1272.419
992.6187, 1275.820
993.1008, 1280.167
993.5829, 1285.591
994.0651, 1291.341
994.5472, 1296.061
995.0293, 1299.702
995.5114, 1304.748
995.9935, 1312.236
996.4756, 1319.693
996.9578, 1325.531
997.4399, 1332.544
997.9220, 1342.327
998.4041, 1354.282
998.8862, 1367.477
999.3683, 1381.761
999.8505, 1397.047
1000.333, 1412.602
1000.815, 1430.008
1001.297, 1449.725
1001.779, 1471.498
1002.261, 1494.573
1002.743, 1519.584
1003.225, 1547.477
1003.707, 1578.423
1004.190, 1613.408
1004.672, 1652.049
1005.154, 1695.734
1005.636, 1743.929
1006.118, 1799.196
1006.600, 1864.646
1007.082, 1940.358
1007.564, 2024.754
1008.046, 2117.563
1008.529, 2221.226
1009.011, 2339.325
1009.493, 2467.179
1009.975, 2603.593
1010.457, 2743.993
1010.939, 2886.708
1011.421, 3025.835
1011.903, 3150.183
1012.385, 3254.179
1012.868, 3326.637
1013.350, 3359.023
1013.832, 3349.027
1014.314, 3287.257
1014.796, 3180.275
1015.278, 3039.870
1015.760, 2872.327
1016.242, 2696.357
1016.725, 2521.977
1017.207, 2355.566
1017.689, 2205.164
1018.171, 2070.323
1018.653, 1951.725
1019.135, 1849.541
1019.617, 1763.072
1020.099, 1691.992
1020.581, 1632.328
1021.064, 1581.600
1021.546, 1538.973
1022.028, 1503.314
1022.510, 1474.409
1022.992, 1448.159
1023.474, 1424.492
1023.956, 1404.876
1024.438, 1389.843
1024.921, 1377.355
1025.403, 1365.999
1025.885, 1355.651
1026.367, 1345.966
1026.849, 1336.919
1027.331, 1329.502
1027.813, 1323.797
1028.295, 1319.226
1028.777, 1315.892
1029.260, 1312.721
1029.742, 1308.810
1030.224, 1304.490
1030.706, 1300.873
1031.188, 1298.182
1031.670, 1294.760
1032.152, 1289.963
1032.634, 1286.365
1033.116, 1285.053
1033.599, 1284.418
1034.081, 1282.960
1034.563, 1281.246
1035.045, 1281.122
1035.527, 1283.109
1036.009, 1284.884
1036.491, 1286.207
1036.973, 1287.774
1037.456, 1289.724
1037.938, 1292.041
1038.420, 1294.888
1038.902, 1298.054
1039.384, 1300.744
1039.866, 1302.248
1040.348, 1305.246
1040.830, 1309.943
1041.313, 1315.823
1041.795, 1322.945
1042.277, 1331.047
1042.759, 1339.420
1043.241, 1348.592
1043.723, 1360.162
1044.205, 1374.613
1044.687, 1390.277
1045.169, 1410.837
1045.651, 1427.644
1046.134, 1437.410
1046.616, 1443.156
1047.098, 1447.284
1047.580, 1449.352
1048.062, 1447.851
1048.544, 1442.379
1049.026, 1434.306
1049.508, 1423.626
1049.991, 1410.614
1050.473, 1394.061
1050.955, 1376.353
1051.437, 1358.933
1051.919, 1341.960
1052.401, 1324.799
1052.883, 1306.710
1053.365, 1291.780
1053.848, 1281.672
1054.330, 1273.845
1054.812, 1268.680
1055.294, 1264.204
1055.776, 1258.649
1056.258, 1252.452
1056.740, 1246.921
1057.222, 1242.248
1057.704, 1238.464
1058.187, 1236.023
1058.669, 1233.881
1059.151, 1231.653
1059.633, 1229.487
1060.115, 1227.413
1060.597, 1225.529
1061.079, 1224.173
1061.561, 1223.496
1062.043, 1222.299
1062.526, 1219.541
1063.008, 1216.992
1063.490, 1215.248
1063.972, 1214.237
1064.454, 1214.508
1064.936, 1215.263
1065.418, 1214.962
1065.900, 1213.282
1066.383, 1211.190
1066.865, 1208.322
1067.347, 1206.081
1067.829, 1205.402
1068.311, 1205.373
1068.793, 1205.297
1069.275, 1205.236
1069.757, 1205.559
1070.240, 1206.301
1070.722, 1206.751
1071.204, 1206.423
1071.686, 1205.978
1072.168, 1205.961
1072.650, 1205.723
1073.132, 1204.178
1073.614, 1202.257
1074.096, 1201.708
1074.578, 1202.703
1075.061, 1203.682
1075.543, 1204.122
1076.025, 1204.231
1076.507, 1204.186
1076.989, 1203.767
1077.471, 1202.512
1077.953, 1200.909
1078.435, 1199.675
1078.918, 1198.895
1079.400, 1198.248
1079.882, 1197.422
1080.364, 1197.112
1080.846, 1198.061
1081.328, 1199.225
1081.810, 1200.017
1082.292, 1200.456
1082.774, 1200.649
1083.257, 1200.599
1083.739, 1200.164
1084.221, 1199.087
1084.703, 1198.279
1085.185, 1198.477
1085.667, 1198.739
1086.149, 1198.389
1086.631, 1197.792
1087.114, 1197.295
1087.596, 1196.987
1088.078, 1196.983
1088.560, 1197.387
1089.042, 1197.724
1089.524, 1197.829
1090.006, 1197.765
1090.488, 1197.620
1090.970, 1197.277
1091.453, 1196.497
1091.935, 1195.436
1092.417, 1194.335
1092.899, 1193.150
1093.381, 1192.948
1093.863, 1194.866
1094.345, 1196.897
1094.827, 1199.021
1095.309, 1200.038
1095.792, 1198.088
1096.274, 1194.605
1096.756, 1192.160
1097.238, 1191.215
1097.720, 1191.350
1098.202, 1194.205
1098.684, 1195.670
1099.166, 1192.955
1099.649, 1189.844
1100.131, 1188.989
1100.613, 1189.442
1101.095, 1189.368
1101.577, 1188.708
1102.059, 1189.219
1102.541, 1192.953
1103.023, 1195.199
1103.505, 1193.540
1103.988, 1191.622
1104.470, 1191.744
1104.952, 1192.415
1105.434, 1191.923
1105.916, 1190.276
1106.398, 1188.031
1106.880, 1183.896
1107.362, 1182.453
1107.844, 1186.830
1108.327, 1190.914
1108.809, 1192.764
1109.291, 1193.088
1109.773, 1192.123
1110.255, 1190.259
1110.737, 1188.435
1111.219, 1186.630
1111.701, 1185.210
1112.184, 1183.794
1112.666, 1183.359
1113.148, 1185.267
1113.630, 1187.065
1114.112, 1186.865
1114.594, 1185.579
1115.076, 1184.910
1115.558, 1184.939
1116.041, 1184.790
1116.523, 1184.113
1117.005, 1183.866
1117.487, 1184.517
1117.969, 1185.076
1118.451, 1184.944
1118.933, 1184.589
1119.415, 1184.660
1119.897, 1185.092
1120.380, 1185.044
1120.862, 1183.244
1121.344, 1184.404
1121.826, 1190.781
1122.308, 1195.505
1122.790, 1195.500
1123.272, 1194.194
1123.754, 1194.996
1124.236, 1196.959
1124.719, 1196.692
1125.201, 1193.578
1125.683, 1191.586
1126.165, 1191.079
1126.647, 1190.236
1127.129, 1188.399
1127.611, 1186.988
1128.093, 1187.091
1128.576, 1187.974
1129.058, 1188.230
1129.540, 1187.908
1130.022, 1188.232
1130.504, 1189.339
1130.986, 1189.133
1131.468, 1187.096
1131.950, 1186.056
1132.432, 1187.513
1132.915, 1189.581
1133.397, 1189.954
1133.879, 1189.103
1134.361, 1188.610
1134.843, 1188.467
1135.325, 1188.838
1135.807, 1189.676
1136.289, 1189.865
1136.771, 1189.066
1137.254, 1188.485
1137.736, 1189.121
1138.218, 1190.429
1138.700, 1191.750
1139.182, 1192.852
1139.664, 1192.445
1140.146, 1191.052
1140.628, 1191.363
1141.111, 1193.538
1141.593, 1194.873
1142.075, 1193.936
1142.557, 1192.398
1143.039, 1192.128
1143.521, 1192.500
1144.003, 1192.745
1144.485, 1192.703
1144.968, 1191.792
1145.450, 1190.288
1145.932, 1188.947
1146.414, 1188.098
1146.896, 1188.313
1147.378, 1190.617
1147.860, 1192.839
1148.342, 1192.443
1148.824, 1191.177
1149.307, 1191.156
1149.789, 1191.780
1150.271, 1191.595
1150.753, 1190.620
1151.235, 1190.110
1151.717, 1190.641
1152.199, 1191.400
1152.681, 1192.142
1153.163, 1192.714
1153.646, 1192.866
1154.128, 1192.928
1154.610, 1192.871
1155.092, 1193.121
1155.574, 1195.045
1156.056, 1198.990
1156.538, 1201.038
1157.020, 1198.580
1157.503, 1196.211
1157.985, 1195.153
1158.467, 1194.643
1158.949, 1193.921
1159.431, 1193.643
1159.913, 1194.906
1160.395, 1197.557
1160.877, 1200.072
1161.359, 1203.165
1161.842, 1204.439
1162.324, 1201.590
1162.806, 1200.519
1163.288, 1204.916
1163.770, 1208.784
1164.252, 1207.138
1164.734, 1202.202
1165.216, 1198.697
1165.698, 1196.646
1166.181, 1196.092
1166.663, 1197.592
1167.145, 1198.516
1167.627, 1198.343
1168.109, 1198.278
1168.591, 1199.010
1169.073, 1199.705
1169.555, 1199.352
1170.037, 1198.234
1170.520, 1197.219
1171.002, 1196.329
1171.484, 1196.412
1171.966, 1197.482
1172.448, 1198.709
1172.930, 1199.872
1173.412, 1201.160
1173.894, 1202.759
1174.377, 1204.006
1174.859, 1203.819
1175.341, 1202.548
1175.823, 1200.931
1176.305, 1199.103
1176.787, 1197.195
1177.269, 1195.459
1177.751, 1194.778
1178.234, 1195.431
1178.716, 1196.884
1179.198, 1198.950
1179.680, 1201.141
1180.162, 1203.236
1180.644, 1204.890
1181.126, 1205.966
1181.608, 1206.130
1182.090, 1204.212
1182.573, 1200.775
1183.055, 1198.204
1183.537, 1197.363
1184.019, 1197.636
1184.501, 1199.912
1184.983, 1201.702
1185.465, 1200.522
1185.947, 1199.288
1186.429, 1201.360
1186.912, 1204.848
1187.394, 1205.778
1187.876, 1203.889
1188.358, 1203.137
1188.840, 1205.632
1189.322, 1206.925
1189.804, 1205.570
1190.286, 1204.256
1190.769, 1203.833
1191.251, 1203.929
1191.733, 1204.677
1192.215, 1205.484
1192.697, 1204.536
1193.179, 1201.412
1193.661, 1200.352
1194.143, 1202.012
1194.625, 1203.301
1195.108, 1203.728
1195.590, 1203.948
1196.072, 1204.287
1196.554, 1204.493
1197.036, 1204.232
1197.518, 1203.703
1198.000, 1203.532
1198.482, 1203.686
1198.964, 1203.956
1199.447, 1204.270
1199.929, 1204.014
1200.411, 1203.127
1200.893, 1202.368
1201.375, 1202.159
1201.857, 1202.645
1202.339, 1204.617
1202.821, 1206.819
1203.304, 1206.612
1203.786, 1205.484
1204.268, 1206.600
1204.750, 1209.062
1205.232, 1209.637
1205.714, 1207.898
1206.196, 1206.699
1206.678, 1207.777
1207.161, 1208.795
1207.643, 1208.258
1208.125, 1207.225
1208.607, 1205.767
1209.089, 1204.762
1209.571, 1205.230
1210.053, 1206.832
1210.535, 1209.041
1211.017, 1211.893
1211.500, 1212.948
1211.982, 1210.297
1212.464, 1208.230
1212.946, 1206.914
1213.428, 1206.836
1213.910, 1209.261
1214.392, 1211.676
1214.874, 1211.520
1215.356, 1209.570
1215.839, 1208.150
1216.321, 1207.258
1216.803, 1206.930
1217.285, 1207.255
1217.767, 1207.732
1218.249, 1208.378
1218.731, 1208.078
1219.213, 1206.188
1219.696, 1204.421
1220.178, 1204.824
1220.660, 1206.314
1221.142, 1206.121
1221.624, 1204.930
1222.106, 1205.177
1222.588, 1206.531
1223.070, 1207.478
1223.552, 1207.741
1224.035, 1207.465
1224.517, 1206.706
1224.999, 1206.804
1225.481, 1209.275
1225.963, 1212.646
1226.445, 1216.632
1226.927, 1219.833
1227.409, 1220.072
1227.891, 1218.788
1228.374, 1218.689
1228.856, 1219.732
1229.338, 1219.546
1229.820, 1217.189
1230.302, 1214.718
1230.784, 1211.631
1231.266, 1209.845
1231.748, 1210.403
1232.231, 1212.022
1232.713, 1214.969
1233.195, 1217.574
1233.677, 1217.071
1234.159, 1213.912
1234.641, 1212.148
1235.123, 1212.068
1235.605, 1212.050
1236.088, 1212.056
1236.570, 1212.055
1237.052, 1212.025
1237.534, 1212.092
1238.016, 1212.336
1238.498, 1212.740
1238.980, 1213.410
1239.462, 1214.094
1239.944, 1213.507
1240.427, 1212.542
1240.909, 1214.947
1241.391, 1219.387
1241.873, 1220.070
1242.355, 1216.433
1242.837, 1214.054
1243.319, 1216.099
1243.801, 1218.309
1244.283, 1216.839
1244.766, 1215.046
1245.248, 1215.512
1245.730, 1216.920
1246.212, 1218.413
1246.694, 1219.592
1247.176, 1219.886
1247.658, 1219.317
1248.140, 1218.707
1248.622, 1218.057
1249.105, 1217.608
1249.587, 1217.376
1250.069, 1217.289
1250.551, 1217.060
1251.033, 1217.477
1251.515, 1219.308
1251.997, 1221.579
1252.479, 1222.853
1252.962, 1223.254
1253.444, 1223.683
1253.926, 1224.111
1254.408, 1222.425
1254.890, 1218.796
1255.372, 1217.736
1255.854, 1220.137
1256.336, 1222.856
1256.818, 1224.105
1257.301, 1224.212
1257.783, 1223.038
1258.265, 1221.505
1258.747, 1220.713
1259.229, 1220.490
1259.711, 1220.682
1260.193, 1221.216
1260.675, 1222.084
1261.157, 1223.215
1261.640, 1224.403
1262.122, 1225.623
1262.604, 1226.690
1263.086, 1227.386
1263.568, 1228.133
1264.050, 1229.206
1264.532, 1230.186
1265.014, 1230.932
1265.497, 1231.342
1265.979, 1231.269
1266.461, 1230.757
1266.943, 1229.868
1267.425, 1228.415
1267.907, 1228.078
1268.389, 1228.933
1268.871, 1230.281
1269.354, 1232.017
1269.836, 1233.312
1270.318, 1233.797
1270.800, 1233.816
1271.282, 1233.663
1271.764, 1233.375
1272.246, 1232.736
1272.728, 1232.186
1273.210, 1232.618
1273.693, 1233.664
1274.175, 1234.799
1274.657, 1235.798
1275.139, 1236.376
1275.621, 1236.463
1276.103, 1236.270
1276.585, 1235.000
1277.067, 1234.926
1277.549, 1238.318
1278.032, 1241.150
1278.514, 1241.597
1278.996, 1240.476
1279.478, 1237.173
1279.960, 1233.840
1280.442, 1235.082
1280.924, 1240.703
1281.406, 1244.205
1281.889, 1245.237
1282.371, 1247.428
1282.853, 1251.200
1283.335, 1252.486
1283.817, 1250.212
1284.299, 1249.804
1284.781, 1254.922
1285.263, 1260.196
1285.745, 1260.031
1286.228, 1254.388
##END=



