##NAMES=Diopside
##RRUFFID=R060861
##IDEAL CHEMISTRY=CaMgSi_2_O_6_
##LOCALITY=Red Mountain Volcano, NW of Flagstaff, Arizona, USA
##OWNER=RRUFF
##SOURCE=Jennifer Sano
##DESCRIPTION=Worn brown fragment
##STATUS=The identification of this mineral has been confirmed by X-ray diffraction and chemical analysis
##URL=rruff.info/R060861
##MEASURED CHEMISTRY=(Ca_0.72_Fe^2+^_0.23_Na_0.05_)_Σ=1_(Mg_0.80_Al_0.15_Ti_0.03_Fe^3+^_0.02_)_Σ=1_(Si_1.82_Al_0.18_)_Σ=2_O_6_
165.1826, 4690.234
165.6647, 4734.099
166.1469, 4762.939
166.6290, 4776.256
167.1111, 4796.845
167.5932, 4833.611
168.0753, 4875.109
168.5574, 4910.863
169.0396, 4939.569
169.5217, 4962.186
170.0038, 4976.911
170.4859, 4984.571
170.9680, 4994.047
171.4501, 5003.917
171.9323, 5017.560
172.4144, 5043.209
172.8965, 5083.566
173.3786, 5119.965
173.8607, 5131.983
174.3428, 5124.604
174.8250, 5118.210
175.3071, 5115.752
175.7892, 5116.895
176.2713, 5121.954
176.7534, 5131.381
177.2355, 5142.214
177.7177, 5151.927
178.1998, 5161.134
178.6819, 5171.600
179.1640, 5186.490
179.6461, 5201.761
180.1283, 5209.348
180.6104, 5206.560
181.0925, 5207.253
181.5746, 5224.638
182.0567, 5252.823
182.5388, 5282.261
183.0210, 5313.586
183.5031, 5343.323
183.9852, 5365.588
184.4673, 5379.554
184.9494, 5390.049
185.4315, 5392.534
185.9137, 5394.484
186.3958, 5409.524
186.8779, 5452.013
187.3600, 5502.995
187.8421, 5530.694
188.3242, 5528.373
188.8064, 5529.395
189.2885, 5561.954
189.7706, 5607.066
190.2527, 5640.410
190.7348, 5651.105
191.2169, 5650.442
191.6991, 5652.771
192.1812, 5657.387
192.6633, 5667.962
193.1454, 5692.398
193.6275, 5721.850
194.1096, 5748.181
194.5918, 5770.979
195.0739, 5786.612
195.5560, 5787.182
196.0381, 5769.068
196.5202, 5752.146
197.0023, 5741.894
197.4845, 5738.083
197.9666, 5743.565
198.4487, 5761.711
198.9308, 5781.687
199.4129, 5789.153
199.8950, 5782.607
200.3771, 5771.801
200.8593, 5751.422
201.3414, 5732.360
201.8235, 5724.510
202.3056, 5731.071
202.7877, 5743.309
203.2698, 5751.542
203.7520, 5755.321
204.2341, 5758.756
204.7162, 5771.499
205.1983, 5778.526
205.6804, 5762.554
206.1625, 5720.059
206.6447, 5678.297
207.1268, 5671.340
207.6089, 5703.229
208.0910, 5724.618
208.5731, 5718.697
209.0552, 5703.802
209.5374, 5688.192
210.0195, 5673.427
210.5016, 5663.492
210.9837, 5661.875
211.4658, 5668.632
211.9479, 5682.906
212.4301, 5717.563
212.9122, 5747.806
213.3943, 5755.269
213.8764, 5741.918
214.3585, 5726.102
214.8406, 5724.222
215.3228, 5735.659
215.8049, 5741.455
216.2870, 5729.547
216.7691, 5724.270
217.2512, 5743.656
217.7333, 5782.087
218.2155, 5819.274
218.6976, 5839.796
219.1797, 5845.425
219.6618, 5851.496
220.1439, 5859.178
220.6260, 5865.616
221.1082, 5866.943
221.5903, 5865.974
222.0724, 5869.216
222.5545, 5882.879
223.0366, 5903.727
223.5187, 5919.505
224.0009, 5931.182
224.4830, 5935.384
224.9651, 5920.915
225.4472, 5900.621
225.9293, 5896.324
226.4114, 5924.470
226.8936, 5970.200
227.3757, 5996.956
227.8578, 5997.529
228.3399, 5996.019
228.8220, 6007.121
229.3041, 6020.009
229.7863, 6018.821
230.2684, 5992.312
230.7505, 5961.128
231.2326, 5965.991
231.7147, 6020.711
232.1968, 6060.520
232.6790, 6047.085
233.1611, 6016.064
233.6432, 5994.853
234.1253, 5990.042
234.6074, 5997.150
235.0895, 6014.819
235.5717, 6045.008
236.0538, 6069.523
236.5359, 6082.428
237.0180, 6087.945
237.5001, 6086.876
237.9822, 6079.197
238.4644, 6071.744
238.9465, 6068.521
239.4286, 6069.624
239.9107, 6081.499
240.3928, 6115.839
240.8749, 6150.954
241.3571, 6170.716
241.8392, 6175.497
242.3213, 6175.827
242.8034, 6173.846
243.2855, 6171.750
243.7676, 6182.812
244.2497, 6214.753
244.7319, 6251.119
245.2140, 6284.402
245.6961, 6313.292
246.1782, 6332.233
246.6603, 6331.889
247.1424, 6320.018
247.6246, 6318.908
248.1067, 6334.530
248.5888, 6347.446
249.0709, 6336.659
249.5530, 6314.836
250.0351, 6306.059
250.5173, 6324.911
250.9994, 6357.277
251.4815, 6386.024
251.9636, 6412.141
252.4457, 6427.681
252.9278, 6417.322
253.4100, 6396.594
253.8921, 6389.108
254.3742, 6403.664
254.8563, 6425.347
255.3384, 6443.407
255.8205, 6457.682
256.3027, 6462.146
256.7848, 6448.778
257.2669, 6427.797
257.7490, 6415.178
258.2311, 6412.780
258.7133, 6414.019
259.1954, 6417.973
259.6775, 6422.953
260.1596, 6422.368
260.6417, 6414.407
261.1238, 6399.767
261.6060, 6374.948
262.0880, 6338.546
262.5702, 6313.198
263.0523, 6316.216
263.5344, 6334.866
264.0165, 6345.883
264.4986, 6344.732
264.9807, 6337.738
265.4629, 6330.457
265.9450, 6322.891
266.4271, 6314.332
266.9092, 6303.604
267.3913, 6292.404
267.8734, 6280.833
268.3556, 6268.965
268.8377, 6262.302
269.3198, 6267.240
269.8019, 6282.547
270.2840, 6291.890
270.7661, 6292.385
271.2483, 6289.444
271.7304, 6285.964
272.2125, 6281.882
272.6946, 6275.353
273.1767, 6263.135
273.6588, 6249.381
274.1410, 6250.625
274.6231, 6282.182
275.1052, 6306.562
275.5873, 6304.791
276.0694, 6289.195
276.5515, 6282.296
277.0337, 6293.086
277.5158, 6313.937
277.9979, 6330.337
278.4800, 6341.208
278.9621, 6349.772
279.4442, 6348.968
279.9264, 6349.734
280.4085, 6368.774
280.8906, 6407.756
281.3727, 6445.127
281.8548, 6452.605
282.3369, 6416.366
282.8191, 6404.124
283.3012, 6434.511
283.7833, 6470.476
284.2654, 6492.735
284.7475, 6500.541
285.2296, 6500.879
285.7118, 6497.933
286.1939, 6491.811
286.6760, 6495.696
287.1581, 6514.017
287.6402, 6536.751
288.1223, 6565.521
288.6045, 6596.214
289.0866, 6623.705
289.5687, 6645.467
290.0508, 6660.787
290.5329, 6665.553
291.0150, 6635.140
291.4972, 6630.532
291.9793, 6675.994
292.4614, 6737.300
292.9435, 6785.279
293.4256, 6810.787
293.9077, 6820.762
294.3899, 6822.701
294.8720, 6810.015
295.3541, 6808.291
295.8362, 6821.630
296.3183, 6842.509
296.8004, 6869.410
297.2826, 6900.906
297.7647, 6934.301
298.2468, 6969.976
298.7289, 7007.728
299.2110, 7031.166
299.6931, 7024.651
300.1753, 7022.366
300.6574, 7032.797
301.1395, 7056.481
301.6216, 7096.607
302.1037, 7162.581
302.5858, 7236.967
303.0680, 7271.126
303.5501, 7244.830
304.0322, 7232.365
304.5143, 7278.490
304.9964, 7341.981
305.4785, 7382.213
305.9607, 7385.715
306.4428, 7381.840
306.9249, 7402.856
307.4070, 7448.513
307.8891, 7494.802
308.3712, 7539.188
308.8534, 7578.988
309.3355, 7607.854
309.8176, 7626.483
310.2997, 7652.971
310.7818, 7712.104
311.2639, 7785.555
311.7461, 7820.511
312.2282, 7799.503
312.7103, 7778.474
313.1924, 7815.771
313.6745, 7893.710
314.1566, 7955.963
314.6388, 7979.146
315.1209, 7990.023
315.6030, 8010.104
316.0851, 8039.817
316.5672, 8079.631
317.0493, 8133.848
317.5315, 8196.435
318.0136, 8248.138
318.4957, 8284.046
318.9778, 8317.313
319.4599, 8349.253
319.9420, 8382.314
320.4242, 8423.999
320.9063, 8477.642
321.3884, 8532.926
321.8705, 8572.608
322.3526, 8589.060
322.8347, 8609.213
323.3169, 8628.601
323.7990, 8655.728
324.2811, 8703.681
324.7632, 8770.235
325.2453, 8835.727
325.7274, 8882.476
326.2096, 8909.660
326.6917, 8934.322
327.1738, 8953.591
327.6559, 8973.932
328.1380, 8999.473
328.6201, 9027.219
329.1023, 9051.824
329.5844, 9070.337
330.0665, 9084.914
330.5486, 9102.103
331.0307, 9128.817
331.5128, 9146.509
331.9950, 9146.268
332.4771, 9142.124
332.9592, 9147.714
333.4413, 9164.582
333.9234, 9181.059
334.4055, 9181.999
334.8877, 9164.864
335.3698, 9148.894
335.8519, 9139.965
336.3340, 9126.466
336.8161, 9103.134
337.2982, 9071.416
337.7804, 9034.498
338.2625, 8990.834
338.7446, 8945.339
339.2267, 8914.042
339.7088, 8902.336
340.1909, 8890.217
340.6731, 8874.413
341.1552, 8851.412
341.6373, 8813.190
342.1194, 8753.689
342.6015, 8694.429
343.0836, 8657.320
343.5658, 8640.262
344.0479, 8627.326
344.5300, 8617.408
345.0121, 8606.320
345.4942, 8589.387
345.9763, 8566.960
346.4584, 8541.341
346.9406, 8506.510
347.4227, 8471.848
347.9048, 8452.003
348.3869, 8448.412
348.8690, 8448.785
349.3511, 8445.582
349.8333, 8438.359
350.3154, 8426.920
350.7975, 8415.152
351.2796, 8395.388
351.7617, 8355.661
352.2438, 8305.721
352.7260, 8266.387
353.2081, 8246.807
353.6902, 8241.036
354.1723, 8237.161
354.6544, 8232.735
355.1365, 8235.138
355.6187, 8266.921
356.1008, 8290.215
356.5829, 8263.841
357.0650, 8190.931
357.5471, 8116.476
358.0292, 8085.610
358.5114, 8101.574
358.9935, 8095.872
359.4756, 8040.447
359.9577, 7992.429
360.4398, 7971.149
360.9219, 7965.018
361.4041, 7957.115
361.8862, 7939.832
362.3683, 7913.813
362.8504, 7876.155
363.3325, 7816.424
363.8146, 7775.789
364.2968, 7783.452
364.7789, 7796.327
365.2610, 7783.502
365.7431, 7744.116
366.2252, 7704.677
366.7073, 7691.625
367.1895, 7698.375
367.6716, 7688.350
368.1537, 7652.836
368.6358, 7615.432
369.1179, 7589.750
369.6000, 7573.121
370.0822, 7562.564
370.5643, 7562.810
371.0464, 7562.729
371.5285, 7548.422
372.0106, 7522.306
372.4927, 7500.897
372.9749, 7490.351
373.4570, 7488.123
373.9391, 7493.174
374.4212, 7510.459
374.9033, 7514.314
375.3854, 7480.845
375.8676, 7439.494
376.3497, 7430.262
376.8318, 7456.313
377.3139, 7481.427
377.7960, 7471.100
378.2781, 7423.880
378.7603, 7398.719
379.2424, 7411.306
379.7245, 7424.250
380.2066, 7424.004
380.6887, 7416.151
381.1708, 7411.146
381.6530, 7413.557
382.1351, 7419.081
382.6172, 7418.250
383.0993, 7405.248
383.5814, 7398.123
384.0635, 7409.367
384.5457, 7416.085
385.0278, 7401.100
385.5099, 7367.008
385.9920, 7329.510
386.4741, 7293.813
386.9562, 7264.546
387.4384, 7276.610
387.9205, 7358.076
388.4026, 7427.991
388.8847, 7453.161
389.3668, 7450.340
389.8489, 7434.247
390.3311, 7405.287
390.8132, 7376.891
391.2953, 7363.536
391.7774, 7363.562
392.2595, 7365.260
392.7416, 7367.202
393.2238, 7368.077
393.7059, 7367.307
394.1880, 7364.915
394.6701, 7357.911
395.1522, 7341.884
395.6343, 7323.366
396.1165, 7307.680
396.5986, 7295.288
397.0807, 7288.016
397.5628, 7289.475
398.0449, 7294.791
398.5270, 7284.312
399.0092, 7254.543
399.4913, 7216.008
399.9734, 7159.827
400.4555, 7101.098
400.9376, 7054.690
401.4197, 7024.000
401.9019, 7003.968
402.3840, 6990.267
402.8661, 6984.710
403.3482, 6972.085
403.8303, 6949.083
404.3124, 6922.269
404.7946, 6891.237
405.2767, 6858.023
405.7588, 6825.850
406.2409, 6796.131
406.7230, 6766.874
407.2051, 6730.410
407.6873, 6681.567
408.1694, 6650.305
408.6515, 6665.158
409.1336, 6680.879
409.6157, 6660.063
410.0978, 6605.721
410.5800, 6556.783
411.0621, 6537.327
411.5442, 6537.409
412.0263, 6542.200
412.5084, 6552.812
412.9905, 6551.972
413.4727, 6522.119
413.9548, 6475.414
414.4369, 6447.137
414.9190, 6446.768
415.4011, 6449.438
415.8832, 6444.202
416.3654, 6435.523
416.8475, 6432.086
417.3296, 6435.947
417.8117, 6439.165
418.2938, 6431.516
418.7759, 6409.917
419.2581, 6396.593
419.7402, 6397.820
420.2223, 6399.424
420.7044, 6396.866
421.1865, 6390.254
421.6686, 6379.393
422.1508, 6363.944
422.6329, 6347.715
423.1150, 6339.866
423.5971, 6344.515
424.0792, 6346.656
424.5613, 6346.454
425.0435, 6342.011
425.5256, 6329.512
426.0077, 6310.747
426.4898, 6293.120
426.9719, 6278.318
427.4540, 6268.916
427.9361, 6277.423
428.4182, 6310.528
428.9004, 6329.385
429.3825, 6301.270
429.8646, 6255.221
430.3467, 6239.097
430.8288, 6264.862
431.3109, 6290.043
431.7931, 6288.435
432.2752, 6273.741
432.7573, 6270.410
433.2394, 6282.944
433.7215, 6300.133
434.2036, 6314.542
434.6858, 6325.973
435.1679, 6319.094
435.6500, 6271.025
436.1321, 6232.571
436.6142, 6222.869
437.0963, 6233.142
437.5785, 6254.202
438.0606, 6281.735
438.5427, 6306.331
439.0248, 6311.706
439.5069, 6292.271
439.9890, 6271.669
440.4712, 6235.508
440.9533, 6211.977
441.4354, 6219.797
441.9175, 6248.982
442.3996, 6277.933
442.8817, 6297.437
443.3639, 6307.510
443.8460, 6305.635
444.3281, 6290.666
444.8102, 6277.109
445.2923, 6272.072
445.7744, 6267.290
446.2566, 6250.764
446.7387, 6222.197
447.2208, 6200.527
447.7029, 6191.962
448.1850, 6194.344
448.6671, 6210.290
449.1493, 6237.778
449.6314, 6261.286
450.1135, 6271.081
450.5956, 6269.913
451.0777, 6267.948
451.5598, 6270.839
452.0420, 6265.452
452.5241, 6238.580
453.0062, 6210.538
453.4883, 6202.128
453.9704, 6214.072
454.4525, 6229.677
454.9347, 6231.970
455.4168, 6222.417
455.8989, 6228.468
456.3810, 6270.596
456.8631, 6296.881
457.3452, 6280.867
457.8274, 6250.055
458.3095, 6234.458
458.7916, 6241.729
459.2737, 6256.522
459.7558, 6266.214
460.2379, 6271.527
460.7201, 6276.199
461.2022, 6280.957
461.6843, 6284.189
462.1664, 6285.474
462.6485, 6284.156
463.1306, 6277.864
463.6128, 6256.217
464.0949, 6240.508
464.5770, 6245.866
465.0591, 6264.075
465.5412, 6283.345
466.0233, 6300.015
466.5055, 6306.124
466.9876, 6287.160
467.4697, 6231.017
467.9518, 6210.060
468.4339, 6253.123
468.9160, 6295.996
469.3982, 6317.070
469.8803, 6321.684
470.3624, 6321.324
470.8445, 6321.020
471.3266, 6316.847
471.8087, 6295.979
472.2909, 6253.323
472.7730, 6237.446
473.2551, 6275.446
473.7372, 6316.633
474.2193, 6323.350
474.7014, 6304.863
475.1836, 6291.603
475.6657, 6297.419
476.1478, 6310.251
476.6299, 6320.582
477.1120, 6327.964
477.5941, 6329.584
478.0763, 6323.870
478.5584, 6313.466
479.0405, 6301.144
479.5226, 6283.967
480.0047, 6275.855
480.4868, 6287.493
480.9690, 6298.754
481.4511, 6295.189
481.9332, 6281.563
482.4153, 6271.484
482.8974, 6272.369
483.3795, 6278.371
483.8617, 6273.785
484.3438, 6249.661
484.8259, 6240.759
485.3080, 6270.701
485.7901, 6299.901
486.2722, 6306.313
486.7544, 6294.005
487.2365, 6280.040
487.7186, 6272.094
488.2007, 6268.393
488.6828, 6266.976
489.1649, 6267.774
489.6471, 6268.767
490.1292, 6268.636
490.6113, 6269.249
491.0934, 6273.819
491.5755, 6282.505
492.0576, 6292.247
492.5398, 6304.474
493.0219, 6316.049
493.5040, 6323.835
493.9861, 6328.876
494.4682, 6334.952
494.9503, 6344.152
495.4325, 6354.632
495.9146, 6361.438
496.3967, 6362.307
496.8788, 6364.470
497.3609, 6365.007
497.8430, 6369.698
498.3252, 6390.398
498.8073, 6418.613
499.2894, 6429.987
499.7715, 6405.076
500.2536, 6364.105
500.7357, 6337.942
501.2179, 6326.579
501.7000, 6332.844
502.1821, 6363.031
502.6642, 6403.975
503.1463, 6446.105
503.6284, 6490.154
504.1106, 6511.375
504.5927, 6475.393
505.0748, 6440.581
505.5569, 6457.895
506.0390, 6512.591
506.5211, 6560.816
507.0033, 6582.220
507.4854, 6584.211
507.9675, 6579.116
508.4496, 6558.415
508.9317, 6551.677
509.4138, 6567.993
509.8959, 6588.605
510.3781, 6606.322
510.8602, 6621.839
511.3423, 6640.443
511.8244, 6668.112
512.3065, 6690.377
512.7886, 6677.238
513.2708, 6630.741
513.7529, 6604.301
514.2350, 6616.661
514.7171, 6639.345
515.1992, 6644.779
515.6813, 6634.980
516.1635, 6621.691
516.6456, 6602.587
517.1277, 6584.260
517.6098, 6569.542
518.0919, 6558.593
518.5740, 6552.121
519.0562, 6550.321
519.5383, 6551.262
520.0204, 6552.631
520.5025, 6554.779
520.9846, 6555.331
521.4667, 6550.266
521.9489, 6548.014
522.4310, 6557.134
522.9131, 6568.304
523.3952, 6565.461
523.8773, 6542.014
524.3594, 6519.383
524.8416, 6524.920
525.3237, 6551.710
525.8058, 6565.173
526.2879, 6558.423
526.7700, 6550.008
527.2521, 6555.454
527.7343, 6570.760
528.2164, 6575.649
528.6985, 6555.157
529.1806, 6544.181
529.6627, 6562.704
530.1448, 6591.644
530.6270, 6609.865
531.1091, 6613.666
531.5912, 6608.520
532.0733, 6597.045
532.5554, 6581.320
533.0375, 6582.143
533.5197, 6612.885
534.0018, 6636.119
534.4839, 6640.266
534.9660, 6635.984
535.4481, 6630.197
535.9302, 6624.217
536.4124, 6619.775
536.8945, 6619.335
537.3766, 6620.609
537.8587, 6617.283
538.3408, 6609.757
538.8229, 6610.052
539.3051, 6625.836
539.7872, 6649.968
540.2693, 6669.036
540.7514, 6686.629
541.2335, 6689.719
541.7156, 6665.205
542.1978, 6637.320
542.6799, 6620.133
543.1620, 6612.326
543.6441, 6606.785
544.1262, 6599.665
544.6083, 6594.798
545.0905, 6599.712
545.5726, 6615.050
546.0547, 6637.374
546.5368, 6676.942
547.0189, 6709.333
547.5010, 6711.574
547.9832, 6694.467
548.4653, 6686.771
548.9474, 6702.877
549.4295, 6720.305
549.9116, 6722.854
550.3937, 6715.433
550.8759, 6706.874
551.3580, 6699.339
551.8401, 6693.363
552.3222, 6688.765
552.8043, 6685.599
553.2864, 6690.922
553.7686, 6713.328
554.2507, 6734.335
554.7328, 6755.133
555.2149, 6770.960
555.6970, 6775.342
556.1791, 6768.474
556.6613, 6759.318
557.1434, 6750.319
557.6255, 6745.230
558.1076, 6760.351
558.5897, 6798.569
559.0718, 6827.122
559.5540, 6831.057
560.0361, 6819.146
560.5182, 6805.249
561.0003, 6788.832
561.4824, 6773.511
561.9645, 6761.336
562.4467, 6749.079
562.9288, 6732.585
563.4109, 6714.368
563.8930, 6702.321
564.3751, 6700.375
564.8572, 6699.248
565.3394, 6678.649
565.8215, 6631.764
566.3036, 6603.976
566.7857, 6611.464
567.2678, 6619.533
567.7499, 6609.158
568.2321, 6587.562
568.7142, 6568.336
569.1963, 6557.034
569.6784, 6542.268
570.1605, 6508.872
570.6426, 6469.073
571.1248, 6445.849
571.6069, 6442.291
572.0890, 6447.378
572.5711, 6453.600
573.0532, 6460.971
573.5353, 6469.762
574.0175, 6488.378
574.4996, 6495.570
574.9817, 6484.601
575.4638, 6466.851
575.9459, 6446.306
576.4280, 6426.023
576.9102, 6412.670
577.3923, 6412.871
577.8744, 6418.367
578.3565, 6413.915
578.8386, 6400.324
579.3207, 6390.933
579.8029, 6390.748
580.2850, 6391.828
580.7671, 6383.965
581.2492, 6366.516
581.7313, 6358.190
582.2134, 6367.833
582.6956, 6376.479
583.1777, 6375.689
583.6598, 6370.609
584.1419, 6368.420
584.6240, 6370.449
585.1061, 6372.392
585.5883, 6369.845
586.0704, 6363.443
586.5525, 6357.699
587.0346, 6353.685
587.5167, 6346.608
587.9988, 6329.802
588.4810, 6312.883
588.9631, 6309.686
589.4452, 6321.348
589.9273, 6325.939
590.4094, 6310.514
590.8915, 6290.863
591.3737, 6279.357
591.8558, 6274.311
592.3379, 6269.368
592.8200, 6261.974
593.3021, 6255.526
593.7842, 6256.007
594.2664, 6265.220
594.7485, 6268.759
595.2306, 6260.853
595.7127, 6255.086
596.1948, 6259.060
596.6769, 6266.256
597.1591, 6268.624
597.6412, 6264.529
598.1233, 6257.479
598.6054, 6249.419
599.0875, 6239.883
599.5696, 6226.255
600.0518, 6209.457
600.5339, 6195.529
601.0160, 6187.079
601.4981, 6185.503
601.9802, 6194.546
602.4623, 6219.715
602.9445, 6242.302
603.4266, 6269.038
603.9087, 6286.437
604.3908, 6277.597
604.8729, 6258.440
605.3550, 6258.707
605.8372, 6290.994
606.3193, 6324.960
606.8014, 6325.716
607.2835, 6304.573
607.7656, 6296.875
608.2477, 6306.997
608.7299, 6314.556
609.2120, 6303.869
609.6941, 6284.055
610.1762, 6283.738
610.6583, 6321.784
611.1404, 6347.871
611.6226, 6352.020
612.1047, 6352.009
612.5868, 6360.887
613.0689, 6374.357
613.5510, 6379.553
614.0331, 6369.462
614.5153, 6355.065
614.9974, 6351.376
615.4795, 6357.277
615.9616, 6363.237
616.4437, 6366.450
616.9258, 6376.902
617.4080, 6405.552
617.8901, 6446.154
618.3722, 6473.369
618.8543, 6476.075
619.3364, 6485.706
619.8185, 6520.557
620.3007, 6553.433
620.7828, 6558.952
621.2649, 6543.081
621.7470, 6529.427
622.2291, 6531.247
622.7112, 6540.743
623.1934, 6541.347
623.6755, 6533.013
624.1576, 6540.693
624.6397, 6572.190
625.1218, 6609.519
625.6039, 6643.955
626.0861, 6674.042
626.5682, 6694.656
627.0503, 6694.157
627.5324, 6703.645
628.0145, 6742.673
628.4966, 6786.973
628.9788, 6811.491
629.4609, 6819.191
629.9430, 6830.046
630.4251, 6856.785
630.9072, 6888.903
631.3893, 6898.413
631.8715, 6881.513
632.3535, 6896.012
632.8356, 6963.988
633.3177, 7036.156
633.7999, 7079.289
634.2820, 7099.677
634.7641, 7112.753
635.2462, 7107.083
635.7283, 7116.478
636.2104, 7161.625
636.6926, 7220.335
637.1747, 7272.934
637.6568, 7317.844
638.1389, 7360.052
638.6210, 7402.431
639.1031, 7444.418
639.5853, 7480.750
640.0674, 7509.136
640.5495, 7558.783
641.0316, 7645.235
641.5137, 7731.464
641.9958, 7784.145
642.4780, 7819.687
642.9601, 7876.885
643.4422, 7970.391
643.9243, 8061.454
644.4064, 8132.698
644.8885, 8198.691
645.3707, 8272.042
645.8528, 8353.648
646.3349, 8436.711
646.8170, 8517.049
647.2991, 8604.292
647.7813, 8724.262
648.2634, 8880.334
648.7455, 9009.258
649.2276, 9086.583
649.7097, 9174.378
650.1918, 9319.313
650.6740, 9498.423
651.1561, 9663.858
651.6382, 9800.420
652.1203, 9955.736
652.6024, 10159.08
653.0845, 10374.86
653.5667, 10572.19
654.0488, 10755.78
654.5309, 10947.93
655.0130, 11158.65
655.4951, 11380.65
655.9772, 11606.85
656.4594, 11838.60
656.9415, 12050.17
657.4236, 12228.92
657.9057, 12421.42
658.3878, 12665.00
658.8699, 12932.08
659.3521, 13158.85
659.8342, 13328.25
660.3163, 13525.55
660.7984, 13801.58
661.2805, 14079.51
661.7626, 14298.02
662.2448, 14477.41
662.7269, 14674.85
663.2090, 14908.93
663.6911, 15125.44
664.1732, 15247.85
664.6553, 15287.33
665.1375, 15352.77
665.6196, 15455.46
666.1017, 15533.32
666.5838, 15562.01
667.0659, 15550.57
667.5480, 15512.61
668.0302, 15450.60
668.5123, 15352.44
668.9944, 15205.43
669.4765, 15034.21
669.9586, 14852.33
670.4407, 14651.47
670.9229, 14412.50
671.4050, 14133.59
671.8871, 13851.38
672.3692, 13605.12
672.8513, 13376.71
673.3334, 13103.76
673.8156, 12786.50
674.2977, 12477.48
674.7798, 12192.36
675.2619, 11923.45
675.7440, 11663.15
676.2261, 11410.92
676.7083, 11162.89
677.1904, 10905.71
677.6725, 10669.51
678.1546, 10470.65
678.6367, 10289.16
679.1188, 10111.52
679.6010, 9934.100
680.0831, 9753.359
680.5652, 9561.561
681.0473, 9374.800
681.5294, 9224.456
682.0115, 9103.406
682.4937, 8974.199
682.9758, 8828.844
683.4579, 8683.645
683.9400, 8551.205
684.4221, 8431.439
684.9042, 8320.633
685.3864, 8219.296
685.8685, 8127.578
686.3506, 8050.520
686.8327, 7976.641
687.3148, 7900.087
687.7969, 7820.984
688.2791, 7738.498
688.7612, 7646.711
689.2433, 7567.977
689.7254, 7532.002
690.2075, 7516.237
690.6896, 7481.913
691.1718, 7426.452
691.6539, 7361.293
692.1360, 7291.839
692.6181, 7225.118
693.1002, 7177.909
693.5823, 7156.322
694.0645, 7131.031
694.5466, 7096.875
695.0287, 7066.634
695.5108, 7052.448
695.9929, 7041.901
696.4750, 7015.573
696.9572, 6968.880
697.4393, 6929.755
697.9214, 6909.815
698.4035, 6900.942
698.8856, 6910.321
699.3677, 6922.747
699.8499, 6899.373
700.3320, 6830.983
700.8141, 6761.517
701.2962, 6744.373
701.7783, 6770.008
702.2604, 6775.936
702.7426, 6758.617
703.2247, 6738.345
703.7068, 6718.223
704.1889, 6701.332
704.6710, 6693.951
705.1531, 6695.533
705.6353, 6688.892
706.1174, 6667.005
706.5995, 6644.875
707.0816, 6623.232
707.5637, 6605.911
708.0458, 6600.010
708.5280, 6602.609
709.0101, 6601.548
709.4922, 6589.084
709.9743, 6570.939
710.4564, 6554.963
710.9385, 6540.554
711.4207, 6524.155
711.9028, 6504.925
712.3849, 6488.043
712.8670, 6477.778
713.3491, 6471.545
713.8312, 6461.268
714.3134, 6441.977
714.7955, 6428.674
715.2776, 6420.837
715.7597, 6419.376
716.2418, 6436.104
716.7239, 6455.154
717.2061, 6448.488
717.6882, 6407.766
718.1703, 6370.317
718.6524, 6357.843
719.1345, 6359.247
719.6166, 6366.296
720.0988, 6375.828
720.5809, 6382.754
721.0630, 6385.036
721.5451, 6378.554
722.0272, 6354.566
722.5093, 6315.898
722.9915, 6299.159
723.4736, 6310.719
723.9557, 6322.129
724.4378, 6324.073
724.9199, 6324.767
725.4020, 6336.032
725.8842, 6355.229
726.3663, 6363.936
726.8484, 6360.133
727.3305, 6345.938
727.8126, 6308.541
728.2947, 6270.899
728.7769, 6256.364
729.2590, 6262.232
729.7411, 6272.014
730.2232, 6278.192
730.7053, 6279.176
731.1874, 6268.560
731.6696, 6250.615
732.1517, 6245.707
732.6338, 6256.164
733.1159, 6256.061
733.5980, 6226.680
734.0801, 6188.774
734.5623, 6188.676
735.0444, 6243.704
735.5265, 6276.141
736.0086, 6276.412
736.4907, 6265.132
736.9728, 6234.146
737.4550, 6203.285
737.9371, 6198.768
738.4192, 6222.333
738.9013, 6240.777
739.3834, 6239.295
739.8655, 6228.561
740.3477, 6210.390
740.8298, 6191.163
741.3119, 6182.416
741.7940, 6185.566
742.2761, 6192.145
742.7582, 6195.452
743.2404, 6197.197
743.7225, 6200.521
744.2046, 6205.170
744.6867, 6222.089
745.1688, 6261.697
745.6509, 6286.335
746.1331, 6261.000
746.6152, 6203.333
747.0973, 6172.896
747.5794, 6176.481
748.0615, 6194.449
748.5436, 6247.629
749.0258, 6292.657
749.5079, 6304.198
749.9900, 6294.739
750.4721, 6283.762
750.9542, 6276.160
751.4363, 6268.568
751.9185, 6252.168
752.4006, 6239.186
752.8827, 6250.315
753.3648, 6278.156
753.8469, 6302.569
754.3290, 6317.226
754.8112, 6318.169
755.2933, 6298.297
755.7754, 6263.775
756.2575, 6245.985
756.7396, 6247.151
757.2217, 6257.586
757.7039, 6285.140
758.1860, 6305.954
758.6681, 6293.317
759.1502, 6258.751
759.6323, 6248.463
760.1144, 6283.373
760.5966, 6303.784
761.0787, 6284.874
761.5608, 6263.966
762.0429, 6264.357
762.5250, 6280.497
763.0071, 6302.711
763.4893, 6327.884
763.9714, 6345.136
764.4535, 6339.042
764.9356, 6322.909
765.4177, 6319.504
765.8998, 6326.225
766.3820, 6327.358
766.8641, 6318.128
767.3462, 6316.017
767.8283, 6342.147
768.3104, 6389.777
768.7925, 6415.976
769.2747, 6416.781
769.7568, 6407.642
770.2389, 6380.967
770.7210, 6359.297
771.2031, 6365.047
771.6852, 6388.655
772.1674, 6401.367
772.6495, 6399.767
773.1316, 6392.417
773.6137, 6367.896
774.0958, 6350.730
774.5779, 6365.992
775.0601, 6396.642
775.5422, 6410.081
776.0243, 6397.802
776.5064, 6385.420
776.9885, 6398.758
777.4706, 6421.585
777.9528, 6426.714
778.4349, 6418.866
778.9170, 6416.394
779.3991, 6424.253
779.8812, 6436.059
780.3633, 6445.752
780.8455, 6454.628
781.3276, 6471.025
781.8097, 6499.661
782.2918, 6513.176
782.7739, 6501.888
783.2560, 6485.623
783.7382, 6472.899
784.2203, 6465.710
784.7024, 6468.833
785.1845, 6483.019
785.6666, 6504.940
786.1487, 6549.853
786.6309, 6585.582
787.1130, 6586.618
787.5951, 6573.503
788.0772, 6578.565
788.5593, 6605.433
789.0414, 6623.615
789.5236, 6603.336
790.0057, 6573.633
790.4878, 6565.015
790.9699, 6572.227
791.4520, 6587.572
791.9341, 6607.746
792.4163, 6623.841
792.8984, 6629.349
793.3805, 6627.685
793.8626, 6625.627
794.3447, 6623.035
794.8268, 6623.613
795.3090, 6627.642
795.7911, 6635.138
796.2732, 6647.694
796.7552, 6662.019
797.2374, 6672.662
797.7195, 6679.727
798.2016, 6682.580
798.6837, 6672.729
799.1658, 6669.774
799.6479, 6688.570
800.1301, 6708.805
800.6122, 6708.911
801.0943, 6691.900
801.5764, 6679.383
802.0585, 6673.804
802.5406, 6683.822
803.0228, 6734.510
803.5049, 6791.020
803.9870, 6808.752
804.4691, 6791.726
804.9512, 6762.921
805.4333, 6732.499
805.9155, 6713.568
806.3976, 6729.038
806.8797, 6769.590
807.3618, 6804.138
807.8439, 6831.722
808.3260, 6836.199
808.8082, 6807.779
809.2903, 6783.314
809.7724, 6806.584
810.2545, 6869.782
810.7366, 6899.093
811.2188, 6879.587
811.7009, 6860.660
812.1830, 6837.498
812.6651, 6828.963
813.1472, 6866.447
813.6293, 6921.667
814.1115, 6931.967
814.5936, 6873.307
815.0757, 6837.360
815.5578, 6866.359
816.0399, 6897.452
816.5220, 6890.269
817.0042, 6866.613
817.4863, 6861.134
817.9684, 6877.007
818.4505, 6886.056
818.9326, 6862.747
819.4147, 6835.057
819.8969, 6838.903
820.3790, 6859.507
820.8611, 6864.188
821.3432, 6851.594
821.8253, 6846.431
822.3074, 6864.113
822.7896, 6886.687
823.2717, 6878.313
823.7538, 6841.478
824.2359, 6827.288
824.7180, 6840.648
825.2001, 6846.652
825.6823, 6829.932
826.1644, 6806.369
826.6465, 6794.522
827.1286, 6794.190
827.6107, 6795.102
828.0928, 6799.135
828.5750, 6801.246
829.0571, 6799.022
829.5392, 6796.503
830.0213, 6794.789
830.5034, 6794.715
830.9855, 6801.324
831.4677, 6822.708
831.9498, 6823.142
832.4319, 6768.345
832.9140, 6713.646
833.3961, 6694.379
833.8782, 6698.048
834.3604, 6709.357
834.8425, 6722.160
835.3246, 6725.775
835.8067, 6708.203
836.2888, 6685.441
836.7709, 6674.636
837.2531, 6673.329
837.7352, 6681.401
838.2173, 6695.484
838.6994, 6699.838
839.1815, 6685.764
839.6636, 6659.785
840.1458, 6627.695
840.6279, 6590.787
841.1100, 6566.414
841.5921, 6554.779
842.0742, 6555.385
842.5563, 6571.164
843.0385, 6589.462
843.5206, 6596.792
844.0027, 6594.677
844.4848, 6596.446
844.9669, 6601.000
845.4490, 6612.314
845.9312, 6649.233
846.4133, 6671.172
846.8954, 6645.029
847.3775, 6595.683
847.8596, 6563.041
848.3417, 6551.085
848.8239, 6546.978
849.3060, 6550.716
849.7881, 6558.976
850.2702, 6576.142
850.7523, 6593.143
851.2344, 6599.795
851.7166, 6596.461
852.1987, 6589.661
852.6808, 6580.286
853.1629, 6573.335
853.6450, 6574.197
854.1271, 6578.855
854.6093, 6581.152
855.0914, 6582.364
855.5735, 6590.811
856.0556, 6608.556
856.5377, 6620.137
857.0198, 6603.764
857.5020, 6572.908
857.9841, 6564.075
858.4662, 6574.710
858.9483, 6587.234
859.4304, 6598.096
859.9125, 6609.893
860.3947, 6625.262
860.8768, 6640.445
861.3589, 6643.209
861.8410, 6628.958
862.3231, 6636.799
862.8052, 6679.654
863.2874, 6707.746
863.7695, 6696.013
864.2516, 6670.231
864.7337, 6661.502
865.2158, 6669.408
865.6979, 6666.985
866.1801, 6637.315
866.6622, 6622.124
867.1443, 6627.872
867.6264, 6645.034
868.1085, 6678.431
868.5906, 6716.125
869.0728, 6736.686
869.5549, 6735.830
870.0370, 6728.358
870.5191, 6707.551
871.0012, 6693.969
871.4833, 6708.892
871.9655, 6731.018
872.4476, 6729.880
872.9297, 6709.015
873.4118, 6700.071
873.8939, 6722.275
874.3760, 6747.871
874.8582, 6753.030
875.3403, 6747.012
875.8224, 6742.541
876.3045, 6738.711
876.7866, 6726.601
877.2687, 6704.526
877.7509, 6688.111
878.2330, 6696.222
878.7151, 6716.228
879.1972, 6718.024
879.6793, 6705.173
880.1614, 6697.982
880.6436, 6699.469
881.1257, 6697.793
881.6078, 6684.757
882.0899, 6670.484
882.5720, 6676.422
883.0541, 6703.325
883.5363, 6711.239
884.0184, 6692.404
884.5005, 6697.759
884.9826, 6756.045
885.4647, 6807.421
885.9468, 6788.846
886.4290, 6716.861
886.9111, 6679.781
887.3932, 6696.350
887.8753, 6707.222
888.3574, 6705.397
888.8395, 6705.132
889.3217, 6714.438
889.8038, 6727.572
890.2859, 6738.855
890.7680, 6748.222
891.2501, 6752.326
891.7322, 6746.093
892.2144, 6740.975
892.6965, 6741.910
893.1786, 6742.865
893.6607, 6737.151
894.1428, 6728.537
894.6249, 6726.370
895.1071, 6733.713
895.5892, 6739.653
896.0713, 6737.968
896.5534, 6734.638
897.0355, 6734.435
897.5176, 6734.788
897.9998, 6728.439
898.4819, 6718.158
898.9640, 6719.446
899.4461, 6743.974
899.9282, 6767.716
900.4103, 6768.258
900.8925, 6753.813
901.3746, 6728.587
901.8567, 6699.955
902.3388, 6685.433
902.8209, 6689.792
903.3030, 6704.819
903.7852, 6726.503
904.2673, 6749.237
904.7494, 6763.073
905.2315, 6768.395
905.7136, 6761.123
906.1957, 6743.088
906.6779, 6741.119
907.1600, 6769.582
907.6421, 6800.254
908.1242, 6789.688
908.6063, 6746.056
909.0884, 6729.534
909.5706, 6741.501
910.0527, 6757.187
910.5348, 6773.042
911.0169, 6783.198
911.4990, 6781.250
911.9811, 6774.930
912.4633, 6784.203
912.9454, 6813.603
913.4275, 6833.353
913.9096, 6846.434
914.3917, 6839.521
914.8738, 6791.747
915.3560, 6748.620
915.8381, 6760.726
916.3202, 6815.233
916.8023, 6840.374
917.2844, 6812.393
917.7665, 6798.193
918.2487, 6804.773
918.7308, 6816.908
919.2129, 6829.460
919.6950, 6844.355
920.1771, 6871.343
920.6592, 6908.609
921.1414, 6918.311
921.6235, 6862.878
922.1056, 6827.200
922.5877, 6843.075
923.0698, 6867.782
923.5519, 6875.045
924.0341, 6871.702
924.5162, 6872.176
924.9983, 6878.949
925.4804, 6883.323
925.9625, 6881.600
926.4446, 6877.525
926.9268, 6862.768
927.4089, 6854.597
927.8910, 6879.331
928.3731, 6924.235
928.8552, 6953.362
929.3373, 6954.243
929.8195, 6947.343
930.3016, 6939.825
930.7837, 6935.682
931.2658, 6945.153
931.7479, 6956.929
932.2300, 6949.430
932.7122, 6925.360
933.1943, 6908.473
933.6764, 6911.545
934.1585, 6921.979
934.6406, 6931.890
935.1227, 6938.485
935.6049, 6931.803
936.0870, 6919.206
936.5691, 6922.359
937.0512, 6943.983
937.5333, 6964.654
938.0154, 6969.861
938.4976, 6969.413
938.9797, 6978.388
939.4618, 6993.575
939.9439, 7011.086
940.4260, 7027.553
940.9081, 7025.434
941.3903, 6999.744
941.8724, 6972.440
942.3545, 6961.848
942.8366, 6968.413
943.3187, 7002.505
943.8008, 7057.520
944.2830, 7088.250
944.7651, 7090.904
945.2472, 7092.072
945.7293, 7104.115
946.2114, 7110.762
946.6935, 7088.284
947.1757, 7045.002
947.6578, 7021.962
948.1399, 7019.210
948.6220, 7036.503
949.1041, 7076.470
949.5862, 7111.811
950.0684, 7125.819
950.5505, 7133.487
951.0326, 7162.254
951.5147, 7210.843
951.9968, 7224.174
952.4789, 7194.721
952.9611, 7167.229
953.4432, 7144.542
953.9253, 7144.900
954.4074, 7188.815
954.8895, 7250.523
955.3716, 7275.235
955.8538, 7257.476
956.3359, 7249.988
956.8180, 7255.903
957.3001, 7263.862
957.7822, 7270.992
958.2643, 7280.079
958.7465, 7292.920
959.2286, 7309.517
959.7107, 7331.112
960.1928, 7362.238
960.6749, 7380.664
961.1570, 7376.904
961.6391, 7377.407
962.1212, 7389.735
962.6033, 7408.012
963.0854, 7430.006
963.5676, 7453.973
964.0497, 7472.813
964.5318, 7485.298
965.0139, 7495.736
965.4960, 7506.134
965.9781, 7511.864
966.4603, 7498.324
966.9424, 7490.293
967.4245, 7513.604
967.9066, 7562.480
968.3887, 7609.685
968.8708, 7657.957
969.3530, 7696.924
969.8351, 7730.308
970.3172, 7748.973
970.7993, 7730.951
971.2814, 7710.293
971.7635, 7727.609
972.2457, 7776.951
972.7278, 7813.705
973.2099, 7822.482
973.6920, 7837.965
974.1741, 7869.386
974.6563, 7903.754
975.1384, 7926.675
975.6205, 7954.713
976.1026, 8017.184
976.5847, 8107.971
977.0668, 8172.017
977.5490, 8180.264
978.0311, 8192.949
978.5132, 8226.725
978.9953, 8265.126
979.4774, 8295.428
979.9595, 8326.966
980.4417, 8375.551
980.9238, 8440.109
981.4059, 8499.391
981.8880, 8539.037
982.3701, 8587.008
982.8522, 8660.113
983.3344, 8735.894
983.8165, 8798.338
984.2986, 8854.904
984.7807, 8914.166
985.2628, 8978.329
985.7449, 9053.168
986.2271, 9152.011
986.7092, 9243.416
987.1913, 9305.592
987.6734, 9367.395
988.1555, 9453.355
988.6376, 9550.067
989.1198, 9631.650
989.6019, 9697.659
990.0840, 9780.964
990.5661, 9918.467
991.0482, 10037.66
991.5303, 10080.55
992.0125, 10120.12
992.4946, 10211.50
992.9767, 10337.47
993.4588, 10467.04
993.9409, 10594.73
994.4230, 10727.49
994.9052, 10876.12
995.3873, 11016.45
995.8694, 11136.55
996.3515, 11243.98
996.8336, 11330.92
997.3157, 11415.57
997.7979, 11530.17
998.2800, 11676.75
998.7621, 11821.58
999.2442, 11960.72
999.7263, 12081.37
1000.208, 12159.83
1000.691, 12234.54
1001.173, 12347.27
1001.655, 12472.83
1002.137, 12563.95
1002.619, 12616.33
1003.101, 12669.42
1003.583, 12746.73
1004.065, 12816.47
1004.547, 12861.39
1005.030, 12893.93
1005.512, 12924.37
1005.994, 12948.77
1006.476, 12968.25
1006.958, 12978.00
1007.440, 12945.66
1007.922, 12831.16
1008.404, 12719.02
1008.887, 12656.90
1009.369, 12602.31
1009.851, 12530.29
1010.333, 12439.92
1010.815, 12329.26
1011.297, 12200.79
1011.779, 12073.36
1012.261, 11965.94
1012.743, 11837.79
1013.226, 11650.13
1013.708, 11458.53
1014.190, 11315.65
1014.672, 11187.51
1015.154, 11014.65
1015.636, 10800.10
1016.118, 10605.85
1016.600, 10467.21
1017.083, 10323.75
1017.565, 10136.14
1018.047, 9953.697
1018.529, 9813.889
1019.011, 9693.072
1019.493, 9557.816
1019.975, 9408.424
1020.457, 9269.308
1020.939, 9152.314
1021.422, 9032.404
1021.904, 8885.272
1022.386, 8751.589
1022.868, 8666.286
1023.350, 8597.900
1023.832, 8502.840
1024.314, 8388.420
1024.796, 8305.514
1025.279, 8281.867
1025.761, 8243.504
1026.243, 8161.554
1026.725, 8073.596
1027.207, 7984.306
1027.689, 7907.785
1028.171, 7868.786
1028.653, 7853.954
1029.135, 7811.185
1029.618, 7719.784
1030.100, 7641.571
1030.582, 7589.008
1031.064, 7549.279
1031.546, 7530.569
1032.028, 7511.650
1032.510, 7469.605
1032.992, 7413.490
1033.474, 7371.565
1033.957, 7351.927
1034.439, 7324.683
1034.921, 7265.602
1035.403, 7228.116
1035.885, 7257.393
1036.367, 7281.861
1036.849, 7236.503
1037.331, 7153.184
1037.814, 7104.071
1038.296, 7096.295
1038.778, 7092.119
1039.260, 7101.742
1039.742, 7098.860
1040.224, 7073.396
1040.706, 7041.885
1041.188, 7009.533
1041.671, 6980.066
1042.153, 6961.889
1042.635, 6956.414
1043.117, 6939.706
1043.599, 6898.580
1044.081, 6875.581
1044.563, 6883.650
1045.045, 6895.838
1045.527, 6901.919
1046.010, 6901.433
1046.492, 6895.072
1046.974, 6882.119
1047.456, 6849.675
1047.938, 6787.189
1048.420, 6741.925
1048.902, 6718.579
1049.384, 6711.742
1049.866, 6724.931
1050.349, 6741.000
1050.831, 6743.293
1051.313, 6730.807
1051.795, 6691.994
1052.277, 6619.288
1052.759, 6586.346
1053.241, 6603.867
1053.723, 6610.385
1054.205, 6583.559
1054.688, 6553.713
1055.170, 6548.637
1055.652, 6556.318
1056.134, 6542.923
1056.616, 6509.580
1057.098, 6492.837
1057.580, 6493.235
1058.062, 6500.590
1058.545, 6512.536
1059.027, 6518.404
1059.509, 6511.793
1059.991, 6489.311
1060.473, 6431.115
1060.955, 6352.585
1061.437, 6327.274
1061.919, 6346.900
1062.401, 6365.780
1062.884, 6376.269
1063.366, 6392.311
1063.848, 6421.222
1064.330, 6440.291
1064.812, 6415.182
1065.294, 6368.389
1065.776, 6343.150
1066.258, 6334.063
1066.740, 6331.371
1067.223, 6331.856
1067.705, 6329.586
1068.187, 6322.825
1068.669, 6317.864
1069.151, 6322.781
1069.633, 6326.924
1070.115, 6314.992
1070.597, 6295.996
1071.080, 6284.307
1071.562, 6276.525
1072.044, 6258.670
1072.526, 6231.087
1073.008, 6216.417
1073.490, 6232.010
1073.972, 6248.691
1074.454, 6243.998
1074.937, 6232.098
1075.419, 6217.690
1075.901, 6209.305
1076.383, 6228.527
1076.865, 6264.673
1077.347, 6269.920
1077.829, 6219.957
1078.311, 6182.250
1078.793, 6201.918
1079.276, 6219.301
1079.758, 6194.691
1080.240, 6162.597
1080.722, 6155.905
1081.204, 6167.513
1081.686, 6177.042
1082.168, 6181.795
1082.650, 6185.305
1083.132, 6187.937
1083.615, 6189.690
1084.097, 6197.241
1084.579, 6196.597
1085.061, 6166.743
1085.543, 6131.840
1086.025, 6128.604
1086.507, 6155.305
1086.989, 6174.308
1087.472, 6185.818
1087.954, 6188.591
1088.436, 6178.462
1088.918, 6168.558
1089.400, 6165.572
1089.882, 6160.405
1090.364, 6142.400
1090.846, 6116.982
1091.328, 6102.502
1091.811, 6099.773
1092.293, 6103.180
1092.775, 6114.521
1093.257, 6116.771
1093.739, 6103.944
1094.221, 6098.811
1094.703, 6118.338
1095.185, 6144.264
1095.667, 6145.738
1096.150, 6127.329
1096.632, 6107.778
1097.114, 6088.921
1097.596, 6086.247
1098.078, 6099.899
1098.560, 6113.635
1099.042, 6120.550
1099.524, 6124.155
1100.007, 6128.779
1100.489, 6130.532
1100.971, 6117.375
1101.453, 6099.305
1101.935, 6100.771
1102.417, 6114.829
1102.899, 6117.474
1103.381, 6105.057
1103.864, 6093.484
1104.346, 6092.480
1104.828, 6091.442
1105.310, 6078.517
1105.792, 6064.561
1106.274, 6061.870
1106.756, 6063.163
1107.238, 6054.292
1107.720, 6040.337
1108.203, 6043.662
1108.685, 6072.705
1109.167, 6086.376
1109.649, 6047.309
1110.131, 6019.216
1110.613, 6043.179
1111.095, 6070.787
1111.577, 6064.498
1112.059, 6040.353
1112.542, 6023.678
1113.024, 6016.094
1113.506, 6010.992
1113.988, 6009.230
1114.470, 6008.059
1114.952, 6010.073
1115.434, 6007.771
1115.916, 5991.938
1116.399, 5981.721
1116.881, 6000.262
1117.363, 6031.846
1117.845, 6028.962
1118.327, 5986.329
1118.809, 5964.088
1119.291, 5965.653
1119.773, 5965.062
1120.255, 5957.517
1120.738, 5946.475
1121.220, 5933.422
1121.702, 5920.575
1122.184, 5909.837
1122.666, 5902.733
1123.148, 5897.053
1123.630, 5898.977
1124.112, 5959.607
1124.594, 6062.571
1125.077, 6093.613
1125.559, 6026.608
1126.041, 5952.229
1126.523, 5933.676
1127.005, 5933.804
1127.487, 5903.294
1127.969, 5869.994
1128.451, 5880.783
1128.934, 5910.928
1129.416, 5912.929
1129.898, 5891.186
1130.380, 5884.396
1130.862, 5905.793
1131.344, 5919.265
1131.826, 5898.844
1132.308, 5875.393
1132.791, 5868.718
1133.273, 5860.258
1133.755, 5824.790
1134.237, 5784.442
1134.719, 5778.232
1135.201, 5804.218
1135.683, 5813.855
1136.165, 5789.496
1136.647, 5773.547
1137.130, 5773.499
1137.612, 5771.765
1138.094, 5764.578
1138.576, 5752.261
1139.058, 5731.248
1139.540, 5709.758
1140.022, 5706.671
1140.504, 5721.838
1140.986, 5723.618
1141.469, 5709.724
1141.951, 5709.812
1142.433, 5728.833
1142.915, 5738.784
1143.397, 5727.446
1143.879, 5710.554
1144.361, 5703.250
1144.843, 5700.884
1145.326, 5693.129
1145.808, 5682.936
1146.290, 5677.720
1146.772, 5677.473
1147.254, 5684.341
1147.736, 5695.501
1148.218, 5696.502
1148.700, 5680.119
1149.182, 5664.067
1149.665, 5665.696
1150.147, 5669.629
1150.629, 5664.249
1151.111, 5653.407
1151.593, 5636.820
1152.075, 5620.026
1152.557, 5611.108
1153.039, 5611.246
1153.521, 5618.720
1154.004, 5644.522
1154.486, 5654.260
1154.968, 5619.371
1155.450, 5596.878
1155.932, 5616.145
1156.414, 5646.237
1156.896, 5671.592
1157.378, 5687.691
1157.861, 5683.058
1158.343, 5656.892
1158.825, 5636.877
1159.307, 5623.076
1159.789, 5614.922
1160.271, 5612.775
1160.753, 5613.713
1161.235, 5616.983
1161.718, 5618.754
1162.200, 5615.613
1162.682, 5608.179
1163.164, 5592.366
1163.646, 5574.922
1164.128, 5579.298
1164.610, 5599.595
1165.092, 5619.897
1165.574, 5634.874
1166.057, 5635.795
1166.539, 5619.538
1167.021, 5604.542
1167.503, 5607.537
1167.985, 5612.910
1168.467, 5606.220
1168.949, 5598.952
1169.431, 5608.112
1169.913, 5619.721
1170.396, 5608.939
1170.878, 5578.981
1171.360, 5556.708
1171.842, 5544.624
1172.324, 5546.482
1172.806, 5582.584
1173.288, 5602.314
1173.770, 5584.122
1174.253, 5565.676
1174.735, 5567.148
1175.217, 5581.623
1175.699, 5602.952
1176.181, 5627.325
1176.663, 5630.168
1177.145, 5610.803
1177.627, 5588.439
1178.109, 5564.422
1178.592, 5557.289
1179.074, 5570.859
1179.556, 5581.862
1180.038, 5575.610
1180.520, 5564.182
1181.002, 5561.743
1181.484, 5564.695
1181.966, 5573.411
1182.448, 5579.641
1182.931, 5568.970
1183.413, 5544.177
1183.895, 5507.045
1184.377, 5463.542
1184.859, 5442.880
1185.341, 5464.772
1185.823, 5488.588
1186.305, 5502.705
1186.788, 5509.486
1187.270, 5500.854
1187.752, 5494.130
1188.234, 5508.590
1188.716, 5532.227
1189.198, 5544.667
1189.680, 5545.924
1190.162, 5534.911
1190.645, 5505.001
1191.127, 5491.770
1191.609, 5500.830
1192.091, 5502.131
1192.573, 5484.133
1193.055, 5484.634
1193.537, 5535.091
1194.019, 5593.340
1194.501, 5584.907
1194.984, 5536.494
1195.466, 5512.442
1195.948, 5506.709
1196.430, 5509.999
1196.912, 5517.106
1197.394, 5515.036
1197.876, 5503.461
1198.358, 5504.157
1198.840, 5533.784
1199.323, 5560.012
1199.805, 5564.945
1200.287, 5560.831
1200.769, 5552.515
1201.251, 5540.502
1201.733, 5520.181
1202.215, 5498.164
1202.697, 5489.028
1203.180, 5492.542
1203.662, 5493.907
1204.144, 5488.990
1204.626, 5496.479
1205.108, 5522.366
1205.590, 5538.299
1206.072, 5534.710
1206.554, 5528.120
1207.036, 5530.211
1207.519, 5533.619
1208.001, 5523.413
1208.483, 5508.883
1208.965, 5521.846
1209.447, 5549.078
1209.929, 5556.646
1210.411, 5546.858
1210.893, 5536.875
1211.375, 5529.829
1211.858, 5514.741
1212.340, 5482.332
1212.822, 5461.021
1213.304, 5470.117
1213.786, 5490.147
1214.268, 5524.635
1214.750, 5551.998
1215.232, 5552.622
1215.714, 5536.554
1216.197, 5516.728
1216.679, 5495.158
1217.161, 5486.406
1217.643, 5493.858
1218.125, 5503.017
1218.607, 5515.913
1219.089, 5514.526
1219.571, 5492.674
1220.054, 5485.633
1220.536, 5514.079
1221.018, 5542.121
1221.500, 5523.732
1221.982, 5487.275
1222.464, 5492.142
1222.946, 5513.963
1223.428, 5503.133
1223.911, 5474.083
1224.393, 5462.454
1224.875, 5469.841
1225.357, 5477.775
1225.839, 5480.454
1226.321, 5482.822
1226.803, 5489.199
1227.285, 5492.039
1227.767, 5486.296
1228.250, 5479.803
1228.732, 5474.238
1229.214, 5472.737
1229.696, 5483.328
1230.178, 5495.618
1230.660, 5477.488
1231.142, 5428.927
1231.624, 5420.071
1232.106, 5450.156
1232.589, 5454.043
1233.071, 5427.493
1233.553, 5424.114
1234.035, 5459.312
1234.517, 5484.475
1234.999, 5462.979
1235.481, 5430.048
1235.963, 5416.326
1236.446, 5417.057
1236.928, 5442.013
##END=



