##NAMES=Diopside
##RRUFFID=R050666
##IDEAL CHEMISTRY=CaMgSi_2_O_6_
##LOCALITY=Franklin, Sussex County, New Jersey, USA
##OWNER=RRUFF
##SOURCE=University of Arizona Mineral Museum
##DESCRIPTION=Brown cleavage fragment with white hardystonite
##STATUS=The identification of this mineral has been confirmed by X-ray diffraction and chemical analysis
##URL=rruff.info/R050666
##MEASURED CHEMISTRY=Ca(Mg_0.66_Mn_0.33_Fe_0.01_)Si_2_O_6_
92.02539, 88.29198
92.50751, 92.44775
92.98962, 95.05286
93.47174, 92.90395
93.95386, 89.05350
94.43597, 85.86413
94.91809, 84.72646
95.40021, 84.92022
95.88232, 83.62663
96.36444, 79.72752
96.84656, 75.92967
97.32867, 72.86478
97.81078, 70.45290
98.29290, 68.54912
98.77502, 67.10415
99.25713, 66.16196
99.73925, 64.42745
100.2214, 61.33570
100.7035, 58.18028
101.1856, 55.42173
101.6677, 53.13116
102.1498, 51.20906
102.6320, 49.52011
103.1141, 47.94997
103.5962, 47.03996
104.0783, 47.32343
104.5604, 48.03359
105.0425, 48.32226
105.5247, 47.91669
106.0068, 47.10400
106.4889, 46.34795
106.9710, 45.67255
107.4531, 44.91981
107.9352, 44.02634
108.4173, 42.99606
108.8995, 41.82464
109.3816, 40.34432
109.8637, 38.84204
110.3458, 37.60744
110.8279, 36.67948
111.3100, 35.95989
111.7922, 35.30580
112.2743, 34.66286
112.7564, 34.28724
113.2385, 34.47295
113.7206, 34.83080
114.2027, 35.02482
114.6849, 34.89515
115.1670, 34.53042
115.6491, 34.23989
116.1312, 34.01574
116.6133, 33.88972
117.0954, 33.96686
117.5776, 34.12995
118.0597, 34.19134
118.5418, 34.00423
119.0239, 33.56179
119.5060, 33.32604
119.9881, 33.36192
120.4703, 33.49248
120.9524, 33.66340
121.4345, 33.86689
121.9166, 34.12321
122.3987, 34.48431
122.8808, 34.97392
123.3630, 35.24039
123.8451, 34.96013
124.3272, 34.62073
124.8093, 34.79781
125.2914, 35.64766
125.7735, 36.60606
126.2557, 36.91654
126.7378, 36.72141
127.2199, 36.62234
127.7020, 36.91106
128.1841, 37.48278
128.6662, 37.98879
129.1483, 38.30500
129.6305, 38.63732
130.1126, 39.12819
130.5947, 39.77440
131.0768, 40.51287
131.5589, 41.32575
132.0410, 42.22932
132.5232, 43.07257
133.0053, 43.98834
133.4874, 44.73513
133.9695, 45.25956
134.4516, 45.52069
134.9337, 45.38710
135.4159, 44.59989
135.8980, 42.73961
136.3801, 40.95974
136.8622, 39.35345
137.3443, 37.81925
137.8264, 36.24078
138.3086, 34.57644
138.7907, 32.91851
139.2728, 31.56122
139.7549, 30.62156
140.2370, 29.86459
140.7191, 29.34168
141.2013, 28.97912
141.6834, 28.69993
142.1655, 28.48740
142.6476, 28.29471
143.1297, 27.91586
143.6118, 27.08183
144.0939, 26.37829
144.5761, 26.10424
145.0582, 26.19358
145.5403, 26.35073
146.0224, 26.45440
146.5045, 26.47520
146.9866, 26.36910
147.4688, 25.98132
147.9509, 25.59219
148.4330, 25.51343
148.9151, 25.79200
149.3972, 26.08708
149.8793, 26.15371
150.3615, 26.11950
150.8436, 26.13909
151.3257, 26.28949
151.8078, 26.51658
152.2899, 26.69961
152.7720, 26.83750
153.2542, 26.92811
153.7363, 26.89378
154.2184, 26.83016
154.7005, 26.89007
155.1826, 27.19208
155.6647, 27.71080
156.1469, 28.18629
156.6290, 28.81261
157.1111, 29.17298
157.5932, 29.02863
158.0753, 28.52052
158.5574, 27.94140
159.0396, 27.53451
159.5217, 27.32063
160.0038, 27.09348
160.4859, 26.82275
160.9680, 26.56694
161.4501, 26.37809
161.9323, 26.24019
162.4144, 26.07348
162.8965, 25.77715
163.3786, 25.27603
163.8607, 25.01116
164.3428, 25.19175
164.8250, 25.44320
165.3071, 25.46702
165.7892, 25.22359
166.2713, 24.92116
166.7534, 24.80204
167.2355, 24.88729
167.7177, 25.02984
168.1998, 25.27564
168.6819, 25.55064
169.1640, 25.76690
169.6461, 25.90976
170.1282, 25.98012
170.6104, 25.91324
171.0925, 25.72618
171.5746, 25.63585
172.0567, 25.76904
172.5388, 26.06894
173.0209, 26.37984
173.5031, 26.70242
173.9852, 26.98568
174.4673, 27.22681
174.9494, 27.42030
175.4315, 27.50718
175.9136, 27.41599
176.3958, 27.15189
176.8779, 26.86778
177.3600, 26.58185
177.8421, 26.27918
178.3242, 25.91230
178.8063, 25.49455
179.2885, 25.13267
179.7706, 24.97583
180.2527, 25.09586
180.7348, 25.10509
181.2169, 24.81528
181.6990, 24.52985
182.1812, 24.43839
182.6633, 24.55615
183.1454, 24.74225
183.6275, 24.80075
184.1096, 24.68243
184.5917, 24.52754
185.0738, 24.27326
185.5560, 24.03166
186.0381, 23.88918
186.5202, 23.86458
187.0023, 23.90867
187.4844, 23.94178
187.9665, 23.99180
188.4487, 23.97705
188.9308, 23.83629
189.4129, 23.66405
189.8950, 23.55225
190.3771, 23.53124
190.8592, 23.55825
191.3414, 23.55191
191.8235, 23.49607
192.3056, 23.43714
192.7877, 23.37769
193.2698, 23.31853
193.7519, 23.26725
194.2341, 23.23060
194.7162, 23.18735
195.1983, 23.06337
195.6804, 22.80079
196.1625, 22.65086
196.6446, 22.82618
197.1268, 23.17046
197.6089, 23.29407
198.0910, 22.98564
198.5731, 22.52946
199.0552, 22.40220
199.5373, 22.65212
200.0195, 22.89989
200.5016, 22.92676
200.9837, 22.76932
201.4658, 22.61101
201.9479, 22.49018
202.4300, 22.40676
202.9122, 22.36050
203.3943, 22.35397
203.8764, 22.35618
204.3585, 22.36141
204.8406, 22.36950
205.3227, 22.31389
205.8048, 22.05966
206.2870, 21.82869
206.7691, 21.80841
207.2512, 22.01700
207.7333, 22.28128
208.2154, 22.41059
208.6975, 22.37800
209.1797, 22.37018
209.6618, 22.37969
210.1439, 22.45065
210.6260, 22.67637
211.1081, 23.05049
211.5902, 23.40011
212.0724, 23.46704
212.5545, 23.12639
213.0366, 22.87943
213.5187, 22.83582
214.0008, 22.83563
214.4829, 22.79445
214.9651, 22.69096
215.4472, 22.54384
215.9293, 22.35246
216.4114, 21.98263
216.8935, 21.86991
217.3756, 22.25536
217.8578, 22.68400
218.3399, 22.79236
218.8220, 22.52473
219.3041, 22.14111
219.7862, 22.04846
220.2683, 22.46312
220.7505, 22.76611
221.2326, 22.96078
221.7147, 23.05814
222.1968, 23.00384
222.6789, 22.80657
223.1610, 22.61514
223.6432, 22.66256
224.1253, 23.14874
224.6074, 23.46732
225.0895, 23.50601
225.5716, 23.44283
226.0537, 23.42207
226.5358, 23.47985
227.0180, 23.59008
227.5001, 23.72627
227.9822, 23.90730
228.4643, 24.04844
228.9464, 24.10137
229.4285, 24.13169
229.9107, 24.19620
230.3928, 24.30620
230.8749, 24.47264
231.3570, 24.73640
231.8391, 25.11094
232.3212, 25.43188
232.8034, 25.70873
233.2855, 25.90394
233.7676, 25.94759
234.2497, 25.81407
234.7318, 25.60753
235.2139, 25.43330
235.6961, 25.28694
236.1782, 25.12893
236.6603, 24.91623
237.1424, 24.69608
237.6245, 24.55157
238.1066, 24.50918
238.5888, 24.48476
239.0709, 24.38469
239.5530, 24.23336
240.0351, 24.10715
240.5172, 24.04514
240.9993, 24.02212
241.4815, 23.97217
241.9636, 23.85658
242.4457, 23.80792
242.9278, 24.02311
243.4099, 24.37838
243.8920, 24.60681
244.3742, 24.49094
244.8563, 24.18765
245.3384, 24.07715
245.8205, 24.24448
246.3026, 24.41564
246.7847, 24.46542
247.2668, 24.41507
247.7490, 24.27987
248.2311, 24.02151
248.7132, 23.70553
249.1953, 23.49021
249.6774, 23.40213
250.1595, 23.36981
250.6417, 23.43183
251.1238, 23.50644
251.6059, 23.45576
252.0880, 23.15538
252.5701, 22.76933
253.0522, 22.76493
253.5344, 23.43413
254.0165, 23.90718
254.4986, 23.79128
254.9807, 23.42332
255.4628, 23.18760
255.9449, 23.27077
256.4271, 23.49979
256.9092, 23.43101
257.3913, 22.79957
257.8734, 22.38031
258.3555, 22.43804
258.8376, 22.68640
259.3198, 22.87125
259.8019, 22.89338
260.2840, 22.80931
260.7661, 22.72343
261.2482, 22.59012
261.7303, 22.55095
262.2125, 22.73150
262.6946, 22.93333
263.1767, 22.96412
263.6588, 22.77047
264.1409, 22.48310
264.6230, 22.34403
265.1052, 22.48125
265.5873, 22.51647
266.0694, 22.38575
266.5515, 22.19625
267.0336, 21.95462
267.5157, 21.69361
267.9979, 21.54461
268.4800, 21.76292
268.9621, 22.72978
269.4442, 23.21015
269.9263, 22.95971
270.4084, 22.50577
270.8906, 22.13022
271.3727, 21.90003
271.8548, 21.76888
272.3369, 21.68743
272.8190, 21.67202
273.3011, 21.65679
273.7833, 21.61362
274.2654, 21.59323
274.7475, 21.64234
275.2296, 21.75049
275.7117, 21.86084
276.1938, 21.91497
276.6760, 21.90091
277.1581, 21.90384
277.6402, 21.91513
278.1223, 21.94655
278.6044, 22.00391
279.0865, 22.08664
279.5686, 22.19352
280.0508, 22.32743
280.5329, 22.48912
281.0150, 22.62499
281.4971, 22.68625
281.9792, 22.77613
282.4613, 22.92480
282.9435, 23.13238
283.4256, 23.40984
283.9077, 23.77962
284.3898, 24.21836
284.8719, 24.48956
285.3540, 24.41796
285.8362, 24.40403
286.3183, 24.57790
286.8004, 24.87930
287.2825, 25.19139
287.7646, 25.45270
288.2467, 25.68938
288.7289, 26.00133
289.2110, 26.43208
289.6931, 26.87586
290.1752, 27.34907
290.6573, 27.81625
291.1394, 28.19928
291.6216, 28.46240
292.1037, 28.68822
292.5858, 29.05000
293.0679, 29.53945
293.5500, 30.17987
294.0321, 31.11665
294.5143, 32.14505
294.9964, 33.01907
295.4785, 33.67679
295.9606, 34.25066
296.4427, 34.92484
296.9248, 35.73247
297.4070, 36.55846
297.8891, 37.40017
298.3712, 38.25824
298.8533, 39.13219
299.3354, 40.01908
299.8175, 40.93036
300.2997, 41.88391
300.7818, 42.88985
301.2639, 43.85836
301.7460, 44.78254
302.2281, 45.66832
302.7102, 46.48170
303.1924, 47.24116
303.6745, 48.07378
304.1566, 49.09932
304.6387, 50.30672
305.1208, 51.44486
305.6029, 52.46037
306.0851, 53.47068
306.5672, 54.53693
307.0493, 55.64842
307.5314, 56.76245
308.0135, 57.84944
308.4956, 58.92512
308.9778, 60.04150
309.4599, 61.21835
309.9420, 62.40377
310.4241, 63.63203
310.9062, 64.85269
311.3883, 65.92390
311.8705, 66.76048
312.3526, 67.49155
312.8347, 68.42854
313.3168, 69.75858
313.7989, 70.83865
314.2810, 71.41891
314.7632, 71.72044
315.2453, 72.13993
315.7274, 72.80290
316.2095, 73.28040
316.6916, 72.93883
317.1737, 71.61302
317.6559, 70.12683
318.1380, 68.45640
318.6201, 66.70296
319.1022, 64.97494
319.5843, 63.27579
320.0664, 61.52480
320.5485, 59.62089
321.0306, 57.55650
321.5128, 55.57454
321.9949, 53.63617
322.4770, 51.79953
322.9591, 50.04428
323.4412, 48.40605
323.9233, 47.00948
324.4055, 45.98197
324.8876, 45.27198
325.3697, 44.52781
325.8518, 43.69696
326.3339, 42.89143
326.8160, 41.99649
327.2982, 41.15783
327.7803, 40.74688
328.2624, 40.99767
328.7445, 41.62800
329.2266, 41.86693
329.7087, 41.49841
330.1909, 41.19230
330.6730, 41.04815
331.1551, 41.04212
331.6372, 41.14986
332.1193, 41.36459
332.6014, 41.67657
333.0836, 42.07682
333.5657, 42.57525
334.0478, 43.15870
334.5299, 43.94470
335.0120, 44.73532
335.4941, 45.33961
335.9763, 45.74624
336.4584, 46.12144
336.9405, 46.60889
337.4226, 47.22024
337.9047, 47.88559
338.3868, 48.49684
338.8690, 49.25915
339.3511, 50.41621
339.8332, 51.84192
340.3153, 53.13343
340.7974, 54.01524
341.2795, 54.56733
341.7617, 55.29154
342.2438, 56.11066
342.7259, 57.15746
343.2080, 58.66233
343.6901, 60.36843
344.1722, 61.87428
344.6544, 63.00648
345.1365, 63.91932
345.6186, 64.92610
346.1007, 66.14596
346.5828, 67.28284
347.0649, 68.36303
347.5471, 69.33559
348.0292, 70.22697
348.5113, 71.00687
348.9934, 71.51820
349.4755, 71.56208
349.9576, 71.08411
350.4398, 70.27275
350.9219, 68.92411
351.4040, 67.48406
351.8861, 66.21717
352.3682, 65.08413
352.8503, 63.88618
353.3325, 62.48012
353.8146, 60.87691
354.2967, 59.19030
354.7788, 57.26156
355.2609, 55.43515
355.7430, 53.76495
356.2252, 52.24920
356.7073, 50.85710
357.1894, 49.57711
357.6715, 48.44292
358.1536, 47.53256
358.6357, 46.98826
359.1179, 46.47299
359.5999, 46.01701
360.0821, 45.55516
360.5642, 45.00229
361.0463, 44.35723
361.5284, 43.73064
362.0105, 43.22996
362.4926, 42.80756
362.9748, 42.71552
363.4569, 43.19387
363.9390, 43.75401
364.4211, 44.18428
364.9032, 44.51637
365.3853, 44.88591
365.8675, 45.40229
366.3496, 46.04940
366.8317, 46.66664
367.3138, 47.12843
367.7959, 47.72956
368.2780, 48.56002
368.7602, 49.54545
369.2423, 50.62354
369.7244, 51.76759
370.2065, 52.91771
370.6886, 53.92749
371.1707, 54.67722
371.6529, 55.59070
372.1350, 56.94010
372.6171, 58.31136
373.0992, 59.31618
373.5813, 59.95741
374.0634, 60.73146
374.5456, 62.25224
375.0277, 64.56017
375.5098, 66.64100
375.9919, 68.19184
376.4740, 69.82325
376.9561, 71.82713
377.4383, 74.12733
377.9204, 76.51123
378.4025, 78.89593
378.8846, 81.27455
379.3667, 83.65733
379.8488, 86.08292
380.3310, 88.40831
380.8131, 90.73011
381.2952, 92.86105
381.7773, 94.63615
382.2594, 96.04797
382.7415, 96.93876
383.2237, 97.18977
383.7058, 96.80269
384.1879, 95.63078
384.6700, 93.58241
385.1521, 90.69151
385.6342, 86.92686
386.1164, 82.36215
386.5985, 77.62754
387.0806, 72.98777
387.5627, 68.47720
388.0448, 64.12188
388.5269, 59.91239
389.0091, 55.94731
389.4912, 52.32020
389.9733, 48.98396
390.4554, 45.87603
390.9375, 42.93958
391.4196, 40.26830
391.9018, 37.97264
392.3839, 36.03090
392.8660, 34.34070
393.3481, 32.89293
393.8302, 31.64943
394.3123, 30.52842
394.7945, 29.55751
395.2766, 28.60137
395.7587, 27.54645
396.2408, 26.48849
396.7229, 25.60704
397.2050, 24.93836
397.6872, 24.40786
398.1693, 23.94848
398.6514, 23.56809
399.1335, 23.19731
399.6156, 22.83762
400.0977, 22.47923
400.5798, 22.11786
401.0620, 21.75159
401.5441, 21.36500
402.0262, 20.93548
402.5083, 20.48810
402.9904, 20.16502
403.4725, 20.02452
403.9547, 19.91465
404.4368, 19.82577
404.9189, 19.74497
405.4010, 19.65030
405.8831, 19.53670
406.3652, 19.43308
406.8474, 19.39957
407.3295, 19.53241
407.8116, 19.43691
408.2937, 18.89957
408.7758, 18.35188
409.2579, 17.99774
409.7401, 17.84836
410.2222, 17.86175
410.7043, 18.03478
411.1864, 18.32972
411.6685, 18.41841
412.1506, 18.09551
412.6328, 17.80707
413.1149, 17.63187
413.5970, 17.51797
414.0791, 17.39213
414.5612, 17.23178
415.0433, 17.09463
415.5255, 17.11812
416.0076, 17.41718
416.4897, 17.47618
416.9718, 16.99725
417.4539, 16.49656
417.9360, 16.19944
418.4182, 16.09619
418.9003, 16.07754
419.3824, 16.07420
419.8645, 16.08989
420.3466, 16.16500
420.8287, 16.38179
421.3109, 16.48085
421.7930, 16.28460
422.2751, 15.95378
422.7572, 15.63460
423.2393, 15.34782
423.7214, 15.16961
424.2036, 15.28034
424.6857, 15.66193
425.1678, 15.83315
425.6499, 15.60340
426.1320, 15.23033
426.6141, 14.89956
427.0963, 14.62077
427.5784, 14.48503
428.0605, 14.63967
428.5426, 14.91681
429.0247, 15.04401
429.5068, 15.00033
429.9890, 14.94962
430.4711, 15.02114
430.9532, 15.15392
431.4353, 15.15474
431.9174, 14.92806
432.3995, 14.71035
432.8817, 14.60729
433.3638, 14.59993
433.8459, 14.66644
434.3280, 14.80831
434.8101, 14.96924
435.2922, 15.07381
435.7744, 15.11280
436.2565, 15.11834
436.7386, 15.00604
437.2207, 14.92848
437.7028, 15.05222
438.1849, 15.32774
438.6671, 15.53343
439.1492, 15.50703
439.6313, 15.30122
440.1134, 15.22635
440.5955, 15.37081
441.0776, 15.54060
441.5598, 15.77415
442.0418, 15.99344
442.5240, 16.10770
443.0061, 16.09851
443.4882, 16.03006
443.9703, 15.98281
444.4524, 15.96261
444.9345, 15.93604
445.4167, 15.81420
445.8988, 15.77508
446.3809, 15.97996
446.8630, 16.30603
447.3451, 16.49503
447.8272, 16.36534
448.3094, 16.09165
448.7915, 16.15969
449.2736, 16.73352
449.7557, 17.17904
450.2378, 17.21782
450.7199, 17.15534
451.2021, 17.22014
451.6842, 17.43162
452.1663, 17.62127
452.6484, 17.62104
453.1305, 17.47909
453.6126, 17.42822
454.0948, 17.53750
454.5769, 17.60664
455.0590, 17.44632
455.5411, 17.15858
456.0232, 16.91637
456.5053, 16.78324
456.9875, 16.67206
457.4696, 16.47293
457.9517, 16.22006
458.4338, 16.08550
458.9159, 16.16075
459.3980, 16.31009
459.8802, 16.31276
460.3623, 16.15467
460.8444, 16.04007
461.3265, 16.10518
461.8086, 16.16052
462.2907, 15.98907
462.7729, 15.61391
463.2550, 15.25344
463.7371, 15.05216
464.2192, 14.98957
464.7013, 14.94373
465.1834, 14.96781
465.6656, 14.94014
466.1477, 14.77033
466.6298, 14.57654
467.1119, 14.51962
467.5940, 14.62094
468.0761, 14.72617
468.5583, 14.62276
469.0404, 14.24313
469.5225, 14.09037
470.0046, 14.47967
470.4867, 14.77093
470.9688, 14.69726
471.4510, 14.40936
471.9331, 14.15541
472.4152, 14.04993
472.8973, 14.05206
473.3794, 14.10911
473.8615, 14.24931
474.3437, 14.32195
474.8258, 14.20261
475.3079, 14.08572
475.7900, 14.13450
476.2721, 14.31854
476.7542, 14.44325
477.2364, 14.31497
477.7185, 14.05875
478.2006, 13.99439
478.6827, 14.16385
479.1648, 14.27616
479.6469, 14.11400
480.1291, 13.83170
480.6112, 13.71479
481.0933, 13.82327
481.5754, 13.96203
482.0575, 14.03390
482.5396, 14.06910
483.0217, 14.13829
483.5038, 14.25833
483.9860, 14.35341
484.4681, 14.35006
484.9502, 14.24209
485.4323, 14.10945
485.9144, 13.83474
486.3965, 13.66051
486.8787, 13.72394
487.3608, 13.95375
487.8429, 14.26365
488.3250, 14.61916
488.8071, 14.91069
489.2892, 14.91654
489.7714, 14.43261
490.2535, 14.16569
490.7356, 14.21991
491.2177, 14.35585
491.6998, 14.45041
492.1819, 14.52449
492.6641, 14.67615
493.1462, 14.98711
493.6283, 15.37259
494.1104, 15.55956
494.5925, 15.45034
495.0746, 15.40709
495.5568, 15.62645
496.0389, 15.86290
496.5210, 15.93061
497.0031, 15.82330
497.4852, 15.68447
497.9673, 15.60208
498.4495, 15.56570
498.9316, 15.52363
499.4137, 15.44910
499.8958, 15.49387
500.3779, 15.83834
500.8600, 16.33431
501.3422, 16.67085
501.8243, 16.79082
502.3064, 16.84388
502.7885, 16.91213
503.2706, 16.96310
503.7527, 16.91689
504.2349, 16.75486
504.7170, 16.57679
505.1991, 16.46588
505.6812, 16.42330
506.1633, 16.50087
506.6454, 16.93634
507.1276, 17.21618
507.6097, 17.06823
508.0918, 16.66681
508.5739, 16.24285
509.0560, 15.88995
509.5381, 15.64939
510.0203, 15.61066
510.5024, 15.85180
510.9845, 16.02720
511.4666, 16.04873
511.9487, 16.09140
512.4308, 16.30272
512.9130, 16.57672
513.3951, 16.68163
513.8772, 16.46799
514.3593, 16.12505
514.8414, 16.00977
515.3235, 16.15131
515.8057, 16.30021
516.2878, 16.44213
516.7699, 16.52955
517.2520, 16.49833
517.7341, 16.36664
518.2162, 16.26352
518.6984, 16.20493
519.1805, 16.22572
519.6626, 16.09985
520.1447, 16.48189
520.6268, 16.70345
521.1089, 16.77316
521.5911, 16.23620
522.0732, 16.48262
522.5553, 16.41510
523.0374, 16.33471
523.5195, 16.69140
524.0016, 16.24267
524.4838, 16.59243
524.9659, 16.62344
525.4480, 16.80034
525.9301, 16.66134
526.4122, 16.61992
526.8943, 16.89449
527.3765, 16.99409
527.8586, 16.81873
528.3407, 17.00490
528.8228, 16.54513
529.3049, 16.65218
529.7870, 17.00379
530.2692, 16.84432
530.7513, 17.03626
531.2334, 17.09437
531.7155, 16.54423
532.1976, 17.05188
532.6797, 16.73547
533.1619, 16.90018
533.6440, 17.09866
534.1261, 17.08190
534.6082, 16.77917
535.0903, 16.54070
535.5724, 16.63265
536.0546, 16.94271
536.5367, 17.24058
537.0188, 17.49773
537.5009, 17.75540
537.9830, 18.04592
538.4651, 18.36211
538.9473, 18.65695
539.4294, 18.95897
539.9115, 19.20743
540.3936, 19.31594
540.8757, 19.39518
541.3578, 19.58872
541.8400, 19.91994
542.3221, 20.31020
542.8042, 20.68012
543.2863, 21.02914
543.7684, 21.39115
544.2505, 21.71972
544.7326, 22.11957
545.2147, 22.68005
545.6968, 23.28564
546.1790, 23.80083
546.6611, 24.19472
547.1432, 24.55276
547.6253, 24.92051
548.1074, 25.31005
548.5895, 25.85790
549.0717, 26.61478
549.5538, 27.42925
550.0359, 28.19157
550.5180, 28.95872
551.0001, 29.84838
551.4822, 30.93311
551.9644, 32.00157
552.4465, 32.95111
552.9286, 33.78791
553.4107, 34.54073
553.8928, 35.21613
554.3749, 35.76819
554.8571, 36.17696
555.3392, 36.43692
555.8213, 36.38771
556.3034, 36.02630
556.7855, 35.41305
557.2676, 34.48385
557.7498, 33.34612
558.2319, 32.10176
558.7140, 30.78489
559.1961, 29.43689
559.6782, 28.07768
560.1603, 26.71355
560.6425, 25.43333
561.1246, 24.22579
561.6067, 23.14451
562.0888, 22.13737
562.5709, 21.27729
563.0530, 20.67732
563.5352, 20.37297
564.0173, 20.15731
564.4994, 19.86669
564.9815, 19.52355
565.4636, 19.20447
565.9457, 18.91958
566.4279, 18.63017
566.9100, 18.26287
567.3921, 17.88236
567.8742, 17.70140
568.3563, 17.87120
568.8384, 17.98706
569.3206, 17.87778
569.8027, 17.65709
570.2848, 17.44814
570.7669, 17.27649
571.2490, 17.11737
571.7311, 16.94440
572.2133, 16.76585
572.6954, 16.68533
573.1775, 16.88533
573.6596, 16.92740
574.1417, 16.64929
574.6238, 16.26947
575.1060, 15.93457
575.5881, 15.68456
576.0702, 15.54810
576.5523, 15.61403
577.0344, 15.80701
577.5165, 15.80842
577.9987, 15.55521
578.4808, 15.39466
578.9629, 15.57180
579.4450, 15.85620
579.9271, 15.92089
580.4092, 15.73664
580.8914, 15.50633
581.3735, 15.24713
581.8556, 15.01741
582.3377, 14.89091
582.8198, 14.86201
583.3019, 14.86783
583.7841, 14.87261
584.2662, 14.88747
584.7483, 14.94560
585.2304, 15.11322
585.7125, 15.21368
586.1946, 15.20685
586.6768, 15.17321
587.1589, 15.16026
587.6410, 15.16366
588.1231, 15.16545
588.6052, 15.16386
589.0873, 15.12867
589.5695, 14.94714
590.0516, 14.57536
590.5337, 14.38730
591.0158, 14.56212
591.4979, 14.81749
591.9800, 14.94439
592.4622, 14.95708
592.9443, 14.90670
593.4264, 14.69253
593.9085, 14.52556
594.3906, 14.64983
594.8727, 14.96274
595.3549, 15.19110
595.8370, 15.24967
596.3191, 15.18202
596.8012, 15.01316
597.2833, 14.70489
597.7654, 14.57257
598.2476, 14.79150
598.7297, 14.95635
599.2118, 14.83019
599.6939, 14.62629
600.1760, 14.68366
600.6581, 15.07668
601.1403, 15.48117
601.6224, 15.47245
602.1045, 15.07407
602.5866, 14.84767
603.0687, 14.84140
603.5508, 14.90395
604.0330, 14.98359
604.5151, 15.08224
604.9972, 15.23552
605.4793, 15.48568
605.9614, 15.60325
606.4435, 15.33112
606.9257, 14.92785
607.4078, 14.77975
607.8899, 14.89911
608.3720, 15.04811
608.8541, 15.07638
609.3362, 15.02742
609.8184, 15.03857
610.3005, 15.10729
610.7826, 15.24800
611.2647, 15.57765
611.7468, 15.87468
612.2289, 15.95856
612.7111, 15.88654
613.1932, 15.85117
613.6753, 15.97676
614.1574, 16.14856
614.6395, 16.11249
615.1216, 15.84457
615.6038, 15.69605
616.0859, 15.77824
616.5680, 15.92765
617.0501, 16.00599
617.5322, 16.03654
618.0143, 16.09840
618.4965, 16.21571
618.9786, 16.35871
619.4607, 16.49520
619.9428, 16.64850
620.4249, 16.91755
620.9070, 17.31254
621.3892, 17.60655
621.8713, 17.52699
622.3534, 17.08272
622.8355, 16.95601
623.3176, 17.54142
623.7997, 17.94120
624.2819, 17.81107
624.7640, 17.58106
625.2461, 17.68536
625.7282, 18.14319
626.2103, 18.59980
626.6924, 18.77729
627.1745, 18.76131
627.6566, 18.73544
628.1387, 18.69521
628.6208, 18.70246
629.1030, 18.75721
629.5851, 18.89740
630.0672, 19.26726
630.5493, 19.89409
631.0314, 20.28210
631.5135, 20.12970
631.9957, 19.93714
632.4778, 20.01000
632.9599, 20.28665
633.4420, 20.61726
633.9241, 20.94157
634.4063, 21.27028
634.8884, 21.59780
635.3705, 21.90646
635.8526, 22.38647
636.3347, 23.20038
636.8168, 23.95463
637.2990, 24.49526
637.7811, 24.91612
638.2632, 25.30437
638.7453, 25.67126
639.2274, 26.09294
639.7095, 26.57162
640.1917, 27.15386
640.6738, 27.93437
641.1559, 28.91586
641.6380, 30.07443
642.1201, 31.42700
642.6022, 32.89632
643.0844, 34.32001
643.5665, 35.67542
644.0486, 37.01931
644.5307, 38.17706
645.0128, 39.48773
645.4949, 41.18645
645.9771, 43.17752
646.4592, 45.29447
646.9413, 47.45975
647.4234, 49.60437
647.9055, 51.57292
648.3876, 53.37188
648.8698, 55.32968
649.3519, 57.46103
649.8340, 59.76038
650.3161, 62.25184
650.7982, 64.90469
651.2803, 67.58232
651.7625, 70.18012
652.2446, 73.04357
652.7267, 76.38453
653.2088, 80.00020
653.6909, 83.70467
654.1730, 87.45467
654.6552, 91.20524
655.1373, 94.92783
655.6194, 98.63224
656.1015, 102.3875
656.5836, 106.2441
657.0657, 109.9952
657.5479, 113.8195
658.0300, 117.3442
658.5121, 120.3909
658.9942, 123.0216
659.4763, 125.4428
659.9584, 127.8824
660.4406, 129.6318
660.9227, 130.1000
661.4048, 129.3799
661.8869, 127.6220
662.3690, 124.8431
662.8511, 121.3548
663.3333, 117.3246
663.8154, 112.7652
664.2975, 107.7713
664.7796, 102.1146
665.2617, 96.33330
665.7438, 90.00730
666.2260, 83.90376
666.7081, 78.58721
667.1902, 73.93248
667.6723, 69.49039
668.1544, 64.98567
668.6365, 60.65113
669.1187, 56.81452
669.6008, 53.46580
670.0829, 50.38372
670.5650, 47.57776
671.0471, 44.96978
671.5292, 42.53760
672.0114, 40.28658
672.4935, 38.22330
672.9756, 36.28881
673.4577, 34.64901
673.9398, 33.57420
674.4219, 32.68301
674.9041, 31.59930
675.3862, 30.32622
675.8683, 29.04721
676.3504, 27.85984
676.8325, 26.78626
677.3146, 25.87556
677.7968, 25.13564
678.2789, 24.53573
678.7610, 24.20995
679.2431, 23.84438
679.7252, 23.12792
680.2073, 22.26275
680.6895, 21.68905
681.1716, 21.60390
681.6537, 21.55049
682.1358, 21.23812
682.6179, 20.81163
683.1000, 20.47352
683.5822, 20.24186
684.0643, 20.03403
684.5464, 19.79701
685.0285, 19.54627
685.5106, 19.33218
685.9927, 19.20160
686.4749, 18.99866
686.9570, 18.55710
687.4391, 18.20521
687.9212, 18.20884
688.4033, 18.37713
688.8854, 18.33258
689.3676, 17.91681
689.8497, 17.44593
690.3318, 17.14431
690.8139, 16.99186
691.2960, 17.00967
691.7781, 17.18812
692.2603, 17.28019
692.7424, 17.11787
693.2245, 16.80234
693.7066, 16.59724
694.1887, 16.55309
694.6708, 16.52237
695.1530, 16.55458
695.6351, 16.54862
696.1172, 16.42895
696.5993, 16.24462
697.0814, 16.07401
697.5635, 15.94309
698.0457, 15.85576
698.5278, 15.83527
699.0099, 15.86089
699.4920, 15.86674
699.9741, 15.84779
700.4562, 15.81714
700.9384, 15.78277
701.4205, 15.73940
701.9026, 15.67271
702.3847, 15.56434
702.8668, 15.48394
703.3489, 15.43207
703.8311, 15.40876
704.3132, 15.41874
704.7953, 15.45570
705.2774, 15.55973
705.7595, 15.72933
706.2416, 15.78788
706.7238, 15.43918
707.2059, 14.80420
707.6880, 14.41015
708.1701, 14.27631
708.6522, 14.32227
709.1343, 14.59237
709.6164, 14.93381
710.0985, 15.09734
710.5806, 15.05728
711.0627, 15.04177
711.5449, 15.18980
712.0270, 15.23070
712.5091, 14.88235
712.9912, 14.41503
713.4733, 14.24951
713.9554, 14.45739
714.4376, 14.71653
714.9197, 14.72256
715.4018, 14.53134
715.8839, 14.33451
716.3660, 14.12006
716.8481, 14.00085
717.3303, 14.04125
717.8124, 14.15202
718.2945, 14.24479
718.7766, 14.32024
719.2587, 14.38699
719.7408, 14.47473
720.2230, 14.51932
720.7051, 14.47098
721.1872, 14.37993
721.6693, 14.30595
722.1514, 14.25501
722.6335, 14.18949
723.1157, 14.07239
723.5978, 13.93585
724.0799, 13.88455
724.5620, 13.93175
725.0441, 13.91198
725.5262, 13.74358
726.0084, 13.59271
726.4905, 13.63660
726.9726, 13.81636
727.4547, 13.89499
727.9368, 13.72636
728.4189, 13.66671
728.9011, 13.99349
729.3832, 14.35093
729.8653, 14.32493
730.3474, 13.99932
730.8295, 13.77716
731.3116, 13.88995
731.7938, 14.14391
732.2759, 14.18025
732.7580, 13.99438
733.2401, 13.91199
733.7222, 13.98664
734.2043, 14.09301
734.6865, 14.16639
735.1686, 14.22102
735.6507, 14.31738
736.1328, 14.52559
736.6149, 14.53400
737.0970, 14.05364
737.5792, 13.56301
738.0613, 13.38113
738.5434, 13.44264
739.0255, 13.61192
739.5076, 13.83133
739.9897, 14.02012
740.4719, 14.08653
740.9540, 14.03784
741.4361, 13.87596
741.9182, 13.54502
742.4003, 13.41103
742.8824, 13.73063
743.3646, 14.17124
743.8467, 14.25289
744.3288, 13.97274
744.8109, 13.79895
745.2930, 13.83167
745.7751, 13.90439
746.2573, 13.97409
746.7394, 14.03328
747.2215, 14.07834
747.7036, 14.10756
748.1857, 14.11708
748.6678, 14.09855
749.1500, 14.06691
749.6321, 14.06732
750.1142, 14.09970
750.5963, 14.07195
751.0784, 13.93491
751.5605, 13.82604
752.0427, 13.86372
752.5248, 14.02578
753.0069, 14.18688
753.4890, 14.40788
753.9711, 14.53410
754.4532, 14.51446
754.9354, 14.42214
755.4175, 14.25320
755.8996, 14.06324
756.3817, 13.95635
756.8638, 13.97813
757.3459, 14.06450
757.8281, 14.16529
758.3102, 14.26842
758.7923, 14.32421
759.2744, 14.32885
759.7565, 14.29634
760.2386, 14.21256
760.7208, 14.13428
761.2029, 14.16831
761.6850, 14.35539
762.1671, 14.48948
762.6492, 14.62270
763.1313, 14.64485
763.6135, 14.39439
764.0956, 14.09127
764.5777, 13.99525
765.0598, 14.12490
765.5419, 14.27250
766.0240, 14.29167
766.5062, 14.26347
766.9883, 14.32592
767.4704, 14.44703
767.9525, 14.47044
768.4346, 14.35506
768.9167, 14.24347
769.3989, 14.26421
769.8810, 14.39720
770.3631, 14.52104
770.8452, 14.65057
771.3273, 14.74388
771.8094, 14.79222
772.2916, 14.81112
772.7737, 14.80133
773.2558, 14.76878
773.7379, 14.72118
774.2200, 14.65699
774.7021, 14.59410
775.1843, 14.52561
775.6664, 14.47659
776.1485, 14.49765
776.6306, 14.57470
777.1127, 14.66915
777.5948, 14.76736
778.0770, 14.76742
778.5591, 14.44169
779.0412, 13.75260
779.5233, 13.57850
780.0054, 14.24275
780.4875, 14.74088
780.9697, 14.61162
781.4518, 14.27307
781.9339, 14.11232
782.4160, 14.12360
782.8981, 14.16434
783.3802, 14.18971
783.8624, 14.24855
784.3445, 14.42107
784.8266, 14.61159
785.3087, 14.70776
785.7908, 14.69240
786.2729, 14.58853
786.7551, 14.40478
787.2372, 14.16884
787.7193, 13.87961
788.2014, 13.54133
788.6835, 13.49127
789.1656, 13.85522
789.6478, 14.18672
790.1299, 14.16807
790.6120, 13.96310
791.0941, 13.98353
791.5762, 14.34260
792.0583, 14.57524
792.5404, 14.58675
793.0225, 14.54343
793.5046, 14.50192
793.9868, 14.46324
794.4689, 14.42065
794.9510, 14.37293
795.4331, 14.32234
795.9152, 14.24389
796.3973, 14.18223
796.8795, 14.24436
797.3616, 14.39986
797.8437, 14.50192
798.3258, 14.51504
798.8079, 14.45008
799.2900, 14.28560
799.7722, 14.07023
800.2543, 14.10369
800.7364, 14.62847
801.2185, 14.90577
801.7006, 14.53222
802.1827, 14.24827
802.6649, 14.58978
803.1470, 15.20950
803.6291, 15.43616
804.1112, 15.08046
804.5933, 14.64120
805.0754, 14.23973
805.5576, 13.97532
806.0397, 14.03023
806.5218, 14.29422
807.0039, 14.49706
807.4860, 14.54779
807.9681, 14.56325
808.4503, 14.68349
808.9324, 14.87716
809.4145, 14.96610
809.8966, 14.93604
810.3787, 14.88293
810.8608, 14.80068
811.3430, 14.76077
811.8251, 14.90126
812.3072, 15.16284
812.7893, 15.14734
813.2714, 14.52247
813.7535, 14.12046
814.2357, 14.19915
814.7178, 14.40750
815.1999, 14.52262
815.6820, 14.57519
816.1641, 14.65060
816.6462, 14.55345
817.1284, 14.93923
817.6105, 15.16454
818.0926, 15.23798
818.5747, 14.70475
819.0568, 14.95492
819.5389, 14.89113
820.0211, 14.81448
820.5032, 15.17491
820.9853, 14.72992
821.4674, 15.08342
821.9495, 15.11817
822.4316, 15.29880
822.9138, 14.84044
823.3959, 15.08189
823.8780, 15.33623
824.3601, 15.30495
824.8422, 15.08879
825.3243, 14.95968
825.8065, 14.98951
826.2886, 15.04396
826.7707, 15.04700
827.2528, 15.07381
827.7349, 15.23844
828.2170, 15.47237
828.6992, 15.59925
829.1813, 15.56476
829.6634, 15.51619
830.1455, 15.63238
830.6276, 15.85722
831.1097, 15.99853
831.5919, 16.05690
832.0740, 16.09155
832.5561, 16.10212
833.0382, 16.16687
833.5203, 16.37789
834.0024, 16.71030
834.4846, 16.98400
834.9667, 17.14428
835.4488, 17.33191
835.9309, 17.61542
836.4130, 17.86082
836.8951, 17.96738
837.3773, 17.99900
837.8594, 18.05708
838.3415, 18.15570
838.8236, 18.34638
839.3057, 18.78881
839.7878, 19.22422
840.2700, 19.27224
840.7521, 19.14494
841.2342, 19.39170
841.7163, 20.11041
842.1984, 20.80703
842.6805, 20.98564
843.1627, 20.85306
843.6448, 21.05793
844.1269, 21.61021
844.6090, 22.08253
845.0911, 22.37664
845.5732, 22.66870
846.0554, 23.09716
846.5375, 23.59854
847.0196, 23.98432
847.5017, 24.17881
847.9838, 24.42630
848.4659, 24.84587
848.9481, 25.17926
849.4302, 25.35081
849.9123, 25.37040
850.3944, 25.27312
850.8765, 25.05537
851.3586, 24.64429
851.8408, 23.84063
852.3229, 22.98679
852.8050, 22.36434
853.2871, 21.89135
853.7692, 21.41384
854.2513, 20.92813
854.7335, 20.55829
855.2156, 20.39740
855.6977, 20.31748
856.1798, 20.05762
856.6619, 19.62607
857.1440, 19.30172
857.6262, 19.11361
858.1083, 18.95228
858.5904, 18.76262
859.0725, 18.59230
859.5546, 18.51620
860.0367, 18.54475
860.5189, 18.54823
861.0010, 18.57271
861.4831, 18.51072
861.9652, 18.22519
862.4473, 17.95078
862.9294, 17.93003
863.4116, 18.06601
863.8937, 18.04951
864.3758, 17.74224
864.8579, 17.42040
865.3400, 17.18550
865.8221, 17.07949
866.3043, 17.25242
866.7864, 17.58693
867.2685, 17.77340
867.7506, 17.71232
868.2327, 17.55196
868.7148, 17.42596
869.1970, 17.33578
869.6791, 17.31314
870.1612, 17.35797
870.6433, 17.30280
871.1254, 17.09188
871.6075, 16.87084
872.0897, 16.74629
872.5718, 16.70028
873.0539, 16.67518
873.5360, 16.65734
874.0181, 16.69189
874.5002, 16.85636
874.9823, 16.98331
875.4644, 16.99774
875.9465, 16.95890
876.4286, 16.95061
876.9108, 16.97399
877.3929, 16.92430
877.8750, 16.59528
878.3571, 16.38271
878.8392, 16.66098
879.3214, 17.07879
879.8035, 17.22637
880.2856, 17.09775
880.7677, 16.84020
881.2498, 16.50930
881.7319, 16.28177
882.2141, 16.51187
882.6962, 17.00163
883.1783, 17.09995
883.6604, 16.81964
884.1425, 16.58274
884.6246, 16.54066
885.1068, 16.56928
885.5889, 16.52935
886.0710, 16.43703
886.5531, 16.42943
887.0352, 16.54865
887.5173, 16.63148
887.9995, 16.66582
888.4816, 16.64841
888.9637, 16.56822
889.4458, 16.43617
889.9279, 16.24357
890.4100, 15.93174
890.8922, 15.80414
891.3743, 16.12716
891.8564, 16.38262
892.3385, 16.24090
892.8206, 15.96576
893.3027, 15.89582
893.7849, 16.02252
894.2670, 16.06093
894.7491, 15.79913
895.2312, 15.55242
895.7133, 15.68521
896.1954, 15.98792
896.6776, 16.09980
897.1597, 16.03851
897.6418, 16.04014
898.1239, 16.20435
898.6060, 16.39833
899.0881, 16.44654
899.5703, 16.38136
900.0524, 16.38103
900.5345, 16.44987
901.0166, 16.50585
901.4987, 16.53816
901.9808, 16.52123
902.4630, 16.43192
902.9451, 16.27903
903.4272, 16.07936
903.9093, 15.71611
904.3914, 15.58098
904.8735, 15.96959
905.3557, 16.21590
905.8378, 15.86340
906.3199, 15.40088
906.8020, 15.45426
907.2841, 16.01050
907.7662, 16.34571
908.2484, 16.13454
908.7305, 15.86634
909.2126, 15.67043
909.6947, 15.55755
910.1768, 15.58089
910.6589, 15.68703
911.1411, 15.75496
911.6232, 15.73893
912.1053, 15.69420
912.5874, 15.67464
913.0695, 15.65193
913.5516, 15.55482
914.0338, 15.41807
914.5159, 15.36480
914.9980, 15.41542
915.4801, 15.46063
915.9622, 15.41227
916.4443, 15.30958
916.9265, 15.26256
917.4086, 15.27058
917.8907, 15.14365
918.3728, 14.81778
918.8549, 14.66614
919.3370, 14.90799
919.8192, 15.29526
920.3013, 15.49777
920.7834, 15.51383
921.2655, 15.45968
921.7476, 15.30845
922.2297, 15.13332
922.7119, 14.88702
923.1940, 14.67656
923.6761, 14.55594
924.1582, 14.51799
924.6403, 14.55920
925.1224, 14.69952
925.6046, 14.82335
926.0867, 14.99507
926.5688, 15.03791
927.0509, 14.68179
927.5330, 14.25692
928.0151, 14.20224
928.4973, 14.49053
928.9794, 14.73907
929.4615, 14.75862
929.9436, 14.68825
930.4257, 14.61039
930.9078, 14.54178
931.3900, 14.51816
931.8721, 14.52611
932.3542, 14.51283
932.8363, 14.46316
933.3184, 14.42409
933.8005, 14.45266
934.2827, 14.51482
934.7648, 14.50934
935.2469, 14.44505
935.7290, 14.40222
936.2111, 14.39307
936.6932, 14.42756
937.1754, 14.52381
937.6575, 14.62707
938.1396, 14.63969
938.6217, 14.55967
939.1038, 14.38352
939.5859, 14.00313
940.0681, 13.83088
940.5502, 14.11477
941.0323, 14.43631
941.5144, 14.40764
941.9965, 14.12240
942.4786, 13.98050
942.9608, 14.06080
943.4429, 14.11339
943.9250, 14.01409
944.4071, 14.01986
944.8892, 14.38440
945.3713, 14.81182
945.8535, 14.94268
946.3356, 14.77878
946.8177, 14.60685
947.2998, 14.46987
947.7819, 14.41805
948.2640, 14.54540
948.7462, 14.71112
949.2283, 14.79602
949.7104, 14.80927
950.1925, 14.77475
950.6746, 14.70782
951.1567, 14.69150
951.6389, 14.82819
952.1210, 15.01683
952.6031, 15.16905
953.0852, 15.26148
953.5673, 15.17300
954.0494, 14.94438
954.5316, 14.87423
955.0137, 15.12931
955.4958, 15.47637
955.9779, 15.60330
956.4600, 15.53005
956.9421, 15.26828
957.4242, 14.83242
957.9063, 14.68124
958.3884, 14.95127
958.8705, 15.30801
959.3527, 15.48318
959.8348, 15.54051
960.3169, 15.67202
960.7990, 15.90847
961.2811, 16.05874
961.7632, 16.12309
962.2454, 16.08041
962.7275, 15.85242
963.2096, 15.61319
963.6917, 15.56046
964.1738, 15.67852
964.6559, 15.79345
965.1381, 15.90703
965.6202, 16.01426
966.1023, 16.07164
966.5844, 16.17191
967.0665, 16.46651
967.5486, 16.76738
968.0308, 16.78356
968.5129, 16.50166
968.9950, 16.28399
969.4771, 16.21384
969.9592, 16.20835
970.4413, 16.25858
970.9235, 16.34608
971.4056, 16.48496
971.8877, 16.64103
972.3698, 16.73635
972.8519, 16.74948
973.3340, 16.80067
973.8162, 17.04947
974.2983, 17.26878
974.7804, 17.19019
975.2625, 17.01104
975.7446, 17.01756
976.2267, 17.20877
976.7089, 17.45415
977.1910, 17.69952
977.6731, 17.85150
978.1552, 17.72714
978.6373, 17.49545
979.1194, 17.42383
979.6016, 17.50423
980.0837, 17.74056
980.5658, 18.10357
981.0479, 18.38941
981.5300, 18.45100
982.0121, 18.41622
982.4943, 18.50767
982.9764, 18.70411
983.4585, 18.87850
983.9406, 19.02849
984.4227, 19.24947
984.9048, 19.57769
985.3870, 19.89018
985.8691, 20.06516
986.3512, 20.15510
986.8333, 20.33194
987.3154, 20.60218
987.7975, 20.90211
988.2797, 21.21802
988.7618, 21.62596
989.2439, 22.21091
989.7260, 22.78210
990.2081, 23.09377
990.6902, 23.18136
991.1724, 23.36542
991.6545, 23.47382
992.1366, 24.11386
992.6187, 25.76349
993.1008, 27.28671
993.5829, 27.99882
994.0651, 28.41217
994.5472, 29.20388
995.0293, 30.37677
995.5114, 31.68062
995.9935, 33.03113
996.4756, 34.64180
996.9578, 36.48023
997.4399, 38.63923
997.9220, 41.34380
998.4041, 44.32362
998.8862, 47.10613
999.3683, 49.62323
999.8505, 52.37559
1000.333, 55.45244
1000.815, 58.81168
1001.297, 62.50537
1001.779, 66.38741
1002.261, 70.37746
1002.743, 74.42936
1003.225, 78.45496
1003.707, 82.42300
1004.190, 86.49593
1004.672, 90.43056
1005.154, 94.84817
1005.636, 100.4400
1006.118, 106.6056
1006.600, 112.6967
1007.082, 118.7361
1007.564, 124.9959
1008.046, 131.5984
1008.529, 138.5934
1009.011, 145.9866
1009.493, 153.7841
1009.975, 162.4752
1010.457, 171.3443
1010.939, 179.4438
1011.421, 186.4298
1011.903, 192.1400
1012.385, 196.4832
1012.868, 198.9501
1013.350, 199.1673
1013.832, 197.0020
1014.314, 191.9208
1014.796, 184.2881
1015.278, 174.9451
1015.760, 164.1447
1016.242, 152.2001
1016.725, 139.2240
1017.207, 126.0067
1017.689, 113.3833
1018.171, 101.4884
1018.653, 90.92787
1019.135, 81.73657
1019.617, 73.91341
1020.099, 67.44698
1020.581, 62.06480
1021.064, 57.61244
1021.546, 53.92141
1022.028, 50.68761
1022.510, 47.91365
1022.992, 45.50261
1023.474, 43.45148
1023.956, 41.76469
1024.438, 40.45556
1024.921, 39.38899
1025.403, 38.46931
1025.885, 37.69302
1026.367, 37.06833
1026.849, 36.60353
1027.331, 36.18636
1027.813, 35.80692
1028.295, 35.53611
1028.777, 35.41874
1029.260, 35.31149
1029.742, 35.06147
1030.224, 34.78691
1030.706, 34.86090
1031.188, 35.38267
1031.670, 35.71322
1032.152, 35.79570
1032.634, 35.84467
1033.116, 35.87391
1033.599, 35.97186
1034.081, 36.19592
1034.563, 36.55408
1035.045, 37.08287
1035.527, 37.82287
1036.009, 38.60857
1036.491, 39.53162
1036.973, 40.32406
1037.456, 40.88288
1037.938, 41.31448
1038.420, 41.69381
1038.902, 42.01736
1039.384, 42.27246
1039.866, 42.43779
1040.348, 42.59398
1040.830, 42.88811
1041.313, 42.96278
1041.795, 42.79436
1042.277, 42.30910
1042.759, 41.28390
1043.241, 39.90197
1043.723, 38.78273
1044.205, 38.13636
1044.687, 37.17297
1045.169, 35.71271
1045.651, 34.12616
1046.134, 32.20411
1046.616, 30.47330
1047.098, 29.49542
1047.580, 29.05431
1048.062, 28.46256
1048.544, 27.57054
1049.026, 26.85454
1049.508, 26.59706
1049.991, 26.24166
1050.473, 25.46168
1050.955, 24.63277
1051.437, 24.06997
1051.919, 23.71455
1052.401, 23.34143
1052.883, 22.89333
1053.365, 22.55485
1053.848, 22.33171
1054.330, 22.26738
1054.812, 22.58161
1055.294, 22.88446
1055.776, 22.80438
1056.258, 22.44912
1056.740, 22.09818
1057.222, 21.77518
1057.704, 21.63065
1058.187, 21.86436
1058.669, 22.08368
1059.151, 22.14585
1059.633, 22.10153
1060.115, 21.92505
1060.597, 21.70180
1061.079, 21.60324
1061.561, 21.66957
1062.043, 21.78782
1062.526, 22.00093
1063.008, 22.15390
1063.490, 22.12752
1063.972, 22.05620
1064.454, 21.98484
1064.936, 21.98601
1065.418, 22.24633
1065.900, 22.80894
1066.383, 23.19317
1066.865, 23.10637
1067.347, 22.93797
1067.829, 22.79480
1068.311, 22.71469
1068.793, 22.75839
1069.275, 22.87689
1069.757, 22.95094
1070.240, 22.96545
1070.722, 23.10647
1071.204, 23.57101
1071.686, 24.02199
1072.168, 24.36213
1072.650, 24.56894
1073.132, 24.49758
1073.614, 24.33938
1074.096, 24.43735
1074.578, 24.82566
1075.061, 25.20139
1075.543, 25.44475
1076.025, 25.64563
1076.507, 25.80619
1076.989, 25.98153
1077.471, 26.22781
1077.953, 26.51313
1078.435, 26.78152
1078.918, 27.02984
1079.400, 27.29956
1079.882, 27.63018
1080.364, 27.93714
1080.846, 28.13561
1081.328, 28.34451
1081.810, 28.68429
1082.292, 29.06971
1082.774, 29.36344
1083.257, 29.57603
1083.739, 29.84263
1084.221, 30.21796
1084.703, 30.62689
1085.185, 31.09039
1085.667, 31.51332
1086.149, 31.85322
1086.631, 32.10257
1087.114, 32.14692
1087.596, 32.09858
1088.078, 32.35242
1088.560, 33.10355
1089.042, 33.75546
1089.524, 34.04389
1090.006, 34.19086
1090.488, 34.19294
1090.970, 34.21997
1091.453, 34.48677
1091.935, 34.90954
1092.417, 35.20885
1092.899, 35.29712
1093.381, 35.53307
1093.863, 36.25277
1094.345, 36.88765
1094.827, 37.11049
1095.309, 37.19268
1095.792, 37.37190
1096.274, 37.58887
1096.756, 37.67084
1097.238, 37.58920
1097.720, 37.55821
1098.202, 37.65150
1098.684, 37.79607
1099.166, 37.98329
1099.649, 38.19823
1100.131, 38.41766
1100.613, 38.66548
1101.095, 39.04768
1101.577, 39.54038
1102.059, 39.80204
1102.541, 39.55968
1103.023, 39.39151
1103.505, 39.44661
1103.988, 39.59328
1104.470, 39.88461
1104.952, 40.14215
1105.434, 40.11954
1105.916, 39.86486
1106.398, 39.67531
1106.880, 39.56039
1107.362, 39.59483
1107.844, 39.87707
1108.327, 40.19865
1108.809, 40.66654
1109.291, 40.98462
1109.773, 40.73502
1110.255, 40.13916
1110.737, 39.89640
1111.219, 40.20234
1111.701, 40.27943
1112.184, 39.81023
1112.666, 39.47560
1113.148, 39.54873
1113.630, 39.67283
1114.112, 39.64188
1114.594, 39.49212
1115.076, 39.24699
1115.558, 38.87650
1116.041, 38.72279
1116.523, 38.94421
1117.005, 39.11270
1117.487, 39.16256
1117.969, 39.19048
1118.451, 39.31140
1118.933, 39.36490
1119.415, 39.07013
1119.897, 38.48134
1120.380, 38.20274
1120.862, 38.37793
1121.344, 38.51526
1121.826, 38.60729
1122.308, 38.64315
1122.790, 38.62741
1123.272, 38.53466
1123.754, 38.31488
1124.236, 38.01676
1124.719, 37.80457
1125.201, 37.68460
1125.683, 37.64981
1126.165, 37.78469
1126.647, 37.64007
1127.129, 37.01384
1127.611, 36.40408
1128.093, 36.13398
1128.576, 36.14687
1129.058, 36.41556
1129.540, 36.90816
1130.022, 36.87987
1130.504, 36.28442
1130.986, 35.68995
1131.468, 35.17599
1131.950, 34.74049
1132.432, 34.39674
1132.915, 34.02686
1133.397, 33.45724
1133.879, 32.79138
1134.361, 32.44098
1134.843, 32.37185
1135.325, 32.16554
1135.807, 31.80811
1136.289, 31.69044
1136.771, 31.93032
1137.254, 32.02982
1137.736, 31.54978
1138.218, 30.86423
1138.700, 30.71625
1139.182, 30.91657
1139.664, 30.84983
1140.146, 30.53786
1140.628, 30.10421
1141.111, 29.60441
1141.593, 29.18505
1142.075, 28.91974
1142.557, 28.76310
1143.039, 28.71749
1143.521, 28.70126
1144.003, 28.62108
1144.485, 28.44610
1144.968, 27.98746
1145.450, 27.38048
1145.932, 27.12231
1146.414, 27.32937
1146.896, 27.51537
1147.378, 27.31647
1147.860, 27.00449
1148.342, 26.88105
1148.824, 26.75633
1149.307, 26.27228
1149.789, 25.68287
1150.271, 25.53298
1150.753, 25.79189
1151.235, 25.92218
1151.717, 25.69094
1152.199, 25.37539
1152.681, 24.99240
1153.163, 24.74290
1153.646, 24.99885
1154.128, 25.26160
1154.610, 24.83758
1155.092, 24.03645
1155.574, 23.69530
1156.056, 23.98463
1156.538, 24.19513
1157.020, 23.94826
1157.503, 23.84598
1157.985, 24.24830
1158.467, 24.63729
1158.949, 24.69404
1159.431, 24.56267
1159.913, 24.37491
1160.395, 24.16507
1160.877, 24.14674
1161.359, 24.61978
1161.842, 24.69559
1162.324, 24.05371
1162.806, 23.48434
1163.288, 23.10226
1163.770, 23.00027
1164.252, 23.42060
1164.734, 24.04148
1165.216, 24.11016
1165.698, 23.57081
1166.181, 23.21095
1166.663, 23.03301
1167.145, 23.07401
1167.627, 23.43915
1168.109, 23.62679
1168.591, 23.33876
1169.073, 22.98279
1169.555, 23.04818
1170.037, 23.40931
1170.520, 23.64071
1171.002, 23.73940
1171.484, 23.53491
1171.966, 23.03195
1172.448, 22.64274
1172.930, 22.47822
1173.412, 22.54207
1173.894, 22.85999
1174.377, 23.18684
1174.859, 23.08290
1175.341, 22.73456
1175.823, 22.67363
1176.305, 22.80700
1176.787, 22.89423
1177.269, 22.88858
1177.751, 22.71766
1178.234, 22.38129
1178.716, 22.14684
1179.198, 22.26716
1179.680, 22.47761
1180.162, 22.52078
1180.644, 22.45829
1181.126, 22.32901
1181.608, 22.17300
1182.090, 22.00046
1182.573, 21.85910
1183.055, 21.93282
1183.537, 22.34022
1184.019, 22.59625
1184.501, 22.30495
1184.983, 21.97005
1185.465, 21.83665
1185.947, 21.81430
1186.429, 21.88402
1186.912, 21.97280
1187.394, 21.93764
1187.876, 21.77440
1188.358, 21.71282
1188.840, 21.92865
1189.322, 22.02535
1189.804, 21.91445
1190.286, 21.73987
1190.769, 21.48897
1191.251, 21.26236
1191.733, 21.13632
1192.215, 21.10598
1192.697, 21.17299
1193.179, 21.35574
1193.661, 21.48856
1194.143, 21.60022
1194.625, 21.53142
1195.108, 21.21704
1195.590, 20.88577
1196.072, 20.63266
1196.554, 20.47793
1197.036, 20.45849
1197.518, 20.53187
1198.000, 20.56371
1198.482, 20.56204
1198.964, 20.61371
1199.447, 20.71194
1199.929, 20.77082
1200.411, 20.77214
1200.893, 20.73458
1201.375, 20.66592
1201.857, 20.64654
1202.339, 20.85386
1202.821, 21.09308
1203.304, 20.96787
1203.786, 20.68942
1204.268, 20.64549
1204.750, 20.78350
1205.232, 20.88848
1205.714, 20.90258
1206.196, 20.86125
1206.678, 20.77095
1207.161, 20.66680
1207.643, 20.51625
1208.125, 20.42271
1208.607, 20.50653
1209.089, 20.64401
1209.571, 20.73631
1210.053, 20.76385
1210.535, 20.68813
1211.017, 20.49512
1211.500, 20.38136
1211.982, 20.42978
1212.464, 20.47396
1212.946, 20.51586
1213.428, 20.51195
1213.910, 20.33764
1214.392, 20.25248
1214.874, 20.61716
1215.356, 21.19233
1215.839, 21.18906
1216.321, 20.50634
1216.803, 20.26248
1217.285, 20.54314
1217.767, 20.68839
1218.249, 20.57992
1218.731, 20.38844
1219.213, 20.18240
1219.696, 20.07040
1220.178, 20.20397
1220.660, 20.44010
1221.142, 20.40115
1221.624, 20.19324
1222.106, 20.18848
1222.588, 20.34384
1223.070, 20.44206
1223.552, 20.45359
1224.035, 20.46359
1224.517, 20.51144
1224.999, 20.63997
1225.481, 20.98315
1225.963, 21.31165
1226.445, 21.37286
1226.927, 21.34596
1227.409, 21.44630
1227.891, 21.58333
1228.374, 21.55854
1228.856, 21.38449
1229.338, 21.28383
1229.820, 21.36746
1230.302, 21.34370
1230.784, 20.93246
1231.266, 20.69979
1231.748, 21.00343
1232.231, 21.33812
1232.713, 21.36711
1233.195, 21.26162
1233.677, 21.25428
1234.159, 21.33684
1234.641, 21.43377
1235.123, 21.54042
1235.605, 21.70309
1236.088, 21.94659
1236.570, 22.09478
1237.052, 22.09656
1237.534, 22.04778
1238.016, 22.00355
1238.498, 21.98836
1238.980, 22.04594
1239.462, 22.14886
1239.944, 22.27880
1240.427, 22.37766
1240.909, 22.15387
1241.391, 21.74912
1241.873, 21.68783
1242.355, 22.05612
1242.837, 22.58199
1243.319, 23.17733
1243.801, 23.50821
1244.283, 23.07796
1244.766, 22.57906
1245.248, 22.49018
1245.730, 22.63918
1246.212, 23.00646
1246.694, 23.39427
1247.176, 23.42082
1247.658, 23.10349
1248.140, 23.03333
1248.622, 23.57259
1249.105, 23.76700
1249.587, 23.18998
1250.069, 22.88262
1250.551, 23.20501
1251.033, 23.64665
1251.515, 23.96025
1251.997, 24.09134
1252.479, 23.92610
1252.962, 23.52530
1253.444, 23.20277
1253.926, 22.95936
1254.408, 22.90908
1254.890, 23.05159
1255.372, 23.33822
1255.854, 23.73247
1256.336, 24.02608
1256.818, 24.09760
1257.301, 24.00920
1257.783, 23.69908
1258.265, 23.41806
1258.747, 23.62345
1259.229, 23.98853
1259.711, 23.96771
1260.193, 23.79383
1260.675, 24.01871
1261.157, 24.62854
1261.640, 25.16644
1262.122, 25.53013
1262.604, 25.63202
1263.086, 25.15490
1263.568, 24.82312
1264.050, 24.98144
1264.532, 25.22241
1265.014, 25.30850
1265.497, 25.34984
1265.979, 25.50344
1266.461, 25.70997
1266.943, 25.68453
1267.425, 25.36500
1267.907, 25.31995
1268.389, 25.58549
1268.871, 25.68721
1269.354, 25.53671
1269.836, 25.54926
1270.318, 25.91774
1270.800, 26.33636
1271.282, 26.52145
1271.764, 26.54205
1272.246, 26.40195
1272.728, 26.24932
1273.210, 26.35109
1273.693, 26.63663
1274.175, 27.02392
1274.657, 27.43771
1275.139, 27.75049
1275.621, 27.92669
1276.103, 27.97819
1276.585, 27.81428
1277.067, 27.68773
1277.549, 27.64346
1278.032, 27.70270
1278.514, 27.95708
1278.996, 28.24105
1279.478, 28.40304
1279.960, 28.50161
1280.442, 28.64246
1280.924, 28.82560
1281.406, 29.08132
1281.889, 29.43082
1282.371, 29.68273
1282.853, 29.82032
1283.335, 29.92389
1283.817, 30.01888
1284.299, 30.20164
1284.781, 30.53512
1285.263, 30.94355
1285.745, 31.34653
1286.228, 31.74420
##END=



