##NAMES=Diopside
##RRUFFID=R060861
##IDEAL CHEMISTRY=CaMgSi_2_O_6_
##LOCALITY=Red Mountain Volcano, NW of Flagstaff, Arizona, USA
##OWNER=RRUFF
##SOURCE=Jennifer Sano
##DESCRIPTION=Worn brown fragment
##STATUS=The identification of this mineral has been confirmed by X-ray diffraction and chemical analysis
##URL=rruff.info/R060861
##MEASURED CHEMISTRY=(Ca_0.72_Fe^2+^_0.23_Na_0.05_)_Σ=1_(Mg_0.80_Al_0.15_Ti_0.03_Fe^3+^_0.02_)_Σ=1_(Si_1.82_Al_0.18_)_Σ=2_O_6_
127.3084, 1629.363
127.7905, 1645.299
128.2727, 1673.032
128.7548, 1708.440
129.2369, 1739.182
129.7190, 1761.406
130.2011, 1776.412
130.6832, 1786.064
131.1654, 1789.896
131.6475, 1791.554
132.1296, 1797.078
132.6117, 1805.853
133.0938, 1809.397
133.5759, 1799.348
134.0581, 1777.641
134.5402, 1766.066
135.0223, 1765.197
135.5044, 1773.494
135.9865, 1790.154
136.4686, 1816.120
136.9508, 1843.602
137.4329, 1869.242
137.9150, 1892.947
138.3971, 1913.682
138.8792, 1931.184
139.3613, 1945.788
139.8434, 1960.883
140.3256, 1980.946
140.8077, 1992.365
141.2898, 1981.172
141.7719, 1935.200
142.2540, 1902.539
142.7361, 1893.381
143.2183, 1906.837
143.7004, 1916.560
144.1825, 1922.439
144.6646, 1924.624
145.1467, 1923.646
145.6288, 1922.491
146.1110, 1912.972
146.5931, 1889.764
147.0752, 1847.017
147.5573, 1817.445
148.0394, 1810.600
148.5215, 1813.337
149.0037, 1806.632
149.4858, 1779.162
149.9679, 1753.350
150.4500, 1734.930
150.9321, 1725.085
151.4142, 1720.796
151.8964, 1731.025
152.3785, 1747.198
152.8606, 1749.427
153.3427, 1720.843
153.8248, 1690.216
154.3069, 1669.871
154.7890, 1668.201
155.2712, 1667.570
155.7533, 1666.364
156.2354, 1664.626
156.7175, 1662.382
157.1996, 1658.811
157.6817, 1655.163
158.1639, 1652.217
158.6460, 1652.608
159.1281, 1651.190
159.6102, 1643.933
160.0923, 1631.296
160.5744, 1623.146
161.0566, 1621.953
161.5387, 1627.079
162.0208, 1637.901
162.5029, 1664.447
162.9850, 1688.312
163.4671, 1700.869
163.9493, 1701.030
164.4314, 1694.635
164.9135, 1678.308
165.3956, 1658.161
165.8777, 1643.003
166.3598, 1638.703
166.8420, 1639.384
167.3241, 1641.805
167.8062, 1646.208
168.2883, 1650.229
168.7704, 1651.476
169.2525, 1651.221
169.7346, 1652.237
170.2168, 1660.206
170.6989, 1668.304
171.1810, 1668.426
171.6631, 1655.704
172.1452, 1642.479
172.6273, 1642.507
173.1095, 1652.124
173.5916, 1657.717
174.0737, 1643.987
174.5558, 1622.443
175.0379, 1610.534
175.5201, 1615.674
176.0022, 1627.460
176.4843, 1633.635
176.9664, 1634.914
177.4485, 1637.314
177.9306, 1646.597
178.4128, 1660.288
178.8949, 1673.373
179.3770, 1684.062
179.8591, 1693.475
180.3412, 1703.756
180.8233, 1715.004
181.3055, 1725.430
181.7876, 1735.350
182.2697, 1743.592
182.7518, 1746.472
183.2339, 1738.870
183.7160, 1725.438
184.1981, 1716.851
184.6803, 1713.219
185.1624, 1713.556
185.6445, 1721.049
186.1266, 1733.723
186.6087, 1739.798
187.0908, 1729.224
187.5730, 1706.705
188.0551, 1690.127
188.5372, 1679.393
189.0193, 1675.528
189.5014, 1683.702
189.9835, 1703.391
190.4657, 1720.208
190.9478, 1723.469
191.4299, 1715.585
191.9120, 1716.199
192.3941, 1729.746
192.8762, 1746.004
193.3584, 1743.758
193.8405, 1722.164
194.3226, 1699.467
194.8047, 1687.354
195.2868, 1685.458
195.7689, 1682.643
196.2511, 1677.074
196.7332, 1670.735
197.2153, 1669.124
197.6974, 1672.786
198.1795, 1677.730
198.6616, 1681.307
199.1437, 1683.477
199.6259, 1686.013
200.1080, 1689.745
200.5901, 1693.788
201.0722, 1694.311
201.5543, 1690.492
202.0364, 1686.054
202.5186, 1685.927
203.0007, 1691.650
203.4828, 1688.682
203.9649, 1669.216
204.4470, 1638.021
204.9291, 1629.042
205.4113, 1648.959
205.8934, 1674.347
206.3755, 1680.904
206.8576, 1663.133
207.3397, 1652.008
207.8218, 1656.324
208.3040, 1674.857
208.7861, 1689.240
209.2682, 1701.065
209.7503, 1705.884
210.2324, 1695.522
210.7145, 1663.911
211.1967, 1638.535
211.6788, 1627.599
212.1609, 1631.653
212.6430, 1635.326
213.1251, 1640.267
213.6072, 1642.767
214.0894, 1636.038
214.5715, 1614.330
215.0536, 1598.490
215.5357, 1595.817
216.0178, 1607.937
216.4999, 1619.660
216.9820, 1632.600
217.4642, 1643.290
217.9463, 1645.854
218.4284, 1636.665
218.9105, 1627.072
219.3926, 1620.033
219.8747, 1615.209
220.3569, 1615.522
220.8390, 1624.801
221.3211, 1636.547
221.8032, 1638.850
222.2853, 1626.368
222.7674, 1614.723
223.2496, 1609.842
223.7317, 1613.683
224.2138, 1617.972
224.6959, 1623.206
225.1780, 1628.712
225.6601, 1633.676
226.1423, 1639.326
226.6244, 1642.265
227.1065, 1639.095
227.5886, 1621.870
228.0707, 1620.052
228.5528, 1642.871
229.0350, 1678.332
229.5171, 1695.316
229.9992, 1685.498
230.4813, 1670.381
230.9634, 1659.335
231.4455, 1655.081
231.9276, 1648.095
232.4098, 1635.158
232.8919, 1619.913
233.3740, 1614.313
233.8561, 1623.170
234.3382, 1634.539
234.8203, 1643.263
235.3025, 1649.342
235.7846, 1652.571
236.2667, 1652.241
236.7488, 1649.119
237.2309, 1645.945
237.7130, 1643.516
238.1952, 1640.049
238.6773, 1633.882
239.1594, 1620.974
239.6415, 1614.156
240.1236, 1615.865
240.6057, 1624.243
241.0879, 1631.510
241.5700, 1637.251
242.0521, 1642.341
242.5342, 1647.537
243.0163, 1654.485
243.4984, 1657.724
243.9806, 1654.456
244.4627, 1646.803
244.9448, 1645.112
245.4269, 1651.324
245.9090, 1660.908
246.3911, 1672.155
246.8732, 1688.463
247.3554, 1698.765
247.8375, 1699.963
248.3196, 1694.027
248.8017, 1691.784
249.2838, 1696.966
249.7659, 1700.897
250.2481, 1696.727
250.7302, 1676.243
251.2123, 1666.806
251.6944, 1676.295
252.1765, 1699.824
252.6586, 1709.782
253.1408, 1698.848
253.6229, 1684.730
254.1050, 1678.771
254.5871, 1684.385
255.0692, 1690.449
255.5513, 1697.071
256.0334, 1703.565
256.5156, 1706.079
256.9977, 1703.465
257.4798, 1698.480
257.9619, 1693.401
258.4440, 1689.899
258.9261, 1680.858
259.4083, 1661.316
259.8904, 1634.813
260.3725, 1622.657
260.8546, 1629.513
261.3367, 1642.885
261.8188, 1655.860
262.3010, 1670.770
262.7831, 1678.291
263.2652, 1675.807
263.7473, 1665.109
264.2294, 1653.805
264.7115, 1639.574
265.1937, 1629.238
265.6758, 1629.637
266.1579, 1645.187
266.6400, 1654.813
267.1221, 1653.795
267.6042, 1645.287
268.0864, 1644.235
268.5685, 1653.678
269.0506, 1663.987
269.5327, 1668.435
270.0148, 1665.944
270.4969, 1662.235
270.9791, 1656.835
271.4612, 1650.976
271.9433, 1650.626
272.4254, 1657.648
272.9075, 1665.009
273.3896, 1667.184
273.8718, 1663.126
274.3539, 1660.560
274.8360, 1660.042
275.3181, 1661.708
275.8002, 1667.422
276.2823, 1678.845
276.7645, 1688.141
277.2466, 1688.714
277.7287, 1679.419
278.2108, 1672.382
278.6929, 1669.170
279.1750, 1668.707
279.6572, 1667.835
280.1393, 1666.208
280.6214, 1665.897
281.1035, 1669.509
281.5856, 1677.104
282.0677, 1680.933
282.5499, 1678.366
283.0320, 1673.666
283.5141, 1678.987
283.9962, 1695.589
284.4783, 1710.083
284.9604, 1708.664
285.4425, 1693.067
285.9247, 1693.754
286.4068, 1717.834
286.8889, 1752.308
287.3710, 1773.074
287.8531, 1780.056
288.3352, 1781.092
288.8174, 1777.591
289.2995, 1770.895
289.7816, 1770.537
290.2637, 1779.307
290.7458, 1790.322
291.2279, 1789.346
291.7101, 1777.435
292.1922, 1769.810
292.6743, 1778.834
293.1564, 1799.775
293.6385, 1816.990
294.1206, 1829.229
294.6028, 1837.093
295.0849, 1840.163
295.5670, 1839.048
296.0491, 1837.172
296.5312, 1833.620
297.0133, 1830.950
297.4955, 1835.825
297.9776, 1849.324
298.4597, 1867.285
298.9418, 1887.514
299.4239, 1908.813
299.9060, 1926.700
300.3882, 1936.114
300.8703, 1941.303
301.3524, 1948.666
301.8345, 1958.523
302.3166, 1970.179
302.7987, 1985.130
303.2809, 2001.466
303.7630, 2015.140
304.2451, 2018.298
304.7272, 2020.304
305.2093, 2033.457
305.6914, 2058.934
306.1736, 2086.803
306.6557, 2112.542
307.1378, 2135.272
307.6199, 2153.648
308.1020, 2164.649
308.5841, 2172.923
309.0663, 2179.645
309.5484, 2185.099
310.0305, 2197.802
310.5126, 2232.738
310.9947, 2275.800
311.4768, 2308.646
311.9590, 2315.291
312.4411, 2317.127
312.9232, 2328.579
313.4053, 2348.933
313.8874, 2366.152
314.3695, 2367.383
314.8516, 2365.694
315.3337, 2373.663
315.8159, 2405.173
316.2980, 2437.650
316.7801, 2461.202
317.2622, 2477.031
317.7443, 2493.714
318.2264, 2513.212
318.7086, 2535.490
319.1907, 2560.868
319.6728, 2600.125
320.1549, 2629.910
320.6370, 2634.538
321.1191, 2621.814
321.6013, 2621.880
322.0834, 2654.113
322.5655, 2692.829
323.0476, 2724.231
323.5297, 2740.772
324.0118, 2758.135
324.4940, 2782.718
324.9761, 2810.051
325.4582, 2828.100
325.9403, 2819.926
326.4224, 2814.832
326.9045, 2825.279
327.3867, 2863.607
327.8688, 2895.955
328.3509, 2921.126
328.8330, 2939.908
329.3151, 2954.093
329.7972, 2961.623
330.2794, 2966.766
330.7615, 2970.344
331.2436, 2971.464
331.7257, 2974.536
332.2078, 2984.597
332.6899, 2993.887
333.1721, 2989.920
333.6542, 2962.273
334.1363, 2939.202
334.6184, 2928.125
335.1005, 2929.986
335.5826, 2935.905
336.0648, 2950.324
336.5469, 2963.479
337.0290, 2963.572
337.5111, 2946.041
337.9932, 2928.813
338.4753, 2915.562
338.9575, 2906.005
339.4396, 2897.112
339.9217, 2888.175
340.4038, 2881.440
340.8859, 2883.000
341.3680, 2895.087
341.8502, 2891.024
342.3323, 2858.849
342.8144, 2810.978
343.2965, 2793.855
343.7786, 2811.295
344.2607, 2830.020
344.7429, 2822.260
345.2250, 2790.924
345.7071, 2766.167
346.1892, 2752.432
346.6713, 2746.479
347.1534, 2742.529
347.6355, 2740.607
348.1176, 2740.793
348.5998, 2748.950
349.0819, 2759.430
349.5640, 2753.637
350.0461, 2726.600
350.5282, 2693.379
351.0103, 2670.123
351.4925, 2655.611
351.9746, 2645.355
352.4567, 2640.121
352.9388, 2636.733
353.4209, 2630.310
353.9030, 2620.381
354.3852, 2609.902
354.8673, 2598.274
355.3494, 2588.227
355.8315, 2584.663
356.3136, 2598.115
356.7957, 2613.329
357.2779, 2616.947
357.7600, 2609.045
358.2421, 2598.355
358.7242, 2591.135
359.2063, 2583.467
359.6884, 2571.071
360.1706, 2544.012
360.6527, 2520.141
361.1348, 2508.637
361.6169, 2507.958
362.0990, 2509.998
362.5811, 2516.945
363.0633, 2522.166
363.5454, 2520.896
364.0275, 2507.116
364.5096, 2494.174
364.9917, 2485.666
365.4738, 2480.298
365.9560, 2474.660
366.4381, 2471.226
366.9202, 2464.992
367.4023, 2452.192
367.8844, 2424.196
368.3665, 2408.237
368.8487, 2416.912
369.3308, 2435.589
369.8129, 2441.697
370.2950, 2424.777
370.7771, 2408.136
371.2592, 2396.775
371.7414, 2390.880
372.2235, 2389.705
372.7056, 2394.639
373.1877, 2402.992
373.6698, 2413.375
374.1519, 2430.029
374.6341, 2437.234
375.1162, 2427.905
375.5983, 2404.914
376.0804, 2393.814
376.5625, 2397.259
377.0446, 2406.316
377.5267, 2417.249
378.0089, 2431.468
378.4910, 2432.768
378.9731, 2414.184
379.4552, 2386.621
379.9373, 2378.096
380.4194, 2389.477
380.9016, 2406.881
381.3837, 2426.586
381.8658, 2446.833
382.3479, 2455.384
382.8300, 2448.822
383.3121, 2439.474
383.7943, 2446.946
384.2764, 2467.769
384.7585, 2485.771
385.2406, 2488.356
385.7227, 2484.162
386.2048, 2488.974
386.6870, 2503.180
387.1691, 2520.884
387.6512, 2537.805
388.1333, 2554.190
388.6154, 2570.855
389.0975, 2589.550
389.5797, 2607.138
390.0618, 2620.770
390.5439, 2630.820
391.0260, 2638.395
391.5081, 2647.221
391.9902, 2652.414
392.4724, 2648.615
392.9545, 2627.482
393.4366, 2609.149
393.9187, 2605.944
394.4008, 2612.393
394.8829, 2615.140
395.3651, 2610.783
395.8472, 2601.133
396.3293, 2585.448
396.8114, 2560.287
397.2935, 2539.570
397.7756, 2534.841
398.2578, 2532.966
398.7399, 2516.456
399.2220, 2459.387
399.7041, 2413.619
400.1862, 2396.116
400.6683, 2409.750
401.1505, 2402.116
401.6326, 2361.072
402.1147, 2309.990
402.5968, 2266.085
403.0789, 2230.820
403.5610, 2199.634
404.0432, 2172.570
404.5253, 2149.177
405.0074, 2128.057
405.4895, 2109.901
405.9716, 2092.004
406.4537, 2073.781
406.9359, 2055.429
407.4180, 2031.876
407.9001, 2001.123
408.3822, 1968.335
408.8643, 1940.528
409.3464, 1917.688
409.8285, 1899.289
410.3106, 1888.699
410.7928, 1882.594
411.2749, 1867.863
411.7570, 1843.697
412.2391, 1819.693
412.7212, 1807.321
413.2033, 1802.412
413.6855, 1793.275
414.1676, 1771.880
414.6497, 1749.424
415.1318, 1742.432
415.6139, 1748.067
416.0960, 1751.812
416.5782, 1744.574
417.0603, 1730.621
417.5424, 1713.261
418.0245, 1690.746
418.5066, 1671.267
418.9887, 1660.811
419.4709, 1656.453
419.9530, 1652.503
420.4351, 1643.081
420.9172, 1636.794
421.3993, 1640.655
421.8814, 1657.136
422.3636, 1667.035
422.8457, 1660.785
423.3278, 1648.646
423.8099, 1639.870
424.2920, 1641.241
424.7741, 1639.422
425.2563, 1629.952
425.7384, 1614.401
426.2205, 1604.816
426.7026, 1602.952
427.1847, 1604.892
427.6668, 1609.794
428.1490, 1621.862
428.6311, 1625.570
429.1132, 1617.560
429.5953, 1603.500
430.0774, 1594.597
430.5595, 1592.060
431.0417, 1589.426
431.5238, 1584.411
432.0059, 1577.131
432.4880, 1567.833
432.9701, 1555.437
433.4522, 1545.833
433.9344, 1547.279
434.4165, 1558.263
434.8986, 1567.578
435.3807, 1572.855
435.8628, 1574.656
436.3449, 1572.033
436.8271, 1565.728
437.3092, 1561.117
437.7913, 1565.510
438.2734, 1572.676
438.7555, 1572.522
439.2376, 1562.422
439.7197, 1550.610
440.2018, 1539.459
440.6840, 1531.670
441.1661, 1532.099
441.6482, 1556.221
442.1303, 1578.272
442.6124, 1580.069
443.0945, 1561.360
443.5767, 1544.611
444.0588, 1535.970
444.5409, 1533.684
445.0230, 1536.463
445.5051, 1554.424
445.9872, 1565.459
446.4694, 1559.598
446.9515, 1543.503
447.4336, 1538.925
447.9157, 1563.180
448.3978, 1581.403
448.8799, 1578.973
449.3621, 1547.698
449.8442, 1526.974
450.3263, 1519.104
450.8084, 1519.352
451.2905, 1523.067
451.7726, 1531.226
452.2548, 1539.265
452.7369, 1546.998
453.2190, 1553.685
453.7011, 1555.191
454.1832, 1550.750
454.6653, 1545.667
455.1475, 1544.240
455.6296, 1545.792
456.1117, 1545.612
456.5938, 1542.586
457.0759, 1539.462
457.5580, 1541.671
458.0402, 1547.608
458.5223, 1551.129
459.0044, 1546.394
459.4865, 1539.113
459.9686, 1537.961
460.4507, 1542.957
460.9329, 1545.463
461.4150, 1535.350
461.8971, 1521.079
462.3792, 1511.699
462.8613, 1509.658
463.3434, 1513.285
463.8256, 1523.468
464.3077, 1538.892
464.7898, 1556.221
465.2719, 1587.456
465.7540, 1609.349
466.2361, 1607.521
466.7183, 1569.860
467.2004, 1546.086
467.6825, 1547.113
468.1646, 1559.509
468.6467, 1570.804
469.1288, 1582.649
469.6109, 1590.436
470.0930, 1593.090
470.5752, 1591.052
471.0573, 1585.941
471.5394, 1575.624
472.0215, 1567.335
472.5036, 1565.965
472.9857, 1571.872
473.4679, 1579.646
473.9500, 1590.349
474.4321, 1599.456
474.9142, 1597.354
475.3963, 1585.568
475.8784, 1577.988
476.3606, 1583.366
476.8427, 1594.833
477.3248, 1598.383
477.8069, 1594.549
478.2890, 1589.378
478.7711, 1586.996
479.2533, 1586.244
479.7354, 1585.500
480.2175, 1584.288
480.6996, 1583.370
481.1817, 1583.906
481.6638, 1585.031
482.1460, 1585.107
482.6281, 1581.981
483.1102, 1578.858
483.5923, 1576.901
484.0744, 1576.130
484.5565, 1576.669
485.0387, 1577.736
485.5208, 1580.495
486.0029, 1585.933
486.4850, 1596.633
486.9671, 1606.451
487.4492, 1616.609
487.9314, 1625.425
488.4135, 1627.552
488.8956, 1619.884
489.3777, 1612.188
489.8598, 1606.981
490.3419, 1604.237
490.8241, 1609.788
491.3062, 1626.235
491.7883, 1643.299
492.2704, 1649.239
492.7525, 1644.985
493.2346, 1641.060
493.7168, 1639.587
494.1989, 1639.942
494.6810, 1640.779
495.1631, 1642.336
495.6452, 1646.094
496.1273, 1657.842
496.6095, 1670.111
497.0916, 1669.669
497.5737, 1654.290
498.0558, 1643.200
498.5379, 1653.280
499.0201, 1673.598
499.5022, 1691.258
499.9843, 1702.927
500.4664, 1710.827
500.9485, 1713.593
501.4306, 1712.728
501.9127, 1713.578
502.3948, 1717.339
502.8770, 1722.874
503.3591, 1729.738
503.8412, 1737.794
504.3233, 1747.582
504.8054, 1761.308
505.2875, 1774.754
505.7697, 1782.462
506.2518, 1781.215
506.7339, 1784.604
507.2160, 1796.970
507.6981, 1814.866
508.1802, 1826.171
508.6624, 1830.402
509.1445, 1832.434
509.6266, 1835.546
510.1087, 1839.036
510.5908, 1839.250
511.0729, 1835.670
511.5551, 1831.427
512.0372, 1829.386
512.5193, 1829.234
513.0014, 1830.370
513.4835, 1833.751
513.9656, 1837.062
514.4478, 1838.218
514.9299, 1837.589
515.4120, 1836.561
515.8941, 1836.235
516.3762, 1835.332
516.8583, 1831.930
517.3405, 1824.075
517.8226, 1820.875
518.3047, 1828.715
518.7868, 1840.158
519.2689, 1847.337
519.7510, 1845.405
520.2332, 1845.442
520.7153, 1849.614
521.1974, 1856.649
521.6795, 1861.729
522.1616, 1865.167
522.6437, 1865.891
523.1259, 1860.156
523.6080, 1847.271
524.0901, 1851.197
524.5722, 1876.478
525.0543, 1902.945
525.5364, 1904.698
526.0186, 1886.566
526.5007, 1874.814
526.9828, 1878.088
527.4649, 1888.118
527.9470, 1895.545
528.4291, 1900.138
528.9113, 1901.596
529.3934, 1892.127
529.8755, 1884.191
530.3576, 1892.623
530.8397, 1919.858
531.3218, 1942.204
531.8040, 1946.269
532.2861, 1941.144
532.7682, 1935.091
533.2503, 1923.650
533.7324, 1918.652
534.2145, 1923.921
534.6967, 1936.916
535.1788, 1951.296
535.6609, 1970.490
536.1430, 1986.264
536.6251, 1996.633
537.1072, 2001.879
537.5894, 1996.116
538.0715, 1974.667
538.5536, 1953.963
539.0357, 1952.844
539.5178, 1970.511
539.9999, 1977.959
540.4821, 1968.371
540.9642, 1952.893
541.4463, 1947.421
541.9284, 1950.821
542.4105, 1957.943
542.8926, 1973.643
543.3748, 1987.598
543.8569, 1983.348
544.3390, 1962.463
544.8211, 1944.282
545.3032, 1943.842
545.7853, 1948.687
546.2675, 1948.179
546.7495, 1938.355
547.2316, 1927.635
547.7137, 1915.605
548.1959, 1904.878
548.6780, 1899.014
549.1601, 1904.331
549.6422, 1907.359
550.1243, 1905.596
550.6064, 1899.552
551.0886, 1892.449
551.5707, 1882.785
552.0528, 1875.297
552.5349, 1875.065
553.0170, 1882.673
553.4991, 1881.060
553.9813, 1868.590
554.4634, 1851.729
554.9455, 1835.633
555.4276, 1821.112
555.9097, 1812.597
556.3918, 1813.634
556.8740, 1817.958
557.3561, 1815.629
557.8382, 1809.568
558.3203, 1809.421
558.8024, 1831.917
559.2845, 1853.949
559.7667, 1855.860
560.2488, 1834.637
560.7309, 1816.503
561.2130, 1815.909
561.6951, 1818.526
562.1772, 1813.386
562.6594, 1782.197
563.1415, 1765.632
563.6236, 1772.240
564.1057, 1791.037
564.5878, 1801.569
565.0699, 1802.648
565.5521, 1797.659
566.0342, 1784.333
566.5163, 1765.328
566.9984, 1758.376
567.4805, 1764.751
567.9626, 1773.135
568.4448, 1777.037
568.9269, 1776.358
569.4090, 1768.807
569.8911, 1752.792
570.3732, 1738.138
570.8553, 1737.377
571.3375, 1744.588
571.8196, 1749.333
572.3017, 1746.433
572.7838, 1741.725
573.2659, 1737.147
573.7480, 1733.144
574.2302, 1731.014
574.7123, 1737.402
575.1944, 1740.228
575.6765, 1733.188
576.1586, 1713.997
576.6407, 1696.172
577.1229, 1673.831
577.6050, 1658.946
578.0871, 1666.045
578.5692, 1706.367
579.0513, 1720.226
579.5334, 1693.929
580.0156, 1652.185
580.4977, 1643.709
580.9798, 1666.347
581.4619, 1681.466
581.9440, 1671.644
582.4261, 1646.677
582.9083, 1619.141
583.3904, 1590.639
583.8725, 1570.805
584.3546, 1571.351
584.8367, 1580.463
585.3188, 1587.783
585.8010, 1591.888
586.2831, 1594.148
586.7652, 1597.511
587.2473, 1598.193
587.7294, 1592.445
588.2115, 1572.869
588.6937, 1555.042
589.1758, 1539.008
589.6579, 1525.823
590.1400, 1518.565
590.6221, 1519.303
591.1042, 1521.660
591.5864, 1525.956
592.0685, 1530.896
592.5506, 1521.221
593.0327, 1494.757
593.5148, 1470.473
593.9969, 1465.721
594.4791, 1475.310
594.9612, 1484.371
595.4433, 1491.877
595.9254, 1495.546
596.4075, 1493.106
596.8896, 1485.367
597.3718, 1473.528
597.8539, 1450.510
598.3360, 1431.704
598.8181, 1426.319
599.3002, 1431.154
599.7823, 1436.474
600.2645, 1443.173
600.7466, 1447.019
601.2287, 1445.600
601.7108, 1438.477
602.1929, 1432.768
602.6750, 1426.517
603.1572, 1424.851
603.6393, 1435.441
604.1214, 1460.433
604.6035, 1469.147
605.0856, 1456.209
605.5677, 1436.381
606.0499, 1431.354
606.5320, 1437.467
607.0141, 1437.550
607.4962, 1420.056
607.9783, 1401.906
608.4604, 1406.112
608.9425, 1426.691
609.4246, 1444.733
609.9067, 1452.551
610.3889, 1453.774
610.8710, 1445.694
611.3531, 1427.388
611.8352, 1421.686
612.3173, 1449.275
612.7994, 1478.627
613.2816, 1489.544
613.7637, 1466.573
614.2458, 1461.501
614.7279, 1483.827
615.2100, 1512.698
615.6921, 1516.930
616.1743, 1494.290
616.6564, 1476.914
617.1385, 1472.962
617.6206, 1477.566
618.1027, 1483.352
618.5848, 1489.809
619.0670, 1494.516
619.5491, 1493.710
620.0312, 1491.932
620.5133, 1493.151
620.9954, 1497.573
621.4775, 1505.880
621.9597, 1524.611
622.4418, 1543.113
622.9239, 1553.278
623.4060, 1549.267
623.8881, 1548.375
624.3702, 1552.713
624.8524, 1560.692
625.3345, 1571.525
625.8166, 1587.743
626.2987, 1599.966
626.7808, 1605.391
627.2629, 1607.699
627.7451, 1616.085
628.2272, 1630.613
628.7093, 1645.293
629.1914, 1658.564
629.6735, 1669.884
630.1556, 1676.601
630.6378, 1679.370
631.1199, 1682.365
631.6020, 1684.962
632.0841, 1691.131
632.5662, 1706.915
633.0483, 1735.220
633.5305, 1759.405
634.0126, 1770.605
634.4947, 1775.917
634.9768, 1781.203
635.4589, 1781.407
635.9410, 1790.137
636.4232, 1811.325
636.9053, 1838.965
637.3874, 1862.833
637.8695, 1882.150
638.3516, 1900.285
638.8337, 1917.517
639.3159, 1934.712
639.7980, 1953.446
640.2801, 1974.097
640.7622, 1999.995
641.2443, 2041.042
641.7264, 2085.059
642.2086, 2112.326
642.6907, 2122.903
643.1728, 2136.323
643.6549, 2160.494
644.1370, 2194.482
644.6191, 2240.644
645.1013, 2310.879
645.5834, 2366.463
646.0655, 2384.225
646.5476, 2394.363
647.0297, 2427.083
647.5118, 2489.089
647.9940, 2560.059
648.4761, 2644.626
648.9582, 2730.476
649.4403, 2783.739
649.9224, 2803.443
650.4045, 2835.496
650.8867, 2898.338
651.3688, 2986.377
651.8509, 3106.161
652.3330, 3250.838
652.8151, 3369.941
653.2972, 3399.818
653.7794, 3410.939
654.2615, 3465.147
654.7436, 3573.047
655.2257, 3674.232
655.7078, 3738.382
656.1899, 3797.509
656.6721, 3876.240
657.1542, 3985.011
657.6363, 4095.609
658.1184, 4210.287
658.6005, 4325.216
659.0826, 4435.870
659.5648, 4543.124
660.0469, 4632.391
660.5290, 4692.077
661.0111, 4745.102
661.4932, 4840.661
661.9753, 4969.379
662.4575, 5090.922
662.9396, 5184.850
663.4217, 5262.998
663.9038, 5334.618
664.3859, 5400.155
664.8680, 5458.452
665.3502, 5514.077
665.8323, 5559.101
666.3144, 5591.320
666.7965, 5612.116
667.2786, 5607.501
667.7607, 5564.532
668.2429, 5510.602
668.7250, 5468.509
669.2071, 5443.169
669.6892, 5395.895
670.1713, 5322.725
670.6534, 5231.090
671.1355, 5128.272
671.6176, 5014.471
672.0997, 4892.052
672.5818, 4759.717
673.0640, 4623.935
673.5461, 4491.232
674.0282, 4361.078
674.5103, 4229.236
674.9924, 4086.731
675.4745, 3949.577
675.9567, 3823.063
676.4388, 3707.153
676.9209, 3607.722
677.4030, 3536.605
677.8851, 3465.256
678.3672, 3383.240
678.8494, 3290.188
679.3315, 3198.413
679.8136, 3107.027
680.2957, 3023.340
680.7778, 2960.665
681.2599, 2911.773
681.7421, 2851.763
682.2242, 2775.870
682.7063, 2708.445
683.1884, 2684.857
683.6705, 2676.567
684.1526, 2644.223
684.6348, 2562.355
685.1169, 2484.225
685.5990, 2432.103
686.0811, 2394.839
686.5632, 2354.225
687.0453, 2303.117
687.5275, 2259.028
688.0096, 2225.562
688.4917, 2200.815
688.9738, 2179.354
689.4559, 2161.766
689.9380, 2143.241
690.4202, 2119.909
690.9023, 2095.142
691.3844, 2082.607
691.8665, 2079.781
692.3486, 2067.844
692.8307, 2021.889
693.3129, 1969.758
693.7950, 1938.280
694.2771, 1930.131
694.7592, 1922.177
695.2413, 1902.900
695.7234, 1883.696
696.2056, 1873.415
696.6877, 1877.510
697.1698, 1874.701
697.6519, 1863.436
698.1340, 1847.621
698.6161, 1828.623
699.0983, 1806.350
699.5804, 1793.612
700.0625, 1793.795
700.5446, 1799.584
701.0267, 1804.490
701.5089, 1807.380
701.9910, 1805.433
702.4731, 1796.795
702.9552, 1784.101
703.4373, 1768.276
703.9194, 1749.738
704.4016, 1729.135
704.8837, 1696.172
705.3658, 1672.874
705.8479, 1667.414
706.3300, 1676.860
706.8121, 1684.710
707.2943, 1690.375
707.7764, 1696.312
708.2585, 1706.615
708.7406, 1718.715
709.2227, 1715.329
709.7048, 1696.635
710.1870, 1675.836
710.6691, 1659.862
711.1512, 1649.337
711.6333, 1646.613
712.1154, 1652.571
712.5975, 1656.846
713.0797, 1650.803
713.5618, 1643.078
714.0439, 1640.878
714.5260, 1649.610
715.0081, 1655.266
715.4902, 1656.561
715.9724, 1655.687
716.4545, 1655.732
716.9366, 1657.386
717.4187, 1653.343
717.9008, 1640.981
718.3829, 1626.304
718.8651, 1619.647
719.3472, 1618.473
719.8293, 1613.810
720.3114, 1597.878
720.7935, 1583.465
721.2756, 1583.094
721.7578, 1592.077
722.2399, 1599.572
722.7220, 1606.914
723.2041, 1607.098
723.6862, 1591.728
724.1683, 1565.991
724.6505, 1555.752
725.1326, 1565.486
725.6147, 1579.668
726.0968, 1595.858
726.5789, 1611.349
727.0610, 1606.958
727.5432, 1583.094
728.0253, 1560.723
728.5074, 1555.344
728.9895, 1559.726
729.4716, 1568.304
729.9537, 1580.719
730.4359, 1584.104
730.9180, 1562.567
731.4000, 1536.665
731.8821, 1520.077
732.3643, 1516.897
732.8464, 1518.038
733.3285, 1527.961
733.8106, 1536.873
734.2927, 1534.226
734.7748, 1518.931
735.2570, 1507.771
735.7391, 1502.018
736.2212, 1501.291
736.7033, 1508.155
737.1854, 1519.494
737.6675, 1527.805
738.1497, 1530.009
738.6318, 1530.863
739.1139, 1535.463
739.5960, 1540.264
740.0781, 1539.858
740.5602, 1524.053
741.0424, 1514.291
741.5245, 1517.832
742.0066, 1527.866
742.4887, 1526.721
742.9708, 1510.449
743.4529, 1501.802
743.9351, 1510.501
744.4172, 1528.111
744.8993, 1531.249
745.3814, 1523.028
745.8635, 1521.422
746.3456, 1549.944
746.8278, 1578.559
747.3099, 1574.680
747.7920, 1544.274
748.2741, 1520.677
748.7562, 1517.693
749.2383, 1521.759
749.7205, 1531.182
750.2026, 1545.935
750.6847, 1547.106
751.1668, 1533.542
751.6489, 1509.726
752.1310, 1465.090
752.6132, 1406.880
753.0953, 1399.174
753.5774, 1443.190
754.0595, 1495.471
754.5416, 1529.406
755.0237, 1548.464
755.5059, 1553.199
755.9880, 1541.268
756.4701, 1534.177
756.9522, 1548.854
757.4343, 1566.287
757.9164, 1571.148
758.3986, 1558.600
758.8807, 1544.146
759.3628, 1524.038
759.8449, 1508.407
760.3270, 1510.933
760.8091, 1530.291
761.2913, 1550.135
761.7734, 1569.235
762.2555, 1583.024
762.7376, 1583.706
763.2197, 1576.425
763.7018, 1569.546
764.1840, 1564.771
764.6661, 1562.051
765.1482, 1562.763
765.6303, 1565.119
766.1124, 1566.678
766.5945, 1569.501
767.0767, 1566.628
767.5588, 1553.439
768.0409, 1537.764
768.5230, 1537.955
769.0051, 1553.289
769.4872, 1562.445
769.9694, 1554.768
770.4515, 1544.496
770.9336, 1556.550
771.4157, 1581.954
771.8978, 1598.481
772.3799, 1580.537
772.8621, 1567.928
773.3442, 1586.041
773.8263, 1624.839
774.3084, 1645.782
774.7905, 1640.181
775.2726, 1629.625
775.7548, 1617.966
776.2369, 1606.179
776.7190, 1598.227
777.2011, 1594.069
777.6832, 1593.325
778.1653, 1598.508
778.6475, 1605.490
779.1296, 1608.192
779.6117, 1607.116
780.0938, 1604.760
780.5759, 1602.105
781.0580, 1598.743
781.5402, 1593.938
782.0223, 1587.633
782.5044, 1582.335
782.9865, 1576.460
783.4686, 1574.460
783.9507, 1579.723
784.4329, 1591.286
784.9150, 1600.406
785.3971, 1607.083
785.8792, 1613.125
786.3613, 1620.524
786.8434, 1627.904
787.3256, 1635.205
787.8077, 1642.186
788.2898, 1641.845
788.7719, 1615.150
789.2540, 1592.297
789.7361, 1597.842
790.2183, 1641.413
790.7004, 1661.952
791.1825, 1651.381
791.6646, 1633.086
792.1467, 1621.191
792.6288, 1615.724
793.1110, 1619.850
793.5930, 1634.237
794.0751, 1647.133
794.5573, 1644.326
795.0394, 1635.650
795.5215, 1635.357
796.0036, 1647.539
796.4857, 1654.158
796.9678, 1641.851
797.4500, 1626.273
797.9321, 1619.546
798.4142, 1626.501
798.8963, 1626.339
799.3784, 1614.120
799.8605, 1605.924
800.3427, 1626.566
800.8248, 1667.185
801.3069, 1680.605
801.7890, 1657.753
802.2711, 1633.689
802.7532, 1641.763
803.2354, 1665.009
803.7175, 1685.094
804.1996, 1698.688
804.6817, 1707.313
805.1638, 1711.337
805.6459, 1710.298
806.1281, 1702.450
806.6102, 1685.183
807.0923, 1671.301
807.5744, 1661.357
808.0565, 1655.253
808.5386, 1654.515
809.0208, 1657.534
809.5029, 1659.383
809.9850, 1658.517
810.4671, 1658.445
810.9492, 1663.074
811.4313, 1669.312
811.9135, 1673.644
812.3956, 1673.772
812.8777, 1673.711
813.3598, 1668.508
813.8419, 1667.857
814.3240, 1689.299
814.8062, 1735.607
815.2883, 1760.319
815.7704, 1753.861
816.2525, 1735.052
816.7346, 1722.511
817.2167, 1715.708
817.6989, 1713.992
818.1810, 1718.648
818.6631, 1725.244
819.1452, 1734.897
819.6273, 1744.088
820.1094, 1748.123
820.5916, 1747.740
821.0737, 1740.154
821.5558, 1722.068
822.0379, 1701.320
822.5200, 1686.761
823.0021, 1678.969
823.4843, 1685.559
823.9664, 1712.414
824.4485, 1739.379
824.9306, 1744.649
825.4127, 1736.479
825.8948, 1727.060
826.3770, 1718.026
826.8591, 1710.810
827.3412, 1703.918
827.8233, 1700.069
828.3054, 1704.754
828.7875, 1722.845
829.2697, 1728.824
829.7518, 1716.648
830.2339, 1698.812
830.7160, 1690.922
831.1981, 1691.760
831.6802, 1698.954
832.1624, 1715.516
832.6445, 1728.965
833.1266, 1731.011
833.6087, 1724.894
834.0908, 1714.682
834.5729, 1696.829
835.0551, 1680.193
835.5372, 1661.480
836.0193, 1647.980
836.5014, 1653.145
836.9835, 1676.829
837.4656, 1693.535
837.9478, 1698.356
838.4299, 1697.097
838.9120, 1692.049
839.3941, 1686.571
839.8762, 1686.609
840.3583, 1697.224
840.8405, 1706.517
841.3226, 1710.384
841.8047, 1710.832
842.2868, 1710.019
842.7689, 1707.598
843.2510, 1704.790
843.7332, 1701.507
844.2153, 1698.212
844.6974, 1693.822
845.1795, 1689.772
845.6616, 1693.037
846.1437, 1707.773
846.6259, 1718.061
847.1080, 1707.180
847.5901, 1687.856
848.0722, 1673.449
848.5543, 1665.161
849.0364, 1665.638
849.5186, 1678.723
850.0007, 1695.697
850.4828, 1707.625
850.9649, 1714.555
851.4470, 1723.412
851.9291, 1735.177
852.4113, 1746.733
852.8934, 1757.669
853.3755, 1765.450
853.8576, 1764.075
854.3397, 1747.989
854.8218, 1740.242
855.3039, 1755.760
855.7860, 1777.800
856.2681, 1793.355
856.7502, 1801.250
857.2324, 1806.484
857.7145, 1808.706
858.1966, 1809.234
858.6787, 1805.553
859.1608, 1801.564
859.6429, 1810.245
860.1251, 1833.528
860.6072, 1853.997
861.0893, 1854.953
861.5714, 1852.242
862.0535, 1860.306
862.5356, 1886.938
863.0178, 1898.005
863.4999, 1884.793
863.9820, 1870.616
864.4641, 1873.666
864.9462, 1891.786
865.4283, 1901.731
865.9105, 1903.224
866.3926, 1905.577
866.8747, 1921.495
867.3568, 1938.313
867.8389, 1941.634
868.3210, 1930.398
868.8032, 1919.054
869.2853, 1909.339
869.7674, 1902.305
870.2495, 1898.333
870.7316, 1897.467
871.2137, 1899.874
871.6959, 1905.667
872.1780, 1913.607
872.6601, 1925.369
873.1422, 1937.513
873.6243, 1944.491
874.1064, 1946.706
874.5886, 1947.536
875.0707, 1950.208
875.5528, 1950.117
876.0349, 1942.978
876.5170, 1930.462
876.9991, 1923.169
877.4813, 1923.446
877.9634, 1919.735
878.4455, 1903.451
878.9276, 1883.191
879.4097, 1883.872
879.8918, 1900.336
880.3740, 1912.673
880.8561, 1906.864
881.3382, 1898.035
881.8203, 1894.069
882.3024, 1893.775
882.7845, 1893.127
883.2667, 1892.988
883.7488, 1889.570
884.2309, 1879.450
884.7130, 1868.572
885.1951, 1873.475
885.6772, 1890.960
886.1594, 1902.872
886.6415, 1902.252
887.1236, 1895.314
887.6057, 1881.303
888.0878, 1866.083
888.5699, 1859.069
889.0521, 1873.044
889.5342, 1880.035
890.0163, 1872.177
890.4984, 1862.590
890.9805, 1873.824
891.4626, 1904.804
891.9448, 1918.774
892.4269, 1907.590
892.9090, 1888.268
893.3911, 1874.316
893.8732, 1864.932
894.3553, 1858.545
894.8375, 1853.253
895.3196, 1855.094
895.8017, 1876.424
896.2838, 1895.862
896.7659, 1895.368
897.2480, 1871.132
897.7302, 1860.188
898.2123, 1865.056
898.6944, 1871.674
899.1765, 1865.706
899.6586, 1854.208
900.1407, 1847.109
900.6229, 1845.397
901.1050, 1847.115
901.5871, 1858.343
902.0692, 1866.275
902.5513, 1860.732
903.0334, 1841.246
903.5156, 1842.755
903.9977, 1869.755
904.4798, 1893.244
904.9619, 1892.280
905.4440, 1876.974
905.9261, 1865.089
906.4083, 1856.848
906.8904, 1852.820
907.3725, 1854.614
907.8546, 1859.467
908.3367, 1867.399
908.8188, 1877.597
909.3010, 1887.593
909.7831, 1899.310
910.2652, 1903.349
910.7473, 1894.281
911.2294, 1879.339
911.7115, 1870.010
912.1937, 1866.648
912.6758, 1870.505
913.1579, 1890.408
913.6400, 1906.807
914.1221, 1906.223
914.6042, 1897.363
915.0864, 1895.732
915.5685, 1906.273
916.0506, 1911.404
916.5327, 1907.533
917.0148, 1901.871
917.4969, 1906.004
917.9790, 1916.431
918.4611, 1922.718
918.9432, 1922.482
919.4254, 1919.913
919.9075, 1919.033
920.3896, 1916.284
920.8717, 1905.974
921.3538, 1879.509
921.8359, 1874.350
922.3181, 1897.483
922.8002, 1924.839
923.2823, 1938.314
923.7644, 1940.102
924.2465, 1933.945
924.7286, 1920.918
925.2108, 1917.332
925.6929, 1946.348
926.1750, 1978.186
926.6571, 1994.836
927.1392, 1994.426
927.6213, 1981.177
928.1035, 1946.117
928.5856, 1920.541
929.0677, 1918.470
929.5498, 1933.593
930.0319, 1952.568
930.5140, 1973.171
930.9962, 1985.653
931.4783, 1977.234
931.9604, 1967.096
932.4425, 1968.468
932.9246, 1976.329
933.4067, 1978.145
933.8889, 1968.567
934.3710, 1963.645
934.8531, 1967.234
935.3352, 1973.688
935.8173, 1973.702
936.2994, 1968.572
936.7816, 1962.055
937.2637, 1953.737
937.7458, 1948.777
938.2279, 1955.728
938.7100, 1964.972
939.1921, 1965.234
939.6743, 1948.149
940.1564, 1944.589
940.6385, 1959.434
941.1206, 1976.528
941.6027, 1981.655
942.0848, 1978.209
942.5670, 1978.857
943.0491, 1983.925
943.5312, 1989.006
944.0133, 1989.398
944.4954, 1990.420
944.9775, 1997.776
945.4597, 2011.066
945.9418, 2015.045
946.4239, 2004.611
946.9060, 1999.119
947.3881, 2008.477
947.8702, 2025.184
948.3524, 2031.542
948.8345, 2029.300
949.3166, 2024.627
949.7987, 2013.656
950.2808, 2008.183
950.7629, 2016.771
951.2451, 2034.112
951.7272, 2050.866
952.2093, 2069.012
952.6914, 2079.436
953.1735, 2079.729
953.6556, 2075.549
954.1378, 2073.458
954.6199, 2072.860
955.1020, 2072.048
955.5841, 2070.340
956.0662, 2070.690
956.5483, 2075.557
957.0305, 2082.449
957.5126, 2090.774
957.9947, 2101.625
958.4768, 2102.847
958.9589, 2092.203
959.4410, 2083.661
959.9232, 2087.934
960.4053, 2100.315
960.8874, 2114.298
961.3695, 2129.055
961.8516, 2140.819
962.3337, 2146.624
962.8159, 2150.312
963.2980, 2151.297
963.7801, 2151.605
964.2622, 2156.074
964.7443, 2164.371
965.2264, 2182.888
965.7086, 2219.443
966.1907, 2253.019
966.6728, 2248.977
967.1549, 2224.421
967.6370, 2209.042
968.1191, 2215.005
968.6013, 2223.219
969.0834, 2231.114
969.5655, 2238.511
970.0476, 2244.997
970.5297, 2250.418
971.0118, 2258.980
971.4940, 2271.176
971.9761, 2280.789
972.4582, 2275.261
972.9403, 2269.476
973.4224, 2283.038
973.9045, 2316.566
974.3867, 2340.464
974.8688, 2340.125
975.3509, 2343.338
975.8330, 2360.739
976.3151, 2387.834
976.7972, 2407.743
977.2794, 2420.956
977.7615, 2433.010
978.2435, 2446.464
978.7256, 2459.045
979.2078, 2463.210
979.6899, 2466.783
980.1720, 2484.523
980.6541, 2531.598
981.1362, 2564.670
981.6183, 2576.619
982.1005, 2583.851
982.5826, 2607.673
983.0647, 2642.868
983.5468, 2670.389
984.0289, 2687.703
984.5110, 2706.114
984.9932, 2734.750
985.4753, 2765.614
985.9574, 2793.323
986.4395, 2817.811
986.9216, 2839.770
987.4037, 2856.666
987.8859, 2882.765
988.3680, 2931.939
988.8501, 2988.833
989.3322, 3019.307
989.8143, 3032.237
990.2964, 3053.130
990.7786, 3099.870
991.2607, 3147.316
991.7428, 3187.633
992.2249, 3224.707
992.7070, 3261.462
993.1891, 3297.305
993.6713, 3346.588
994.1534, 3413.722
994.6355, 3480.581
995.1176, 3525.692
995.5997, 3561.205
996.0818, 3603.333
996.5640, 3656.669
997.0461, 3699.928
997.5282, 3715.226
998.0103, 3741.330
998.4924, 3801.100
998.9745, 3887.352
999.4567, 3967.413
999.9388, 4040.212
1000.421, 4092.444
1000.903, 4096.367
1001.385, 4098.173
1001.867, 4138.408
1002.349, 4198.615
1002.831, 4231.881
1003.314, 4218.854
1003.796, 4224.960
1004.278, 4264.140
1004.760, 4309.016
1005.242, 4323.632
1005.724, 4316.483
1006.206, 4305.702
1006.688, 4293.756
1007.171, 4283.982
1007.653, 4284.791
1008.135, 4281.852
1008.617, 4265.160
1009.099, 4235.210
1009.581, 4213.644
1010.063, 4201.807
1010.545, 4177.320
1011.027, 4121.584
1011.510, 4052.412
1011.992, 3991.532
1012.474, 3935.749
1012.956, 3877.608
1013.438, 3808.041
1013.920, 3744.621
1014.402, 3691.990
1014.884, 3644.037
1015.367, 3594.376
1015.849, 3542.428
1016.331, 3480.005
1016.813, 3404.770
1017.295, 3334.374
1017.777, 3290.759
1018.259, 3251.916
1018.741, 3198.610
1019.223, 3128.808
1019.706, 3068.064
1020.188, 3018.772
1020.670, 2971.309
1021.152, 2918.346
1021.634, 2866.725
1022.116, 2838.374
1022.598, 2823.764
1023.080, 2797.887
1023.563, 2726.145
1024.045, 2672.646
1024.527, 2667.637
1025.009, 2678.312
1025.491, 2669.612
1025.973, 2641.248
1026.455, 2599.220
1026.937, 2542.106
1027.419, 2493.617
1027.901, 2481.186
1028.384, 2483.884
1028.866, 2487.521
1029.348, 2490.428
1029.830, 2473.206
1030.312, 2423.292
1030.794, 2379.567
1031.276, 2355.218
1031.758, 2346.073
1032.241, 2348.407
1032.723, 2357.550
1033.205, 2358.265
1033.687, 2340.710
1034.169, 2320.896
1034.651, 2304.979
1035.133, 2291.071
1035.615, 2277.315
1036.098, 2263.804
1036.580, 2249.160
1037.062, 2233.019
1037.544, 2218.845
1038.026, 2210.471
1038.508, 2205.010
1038.990, 2198.422
1039.472, 2191.045
1039.954, 2187.094
1040.437, 2190.634
1040.919, 2192.714
1041.401, 2191.673
1041.883, 2187.827
1042.365, 2182.198
1042.847, 2174.408
1043.329, 2162.311
1043.811, 2144.458
1044.293, 2125.552
1044.776, 2105.084
1045.258, 2087.296
1045.740, 2076.193
1046.222, 2072.259
1046.704, 2070.521
1047.186, 2071.186
1047.668, 2072.413
1048.150, 2077.382
1048.633, 2079.222
1049.115, 2066.761
1049.597, 2043.300
1050.079, 2019.274
1050.561, 1989.031
1051.043, 1972.164
1051.525, 1977.457
1052.007, 1988.792
1052.490, 1981.328
1052.972, 1959.014
1053.454, 1936.178
1053.936, 1914.186
1054.418, 1900.902
1054.900, 1909.260
1055.382, 1921.504
1055.864, 1925.625
1056.346, 1922.077
1056.828, 1920.399
1057.311, 1921.557
1057.793, 1914.792
1058.275, 1890.835
1058.757, 1863.387
1059.239, 1849.500
1059.721, 1844.744
1060.203, 1841.410
1060.685, 1837.824
1061.168, 1835.976
1061.650, 1839.261
1062.132, 1838.765
1062.614, 1819.474
1063.096, 1789.393
1063.578, 1784.203
1064.060, 1803.020
1064.542, 1818.960
1065.025, 1811.916
1065.507, 1803.008
1065.989, 1805.553
1066.471, 1813.743
1066.953, 1812.192
1067.435, 1800.054
1067.917, 1789.577
1068.399, 1783.650
1068.881, 1779.055
1069.364, 1770.097
1069.846, 1761.602
1070.328, 1760.952
1070.810, 1772.840
1071.292, 1773.628
1071.774, 1756.197
1072.256, 1743.016
1072.738, 1751.750
1073.220, 1770.323
1073.703, 1761.130
1074.185, 1732.790
1074.667, 1713.099
1075.149, 1724.074
1075.631, 1732.601
1076.113, 1723.351
1076.595, 1711.722
1077.077, 1717.553
1077.559, 1740.578
1078.042, 1753.311
1078.524, 1753.923
1079.006, 1748.947
1079.488, 1739.092
1079.970, 1729.447
1080.452, 1724.189
1080.934, 1723.244
1081.416, 1722.768
1081.899, 1724.431
1082.381, 1718.355
1082.863, 1697.638
1083.345, 1678.512
1083.827, 1693.219
1084.309, 1722.739
1084.791, 1734.484
1085.273, 1714.259
1085.755, 1703.799
1086.238, 1717.238
1086.720, 1731.140
1087.202, 1732.790
1087.684, 1724.523
1088.166, 1713.261
1088.648, 1700.752
1089.130, 1695.027
1089.612, 1709.002
1090.094, 1720.581
1090.577, 1714.460
1091.059, 1703.176
1091.541, 1705.838
1092.023, 1725.411
1092.505, 1729.047
1092.987, 1713.974
1093.469, 1694.252
1093.951, 1674.266
1094.434, 1660.893
1094.916, 1664.061
1095.398, 1682.018
1095.880, 1696.052
1096.362, 1705.260
1096.844, 1709.741
1097.326, 1708.360
1097.808, 1704.970
1098.291, 1705.852
1098.773, 1709.027
1099.255, 1711.823
1099.737, 1715.098
1100.219, 1710.887
1100.701, 1686.023
1101.183, 1667.835
1101.665, 1673.857
1102.147, 1696.232
1102.630, 1694.785
1103.112, 1674.151
1103.594, 1656.561
1104.076, 1650.886
1104.558, 1652.476
1105.040, 1667.291
1105.522, 1683.206
1106.004, 1685.405
1106.486, 1671.912
1106.969, 1659.353
1107.451, 1648.034
1107.933, 1641.528
1108.415, 1645.335
1108.897, 1653.074
1109.379, 1662.908
1109.861, 1672.088
1110.343, 1669.865
1110.826, 1651.152
1111.308, 1636.159
1111.790, 1628.374
1112.272, 1624.965
1112.754, 1618.771
1113.236, 1616.061
1113.718, 1633.255
1114.200, 1674.845
1114.682, 1694.638
1115.165, 1671.872
1115.647, 1642.802
1116.129, 1615.157
1116.611, 1594.160
1117.093, 1602.055
1117.575, 1629.193
1118.057, 1643.382
1118.539, 1628.860
1119.021, 1613.401
1119.504, 1609.596
1119.986, 1608.365
1120.468, 1602.967
1120.950, 1593.567
1121.432, 1588.252
1121.914, 1586.765
1122.396, 1584.465
1122.878, 1578.688
1123.361, 1571.225
1123.843, 1559.268
1124.325, 1548.014
1124.807, 1547.687
1125.289, 1562.050
1125.771, 1566.728
1126.253, 1558.734
1126.735, 1551.622
1127.218, 1560.559
1127.700, 1574.520
1128.182, 1584.619
1128.664, 1589.318
1129.146, 1583.064
1129.628, 1560.820
1130.110, 1541.326
1130.592, 1528.236
1131.074, 1519.689
1131.557, 1514.250
1132.039, 1510.962
1132.521, 1508.058
1133.003, 1505.038
1133.485, 1504.452
1133.967, 1509.795
1134.449, 1513.119
1134.931, 1511.084
1135.413, 1505.280
1135.896, 1497.727
1136.378, 1490.231
1136.860, 1489.223
1137.342, 1502.447
1137.824, 1509.734
1138.306, 1498.140
1138.788, 1482.494
1139.270, 1472.120
1139.752, 1466.647
1140.235, 1459.369
1140.717, 1450.820
1141.199, 1445.575
1141.681, 1450.766
1142.163, 1454.977
1142.645, 1450.678
1143.127, 1442.163
1143.609, 1434.707
1144.092, 1427.555
1144.574, 1431.432
1145.056, 1447.692
1145.538, 1459.920
1146.020, 1448.731
1146.502, 1433.625
1146.984, 1431.635
1147.466, 1440.457
1147.948, 1447.530
1148.431, 1453.835
1148.913, 1451.262
1149.395, 1435.781
1149.877, 1422.535
1150.359, 1434.978
1150.841, 1455.330
1151.323, 1463.584
1151.805, 1456.951
1152.287, 1444.071
1152.770, 1419.589
1153.252, 1407.102
1153.734, 1418.268
1154.216, 1437.484
1154.698, 1438.842
1155.180, 1429.113
1155.662, 1419.203
1156.144, 1410.854
1156.627, 1404.848
1157.109, 1400.575
1157.591, 1399.630
1158.073, 1404.464
1158.555, 1412.177
1159.037, 1415.270
1159.519, 1414.711
1160.001, 1412.984
1160.484, 1408.166
1160.966, 1407.184
1161.448, 1412.509
1161.930, 1420.371
1162.412, 1432.429
1162.894, 1445.345
1163.376, 1435.356
1163.858, 1406.121
1164.340, 1380.756
1164.823, 1363.964
1165.305, 1362.391
1165.787, 1389.671
1166.269, 1423.586
1166.751, 1436.396
1167.233, 1429.938
1167.715, 1420.663
1168.197, 1409.873
1168.679, 1400.391
1169.162, 1387.989
1169.644, 1383.794
1170.126, 1403.092
1170.608, 1431.671
1171.090, 1438.523
1171.572, 1423.900
1172.054, 1408.589
1172.536, 1395.256
1173.019, 1388.254
1173.501, 1394.676
1173.983, 1405.562
1174.465, 1417.258
1174.947, 1427.832
1175.429, 1425.790
1175.911, 1410.202
1176.393, 1401.183
1176.875, 1405.545
1177.358, 1414.836
1177.840, 1426.206
1178.322, 1435.015
1178.804, 1434.780
1179.286, 1424.931
1179.768, 1416.897
1180.250, 1410.309
1180.732, 1410.372
1181.214, 1423.082
1181.697, 1436.863
1182.179, 1440.111
1182.661, 1435.915
1183.143, 1426.943
1183.625, 1409.661
1184.107, 1405.184
1184.589, 1415.667
1185.071, 1426.799
1185.554, 1429.944
1186.036, 1428.841
1186.518, 1426.016
1187.000, 1422.957
1187.482, 1423.155
1187.964, 1431.623
1188.446, 1432.426
1188.928, 1424.128
1189.411, 1413.012
1189.893, 1401.144
1190.375, 1391.614
1190.857, 1392.476
1191.339, 1399.796
1191.821, 1399.823
1192.303, 1382.422
1192.785, 1374.556
1193.267, 1380.083
1193.750, 1390.371
1194.232, 1392.954
1194.714, 1396.262
1195.196, 1421.017
1195.678, 1462.805
1196.160, 1483.874
1196.642, 1467.998
1197.124, 1447.202
1197.606, 1422.762
1198.089, 1404.430
1198.571, 1412.800
1199.053, 1433.045
1199.535, 1438.369
1200.017, 1426.328
1200.499, 1421.876
1200.981, 1437.567
1201.463, 1445.594
1201.945, 1437.142
1202.428, 1421.183
1202.910, 1406.332
1203.392, 1396.762
1203.874, 1404.221
1204.356, 1434.024
1204.838, 1448.934
1205.320, 1433.946
1205.802, 1421.151
1206.285, 1423.224
1206.767, 1432.205
1207.249, 1430.551
1207.731, 1424.146
1208.213, 1425.880
1208.695, 1442.146
1209.177, 1452.699
1209.659, 1449.591
1210.141, 1451.017
1210.624, 1469.853
1211.106, 1495.081
1211.588, 1505.603
1212.070, 1501.748
1212.552, 1481.486
1213.034, 1426.565
1213.516, 1400.590
1213.998, 1420.066
1214.480, 1447.760
1214.963, 1464.504
1215.445, 1470.796
1215.927, 1465.107
1216.409, 1450.507
1216.891, 1434.675
1217.373, 1414.310
1217.855, 1403.426
1218.337, 1403.683
1218.820, 1411.233
1219.302, 1429.833
1219.784, 1451.163
1220.266, 1450.205
1220.748, 1433.210
1221.230, 1419.541
1221.712, 1415.150
1222.194, 1417.088
1222.677, 1427.446
1223.159, 1438.427
1223.641, 1442.839
1224.123, 1442.393
1224.605, 1438.885
1225.087, 1433.614
1225.569, 1431.573
1226.051, 1439.189
1226.533, 1442.644
1227.016, 1438.974
1227.498, 1434.349
1227.980, 1435.880
1228.462, 1441.084
1228.944, 1447.462
1229.426, 1453.775
1229.908, 1453.952
1230.390, 1437.374
1230.872, 1431.207
1231.355, 1442.194
1231.837, 1457.267
1232.319, 1460.775
1232.801, 1457.085
1233.283, 1450.736
1233.765, 1442.992
1234.247, 1441.592
1234.729, 1448.572
1235.212, 1461.540
1235.694, 1483.364
1236.176, 1501.845
1236.658, 1497.755
1237.140, 1481.422
1237.622, 1464.137
1238.104, 1447.964
1238.586, 1444.341
1239.068, 1459.752
1239.551, 1469.565
1240.033, 1466.657
1240.515, 1460.119
1240.997, 1463.698
1241.479, 1470.046
1241.961, 1466.985
1242.443, 1453.098
1242.925, 1450.261
1243.407, 1461.392
1243.890, 1476.795
1244.372, 1496.774
1244.854, 1510.436
1245.336, 1493.585
1245.818, 1468.254
1246.300, 1462.870
1246.782, 1482.565
1247.264, 1492.079
1247.747, 1490.022
1248.229, 1484.787
1248.711, 1477.533
1249.193, 1472.530
1249.675, 1477.137
1250.157, 1484.802
1250.639, 1487.693
1251.121, 1485.268
1251.604, 1485.848
1252.086, 1489.947
1252.568, 1490.538
1253.050, 1482.219
1253.532, 1476.633
1254.014, 1491.730
1254.496, 1510.404
1254.978, 1510.914
1255.460, 1493.660
1255.943, 1498.724
1256.425, 1525.761
1256.907, 1540.701
1257.389, 1525.796
1257.871, 1504.229
1258.353, 1488.284
1258.835, 1477.997
1259.317, 1472.247
1259.799, 1471.107
1260.281, 1482.391
1260.764, 1504.028
1261.246, 1515.814
1261.728, 1503.590
1262.210, 1490.840
1262.692, 1491.945
1263.174, 1496.532
1263.656, 1497.392
1264.138, 1494.745
1264.621, 1489.125
1265.103, 1480.997
1265.585, 1471.977
1266.067, 1456.993
1266.549, 1451.994
1267.031, 1473.777
1267.513, 1495.120
1267.995, 1494.400
1268.478, 1478.748
1268.960, 1480.176
1269.442, 1494.677
1269.924, 1508.329
1270.406, 1518.743
1270.888, 1521.995
1271.370, 1516.275
1271.852, 1506.714
1272.334, 1491.007
1272.817, 1476.756
1273.299, 1492.310
1273.781, 1525.355
1274.263, 1544.154
1274.745, 1526.006
1275.227, 1513.067
1275.709, 1508.529
1276.191, 1505.006
1276.673, 1492.577
1277.156, 1480.681
1277.638, 1486.695
1278.120, 1505.229
1278.602, 1525.556
1279.084, 1555.700
1279.566, 1559.640
1280.048, 1531.890
1280.530, 1506.729
1281.013, 1515.323
1281.495, 1533.113
1281.977, 1530.273
1282.459, 1518.466
1282.941, 1521.081
1283.423, 1543.801
1283.905, 1558.517
1284.387, 1564.776
1284.870, 1566.795
1285.352, 1569.776
1285.834, 1567.119
1286.316, 1547.077
1286.798, 1522.260
1287.280, 1510.988
1287.762, 1513.826
1288.244, 1517.305
1288.726, 1521.207
1289.208, 1526.950
1289.691, 1538.987
1290.173, 1548.673
1290.655, 1551.855
1291.137, 1550.975
1291.619, 1547.400
1292.101, 1541.231
1292.583, 1531.994
1293.065, 1521.335
1293.548, 1516.193
1294.030, 1521.971
1294.512, 1530.968
1294.994, 1543.431
1295.476, 1554.896
1295.958, 1560.276
1296.440, 1561.464
1296.922, 1565.124
1297.405, 1572.487
1297.887, 1577.021
1298.369, 1563.344
1298.851, 1559.270
1299.333, 1568.675
1299.815, 1578.927
1300.297, 1582.148
1300.779, 1578.338
##END=



