##NAMES=Diopside
##RRUFFID=R060085
##IDEAL CHEMISTRY=CaMgSi_2_O_6_
##LOCALITY=Tyrol, Austria
##OWNER=RRUFF
##SOURCE=University of Arizona Mineral Museum
##DESCRIPTION=Brownish-green massive
##STATUS=The identification of this mineral has been confirmed by X-ray diffraction and chemical analysis
##URL=rruff.info/R060085
##MEASURED CHEMISTRY=(Ca_0.97_Na_0.03_)_Σ=1_(Mg_0.79_Fe^2+^_0.10_Fe^3+^_0.04_Al_0.04_Ti_0.02_Cr_0.01_)_Σ=1_(Si_1.90_Al_0.10_)_Σ=2_O_6_
93.74609, 45.87033
94.22821, 43.88179
94.71033, 44.87455
95.19244, 48.35718
95.67456, 52.56211
96.15668, 56.95124
96.63879, 61.55287
97.12091, 66.42796
97.60303, 71.54900
98.08514, 77.16358
98.56726, 83.48180
99.04938, 90.52608
99.53149, 98.35545
100.0136, 106.9818
100.4957, 116.3652
100.9778, 126.4419
101.4600, 137.1329
101.9421, 148.5069
102.4242, 160.4228
102.9063, 172.9519
103.3884, 186.0685
103.8705, 199.8191
104.3527, 214.8508
104.8348, 229.0022
105.3169, 242.1180
105.7990, 254.2264
106.2811, 266.4790
106.7632, 279.0640
107.2454, 291.4870
107.7275, 303.1383
108.2096, 313.4423
108.6917, 323.9886
109.1738, 334.9236
109.6559, 346.3232
110.1381, 358.3049
110.6202, 370.4081
111.1023, 383.3853
111.5844, 397.9716
112.0665, 415.1903
112.5486, 433.2456
113.0308, 451.6909
113.5129, 470.4760
113.9950, 490.4504
114.4771, 512.9484
114.9592, 536.3932
115.4413, 558.8361
115.9235, 579.0834
116.4056, 598.6578
116.8877, 618.0624
117.3698, 638.1006
117.8519, 657.1273
118.3340, 674.4928
118.8162, 690.4345
119.2983, 705.4553
119.7804, 719.7079
120.2625, 733.3676
120.7446, 746.4742
121.2267, 759.2369
121.7089, 771.3562
122.1910, 782.6630
122.6731, 793.1713
123.1552, 802.9472
123.6373, 810.8134
124.1194, 818.2557
124.6016, 827.3214
125.0837, 839.1852
125.5658, 852.3699
126.0479, 865.5090
126.5300, 878.6060
127.0121, 891.7392
127.4943, 904.4362
127.9764, 917.1166
128.4585, 931.1334
128.9406, 947.3421
129.4227, 965.0276
129.9048, 982.9601
130.3869, 1001.176
130.8691, 1019.353
131.3512, 1037.344
131.8333, 1051.634
132.3154, 1059.764
132.7975, 1065.197
133.2796, 1069.764
133.7618, 1075.170
134.2439, 1081.824
134.7260, 1088.519
135.2081, 1092.965
135.6902, 1095.175
136.1723, 1097.334
136.6545, 1100.832
137.1366, 1105.661
137.6187, 1109.785
138.1008, 1113.047
138.5829, 1115.643
139.0650, 1118.292
139.5472, 1121.230
140.0293, 1123.266
140.5114, 1123.403
140.9935, 1121.123
141.4756, 1119.092
141.9577, 1117.405
142.4399, 1116.055
142.9220, 1115.286
143.4041, 1115.356
143.8862, 1115.495
144.3683, 1115.076
144.8504, 1113.676
145.3326, 1112.714
145.8147, 1112.478
146.2968, 1112.946
146.7789, 1113.495
147.2610, 1114.144
147.7431, 1114.924
148.2253, 1115.906
148.7074, 1117.515
149.1895, 1118.772
149.6716, 1119.261
150.1537, 1118.805
150.6358, 1119.154
151.1180, 1120.896
151.6001, 1123.150
152.0822, 1124.970
152.5643, 1126.030
153.0464, 1126.937
153.5285, 1127.902
154.0107, 1129.088
154.4928, 1129.551
154.9749, 1128.647
155.4570, 1127.148
155.9391, 1126.038
156.4212, 1125.870
156.9034, 1125.717
157.3855, 1125.214
157.8676, 1124.147
158.3497, 1123.377
158.8318, 1123.065
159.3139, 1123.183
159.7961, 1123.661
160.2782, 1124.791
160.7603, 1126.080
161.2424, 1127.259
161.7245, 1128.131
162.2066, 1129.272
162.6888, 1130.828
163.1709, 1132.777
163.6530, 1135.079
164.1351, 1138.331
164.6172, 1141.516
165.0993, 1143.857
165.5815, 1144.653
166.0636, 1145.489
166.5457, 1147.277
167.0278, 1149.734
167.5099, 1152.030
167.9921, 1153.806
168.4742, 1155.186
168.9563, 1156.249
169.4384, 1156.798
169.9205, 1157.334
170.4026, 1158.441
170.8848, 1159.948
171.3669, 1161.068
171.8490, 1161.033
172.3311, 1160.478
172.8132, 1160.141
173.2953, 1160.219
173.7775, 1160.662
174.2596, 1161.637
174.7417, 1163.082
175.2238, 1164.439
175.7059, 1165.352
176.1880, 1165.906
176.6702, 1166.173
177.1523, 1165.565
177.6344, 1165.114
178.1165, 1166.448
178.5986, 1169.486
179.0807, 1172.534
179.5629, 1173.982
180.0450, 1174.380
180.5271, 1174.991
181.0092, 1176.255
181.4913, 1177.977
181.9734, 1180.031
182.4556, 1182.421
182.9377, 1184.530
183.4198, 1185.479
183.9019, 1185.577
184.3840, 1185.937
184.8661, 1187.417
185.3483, 1189.364
185.8304, 1190.091
186.3125, 1189.482
186.7946, 1188.603
187.2767, 1188.719
187.7588, 1189.677
188.2409, 1190.537
188.7231, 1190.689
189.2052, 1190.447
189.6873, 1191.095
190.1694, 1192.807
190.6515, 1194.723
191.1336, 1195.647
191.6158, 1195.665
192.0979, 1195.788
192.5800, 1196.510
193.0621, 1197.748
193.5442, 1198.979
194.0263, 1200.251
194.5085, 1201.414
194.9906, 1202.147
195.4727, 1202.440
195.9548, 1202.795
196.4369, 1203.271
196.9190, 1203.883
197.4012, 1205.046
197.8833, 1206.700
198.3654, 1208.989
198.8475, 1212.975
199.3296, 1219.014
199.8117, 1223.024
200.2939, 1222.188
200.7760, 1216.430
201.2581, 1212.398
201.7402, 1210.406
202.2223, 1209.780
202.7044, 1209.366
203.1866, 1209.102
203.6687, 1209.445
204.1508, 1211.194
204.6329, 1214.662
205.1150, 1215.846
205.5971, 1213.904
206.0793, 1210.678
206.5614, 1209.842
207.0435, 1211.879
207.5256, 1214.454
208.0077, 1216.648
208.4898, 1218.459
208.9720, 1219.795
209.4541, 1220.367
209.9362, 1220.708
210.4183, 1222.116
210.9004, 1224.982
211.3825, 1227.684
211.8647, 1229.413
212.3468, 1229.900
212.8289, 1230.514
213.3110, 1231.147
213.7931, 1231.986
214.2752, 1233.621
214.7574, 1236.533
215.2395, 1239.118
215.7216, 1240.444
216.2037, 1239.896
216.6858, 1240.508
217.1679, 1242.931
217.6501, 1246.179
218.1322, 1247.664
218.6143, 1246.452
219.0964, 1245.471
219.5785, 1246.317
220.0606, 1250.018
220.5428, 1252.204
221.0249, 1252.184
221.5070, 1250.948
221.9891, 1250.875
222.4712, 1252.405
222.9533, 1254.268
223.4355, 1255.888
223.9176, 1257.172
224.3997, 1258.529
224.8818, 1260.024
225.3639, 1261.562
225.8460, 1262.931
226.3282, 1263.972
226.8103, 1265.113
227.2924, 1266.645
227.7745, 1269.110
228.2566, 1270.503
228.7387, 1270.286
229.2209, 1269.240
229.7030, 1269.255
230.1851, 1271.030
230.6672, 1272.771
231.1493, 1273.663
231.6314, 1273.201
232.1136, 1273.367
232.5957, 1274.646
233.0778, 1276.355
233.5599, 1276.872
234.0420, 1275.479
234.5241, 1274.045
235.0063, 1273.268
235.4884, 1273.250
235.9705, 1273.635
236.4526, 1274.828
236.9347, 1276.223
237.4168, 1276.376
237.8990, 1274.019
238.3811, 1272.417
238.8632, 1273.120
239.3453, 1277.408
239.8274, 1280.033
240.3095, 1280.309
240.7917, 1279.301
241.2738, 1279.010
241.7559, 1279.771
242.2380, 1280.724
242.7201, 1281.597
243.2022, 1282.397
243.6844, 1283.156
244.1665, 1283.882
244.6486, 1284.594
245.1307, 1285.283
245.6128, 1285.829
246.0949, 1286.578
246.5771, 1287.756
247.0592, 1289.615
247.5413, 1290.822
248.0234, 1290.984
248.5055, 1290.729
248.9876, 1291.031
249.4697, 1292.094
249.9519, 1293.315
250.4340, 1294.568
250.9161, 1295.899
251.3982, 1297.023
251.8803, 1297.872
252.3624, 1298.576
252.8446, 1299.256
253.3267, 1299.794
253.8088, 1300.596
254.2909, 1301.895
254.7730, 1303.824
255.2551, 1305.337
255.7373, 1306.378
256.2194, 1307.066
256.7015, 1307.448
257.1836, 1307.262
257.6657, 1307.305
258.1479, 1307.844
258.6300, 1308.902
259.1121, 1309.657
259.5942, 1310.039
260.0763, 1310.148
260.5584, 1310.044
261.0406, 1309.573
261.5227, 1309.282
262.0048, 1309.414
262.4869, 1309.959
262.9690, 1309.994
263.4511, 1309.230
263.9333, 1308.421
264.4154, 1308.373
264.8975, 1309.435
265.3796, 1310.286
265.8617, 1310.713
266.3438, 1310.751
266.8260, 1310.591
267.3081, 1310.118
267.7902, 1309.701
268.2723, 1309.702
268.7544, 1310.243
269.2365, 1310.708
269.7187, 1310.786
270.2008, 1310.702
270.6829, 1311.895
271.1650, 1314.812
271.6471, 1317.905
272.1292, 1319.851
272.6114, 1320.411
273.0935, 1321.091
273.5756, 1322.036
274.0577, 1323.192
274.5398, 1324.385
275.0219, 1325.514
275.5041, 1326.883
275.9862, 1328.625
276.4683, 1330.707
276.9504, 1333.604
277.4325, 1338.093
277.9146, 1342.759
278.3968, 1343.320
278.8788, 1338.989
279.3610, 1334.691
279.8431, 1333.553
280.3252, 1335.721
280.8073, 1338.015
281.2894, 1340.609
281.7715, 1342.807
282.2537, 1342.747
282.7358, 1340.189
283.2179, 1338.010
283.7000, 1337.764
284.1821, 1339.379
284.6642, 1341.305
285.1464, 1343.670
285.6285, 1345.884
286.1106, 1346.488
286.5927, 1345.441
287.0748, 1345.389
287.5569, 1348.537
288.0391, 1354.120
288.5212, 1356.422
289.0033, 1354.866
289.4854, 1352.542
289.9675, 1353.798
290.4496, 1358.308
290.9318, 1362.144
291.4139, 1363.600
291.8960, 1363.354
292.3781, 1363.615
292.8602, 1364.446
293.3423, 1365.337
293.8245, 1365.498
294.3066, 1365.172
294.7887, 1365.539
295.2708, 1367.276
295.7529, 1369.738
296.2350, 1371.674
296.7172, 1373.068
297.1993, 1374.048
297.6814, 1374.368
298.1635, 1374.326
298.6456, 1374.792
299.1277, 1376.072
299.6099, 1377.879
300.0920, 1380.049
300.5741, 1382.521
301.0562, 1384.538
301.5383, 1385.458
302.0204, 1385.619
302.5026, 1385.340
302.9847, 1384.104
303.4668, 1383.685
303.9489, 1387.104
304.4310, 1393.353
304.9131, 1398.957
305.3953, 1401.108
305.8774, 1401.588
306.3595, 1402.659
306.8416, 1404.707
307.3237, 1406.932
307.8058, 1408.488
308.2880, 1409.643
308.7701, 1411.016
309.2522, 1412.912
309.7343, 1415.177
310.2164, 1417.786
310.6985, 1420.814
311.1807, 1423.807
311.6628, 1426.791
312.1449, 1429.548
312.6270, 1431.648
313.1091, 1432.264
313.5912, 1432.746
314.0734, 1433.802
314.5555, 1435.472
315.0376, 1437.877
315.5197, 1441.623
316.0018, 1445.949
316.4839, 1449.967
316.9661, 1452.996
317.4482, 1456.045
317.9303, 1459.427
318.4124, 1463.115
318.8945, 1467.162
319.3766, 1471.761
319.8588, 1476.566
320.3409, 1481.295
320.8230, 1486.295
321.3051, 1490.706
321.7872, 1494.333
322.2693, 1497.198
322.7515, 1499.366
323.2336, 1499.651
323.7157, 1500.153
324.1978, 1502.220
324.6799, 1507.919
325.1620, 1511.369
325.6442, 1510.646
326.1263, 1507.344
326.6084, 1504.276
327.0905, 1501.282
327.5726, 1498.981
328.0547, 1498.001
328.5369, 1499.376
329.0190, 1498.756
329.5011, 1494.657
329.9832, 1489.205
330.4653, 1484.786
330.9474, 1482.102
331.4296, 1479.622
331.9117, 1477.256
332.3938, 1475.062
332.8759, 1472.187
333.3580, 1467.878
333.8401, 1463.584
334.3223, 1460.574
334.8044, 1459.538
335.2865, 1458.310
335.7686, 1456.437
336.2507, 1454.106
336.7328, 1452.523
337.2150, 1451.857
337.6971, 1451.538
338.1792, 1451.271
338.6613, 1451.094
339.1434, 1450.685
339.6255, 1449.903
340.1077, 1448.951
340.5898, 1448.236
341.0719, 1447.758
341.5540, 1447.574
342.0361, 1447.964
342.5182, 1448.994
343.0004, 1449.080
343.4825, 1447.918
343.9646, 1446.607
344.4467, 1446.999
344.9288, 1449.117
345.4109, 1450.988
345.8931, 1451.949
346.3752, 1452.119
346.8573, 1451.635
347.3394, 1450.384
347.8215, 1449.376
348.3036, 1449.857
348.7858, 1451.523
349.2679, 1452.922
349.7500, 1453.512
350.2321, 1453.777
350.7142, 1454.526
351.1964, 1455.730
351.6785, 1457.232
352.1606, 1459.283
352.6427, 1461.483
353.1248, 1463.015
353.6069, 1463.641
354.0891, 1463.964
354.5712, 1464.762
355.0533, 1465.836
355.5354, 1466.610
356.0175, 1466.144
356.4996, 1465.558
356.9818, 1466.279
357.4639, 1468.571
357.9460, 1470.824
358.4281, 1472.113
358.9102, 1472.599
359.3923, 1472.489
359.8745, 1470.737
360.3566, 1469.296
360.8387, 1469.620
361.3208, 1471.596
361.8029, 1473.623
362.2850, 1475.174
362.7672, 1476.342
363.2493, 1477.191
363.7314, 1477.370
364.2135, 1477.668
364.6956, 1478.245
365.1777, 1479.115
365.6599, 1480.323
366.1420, 1482.278
366.6241, 1484.281
367.1062, 1486.008
367.5883, 1487.484
368.0704, 1488.589
368.5526, 1488.603
369.0347, 1488.376
369.5168, 1489.228
369.9989, 1492.557
370.4810, 1495.532
370.9631, 1497.434
371.4453, 1498.095
371.9274, 1498.906
372.4095, 1500.187
372.8916, 1501.316
373.3737, 1501.675
373.8558, 1500.652
374.3380, 1500.087
374.8201, 1500.336
375.3022, 1501.259
375.7843, 1502.067
376.2664, 1502.806
376.7485, 1503.403
377.2307, 1503.665
377.7128, 1503.447
378.1949, 1504.000
378.6770, 1505.547
379.1591, 1507.742
379.6412, 1510.075
380.1234, 1512.645
380.6055, 1514.793
381.0876, 1515.718
381.5697, 1515.784
382.0518, 1517.897
382.5339, 1522.351
383.0161, 1527.067
383.4982, 1529.194
383.9803, 1529.280
384.4624, 1530.240
384.9445, 1533.078
385.4266, 1537.040
385.9088, 1541.214
386.3909, 1545.506
386.8730, 1549.323
387.3551, 1551.682
387.8372, 1553.407
388.3193, 1556.135
388.8015, 1560.458
389.2836, 1564.845
389.7657, 1567.771
390.2478, 1569.679
390.7299, 1571.520
391.2120, 1574.555
391.6942, 1577.243
392.1763, 1578.252
392.6584, 1577.460
393.1405, 1575.786
393.6226, 1573.250
394.1047, 1570.278
394.5869, 1567.357
395.0690, 1564.699
395.5511, 1562.068
396.0332, 1559.601
396.5153, 1557.188
396.9974, 1554.212
397.4796, 1550.114
397.9617, 1545.700
398.4438, 1541.338
398.9259, 1536.738
399.4080, 1532.782
399.8901, 1529.816
400.3723, 1527.509
400.8544, 1525.278
401.3365, 1523.118
401.8186, 1521.037
402.3007, 1519.013
402.7828, 1517.030
403.2649, 1515.265
403.7470, 1513.698
404.2292, 1512.353
404.7113, 1511.210
405.1934, 1510.107
405.6755, 1509.670
406.1576, 1510.244
406.6397, 1511.446
407.1219, 1511.797
407.6040, 1511.047
408.0861, 1510.350
408.5682, 1510.492
409.0503, 1511.438
409.5324, 1512.049
410.0146, 1512.227
410.4967, 1512.164
410.9788, 1512.203
411.4609, 1512.307
411.9430, 1512.069
412.4251, 1510.596
412.9073, 1508.983
413.3894, 1510.474
413.8715, 1515.001
414.3536, 1518.800
414.8357, 1517.730
415.3178, 1513.979
415.8000, 1511.755
416.2821, 1512.442
416.7642, 1514.038
417.2463, 1515.066
417.7284, 1515.535
418.2105, 1515.428
418.6927, 1514.395
419.1748, 1513.030
419.6569, 1511.560
420.1390, 1509.925
420.6211, 1508.970
421.1032, 1509.104
421.5854, 1510.104
422.0675, 1511.722
422.5496, 1515.144
423.0317, 1517.906
423.5138, 1518.938
423.9959, 1518.512
424.4781, 1518.471
424.9602, 1519.526
425.4423, 1520.684
425.9244, 1521.451
426.4065, 1521.515
426.8886, 1521.672
427.3708, 1521.640
427.8529, 1521.791
428.3350, 1522.790
428.8171, 1525.163
429.2992, 1527.407
429.7813, 1529.233
430.2635, 1530.628
430.7456, 1531.207
431.2277, 1530.566
431.7098, 1529.984
432.1919, 1530.803
432.6740, 1533.205
433.1562, 1534.768
433.6383, 1535.105
434.1204, 1534.602
434.6025, 1533.760
435.0846, 1532.593
435.5667, 1531.796
436.0489, 1532.035
436.5310, 1532.926
437.0131, 1533.206
437.4952, 1532.828
437.9773, 1532.333
438.4594, 1532.045
438.9416, 1532.060
439.4237, 1532.645
439.9058, 1534.396
440.3879, 1536.149
440.8700, 1536.765
441.3521, 1536.449
441.8343, 1535.894
442.3164, 1534.839
442.7985, 1534.109
443.2806, 1534.516
443.7627, 1536.421
444.2448, 1538.273
444.7270, 1539.475
445.2091, 1540.216
445.6912, 1540.709
446.1733, 1540.936
446.6554, 1540.938
447.1375, 1540.341
447.6197, 1539.252
448.1018, 1539.051
448.5839, 1540.443
449.0660, 1542.222
449.5481, 1543.879
450.0302, 1545.660
450.5124, 1546.847
450.9945, 1547.238
451.4766, 1547.201
451.9587, 1547.217
452.4408, 1547.108
452.9229, 1547.690
453.4051, 1549.601
453.8872, 1552.549
454.3693, 1553.944
454.8514, 1553.510
455.3335, 1552.766
455.8156, 1552.866
456.2978, 1553.752
456.7799, 1555.006
457.2620, 1556.676
457.7441, 1558.386
458.2262, 1559.481
458.7083, 1560.069
459.1905, 1560.763
459.6726, 1562.236
460.1547, 1563.789
460.6368, 1564.190
461.1189, 1563.471
461.6010, 1562.919
462.0832, 1563.792
462.5653, 1565.208
463.0474, 1566.169
463.5295, 1566.407
464.0116, 1566.242
464.4937, 1565.452
464.9759, 1564.429
465.4580, 1563.978
465.9401, 1564.604
466.4222, 1565.685
466.9043, 1567.336
467.3864, 1569.789
467.8686, 1571.091
468.3507, 1569.713
468.8328, 1567.926
469.3149, 1567.401
469.7970, 1569.199
470.2791, 1570.430
470.7613, 1570.585
471.2434, 1570.100
471.7255, 1570.208
472.2076, 1571.081
472.6897, 1572.051
473.1718, 1572.864
473.6540, 1573.511
474.1361, 1574.297
474.6182, 1575.288
475.1003, 1576.212
475.5824, 1576.943
476.0645, 1577.453
476.5467, 1577.237
477.0288, 1575.912
477.5109, 1574.360
477.9930, 1574.030
478.4751, 1574.767
478.9572, 1575.811
479.4394, 1577.274
479.9215, 1578.533
480.4036, 1578.288
480.8857, 1576.423
481.3678, 1575.245
481.8499, 1577.034
482.3321, 1580.052
482.8142, 1582.320
483.2963, 1582.739
483.7784, 1583.036
484.2605, 1584.269
484.7426, 1585.896
485.2248, 1586.562
485.7069, 1584.158
486.1890, 1582.387
486.6711, 1583.101
487.1532, 1587.275
487.6353, 1589.526
488.1175, 1588.543
488.5996, 1586.760
489.0817, 1586.159
489.5638, 1587.389
490.0459, 1588.184
490.5280, 1588.097
491.0102, 1587.583
491.4923, 1588.016
491.9744, 1589.675
492.4565, 1590.776
492.9386, 1590.194
493.4207, 1588.258
493.9029, 1587.279
494.3850, 1587.303
494.8671, 1587.726
495.3492, 1587.922
495.8313, 1588.075
496.3134, 1588.840
496.7956, 1590.665
497.2777, 1592.461
497.7598, 1592.829
498.2419, 1592.217
498.7240, 1591.713
499.2061, 1591.898
499.6883, 1592.367
500.1704, 1592.710
500.6525, 1592.929
501.1346, 1593.650
501.6167, 1595.414
502.0988, 1597.593
502.5810, 1599.735
503.0631, 1601.867
503.5452, 1603.819
504.0273, 1605.342
504.5094, 1606.691
504.9915, 1608.282
505.4737, 1610.298
505.9558, 1612.238
506.4379, 1613.951
506.9200, 1615.438
507.4021, 1616.919
507.8842, 1618.539
508.3664, 1619.813
508.8485, 1620.112
509.3306, 1619.392
509.8127, 1619.676
510.2948, 1621.279
510.7769, 1623.367
511.2591, 1624.913
511.7412, 1625.924
512.2233, 1626.365
512.7054, 1625.790
513.1875, 1625.018
513.6696, 1625.569
514.1517, 1627.190
514.6339, 1628.452
515.1160, 1628.294
515.5981, 1627.461
516.0802, 1626.559
516.5623, 1625.634
517.0444, 1624.914
517.5266, 1624.787
518.0087, 1624.822
518.4908, 1624.551
518.9729, 1623.266
519.4550, 1622.342
519.9371, 1622.568
520.4193, 1623.518
520.9014, 1623.324
521.3835, 1620.711
521.8656, 1618.609
522.3477, 1618.256
522.8298, 1619.936
523.3120, 1621.088
523.7941, 1621.617
524.2762, 1621.770
524.7583, 1621.382
525.2404, 1620.391
525.7225, 1620.974
526.2047, 1624.016
526.6868, 1627.701
527.1689, 1628.368
527.6510, 1626.463
528.1331, 1624.893
528.6152, 1625.615
529.0974, 1627.222
529.5795, 1627.634
530.0616, 1626.924
530.5437, 1626.139
531.0258, 1625.993
531.5079, 1626.099
531.9901, 1626.060
532.4722, 1625.709
532.9543, 1625.515
533.4364, 1625.883
533.9185, 1626.465
534.4006, 1626.793
534.8828, 1626.114
535.3649, 1625.912
535.8470, 1626.732
536.3291, 1628.362
536.8112, 1629.598
537.2933, 1630.303
537.7755, 1630.804
538.2576, 1631.252
538.7397, 1631.672
539.2218, 1631.666
539.7039, 1631.057
540.1860, 1630.471
540.6682, 1630.650
541.1503, 1631.534
541.6324, 1632.658
542.1145, 1634.139
542.5966, 1635.414
543.0787, 1635.203
543.5609, 1633.925
544.0430, 1633.120
544.5251, 1634.268
545.0072, 1635.848
545.4893, 1636.266
545.9714, 1635.556
546.4536, 1634.668
546.9357, 1633.918
547.4178, 1633.300
547.8999, 1632.743
548.3820, 1631.994
548.8641, 1631.832
549.3463, 1632.855
549.8284, 1634.371
550.3105, 1635.521
550.7926, 1636.782
551.2747, 1636.807
551.7568, 1634.487
552.2390, 1630.786
552.7211, 1630.213
553.2032, 1633.858
553.6853, 1637.303
554.1674, 1638.298
554.6495, 1637.021
555.1317, 1635.910
555.6138, 1635.036
556.0959, 1634.101
556.5780, 1632.690
557.0601, 1631.011
557.5422, 1629.527
558.0244, 1628.210
558.5065, 1627.464
558.9886, 1628.115
559.4707, 1629.617
559.9528, 1630.867
560.4349, 1630.719
560.9171, 1630.795
561.3992, 1632.348
561.8813, 1635.106
562.3634, 1637.127
562.8455, 1637.059
563.3276, 1636.806
563.8098, 1637.313
564.2919, 1638.795
564.7740, 1640.309
565.2561, 1642.126
565.7382, 1643.667
566.2203, 1644.277
566.7025, 1643.667
567.1846, 1643.278
567.6667, 1643.340
568.1488, 1643.646
568.6309, 1643.839
569.1130, 1643.924
569.5952, 1643.832
570.0773, 1643.303
570.5594, 1642.723
571.0415, 1642.994
571.5236, 1644.034
572.0057, 1644.936
572.4879, 1645.037
572.9700, 1644.743
573.4521, 1644.362
573.9342, 1643.865
574.4163, 1643.721
574.8984, 1644.647
575.3806, 1645.797
575.8627, 1646.318
576.3448, 1645.272
576.8269, 1644.475
577.3090, 1643.978
577.7911, 1643.853
578.2733, 1644.426
578.7554, 1646.319
579.2375, 1647.589
579.7196, 1647.527
580.2017, 1646.264
580.6838, 1644.895
581.1660, 1643.329
581.6481, 1642.215
582.1302, 1642.111
582.6123, 1642.896
583.0944, 1644.355
583.5765, 1646.614
584.0587, 1648.421
584.5408, 1647.814
585.0229, 1646.025
585.5050, 1645.295
585.9871, 1647.367
586.4692, 1648.976
586.9514, 1646.960
587.4335, 1643.130
587.9156, 1641.284
588.3977, 1644.270
588.8798, 1647.744
589.3619, 1650.860
589.8441, 1653.502
590.3262, 1653.879
590.8083, 1649.871
591.2904, 1646.319
591.7725, 1645.876
592.2546, 1649.187
592.7368, 1651.809
593.2189, 1653.708
593.7010, 1654.986
594.1831, 1655.486
594.6652, 1655.324
595.1473, 1655.502
595.6295, 1656.278
596.1116, 1657.299
596.5937, 1658.159
597.0758, 1658.891
597.5579, 1659.589
598.0400, 1660.183
598.5222, 1660.830
599.0043, 1661.769
599.4864, 1662.900
599.9685, 1663.750
600.4506, 1663.173
600.9327, 1663.051
601.4149, 1664.761
601.8970, 1669.237
602.3791, 1671.739
602.8612, 1671.409
603.3433, 1669.947
603.8254, 1668.509
604.3076, 1666.996
604.7897, 1665.888
605.2718, 1665.201
605.7539, 1664.970
606.2360, 1665.495
606.7181, 1666.706
607.2003, 1667.586
607.6824, 1667.649
608.1645, 1667.469
608.6466, 1667.871
609.1287, 1668.803
609.6108, 1670.043
610.0930, 1671.804
610.5751, 1673.554
611.0572, 1674.831
611.5393, 1675.610
612.0214, 1676.394
612.5035, 1677.428
612.9857, 1678.448
613.4678, 1679.279
613.9499, 1679.742
614.4320, 1680.315
614.9141, 1680.922
615.3962, 1681.696
615.8784, 1682.958
616.3605, 1685.010
616.8426, 1686.136
617.3247, 1685.859
617.8068, 1684.929
618.2889, 1684.887
618.7711, 1685.631
619.2532, 1686.239
619.7353, 1686.219
620.2174, 1685.959
620.6995, 1685.920
621.1816, 1686.119
621.6638, 1686.616
622.1459, 1687.660
622.6280, 1688.866
623.1101, 1689.981
623.5922, 1690.975
624.0743, 1691.930
624.5565, 1692.908
625.0386, 1693.819
625.5207, 1694.572
626.0028, 1694.952
626.4849, 1695.588
626.9670, 1696.396
627.4492, 1697.542
627.9313, 1699.354
628.4134, 1701.901
628.8955, 1704.400
629.3776, 1706.722
629.8597, 1708.796
630.3419, 1710.554
630.8240, 1711.978
631.3061, 1713.018
631.7882, 1713.875
632.2703, 1714.183
632.7524, 1712.936
633.2346, 1710.547
633.7167, 1709.060
634.1988, 1710.279
634.6809, 1712.110
635.1630, 1713.408
635.6451, 1714.017
636.1273, 1714.588
636.6094, 1714.724
637.0915, 1715.292
637.5736, 1717.008
638.0557, 1720.586
638.5378, 1723.167
639.0200, 1724.560
639.5021, 1725.224
639.9842, 1725.308
640.4663, 1724.899
640.9484, 1725.592
641.4305, 1727.875
641.9127, 1731.098
642.3948, 1734.536
642.8769, 1738.166
643.3590, 1742.049
643.8411, 1747.219
644.3232, 1751.750
644.8054, 1753.787
645.2875, 1753.823
645.7696, 1754.513
646.2517, 1757.312
646.7338, 1760.342
647.2159, 1762.778
647.6981, 1764.597
648.1802, 1766.340
648.6623, 1767.776
649.1444, 1769.582
649.6265, 1772.471
650.1086, 1776.598
650.5908, 1779.837
651.0729, 1781.984
651.5550, 1784.011
652.0371, 1786.966
652.5192, 1790.754
653.0013, 1794.878
653.4835, 1799.185
653.9656, 1803.996
654.4477, 1809.815
654.9298, 1816.229
655.4119, 1822.625
655.8940, 1828.086
656.3762, 1834.164
656.8583, 1842.175
657.3404, 1851.280
657.8225, 1858.453
658.3046, 1861.721
658.7867, 1865.587
659.2689, 1871.405
659.7510, 1878.961
660.2331, 1886.375
660.7152, 1893.532
661.1973, 1900.928
661.6794, 1909.435
662.1616, 1918.471
662.6437, 1925.833
663.1258, 1931.449
663.6079, 1936.131
664.0900, 1940.477
664.5721, 1944.349
665.0543, 1947.840
665.5364, 1951.293
666.0185, 1953.302
666.5006, 1953.037
666.9827, 1951.203
667.4648, 1948.524
667.9470, 1945.549
668.4291, 1941.099
668.9112, 1934.722
669.3933, 1927.059
669.8754, 1919.083
670.3575, 1910.520
670.8397, 1902.838
671.3218, 1896.721
671.8039, 1891.328
672.2860, 1884.343
672.7681, 1876.127
673.2502, 1868.356
673.7324, 1862.566
674.2145, 1857.229
674.6966, 1849.914
675.1787, 1841.156
675.6608, 1834.238
676.1429, 1832.690
676.6251, 1831.904
677.1072, 1829.264
677.5893, 1824.237
678.0714, 1819.399
678.5535, 1814.468
679.0356, 1810.152
679.5178, 1807.166
679.9999, 1805.912
680.4820, 1803.495
680.9641, 1799.438
681.4462, 1795.674
681.9283, 1794.976
682.4105, 1796.499
682.8926, 1796.668
683.3747, 1794.613
683.8568, 1791.939
684.3389, 1790.010
684.8210, 1788.534
685.3032, 1786.994
685.7853, 1784.444
686.2674, 1782.730
686.7495, 1783.127
687.2316, 1784.720
687.7137, 1785.400
688.1959, 1784.483
688.6780, 1783.487
689.1601, 1782.677
689.6422, 1781.969
690.1243, 1780.893
690.6064, 1779.292
691.0886, 1778.354
691.5707, 1779.173
692.0528, 1780.876
692.5349, 1781.140
693.0170, 1780.118
693.4991, 1779.045
693.9813, 1778.830
694.4634, 1778.912
694.9455, 1778.973
695.4276, 1779.009
695.9097, 1778.446
696.3918, 1776.168
696.8740, 1773.946
697.3561, 1772.858
697.8382, 1773.081
698.3203, 1773.890
698.8024, 1775.472
699.2845, 1777.287
699.7667, 1779.028
700.2488, 1780.675
700.7309, 1781.050
701.2130, 1779.714
701.6951, 1778.291
702.1772, 1779.100
702.6594, 1781.310
703.1415, 1783.152
703.6236, 1784.335
704.1057, 1784.701
704.5878, 1783.944
705.0699, 1782.385
705.5521, 1780.529
706.0342, 1777.541
706.5163, 1775.465
706.9984, 1774.735
707.4805, 1775.086
707.9626, 1775.955
708.4448, 1777.513
708.9269, 1778.939
709.4090, 1779.948
709.8911, 1780.610
710.3732, 1781.268
710.8553, 1781.861
711.3374, 1781.873
711.8195, 1780.299
712.3016, 1778.435
712.7838, 1777.679
713.2659, 1778.016
713.7480, 1779.022
714.2301, 1781.568
714.7122, 1783.853
715.1943, 1784.808
715.6765, 1784.154
716.1586, 1783.671
716.6407, 1783.272
717.1228, 1783.172
717.6049, 1783.581
718.0870, 1784.551
718.5692, 1785.463
719.0513, 1786.386
719.5334, 1786.787
720.0155, 1785.613
720.4976, 1783.639
720.9797, 1782.722
721.4619, 1783.286
721.9440, 1783.930
722.4261, 1783.486
722.9082, 1782.680
723.3903, 1782.290
723.8724, 1783.031
724.3546, 1783.265
724.8367, 1781.664
725.3188, 1780.106
725.8009, 1781.029
726.2830, 1785.651
726.7651, 1788.533
727.2473, 1788.810
727.7294, 1787.442
728.2115, 1785.274
728.6936, 1782.634
729.1757, 1781.629
729.6578, 1783.600
730.1400, 1786.398
730.6221, 1788.139
731.1042, 1789.021
731.5863, 1789.419
732.0684, 1789.498
732.5505, 1789.143
733.0327, 1787.920
733.5148, 1786.200
733.9969, 1785.345
734.4790, 1785.569
734.9611, 1786.348
735.4432, 1787.660
735.9254, 1789.390
736.4075, 1791.104
736.8896, 1792.790
737.3717, 1794.368
737.8538, 1796.163
738.3359, 1797.588
738.8181, 1797.096
739.3002, 1795.057
739.7823, 1793.837
740.2644, 1795.251
740.7465, 1797.372
741.2286, 1799.211
741.7108, 1800.661
742.1929, 1801.782
742.6750, 1802.834
743.1571, 1803.248
743.6392, 1802.511
744.1213, 1800.575
744.6035, 1799.656
745.0856, 1799.907
745.5677, 1800.343
746.0498, 1799.922
746.5319, 1799.162
747.0140, 1799.360
747.4962, 1800.677
747.9783, 1801.889
748.4604, 1802.565
748.9425, 1802.545
749.4246, 1801.370
749.9067, 1798.135
750.3889, 1796.424
750.8710, 1797.773
751.3531, 1799.772
751.8352, 1800.487
752.3173, 1799.409
752.7994, 1799.307
753.2816, 1800.436
753.7637, 1802.043
754.2458, 1803.658
754.7279, 1805.056
755.2100, 1805.547
755.6921, 1804.886
756.1743, 1803.712
756.6564, 1801.752
757.1385, 1799.928
757.6206, 1799.466
758.1027, 1802.695
758.5848, 1804.297
759.0670, 1802.514
759.5491, 1799.307
760.0312, 1796.755
760.5133, 1794.809
760.9954, 1793.976
761.4775, 1794.510
761.9597, 1795.867
762.4418, 1797.611
762.9239, 1799.513
763.4060, 1800.421
763.8881, 1799.508
764.3702, 1798.352
764.8524, 1798.052
765.3345, 1798.548
765.8166, 1799.759
766.2987, 1802.935
766.7808, 1805.254
767.2629, 1805.662
767.7451, 1804.879
768.2272, 1804.061
768.7093, 1802.872
769.1914, 1802.962
769.6735, 1805.190
770.1556, 1808.360
770.6378, 1809.890
771.1199, 1809.989
771.6020, 1809.663
772.0841, 1809.233
772.5662, 1808.719
773.0483, 1807.725
773.5305, 1806.662
774.0126, 1806.562
774.4947, 1808.868
774.9768, 1810.975
775.4589, 1812.086
775.9410, 1812.403
776.4232, 1812.602
776.9053, 1812.664
777.3874, 1812.619
777.8695, 1812.419
778.3516, 1812.145
778.8337, 1811.740
779.3159, 1811.343
779.7980, 1811.798
780.2801, 1814.961
780.7622, 1818.064
781.2443, 1818.099
781.7264, 1815.819
782.2086, 1814.401
782.6907, 1816.213
783.1728, 1817.505
783.6549, 1816.469
784.1370, 1813.726
784.6191, 1813.425
785.1013, 1816.282
785.5834, 1818.535
786.0655, 1818.076
786.5476, 1815.948
787.0297, 1815.033
787.5118, 1815.249
787.9940, 1816.057
788.4761, 1818.236
788.9582, 1820.003
789.4403, 1819.450
789.9224, 1816.868
790.4045, 1814.994
790.8867, 1813.857
791.3688, 1814.246
791.8509, 1817.176
792.3330, 1822.227
792.8151, 1824.239
793.2972, 1822.735
793.7794, 1821.023
794.2615, 1821.064
794.7436, 1822.183
795.2257, 1822.744
795.7078, 1822.833
796.1899, 1822.920
796.6721, 1823.886
797.1542, 1824.481
797.6363, 1823.711
798.1184, 1821.603
798.6005, 1819.528
799.0826, 1817.003
799.5648, 1815.482
800.0469, 1815.827
800.5290, 1817.826
801.0111, 1819.033
801.4932, 1819.382
801.9753, 1819.832
802.4575, 1821.143
802.9396, 1822.855
803.4217, 1824.355
803.9038, 1825.575
804.3859, 1826.273
804.8680, 1825.535
805.3502, 1824.892
805.8323, 1825.199
806.3144, 1826.517
806.7965, 1827.979
807.2786, 1829.841
807.7607, 1831.254
808.2429, 1831.696
808.7250, 1831.342
809.2071, 1831.370
809.6892, 1831.768
810.1713, 1831.943
810.6534, 1831.245
811.1356, 1830.336
811.6177, 1830.039
812.0998, 1830.315
812.5819, 1830.552
813.0640, 1830.305
813.5461, 1830.246
814.0283, 1830.843
814.5104, 1832.033
814.9925, 1832.623
815.4746, 1832.211
815.9567, 1832.623
816.4388, 1835.312
816.9210, 1839.318
817.4031, 1841.253
817.8852, 1841.364
818.3673, 1841.615
818.8494, 1843.388
819.3315, 1845.530
819.8137, 1847.350
820.2958, 1848.766
820.7779, 1849.596
821.2600, 1849.145
821.7421, 1848.794
822.2242, 1848.880
822.7064, 1849.395
823.1885, 1850.527
823.6706, 1852.361
824.1527, 1853.836
824.6348, 1854.632
825.1169, 1854.649
825.5991, 1853.327
826.0812, 1851.016
826.5633, 1848.895
827.0454, 1847.354
827.5275, 1846.366
828.0096, 1845.848
828.4918, 1845.882
828.9739, 1846.845
829.4560, 1849.633
829.9381, 1851.290
830.4202, 1850.398
830.9023, 1848.099
831.3845, 1847.880
831.8666, 1849.527
832.3487, 1851.479
832.8308, 1853.229
833.3129, 1854.706
833.7950, 1855.868
834.2772, 1856.714
834.7593, 1857.234
835.2414, 1857.251
835.7235, 1857.138
836.2056, 1856.624
836.6877, 1856.156
837.1699, 1857.137
837.6520, 1859.798
838.1341, 1862.017
838.6162, 1863.098
839.0983, 1863.543
839.5804, 1864.062
840.0626, 1864.635
840.5447, 1865.250
841.0268, 1865.994
841.5089, 1866.626
841.9910, 1866.818
842.4731, 1866.858
842.9553, 1867.382
843.4374, 1869.058
843.9195, 1869.881
844.4016, 1869.353
844.8837, 1868.266
845.3658, 1868.301
845.8480, 1869.205
846.3301, 1869.054
846.8122, 1866.951
847.2943, 1864.959
847.7764, 1865.150
848.2585, 1866.698
848.7407, 1868.441
849.2228, 1870.440
849.7049, 1872.062
850.1870, 1872.820
850.6691, 1873.467
851.1512, 1874.913
851.6334, 1877.268
852.1155, 1879.111
852.5976, 1880.083
853.0797, 1881.178
853.5618, 1884.018
854.0439, 1887.638
854.5261, 1890.339
855.0082, 1891.675
855.4903, 1892.365
855.9724, 1891.446
856.4545, 1890.876
856.9366, 1892.781
857.4188, 1898.902
857.9009, 1901.649
858.3830, 1900.060
858.8651, 1897.597
859.3472, 1897.556
859.8293, 1899.254
860.3115, 1899.561
860.7936, 1898.302
861.2757, 1897.557
861.7578, 1899.746
862.2399, 1902.452
862.7220, 1903.517
863.2042, 1902.455
863.6863, 1901.984
864.1684, 1902.650
864.6505, 1903.397
865.1326, 1903.664
865.6147, 1903.478
866.0969, 1903.137
866.5790, 1902.622
867.0611, 1902.852
867.5432, 1905.114
868.0253, 1908.014
868.5074, 1910.536
868.9896, 1912.456
869.4717, 1912.675
869.9538, 1908.676
870.4359, 1905.252
870.9180, 1904.039
871.4001, 1904.754
871.8823, 1906.289
872.3644, 1908.817
872.8465, 1910.964
873.3286, 1912.310
873.8107, 1912.887
874.2928, 1911.853
874.7750, 1910.046
875.2571, 1909.847
875.7392, 1915.248
876.2213, 1919.173
876.7034, 1917.181
877.1855, 1911.958
877.6677, 1909.400
878.1498, 1910.111
878.6319, 1911.979
879.1140, 1915.109
879.5961, 1918.411
880.0782, 1919.959
880.5604, 1920.188
881.0425, 1920.578
881.5246, 1921.699
882.0067, 1922.554
882.4888, 1921.967
882.9709, 1920.964
883.4531, 1920.731
883.9352, 1921.855
884.4173, 1923.077
884.8994, 1924.578
885.3815, 1925.899
885.8636, 1926.538
886.3458, 1926.553
886.8279, 1926.133
887.3100, 1925.256
887.7921, 1924.752
888.2742, 1925.564
888.7563, 1926.930
889.2385, 1928.171
889.7206, 1929.211
890.2027, 1930.036
890.6848, 1930.361
891.1669, 1930.837
891.6490, 1932.028
892.1312, 1933.805
892.6133, 1933.912
893.0954, 1932.348
893.5775, 1931.164
894.0596, 1931.918
894.5417, 1933.618
895.0239, 1935.665
895.5060, 1937.813
895.9881, 1938.996
896.4702, 1938.079
896.9523, 1937.063
897.4344, 1936.571
897.9166, 1936.399
898.3987, 1935.698
898.8808, 1934.391
899.3629, 1933.852
899.8450, 1934.871
900.3271, 1936.302
900.8093, 1936.445
901.2914, 1935.812
901.7735, 1935.432
902.2556, 1935.432
902.7377, 1936.064
903.2198, 1938.112
903.7020, 1940.447
904.1841, 1941.641
904.6662, 1941.356
905.1483, 1941.748
905.6304, 1943.170
906.1125, 1944.683
906.5947, 1944.730
907.0768, 1944.232
907.5589, 1945.021
908.0410, 1947.538
908.5231, 1950.067
909.0052, 1952.275
909.4874, 1953.766
909.9695, 1954.160
910.4516, 1953.295
910.9337, 1952.992
911.4158, 1953.459
911.8979, 1953.641
912.3801, 1952.567
912.8622, 1950.794
913.3443, 1949.286
913.8264, 1948.143
914.3085, 1947.847
914.7906, 1949.906
915.2728, 1951.686
915.7549, 1951.553
916.2370, 1950.009
916.7191, 1949.146
917.2012, 1949.036
917.6833, 1949.479
918.1655, 1950.545
918.6476, 1951.957
919.1297, 1952.852
919.6118, 1953.643
920.0939, 1955.595
920.5760, 1960.604
921.0582, 1964.572
921.5403, 1964.747
922.0224, 1963.060
922.5045, 1962.231
922.9866, 1962.672
923.4688, 1962.582
923.9509, 1961.486
924.4330, 1960.809
924.9151, 1962.842
925.3972, 1966.434
925.8793, 1968.873
926.3615, 1969.806
926.8436, 1969.987
927.3257, 1969.620
927.8078, 1968.885
928.2899, 1967.736
928.7720, 1966.167
929.2542, 1965.136
929.7363, 1964.541
930.2184, 1965.006
930.7005, 1967.793
931.1826, 1971.526
931.6647, 1972.195
932.1469, 1970.397
932.6290, 1968.667
933.1111, 1968.141
933.5932, 1968.120
934.0753, 1968.514
934.5574, 1969.147
935.0396, 1969.380
935.5217, 1968.678
936.0038, 1969.633
936.4859, 1973.439
936.9680, 1977.467
937.4501, 1977.029
937.9323, 1973.695
938.4144, 1971.020
938.8965, 1969.681
939.3786, 1969.653
939.8607, 1972.107
940.3428, 1975.070
940.8250, 1976.675
941.3071, 1976.431
941.7892, 1976.974
942.2713, 1978.574
942.7534, 1979.835
943.2355, 1979.046
943.7177, 1977.342
944.1998, 1977.221
944.6819, 1978.599
945.1640, 1979.971
945.6461, 1980.338
946.1282, 1980.749
946.6104, 1981.693
947.0925, 1983.084
947.5746, 1984.897
948.0567, 1987.377
948.5388, 1988.745
949.0209, 1988.253
949.5031, 1986.707
949.9852, 1984.914
950.4673, 1983.119
950.9494, 1981.836
951.4315, 1981.002
951.9136, 1981.094
952.3958, 1983.226
952.8779, 1985.752
953.3600, 1987.089
953.8421, 1987.069
954.3242, 1987.035
954.8063, 1986.998
955.2885, 1987.390
955.7706, 1989.398
956.2527, 1991.649
956.7348, 1992.002
957.2169, 1990.316
957.6990, 1988.784
958.1811, 1987.219
958.6632, 1987.025
959.1453, 1989.238
959.6274, 1993.189
960.1096, 1995.474
960.5917, 1996.084
961.0738, 1995.534
961.5559, 1993.169
962.0380, 1990.916
962.5201, 1991.069
963.0023, 1992.831
963.4844, 1994.740
963.9665, 1997.388
964.4486, 1998.588
964.9307, 1997.133
965.4128, 1995.514
965.8950, 1997.440
966.3771, 2002.377
966.8592, 2004.653
967.3413, 2003.591
967.8234, 2002.032
968.3055, 2002.553
968.7877, 2003.514
969.2698, 2002.856
969.7519, 2000.203
970.2340, 2000.661
970.7161, 2006.403
971.1982, 2011.254
971.6804, 2012.500
972.1625, 2011.153
972.6446, 2010.020
973.1267, 2009.136
973.6088, 2008.615
974.0909, 2008.372
974.5731, 2008.661
975.0552, 2009.635
975.5373, 2011.230
976.0194, 2013.454
976.5015, 2016.836
976.9836, 2019.187
977.4658, 2020.148
977.9479, 2020.546
978.4300, 2021.090
978.9121, 2021.794
979.3942, 2022.686
979.8763, 2023.752
980.3585, 2025.070
980.8406, 2026.578
981.3227, 2028.407
981.8048, 2031.008
982.2869, 2034.151
982.7690, 2035.554
983.2512, 2035.098
983.7333, 2033.932
984.2154, 2031.948
984.6975, 2030.286
985.1796, 2031.240
985.6617, 2033.628
986.1439, 2035.011
986.6260, 2033.263
987.1081, 2032.323
987.5902, 2032.828
988.0723, 2034.307
988.5544, 2036.844
989.0366, 2040.345
989.5187, 2041.334
990.0008, 2039.397
990.4829, 2037.369
990.9650, 2036.795
991.4471, 2037.762
991.9293, 2041.136
992.4114, 2046.903
992.8935, 2050.705
993.3756, 2051.300
993.8577, 2051.941
994.3398, 2053.778
994.8220, 2056.353
995.3041, 2058.285
995.7862, 2059.869
996.2683, 2062.401
996.7504, 2067.378
997.2325, 2071.661
997.7147, 2072.917
998.1968, 2072.912
998.6789, 2073.852
999.1610, 2075.997
999.6431, 2078.495
1000.125, 2081.382
1000.607, 2084.211
1001.089, 2086.004
1001.572, 2087.694
1002.054, 2091.004
1002.536, 2095.859
1003.018, 2100.808
1003.500, 2104.924
1003.982, 2109.416
1004.464, 2115.188
1004.946, 2121.345
1005.429, 2124.294
1005.911, 2124.233
1006.393, 2125.783
1006.875, 2130.817
1007.357, 2136.589
1007.839, 2140.426
1008.321, 2143.567
1008.803, 2147.737
1009.285, 2154.328
1009.768, 2159.238
1010.250, 2162.340
1010.732, 2164.008
1011.214, 2163.697
1011.696, 2162.197
1012.178, 2163.272
1012.660, 2166.348
1013.142, 2167.687
1013.625, 2164.805
1014.107, 2160.018
1014.589, 2153.352
1015.071, 2145.842
1015.553, 2140.245
1016.035, 2137.135
1016.517, 2132.348
1016.999, 2124.875
1017.481, 2116.702
1017.964, 2110.131
1018.446, 2104.628
1018.928, 2099.456
1019.410, 2094.598
1019.892, 2089.450
1020.374, 2082.935
1020.856, 2077.338
1021.338, 2073.893
1021.820, 2072.249
1022.303, 2070.742
1022.785, 2069.330
1023.267, 2067.837
1023.749, 2065.661
1024.231, 2063.914
1024.713, 2063.844
1025.195, 2064.529
1025.677, 2064.406
1026.160, 2063.518
1026.642, 2061.310
1027.124, 2057.324
1027.606, 2053.513
1028.088, 2051.872
1028.570, 2051.893
1029.052, 2052.907
1029.534, 2054.795
1030.016, 2056.623
1030.499, 2058.409
1030.981, 2059.557
1031.463, 2059.661
1031.945, 2059.058
1032.427, 2059.055
1032.909, 2059.573
1033.391, 2059.479
1033.873, 2058.228
1034.356, 2056.721
1034.838, 2055.270
1035.320, 2054.259
1035.802, 2054.317
1036.284, 2056.161
1036.766, 2057.169
1037.248, 2057.173
1037.730, 2056.924
1038.213, 2056.738
1038.695, 2056.801
1039.177, 2058.135
1039.659, 2060.296
1040.141, 2061.281
1040.623, 2059.128
1041.105, 2056.925
1041.587, 2055.674
1042.069, 2054.908
1042.552, 2053.515
1043.034, 2051.453
1043.516, 2051.775
1043.998, 2055.163
1044.480, 2058.347
1044.962, 2057.664
1045.444, 2055.885
1045.926, 2055.840
1046.408, 2057.885
1046.891, 2058.983
1047.373, 2058.812
1047.855, 2058.205
1048.337, 2057.241
1048.819, 2056.367
1049.301, 2056.923
1049.783, 2058.312
1050.265, 2058.960
1050.748, 2057.843
1051.230, 2056.950
1051.712, 2057.138
1052.194, 2057.700
1052.676, 2058.296
1053.158, 2058.960
1053.640, 2058.114
1054.122, 2055.754
1054.604, 2054.394
1055.087, 2057.054
1055.569, 2060.224
1056.051, 2061.038
1056.533, 2059.956
1057.015, 2058.642
1057.497, 2056.637
1057.979, 2056.177
1058.461, 2057.990
1058.943, 2060.415
1059.426, 2061.569
1059.908, 2061.702
1060.390, 2060.801
1060.872, 2058.773
1061.354, 2058.116
1061.836, 2061.507
1062.318, 2064.591
1062.800, 2065.478
1063.283, 2064.702
1063.765, 2064.328
1064.247, 2064.336
1064.729, 2064.811
1065.211, 2065.673
1065.693, 2067.132
1066.175, 2070.518
1066.657, 2073.905
1067.140, 2074.909
1067.622, 2072.906
1068.104, 2070.795
1068.586, 2068.436
1069.068, 2066.875
1069.550, 2067.977
1070.032, 2069.734
1070.514, 2068.071
1070.996, 2064.279
1071.479, 2062.557
1071.961, 2066.323
1072.443, 2069.626
1072.925, 2072.221
1073.407, 2073.292
1073.889, 2070.682
1074.371, 2065.517
1074.853, 2062.153
1075.335, 2061.102
1075.818, 2061.546
1076.300, 2064.652
1076.782, 2067.515
1077.264, 2068.079
1077.746, 2066.940
1078.228, 2066.604
1078.710, 2067.106
1079.192, 2067.700
1079.675, 2068.380
1080.157, 2068.462
1080.639, 2066.106
1081.121, 2063.275
1081.603, 2062.624
1082.085, 2065.506
1082.567, 2067.213
1083.049, 2067.360
1083.531, 2067.303
1084.014, 2067.719
1084.496, 2068.542
1084.978, 2069.746
1085.460, 2071.238
1085.942, 2072.752
1086.424, 2075.014
1086.906, 2076.154
1087.388, 2075.372
1087.870, 2073.900
1088.353, 2072.676
1088.835, 2071.779
1089.317, 2072.250
1089.799, 2074.074
1090.281, 2076.179
1090.763, 2078.386
1091.245, 2080.099
1091.727, 2080.338
1092.209, 2079.827
1092.692, 2080.822
1093.174, 2083.575
1093.656, 2085.702
1094.138, 2086.722
1094.620, 2087.165
1095.102, 2087.148
1095.584, 2087.147
1096.066, 2087.952
1096.549, 2089.753
1097.031, 2090.506
1097.513, 2089.779
1097.995, 2088.888
1098.477, 2088.360
1098.959, 2087.952
1099.441, 2086.677
1099.923, 2085.215
1100.406, 2085.144
1100.888, 2087.644
1101.370, 2089.901
1101.852, 2091.335
1102.334, 2092.164
1102.816, 2092.320
1103.298, 2091.914
1103.780, 2092.033
1104.262, 2092.543
1104.745, 2092.537
1105.227, 2090.027
1105.709, 2088.516
1106.191, 2090.870
1106.673, 2094.735
1107.155, 2096.595
1107.637, 2096.107
1108.119, 2096.408
1108.601, 2097.735
1109.084, 2098.686
1109.566, 2097.289
1110.048, 2095.669
1110.530, 2096.214
1111.012, 2098.469
1111.494, 2099.515
1111.976, 2098.685
1112.458, 2098.275
1112.941, 2098.716
1113.423, 2099.635
1113.905, 2101.172
1114.387, 2102.601
1114.869, 2102.399
1115.351, 2100.264
1115.833, 2099.016
1116.315, 2099.773
1116.797, 2100.610
1117.280, 2100.798
1117.762, 2100.796
1118.244, 2102.024
1118.726, 2103.994
1119.208, 2105.169
1119.690, 2104.661
1120.172, 2104.759
1120.654, 2106.460
1121.136, 2109.135
1121.619, 2112.876
1122.101, 2117.407
1122.583, 2119.829
1123.065, 2120.283
1123.547, 2120.057
1124.029, 2119.191
1124.511, 2118.589
1124.993, 2119.392
1125.476, 2120.414
1125.958, 2119.826
1126.440, 2116.887
1126.922, 2116.786
1127.404, 2119.733
1127.886, 2122.860
1128.368, 2123.646
1128.850, 2123.974
1129.333, 2126.396
1129.815, 2129.771
1130.297, 2130.636
1130.779, 2127.949
1131.261, 2125.299
1131.743, 2122.832
1132.225, 2121.371
1132.707, 2122.898
1133.189, 2125.385
1133.672, 2125.433
1134.154, 2123.215
1134.636, 2122.740
1135.118, 2126.617
1135.600, 2128.881
1136.082, 2127.739
1136.564, 2125.425
1137.046, 2125.581
1137.528, 2127.391
1138.011, 2129.067
1138.493, 2130.318
1138.975, 2131.417
1139.457, 2131.848
1139.939, 2132.894
1140.421, 2135.495
1140.903, 2138.672
1141.385, 2139.275
1141.868, 2137.919
1142.350, 2137.029
1142.832, 2137.187
1143.314, 2138.291
1143.796, 2141.472
1144.278, 2144.472
1144.760, 2145.736
1145.242, 2145.403
1145.724, 2144.933
1146.207, 2144.335
1146.689, 2143.588
1147.171, 2142.289
1147.653, 2141.501
1148.135, 2142.372
1148.617, 2143.950
1149.099, 2145.146
1149.581, 2145.941
1150.063, 2146.555
1150.546, 2147.002
1151.028, 2147.369
1151.510, 2147.872
1151.992, 2148.170
1152.474, 2147.176
1152.956, 2145.981
1153.438, 2146.934
1153.920, 2150.661
1154.403, 2154.738
1154.885, 2159.300
1155.367, 2162.228
1155.849, 2159.758
1156.331, 2155.900
1156.813, 2155.394
1157.295, 2157.649
1157.777, 2159.131
1158.260, 2159.093
1158.742, 2159.336
1159.224, 2160.194
1159.706, 2161.036
1160.188, 2160.563
1160.670, 2159.896
1161.152, 2161.458
1161.634, 2165.175
1162.116, 2166.346
1162.599, 2162.131
1163.081, 2159.610
1163.563, 2160.957
1164.045, 2163.628
1164.527, 2163.305
1165.009, 2161.393
1165.491, 2160.642
1165.973, 2161.584
1166.455, 2162.681
1166.938, 2164.556
1167.420, 2164.782
1167.902, 2161.668
1168.384, 2157.360
1168.866, 2157.222
1169.348, 2159.933
1169.830, 2161.899
1170.312, 2161.947
1170.795, 2162.379
1171.277, 2164.477
1171.759, 2166.529
1172.241, 2167.874
1172.723, 2168.531
1173.205, 2168.439
1173.687, 2167.751
1174.169, 2166.944
1174.651, 2166.117
1175.134, 2165.440
1175.616, 2164.815
1176.098, 2164.601
1176.580, 2165.301
1177.062, 2166.692
1177.544, 2166.485
1178.026, 2165.086
1178.508, 2164.865
1178.990, 2168.519
1179.473, 2171.398
1179.955, 2170.393
1180.437, 2168.462
1180.919, 2168.443
1181.401, 2170.278
1181.883, 2170.640
1182.365, 2169.688
1182.847, 2169.235
1183.330, 2171.341
1183.812, 2173.133
1184.294, 2172.733
1184.776, 2171.441
1185.258, 2170.726
1185.740, 2170.623
1186.222, 2171.050
1186.704, 2172.030
1187.187, 2173.758
1187.669, 2178.216
1188.151, 2181.605
1188.633, 2180.586
1189.115, 2177.216
1189.597, 2174.771
1190.079, 2173.200
1190.561, 2173.733
1191.043, 2176.525
1191.526, 2178.999
1192.008, 2178.923
1192.490, 2177.929
1192.972, 2176.592
1193.454, 2175.286
1193.936, 2174.915
1194.418, 2175.501
1194.900, 2176.814
1195.382, 2178.961
1195.865, 2180.213
1196.347, 2178.311
1196.829, 2175.665
1197.311, 2173.897
1197.793, 2173.051
1198.275, 2173.067
1198.757, 2174.078
1199.239, 2174.770
1199.722, 2174.932
1200.204, 2174.638
1200.686, 2173.448
1201.168, 2172.275
1201.650, 2171.896
1202.132, 2172.284
1202.614, 2173.097
1203.096, 2174.354
1203.578, 2175.417
1204.061, 2175.978
1204.543, 2176.722
1205.025, 2179.094
1205.507, 2181.322
1205.989, 2180.926
1206.471, 2178.123
1206.953, 2178.158
1207.435, 2181.190
1207.917, 2183.594
1208.400, 2184.069
1208.882, 2183.834
1209.364, 2184.320
1209.846, 2184.521
1210.328, 2182.906
1210.810, 2179.560
1211.292, 2178.169
1211.774, 2178.877
1212.257, 2179.619
1212.739, 2179.905
1213.221, 2179.405
1213.703, 2176.503
1214.185, 2173.533
1214.667, 2173.269
1215.149, 2175.803
1215.631, 2178.937
1216.114, 2182.734
1216.596, 2184.765
1217.078, 2182.847
1217.560, 2180.697
1218.042, 2182.006
1218.524, 2184.565
1219.006, 2185.780
1219.488, 2185.451
1219.970, 2185.106
1220.453, 2184.718
1220.935, 2184.782
1221.417, 2186.113
1221.899, 2187.101
1222.381, 2185.485
1222.863, 2183.378
1223.345, 2183.445
1223.827, 2185.933
1224.309, 2188.358
1224.792, 2190.728
1225.274, 2192.346
1225.756, 2192.978
1226.238, 2192.615
1226.720, 2190.185
1227.202, 2187.458
1227.684, 2186.719
1228.166, 2188.260
1228.649, 2189.433
1229.131, 2190.243
1229.613, 2190.241
1230.095, 2188.362
1230.577, 2186.472
1231.059, 2185.570
1231.541, 2185.366
1232.023, 2185.386
1232.505, 2185.570
1232.988, 2186.836
1233.470, 2189.079
1233.952, 2190.983
1234.434, 2192.022
1234.916, 2192.204
1235.398, 2190.776
1235.880, 2189.015
1236.362, 2188.649
1236.844, 2189.630
1237.327, 2188.697
1237.809, 2185.995
1238.291, 2183.532
1238.773, 2181.772
1239.255, 2181.461
1239.737, 2184.215
1240.219, 2187.603
1240.701, 2188.868
1241.184, 2188.318
1241.666, 2189.106
1242.148, 2191.108
1242.630, 2192.407
1243.112, 2190.587
1243.594, 2189.715
1244.076, 2191.840
1244.558, 2194.613
1245.041, 2195.146
1245.523, 2194.036
1246.005, 2194.075
1246.487, 2195.282
1246.969, 2196.797
1247.451, 2198.714
1247.933, 2200.149
1248.415, 2200.701
1248.897, 2201.048
1249.380, 2202.146
1249.862, 2203.620
1250.344, 2203.794
1250.826, 2203.003
1251.308, 2203.556
1251.790, 2208.701
1252.272, 2211.638
1252.754, 2210.708
1253.236, 2208.758
1253.719, 2209.234
1254.201, 2210.966
1254.683, 2211.794
1255.165, 2211.650
1255.647, 2210.730
1256.129, 2207.843
1256.611, 2206.615
1257.093, 2207.883
1257.576, 2209.573
1258.058, 2209.222
1258.540, 2208.056
1259.022, 2207.727
1259.504, 2208.240
1259.986, 2209.296
1260.468, 2211.462
1260.950, 2212.281
1261.432, 2211.258
1261.915, 2210.035
1262.397, 2210.323
1262.879, 2211.175
1263.361, 2211.168
1263.843, 2210.788
1264.325, 2212.267
1264.807, 2216.602
1265.289, 2217.981
1265.771, 2215.503
1266.254, 2212.972
1266.736, 2214.550
1267.218, 2216.740
1267.700, 2216.397
1268.182, 2214.349
1268.664, 2213.344
1269.146, 2213.491
1269.628, 2212.791
1270.111, 2211.032
1270.593, 2210.251
1271.075, 2213.010
1271.557, 2216.172
1272.039, 2217.777
1272.521, 2218.520
1273.003, 2219.564
1273.485, 2220.830
1273.968, 2221.236
1274.450, 2220.709
1274.932, 2219.797
1275.414, 2217.750
1275.896, 2216.755
1276.378, 2218.216
1276.860, 2220.284
1277.342, 2219.988
1277.824, 2218.114
1278.307, 2218.039
1278.789, 2219.781
1279.271, 2221.313
1279.753, 2221.738
1280.235, 2221.837
1280.717, 2221.697
1281.199, 2221.512
1281.681, 2221.711
1282.163, 2221.971
1282.646, 2221.476
1283.128, 2220.322
1283.610, 2219.198
1284.092, 2217.508
1284.574, 2217.500
1285.056, 2219.781
1285.538, 2222.408
1286.020, 2223.497
1286.503, 2223.696
1286.985, 2223.480
1287.467, 2223.137
1287.949, 2223.710
1288.431, 2225.789
1288.913, 2226.460
1289.395, 2225.305
1289.877, 2224.342
1290.359, 2226.346
1290.842, 2228.318
1291.324, 2226.674
1291.806, 2223.409
1292.288, 2223.473
1292.770, 2227.292
1293.252, 2228.750
1293.734, 2227.523
1294.216, 2226.063
1294.698, 2225.373
1295.181, 2225.590
1295.663, 2227.976
1296.145, 2230.586
1296.627, 2230.801
1297.109, 2228.978
1297.591, 2227.670
1298.073, 2227.016
1298.555, 2227.052
1299.038, 2227.631
1299.520, 2229.368
1300.002, 2233.075
1300.484, 2237.608
1300.966, 2240.880
1301.448, 2242.734
1301.930, 2244.503
1302.412, 2246.081
1302.895, 2246.871
1303.377, 2244.623
1303.859, 2244.986
1304.341, 2248.257
1304.823, 2250.919
1305.305, 2247.165
##END=



