##NAMES=Dixenite
##RRUFFID=R100044
##IDEAL CHEMISTRY=Cu^1+^Mn^2+^_14_Fe^3+^(As^3+^O_3_)_5_(SiO_4_)_2_(As^5+^O_4_)(OH)_6_
##LOCALITY=Moss mine, Nordmark, Varmland, Sweden
##OWNER=RRUFF
##SOURCE=William W Pinch
##DESCRIPTION=Thin tabular reddish-brown hexagonal plates, associated with synadelphite and colorless or grey allactite
##STATUS=The identification of this mineral has been confirmed only by single crystal X-ray diffraction.
##URL=rruff.info/R100044
90.60547, 292.8814
91.08759, 300.5994
91.56970, 307.1241
92.05182, 305.3398
92.53394, 299.8230
93.01605, 294.8371
93.49817, 293.9176
93.98029, 296.3989
94.46240, 296.5908
94.94452, 292.4543
95.42664, 287.2462
95.90874, 282.7896
96.39086, 279.2274
96.87298, 276.1491
97.35509, 272.9341
97.83721, 269.1032
98.31933, 265.5187
98.80145, 262.9397
99.28356, 260.1656
99.76568, 256.1526
100.2478, 250.5871
100.7299, 244.2365
101.2120, 239.0544
101.6941, 234.6461
102.1763, 231.9563
102.6584, 231.7016
103.1405, 232.9974
103.6226, 234.8966
104.1047, 237.0445
104.5868, 239.1736
105.0690, 239.4641
105.5511, 237.1859
106.0332, 234.2222
106.5153, 230.8960
106.9974, 227.3551
107.4795, 224.5275
107.9617, 223.3621
108.4438, 223.5168
108.9259, 223.6441
109.4080, 224.1807
109.8901, 224.3879
110.3722, 223.0589
110.8544, 219.7598
111.3365, 215.9091
111.8186, 212.2175
112.3007, 208.7008
112.7828, 205.4245
113.2649, 202.3835
113.7471, 199.5791
114.2292, 197.2308
114.7113, 195.5667
115.1934, 194.1847
115.6755, 193.0965
116.1576, 192.1929
116.6397, 191.2009
117.1219, 189.7830
117.6040, 187.7288
118.0861, 185.8730
118.5682, 184.1471
119.0503, 182.6151
119.5324, 181.3418
120.0146, 180.3320
120.4967, 179.5159
120.9788, 178.7968
121.4609, 178.3608
121.9430, 177.7266
122.4251, 176.7460
122.9073, 175.6120
123.3894, 174.5983
123.8715, 173.8288
124.3536, 173.1411
124.8357, 172.0293
125.3178, 170.1299
125.8000, 168.6190
126.2821, 168.0986
126.7642, 168.3854
127.2463, 168.8649
127.7284, 169.5132
128.2105, 169.9930
128.6927, 169.7945
129.1748, 168.6865
129.6569, 167.2522
130.1390, 165.9384
130.6211, 164.7163
131.1032, 163.7979
131.5854, 163.5373
132.0675, 163.5325
132.5496, 163.4307
133.0317, 163.0872
133.5138, 162.5938
133.9959, 162.2244
134.4781, 162.3329
134.9602, 161.9388
135.4423, 160.4924
135.9244, 158.5170
136.4065, 156.7116
136.8886, 155.5231
137.3708, 154.8928
137.8529, 154.1092
138.3350, 153.0927
138.8171, 151.9859
139.2992, 150.6900
139.7813, 149.3117
140.2635, 148.0907
140.7456, 147.2837
141.2277, 146.9844
141.7098, 146.1477
142.1919, 144.2224
142.6740, 142.3334
143.1561, 141.2172
143.6383, 140.8695
144.1204, 140.6111
144.6025, 139.6840
145.0846, 137.9350
145.5667, 136.6307
146.0488, 135.9809
146.5310, 135.7284
147.0131, 135.6966
147.4952, 135.9029
147.9773, 136.0881
148.4594, 135.9607
148.9415, 135.5710
149.4237, 134.9650
149.9058, 133.9533
150.3879, 132.7193
150.8700, 131.8118
151.3521, 131.4409
151.8342, 131.2591
152.3164, 131.0274
152.7985, 130.7350
153.2806, 130.2855
153.7627, 129.4886
154.2448, 128.3307
154.7269, 127.4210
155.2091, 127.2291
155.6912, 127.0191
156.1733, 126.3547
156.6554, 125.2258
157.1375, 123.9840
157.6196, 123.0528
158.1018, 122.5300
158.5839, 122.0481
159.0660, 121.5126
159.5481, 121.0509
160.0302, 120.8881
160.5123, 121.0255
160.9945, 121.1333
161.4766, 120.6107
161.9587, 118.8781
162.4408, 117.3210
162.9229, 116.0071
163.4050, 114.8341
163.8871, 113.6861
164.3693, 112.5178
164.8514, 111.4265
165.3335, 110.6634
165.8156, 110.4165
166.2977, 110.2392
166.7798, 110.1894
167.2620, 110.1641
167.7441, 109.9351
168.2262, 109.3418
168.7083, 108.6301
169.1904, 108.5326
169.6725, 109.2261
170.1547, 110.0360
170.6368, 110.8120
171.1189, 111.5204
171.6010, 112.0224
172.0831, 112.1757
172.5652, 112.1345
173.0474, 112.2094
173.5295, 112.3501
174.0116, 112.6958
174.4937, 113.4911
174.9758, 114.7359
175.4579, 115.8271
175.9401, 116.4112
176.4222, 116.7401
176.9043, 117.0124
177.3864, 117.1848
177.8685, 117.5017
178.3506, 118.3815
178.8328, 120.0207
179.3149, 121.5261
179.7970, 122.5128
180.2791, 123.2746
180.7612, 124.0460
181.2433, 124.9247
181.7255, 125.8218
182.2076, 126.5516
182.6897, 127.0755
183.1718, 127.4776
183.6539, 127.7933
184.1360, 128.0173
184.6181, 128.2421
185.1003, 128.5403
185.5824, 128.7006
186.0645, 127.9320
186.5466, 124.8996
187.0287, 122.5380
187.5108, 121.5589
187.9930, 121.3751
188.4751, 121.2091
188.9572, 120.6152
189.4393, 119.7410
189.9214, 119.4345
190.4035, 120.2646
190.8857, 121.0304
191.3678, 121.4407
191.8499, 121.6415
192.3320, 121.8934
192.8141, 122.3459
193.2962, 122.9880
193.7784, 123.7628
194.2605, 124.8126
194.7426, 125.8102
195.2247, 126.4890
195.7068, 126.9967
196.1889, 127.8201
196.6711, 129.3834
197.1532, 131.4487
197.6353, 132.8206
198.1174, 133.0344
198.5995, 133.0662
199.0816, 133.3357
199.5638, 133.8485
200.0459, 134.6591
200.5280, 136.0110
201.0101, 137.6272
201.4922, 138.7099
201.9743, 139.0332
202.4565, 139.0232
202.9386, 139.0750
203.4207, 139.1992
203.9028, 139.0527
204.3849, 138.3165
204.8670, 137.2213
205.3492, 136.0862
205.8313, 134.9475
206.3134, 133.8142
206.7955, 132.7273
207.2776, 131.7104
207.7597, 130.6305
208.2419, 129.5528
208.7240, 128.3305
209.2061, 126.7427
209.6882, 124.6321
210.1703, 122.3020
210.6524, 120.2374
211.1346, 118.4524
211.6167, 116.9527
212.0988, 115.7327
212.5809, 114.7677
213.0630, 114.1004
213.5451, 113.7865
214.0273, 113.6414
214.5094, 113.2154
214.9915, 112.2386
215.4736, 111.4747
215.9557, 110.9704
216.4378, 110.7492
216.9200, 110.9173
217.4021, 111.5359
217.8842, 112.3948
218.3663, 112.8736
218.8484, 112.5074
219.3305, 112.4293
219.8127, 113.0588
220.2948, 113.9045
220.7769, 114.3715
221.2590, 114.1885
221.7411, 113.6582
222.2232, 113.6826
222.7054, 115.0382
223.1875, 116.0468
223.6696, 116.2684
224.1517, 116.2154
224.6338, 116.5684
225.1159, 117.6370
225.5980, 119.0728
226.0802, 119.8598
226.5623, 119.3333
227.0444, 118.9230
227.5265, 118.7892
228.0086, 118.8098
228.4907, 118.8577
228.9729, 118.8847
229.4550, 118.8627
229.9371, 118.7015
230.4192, 118.2289
230.9013, 117.8923
231.3834, 117.9262
231.8656, 118.1017
232.3477, 118.0841
232.8298, 117.7429
233.3119, 117.1649
233.7940, 116.4455
234.2761, 115.3541
234.7583, 114.6777
235.2404, 114.9627
235.7225, 115.7395
236.2046, 116.1071
236.6867, 115.6653
237.1688, 114.9784
237.6510, 115.1601
238.1331, 116.3405
238.6152, 117.3253
239.0973, 117.6972
239.5794, 117.5936
240.0615, 117.2070
240.5437, 116.4353
241.0258, 115.7158
241.5079, 115.7429
241.9900, 116.5012
242.4721, 117.1763
242.9542, 117.3053
243.4364, 117.0929
243.9185, 117.0539
244.4006, 117.2885
244.8827, 117.7265
245.3648, 118.4133
245.8469, 119.3029
246.3290, 119.9903
246.8112, 120.1683
247.2933, 119.9808
247.7754, 119.8024
248.2575, 119.4942
248.7396, 119.5470
249.2217, 120.5172
249.7039, 122.1673
250.1860, 123.6993
250.6681, 124.7675
251.1502, 125.3880
251.6323, 125.5210
252.1144, 124.7184
252.5966, 124.1724
253.0787, 124.7447
253.5608, 126.0682
254.0429, 127.3383
254.5250, 128.1338
255.0071, 128.5202
255.4893, 128.6988
255.9714, 128.4308
256.4535, 128.3524
256.9356, 128.8227
257.4177, 129.6259
257.8998, 130.4322
258.3820, 131.0989
258.8641, 131.6188
259.3462, 131.9510
259.8283, 132.0124
260.3104, 132.0063
260.7925, 132.0278
261.2747, 132.0293
261.7568, 131.9460
262.2389, 131.7411
262.7210, 131.4402
263.2031, 131.1205
263.6852, 130.8218
264.1674, 130.4243
264.6495, 129.8367
265.1316, 129.1805
265.6137, 128.6227
266.0958, 128.2457
266.5779, 127.9130
267.0601, 127.2470
267.5422, 125.8715
268.0243, 124.8617
268.5064, 124.6327
268.9885, 124.6380
269.4706, 124.3919
269.9528, 123.7250
270.4349, 122.8230
270.9170, 122.0083
271.3991, 121.2085
271.8812, 120.6770
272.3633, 120.8274
272.8455, 120.9571
273.3276, 120.3945
273.8097, 119.0352
274.2918, 117.4394
274.7739, 116.5069
275.2560, 116.7302
275.7382, 116.5727
276.2202, 115.8206
276.7024, 114.9313
277.1845, 114.1451
277.6666, 113.5161
278.1487, 113.0070
278.6308, 112.6045
279.1129, 112.4158
279.5951, 111.9475
280.0772, 110.7944
280.5593, 109.7544
281.0414, 109.3095
281.5235, 109.4161
282.0056, 109.7151
282.4878, 109.9030
282.9699, 110.0139
283.4520, 109.7302
283.9341, 108.4372
284.4162, 107.3970
284.8983, 107.4160
285.3805, 108.1698
285.8626, 108.6840
286.3447, 108.1361
286.8268, 106.5573
287.3089, 105.7565
287.7910, 106.7631
288.2732, 107.3838
288.7553, 106.5921
289.2374, 104.9769
289.7195, 103.7250
290.2016, 103.5754
290.6837, 104.3135
291.1659, 104.7540
291.6480, 104.4831
292.1301, 104.3961
292.6122, 104.7891
293.0943, 105.4151
293.5764, 105.9665
294.0586, 106.3096
294.5407, 106.4296
295.0228, 106.2848
295.5049, 105.3796
295.9870, 104.8149
296.4691, 104.7357
296.9513, 104.9703
297.4334, 105.4657
297.9155, 106.1824
298.3976, 106.8442
298.8797, 106.9419
299.3618, 105.7832
299.8440, 105.3983
300.3261, 106.5702
300.8082, 108.0107
301.2903, 108.6116
301.7724, 108.1973
302.2545, 107.4361
302.7367, 107.1025
303.2188, 107.3362
303.7009, 107.5091
304.1830, 107.3293
304.6651, 107.3253
305.1472, 108.0364
305.6294, 109.3426
306.1115, 110.5332
306.5936, 110.9542
307.0757, 110.5473
307.5578, 110.5073
308.0399, 111.1558
308.5221, 111.7829
309.0042, 112.1266
309.4863, 112.1995
309.9684, 111.9884
310.4505, 111.3931
310.9326, 110.5760
311.4148, 110.7422
311.8969, 112.9088
312.3790, 114.7256
312.8611, 115.5178
313.3432, 115.6152
313.8253, 115.5220
314.3075, 115.4492
314.7896, 115.4206
315.2717, 115.4999
315.7538, 115.6835
316.2359, 115.9855
316.7180, 116.6321
317.2001, 117.3003
317.6823, 117.5910
318.1644, 117.3969
318.6465, 116.9696
319.1286, 116.6582
319.6107, 116.4116
320.0928, 116.4761
320.5750, 116.9976
321.0571, 117.7169
321.5392, 118.5461
322.0213, 119.4199
322.5034, 120.1547
322.9855, 120.5306
323.4677, 120.4753
323.9498, 120.5972
324.4319, 121.0711
324.9140, 121.5311
325.3961, 121.7169
325.8782, 121.7142
326.3604, 121.8252
326.8425, 122.2785
327.3246, 123.0365
327.8067, 123.6760
328.2888, 124.0581
328.7709, 124.4995
329.2531, 125.2384
329.7352, 126.0619
330.2173, 126.5813
330.6994, 126.5994
331.1815, 126.3158
331.6636, 126.2692
332.1458, 126.3572
332.6279, 126.8485
333.1100, 128.2428
333.5921, 129.7990
334.0742, 130.6635
334.5563, 130.6312
335.0385, 130.3365
335.5206, 130.7351
336.0027, 132.2987
336.4848, 133.3444
336.9669, 133.6349
337.4490, 133.6651
337.9312, 133.5433
338.4133, 133.4062
338.8954, 133.6013
339.3775, 134.4990
339.8596, 136.1769
340.3417, 137.6106
340.8239, 138.6819
341.3060, 139.6663
341.7881, 140.6709
342.2702, 141.6635
342.7523, 142.4914
343.2344, 143.0229
343.7166, 143.4016
344.1987, 144.3276
344.6808, 146.2768
345.1629, 148.2851
345.6450, 150.8655
346.1271, 153.2087
346.6093, 154.2012
347.0914, 153.4794
347.5735, 151.9292
348.0556, 151.1841
348.5377, 151.3387
349.0198, 152.2478
349.5020, 154.5636
349.9841, 157.0363
350.4662, 158.9116
350.9483, 160.0498
351.4304, 160.6241
351.9125, 160.6847
352.3947, 160.0538
352.8768, 160.1078
353.3589, 161.5994
353.8410, 163.0198
354.3231, 163.7357
354.8052, 163.9655
355.2874, 164.2400
355.7695, 164.9062
356.2516, 165.9194
356.7337, 167.0835
357.2158, 168.9240
357.6979, 170.1538
358.1800, 170.0387
358.6621, 169.4543
359.1443, 169.4678
359.6264, 170.4854
360.1085, 171.8411
360.5906, 172.2078
361.0727, 170.9585
361.5548, 170.3710
362.0370, 171.1588
362.5191, 172.2637
363.0012, 173.1665
363.4833, 173.7642
363.9654, 174.0915
364.4475, 174.0068
364.9297, 173.4501
365.4118, 173.5246
365.8939, 175.0783
366.3760, 176.3378
366.8581, 176.1924
367.3402, 175.2466
367.8224, 174.8138
368.3045, 175.8466
368.7866, 177.7657
369.2687, 178.7824
369.7508, 178.4343
370.2329, 178.1927
370.7151, 178.6370
371.1972, 179.3847
371.6793, 180.1446
372.1614, 180.8517
372.6435, 181.3871
373.1256, 181.4902
373.6078, 181.1175
374.0899, 180.9085
374.5720, 180.6135
375.0541, 180.9320
375.5362, 182.8584
376.0183, 186.1805
376.5005, 188.9431
376.9826, 189.3664
377.4647, 188.1326
377.9468, 187.8437
378.4289, 188.9694
378.9110, 190.3415
379.3932, 191.1418
379.8753, 191.6225
380.3574, 192.2559
380.8395, 193.1975
381.3216, 194.3485
381.8037, 195.6073
382.2859, 196.9771
382.7680, 198.4382
383.2501, 200.1638
383.7322, 201.8410
384.2143, 202.9778
384.6964, 203.4174
385.1786, 203.8229
385.6607, 204.6732
386.1428, 205.7763
386.6249, 206.6149
387.1070, 207.0412
387.5891, 207.2537
388.0713, 207.4096
388.5534, 207.5163
389.0355, 207.7131
389.5176, 208.1855
389.9997, 208.6635
390.4818, 208.8791
390.9640, 208.8220
391.4461, 208.6098
391.9282, 208.2962
392.4103, 207.8891
392.8924, 207.4578
393.3745, 206.9932
393.8567, 206.5136
394.3388, 205.9687
394.8209, 205.4186
395.3030, 205.0112
395.7851, 204.8088
396.2672, 204.7012
396.7494, 204.5261
397.2315, 204.4272
397.7136, 203.8654
398.1957, 202.5672
398.6778, 200.9571
399.1599, 199.2031
399.6420, 197.4174
400.1241, 195.9197
400.6063, 195.0382
401.0884, 194.7931
401.5705, 194.3797
402.0526, 193.9243
402.5347, 193.1956
403.0168, 191.7722
403.4990, 190.0993
403.9811, 189.0254
404.4632, 188.9752
404.9453, 189.3713
405.4274, 188.7537
405.9095, 186.1749
406.3917, 184.1756
406.8738, 183.1212
407.3559, 182.4055
407.8380, 181.5877
408.3201, 180.6244
408.8022, 179.7652
409.2844, 179.3324
409.7665, 179.3798
410.2486, 178.9796
410.7307, 177.5458
411.2128, 176.2859
411.6949, 175.7172
412.1771, 175.5221
412.6592, 175.1267
413.1413, 174.2038
413.6234, 173.0788
414.1055, 172.5087
414.5876, 172.7052
415.0698, 172.8055
415.5519, 172.6764
416.0340, 172.3319
416.5161, 171.5557
416.9982, 170.3848
417.4803, 169.5074
417.9625, 169.7377
418.4446, 170.8824
418.9267, 171.6016
419.4088, 171.7051
419.8909, 171.5433
420.3730, 171.1467
420.8552, 170.6757
421.3373, 170.4789
421.8194, 170.7157
422.3015, 171.2293
422.7836, 172.0478
423.2657, 173.1590
423.7479, 173.7151
424.2300, 173.0150
424.7121, 171.8994
425.1942, 171.7400
425.6763, 172.7099
426.1584, 173.6995
426.6406, 174.2193
427.1227, 174.4569
427.6048, 174.8046
428.0869, 175.3559
428.5690, 175.6455
429.0511, 175.0325
429.5333, 173.5493
430.0154, 172.9736
430.4975, 174.1029
430.9796, 175.3956
431.4617, 175.9810
431.9438, 176.0334
432.4260, 176.1331
432.9081, 176.5871
433.3902, 177.0987
433.8723, 176.9261
434.3544, 175.2092
434.8365, 174.2396
435.3187, 174.7831
435.8008, 175.6406
436.2829, 175.7840
436.7650, 175.1382
437.2471, 174.3049
437.7292, 173.8537
438.2114, 173.7971
438.6935, 173.5594
439.1756, 173.3586
439.6577, 172.7239
440.1398, 170.9403
440.6219, 168.8523
441.1040, 167.7331
441.5862, 168.1169
442.0683, 169.1583
442.5504, 169.2682
443.0325, 168.0839
443.5146, 167.0843
443.9967, 166.5666
444.4789, 166.1230
444.9610, 165.5577
445.4431, 164.8798
445.9252, 164.1858
446.4073, 163.5287
446.8894, 162.9180
447.3716, 162.3582
447.8537, 161.7691
448.3358, 161.4344
448.8179, 161.8007
449.3000, 162.3455
449.7821, 162.4556
450.2643, 161.9343
450.7464, 161.3105
451.2285, 161.0141
451.7106, 161.0029
452.1927, 161.1393
452.6748, 161.5183
453.1570, 161.7852
453.6391, 161.4243
454.1212, 160.5795
454.6033, 159.8910
455.0854, 159.3298
455.5675, 159.1192
456.0497, 159.6361
456.5318, 160.7712
457.0139, 161.9022
457.4960, 162.7452
457.9781, 163.3442
458.4602, 163.7988
458.9424, 164.0915
459.4245, 164.3120
459.9066, 164.4888
460.3887, 164.5926
460.8708, 164.5022
461.3529, 164.2442
461.8351, 164.0752
462.3172, 164.2167
462.7993, 164.6669
463.2814, 165.4882
463.7635, 167.2615
464.2456, 168.7132
464.7278, 169.3056
465.2099, 169.4653
465.6920, 169.7756
466.1741, 170.4659
466.6562, 171.3710
467.1383, 172.2156
467.6205, 172.9716
468.1026, 173.7769
468.5847, 174.7032
469.0668, 175.6210
469.5489, 176.4908
470.0310, 177.3033
470.5132, 178.0091
470.9953, 178.4739
471.4774, 178.9132
471.9595, 180.0004
472.4416, 181.9674
472.9237, 183.7140
473.4059, 184.6297
473.8880, 185.2712
474.3701, 186.1285
474.8522, 187.2541
475.3343, 188.4343
475.8164, 189.2962
476.2986, 190.1258
476.7807, 191.8012
477.2628, 194.5550
477.7449, 197.3843
478.2270, 199.5710
478.7091, 201.1969
479.1913, 202.6857
479.6734, 203.8722
480.1555, 205.1273
480.6376, 206.6195
481.1197, 208.3200
481.6018, 210.1188
482.0839, 211.9655
482.5660, 214.0831
483.0482, 216.8645
483.5303, 220.5872
484.0124, 223.9507
484.4945, 226.4975
484.9766, 229.1275
485.4587, 232.6489
485.9409, 236.6601
486.4230, 239.9909
486.9051, 241.9298
487.3872, 243.1974
487.8693, 245.9717
488.3514, 251.6136
488.8336, 256.2474
489.3157, 258.6573
489.7978, 260.8626
490.2799, 264.4176
490.7620, 269.1870
491.2441, 273.7832
491.7263, 276.8624
492.2084, 278.8490
492.6905, 281.8804
493.1726, 286.3454
493.6547, 290.9056
494.1368, 294.8993
494.6190, 298.7360
495.1011, 302.8703
495.5832, 307.4095
496.0653, 311.9717
496.5474, 316.2818
497.0295, 320.3570
497.5117, 324.2231
497.9938, 327.8882
498.4759, 331.3102
498.9580, 334.2138
499.4401, 336.8148
499.9222, 340.1916
500.4044, 345.0206
500.8865, 350.0109
501.3686, 354.8180
501.8507, 359.2872
502.3328, 363.0583
502.8149, 365.9747
503.2971, 368.5418
503.7792, 371.3808
504.2613, 374.3690
504.7434, 378.3105
505.2255, 384.2866
505.7076, 390.0434
506.1898, 394.4579
506.6719, 397.8407
507.1540, 400.8984
507.6361, 403.9973
508.1182, 407.0852
508.6003, 409.9993
509.0825, 412.6653
509.5646, 415.3677
510.0467, 418.4989
510.5288, 421.3514
511.0109, 423.5952
511.4930, 425.2206
511.9752, 426.3397
512.4573, 427.0374
512.9394, 427.2638
513.4215, 426.8226
513.9036, 425.6327
514.3857, 424.2451
514.8679, 422.6175
515.3500, 421.0788
515.8321, 420.3611
516.3142, 420.6762
516.7963, 419.9686
517.2784, 416.6499
517.7606, 412.1102
518.2427, 408.1952
518.7248, 405.0713
519.2069, 402.2254
519.6890, 399.3234
520.1711, 396.4127
520.6533, 393.8441
521.1354, 392.3989
521.6175, 390.1932
522.0996, 386.1342
522.5817, 381.6291
523.0638, 378.2580
523.5460, 376.1836
524.0281, 374.3234
524.5102, 371.6361
524.9923, 368.1615
525.4744, 364.9218
525.9565, 362.4399
526.4387, 359.5252
526.9208, 355.8490
527.4029, 351.6813
527.8850, 347.2907
528.3671, 342.7509
528.8492, 338.0393
529.3314, 333.0279
529.8135, 327.7737
530.2956, 322.7758
530.7777, 318.2439
531.2598, 313.6244
531.7419, 308.4587
532.2241, 303.0151
532.7062, 297.6551
533.1883, 292.5699
533.6704, 287.3491
534.1525, 281.4065
534.6346, 275.1334
535.1168, 269.5158
535.5989, 264.8287
536.0810, 260.2454
536.5631, 254.9153
537.0452, 248.7747
537.5273, 242.9983
538.0095, 237.7440
538.4916, 232.6220
538.9737, 227.4732
539.4558, 222.3476
539.9379, 217.2815
540.4200, 212.3056
540.9022, 207.4770
541.3843, 202.9187
541.8664, 198.6570
542.3485, 194.5131
542.8306, 190.5503
543.3127, 186.6741
543.7948, 182.8756
544.2769, 179.1510
544.7590, 175.5328
545.2411, 172.0339
545.7233, 168.5740
546.2054, 164.9191
546.6875, 161.1108
547.1696, 158.0945
547.6517, 156.3656
548.1339, 154.7860
548.6160, 152.1993
549.0981, 148.9787
549.5802, 146.1463
550.0623, 144.2286
550.5444, 142.4053
551.0266, 140.1877
551.5087, 137.6563
551.9908, 134.8396
552.4729, 131.7214
552.9550, 128.8213
553.4371, 126.8658
553.9193, 126.0774
554.4014, 124.8529
554.8835, 122.7935
555.3656, 120.8078
555.8477, 119.4321
556.3298, 118.2606
556.8120, 116.5883
557.2941, 114.1727
557.7762, 111.6201
558.2583, 109.8128
558.7404, 108.8500
559.2225, 107.8765
559.7047, 106.8518
560.1868, 105.8538
560.6689, 104.9286
561.1510, 104.0473
561.6331, 103.1389
562.1152, 102.1582
562.5974, 101.2233
563.0795, 100.5271
563.5616, 99.97965
564.0437, 99.21580
564.5258, 98.11955
565.0079, 96.98263
565.4901, 96.03654
565.9722, 95.29461
566.4543, 94.70509
566.9364, 94.55765
567.4185, 94.23312
567.9006, 93.30447
568.3828, 92.12980
568.8649, 91.26766
569.3470, 90.84249
569.8291, 90.45750
570.3112, 89.61852
570.7933, 88.27738
571.2755, 87.30631
571.7576, 87.07632
572.2397, 86.75571
572.7218, 85.90487
573.2039, 84.97827
573.6860, 84.55510
574.1682, 84.76626
574.6503, 85.11164
575.1324, 85.20296
575.6145, 85.04241
576.0966, 84.55676
576.5787, 83.63346
577.0609, 82.81541
577.5430, 82.50124
578.0251, 82.51316
578.5072, 82.41312
578.9893, 82.18771
579.4714, 81.86143
579.9536, 81.24117
580.4357, 80.63112
580.9178, 80.53167
581.3999, 80.92485
581.8820, 81.22598
582.3641, 80.96156
582.8463, 80.25079
583.3284, 79.79639
583.8105, 79.99342
584.2926, 79.86710
584.7747, 79.01064
585.2568, 78.07350
585.7390, 77.44322
586.2211, 77.20257
586.7032, 77.38732
587.1853, 78.22302
587.6674, 79.35790
588.1495, 79.78039
588.6317, 79.39921
589.1138, 78.85415
589.5959, 78.24594
590.0780, 77.65635
590.5601, 77.10347
591.0422, 76.58660
591.5244, 76.40234
592.0065, 76.93079
592.4886, 77.60416
592.9707, 77.96885
593.4528, 78.03227
593.9349, 77.82351
594.4171, 77.32150
594.8992, 76.81279
595.3813, 76.83933
595.8634, 77.70267
596.3455, 78.20744
596.8276, 78.24516
597.3098, 78.09326
597.7919, 77.67456
598.2740, 77.19577
598.7561, 77.01575
599.2382, 77.29184
599.7203, 77.69462
600.2025, 77.70527
600.6846, 77.34164
601.1667, 77.30907
601.6488, 77.83857
602.1309, 78.38095
602.6130, 78.45806
603.0952, 78.29339
603.5773, 78.35176
604.0594, 78.83788
604.5415, 79.27808
605.0236, 79.33088
605.5057, 79.22438
605.9879, 79.30399
606.4700, 79.62333
606.9521, 80.06432
607.4342, 80.54346
607.9163, 81.05031
608.3984, 81.51384
608.8806, 81.87263
609.3627, 82.26888
609.8448, 82.66776
610.3269, 83.14024
610.8090, 83.89805
611.2911, 84.82934
611.7733, 85.43790
612.2554, 85.19101
612.7375, 84.55955
613.2196, 84.79153
613.7017, 86.00074
614.1838, 86.85049
614.6660, 86.76134
615.1481, 86.37023
615.6302, 86.41332
616.1123, 86.85928
616.5944, 87.35188
617.0765, 88.08724
617.5587, 88.59425
618.0408, 88.33058
618.5229, 87.62188
619.0050, 87.24853
619.4871, 87.47575
619.9692, 87.82919
620.4514, 87.64255
620.9335, 86.82057
621.4156, 86.17770
621.8977, 85.87515
622.3798, 85.56670
622.8619, 85.22295
623.3441, 84.79965
623.8262, 84.24291
624.3083, 83.54375
624.7904, 82.75953
625.2725, 81.87103
625.7546, 80.94511
626.2367, 80.20586
626.7188, 79.68058
627.2009, 79.11396
627.6830, 78.27462
628.1652, 77.38508
628.6473, 77.06383
629.1294, 77.61958
629.6115, 77.66586
630.0936, 76.48824
630.5757, 75.17254
631.0579, 74.58450
631.5400, 74.53160
632.0221, 74.31145
632.5042, 73.56321
632.9863, 72.61191
633.4684, 72.11391
633.9506, 72.19670
634.4327, 72.08435
634.9148, 71.61214
635.3969, 71.09757
635.8790, 70.68260
636.3611, 70.33940
636.8433, 70.03152
637.3254, 69.77294
637.8075, 69.47724
638.2896, 69.06666
638.7717, 68.58253
639.2538, 68.01516
639.7360, 67.38020
640.2181, 67.02827
640.7002, 67.31213
641.1823, 67.98226
641.6644, 68.01704
642.1465, 66.67149
642.6287, 65.70289
643.1108, 65.17561
643.5929, 64.99110
644.0750, 65.45503
644.5571, 66.20850
645.0392, 66.27139
645.5214, 64.94273
646.0035, 63.18621
646.4856, 62.78203
646.9677, 63.72370
647.4498, 64.40849
647.9319, 64.56418
648.4141, 64.39432
648.8962, 63.84139
649.3783, 63.06870
649.8604, 62.72718
650.3425, 63.24906
650.8246, 63.68768
651.3068, 63.54586
651.7889, 63.18143
652.2710, 63.06669
652.7531, 63.23404
653.2352, 63.36675
653.7173, 63.20050
654.1995, 62.83016
654.6816, 62.66008
655.1637, 62.76555
655.6458, 62.89263
656.1279, 63.14153
656.6100, 63.28065
657.0922, 63.01386
657.5743, 62.49763
658.0564, 62.28804
658.5385, 62.84179
659.0206, 63.44204
659.5027, 63.19805
659.9849, 62.45318
660.4670, 62.29365
660.9491, 62.98631
661.4312, 63.73235
661.9133, 63.77102
662.3954, 63.16715
662.8776, 62.84729
663.3597, 62.95240
663.8418, 63.16615
664.3239, 63.73014
664.8060, 64.19027
665.2881, 63.95587
665.7703, 63.20933
666.2524, 62.81533
666.7345, 63.45011
667.2166, 64.55277
667.6987, 65.15033
668.1808, 65.24888
668.6630, 64.97313
669.1451, 64.15076
669.6272, 63.45032
670.1093, 63.69514
670.5914, 64.77977
671.0735, 65.30431
671.5557, 64.60366
672.0378, 64.12791
672.5199, 64.46146
673.0020, 65.18797
673.4841, 65.99417
673.9662, 66.74058
674.4484, 67.19282
674.9305, 67.09877
675.4126, 66.69156
675.8947, 66.83485
676.3768, 67.72124
676.8589, 68.28968
677.3411, 68.11372
677.8232, 67.79884
678.3053, 67.94650
678.7874, 68.38708
679.2695, 68.47562
679.7516, 67.66386
680.2338, 66.97404
680.7159, 67.15999
681.1980, 67.79863
681.6801, 68.21120
682.1622, 68.29409
682.6443, 68.37705
683.1265, 68.73611
683.6086, 69.31007
684.0907, 69.82125
684.5728, 70.32380
685.0549, 70.64082
685.5370, 70.37702
686.0192, 70.24841
686.5013, 70.90369
686.9834, 72.04575
687.4655, 72.79666
687.9476, 72.78452
688.4297, 72.35581
688.9119, 71.48436
689.3940, 70.48428
689.8761, 70.19025
690.3582, 70.73420
690.8403, 71.44536
691.3224, 71.79858
691.8046, 71.90093
692.2867, 72.27316
692.7688, 73.14314
693.2509, 73.92501
693.7330, 74.71767
694.2151, 75.30730
694.6973, 75.47423
695.1794, 75.34401
695.6615, 75.19334
696.1436, 75.10313
696.6257, 75.16389
697.1078, 75.70774
697.5900, 76.49971
698.0721, 76.58344
698.5542, 75.77522
699.0363, 74.98720
699.5184, 74.80779
700.0005, 75.13461
700.4827, 75.62150
700.9648, 76.39582
701.4469, 77.12179
701.9290, 77.79090
702.4111, 78.41434
702.8932, 78.85319
703.3754, 79.27816
703.8575, 80.12359
704.3396, 81.59730
704.8217, 83.05976
705.3038, 83.59106
705.7859, 83.39710
706.2681, 83.41203
706.7502, 83.68663
707.2323, 84.38626
707.7144, 85.81422
708.1965, 87.55552
708.6786, 88.58656
709.1607, 88.53822
709.6428, 88.90268
710.1249, 90.15933
710.6071, 91.47713
711.0892, 92.41151
711.5713, 93.06813
712.0534, 93.53695
712.5355, 93.88573
713.0176, 94.54311
713.4998, 96.22282
713.9819, 98.68832
714.4640, 100.7335
714.9461, 102.3332
715.4282, 103.4730
715.9103, 103.8763
716.3925, 104.0924
716.8746, 105.0025
717.3567, 106.6548
717.8388, 108.4115
718.3209, 110.1472
718.8030, 112.0513
719.2852, 114.4881
719.7673, 117.0187
720.2494, 118.9613
720.7315, 120.2219
721.2136, 121.4129
721.6957, 123.0993
722.1779, 125.1615
722.6600, 127.1280
723.1421, 128.9786
723.6242, 131.0228
724.1063, 133.4084
724.5884, 135.9149
725.0706, 138.3713
725.5527, 140.7779
726.0348, 142.8669
726.5169, 144.3489
726.9990, 145.8654
727.4811, 147.7059
727.9633, 149.6458
728.4454, 151.4776
728.9275, 153.1465
729.4096, 154.6359
729.8917, 155.9401
730.3738, 157.0436
730.8560, 157.8918
731.3381, 158.4783
731.8202, 158.9333
732.3023, 159.1707
732.7844, 159.5681
733.2665, 160.7909
733.7487, 162.3626
734.2308, 162.5079
734.7129, 160.2768
735.1950, 158.4329
735.6771, 157.9851
736.1592, 157.7410
736.6414, 156.7119
737.1235, 155.0871
737.6056, 153.5405
738.0877, 152.3642
738.5698, 151.3617
739.0519, 150.2529
739.5341, 149.0589
740.0162, 148.0941
740.4983, 147.5505
740.9804, 146.3635
741.4625, 143.7320
741.9446, 140.4004
742.4268, 137.7446
742.9089, 135.8718
743.3910, 134.0126
743.8731, 131.8427
744.3552, 129.9573
744.8373, 128.8468
745.3195, 128.1091
745.8016, 127.2773
746.2837, 126.1961
746.7658, 124.7633
747.2479, 122.6903
747.7300, 120.3111
748.2122, 118.5794
748.6943, 117.5007
749.1764, 116.6339
749.6585, 115.9352
750.1406, 115.1794
750.6227, 113.9385
751.1049, 112.2647
751.5870, 111.6057
752.0691, 112.7934
752.5512, 113.7844
753.0333, 114.2747
753.5154, 114.3859
753.9976, 113.8548
754.4797, 113.0303
754.9618, 112.9184
755.4439, 114.1812
755.9260, 115.8357
756.4081, 116.3747
756.8903, 116.1602
757.3724, 116.7472
757.8545, 118.3553
758.3366, 120.2110
758.8187, 121.8103
759.3008, 123.3843
759.7830, 125.5395
760.2651, 128.6176
760.7472, 131.4947
761.2293, 133.6691
761.7114, 136.2024
762.1935, 139.5956
762.6757, 143.5671
763.1578, 147.6947
763.6399, 151.8849
764.1220, 156.5055
764.6041, 161.8534
765.0862, 167.7731
765.5684, 174.1142
766.0505, 180.8581
766.5326, 187.6940
767.0147, 194.5330
767.4968, 201.6655
767.9789, 209.3239
768.4611, 217.5691
768.9432, 226.5127
769.4253, 236.6739
769.9074, 246.7151
770.3895, 256.2891
770.8716, 265.8240
771.3538, 275.5765
771.8359, 285.4608
772.3180, 295.1595
772.8001, 304.4774
773.2822, 313.7617
773.7643, 323.6576
774.2465, 333.4092
774.7286, 341.9965
775.2107, 349.3163
775.6928, 355.6071
776.1749, 361.0310
776.6570, 365.5159
777.1392, 368.9905
777.6213, 371.5321
778.1034, 372.6475
778.5855, 372.5658
779.0676, 370.5718
779.5497, 365.4519
780.0319, 358.7327
780.5140, 352.5019
780.9961, 346.8354
781.4782, 340.4388
781.9603, 332.7953
782.4424, 324.5592
782.9246, 315.6866
783.4067, 306.6060
783.8888, 297.9236
784.3709, 289.7515
784.8530, 281.8676
785.3351, 274.1361
785.8173, 266.5131
786.2994, 258.8846
786.7815, 251.2769
787.2636, 244.0565
787.7457, 237.2325
788.2278, 231.0439
788.7100, 225.8997
789.1921, 221.5346
789.6742, 216.9683
790.1563, 211.6692
790.6384, 207.1268
791.1205, 204.0282
791.6026, 201.0960
792.0847, 197.2954
792.5668, 193.2669
793.0490, 190.1152
793.5311, 188.1706
794.0132, 186.8061
794.4953, 185.7146
794.9774, 184.7630
795.4595, 183.6920
795.9417, 182.5287
796.4238, 181.4930
796.9059, 180.6508
797.3880, 179.9256
797.8701, 179.1259
798.3522, 178.3216
798.8344, 178.7676
799.3165, 181.1808
799.7986, 183.4613
800.2807, 185.2799
800.7628, 186.8624
801.2449, 188.1162
801.7271, 189.2325
802.2092, 190.6338
802.6913, 192.2709
803.1734, 194.5609
803.6555, 197.9387
804.1376, 201.9040
804.6198, 205.9797
805.1019, 210.1341
805.5840, 214.5465
806.0661, 219.2646
806.5482, 224.1376
807.0303, 228.8306
807.5125, 233.4287
807.9946, 238.7176
808.4767, 244.8216
808.9588, 251.0704
809.4409, 257.2638
809.9230, 263.4362
810.4052, 269.6384
810.8873, 275.8655
811.3694, 281.9538
811.8515, 288.1643
812.3336, 293.8528
812.8157, 299.0785
813.2979, 303.5581
813.7800, 306.9276
814.2621, 309.3126
814.7442, 311.2783
815.2263, 313.2433
815.7084, 313.8839
816.1906, 311.4745
816.6727, 306.9396
817.1548, 302.1114
817.6369, 297.0780
818.1190, 291.2739
818.6011, 284.4243
819.0833, 276.8961
819.5654, 269.0890
820.0475, 260.9540
820.5296, 253.6232
821.0117, 247.3786
821.4938, 241.2554
821.9760, 235.4563
822.4581, 229.3041
822.9402, 221.8335
823.4223, 213.4468
823.9044, 206.1033
824.3865, 201.0786
824.8687, 195.8235
825.3508, 188.7690
825.8329, 181.4422
826.3150, 175.4102
826.7971, 170.4686
827.2792, 165.6086
827.7614, 160.3607
828.2435, 155.1692
828.7256, 150.4907
829.2077, 146.3135
829.6898, 142.7308
830.1719, 139.7589
830.6541, 136.7278
831.1362, 133.4473
831.6183, 129.7979
832.1004, 125.4257
832.5825, 120.3762
833.0646, 116.4533
833.5468, 114.2323
834.0289, 112.3120
834.5110, 111.0462
834.9931, 109.5427
835.4752, 106.8292
835.9573, 103.4639
836.4395, 100.8998
836.9216, 99.69310
837.4037, 98.67813
837.8858, 97.29182
838.3679, 95.74466
838.8500, 94.28635
839.3322, 92.85088
839.8143, 91.12901
840.2964, 89.05489
840.7785, 87.09518
841.2606, 85.74728
841.7427, 84.95831
842.2249, 84.75905
842.7070, 85.20051
843.1891, 84.97683
843.6712, 83.66551
844.1533, 81.93040
844.6354, 80.14347
845.1176, 78.44449
845.5997, 77.55472
846.0818, 78.40550
846.5639, 78.59273
847.0460, 77.48225
847.5281, 76.41618
848.0103, 76.25215
848.4924, 76.43317
848.9745, 75.97370
849.4566, 74.68234
849.9387, 73.64058
850.4208, 73.64777
850.9030, 73.92863
851.3851, 73.81639
851.8672, 73.43668
852.3493, 73.00098
852.8314, 72.58949
853.3135, 72.31721
853.7957, 72.30446
854.2778, 72.39472
854.7599, 72.17387
855.2420, 71.65180
855.7241, 71.39701
856.2062, 71.53849
856.6884, 71.58320
857.1705, 71.18369
857.6526, 70.64143
858.1347, 70.57445
858.6168, 71.20110
859.0989, 71.30775
859.5811, 70.48524
860.0632, 69.68628
860.5453, 69.29259
861.0274, 68.88301
861.5095, 67.88191
861.9916, 66.46435
862.4738, 65.52321
862.9559, 65.56528
863.4380, 65.75882
863.9201, 65.81281
864.4022, 65.56038
864.8843, 64.54157
865.3665, 63.02040
865.8486, 61.84834
866.3307, 61.38229
866.8128, 61.25458
867.2949, 61.06622
867.7770, 60.83550
868.2592, 60.63745
868.7413, 60.47268
869.2234, 60.39496
869.7055, 60.49099
870.1876, 60.32965
870.6697, 59.36587
871.1519, 57.84061
871.6340, 57.15348
872.1161, 57.87434
872.5981, 58.33836
873.0803, 58.43852
873.5624, 58.30373
874.0445, 57.82792
874.5266, 57.21869
875.0087, 56.76245
875.4908, 56.50323
875.9730, 56.28314
876.4551, 56.14837
876.9372, 55.93003
877.4193, 55.39790
877.9014, 54.78856
878.3835, 54.41888
878.8657, 54.30952
879.3478, 54.30560
879.8299, 54.33646
880.3120, 54.34852
880.7941, 54.21337
881.2762, 54.00288
881.7584, 54.07905
882.2405, 54.41760
882.7226, 54.28299
883.2047, 53.29387
883.6868, 52.13662
884.1689, 51.79873
884.6511, 52.24438
885.1332, 52.29687
885.6153, 51.73815
886.0974, 51.39525
886.5795, 51.53986
887.0616, 51.80129
887.5438, 51.97600
888.0259, 52.04177
888.5080, 51.91284
888.9901, 51.44411
889.4722, 51.12445
889.9543, 51.19100
890.4365, 51.23856
890.9186, 51.13827
891.4007, 50.84414
891.8828, 50.13095
892.3649, 49.07648
892.8470, 48.42025
893.3292, 48.82930
893.8113, 49.49645
894.2934, 49.70250
894.7755, 49.60390
895.2576, 49.41979
895.7397, 49.20171
896.2219, 48.96534
896.7040, 48.71764
897.1861, 48.52357
897.6682, 48.55809
898.1503, 48.76613
898.6324, 48.67218
899.1146, 48.25729
899.5967, 47.80392
900.0788, 47.39186
900.5609, 46.95901
901.0430, 46.36132
901.5251, 45.70328
902.0073, 45.69326
902.4894, 46.95299
902.9715, 47.57551
903.4536, 46.85053
903.9357, 46.19377
904.4178, 46.46408
904.9000, 47.05455
905.3821, 47.02799
905.8642, 46.26904
906.3463, 45.83236
906.8284, 46.21251
907.3105, 46.67772
907.7927, 47.08009
908.2748, 47.26391
908.7569, 46.88683
909.2390, 46.14893
909.7211, 45.70405
910.2032, 45.87512
910.6854, 46.21335
911.1675, 46.49611
911.6496, 46.57284
912.1317, 45.84376
912.6138, 44.66938
913.0959, 44.49591
913.5781, 45.68019
914.0602, 46.86408
914.5423, 46.73927
915.0244, 45.72718
915.5065, 45.04607
915.9886, 44.69679
916.4708, 44.55345
916.9529, 44.64285
917.4350, 44.68702
917.9171, 44.49532
918.3992, 44.24520
918.8813, 44.28538
919.3635, 44.69412
919.8456, 44.78813
920.3277, 44.39690
920.8098, 43.97052
921.2919, 43.22909
921.7740, 42.82399
922.2562, 43.59363
922.7383, 45.06157
923.2204, 45.77030
923.7025, 45.27509
924.1846, 44.73511
924.6667, 44.40095
925.1489, 44.13680
925.6310, 43.90302
926.1131, 43.66691
926.5952, 43.30164
927.0773, 42.85308
927.5594, 42.70900
928.0416, 43.36000
928.5237, 43.94081
929.0058, 43.36726
929.4879, 42.36199
929.9700, 42.16723
930.4521, 42.67749
930.9343, 42.98945
931.4164, 42.72886
931.8985, 42.38810
932.3806, 42.58026
932.8627, 43.13584
933.3448, 43.55343
933.8270, 43.82924
934.3091, 43.81086
934.7912, 43.43468
935.2733, 43.38163
935.7554, 44.25191
936.2375, 45.47385
936.7197, 45.59361
937.2018, 44.37959
937.6839, 43.35809
938.1660, 42.49220
938.6481, 41.91876
939.1302, 41.80434
939.6124, 41.84418
940.0945, 41.73994
940.5766, 41.50620
941.0587, 41.27922
941.5408, 41.05001
942.0229, 40.83895
942.5051, 40.73835
942.9872, 40.55501
943.4693, 39.93227
943.9514, 39.30655
944.4335, 39.41850
944.9156, 40.31716
945.3978, 40.95124
945.8799, 40.76446
946.3620, 40.47003
946.8441, 40.28523
947.3262, 40.28392
947.8083, 40.79383
948.2905, 41.51536
948.7726, 41.63353
949.2547, 40.84155
949.7368, 39.98103
950.2189, 39.63027
950.7010, 39.70539
951.1832, 40.37884
951.6653, 41.32189
952.1474, 41.75494
952.6295, 41.56054
953.1116, 41.05782
953.5938, 40.42173
954.0759, 39.78319
954.5580, 39.31212
955.0400, 39.02381
955.5222, 39.17943
956.0043, 39.76240
956.4864, 39.68748
956.9685, 38.51802
957.4506, 37.40653
957.9327, 37.54345
958.4149, 38.58667
958.8970, 39.06453
959.3791, 38.85850
959.8612, 38.68962
960.3433, 38.61942
960.8254, 38.54991
961.3076, 38.41197
961.7897, 38.28421
962.2718, 38.28429
962.7539, 38.41499
963.2360, 38.52348
963.7181, 38.75665
964.2003, 38.73598
964.6824, 37.97484
965.1645, 37.43614
965.6466, 37.86277
966.1287, 38.75805
966.6108, 39.27035
967.0930, 39.29749
967.5751, 39.24462
968.0572, 39.08721
968.5393, 39.00280
969.0214, 39.19059
969.5035, 39.37727
969.9857, 39.36158
970.4678, 39.12101
970.9499, 38.55897
971.4320, 37.55957
971.9141, 36.93142
972.3962, 37.44960
972.8784, 38.24925
973.3605, 38.48635
973.8426, 38.52626
974.3247, 39.16382
974.8068, 40.30854
975.2889, 41.02808
975.7711, 40.75498
976.2532, 40.17391
976.7353, 39.86129
977.2174, 39.86311
977.6995, 40.58874
978.1816, 41.71293
978.6638, 41.98550
979.1459, 41.14296
979.6280, 40.18337
980.1101, 39.93595
980.5922, 40.00397
981.0743, 39.40858
981.5565, 38.34078
982.0386, 38.12126
982.5207, 38.81598
983.0028, 39.30905
983.4849, 39.16166
983.9670, 38.72458
984.4492, 38.35219
984.9313, 38.04630
985.4134, 37.84554
985.8955, 37.78306
986.3776, 37.51677
986.8597, 36.89878
987.3419, 36.52240
987.8240, 36.74347
988.3061, 37.22863
988.7882, 37.52492
989.2703, 37.63190
989.7524, 37.66230
990.2346, 37.53968
990.7167, 37.52246
991.1988, 37.80924
991.6809, 37.96336
992.1630, 37.53682
992.6451, 36.92607
993.1273, 36.92781
993.6094, 37.67483
994.0915, 38.05603
994.5736, 37.75531
995.0557, 37.50960
995.5378, 37.44924
996.0200, 37.49342
996.5021, 37.70660
996.9842, 37.94802
997.4663, 37.85548
997.9484, 37.28634
998.4305, 37.10770
998.9127, 37.87054
999.3948, 38.64742
999.8769, 39.09909
1000.359, 39.33601
1000.841, 39.40806
1001.323, 39.37311
1001.805, 39.30892
1002.287, 39.22070
1002.770, 39.23882
1003.252, 39.65808
1003.734, 39.96446
1004.216, 39.72237
1004.698, 39.17615
1005.180, 38.55218
1005.662, 37.95857
1006.144, 37.52506
1006.627, 37.29168
1007.109, 37.33672
1007.591, 38.01995
1008.073, 38.77141
1008.555, 38.87129
1009.037, 38.53964
1009.519, 38.13039
1010.001, 37.79051
1010.483, 37.79488
1010.966, 38.36586
1011.448, 38.87643
1011.930, 38.36117
1012.412, 37.36797
1012.894, 37.02400
1013.376, 37.17327
1013.858, 37.09896
1014.340, 36.68098
1014.823, 36.46085
1015.305, 36.85037
1015.787, 37.45749
1016.269, 37.64939
1016.751, 37.50622
1017.233, 37.14962
1017.715, 36.67892
1018.197, 36.98931
1018.679, 38.30230
1019.162, 39.20148
1019.644, 38.43703
1020.126, 36.82976
1020.608, 36.26925
1021.090, 36.67401
1021.572, 36.88257
1022.054, 36.84098
1022.536, 36.91057
1023.018, 37.21464
1023.501, 37.59882
1023.983, 37.94317
1024.465, 38.22950
1024.947, 38.40765
1025.429, 38.48009
1025.911, 38.36016
1026.393, 37.98332
1026.875, 37.75867
1027.358, 37.86552
1027.840, 38.05231
1028.322, 38.10118
1028.804, 38.00694
1029.286, 37.67031
1029.768, 37.83800
1030.250, 36.80384
1030.732, 37.82592
1031.214, 38.50212
1031.697, 38.25018
1032.179, 37.56202
1032.661, 36.79219
1033.143, 36.03767
1033.625, 35.80791
1034.107, 36.29697
1034.589, 36.85770
1035.071, 37.74508
1035.553, 38.21764
1036.036, 37.79474
1036.518, 37.08982
1037.000, 36.63705
1037.482, 36.43531
1037.964, 36.49526
1038.446, 37.11816
1038.928, 37.39627
1039.410, 36.67783
1039.893, 36.50203
1040.375, 38.27410
1040.857, 40.10748
1041.339, 39.86176
1041.821, 37.96498
1042.303, 36.75399
1042.785, 36.66022
1043.267, 36.48117
1043.750, 36.03663
1044.232, 35.66378
1044.714, 35.50692
1045.196, 35.45629
1045.678, 35.47755
1046.160, 35.52124
1046.642, 35.37258
1047.124, 34.85942
1047.606, 34.49927
1048.089, 34.37438
1048.571, 34.39656
1049.053, 34.66780
1049.535, 34.96120
1050.017, 35.11660
1050.499, 35.10257
1050.981, 34.75092
1051.463, 33.50663
1051.945, 33.36270
1052.428, 36.44178
1052.910, 38.64673
1053.392, 37.33830
1053.874, 34.89030
1054.356, 33.54960
1054.838, 33.24516
1055.320, 33.02665
1055.802, 32.68443
1056.285, 32.48414
1056.767, 32.56646
1057.249, 32.72854
1057.731, 32.95189
1058.213, 33.14402
1058.695, 33.19645
1059.177, 33.14401
1059.659, 33.11860
1060.141, 33.17040
1060.624, 33.15371
1061.106, 32.83809
1061.588, 32.65891
1062.070, 33.04626
1062.552, 33.51017
1063.034, 33.61790
1063.516, 33.36562
1063.998, 32.65439
1064.480, 31.27158
1064.963, 30.95363
1065.445, 33.91351
1065.927, 36.24597
1066.409, 35.32721
1066.891, 33.29039
1067.373, 31.97405
1067.855, 31.38064
1068.337, 30.94804
1068.820, 30.53737
1069.302, 30.39726
1069.784, 30.83703
1070.266, 31.32087
1070.748, 31.66909
1071.230, 31.84640
1071.712, 31.79850
1072.194, 31.57042
1072.677, 31.14993
1073.159, 30.54997
1073.641, 30.28476
1074.123, 30.89209
1074.605, 31.48853
1075.087, 31.63448
1075.569, 31.56629
1076.051, 31.44807
1076.533, 31.29231
1077.016, 31.07441
1077.498, 30.79365
1077.980, 30.49803
1078.462, 30.14499
1078.944, 29.87067
1079.426, 29.72836
1079.908, 29.70119
1080.390, 29.70892
1080.872, 29.85487
1081.354, 30.53151
1081.837, 31.63162
1082.319, 32.06686
1082.801, 30.96307
1083.283, 30.03732
1083.765, 30.34342
1084.247, 30.85574
1084.729, 30.73529
1085.211, 30.40664
1085.694, 30.59989
1086.176, 31.25709
1086.658, 31.63484
1087.140, 31.40378
1087.622, 31.11257
1088.104, 31.03875
1088.586, 30.92418
1089.068, 30.09100
1089.551, 29.49379
1090.033, 30.91600
1090.515, 33.60363
1090.997, 34.55001
1091.479, 32.55791
1091.961, 30.64271
1092.443, 29.87225
1092.925, 29.54725
1093.407, 29.45637
1093.890, 29.52548
1094.372, 29.78956
1094.854, 30.14702
1095.336, 30.37446
1095.818, 30.41498
1096.300, 30.43551
1096.782, 30.47388
1097.264, 30.52187
1097.746, 30.65535
1098.229, 30.72280
1098.711, 30.54053
1099.193, 30.23073
1099.675, 29.99327
1100.157, 29.85750
1100.639, 29.87381
1101.121, 30.14714
1101.603, 30.44195
1102.086, 30.82444
1102.568, 31.07162
1103.050, 30.87735
1103.532, 30.55915
1104.014, 30.63063
1104.496, 31.07405
1104.978, 31.29537
1105.460, 31.00204
1105.943, 30.80832
1106.425, 30.74558
1106.907, 30.87756
1107.389, 31.61804
1107.871, 32.27887
1108.353, 31.90281
1108.835, 30.75632
1109.317, 30.19261
1109.799, 30.56530
1110.281, 30.89020
1110.764, 31.06547
1111.246, 31.22801
1111.728, 31.48009
1112.210, 31.67684
1112.692, 31.67731
1113.174, 31.53925
1113.656, 31.38927
1114.138, 31.18961
1114.621, 31.15808
1115.103, 31.55706
1115.585, 31.68553
1116.067, 31.19901
1116.549, 30.73125
1117.031, 30.73191
1117.513, 30.91069
1117.995, 30.80892
1118.478, 30.42595
1118.960, 29.91577
1119.442, 29.05473
1119.924, 28.63434
1120.406, 28.96767
1120.888, 29.22290
1121.370, 28.94055
1121.852, 28.59306
1122.334, 28.80215
1122.817, 29.40243
1123.299, 29.45144
1123.781, 28.78596
1124.263, 28.20119
1124.745, 27.63301
1125.227, 27.49372
1125.709, 28.01882
1126.191, 28.68069
1126.673, 29.09704
1127.156, 29.23578
1127.638, 28.90904
1128.120, 29.00041
1128.602, 28.95971
1129.084, 28.55940
1129.566, 28.82359
1130.048, 28.46445
1130.530, 28.09607
1131.013, 28.09303
1131.495, 28.15308
1131.977, 27.77725
1132.459, 27.10538
1132.941, 26.79679
1133.423, 26.84395
1133.905, 27.30101
1134.387, 28.13901
1134.870, 28.65420
1135.352, 28.56913
1135.834, 28.29074
1136.316, 28.20254
1136.798, 28.19798
1137.280, 28.00907
1137.762, 27.96029
1138.244, 27.90142
1138.726, 27.75195
1139.208, 27.76663
1139.691, 27.63112
1140.173, 27.49075
1140.655, 27.43718
1141.137, 27.40258
1141.619, 27.26622
1142.101, 27.11297
1142.583, 27.09446
1143.065, 27.18038
1143.548, 27.29560
1144.030, 27.43830
1144.512, 27.68916
1144.994, 28.06973
1145.476, 28.35398
1145.958, 28.31572
1146.440, 28.15702
1146.922, 28.10399
1147.405, 28.03379
1147.887, 27.59483
1148.369, 27.08496
1148.851, 27.27616
1149.333, 28.16566
1149.815, 28.74247
1150.297, 28.41161
1150.779, 28.01005
1151.261, 28.05574
1151.744, 28.18177
1152.226, 28.04241
1152.708, 27.88597
1153.190, 28.07874
1153.672, 28.53131
1154.154, 28.89158
1154.636, 29.08365
1155.118, 29.17636
1155.600, 29.22380
1156.083, 29.12944
1156.565, 28.39522
1157.047, 27.98330
1157.529, 29.21074
1158.011, 30.87547
1158.493, 30.79755
1158.975, 28.91375
1159.457, 27.70733
1159.940, 27.48911
1160.422, 27.70170
1160.904, 28.94558
1161.386, 29.70313
1161.868, 29.16247
1162.350, 28.27945
1162.832, 27.90678
1163.314, 27.87566
1163.796, 27.63561
1164.279, 27.09302
1164.761, 26.88836
1165.243, 27.11018
1165.725, 27.39329
1166.207, 27.73758
1166.689, 27.84178
1167.171, 27.42389
1167.653, 27.02614
1168.135, 27.53775
1168.618, 28.69046
1169.100, 28.86397
1169.582, 28.07425
1170.064, 27.53244
1170.546, 27.33879
1171.028, 27.33066
1171.510, 27.45384
1171.992, 27.44778
1172.474, 27.08164
1172.957, 26.57321
1173.439, 26.22922
1173.921, 26.07045
1174.403, 26.26617
1174.885, 26.68744
1175.367, 26.91210
1175.849, 26.89431
1176.331, 26.76935
1176.814, 26.60435
1177.296, 26.54545
1177.778, 26.88369
1178.260, 27.17609
1178.742, 26.65261
1179.224, 26.93270
1179.706, 26.10357
1180.188, 26.72764
1180.671, 26.90069
1181.153, 26.54247
1181.635, 26.33261
1182.117, 26.62510
1182.599, 26.88340
1183.081, 26.81810
1183.563, 26.63039
1184.045, 26.38739
1184.527, 26.13387
1185.010, 25.94789
1185.492, 25.76875
1185.974, 25.34878
1186.456, 24.61614
1186.938, 24.40022
1187.420, 25.48728
1187.902, 26.10643
1188.384, 25.50846
1188.866, 24.96756
1189.349, 25.05297
1189.831, 25.44217
1190.313, 25.92469
1190.795, 26.40938
1191.277, 26.49320
1191.759, 26.61368
1192.241, 26.66743
1192.723, 26.31479
1193.206, 26.43167
1193.688, 25.97189
1194.170, 25.61651
1194.652, 25.80024
1195.134, 26.15201
1195.616, 26.13577
1196.098, 25.85358
1196.580, 25.66584
1197.063, 25.59675
1197.545, 26.04624
1198.027, 26.94673
1198.509, 27.38844
1198.991, 27.13448
1199.473, 26.70395
1199.955, 26.44666
1200.437, 26.24803
1200.919, 26.00426
1201.401, 25.68125
1201.884, 24.98667
1202.366, 24.28018
1202.848, 24.33729
1203.330, 25.04036
1203.812, 25.90629
1204.294, 26.72921
1204.776, 27.15212
1205.258, 26.87099
1205.741, 26.32152
1206.223, 25.31021
1206.705, 24.64346
1207.187, 25.31564
1207.669, 26.41830
1208.151, 26.87927
1208.633, 26.73849
1209.115, 26.47818
1209.598, 26.13703
1210.080, 25.90945
1210.562, 25.95552
1211.044, 25.92053
1211.526, 25.67433
1212.008, 25.40134
1212.490, 25.08103
1212.972, 24.89423
1213.454, 25.12762
1213.937, 25.66430
1214.419, 25.92063
1214.901, 25.82687
1215.383, 25.82722
1215.865, 25.96263
1216.347, 25.93393
1216.829, 25.66009
1217.311, 25.29479
1217.793, 24.89434
1218.276, 24.72500
1218.758, 25.26602
1219.240, 26.14738
1219.722, 26.21356
1220.204, 25.72601
1220.686, 25.58685
1221.168, 25.81016
1221.650, 26.22213
1222.133, 26.71236
1222.615, 26.95894
1223.097, 26.75724
1223.579, 26.49339
1224.061, 26.53525
1224.543, 26.66275
1225.025, 26.64141
1225.507, 26.59878
1225.990, 26.84682
1226.472, 27.13309
1226.954, 26.78140
1227.436, 25.79997
1227.918, 25.30561
1228.400, 25.88895
1228.882, 26.41216
1229.364, 26.73042
1229.846, 26.78903
1230.328, 26.45104
1230.811, 25.95426
1231.293, 25.36460
1231.775, 24.81495
1232.257, 24.58138
1232.739, 24.66152
1233.221, 24.66059
1233.703, 24.46756
1234.185, 24.74085
1234.668, 25.61558
1235.150, 26.50632
1235.632, 27.25000
1236.114, 27.72726
1236.596, 27.83050
1237.078, 27.68656
1237.560, 27.45759
1238.042, 27.18664
1238.525, 27.01813
1239.007, 26.92650
1239.489, 26.83343
1239.971, 26.73262
1240.453, 26.60175
1240.935, 26.46069
1241.417, 26.52776
1241.899, 27.05806
1242.381, 27.41285
1242.864, 26.73351
1243.346, 26.05421
1243.828, 26.36624
1244.310, 27.05094
1244.792, 27.54990
1245.274, 27.76313
1245.756, 27.50087
1246.238, 26.74734
1246.720, 26.42231
1247.203, 26.96182
1247.685, 27.46713
1248.167, 28.08335
1248.649, 28.31075
1249.131, 27.81063
1249.613, 27.16915
1250.095, 26.78761
1250.577, 26.61810
1251.059, 26.59082
1251.542, 26.68919
1252.024, 26.70980
1252.506, 26.65321
1252.988, 26.59605
1253.470, 26.54398
1253.952, 26.45195
1254.434, 26.31033
1254.916, 26.16035
1255.399, 26.01609
1255.881, 26.01342
1256.363, 26.42065
1256.845, 26.98941
1257.327, 27.46781
1257.809, 27.78359
1258.291, 27.79873
1258.773, 27.57987
1259.255, 27.16268
1259.738, 26.64471
1260.220, 26.52052
1260.702, 27.12573
1261.184, 27.68932
1261.666, 28.21125
1262.148, 28.31792
1262.630, 27.45620
1263.112, 26.55160
1263.594, 26.20505
1264.077, 26.26317
1264.559, 26.51612
1265.041, 26.96968
1265.523, 27.80178
1266.005, 29.24147
1266.487, 29.39693
1266.969, 27.96514
1267.451, 28.10605
1267.934, 30.63889
1268.416, 32.04600
1268.898, 30.29337
1269.380, 27.70457
1269.862, 26.94968
1270.344, 27.26495
1270.826, 27.50993
1271.308, 27.65130
1271.791, 27.58574
1272.273, 27.38333
1272.755, 27.11780
1273.237, 26.87163
1273.719, 26.91208
1274.201, 27.36087
1274.683, 27.55422
1275.165, 26.86418
1275.647, 26.33972
1276.130, 26.57169
1276.612, 26.84823
1277.094, 26.61621
1277.576, 26.33904
1278.058, 26.61218
1278.540, 27.19534
1279.022, 27.42318
1279.504, 27.27805
1279.986, 26.97915
1280.469, 26.45413
1280.951, 26.34278
1281.433, 26.74876
1281.915, 27.12221
1282.397, 27.26749
1282.879, 27.18782
1283.361, 26.85231
1283.843, 26.52569
1284.326, 26.52297
1284.808, 26.84346
##END=



