##NAMES=Djurleite
##RRUFFID=R070333
##IDEAL CHEMISTRY=Cu_31_S_16_
##LOCALITY=Cornwall, England
##OWNER=RRUFF
##SOURCE=Michael Scott
##DESCRIPTION=Aggregate of black metallic prismatic crystals with bluish tarnish
##STATUS=The identification of this mineral has been confirmed by X-ray diffraction and chemical analysis
##URL=rruff.info/R070333
##MEASURED CHEMISTRY=Cu_30.75_S_16_ = Cu_1.92_S
166.2887, 1659.152
166.7709, 1663.219
167.2530, 1670.477
167.7351, 1680.843
168.2172, 1688.869
168.6993, 1695.647
169.1814, 1699.130
169.6636, 1696.135
170.1457, 1685.514
170.6278, 1671.157
171.1099, 1651.896
171.5920, 1629.216
172.0741, 1617.115
172.5563, 1626.885
173.0384, 1651.957
173.5205, 1673.818
174.0026, 1690.328
174.4847, 1701.648
174.9668, 1709.577
175.4490, 1714.089
175.9311, 1713.854
176.4132, 1706.237
176.8953, 1691.397
177.3774, 1676.999
177.8595, 1661.665
178.3417, 1649.507
178.8238, 1644.456
179.3059, 1646.613
179.7880, 1650.742
180.2701, 1651.489
180.7522, 1648.544
181.2344, 1643.344
181.7165, 1628.918
182.1986, 1616.882
182.6807, 1615.991
183.1628, 1628.399
183.6449, 1647.638
184.1271, 1664.181
184.6092, 1681.392
185.0913, 1687.896
185.5734, 1676.149
186.0555, 1658.609
186.5376, 1646.550
187.0198, 1644.498
187.5019, 1647.771
187.9840, 1643.561
188.4661, 1617.082
188.9482, 1602.132
189.4303, 1610.705
189.9125, 1628.944
190.3946, 1640.361
190.8767, 1636.411
191.3588, 1620.494
191.8409, 1608.397
192.3230, 1595.936
192.8052, 1591.930
193.2873, 1604.041
193.7694, 1625.459
194.2515, 1645.727
194.7336, 1659.442
195.2157, 1666.229
195.6979, 1661.043
196.1800, 1625.926
196.6621, 1599.827
197.1442, 1603.136
197.6263, 1628.818
198.1084, 1654.834
198.5906, 1667.013
199.0727, 1665.417
199.5548, 1661.456
200.0369, 1651.478
200.5190, 1642.473
201.0011, 1637.299
201.4833, 1636.309
201.9654, 1641.569
202.4475, 1660.373
202.9296, 1688.598
203.4117, 1695.633
203.8938, 1659.808
204.3760, 1615.317
204.8581, 1590.896
205.3402, 1588.364
205.8223, 1599.452
206.3044, 1628.296
206.7865, 1667.685
207.2687, 1690.395
207.7508, 1677.007
208.2329, 1649.514
208.7150, 1640.173
209.1971, 1655.452
209.6792, 1670.543
210.1614, 1657.750
210.6435, 1628.512
211.1256, 1609.891
211.6077, 1618.490
212.0898, 1643.650
212.5719, 1662.161
213.0541, 1671.020
213.5362, 1677.077
214.0183, 1688.409
214.5004, 1701.528
214.9825, 1706.799
215.4646, 1691.078
215.9468, 1661.260
216.4289, 1648.305
216.9110, 1664.923
217.3931, 1682.168
217.8752, 1682.145
218.3573, 1669.126
218.8395, 1655.588
219.3216, 1651.396
219.8037, 1655.563
220.2858, 1654.933
220.7679, 1643.497
221.2500, 1633.527
221.7322, 1630.897
222.2143, 1634.596
222.6964, 1640.683
223.1785, 1647.201
223.6606, 1654.315
224.1427, 1657.972
224.6249, 1648.402
225.1070, 1644.206
225.5891, 1659.631
226.0712, 1665.910
226.5533, 1689.094
227.0354, 1700.581
227.5176, 1701.000
227.9997, 1657.202
228.4818, 1670.501
228.9639, 1660.918
229.4460, 1650.397
229.9281, 1671.733
230.4103, 1634.365
230.8924, 1655.196
231.3745, 1671.451
231.8566, 1685.245
232.3387, 1698.374
232.8208, 1705.931
233.3030, 1701.910
233.7851, 1688.313
234.2672, 1652.492
234.7493, 1679.469
235.2314, 1694.750
235.7135, 1698.964
236.1957, 1658.959
236.6778, 1676.052
237.1599, 1670.264
237.6420, 1663.536
238.1241, 1688.666
238.6062, 1655.093
239.0884, 1679.717
239.5705, 1681.110
240.0526, 1693.136
240.5347, 1682.138
241.0168, 1678.251
241.4989, 1697.395
241.9811, 1703.787
242.4632, 1681.767
242.9453, 1649.147
243.4274, 1627.228
243.9095, 1617.585
244.3916, 1615.658
244.8738, 1622.658
245.3559, 1636.801
245.8380, 1649.644
246.3201, 1650.396
246.8022, 1632.270
247.2843, 1624.103
247.7665, 1629.062
248.2486, 1640.596
248.7307, 1658.869
249.2128, 1681.936
249.6949, 1699.794
250.1770, 1699.303
250.6592, 1671.237
251.1413, 1657.287
251.6234, 1668.442
252.1055, 1685.390
252.5876, 1695.121
253.0697, 1695.503
253.5519, 1689.995
254.0340, 1681.082
254.5161, 1666.467
254.9982, 1659.717
255.4803, 1668.971
255.9624, 1680.561
256.4445, 1682.820
256.9267, 1674.551
257.4088, 1663.784
257.8909, 1658.364
258.3730, 1659.443
258.8551, 1662.911
259.3372, 1669.119
259.8194, 1677.459
260.3015, 1691.209
260.7836, 1709.833
261.2657, 1722.327
261.7478, 1715.322
262.2299, 1684.684
262.7121, 1665.363
263.1942, 1667.679
263.6763, 1675.037
264.1584, 1672.163
264.6405, 1658.050
265.1227, 1645.140
265.6048, 1646.072
266.0869, 1662.164
266.5690, 1672.319
267.0511, 1674.394
267.5332, 1671.606
268.0154, 1663.675
268.4975, 1651.190
268.9796, 1641.714
269.4617, 1642.503
269.9438, 1653.779
270.4259, 1662.851
270.9081, 1670.886
271.3902, 1675.592
271.8723, 1674.361
272.3544, 1667.259
272.8365, 1657.040
273.3186, 1642.387
273.8008, 1625.509
274.2829, 1622.085
274.7650, 1646.503
275.2471, 1673.921
275.7292, 1685.362
276.2113, 1681.077
276.6935, 1672.716
277.1756, 1667.861
277.6577, 1665.507
278.1398, 1659.683
278.6219, 1645.170
279.1040, 1631.350
279.5862, 1625.603
280.0683, 1627.182
280.5504, 1629.854
281.0325, 1630.546
281.5146, 1629.071
281.9967, 1625.902
282.4789, 1617.844
282.9610, 1610.985
283.4431, 1610.944
283.9252, 1616.404
284.4073, 1619.794
284.8894, 1616.783
285.3716, 1608.861
285.8537, 1601.344
286.3358, 1591.882
286.8179, 1585.676
287.3000, 1585.362
287.7821, 1590.676
288.2643, 1602.087
288.7464, 1623.852
289.2285, 1648.362
289.7106, 1656.434
290.1927, 1638.300
290.6748, 1622.831
291.1570, 1628.583
291.6391, 1648.737
292.1212, 1661.924
292.6033, 1658.644
293.0854, 1645.518
293.5675, 1636.013
294.0497, 1630.802
294.5318, 1626.333
295.0139, 1619.522
295.4960, 1612.412
295.9781, 1610.222
296.4602, 1615.446
296.9424, 1624.578
297.4245, 1633.274
297.9066, 1643.734
298.3887, 1646.383
298.8708, 1631.865
299.3529, 1608.735
299.8351, 1590.823
300.3172, 1581.160
300.7993, 1579.455
301.2814, 1588.944
301.7635, 1610.790
302.2456, 1628.488
302.7278, 1639.287
303.2099, 1643.382
303.6920, 1637.951
304.1741, 1621.415
304.6562, 1604.717
305.1383, 1602.242
305.6205, 1615.000
306.1026, 1622.625
306.5847, 1617.641
307.0668, 1608.875
307.5489, 1606.107
308.0310, 1610.557
308.5132, 1615.605
308.9953, 1614.161
309.4774, 1606.006
309.9595, 1603.174
310.4416, 1615.555
310.9237, 1626.775
311.4059, 1621.698
311.8880, 1600.725
312.3701, 1576.619
312.8522, 1556.707
313.3343, 1542.185
313.8164, 1537.013
314.2986, 1546.104
314.7807, 1559.658
315.2628, 1576.290
315.7449, 1593.792
316.2270, 1603.678
316.7091, 1598.279
317.1913, 1581.506
317.6734, 1576.478
318.1555, 1591.171
318.6376, 1606.991
319.1197, 1619.193
319.6018, 1627.343
320.0840, 1629.651
320.5661, 1624.154
321.0482, 1614.202
321.5303, 1611.391
322.0124, 1623.271
322.4945, 1630.904
322.9767, 1627.152
323.4588, 1617.506
323.9409, 1610.476
324.4230, 1609.413
324.9051, 1610.951
325.3872, 1608.162
325.8694, 1597.530
326.3515, 1588.797
326.8336, 1585.502
327.3157, 1583.121
327.7978, 1574.144
328.2799, 1557.243
328.7621, 1542.362
329.2442, 1544.536
329.7263, 1576.321
330.2084, 1593.555
330.6905, 1586.503
331.1726, 1572.649
331.6548, 1563.267
332.1369, 1560.124
332.6190, 1559.697
333.1011, 1558.136
333.5832, 1554.418
334.0653, 1555.917
334.5475, 1569.671
335.0296, 1581.225
335.5117, 1578.262
335.9938, 1565.772
336.4759, 1561.676
336.9580, 1582.801
337.4402, 1628.336
337.9223, 1643.459
338.4044, 1586.010
338.8865, 1544.839
339.3686, 1559.591
339.8507, 1604.431
340.3329, 1631.081
340.8150, 1610.296
341.2971, 1556.120
341.7792, 1529.403
342.2613, 1562.704
342.7434, 1583.819
343.2256, 1577.421
343.7077, 1558.316
344.1898, 1540.985
344.6719, 1531.248
345.1540, 1528.527
345.6361, 1532.808
346.1183, 1550.529
346.6004, 1562.679
347.0825, 1565.524
347.5646, 1564.974
348.0467, 1566.713
348.5288, 1571.218
349.0110, 1572.804
349.4931, 1561.576
349.9752, 1531.695
350.4573, 1512.203
350.9394, 1504.756
351.4215, 1507.099
351.9037, 1526.520
352.3858, 1557.605
352.8679, 1582.508
353.3500, 1581.709
353.8321, 1556.300
354.3142, 1543.459
354.7964, 1550.889
355.2785, 1562.652
355.7606, 1576.057
356.2427, 1588.589
356.7248, 1596.237
357.2069, 1597.264
357.6891, 1591.515
358.1712, 1574.526
358.6533, 1534.754
359.1354, 1510.259
359.6175, 1533.293
360.0996, 1572.598
360.5818, 1591.000
361.0639, 1572.376
361.5460, 1539.858
362.0281, 1524.360
362.5102, 1527.576
362.9923, 1532.167
363.4745, 1534.973
363.9566, 1534.978
364.4387, 1530.086
364.9208, 1519.370
365.4029, 1509.158
365.8850, 1501.046
366.3672, 1496.329
366.8493, 1504.582
367.3314, 1536.319
367.8135, 1568.929
368.2956, 1578.372
368.7777, 1566.419
369.2599, 1549.794
369.7420, 1530.510
370.2241, 1512.238
370.7062, 1502.307
371.1883, 1502.379
371.6704, 1505.702
372.1526, 1506.260
372.6347, 1505.020
373.1168, 1507.594
373.5989, 1518.399
374.0810, 1530.523
374.5631, 1538.898
375.0453, 1543.492
375.5274, 1545.533
376.0095, 1545.549
376.4916, 1543.536
376.9737, 1539.923
377.4558, 1533.401
377.9380, 1526.956
378.4201, 1520.198
378.9022, 1514.394
379.3843, 1511.681
379.8664, 1512.730
380.3485, 1518.156
380.8307, 1530.112
381.3128, 1557.941
381.7949, 1574.819
382.2770, 1570.615
382.7591, 1559.372
383.2412, 1555.738
383.7234, 1561.873
384.2055, 1568.129
384.6876, 1562.617
385.1697, 1541.357
385.6518, 1525.164
386.1339, 1510.526
386.6161, 1503.063
387.0982, 1509.718
387.5803, 1526.480
388.0624, 1542.855
388.5445, 1551.329
389.0266, 1552.496
389.5088, 1552.700
389.9909, 1551.122
390.4730, 1549.435
390.9551, 1547.559
391.4372, 1545.855
391.9193, 1544.156
392.4015, 1542.306
392.8836, 1541.881
393.3657, 1547.963
393.8478, 1567.135
394.3299, 1576.118
394.8120, 1563.878
395.2942, 1546.613
395.7763, 1533.776
396.2584, 1527.223
396.7405, 1525.010
397.2226, 1522.696
397.7047, 1520.185
398.1869, 1533.303
398.6690, 1582.732
399.1511, 1624.054
399.6332, 1630.366
400.1153, 1608.817
400.5974, 1580.646
401.0796, 1549.974
401.5617, 1522.208
402.0438, 1511.826
402.5259, 1522.776
403.0080, 1535.577
403.4901, 1538.920
403.9723, 1537.711
404.4544, 1539.596
404.9365, 1548.255
405.4186, 1556.275
405.9007, 1555.357
406.3828, 1547.412
406.8650, 1543.203
407.3471, 1547.425
407.8292, 1555.996
408.3113, 1564.073
408.7934, 1573.619
409.2755, 1574.797
409.7577, 1553.667
410.2398, 1526.563
410.7219, 1518.355
411.2040, 1533.477
411.6861, 1554.499
412.1682, 1564.135
412.6504, 1560.441
413.1325, 1560.173
413.6146, 1565.575
414.0967, 1572.184
414.5788, 1577.869
415.0609, 1582.676
415.5431, 1588.739
416.0252, 1598.499
416.5073, 1608.721
416.9894, 1604.017
417.4715, 1559.742
417.9536, 1530.115
418.4358, 1529.463
418.9179, 1541.814
419.4000, 1549.529
419.8821, 1547.407
420.3642, 1543.341
420.8463, 1551.867
421.3285, 1583.804
421.8106, 1598.049
422.2927, 1577.142
422.7748, 1554.863
423.2569, 1548.019
423.7390, 1555.118
424.2212, 1565.189
424.7033, 1571.180
425.1854, 1573.064
425.6675, 1569.257
426.1496, 1552.605
426.6317, 1542.812
427.1139, 1553.158
427.5960, 1571.780
428.0781, 1583.685
428.5602, 1583.154
429.0423, 1575.902
429.5244, 1565.864
430.0066, 1552.815
430.4887, 1547.794
430.9708, 1558.620
431.4529, 1574.640
431.9350, 1584.466
432.4171, 1588.014
432.8993, 1587.522
433.3814, 1581.599
433.8635, 1572.965
434.3456, 1567.410
434.8277, 1566.211
435.3098, 1563.574
435.7920, 1552.220
436.2741, 1533.476
436.7562, 1523.858
437.2383, 1530.313
437.7204, 1540.132
438.2025, 1545.572
438.6847, 1548.192
439.1668, 1554.741
439.6489, 1569.761
440.1310, 1587.325
440.6131, 1591.056
441.0952, 1566.910
441.5774, 1548.492
442.0595, 1537.495
442.5416, 1532.747
443.0237, 1534.587
443.5058, 1542.347
443.9879, 1553.211
444.4701, 1564.955
444.9522, 1578.512
445.4343, 1585.910
445.9164, 1578.709
446.3985, 1573.796
446.8806, 1581.882
447.3628, 1595.477
447.8449, 1599.232
448.3270, 1582.944
448.8091, 1556.530
449.2912, 1545.175
449.7733, 1553.610
450.2555, 1564.129
450.7375, 1576.589
451.2197, 1586.623
451.7018, 1590.341
452.1839, 1587.109
452.6660, 1580.495
453.1481, 1571.009
453.6302, 1559.922
454.1124, 1553.668
454.5945, 1554.150
455.0766, 1556.861
455.5587, 1558.969
456.0408, 1560.456
456.5229, 1560.922
457.0051, 1558.902
457.4872, 1556.882
457.9693, 1556.290
458.4514, 1557.372
458.9335, 1561.878
459.4156, 1571.637
459.8978, 1584.084
460.3799, 1592.379
460.8620, 1597.080
461.3441, 1597.528
461.8262, 1588.361
462.3083, 1577.615
462.7905, 1575.917
463.2726, 1584.224
463.7547, 1592.417
464.2368, 1588.971
464.7189, 1571.620
465.2010, 1562.550
465.6832, 1568.673
466.1653, 1575.204
466.6474, 1576.675
467.1295, 1575.511
467.6116, 1577.335
468.0938, 1585.421
468.5759, 1594.807
469.0580, 1592.153
469.5401, 1570.057
470.0222, 1557.033
470.5043, 1565.464
470.9865, 1579.151
471.4686, 1589.020
471.9507, 1594.092
472.4328, 1597.459
472.9149, 1603.427
473.3970, 1609.743
473.8792, 1605.668
474.3613, 1586.095
474.8434, 1570.166
475.3255, 1576.297
475.8076, 1569.956
476.2897, 1598.747
476.7719, 1615.841
477.2540, 1621.868
477.7361, 1583.677
478.2182, 1602.583
478.7003, 1598.608
479.1824, 1593.694
479.6646, 1620.637
480.1467, 1588.877
480.6288, 1615.315
481.1109, 1618.521
481.5930, 1632.359
482.0751, 1623.175
482.5573, 1617.293
483.0394, 1605.215
483.5215, 1593.875
484.0036, 1589.511
484.4857, 1591.314
484.9678, 1594.061
485.4500, 1599.528
485.9321, 1603.502
486.4142, 1605.125
486.8963, 1605.220
487.3784, 1604.343
487.8605, 1602.714
488.3427, 1600.740
488.8248, 1598.701
489.3069, 1596.577
489.7890, 1595.043
490.2711, 1594.321
490.7532, 1593.991
491.2354, 1592.723
491.7175, 1591.618
492.1996, 1593.572
492.6817, 1602.755
493.1638, 1612.361
493.6459, 1612.050
494.1281, 1602.741
494.6102, 1597.769
495.0923, 1603.723
495.5744, 1614.732
496.0565, 1619.927
496.5386, 1617.775
497.0208, 1617.999
497.5029, 1629.550
497.9850, 1640.467
498.4671, 1634.772
498.9492, 1613.403
499.4313, 1593.732
499.9135, 1590.431
500.3956, 1601.930
500.8777, 1607.051
501.3598, 1600.342
501.8419, 1593.750
502.3240, 1584.031
502.8062, 1577.799
503.2883, 1587.408
503.7704, 1614.825
504.2525, 1641.264
504.7346, 1637.947
505.2167, 1598.903
505.6989, 1573.153
506.1810, 1564.785
506.6631, 1567.749
507.1452, 1587.521
507.6273, 1615.281
508.1094, 1631.295
508.5916, 1621.841
509.0737, 1603.425
509.5558, 1601.237
510.0379, 1614.492
510.5200, 1618.576
511.0021, 1599.760
511.4843, 1574.041
511.9664, 1566.733
512.4485, 1579.415
512.9306, 1592.853
513.4127, 1606.650
513.8948, 1616.091
514.3770, 1611.990
514.8591, 1596.460
515.3412, 1584.948
515.8233, 1588.446
516.3054, 1605.063
516.7875, 1622.581
517.2697, 1653.476
517.7518, 1669.493
518.2339, 1660.889
518.7160, 1640.212
519.1981, 1613.802
519.6802, 1585.699
520.1624, 1566.791
520.6445, 1573.586
521.1266, 1606.996
521.6087, 1629.099
522.0908, 1638.923
522.5729, 1637.819
523.0551, 1617.570
523.5372, 1590.369
524.0193, 1576.522
524.5014, 1585.491
524.9835, 1601.379
525.4656, 1608.778
525.9478, 1609.254
526.4299, 1611.382
526.9120, 1617.794
527.3941, 1625.202
527.8762, 1629.226
528.3583, 1629.652
528.8405, 1632.219
529.3226, 1644.720
529.8047, 1653.117
530.2868, 1644.679
530.7689, 1624.263
531.2510, 1605.378
531.7332, 1594.776
532.2153, 1590.440
532.6974, 1587.588
533.1795, 1586.534
533.6616, 1586.520
534.1437, 1587.023
534.6259, 1588.816
535.1080, 1592.870
535.5901, 1598.775
536.0722, 1605.081
536.5543, 1611.016
537.0364, 1616.440
537.5186, 1621.580
538.0007, 1627.580
538.4828, 1628.654
538.9649, 1614.228
539.4470, 1599.004
539.9291, 1604.428
540.4113, 1636.108
540.8934, 1657.968
541.3755, 1641.027
541.8576, 1607.353
542.3397, 1591.988
542.8218, 1598.674
543.3040, 1610.879
543.7861, 1616.675
544.2682, 1617.159
544.7503, 1621.801
545.2324, 1641.070
545.7145, 1650.927
546.1967, 1637.811
546.6788, 1617.527
547.1609, 1607.656
547.6430, 1611.675
548.1251, 1620.195
548.6072, 1623.197
549.0894, 1620.514
549.5715, 1617.651
550.0536, 1614.248
550.5357, 1611.213
551.0178, 1607.678
551.4999, 1605.067
551.9821, 1605.503
552.4642, 1609.906
552.9463, 1616.175
553.4284, 1623.016
553.9105, 1630.219
554.3926, 1636.942
554.8748, 1643.103
555.3569, 1648.433
555.8390, 1652.589
556.3211, 1655.535
556.8032, 1657.934
557.2853, 1664.421
557.7675, 1665.512
558.2496, 1651.714
558.7317, 1630.686
559.2138, 1615.232
559.6959, 1610.023
560.1780, 1611.504
560.6602, 1615.036
561.1423, 1621.522
561.6244, 1626.446
562.1065, 1625.402
562.5886, 1627.198
563.0707, 1641.124
563.5529, 1659.009
564.0350, 1664.651
564.5171, 1648.176
564.9992, 1625.540
565.4813, 1617.964
565.9634, 1624.710
566.4456, 1635.247
566.9277, 1650.975
567.4098, 1663.349
567.8919, 1656.615
568.3740, 1633.591
568.8561, 1625.801
569.3383, 1655.724
569.8204, 1685.759
570.3025, 1690.864
570.7846, 1676.668
571.2667, 1655.221
571.7488, 1631.163
572.2310, 1611.773
572.7131, 1612.635
573.1952, 1647.218
573.6773, 1665.560
574.1594, 1654.296
574.6415, 1641.028
575.1237, 1638.501
575.6058, 1642.990
576.0879, 1643.906
576.5700, 1634.437
577.0521, 1623.551
577.5342, 1628.253
578.0164, 1648.671
578.4985, 1661.880
578.9806, 1660.983
579.4627, 1653.584
579.9448, 1646.351
580.4269, 1639.276
580.9091, 1632.392
581.3912, 1625.151
581.8733, 1618.587
582.3554, 1610.394
582.8375, 1603.467
583.3196, 1606.587
583.8018, 1623.746
584.2839, 1646.140
584.7660, 1658.067
585.2481, 1654.952
585.7302, 1654.200
586.2123, 1658.670
586.6945, 1662.500
587.1766, 1665.434
587.6587, 1665.589
588.1408, 1658.149
588.6229, 1638.536
589.1050, 1618.118
589.5872, 1614.260
590.0693, 1626.446
590.5514, 1642.177
591.0335, 1663.284
591.5156, 1679.336
591.9977, 1674.510
592.4799, 1652.226
592.9620, 1638.454
593.4441, 1644.581
593.9262, 1652.322
594.4083, 1647.761
594.8904, 1637.565
595.3726, 1638.485
595.8547, 1656.106
596.3368, 1675.316
596.8189, 1671.428
597.3010, 1635.864
597.7831, 1618.415
598.2653, 1636.848
598.7474, 1655.619
599.2295, 1666.891
599.7116, 1670.385
600.1937, 1664.012
600.6758, 1644.797
601.1580, 1627.482
601.6401, 1630.428
602.1222, 1649.783
602.6043, 1668.010
603.0864, 1683.622
603.5685, 1692.780
604.0507, 1689.821
604.5328, 1676.072
605.0149, 1667.289
605.4970, 1666.019
605.9791, 1666.655
606.4612, 1667.913
606.9434, 1669.695
607.4255, 1674.365
607.9076, 1681.260
608.3897, 1682.281
608.8718, 1664.769
609.3539, 1629.581
609.8361, 1620.196
610.3182, 1656.481
610.8003, 1685.612
611.2824, 1687.236
611.7645, 1675.229
612.2466, 1661.452
612.7288, 1647.450
613.2109, 1639.486
613.6930, 1645.451
614.1751, 1659.055
614.6572, 1670.806
615.1393, 1679.667
615.6215, 1681.484
616.1036, 1671.965
616.5857, 1654.813
617.0678, 1643.285
617.5499, 1637.597
618.0320, 1637.398
618.5142, 1645.130
618.9963, 1656.494
619.4784, 1673.457
619.9605, 1691.844
620.4426, 1698.946
620.9247, 1682.711
621.4069, 1653.915
621.8890, 1643.210
622.3711, 1654.369
622.8532, 1661.245
623.3353, 1655.030
623.8174, 1643.949
624.2996, 1634.265
624.7817, 1626.191
625.2638, 1624.928
625.7459, 1642.809
626.2280, 1658.531
626.7101, 1648.201
627.1923, 1622.226
627.6744, 1609.774
628.1565, 1622.583
628.6386, 1647.131
629.1207, 1661.939
629.6028, 1664.470
630.0850, 1667.532
630.5671, 1668.521
631.0492, 1672.909
631.5313, 1689.658
632.0134, 1708.744
632.4955, 1712.598
632.9777, 1693.363
633.4598, 1671.549
633.9419, 1670.292
634.4240, 1682.872
634.9061, 1685.092
635.3882, 1672.441
635.8704, 1659.820
636.3525, 1659.513
636.8346, 1668.855
637.3167, 1670.527
637.7988, 1657.301
638.2809, 1647.099
638.7631, 1640.459
639.2452, 1639.706
639.7273, 1653.727
640.2094, 1678.253
640.6915, 1692.255
641.1736, 1675.225
641.6558, 1638.958
642.1379, 1627.655
642.6200, 1647.730
643.1021, 1664.720
643.5842, 1667.570
644.0663, 1664.553
644.5485, 1663.780
645.0306, 1665.229
645.5127, 1668.638
645.9948, 1678.204
646.4769, 1686.011
646.9590, 1681.288
647.4412, 1669.821
647.9233, 1668.388
648.4054, 1683.571
648.8875, 1703.176
649.3696, 1708.363
649.8517, 1695.968
650.3339, 1684.943
650.8160, 1673.868
651.2981, 1666.148
651.7802, 1663.452
652.2623, 1664.389
652.7444, 1667.855
653.2266, 1674.144
653.7087, 1678.943
654.1908, 1676.756
654.6729, 1671.164
655.1550, 1671.706
655.6371, 1679.255
656.1193, 1682.811
656.6014, 1673.169
657.0835, 1655.724
657.5656, 1651.032
658.0477, 1678.166
658.5298, 1691.935
659.0120, 1677.941
659.4941, 1662.381
659.9762, 1665.199
660.4583, 1682.812
660.9404, 1699.166
661.4225, 1705.480
661.9047, 1705.205
662.3868, 1703.360
662.8689, 1699.994
663.3510, 1696.865
663.8331, 1694.447
664.3152, 1692.044
664.7974, 1687.500
665.2795, 1681.368
665.7616, 1681.943
666.2437, 1700.147
666.7258, 1712.583
667.2079, 1704.342
667.6901, 1688.604
668.1722, 1684.632
668.6543, 1694.427
669.1364, 1700.846
669.6185, 1683.066
670.1006, 1648.247
670.5828, 1644.043
671.0649, 1682.270
671.5470, 1712.125
672.0291, 1714.656
672.5112, 1702.654
672.9933, 1687.471
673.4755, 1668.839
673.9576, 1660.719
674.4397, 1675.637
674.9218, 1695.160
675.4039, 1706.219
675.8860, 1710.035
676.3682, 1711.771
676.8503, 1713.386
677.3324, 1711.653
677.8145, 1698.775
678.2966, 1671.115
678.7787, 1662.937
679.2609, 1690.094
679.7430, 1713.426
680.2251, 1712.492
680.7072, 1701.869
681.1893, 1701.002
681.6714, 1714.485
682.1536, 1727.183
682.6357, 1728.238
683.1178, 1724.901
683.5999, 1729.226
684.0820, 1739.904
684.5641, 1743.380
685.0463, 1731.249
685.5284, 1711.924
686.0105, 1706.346
686.4926, 1725.047
686.9747, 1732.402
687.4568, 1713.329
687.9390, 1697.984
688.4211, 1703.641
688.9032, 1720.844
689.3853, 1730.829
689.8674, 1726.465
690.3495, 1718.567
690.8317, 1718.260
691.3138, 1720.729
691.7959, 1712.056
692.2780, 1691.098
692.7601, 1674.195
693.2422, 1672.826
693.7244, 1684.449
694.2065, 1700.107
694.6886, 1732.622
695.1707, 1747.659
695.6528, 1730.335
696.1349, 1709.162
696.6171, 1701.460
697.0992, 1704.415
697.5813, 1706.612
698.0634, 1701.617
698.5455, 1696.617
699.0276, 1701.610
699.5098, 1713.756
699.9919, 1722.945
700.4740, 1727.239
700.9561, 1729.164
701.4382, 1731.241
701.9203, 1732.836
702.4025, 1728.826
702.8846, 1709.108
703.3667, 1697.294
703.8488, 1700.948
704.3309, 1708.364
704.8130, 1708.296
705.2952, 1703.229
705.7773, 1706.598
706.2594, 1731.406
706.7415, 1759.740
707.2236, 1763.170
707.7057, 1745.686
708.1879, 1730.448
708.6700, 1722.029
709.1521, 1720.648
709.6342, 1728.780
710.1163, 1745.701
710.5984, 1753.703
711.0806, 1744.543
711.5627, 1737.829
712.0448, 1740.523
712.5269, 1743.834
713.0090, 1736.847
713.4911, 1721.843
713.9733, 1713.670
714.4554, 1726.908
714.9375, 1746.087
715.4196, 1741.795
715.9017, 1717.661
716.3839, 1703.762
716.8660, 1708.974
717.3481, 1720.817
717.8302, 1727.403
718.3123, 1728.731
718.7944, 1732.039
719.2766, 1741.725
719.7587, 1747.559
720.2408, 1745.829
720.7229, 1740.864
721.2050, 1735.441
721.6871, 1730.509
722.1693, 1727.190
722.6514, 1726.109
723.1335, 1727.139
723.6156, 1732.018
724.0977, 1739.723
724.5798, 1742.072
725.0620, 1736.220
725.5441, 1727.740
726.0262, 1721.357
726.5083, 1717.075
726.9904, 1718.462
727.4725, 1731.937
727.9547, 1742.574
728.4368, 1747.899
728.9189, 1749.469
729.4010, 1747.152
729.8831, 1742.036
730.3652, 1738.066
730.8474, 1739.693
731.3295, 1741.573
731.8116, 1731.366
732.2937, 1713.032
732.7758, 1709.655
733.2579, 1728.859
733.7401, 1749.437
734.2222, 1748.847
734.7043, 1728.291
735.1864, 1718.256
735.6685, 1729.254
736.1506, 1737.249
736.6328, 1736.345
737.1149, 1733.900
737.5970, 1736.279
738.0791, 1743.001
738.5612, 1748.767
739.0433, 1749.092
739.5255, 1749.382
740.0076, 1761.791
740.4897, 1779.537
740.9718, 1775.857
741.4539, 1744.523
741.9360, 1715.154
742.4182, 1716.182
742.9003, 1743.133
743.3824, 1756.747
743.8645, 1749.384
744.3466, 1741.594
744.8287, 1735.361
745.3109, 1729.981
745.7930, 1720.896
746.2751, 1711.680
746.7572, 1716.029
747.2393, 1751.847
747.7214, 1783.953
748.2036, 1775.142
748.6857, 1744.084
749.1678, 1726.343
749.6499, 1727.683
750.1320, 1735.890
750.6141, 1737.001
751.0963, 1753.286
751.5784, 1763.723
752.0605, 1768.625
752.5426, 1751.419
753.0247, 1762.761
753.5068, 1762.662
753.9890, 1762.095
754.4711, 1777.456
754.9532, 1763.465
755.4353, 1778.573
755.9174, 1782.066
756.3995, 1790.874
756.8817, 1788.172
757.3638, 1789.024
757.8459, 1801.392
758.3280, 1800.307
758.8101, 1800.752
759.2922, 1791.773
759.7744, 1783.042
760.2565, 1774.372
760.7386, 1768.618
761.2207, 1767.786
761.7028, 1766.344
762.1849, 1758.258
762.6671, 1747.635
763.1492, 1745.201
763.6313, 1755.105
764.1134, 1764.056
764.5955, 1770.197
765.0776, 1773.283
765.5598, 1769.859
766.0419, 1763.654
766.5240, 1763.229
767.0061, 1772.380
767.4882, 1785.067
767.9703, 1795.266
768.4525, 1802.608
768.9346, 1803.272
769.4167, 1796.172
769.8988, 1790.544
770.3809, 1792.681
770.8630, 1796.839
771.3452, 1791.333
771.8273, 1771.637
772.3094, 1755.175
772.7915, 1736.049
773.2736, 1726.472
773.7557, 1738.478
774.2379, 1759.769
774.7200, 1774.241
775.2021, 1778.229
775.6842, 1778.833
776.1663, 1781.421
776.6484, 1783.903
777.1306, 1781.672
777.6127, 1775.796
778.0948, 1772.277
778.5769, 1773.359
779.0590, 1776.185
779.5411, 1776.878
780.0233, 1775.282
780.5054, 1777.734
780.9875, 1786.959
781.4696, 1795.763
781.9517, 1806.584
782.4338, 1813.249
782.9160, 1808.956
783.3981, 1794.587
783.8802, 1779.584
784.3623, 1760.609
784.8444, 1748.854
785.3265, 1756.566
785.8087, 1774.095
786.2908, 1788.105
786.7729, 1795.558
787.2550, 1797.430
787.7371, 1793.100
788.2192, 1786.426
788.7014, 1791.469
789.1835, 1810.462
789.6656, 1817.469
790.1477, 1803.288
790.6298, 1786.629
791.1119, 1780.948
791.5941, 1784.801
792.0762, 1790.786
792.5583, 1804.549
793.0404, 1811.419
793.5225, 1800.346
794.0046, 1789.482
794.4868, 1796.450
794.9689, 1813.549
795.4510, 1820.321
795.9331, 1807.276
796.4152, 1789.256
796.8973, 1778.557
797.3795, 1775.469
797.8616, 1784.705
798.3437, 1805.470
798.8258, 1820.217
799.3079, 1819.380
799.7900, 1811.131
800.2722, 1811.036
800.7543, 1822.644
801.2364, 1825.498
801.7185, 1809.740
802.2006, 1798.685
802.6827, 1803.659
803.1649, 1814.405
803.6470, 1820.388
804.1291, 1820.541
804.6112, 1818.200
805.0933, 1814.595
805.5754, 1808.984
806.0576, 1795.101
806.5397, 1780.768
807.0218, 1783.436
807.5039, 1804.638
807.9860, 1824.264
808.4681, 1822.751
808.9503, 1807.607
809.4324, 1804.187
809.9145, 1813.436
810.3966, 1817.663
810.8787, 1812.380
811.3608, 1802.575
811.8430, 1790.816
812.3251, 1777.935
812.8072, 1769.859
813.2893, 1762.351
813.7714, 1765.448
814.2535, 1793.219
814.7357, 1819.633
815.2178, 1827.354
815.6999, 1820.045
816.1820, 1807.158
816.6641, 1789.829
817.1462, 1778.269
817.6284, 1781.602
818.1105, 1795.637
818.5926, 1820.182
819.0747, 1850.604
819.5568, 1866.003
820.0389, 1856.139
820.5211, 1834.909
821.0032, 1824.013
821.4852, 1824.067
821.9673, 1824.286
822.4495, 1825.735
822.9316, 1824.305
823.4137, 1814.395
823.8958, 1804.215
824.3779, 1805.661
824.8600, 1818.892
825.3422, 1830.183
825.8243, 1836.166
826.3064, 1842.201
826.7885, 1852.960
827.2706, 1863.172
827.7527, 1866.386
828.2349, 1862.817
828.7170, 1857.889
829.1991, 1854.447
829.6812, 1852.117
830.1633, 1851.304
830.6454, 1851.182
831.1276, 1847.751
831.6097, 1840.649
832.0918, 1836.866
832.5739, 1841.680
833.0560, 1851.822
833.5381, 1859.514
834.0203, 1867.406
834.5024, 1861.945
834.9845, 1824.398
835.4666, 1799.911
835.9487, 1831.058
836.4308, 1880.826
836.9130, 1891.103
837.3951, 1849.646
837.8772, 1818.800
838.3593, 1821.621
838.8414, 1831.284
839.3235, 1831.374
839.8057, 1827.767
840.2878, 1833.786
840.7699, 1850.460
841.2520, 1860.972
841.7341, 1846.878
842.2162, 1821.991
842.6984, 1810.766
843.1805, 1811.686
843.6626, 1819.697
844.1447, 1833.889
844.6268, 1845.641
845.1089, 1847.077
845.5911, 1840.622
846.0732, 1836.977
846.5553, 1835.237
847.0374, 1839.374
847.5195, 1859.134
848.0016, 1873.385
848.4838, 1852.345
848.9659, 1863.328
849.4480, 1868.463
849.9301, 1868.064
850.4122, 1845.557
850.8943, 1851.598
851.3765, 1846.197
851.8586, 1840.328
852.3407, 1850.388
852.8228, 1831.095
853.3049, 1840.902
853.7870, 1839.093
854.2692, 1842.600
854.7513, 1834.596
855.2334, 1830.147
855.7155, 1821.608
856.1976, 1824.487
856.6797, 1839.445
857.1619, 1854.872
857.6440, 1860.268
858.1261, 1856.968
858.6082, 1851.724
859.0903, 1843.121
859.5724, 1837.304
860.0546, 1837.463
860.5367, 1837.148
861.0188, 1829.196
861.5009, 1818.097
861.9830, 1815.210
862.4651, 1824.487
862.9473, 1832.961
863.4294, 1840.321
863.9115, 1844.102
864.3936, 1840.102
864.8757, 1832.577
865.3578, 1827.740
865.8400, 1827.247
866.3221, 1829.722
866.8042, 1833.416
867.2863, 1839.982
867.7684, 1855.718
868.2505, 1876.151
868.7327, 1887.285
869.2148, 1886.044
869.6969, 1880.197
870.1790, 1876.373
870.6611, 1873.400
871.1432, 1865.830
871.6254, 1852.356
872.1075, 1845.132
872.5896, 1847.258
873.0717, 1851.874
873.5538, 1853.374
874.0359, 1854.759
874.5181, 1865.112
875.0002, 1894.108
875.4823, 1910.565
875.9644, 1907.643
876.4465, 1899.710
876.9286, 1890.481
877.4108, 1880.698
877.8929, 1869.048
878.3750, 1855.821
878.8571, 1848.991
879.3392, 1856.806
879.8214, 1868.020
880.3035, 1875.650
880.7856, 1879.656
881.2677, 1879.594
881.7498, 1875.884
882.2319, 1869.765
882.7141, 1861.088
883.1962, 1853.798
883.6783, 1857.510
884.1604, 1869.991
884.6425, 1875.235
885.1246, 1870.981
885.6068, 1870.413
886.0889, 1882.187
886.5710, 1897.448
887.0531, 1898.245
887.5352, 1880.338
888.0173, 1872.664
888.4995, 1882.299
888.9816, 1890.104
889.4637, 1891.917
889.9458, 1887.937
890.4279, 1873.120
890.9100, 1849.392
891.3922, 1840.117
891.8743, 1866.783
892.3564, 1884.564
892.8385, 1870.098
893.3206, 1848.560
893.8027, 1839.443
894.2849, 1843.028
894.7670, 1854.027
895.2491, 1871.423
895.7312, 1889.441
896.2133, 1909.521
896.6954, 1923.641
897.1776, 1912.734
897.6597, 1883.748
898.1418, 1861.744
898.6239, 1855.795
899.1060, 1862.113
899.5881, 1879.924
900.0703, 1905.150
900.5524, 1920.314
901.0345, 1925.407
901.5166, 1917.612
901.9987, 1891.575
902.4808, 1870.987
902.9630, 1877.709
903.4451, 1904.053
903.9272, 1918.555
904.4093, 1920.184
904.8914, 1911.825
905.3735, 1874.408
905.8557, 1849.900
906.3378, 1873.085
906.8199, 1911.362
907.3020, 1913.622
907.7841, 1871.309
908.2662, 1841.654
908.7484, 1842.782
909.2305, 1854.226
909.7126, 1876.137
910.1947, 1896.466
910.6768, 1899.454
911.1589, 1886.516
911.6411, 1872.363
912.1232, 1862.750
912.6053, 1859.610
913.0874, 1869.079
913.5695, 1884.435
914.0516, 1895.645
914.5338, 1901.193
915.0159, 1898.228
915.4980, 1885.266
915.9801, 1874.419
916.4622, 1888.901
916.9443, 1922.119
917.4265, 1925.229
917.9086, 1896.710
918.3907, 1876.098
918.8728, 1874.954
919.3549, 1885.900
919.8370, 1905.015
920.3192, 1929.196
920.8013, 1935.979
921.2834, 1916.184
921.7655, 1901.066
922.2476, 1893.657
922.7297, 1890.884
923.2119, 1894.564
923.6940, 1900.574
924.1761, 1901.477
924.6582, 1895.919
925.1403, 1890.280
925.6224, 1884.602
926.1046, 1879.995
926.5867, 1871.807
927.0688, 1868.305
927.5509, 1886.063
928.0330, 1920.231
928.5151, 1938.166
928.9973, 1912.979
929.4794, 1887.592
929.9615, 1901.607
930.4436, 1928.284
930.9257, 1931.990
931.4078, 1915.746
931.8900, 1901.349
932.3721, 1898.171
932.8542, 1898.042
933.3363, 1889.723
933.8184, 1877.973
934.3005, 1873.904
934.7827, 1877.827
935.2648, 1894.777
935.7469, 1926.164
936.2290, 1951.238
936.7111, 1950.090
937.1932, 1930.307
937.6754, 1918.771
938.1575, 1916.682
938.6396, 1912.921
939.1217, 1905.698
939.6038, 1898.611
940.0859, 1891.918
940.5681, 1888.671
941.0502, 1896.208
941.5323, 1918.770
942.0144, 1930.113
942.4965, 1924.645
942.9786, 1915.909
943.4608, 1900.496
943.9429, 1888.227
944.4250, 1890.049
944.9071, 1902.620
945.3892, 1910.204
945.8713, 1906.630
946.3535, 1904.686
946.8356, 1911.908
947.3177, 1917.698
947.7998, 1912.550
948.2819, 1901.711
948.7640, 1893.595
949.2462, 1890.351
949.7283, 1892.133
950.2104, 1903.605
950.6925, 1915.677
951.1746, 1919.054
951.6567, 1918.033
952.1389, 1920.279
952.6210, 1926.030
953.1031, 1929.830
953.5852, 1928.218
954.0673, 1924.823
954.5494, 1923.836
955.0316, 1925.005
955.5137, 1927.941
955.9958, 1932.469
956.4779, 1938.682
956.9600, 1946.632
957.4421, 1952.136
957.9243, 1949.430
958.4064, 1941.081
958.8885, 1941.226
959.3706, 1950.807
959.8527, 1948.861
960.3348, 1928.830
960.8170, 1911.593
961.2991, 1911.182
961.7812, 1922.270
962.2633, 1933.270
962.7454, 1945.282
963.2275, 1952.442
963.7097, 1954.770
964.1918, 1951.975
964.6739, 1941.330
965.1560, 1928.043
965.6381, 1914.467
966.1202, 1901.605
966.6024, 1900.621
967.0845, 1926.717
967.5666, 1942.233
968.0487, 1934.282
968.5308, 1924.533
969.0129, 1927.637
969.4951, 1935.876
969.9772, 1934.268
970.4593, 1919.590
970.9414, 1909.521
971.4235, 1919.093
971.9056, 1923.910
972.3878, 1899.000
972.8699, 1871.115
973.3520, 1873.533
973.8341, 1902.197
974.3162, 1929.978
974.7983, 1947.365
975.2805, 1954.309
975.7626, 1945.765
976.2447, 1930.594
976.7268, 1914.321
977.2089, 1901.245
977.6910, 1901.273
978.1732, 1915.763
978.6553, 1932.848
979.1374, 1945.039
979.6195, 1951.310
980.1016, 1944.613
980.5837, 1931.365
981.0659, 1932.010
981.5480, 1947.213
982.0301, 1962.828
982.5122, 1971.804
982.9943, 1975.530
983.4764, 1975.403
983.9586, 1971.721
984.4407, 1967.488
984.9228, 1962.568
985.4049, 1946.331
985.8870, 1914.161
986.3691, 1889.695
986.8513, 1893.786
987.3334, 1917.079
987.8155, 1931.149
988.2976, 1934.571
988.7797, 1938.229
989.2618, 1942.522
989.7440, 1947.758
990.2261, 1955.959
990.7082, 1961.646
991.1903, 1956.050
991.6724, 1939.649
992.1545, 1934.011
992.6367, 1945.117
993.1188, 1954.822
993.6009, 1960.741
994.0830, 1965.275
994.5651, 1970.524
995.0472, 1975.078
995.5294, 1976.157
996.0115, 1973.677
996.4936, 1968.246
996.9757, 1952.277
997.4578, 1943.281
997.9399, 1950.895
998.4221, 1963.258
998.9042, 1970.713
999.3863, 1974.077
999.8684, 1979.305
1000.351, 1990.984
1000.833, 1996.097
1001.315, 1986.070
1001.797, 1973.829
1002.279, 1965.130
1002.761, 1960.032
1003.243, 1959.982
1003.725, 1963.865
1004.207, 1963.393
1004.690, 1948.172
1005.172, 1937.496
1005.654, 1948.971
1006.136, 1965.310
1006.618, 1967.109
1007.100, 1959.400
1007.582, 1958.882
1008.064, 1970.327
1008.547, 1977.838
1009.029, 1962.447
1009.511, 1944.324
1009.993, 1945.968
1010.475, 1958.623
1010.957, 1967.243
1011.439, 1981.873
1011.921, 1990.654
1012.403, 1993.901
1012.886, 1975.042
1013.368, 1984.729
1013.850, 1982.975
1014.332, 1980.753
1014.814, 1994.458
1015.296, 1978.812
1015.778, 1992.265
1016.260, 1994.102
1016.742, 2001.256
1017.225, 1996.900
1017.707, 1996.097
1018.189, 2006.810
1018.671, 2011.147
1019.153, 2005.463
1019.635, 2012.955
1020.117, 1996.907
1020.599, 2001.515
1021.082, 2015.038
1021.564, 2011.425
1022.046, 2022.271
1022.528, 2028.947
1023.010, 2017.246
1023.492, 1984.490
1023.974, 1962.215
1024.456, 1967.465
1024.938, 1985.439
1025.421, 1995.107
1025.903, 1996.940
1026.385, 1996.938
1026.867, 1995.117
1027.349, 1990.178
1027.831, 1980.267
1028.313, 1975.304
1028.795, 1983.591
1029.278, 1998.137
1029.760, 2002.358
1030.242, 1994.250
1030.724, 1994.419
1031.206, 2007.704
1031.688, 2011.270
1032.170, 1994.291
1032.652, 1975.854
1033.135, 1972.506
1033.617, 1981.199
1034.099, 1990.442
1034.581, 1999.281
1035.063, 2012.071
1035.545, 2033.716
1036.027, 2049.496
1036.509, 2054.394
1036.991, 2050.562
1037.474, 2036.751
1037.956, 2014.845
1038.438, 2004.950
1038.920, 2018.666
1039.402, 2021.611
1039.884, 2002.330
1040.366, 1985.495
1040.848, 1982.427
1041.330, 1987.683
1041.813, 1996.170
1042.295, 2008.370
1042.777, 2013.282
1043.259, 2005.656
1043.741, 1998.528
1044.223, 1987.985
1044.705, 1983.619
1045.187, 1996.893
1045.670, 2017.347
1046.152, 2026.275
1046.634, 2021.310
1047.116, 2017.642
1047.598, 2022.163
1048.080, 2020.269
1048.562, 1992.164
1049.044, 1972.154
1049.526, 1997.287
1050.009, 2046.133
1050.491, 2067.065
1050.973, 2048.380
1051.455, 2030.351
1051.937, 2017.271
1052.419, 2008.656
1052.901, 2008.785
1053.383, 2009.496
1053.865, 2000.898
1054.348, 1986.871
1054.830, 1980.137
1055.312, 1983.064
1055.794, 1993.008
1056.276, 2017.018
1056.758, 2038.757
1057.240, 2055.015
1057.722, 2061.746
1058.205, 2047.056
1058.687, 2018.085
1059.169, 2006.192
1059.651, 2028.721
1060.133, 2045.573
1060.615, 2037.945
1061.097, 2027.883
1061.579, 2027.441
1062.062, 2032.584
1062.544, 2039.589
1063.026, 2046.757
1063.508, 2049.020
1063.990, 2040.589
1064.472, 2034.904
1064.954, 2043.928
1065.436, 2050.320
1065.918, 2037.570
1066.401, 2016.941
1066.883, 2005.341
1067.365, 2004.558
1067.847, 2004.995
1068.329, 1999.475
1068.811, 2000.196
1069.293, 2023.360
1069.775, 2044.243
1070.257, 2039.567
1070.740, 2020.937
1071.222, 2006.678
1071.704, 2000.662
1072.186, 2002.752
1072.668, 2021.242
1073.150, 2036.928
1073.632, 2044.117
1074.114, 2041.591
1074.596, 2016.776
1075.079, 1985.878
1075.561, 1979.349
1076.043, 2002.755
1076.525, 2028.421
1077.007, 2046.891
1077.489, 2061.375
1077.971, 2077.519
1078.453, 2086.945
1078.936, 2076.784
1079.418, 2055.673
1079.900, 2040.921
1080.382, 2036.536
1080.864, 2036.013
1081.346, 2044.533
1081.828, 2046.194
1082.310, 2018.979
1082.792, 1992.560
1083.275, 2001.350
1083.757, 2032.209
1084.239, 2052.906
1084.721, 2055.525
1085.203, 2051.521
1085.685, 2044.438
1086.167, 2033.690
1086.649, 2010.404
1087.131, 1990.490
1087.614, 1992.905
1088.096, 2010.309
1088.578, 2023.565
1089.060, 2028.064
1089.542, 2028.808
1090.024, 2020.657
1090.506, 2018.098
1090.988, 2038.791
1091.471, 2060.073
1091.953, 2056.280
1092.435, 2035.739
1092.917, 2021.875
1093.399, 2020.342
1093.881, 2023.541
1094.363, 2009.451
1094.845, 2037.582
1095.328, 2053.938
1095.810, 2059.144
1096.292, 2020.052
1096.774, 2037.977
1097.256, 2032.939
1097.738, 2026.882
1098.220, 2052.602
1098.702, 2019.539
1099.184, 2044.592
1099.667, 2046.335
1100.149, 2058.629
1100.631, 2047.819
1101.113, 2044.039
1101.595, 2063.210
1102.077, 2069.548
1102.559, 2055.766
1103.041, 2068.252
1103.523, 2033.580
1104.006, 2040.139
1104.488, 2064.442
1104.970, 2051.415
1105.452, 2063.920
1105.934, 2066.590
1106.416, 2024.848
1106.898, 2060.123
1107.380, 2061.975
1107.863, 2029.510
1108.345, 2061.901
1108.827, 2033.996
1109.309, 2049.139
1109.791, 2048.837
1110.273, 2052.222
1110.755, 2061.534
1111.237, 2066.405
1111.719, 2066.438
1112.202, 2061.234
1112.684, 2042.701
1113.166, 2026.669
1113.648, 2024.380
1114.130, 2032.457
1114.612, 2044.853
1115.094, 2064.350
1115.576, 2074.651
1116.058, 2073.556
1116.541, 2066.384
1117.023, 2044.578
1117.505, 2028.288
1117.987, 2034.478
1118.469, 2052.340
1118.951, 2059.241
1119.433, 2052.293
1119.915, 2056.341
1120.398, 2078.912
1120.880, 2097.578
1121.362, 2114.091
1121.844, 2115.128
1122.326, 2081.455
1122.808, 2039.222
1123.290, 2038.679
1123.772, 2082.832
1124.255, 2103.621
1124.737, 2093.271
1125.219, 2083.808
1125.701, 2080.104
1126.183, 2076.573
1126.665, 2068.305
1127.147, 2062.512
1127.629, 2072.750
1128.111, 2097.394
1128.594, 2103.990
1129.076, 2088.584
1129.558, 2082.457
1130.040, 2091.837
1130.522, 2098.228
1131.004, 2092.263
1131.486, 2079.849
1131.968, 2068.512
1132.450, 2057.809
1132.933, 2042.412
1133.415, 2022.471
1133.897, 2022.941
1134.379, 2046.870
1134.861, 2072.206
1135.343, 2089.956
1135.825, 2098.127
1136.307, 2091.723
1136.790, 2078.416
1137.272, 2083.836
1137.754, 2103.357
1138.236, 2108.748
1138.718, 2099.504
1139.200, 2091.869
1139.682, 2091.681
1140.164, 2097.302
1140.646, 2109.250
1141.129, 2121.196
1141.611, 2120.256
1142.093, 2110.807
1142.575, 2102.748
1143.057, 2096.970
1143.539, 2092.735
1144.021, 2090.242
1144.503, 2093.080
1144.985, 2105.415
1145.468, 2118.583
1145.950, 2121.524
1146.432, 2119.213
1146.914, 2119.418
1147.396, 2120.362
1147.878, 2116.729
1148.360, 2108.289
1148.842, 2099.033
1149.325, 2090.259
1149.807, 2084.460
1150.289, 2086.618
1150.771, 2089.735
1151.253, 2085.309
1151.735, 2078.805
1152.217, 2077.507
1152.699, 2082.127
1153.182, 2092.249
1153.664, 2109.974
1154.146, 2120.853
1154.628, 2110.477
1155.110, 2100.315
1155.592, 2105.341
1156.074, 2114.117
1156.556, 2115.909
1157.038, 2111.495
1157.521, 2103.722
1158.003, 2091.322
1158.485, 2087.944
1158.967, 2101.437
1159.449, 2117.442
1159.931, 2137.893
1160.413, 2153.328
1160.895, 2159.132
1161.377, 2154.972
1161.860, 2135.382
1162.342, 2097.219
1162.824, 2081.639
1163.306, 2105.384
1163.788, 2121.060
1164.270, 2116.825
1164.752, 2116.510
1165.234, 2136.872
1165.717, 2159.714
1166.199, 2158.786
1166.681, 2138.026
1167.163, 2135.975
1167.645, 2160.435
1168.127, 2166.780
1168.609, 2147.333
1169.091, 2131.815
1169.573, 2132.153
1170.056, 2135.702
1170.538, 2129.244
1171.020, 2118.230
1171.502, 2120.357
1171.984, 2134.626
1172.466, 2145.518
1172.948, 2152.270
1173.430, 2151.874
1173.912, 2143.769
1174.395, 2135.484
1174.877, 2132.674
1175.359, 2130.162
1175.841, 2112.074
1176.323, 2090.865
1176.805, 2108.932
1177.287, 2151.235
1177.769, 2166.481
1178.252, 2138.871
1178.734, 2167.056
1179.216, 2183.544
1179.698, 2188.965
1180.180, 2150.168
1180.662, 2168.469
1181.144, 2163.888
1181.626, 2158.368
1182.109, 2184.708
1182.591, 2152.342
1183.073, 2178.174
1183.555, 2180.775
1184.037, 2194.007
1184.519, 2184.217
1185.001, 2181.537
1185.483, 2201.889
1185.965, 2209.487
1186.448, 2173.388
1186.930, 2157.194
1187.412, 2152.157
1187.894, 2159.871
1188.376, 2167.456
1188.858, 2176.875
1189.340, 2178.129
1189.822, 2162.066
1190.304, 2147.489
1190.787, 2139.816
1191.269, 2138.278
1191.751, 2145.959
1192.233, 2158.441
1192.715, 2160.522
1193.197, 2148.670
1193.679, 2141.995
1194.161, 2140.241
1194.644, 2145.918
1195.126, 2163.265
1195.608, 2176.023
1196.090, 2173.010
1196.572, 2162.178
1197.054, 2157.061
1197.536, 2156.382
1198.018, 2147.613
1198.500, 2131.533
1198.983, 2127.652
1199.465, 2137.637
1199.947, 2144.560
1200.429, 2141.456
1200.911, 2133.110
1201.393, 2121.888
1201.875, 2113.451
1202.357, 2122.641
1202.839, 2140.515
1203.322, 2148.817
1203.804, 2147.620
1204.286, 2137.269
1204.768, 2121.114
1205.250, 2114.864
1205.732, 2129.309
1206.214, 2146.824
1206.696, 2158.412
1207.179, 2161.758
1207.661, 2140.486
1208.143, 2119.833
1208.625, 2144.368
1209.107, 2196.462
1209.589, 2213.354
1210.071, 2175.155
1210.553, 2146.597
1211.036, 2155.864
1211.518, 2163.690
1212.000, 2150.052
1212.482, 2139.827
1212.964, 2156.289
1213.446, 2182.128
1213.928, 2189.168
1214.410, 2178.469
1214.892, 2174.057
1215.375, 2179.854
1215.857, 2180.607
1216.339, 2172.309
1216.821, 2170.506
1217.303, 2185.154
1217.785, 2192.107
1218.267, 2166.058
1218.749, 2124.764
1219.231, 2115.345
1219.714, 2135.244
1220.196, 2146.897
1220.678, 2150.646
1221.160, 2153.876
1221.642, 2157.921
1222.124, 2160.046
1222.606, 2158.760
1223.088, 2156.176
1223.571, 2151.927
1224.053, 2150.560
1224.535, 2164.438
1225.017, 2183.310
1225.499, 2187.763
1225.981, 2181.800
1226.463, 2180.565
1226.945, 2187.075
1227.427, 2191.501
1227.910, 2187.952
1228.392, 2183.239
1228.874, 2179.411
1229.356, 2177.441
1229.838, 2180.207
1230.320, 2183.490
1230.802, 2180.905
1231.284, 2174.551
1231.766, 2174.231
1232.249, 2185.477
1232.731, 2185.825
1233.213, 2160.852
1233.695, 2150.246
1234.177, 2169.241
1234.659, 2187.625
1235.141, 2186.435
1235.623, 2179.916
1236.106, 2191.165
1236.588, 2214.913
1237.070, 2209.779
1237.552, 2174.511
1238.034, 2171.626
1238.516, 2204.780
1238.998, 2218.312
1239.480, 2195.593
1239.963, 2173.062
1240.445, 2179.025
1240.927, 2195.573
1241.409, 2193.520
1241.891, 2185.384
1242.373, 2200.551
1242.855, 2225.251
1243.337, 2227.728
1243.819, 2210.644
1244.302, 2196.891
1244.784, 2194.356
1245.266, 2196.847
1245.748, 2202.218
1246.230, 2209.819
1246.712, 2224.533
1247.194, 2235.996
1247.676, 2233.369
1248.158, 2224.567
1248.641, 2219.485
1249.123, 2218.870
1249.605, 2223.616
1250.087, 2246.798
1250.569, 2240.878
1251.051, 2180.129
1251.533, 2148.457
1252.015, 2178.746
1252.498, 2210.511
1252.980, 2202.438
1253.462, 2176.360
1253.944, 2167.133
1254.426, 2173.475
1254.908, 2193.384
1255.390, 2223.551
1255.872, 2228.513
1256.354, 2208.493
1256.837, 2191.923
1257.319, 2188.576
1257.801, 2195.195
1258.283, 2212.472
1258.765, 2227.251
1259.247, 2218.519
1259.729, 2204.163
1260.211, 2202.447
1260.693, 2212.144
1261.176, 2239.648
1261.658, 2274.090
1262.140, 2282.477
1262.622, 2253.926
1263.104, 2234.950
1263.586, 2255.057
1264.068, 2264.826
1264.550, 2241.729
1265.033, 2215.675
1265.515, 2200.641
1265.997, 2192.502
1266.479, 2188.129
1266.961, 2186.445
1267.443, 2180.941
1267.925, 2168.150
1268.407, 2175.784
1268.890, 2206.988
1269.372, 2227.161
1269.854, 2228.616
1270.336, 2220.617
1270.818, 2207.572
1271.300, 2200.203
1271.782, 2217.343
1272.264, 2242.290
1272.746, 2238.830
1273.229, 2220.532
1273.711, 2210.432
1274.193, 2209.959
1274.675, 2221.433
1275.157, 2240.830
1275.639, 2246.391
1276.121, 2223.406
1276.603, 2204.431
1277.085, 2209.944
1277.568, 2217.105
1278.050, 2205.399
##END=



