##NAMES=Dolerophanite
##RRUFFID=R060139
##IDEAL CHEMISTRY=Cu^2+^_2_OS^6+^O_4_
##LOCALITY=Vesuvius, Italy
##OWNER=RRUFF
##SOURCE=University of Arizona Mineral Museum
##DESCRIPTION=Rootbeer brown fragment
##STATUS=The identification of this mineral has been confirmed by single-crystal X-ray diffraction.
##URL=rruff.info/R060139
89.78156, 0.0000000E+00
90.26367, 13.53745
90.74579, 13.51764
91.22791, 13.52971
91.71002, 13.56964
92.19214, 13.60178
92.67426, 13.64123
93.15638, 13.65619
93.63850, 13.55118
94.12061, 13.14671
94.60273, 12.63855
95.08485, 12.55443
95.56696, 12.94101
96.04908, 13.44110
96.53120, 13.62841
97.01331, 13.51278
97.49543, 13.35692
97.97755, 13.30729
98.45966, 13.35138
98.94178, 13.18957
99.42390, 12.72212
99.90602, 12.19109
100.3881, 12.10696
100.8703, 12.58342
101.3524, 13.10616
101.8345, 13.44496
102.3166, 13.59352
102.7987, 13.54744
103.2808, 13.21013
103.7630, 12.67910
104.2451, 12.42180
104.7272, 12.59533
105.2093, 12.83181
105.6914, 12.88173
106.1735, 12.61366
106.6557, 12.38237
107.1378, 12.22927
107.6199, 12.15437
108.1020, 12.12236
108.5841, 12.21697
109.0662, 12.31016
109.5484, 12.28842
110.0305, 12.00090
110.5126, 11.74807
110.9947, 11.52065
111.4768, 11.25490
111.9590, 11.30446
112.4411, 12.00764
112.9232, 12.97203
113.4053, 13.67209
113.8874, 13.65427
114.3695, 13.65635
114.8517, 14.02108
115.3338, 15.00761
115.8159, 15.79383
116.2980, 15.88424
116.7801, 15.59789
117.2622, 15.62833
117.7444, 16.30842
118.2265, 17.34753
118.7086, 18.58516
119.1907, 20.16101
119.6728, 21.68642
120.1549, 22.74402
120.6371, 23.49208
121.1192, 24.57734
121.6013, 26.59537
122.0834, 29.06517
122.5655, 31.43652
123.0476, 33.37949
123.5298, 35.30114
124.0119, 37.52864
124.4940, 40.05845
124.9761, 42.85255
125.4582, 46.15150
125.9404, 49.67269
126.4225, 52.83136
126.9046, 55.17358
127.3867, 57.08348
127.8688, 59.09700
128.3509, 61.20460
128.8331, 63.50935
129.3152, 66.17660
129.7973, 69.17726
130.2794, 72.29165
130.7615, 75.27415
131.2436, 78.27200
131.7258, 81.79348
132.2079, 85.91415
132.6900, 90.39269
133.1721, 94.87652
133.6542, 99.34481
134.1364, 103.9661
134.6185, 108.9296
135.1006, 114.2437
135.5827, 119.4588
136.0648, 124.4952
136.5469, 129.5202
137.0291, 135.0579
137.5112, 141.2062
137.9933, 147.3148
138.4754, 153.0842
138.9575, 158.4638
139.4396, 163.4484
139.9218, 167.7728
140.4039, 171.6816
140.8860, 176.2979
141.3681, 181.6614
141.8502, 187.6206
142.3323, 194.0598
142.8145, 201.4583
143.2966, 208.3208
143.7787, 214.2576
144.2608, 219.3328
144.7429, 224.3299
145.2250, 229.1494
145.7072, 234.0410
146.1893, 239.2978
146.6714, 245.2784
147.1535, 251.0581
147.6356, 256.1272
148.1178, 260.1652
148.5999, 265.5113
149.0820, 272.1701
149.5641, 280.1248
150.0462, 289.3238
150.5283, 301.6040
151.0105, 313.1795
151.4926, 319.9165
151.9747, 323.1421
152.4568, 327.7140
152.9389, 334.8551
153.4210, 343.0726
153.9032, 350.4059
154.3853, 356.8084
154.8674, 362.1095
155.3495, 366.1351
155.8316, 368.5399
156.3137, 370.6531
156.7959, 373.1643
157.2780, 375.5079
157.7601, 376.6020
158.2422, 376.4312
158.7243, 374.8449
159.2065, 371.7154
159.6886, 366.6146
160.1707, 360.7362
160.6528, 354.2307
161.1349, 347.1846
161.6170, 339.8287
162.0992, 331.9148
162.5813, 323.9117
163.0634, 316.0797
163.5455, 308.1325
164.0276, 300.8105
164.5097, 294.5453
164.9919, 289.2040
165.4740, 284.2951
165.9561, 280.0665
166.4382, 275.9496
166.9203, 271.3495
167.4024, 265.4872
167.8846, 259.7328
168.3667, 254.8050
168.8488, 250.6599
169.3309, 247.0503
169.8130, 243.8801
170.2952, 241.1220
170.7773, 238.7926
171.2594, 237.2363
171.7415, 235.8161
172.2236, 233.8484
172.7057, 231.3737
173.1879, 229.0327
173.6700, 227.4190
174.1521, 226.2416
174.6342, 225.0033
175.1163, 223.0664
175.5984, 221.1676
176.0806, 220.5018
176.5627, 221.0754
177.0448, 221.5238
177.5269, 220.3933
178.0090, 218.1995
178.4911, 216.1314
178.9733, 214.6999
179.4554, 213.7226
179.9375, 212.9543
180.4196, 212.4112
180.9017, 211.9530
181.3838, 211.4265
181.8660, 210.8667
182.3481, 210.3745
182.8302, 210.1919
183.3123, 210.1024
183.7944, 209.4844
184.2766, 208.2313
184.7587, 206.9272
185.2408, 206.3615
185.7229, 206.4321
186.2050, 206.4820
186.6871, 206.0823
187.1693, 205.3808
187.6514, 205.0095
188.1335, 205.0625
188.6156, 205.1867
189.0977, 204.6835
189.5798, 203.5985
190.0620, 202.8130
190.5441, 203.0979
191.0262, 204.2259
191.5083, 204.6367
191.9904, 204.1431
192.4725, 203.1629
192.9547, 202.2336
193.4368, 201.3367
193.9189, 200.8125
194.4010, 201.0598
194.8831, 202.0147
195.3652, 202.6288
195.8474, 202.7889
196.3295, 202.6578
196.8116, 202.5301
197.2937, 202.4096
197.7758, 202.2666
198.2579, 202.0515
198.7401, 201.7598
199.2222, 201.5502
199.7043, 201.4067
200.1864, 201.3785
200.6685, 201.6289
201.1507, 202.2001
201.6328, 202.8368
202.1149, 203.3755
202.5970, 203.7990
203.0791, 204.3009
203.5612, 204.9216
204.0434, 205.6062
204.5255, 206.1369
205.0076, 206.4263
205.4897, 206.8659
205.9718, 207.8537
206.4539, 209.5684
206.9361, 210.6843
207.4182, 210.7890
207.9003, 210.3549
208.3824, 210.9794
208.8645, 212.9280
209.3466, 215.2520
209.8288, 217.3886
210.3109, 219.2552
210.7930, 221.3293
211.2751, 223.7863
211.7572, 226.4404
212.2393, 228.5912
212.7215, 229.9289
213.2036, 231.3913
213.6857, 233.6329
214.1678, 236.9062
214.6499, 240.1408
215.1320, 243.3061
215.6142, 246.3858
216.0963, 249.2523
216.5784, 251.8992
217.0605, 254.3252
217.5426, 256.3608
218.0247, 257.5620
218.5069, 259.6767
218.9890, 263.1931
219.4711, 267.7587
219.9532, 271.6716
220.4353, 274.5499
220.9175, 277.4621
221.3996, 281.1728
221.8817, 285.9505
222.3638, 290.7148
222.8459, 295.1425
223.3280, 299.4803
223.8102, 304.6757
224.2923, 311.2184
224.7744, 317.9949
225.2565, 324.2590
225.7386, 329.8041
226.2207, 335.3088
226.7029, 340.8708
227.1850, 346.4445
227.6671, 351.5784
228.1492, 356.4189
228.6313, 360.6140
229.1134, 363.9891
229.5956, 366.7237
230.0777, 368.3320
230.5598, 368.8924
231.0419, 368.3260
231.5240, 366.2411
232.0062, 362.4879
232.4883, 357.4403
232.9704, 351.2198
233.4525, 343.4622
233.9346, 335.3612
234.4167, 326.9074
234.8989, 318.1945
235.3810, 309.6767
235.8631, 301.1704
236.3452, 292.9508
236.8273, 284.9984
237.3094, 276.9729
237.7916, 269.9840
238.2737, 264.2311
238.7558, 259.5386
239.2379, 255.0584
239.7200, 250.6461
240.2021, 246.6312
240.6843, 243.2196
241.1664, 240.7759
241.6485, 238.1182
242.1306, 235.0341
242.6127, 231.6901
243.0948, 228.8450
243.5770, 226.7157
244.0591, 224.7841
244.5412, 222.7866
245.0233, 220.5320
245.5054, 218.6346
245.9876, 217.2350
246.4697, 216.1982
246.9518, 215.0551
247.4339, 213.7613
247.9160, 212.4221
248.3981, 211.0637
248.8803, 209.5392
249.3624, 208.3348
249.8445, 207.5760
250.3266, 207.1070
250.8087, 206.4863
251.2908, 205.5885
251.7730, 204.7404
252.2551, 204.1279
252.7372, 203.9053
253.2193, 203.4916
253.7014, 202.8098
254.1835, 201.9730
254.6657, 201.2685
255.1478, 200.8183
255.6299, 200.2842
256.1120, 199.4710
256.5941, 198.2212
257.0763, 197.2115
257.5584, 196.4348
258.0405, 195.8944
258.5226, 195.6807
259.0047, 196.0441
259.4868, 196.2120
259.9690, 195.7628
260.4511, 194.4341
260.9332, 193.7128
261.4153, 193.3918
261.8974, 193.7037
262.3795, 193.8330
262.8617, 193.7896
263.3438, 193.0564
263.8259, 193.2140
264.3080, 193.0146
264.7901, 192.8005
265.2722, 193.0835
265.7544, 192.4506
266.2365, 192.7257
266.7186, 192.6383
267.2007, 192.7169
267.6828, 192.4362
268.1649, 192.2665
268.6471, 192.2149
269.1292, 191.8469
269.6113, 191.4533
270.0934, 191.4779
270.5755, 192.0709
271.0576, 192.5055
271.5398, 192.5584
272.0219, 192.2402
272.5040, 191.8987
272.9861, 191.5344
273.4682, 191.1552
273.9503, 190.6693
274.4325, 189.9902
274.9146, 189.7284
275.3967, 190.1582
275.8788, 191.1716
276.3610, 191.8501
276.8431, 192.1119
277.3252, 192.2698
277.8073, 192.6811
278.2894, 193.3911
278.7715, 193.8129
279.2537, 193.7086
279.7358, 193.2602
280.2179, 193.2866
280.7000, 193.8768
281.1821, 194.5533
281.6642, 194.8780
282.1464, 194.8487
282.6285, 194.9772
283.1106, 195.3248
283.5927, 195.8985
284.0748, 196.8293
284.5569, 198.1662
285.0391, 199.4308
285.5212, 200.2087
286.0033, 200.5461
286.4854, 201.0278
286.9675, 201.7512
287.4496, 202.6087
287.9318, 203.4784
288.4139, 204.3680
288.8960, 205.0172
289.3781, 205.0852
289.8602, 204.7252
290.3423, 204.7366
290.8245, 205.2383
291.3066, 206.0074
291.7887, 206.7399
292.2708, 207.4403
292.7529, 208.1069
293.2350, 208.8866
293.7172, 209.6434
294.1993, 209.8330
294.6814, 209.3531
295.1635, 208.6888
295.6456, 208.4216
296.1277, 208.4905
296.6099, 208.6488
297.0920, 208.8986
297.5741, 209.1334
298.0562, 209.0970
298.5383, 208.7710
299.0204, 208.3660
299.5026, 208.1744
299.9847, 208.0807
300.4668, 207.7652
300.9489, 206.9663
301.4311, 205.9525
301.9132, 205.0461
302.3953, 204.2436
302.8774, 203.6379
303.3595, 203.5555
303.8416, 203.6835
304.3238, 203.4488
304.8059, 202.4808
305.2880, 201.2665
305.7701, 200.1849
306.2522, 199.2484
306.7343, 198.6006
307.2165, 198.5726
307.6986, 198.7980
308.1807, 198.8134
308.6628, 198.4461
309.1449, 197.9310
309.6270, 197.4518
310.1092, 196.9699
310.5913, 196.3779
311.0734, 195.2733
311.5555, 194.2117
312.0376, 193.7755
312.5197, 194.2895
313.0019, 194.8263
313.4840, 194.7852
313.9661, 194.3946
314.4482, 194.1217
314.9303, 194.3393
315.4124, 194.6156
315.8946, 194.7263
316.3767, 194.6622
316.8588, 194.3541
317.3409, 193.5277
317.8230, 192.5068
318.3051, 191.7210
318.7873, 191.4473
319.2694, 191.2989
319.7515, 191.1436
320.2336, 190.9733
320.7157, 190.7744
321.1978, 190.3049
321.6800, 189.9138
322.1621, 189.9192
322.6442, 191.1381
323.1263, 191.9796
323.6084, 191.8290
324.0905, 190.7606
324.5727, 190.0194
325.0548, 190.0141
325.5369, 190.2487
326.0190, 190.4255
326.5012, 190.5673
326.9833, 190.6006
327.4654, 190.5110
327.9475, 190.3076
328.4296, 190.0231
328.9117, 189.5684
329.3939, 189.1111
329.8760, 188.6937
330.3581, 188.1668
330.8402, 187.9637
331.3223, 188.3005
331.8044, 188.8947
332.2866, 189.1716
332.7687, 188.9874
333.2508, 188.6747
333.7329, 188.2409
334.2150, 187.5530
334.6971, 187.4546
335.1793, 188.3546
335.6614, 189.4491
336.1435, 189.6070
336.6256, 188.4543
337.1077, 187.3537
337.5898, 186.5860
338.0720, 186.1482
338.5541, 186.2374
339.0362, 187.0399
339.5183, 187.9682
340.0004, 188.4297
340.4825, 188.3501
340.9647, 188.4325
341.4468, 188.9626
341.9289, 189.6500
342.4110, 189.3413
342.8931, 187.8787
343.3752, 186.4583
343.8574, 186.0588
344.3395, 186.5976
344.8216, 186.8321
345.3037, 186.5402
345.7858, 186.0830
346.2679, 186.1353
346.7501, 186.6676
347.2322, 187.2240
347.7143, 187.6903
348.1964, 188.0002
348.6785, 187.8135
349.1607, 187.0298
349.6428, 186.2664
350.1249, 186.3993
350.6070, 187.1584
351.0891, 187.6907
351.5713, 187.4687
352.0534, 186.9043
352.5355, 186.5953
353.0176, 186.5398
353.4997, 186.5421
353.9818, 186.5114
354.4640, 186.4281
354.9461, 186.2518
355.4282, 185.9246
355.9103, 185.5648
356.3924, 185.1999
356.8745, 184.8662
357.3567, 184.7119
357.8388, 185.0611
358.3209, 185.4903
358.8030, 185.5813
359.2851, 185.1137
359.7672, 184.7035
360.2494, 184.8168
360.7315, 185.2075
361.2136, 185.4199
361.6957, 185.0878
362.1778, 184.6950
362.6599, 184.4602
363.1421, 184.4054
363.6242, 184.4770
364.1063, 184.7643
364.5884, 185.1261
365.0705, 185.4153
365.5526, 185.5357
366.0348, 185.6467
366.5169, 185.7851
366.9990, 185.9483
367.4811, 186.0961
367.9632, 186.2032
368.4453, 186.3075
368.9275, 186.4327
369.4096, 186.7072
369.8917, 186.8265
370.3738, 186.7544
370.8559, 186.5241
371.3380, 186.2110
371.8202, 185.6442
372.3023, 185.2241
372.7844, 185.1414
373.2665, 185.4978
373.7487, 185.7818
374.2308, 185.9995
374.7129, 186.1405
375.1950, 186.1531
375.6771, 185.9551
376.1592, 185.9012
376.6414, 186.1301
377.1235, 186.6074
377.6056, 187.0410
378.0877, 187.4945
378.5698, 187.7145
379.0519, 187.3710
379.5341, 186.4639
380.0162, 185.6112
380.4983, 184.8431
380.9804, 184.2811
381.4625, 184.3928
381.9446, 185.1633
382.4268, 185.8584
382.9089, 185.9382
383.3910, 185.5773
383.8731, 185.3124
384.3552, 185.1712
384.8373, 185.1965
385.3195, 185.5692
385.8016, 186.1699
386.2837, 186.6542
386.7658, 186.8611
387.2479, 186.8662
387.7300, 186.7266
388.2122, 186.4471
388.6943, 186.1217
389.1764, 185.6938
389.6585, 185.3037
390.1406, 185.1751
390.6227, 185.6160
391.1049, 185.9778
391.5870, 185.6179
392.0691, 184.7905
392.5512, 184.2613
393.0333, 184.6575
393.5154, 185.2724
393.9976, 185.6336
394.4797, 185.5853
394.9618, 185.5986
395.4439, 185.8933
395.9260, 186.3166
396.4081, 186.6646
396.8903, 186.8669
397.3724, 187.0221
397.8545, 187.1430
398.3366, 187.2293
398.8188, 187.3359
399.3009, 187.5210
399.7830, 187.6911
400.2651, 187.7770
400.7472, 187.5748
401.2293, 187.6039
401.7115, 188.0204
402.1936, 188.6718
402.6757, 189.0864
403.1578, 189.1576
403.6399, 189.1723
404.1220, 189.2319
404.6042, 189.3305
405.0863, 189.5501
405.5684, 189.9996
406.0505, 190.3909
406.5326, 190.1198
407.0147, 189.0134
407.4969, 188.6206
407.9790, 189.6126
408.4611, 191.5778
408.9432, 192.8666
409.4253, 193.4384
409.9074, 193.6889
410.3896, 193.6550
410.8717, 193.4910
411.3538, 194.0229
411.8359, 195.5764
412.3180, 197.3271
412.8001, 197.9703
413.2823, 197.7367
413.7644, 197.6018
414.2465, 198.0720
414.7286, 198.9344
415.2107, 200.0508
415.6928, 201.4153
416.1750, 202.6138
416.6571, 203.1843
417.1392, 203.4288
417.6213, 203.7678
418.1034, 204.2244
418.5855, 204.9321
419.0677, 206.1640
419.5498, 207.7719
420.0319, 209.1499
420.5140, 209.7608
420.9961, 210.2913
421.4782, 211.2781
421.9604, 213.1796
422.4425, 214.4880
422.9246, 214.5168
423.4067, 213.8575
423.8889, 213.3195
424.3710, 213.2186
424.8531, 213.0160
425.3352, 212.6025
425.8173, 211.9805
426.2994, 211.2681
426.7816, 210.5439
427.2637, 209.6544
427.7458, 208.4122
428.2279, 206.3902
428.7100, 205.0646
429.1921, 204.7583
429.6743, 205.0584
430.1564, 205.0139
430.6385, 204.5500
431.1206, 204.0275
431.6027, 203.5121
432.0848, 203.0136
432.5670, 202.9085
433.0491, 203.2489
433.5312, 203.7731
434.0133, 204.2150
434.4954, 204.5947
434.9775, 205.0669
435.4597, 205.7433
435.9418, 206.4410
436.4239, 206.6368
436.9060, 206.4393
437.3881, 206.5523
437.8702, 207.6560
438.3524, 209.2603
438.8345, 210.7280
439.3166, 212.0088
439.7987, 213.0247
440.2808, 213.4575
440.7629, 213.6324
441.2451, 214.0527
441.7272, 214.9708
442.2093, 216.1285
442.6914, 217.5421
443.1735, 219.1477
443.6556, 220.5449
444.1378, 221.2023
444.6199, 221.8743
445.1020, 223.0682
445.5841, 225.1881
446.0662, 227.1804
446.5483, 228.7582
447.0305, 230.1596
447.5126, 231.7907
447.9947, 233.7978
448.4768, 235.8454
448.9590, 237.9273
449.4411, 240.0389
449.9232, 241.8782
450.4053, 243.3494
450.8874, 244.7057
451.3695, 246.0685
451.8517, 247.3919
452.3338, 248.9394
452.8159, 250.7165
453.2980, 252.7214
453.7801, 255.1001
454.2622, 257.8643
454.7444, 260.5161
455.2265, 262.7369
455.7086, 264.6451
456.1907, 266.6937
456.6728, 268.9285
457.1549, 271.0456
457.6371, 272.5615
458.1192, 273.7826
458.6013, 275.6463
459.0834, 278.8070
459.5655, 281.8602
460.0476, 283.0071
460.5298, 282.7315
461.0119, 282.4131
461.4940, 282.9868
461.9761, 283.6605
462.4582, 284.0267
462.9403, 284.0966
463.4225, 283.2060
463.9046, 280.5096
464.3867, 276.9492
464.8688, 273.4826
465.3509, 270.3125
465.8330, 267.2434
466.3152, 264.4075
466.7973, 261.6938
467.2794, 258.7133
467.7615, 255.3009
468.2436, 251.7097
468.7257, 247.8681
469.2079, 243.6115
469.6900, 240.1263
470.1721, 237.8382
470.6542, 235.8848
471.1363, 233.2126
471.6184, 229.4603
472.1006, 226.4691
472.5827, 224.7548
473.0648, 223.8887
473.5469, 222.5770
474.0291, 220.7912
474.5112, 218.9031
474.9933, 217.0491
475.4754, 215.2567
475.9575, 213.6402
476.4396, 212.2045
476.9218, 210.9350
477.4039, 209.8442
477.8860, 208.9158
478.3681, 208.1451
478.8502, 207.6598
479.3323, 207.1682
479.8145, 206.2744
480.2966, 205.0887
480.7787, 204.0623
481.2608, 203.5733
481.7429, 203.1986
482.2250, 202.5995
482.7072, 201.6768
483.1893, 200.8865
483.6714, 200.4371
484.1535, 200.1757
484.6356, 199.9464
485.1177, 199.9533
485.5999, 199.7318
486.0820, 199.0687
486.5641, 198.1024
487.0462, 197.3157
487.5283, 196.8088
488.0104, 196.3498
488.4926, 195.7947
488.9747, 195.0805
489.4568, 194.7605
489.9389, 194.9734
490.4210, 195.3362
490.9031, 195.4578
491.3853, 195.3355
491.8674, 194.9752
492.3495, 194.2422
492.8316, 193.4326
493.3137, 193.3732
493.7958, 193.9855
494.2780, 194.4028
494.7601, 193.8758
495.2422, 192.8660
495.7243, 192.2578
496.2064, 192.0922
496.6885, 192.1053
497.1707, 192.0933
497.6528, 192.1198
498.1349, 192.2917
498.6170, 192.8079
499.0992, 193.2280
499.5813, 193.2717
500.0634, 193.0367
500.5455, 192.7668
501.0276, 192.4378
501.5097, 192.1836
501.9919, 192.1100
502.4740, 192.2703
502.9561, 192.2778
503.4382, 191.9880
503.9203, 191.6198
504.4024, 191.3059
504.8846, 190.9997
505.3667, 190.8606
505.8488, 190.9500
506.3309, 191.1821
506.8130, 191.4083
507.2951, 191.6621
507.7773, 191.7522
508.2594, 191.4990
508.7415, 191.0068
509.2236, 190.9158
509.7057, 191.2522
510.1878, 191.6602
510.6700, 191.9277
511.1521, 192.0382
511.6342, 191.9087
512.1163, 191.4820
512.5984, 190.9824
513.0806, 190.4835
513.5627, 190.0925
514.0448, 190.0340
514.5269, 190.9241
515.0090, 191.7514
515.4911, 191.6698
515.9733, 190.8123
516.4554, 190.1270
516.9375, 190.0026
517.4196, 190.1373
517.9017, 190.3881
518.3839, 190.8268
518.8660, 191.1563
519.3481, 191.3005
519.8302, 191.3375
520.3123, 191.3440
520.7944, 191.3260
521.2766, 191.2689
521.7587, 191.1579
522.2408, 191.0121
522.7229, 190.9126
523.2050, 190.8887
523.6871, 190.8167
524.1693, 190.5280
524.6514, 190.0697
525.1335, 190.0613
525.6156, 190.5648
526.0977, 191.1226
526.5798, 191.2195
527.0620, 190.9933
527.5441, 190.8497
528.0262, 190.8902
528.5083, 191.0284
528.9904, 191.2569
529.4725, 191.5134
529.9547, 191.6456
530.4368, 191.3341
530.9189, 191.0609
531.4010, 191.2852
531.8831, 192.0025
532.3652, 192.3985
532.8474, 191.8808
533.3295, 191.1873
533.8116, 190.7710
534.2937, 190.7096
534.7758, 190.9133
535.2579, 191.7084
535.7401, 192.6067
536.2222, 192.8287
536.7043, 192.0161
537.1864, 191.3996
537.6685, 191.3339
538.1506, 191.6584
538.6328, 191.4974
539.1149, 190.7313
539.5970, 190.2361
540.0791, 190.9134
540.5612, 192.4075
541.0433, 192.8410
541.5255, 192.0572
542.0076, 191.0897
542.4897, 190.8755
542.9718, 191.2248
543.4539, 191.8117
543.9360, 192.7494
544.4182, 193.5226
544.9003, 193.5808
545.3824, 193.1576
545.8645, 192.7743
546.3466, 192.3869
546.8287, 192.3111
547.3109, 192.8678
547.7930, 194.0722
548.2751, 195.0194
548.7572, 195.3367
549.2393, 195.5451
549.7214, 195.9393
550.2036, 196.6952
550.6857, 197.2272
551.1678, 197.4267
551.6499, 197.5194
552.1320, 197.8645
552.6141, 198.5306
553.0963, 198.9916
553.5784, 199.0101
554.0605, 198.8479
554.5426, 199.2564
555.0247, 200.2083
555.5068, 201.2048
555.9890, 201.9876
556.4711, 202.5974
556.9532, 203.0478
557.4353, 203.3398
557.9174, 203.6442
558.3995, 204.0083
558.8817, 204.4829
559.3638, 205.1287
559.8459, 205.9692
560.3281, 206.9494
560.8102, 208.2334
561.2923, 209.5951
561.7744, 210.6700
562.2565, 211.0935
562.7386, 211.5537
563.2208, 212.2608
563.7029, 213.1561
564.1850, 213.8618
564.6671, 214.3108
565.1492, 214.6809
565.6313, 215.0799
566.1135, 215.5202
566.5956, 215.7869
567.0777, 215.8766
567.5598, 215.7963
568.0419, 215.5746
568.5240, 215.1966
569.0062, 214.4852
569.4883, 213.2477
569.9704, 212.0641
570.4525, 211.8714
570.9346, 212.3456
571.4167, 212.6574
571.8989, 212.3999
572.3810, 211.8759
572.8631, 211.1720
573.3452, 210.3388
573.8273, 209.6314
574.3094, 209.0689
574.7916, 208.7271
575.2737, 208.6832
575.7558, 209.0453
576.2379, 209.3916
576.7200, 209.7462
577.2021, 210.0485
577.6843, 210.2114
578.1664, 210.1201
578.6485, 210.2465
579.1306, 210.7149
579.6127, 211.3389
580.0948, 211.7784
580.5770, 212.0315
581.0591, 212.1340
581.5412, 211.8416
582.0233, 211.5501
582.5054, 212.3949
582.9875, 214.2154
583.4697, 215.8812
583.9518, 216.2922
584.4339, 216.3081
584.9160, 216.9395
585.3981, 218.3675
585.8802, 219.7239
586.3624, 220.7638
586.8445, 221.4312
587.3266, 221.6698
587.8087, 221.0059
588.2908, 220.5069
588.7729, 220.4295
589.2551, 220.5523
589.7372, 220.5430
590.2193, 220.5449
590.7014, 220.1189
591.1835, 219.1167
591.6656, 217.6037
592.1478, 215.8330
592.6299, 213.7722
593.1120, 211.7951
593.5941, 210.1449
594.0762, 208.7647
594.5583, 207.4400
595.0405, 206.1727
595.5226, 205.0204
596.0047, 204.0450
596.4868, 203.2225
596.9689, 202.5261
597.4510, 202.0094
597.9332, 201.4731
598.4153, 200.8645
598.8974, 200.1563
599.3795, 199.2873
599.8616, 197.8892
600.3438, 196.7171
600.8259, 196.0432
601.3080, 195.7630
601.7901, 195.4875
602.2722, 195.1528
602.7543, 194.9265
603.2365, 194.8309
603.7186, 194.8669
604.2007, 195.3178
604.6828, 196.2820
605.1649, 197.1509
605.6470, 197.2720
606.1292, 196.8324
606.6113, 196.6282
607.0934, 196.7530
607.5755, 197.0758
608.0576, 197.6346
608.5398, 198.2677
609.0219, 198.6222
609.5040, 197.9035
609.9861, 197.8477
610.4683, 200.2508
610.9504, 203.9664
611.4325, 206.5563
611.9146, 205.8991
612.3967, 205.5520
612.8788, 206.7622
613.3610, 209.3755
613.8431, 211.7082
614.3252, 213.5743
614.8073, 215.4511
615.2894, 217.6163
615.7715, 220.0724
616.2537, 222.6185
616.7358, 225.2562
617.2179, 227.9230
617.7000, 230.2415
618.1821, 232.4785
618.6642, 235.6377
619.1464, 240.1157
619.6285, 244.8746
620.1106, 248.6146
620.5927, 251.9567
621.0748, 255.9554
621.5569, 261.0604
622.0391, 266.9214
622.5212, 273.7926
623.0033, 281.3813
623.4854, 288.7942
623.9675, 295.7411
624.4496, 302.6345
624.9318, 309.6097
625.4139, 316.6667
625.8960, 323.8027
626.3781, 331.4364
626.8602, 338.0416
627.3423, 342.5973
627.8245, 345.1346
628.3066, 346.9564
628.7887, 348.2637
629.2708, 347.7458
629.7529, 343.2525
630.2350, 335.9686
630.7172, 328.2970
631.1993, 320.4391
631.6814, 313.1927
632.1635, 306.9654
632.6456, 301.8533
633.1277, 297.8992
633.6099, 295.6263
634.0920, 293.9803
634.5741, 292.3414
635.0562, 291.0219
635.5383, 291.1275
636.0204, 293.2547
636.5026, 295.9588
636.9847, 298.8210
637.4668, 301.8613
637.9489, 305.5205
638.4310, 309.8740
638.9131, 314.6595
639.3953, 319.9960
639.8774, 325.7286
640.3595, 330.9687
640.8416, 335.6841
641.3237, 340.2367
641.8058, 344.7220
642.2880, 349.2582
642.7701, 354.0365
643.2522, 359.4870
643.7343, 364.2339
644.2164, 367.8542
644.6985, 370.3214
645.1807, 371.5701
645.6628, 371.6189
646.1449, 370.3625
646.6270, 367.9275
647.1091, 364.2085
647.5912, 358.9208
648.0734, 351.7001
648.5555, 343.7829
649.0376, 335.3018
649.5197, 326.3853
650.0018, 317.5185
650.4839, 308.5971
650.9661, 300.3059
651.4482, 293.2104
651.9303, 286.8926
652.4124, 280.5284
652.8945, 274.0898
653.3766, 268.0215
653.8588, 262.5358
654.3409, 257.6189
654.8230, 253.2961
655.3051, 249.8437
655.7872, 246.2853
656.2693, 241.9605
656.7515, 237.6892
657.2336, 234.2607
657.7158, 231.9485
658.1979, 229.8822
658.6800, 227.9913
659.1621, 226.3184
659.6442, 225.1180
660.1263, 224.4028
660.6085, 223.2210
661.0906, 221.0393
661.5727, 218.5354
662.0548, 216.5932
662.5369, 215.2754
663.0190, 214.8225
663.5012, 216.4609
663.9833, 218.1577
664.4654, 218.4705
664.9475, 217.4107
665.4296, 215.4824
665.9117, 211.6700
666.3939, 208.0445
666.8760, 205.7458
667.3581, 204.9584
667.8402, 204.1625
668.3223, 203.2802
668.8044, 202.5048
669.2866, 202.0535
669.7687, 201.9427
670.2508, 201.6040
670.7329, 200.9462
671.2150, 200.3130
671.6971, 200.1942
672.1793, 200.3941
672.6614, 200.4044
673.1435, 200.0661
673.6256, 199.6099
674.1077, 199.2764
674.5898, 198.9268
675.0720, 198.3541
675.5541, 197.0744
676.0362, 196.0260
676.5183, 195.5385
677.0004, 195.4801
677.4825, 195.5151
677.9647, 195.8975
678.4468, 195.8624
678.9289, 195.0175
679.4110, 193.6121
679.8931, 192.8496
680.3752, 192.7660
680.8574, 192.8205
681.3395, 192.6348
681.8216, 192.3866
682.3037, 192.5494
682.7858, 193.0912
683.2679, 193.5395
683.7501, 193.6337
684.2322, 193.4609
684.7143, 192.9781
685.1964, 192.0889
685.6785, 191.5070
686.1606, 191.6518
686.6428, 192.0161
687.1249, 192.2505
687.6070, 192.3838
688.0891, 192.2789
688.5712, 191.8163
689.0533, 191.3129
689.5355, 191.2674
690.0176, 191.6496
690.4997, 191.6499
690.9818, 191.0124
691.4639, 190.2676
691.9460, 190.2366
692.4282, 190.6527
692.9103, 190.9309
693.3924, 190.8242
693.8745, 190.5460
694.3566, 189.9556
694.8387, 189.2883
695.3209, 189.0995
695.8030, 190.1593
696.2851, 190.9769
696.7672, 191.1476
697.2493, 190.7910
697.7314, 190.5019
698.2136, 190.2736
698.6957, 190.1327
699.1778, 190.0961
699.6599, 190.1570
700.1420, 190.4154
700.6241, 190.8495
701.1063, 190.9854
701.5884, 190.0490
702.0705, 188.8624
702.5526, 188.5644
703.0347, 189.2312
703.5168, 189.8424
703.9990, 189.9356
704.4811, 189.7585
704.9632, 189.4245
705.4453, 188.7917
705.9274, 188.4654
706.4095, 188.6378
706.8917, 188.9025
707.3738, 188.8517
707.8560, 188.4227
708.3381, 188.3100
708.8202, 188.6165
709.3023, 189.0665
709.7844, 189.3915
710.2665, 189.5796
710.7487, 189.5799
711.2308, 189.3192
711.7129, 189.0238
712.1950, 188.8520
712.6771, 188.7658
713.1592, 188.7070
713.6414, 188.5052
714.1235, 188.5064
714.6056, 188.9733
715.0877, 189.6591
715.5698, 190.0849
716.0519, 190.2293
716.5341, 190.1430
717.0162, 189.7564
717.4983, 189.2039
717.9804, 188.8489
718.4625, 188.6862
718.9446, 188.6949
719.4268, 189.0510
719.9089, 189.4450
720.3910, 189.3770
720.8731, 188.9574
721.3552, 188.6510
721.8373, 188.8262
722.3195, 189.0611
722.8016, 189.1016
723.2837, 188.9342
723.7658, 188.8964
724.2479, 189.0599
724.7300, 189.2788
725.2122, 189.5206
725.6943, 189.7881
726.1764, 189.8904
726.6585, 189.8140
727.1406, 189.6597
727.6227, 189.4415
728.1049, 189.2140
728.5870, 189.1671
729.0691, 189.3215
729.5512, 189.3879
730.0333, 188.3830
730.5154, 188.9418
730.9976, 189.3033
731.4797, 189.4779
731.9618, 188.9060
732.4439, 189.2981
732.9260, 189.3038
733.4081, 189.2937
733.8903, 189.8214
734.3724, 190.2722
734.8545, 189.7586
735.3366, 188.8628
735.8187, 188.6254
736.3008, 188.9332
736.7830, 189.2617
737.2651, 188.5476
737.7472, 188.9908
738.2293, 189.2365
738.7114, 189.2954
739.1935, 188.6078
739.6757, 188.8841
740.1578, 188.7742
740.6399, 188.6484
741.1220, 189.0604
741.6041, 188.4814
742.0862, 188.8848
742.5684, 188.8961
743.0505, 189.0869
743.5326, 188.8889
744.0147, 188.8111
744.4968, 189.1220
744.9789, 189.2177
745.4611, 188.9750
745.9432, 189.1772
746.4253, 188.5846
746.9074, 188.6895
747.3895, 189.0952
747.8716, 188.8721
748.3538, 189.0813
748.8359, 189.5024
749.3180, 189.7347
749.8001, 189.6597
750.2822, 189.1524
750.7643, 189.6401
751.2465, 189.9304
751.7286, 190.0338
752.2107, 189.3908
752.6928, 189.7116
753.1749, 189.6462
753.6570, 189.5649
754.1392, 190.0215
754.6213, 189.4870
755.1034, 189.9350
755.5855, 189.9908
756.0676, 190.2261
756.5498, 190.0728
757.0319, 190.0395
757.5140, 190.3949
757.9962, 190.5352
758.4783, 189.2219
758.9604, 188.8104
759.4425, 188.8795
759.9246, 189.4094
760.4067, 189.5880
760.8889, 189.3730
761.3710, 189.1828
761.8531, 189.4509
762.3352, 189.9213
762.8173, 190.0862
763.2994, 189.9278
763.7816, 189.7171
764.2637, 189.5972
764.7458, 189.5106
765.2279, 189.4105
765.7100, 189.2792
766.1921, 189.2282
766.6743, 188.4584
767.1564, 188.9290
767.6385, 189.2022
768.1206, 189.2885
768.6027, 188.6284
769.0848, 188.9322
769.5670, 188.8497
770.0491, 188.7513
770.5312, 189.1907
771.0133, 188.6392
771.4954, 189.2082
771.9775, 188.8346
772.4597, 188.9512
772.9418, 189.3913
773.4239, 190.1167
773.9060, 191.5303
774.3881, 192.1197
774.8702, 191.4595
775.3524, 190.4114
775.8345, 189.6470
776.3166, 189.1790
776.7987, 188.8755
777.2808, 188.7445
777.7629, 188.7193
778.2451, 188.7613
778.7272, 188.8512
779.2093, 188.9629
779.6914, 189.1045
780.1735, 189.2025
780.6556, 189.1037
781.1378, 188.9957
781.6199, 189.0746
782.1020, 189.6668
782.5841, 189.9137
783.0662, 189.6159
783.5483, 189.1912
784.0305, 189.1042
784.5126, 189.3635
784.9947, 189.6963
785.4768, 190.1074
785.9589, 190.4152
786.4410, 190.3087
786.9232, 189.9712
787.4053, 189.7054
787.8874, 189.5352
788.3695, 189.5873
788.8516, 190.1418
789.3337, 190.8454
789.8159, 191.2946
790.2980, 191.2587
790.7801, 191.3519
791.2622, 191.7321
791.7443, 192.0566
792.2264, 191.7363
792.7086, 190.8192
793.1907, 190.2611
793.6728, 190.2907
794.1549, 190.4015
794.6370, 189.8444
795.1191, 189.0300
795.6013, 188.6596
796.0834, 189.1924
796.5655, 189.6503
797.0476, 189.6165
797.5297, 189.3543
798.0118, 189.1750
798.4940, 189.0242
798.9761, 189.1098
799.4582, 189.4988
799.9403, 190.0335
800.4224, 190.6253
800.9045, 191.2177
801.3867, 191.4468
801.8688, 191.1699
802.3509, 190.7738
802.8330, 190.5219
803.3151, 190.4302
803.7972, 190.5370
804.2794, 191.0103
804.7615, 191.4134
805.2436, 191.6174
805.7258, 191.7307
806.2079, 191.8931
806.6900, 192.1787
807.1721, 192.1388
807.6542, 191.5899
808.1364, 191.0853
808.6185, 191.5677
809.1006, 192.7065
809.5827, 193.5219
810.0648, 193.7639
810.5469, 193.7477
811.0291, 193.5955
811.5112, 193.3645
811.9933, 193.1195
812.4754, 192.8972
812.9575, 192.6124
813.4396, 192.1676
813.9218, 191.7510
814.4039, 191.6334
814.8860, 191.8426
815.3681, 191.8613
815.8502, 191.5902
816.3323, 191.3171
816.8145, 191.4333
817.2966, 191.7739
817.7787, 192.0617
818.2608, 192.2499
818.7429, 192.3370
819.2250, 192.2614
819.7072, 192.1203
820.1893, 192.0135
820.6714, 192.0166
821.1535, 191.8699
821.6356, 191.4544
822.1177, 191.0992
822.5999, 191.2641
823.0820, 191.8542
823.5641, 192.2573
824.0462, 192.4050
824.5283, 192.3506
825.0104, 192.0008
825.4926, 191.5443
825.9747, 191.1865
826.4568, 190.9533
826.9389, 190.8581
827.4210, 190.9485
827.9031, 191.1440
828.3853, 191.4450
828.8674, 191.9281
829.3495, 192.0744
829.8316, 191.8094
830.3137, 191.5176
830.7958, 191.6292
831.2780, 191.9778
831.7601, 192.1997
832.2422, 192.2510
832.7243, 192.3060
833.2064, 192.5184
833.6885, 192.7482
834.1707, 192.8982
834.6528, 192.9560
835.1349, 192.9000
835.6170, 192.5714
836.0991, 192.4004
836.5812, 192.8640
837.0634, 193.8809
837.5455, 194.0881
838.0276, 193.4683
838.5097, 192.8255
838.9918, 192.8543
839.4739, 193.1290
839.9561, 193.1021
840.4382, 192.7461
840.9203, 192.6927
841.4024, 193.6304
841.8845, 194.4451
842.3666, 194.6379
842.8488, 194.2192
843.3309, 193.6747
843.8130, 192.9751
844.2951, 192.3216
844.7772, 191.7008
845.2593, 191.2525
845.7415, 191.4944
846.2236, 192.2927
846.7057, 192.9177
847.1878, 192.8449
847.6699, 192.2835
848.1520, 193.0237
848.6342, 193.4294
849.1163, 193.5188
849.5984, 192.3440
850.0805, 192.8016
850.5626, 192.6050
851.0447, 192.3815
851.5269, 193.0688
852.0090, 192.0779
852.4911, 192.7508
852.9732, 192.7596
853.4553, 193.0723
853.9374, 192.7267
854.4196, 192.5845
854.9017, 193.1007
855.3839, 192.1133
855.8660, 192.0512
856.3481, 191.9653
856.8302, 191.9295
857.3123, 192.1867
857.7944, 192.7790
858.2766, 193.1176
858.7587, 192.9956
859.2408, 192.6929
859.7229, 192.6661
860.2050, 192.7588
860.6871, 192.6217
861.1693, 191.7749
861.6514, 191.2648
862.1335, 191.9832
862.6156, 193.0363
863.0977, 193.1886
863.5798, 192.0546
864.0620, 191.0616
864.5441, 190.2117
865.0262, 189.7766
865.5083, 190.3888
865.9904, 191.6887
866.4725, 192.6061
866.9547, 192.9678
867.4368, 192.8833
867.9189, 191.8760
868.4010, 190.7912
868.8831, 190.4851
869.3652, 191.5913
869.8474, 192.0933
870.3295, 191.6498
870.8116, 191.1402
871.2937, 191.4039
871.7758, 192.3353
872.2579, 192.6537
872.7401, 192.3238
873.2222, 191.7786
873.7043, 191.0632
874.1864, 190.5034
874.6685, 190.6148
875.1506, 191.4403
875.6328, 191.8252
876.1149, 190.9404
876.5970, 190.1501
877.0791, 190.0174
877.5612, 190.4621
878.0433, 190.6762
878.5255, 190.6541
879.0076, 190.5414
879.4897, 190.3782
879.9718, 190.2024
880.4539, 189.9685
880.9360, 189.7525
881.4182, 189.8149
881.9003, 190.9123
882.3824, 191.5851
882.8645, 190.3601
883.3466, 191.0902
883.8287, 191.4859
884.3109, 191.5652
884.7930, 190.3804
885.2751, 190.8279
885.7572, 190.6212
886.2393, 190.3878
886.7214, 191.0650
887.2036, 190.0641
887.6857, 190.7269
888.1678, 190.7256
888.6499, 191.0282
889.1320, 190.6727
889.6141, 190.5204
890.0963, 191.0265
890.5784, 191.1681
891.0605, 190.7368
891.5426, 191.0588
892.0247, 190.0348
892.5068, 190.1919
892.9890, 190.8586
893.4711, 190.4604
893.9532, 190.7944
894.4353, 190.8495
894.9174, 190.8598
895.3995, 191.0217
895.8817, 190.2955
896.3638, 190.0602
896.8459, 190.5194
897.3280, 191.0458
897.8101, 191.2858
898.2922, 191.2576
898.7744, 190.8623
899.2565, 190.1615
899.7386, 189.8360
900.2207, 190.9439
900.7028, 192.0595
901.1849, 191.8980
901.6671, 190.6394
902.1492, 189.8947
902.6313, 189.9981
903.1134, 190.3611
903.5955, 190.9623
904.0776, 191.6319
904.5598, 191.8974
905.0419, 191.7856
905.5240, 191.4810
906.0062, 190.8747
906.4883, 190.3988
906.9704, 190.6704
907.4525, 191.2737
907.9346, 191.5386
908.4167, 190.9232
908.8989, 190.4829
909.3810, 190.3421
909.8631, 190.3332
910.3452, 190.1890
910.8273, 189.9344
911.3094, 190.0431
911.7916, 190.6194
912.2737, 191.1553
912.7558, 191.0002
913.2379, 190.6531
913.7200, 190.6853
914.2021, 191.2584
914.6843, 191.7864
915.1664, 192.3391
915.6485, 192.6294
916.1306, 192.4143
916.6127, 191.7343
917.0948, 191.2218
917.5770, 190.8768
918.0591, 190.7891
918.5412, 191.2196
919.0233, 191.7824
919.5054, 192.1129
919.9875, 192.2199
920.4697, 192.2014
920.9518, 191.8242
921.4339, 191.6590
921.9160, 191.9324
922.3981, 192.4311
922.8802, 192.6427
923.3624, 192.5680
923.8445, 192.2625
924.3266, 191.6084
924.8087, 191.0523
925.2908, 191.2126
925.7729, 191.7421
926.2551, 192.1352
926.7372, 192.2417
927.2193, 192.2364
927.7014, 192.0877
928.1835, 191.9104
928.6656, 191.7902
929.1478, 191.7293
929.6299, 191.8128
930.1120, 192.0552
930.5941, 192.2883
931.0762, 192.4585
931.5583, 192.4857
932.0405, 192.0827
932.5226, 191.2471
933.0047, 190.9979
933.4868, 192.3081
933.9689, 193.3171
934.4510, 193.2297
934.9332, 192.3200
935.4153, 191.9734
935.8974, 192.1696
936.3795, 192.5835
936.8616, 193.2078
937.3438, 193.8089
937.8259, 194.1115
938.3080, 194.2202
938.7901, 194.3382
939.2722, 194.5170
939.7543, 194.7431
940.2365, 195.1814
940.7186, 195.4779
941.2007, 194.9159
941.6828, 193.6063
942.1649, 192.8750
942.6470, 192.9242
943.1292, 193.3292
943.6113, 193.9243
944.0934, 194.5402
944.5755, 195.0170
945.0576, 195.3117
945.5397, 195.5764
946.0219, 195.8580
946.5040, 196.0668
946.9861, 196.1635
947.4682, 196.1490
947.9503, 195.9973
948.4324, 195.7199
948.9146, 195.4163
949.3967, 194.9281
949.8788, 194.6338
950.3609, 195.0794
950.8430, 195.9519
951.3251, 196.2596
951.8073, 195.3307
952.2894, 195.0393
952.7715, 195.8974
953.2536, 197.1310
953.7357, 197.2717
954.2179, 196.6427
954.7000, 196.6688
955.1821, 197.8147
955.6642, 198.7938
956.1464, 198.5129
956.6285, 197.7753
957.1106, 197.2305
957.5927, 196.8728
958.0748, 197.1040
958.5569, 198.2025
959.0391, 199.1368
959.5212, 199.0333
960.0033, 198.2736
960.4854, 197.8317
960.9675, 197.7316
961.4496, 198.0999
961.9318, 199.6197
962.4139, 200.9936
962.8960, 201.4136
963.3781, 201.1914
963.8602, 201.2297
964.3423, 201.6252
964.8245, 201.8217
965.3066, 201.6004
965.7887, 201.4353
966.2708, 202.0619
966.7529, 203.2324
967.2350, 204.5311
967.7172, 205.9963
968.1993, 207.1476
968.6814, 207.6048
969.1635, 207.8515
969.6456, 208.2187
970.1277, 208.7135
970.6099, 209.1567
971.0920, 209.5310
971.5741, 210.0161
972.0562, 210.5902
972.5383, 211.4279
973.0204, 213.1563
973.5026, 215.4404
973.9847, 216.9673
974.4668, 216.2533
974.9489, 216.0902
975.4310, 217.2422
975.9131, 219.1331
976.3953, 220.5983
976.8774, 221.6868
977.3595, 222.9651
977.8416, 224.5823
978.3237, 226.2639
978.8058, 227.6079
979.2880, 228.9805
979.7701, 230.7923
980.2522, 233.1974
980.7343, 235.7756
981.2164, 238.4860
981.6985, 241.4594
982.1807, 244.8496
982.6628, 248.5950
983.1449, 252.3063
983.6270, 256.0581
984.1091, 260.3289
984.5912, 265.1369
985.0734, 270.7969
985.5555, 277.5917
986.0376, 285.4474
986.5197, 293.9593
987.0018, 303.0428
987.4839, 313.1235
987.9661, 324.4359
988.4482, 336.3267
988.9303, 347.5026
989.4124, 358.5995
989.8945, 370.7281
990.3766, 384.1143
990.8588, 398.3718
991.3409, 413.3018
991.8230, 429.1669
992.3051, 446.1183
992.7872, 463.9012
993.2693, 482.8523
993.7515, 502.9634
994.2336, 524.5385
994.7157, 547.8727
995.1978, 572.6332
995.6799, 599.2564
996.1620, 627.3163
996.6442, 655.4770
997.1263, 684.8609
997.6084, 712.1807
998.0905, 738.0090
998.5726, 760.5021
999.0547, 778.8108
999.5369, 792.3824
1000.019, 797.7309
1000.501, 794.4959
1000.983, 782.5005
1001.465, 760.1289
1001.947, 729.9908
1002.430, 692.4153
1002.912, 647.1378
1003.394, 603.3128
1003.876, 559.9533
1004.358, 519.7404
1004.840, 482.7533
1005.322, 449.4562
1005.804, 420.1459
1006.287, 394.7676
1006.769, 372.4621
1007.251, 353.6790
1007.733, 337.1649
1008.215, 322.1618
1008.697, 309.2951
1009.179, 299.3249
1009.661, 292.4949
1010.143, 286.4315
1010.626, 281.0009
1011.108, 276.1152
1011.590, 271.8194
1012.072, 267.8582
1012.554, 263.7666
1013.036, 259.6495
1013.518, 256.3102
1014.000, 253.8258
1014.483, 252.2286
1014.965, 251.8348
1015.447, 251.9964
1015.929, 251.1459
1016.411, 249.6631
1016.893, 249.0387
1017.375, 249.8732
1017.857, 250.7959
1018.339, 250.6784
1018.822, 250.4865
1019.304, 251.2334
1019.786, 253.1533
1020.268, 254.0178
1020.750, 253.6764
1021.232, 253.2217
1021.714, 253.7031
1022.196, 254.2725
1022.679, 253.3967
1023.161, 251.4921
1023.643, 249.7603
1024.125, 249.3741
1024.607, 248.1030
1025.089, 245.2452
1025.571, 241.7859
1026.053, 239.1384
1026.535, 237.2250
1027.018, 235.0149
1027.500, 232.3730
1027.982, 229.7745
1028.464, 227.6142
1028.946, 225.6126
1029.428, 223.4949
1029.910, 221.2482
1030.392, 219.5332
1030.875, 218.4646
1031.357, 217.4255
1031.839, 216.0623
1032.321, 214.7836
1032.803, 214.5379
1033.285, 214.9082
1033.767, 215.0566
1034.249, 214.8734
1034.731, 214.1314
1035.214, 212.3165
1035.696, 210.3714
1036.178, 208.8895
1036.660, 207.8822
1037.142, 207.5116
1037.624, 207.7538
1038.106, 207.8274
1038.588, 206.7184
1039.071, 205.6898
1039.553, 205.8957
1040.035, 206.9893
1040.517, 207.7332
1040.999, 208.1501
1041.481, 207.9094
1041.963, 206.7465
1042.445, 205.5069
1042.927, 205.4759
1043.410, 206.1201
1043.892, 206.3641
1044.374, 206.0080
1044.856, 205.7485
1045.338, 205.9479
1045.820, 206.1885
1046.302, 206.2414
1046.784, 206.1828
1047.266, 206.4038
1047.749, 206.8978
1048.231, 207.6289
1048.713, 208.8367
1049.195, 209.8063
1049.677, 209.9219
1050.159, 209.4844
1050.641, 208.8358
1051.123, 207.7490
1051.606, 207.2824
1052.088, 207.5805
1052.570, 207.9824
1053.052, 207.9515
1053.534, 207.6851
1054.016, 207.5001
1054.498, 207.4101
1054.980, 207.4266
1055.463, 207.6359
1055.945, 207.8549
1056.427, 208.0669
1056.909, 208.2346
1057.391, 208.2732
1057.873, 208.1978
1058.355, 208.1055
1058.837, 207.9980
1059.319, 208.0161
1059.802, 208.6613
1060.284, 209.1565
1060.766, 208.5854
1061.248, 207.0495
1061.730, 206.6719
1062.212, 207.6784
1062.694, 208.6974
1063.176, 209.2394
1063.658, 209.5103
1064.141, 209.7122
1064.623, 209.8869
1065.105, 210.1181
1065.587, 210.5099
1066.069, 210.7370
1066.551, 210.6216
1067.033, 210.5646
1067.515, 210.9340
1067.998, 211.6166
1068.480, 211.9707
1068.962, 212.0498
1069.444, 212.1544
1069.926, 212.6318
1070.408, 212.9676
1070.890, 212.7845
1071.372, 212.3654
1071.854, 212.0775
1072.337, 211.9068
1072.819, 212.1038
1073.301, 212.7202
1073.783, 213.4690
1074.265, 214.1454
1074.747, 214.7715
1075.229, 215.3309
1075.711, 215.8352
1076.193, 216.4628
1076.676, 217.2627
1077.158, 218.0572
1077.640, 218.7645
1078.122, 219.4933
1078.604, 220.4823
1079.086, 221.6255
1079.568, 222.7077
1080.051, 223.6959
1080.533, 224.5988
1081.015, 225.2235
1081.497, 225.9680
1081.979, 227.0125
1082.461, 228.3399
1082.943, 229.9449
1083.425, 231.8138
1083.907, 233.7209
1084.390, 235.3267
1084.872, 237.2745
1085.354, 240.5420
1085.836, 244.0727
1086.318, 246.4143
1086.800, 246.9291
1087.282, 248.9944
1087.764, 252.8413
1088.246, 256.7948
1088.729, 259.0554
1089.211, 261.0367
1089.693, 264.5497
1090.175, 269.2958
1090.657, 273.9435
1091.139, 278.2514
1091.621, 282.3880
1092.103, 286.1932
1092.586, 290.2194
1093.068, 295.4022
1093.550, 301.3200
1094.032, 307.2100
1094.514, 312.9779
1094.996, 318.4943
1095.478, 323.5465
1095.960, 328.4082
1096.443, 333.1289
1096.925, 337.7534
1097.407, 342.7396
1097.889, 347.9800
1098.371, 352.5578
1098.853, 356.2878
1099.335, 359.2125
1099.817, 361.5121
1100.299, 362.8792
1100.781, 363.0287
1101.264, 362.0013
1101.746, 360.1464
1102.228, 357.4700
1102.710, 353.8018
1103.192, 348.8961
1103.674, 343.2136
1104.156, 336.9799
1104.638, 330.5213
1105.121, 324.3146
1105.603, 318.9736
1106.085, 312.8190
1106.567, 305.5055
1107.049, 298.3259
1107.531, 292.2957
1108.013, 287.0775
1108.495, 281.7206
1108.978, 276.3332
1109.460, 271.3462
1109.942, 266.8953
1110.424, 262.8877
1110.906, 259.4464
1111.388, 256.1420
1111.870, 252.1943
1112.352, 247.8522
1112.834, 244.2335
1113.317, 241.3948
1113.799, 238.8747
1114.281, 236.4631
1114.763, 234.2361
1115.245, 232.3520
1115.727, 230.6660
1116.209, 228.8696
1116.691, 226.9524
1117.173, 224.9062
1117.656, 222.6787
1118.138, 220.6193
1118.620, 219.2136
1119.102, 217.9697
1119.584, 216.3871
1120.066, 214.4661
1120.548, 212.9153
1121.030, 211.7729
1121.513, 210.7097
1121.995, 209.5376
1122.477, 208.5213
1122.959, 208.0653
1123.441, 207.9106
1123.923, 207.7342
1124.405, 207.5888
1124.887, 206.9561
1125.370, 205.6449
1125.852, 204.3772
1126.334, 203.7437
1126.816, 203.3181
1127.298, 201.8481
1127.780, 199.8821
1128.262, 198.7464
1128.744, 199.8493
1129.226, 200.4135
1129.709, 199.9554
1130.191, 199.2448
1130.673, 198.9526
1131.155, 198.9636
1131.637, 198.8707
1132.119, 198.6563
1132.601, 198.2899
1133.083, 197.4215
1133.566, 196.8226
1134.048, 196.9826
1134.530, 197.3328
1135.012, 197.0102
1135.494, 196.1051
1135.976, 195.5978
1136.458, 195.5700
1136.940, 195.6292
1137.422, 195.3579
1137.905, 195.2383
1138.387, 195.8699
1138.869, 196.8144
1139.351, 196.8462
1139.833, 195.9171
1140.315, 195.2864
1140.797, 195.1961
1141.279, 195.3083
1141.761, 195.4702
1142.244, 195.5827
1142.726, 195.5051
1143.208, 195.2548
1143.690, 195.1617
1144.172, 195.2416
1144.654, 195.4132
1145.136, 195.7126
1145.618, 195.9107
1146.101, 195.6053
1146.583, 195.0936
1147.065, 194.6894
1147.547, 194.4231
1148.029, 194.4868
1148.511, 194.9350
1148.993, 195.5555
1149.475, 196.4037
1149.958, 197.1613
1150.440, 197.1498
1150.922, 196.7135
1151.404, 196.4712
1151.886, 196.6091
1152.368, 196.9321
1152.850, 197.5632
1153.332, 198.0569
1153.814, 197.9607
1154.297, 197.6262
1154.779, 198.0286
1155.261, 198.9491
1155.743, 199.7544
1156.225, 199.9562
1156.707, 200.4347
1157.189, 201.4701
1157.671, 202.5172
1158.153, 202.7537
1158.636, 202.6113
1159.118, 204.1959
1159.600, 207.1907
1160.082, 209.9467
1160.564, 211.8250
1161.046, 213.1047
1161.528, 213.5251
1162.010, 213.7863
1162.493, 214.6102
1162.975, 215.9830
1163.457, 217.8878
1163.939, 220.3021
1164.421, 222.9236
1164.903, 225.7294
1165.385, 228.5312
1165.867, 231.0195
1166.349, 233.5797
1166.832, 236.9326
1167.314, 241.0279
1167.796, 244.7471
1168.278, 247.9756
1168.760, 251.4614
1169.242, 255.8517
1169.724, 260.5369
1170.206, 265.1515
1170.688, 269.8264
1171.171, 275.1127
1171.653, 281.0180
1172.135, 286.4895
1172.617, 291.2187
1173.099, 296.0818
1173.581, 302.2538
1174.063, 308.3820
1174.545, 313.5725
1175.028, 317.8415
1175.510, 321.0650
1175.992, 323.2964
1176.474, 323.6512
1176.956, 321.7535
1177.438, 318.5718
1177.920, 314.8412
1178.402, 310.3976
1178.885, 304.7542
1179.367, 298.0035
1179.849, 291.6948
1180.331, 285.8322
1180.813, 279.7922
1181.295, 273.2306
1181.777, 266.7289
1182.259, 260.7955
1182.741, 255.3409
1183.224, 250.2018
1183.706, 245.3597
1184.188, 241.0361
1184.670, 237.1853
1185.152, 233.9655
1185.634, 231.6967
1186.116, 229.6974
1186.598, 227.0397
1187.081, 224.2415
1187.563, 222.0869
1188.045, 220.7874
1188.527, 219.5205
1189.009, 218.2665
1189.491, 217.2100
1189.973, 216.4983
1190.455, 215.9855
1190.938, 215.8441
1191.420, 215.6547
1191.902, 214.6461
1192.384, 212.3419
1192.866, 210.2678
1193.348, 208.3664
1193.830, 206.9688
1194.312, 206.5591
1194.794, 206.5321
1195.276, 206.1468
1195.759, 205.5382
1196.241, 204.9902
1196.723, 204.6101
1197.205, 204.1089
1197.687, 203.4411
1198.169, 202.8313
1198.651, 202.4400
1199.133, 202.2224
1199.616, 202.2313
1200.098, 202.3585
1200.580, 202.3276
1201.062, 201.9899
1201.544, 201.7492
1202.026, 201.6292
1202.508, 201.5754
1202.990, 201.6439
1203.473, 201.6788
1203.955, 201.3675
1204.437, 200.8411
1204.919, 200.5531
1205.401, 200.6953
1205.883, 200.7422
1206.365, 200.6359
1206.847, 200.5089
1207.329, 200.5477
1207.812, 200.6016
1208.294, 200.5497
1208.776, 200.3492
1209.258, 199.7920
1209.740, 198.4910
1210.222, 197.8953
1210.704, 198.2858
1211.186, 198.8979
1211.668, 198.9868
1212.151, 198.8215
1212.633, 198.6430
1213.115, 198.5007
1213.597, 198.5991
1214.079, 199.1049
1214.561, 199.3252
1215.043, 199.0999
1215.525, 198.8429
1216.008, 199.1642
1216.490, 199.5903
1216.972, 199.4648
1217.454, 198.8421
1217.936, 198.4496
1218.418, 198.4283
1218.900, 198.2595
1219.382, 197.8101
1219.865, 197.3903
1220.347, 197.3572
1220.829, 197.5331
1221.311, 197.7802
1221.793, 198.0630
1222.275, 198.2214
1222.757, 198.2001
1223.239, 198.3018
1223.721, 198.6247
1224.203, 198.9032
1224.686, 198.6446
1225.168, 198.3401
1225.650, 198.7204
1226.132, 199.6914
1226.614, 199.7464
1227.096, 198.6660
1227.578, 197.8347
1228.061, 197.5860
1228.543, 197.4637
1229.025, 196.8042
1229.507, 196.1765
1229.989, 196.2322
1230.471, 196.9299
1230.953, 197.3708
1231.435, 197.4857
1231.917, 198.0904
1232.400, 199.5329
1232.882, 200.6944
1233.364, 200.3538
1233.846, 199.3750
1234.328, 198.3645
1234.810, 197.4029
1235.292, 196.6832
1235.774, 196.2125
1236.256, 196.0420
1236.739, 196.2575
1237.221, 196.4144
1237.703, 195.9510
1238.185, 195.4310
1238.667, 195.3080
1239.149, 195.5330
1239.631, 196.1062
1240.113, 196.9866
1240.596, 197.0864
1241.078, 195.9657
1241.560, 195.0264
1242.042, 195.5949
1242.524, 196.4553
1243.006, 196.7782
1243.488, 196.7011
1243.970, 196.8358
1244.453, 197.1273
1244.935, 197.0722
1245.417, 196.4778
1245.899, 195.9586
1246.381, 195.8459
1246.863, 195.9942
1247.345, 196.4386
1247.827, 196.9820
1248.309, 196.7602
1248.792, 196.0101
1249.274, 195.8299
1249.756, 196.5745
1250.238, 197.2816
1250.720, 197.5503
1251.202, 197.5853
1251.684, 197.4274
1252.166, 197.1447
1252.648, 196.8364
1253.131, 196.5539
1253.613, 196.4837
1254.095, 196.7029
1254.577, 196.8524
1255.059, 196.7032
1255.541, 196.6340
1256.023, 196.7799
1256.505, 197.0806
1256.988, 197.5751
1257.470, 198.0855
1257.952, 198.2281
1258.434, 197.9196
1258.916, 197.3248
1259.398, 196.1587
1259.880, 195.4746
1260.362, 195.7052
1260.844, 196.4380
1261.327, 197.3788
1261.809, 198.1815
1262.291, 198.2386
1262.773, 197.3804
1263.255, 196.5798
1263.737, 195.8450
1264.219, 195.3307
1264.701, 195.0963
1265.183, 195.0734
1265.666, 195.2894
1266.148, 195.5897
1266.630, 195.7953
1267.112, 195.8816
1267.594, 195.9645
1268.076, 196.0526
1268.558, 196.0595
1269.040, 195.9546
1269.523, 195.7821
1270.005, 195.4244
1270.487, 195.1426
1270.969, 195.2647
1271.451, 195.7103
1271.933, 196.1303
1272.415, 196.5192
1272.897, 196.4768
1273.380, 195.8396
1273.862, 195.1715
1274.344, 194.8723
1274.826, 194.6974
1275.308, 194.4566
1275.790, 194.2122
1276.272, 194.2385
1276.754, 194.4736
1277.236, 194.5841
1277.719, 194.4957
1278.201, 194.3314
1278.683, 194.2099
1279.165, 193.9334
1279.647, 193.3253
1280.129, 192.6326
1280.611, 192.3641
1281.093, 192.4300
1281.576, 192.6635
1282.058, 193.0529
1282.540, 193.1907
1283.022, 192.5413
1283.504, 192.3682
1283.986, 193.1208
1284.468, 194.2262
1284.950, 194.9969
1285.432, 195.4138
1285.915, 195.3724
1286.397, 194.8690
1286.879, 194.1927
1287.361, 193.2234
1287.843, 192.6816
1288.325, 192.8093
1288.807, 193.0989
1289.289, 192.8224
1289.771, 192.5044
1290.254, 192.9222
1290.736, 193.9078
1291.218, 194.0525
1291.700, 193.2482
1292.182, 192.5806
1292.664, 192.2199
1293.146, 192.1253
1293.628, 192.6447
1294.111, 193.0443
1294.593, 192.5457
1295.075, 191.6461
1295.557, 191.4299
1296.039, 191.8217
1296.521, 191.9683
1297.003, 191.7829
1297.485, 191.6744
1297.968, 192.0449
1298.450, 192.2779
1298.932, 192.1394
1299.414, 191.8049
1299.896, 191.5383
1300.378, 191.2959
1300.860, 190.8652
1301.342, 190.2690
1301.824, 189.7797
##END=



