##NAMES=Dolerophanite
##RRUFFID=R070652
##IDEAL CHEMISTRY=Cu^2+^_2_OS^6+^O_4_
##LOCALITY=First scoria cone, Northern Breakthrough (North Breach), Great Fissure (Main Fracture) eruption, Tolbachik volcano, Kamchatka Oblast', Far-Eastern Region, Russia
##OWNER=RRUFF
##SOURCE=Michael Scott
##DESCRIPTION=Very dark brown prismatic crystal to golden brown crystal fragments associated with euchlorine
##STATUS=The identification of this mineral has been confirmed by single-crystal X-ray diffraction.
##URL=rruff.info/R070652
107.0261, 2385.144
107.5082, 2538.039
107.9903, 2656.051
108.4724, 2726.637
108.9545, 2765.321
109.4366, 2800.373
109.9188, 2851.365
110.4009, 2883.031
110.8830, 2883.742
111.3651, 2827.973
111.8472, 2774.048
112.3293, 2716.438
112.8115, 2659.325
113.2936, 2626.835
113.7757, 2657.897
114.2578, 2696.657
114.7399, 2703.385
115.2220, 2634.287
115.7041, 2564.970
116.1863, 2515.721
116.6684, 2488.629
117.1505, 2474.540
117.6326, 2470.341
118.1147, 2477.097
118.5968, 2496.327
119.0790, 2544.300
119.5611, 2595.255
120.0432, 2628.104
120.5253, 2626.932
121.0074, 2635.719
121.4895, 2686.080
121.9717, 2770.341
122.4538, 2862.900
122.9359, 2974.423
123.4180, 3078.680
123.9001, 3142.220
124.3822, 3136.034
124.8644, 3099.532
125.3465, 3069.940
125.8286, 3047.198
126.3107, 3026.592
126.7928, 2999.553
127.2749, 2970.829
127.7571, 2953.029
128.2392, 2960.868
128.7213, 2982.338
129.2034, 2991.657
129.6855, 2983.136
130.1676, 2962.420
130.6498, 2955.956
131.1319, 2970.331
131.6140, 2974.450
132.0961, 2938.701
132.5782, 2872.033
133.0603, 2821.698
133.5425, 2795.810
134.0246, 2788.560
134.5067, 2786.339
134.9888, 2788.911
135.4709, 2796.947
135.9530, 2810.767
136.4352, 2830.086
136.9173, 2856.111
137.3994, 2888.943
137.8815, 2928.720
138.3636, 2977.445
138.8457, 3039.181
139.3279, 3103.907
139.8100, 3158.139
140.2921, 3201.959
140.7742, 3237.304
141.2563, 3263.165
141.7384, 3275.709
142.2206, 3292.652
142.7027, 3312.899
143.1848, 3337.697
143.6669, 3373.680
144.1490, 3426.730
144.6311, 3481.600
145.1133, 3528.303
145.5954, 3560.927
146.0775, 3597.726
146.5596, 3645.100
147.0417, 3702.214
147.5238, 3744.320
148.0060, 3759.320
148.4881, 3767.935
148.9702, 3788.849
149.4523, 3844.593
149.9344, 3887.480
150.4165, 3902.812
150.8987, 3875.408
151.3808, 3871.072
151.8629, 3900.586
152.3450, 3950.367
152.8271, 3999.957
153.3092, 4056.745
153.7914, 4106.371
154.2735, 4142.664
154.7556, 4154.567
155.2377, 4170.547
155.7198, 4191.979
156.2019, 4219.418
156.6841, 4254.683
157.1662, 4317.305
157.6483, 4376.071
158.1304, 4412.713
158.6125, 4414.073
159.0946, 4402.914
159.5768, 4388.987
160.0589, 4371.168
160.5410, 4331.933
161.0231, 4251.841
161.5052, 4152.911
161.9873, 4056.431
162.4695, 3975.957
162.9516, 3893.318
163.4337, 3798.936
163.9158, 3690.081
164.3979, 3582.456
164.8800, 3478.832
165.3622, 3381.420
165.8443, 3293.836
166.3264, 3228.636
166.8085, 3167.152
167.2906, 3093.629
167.7727, 3000.304
168.2549, 2910.329
168.7370, 2836.157
169.2191, 2776.584
169.7012, 2727.973
170.1833, 2693.091
170.6654, 2666.731
171.1476, 2645.129
171.6297, 2637.510
172.1118, 2623.051
172.5939, 2578.213
173.0760, 2506.526
173.5581, 2433.343
174.0403, 2372.535
174.5224, 2322.625
175.0045, 2281.069
175.4866, 2248.120
175.9687, 2222.901
176.4508, 2208.209
176.9330, 2204.788
177.4151, 2198.713
177.8972, 2174.832
178.3793, 2137.596
178.8614, 2099.754
179.3435, 2059.541
179.8257, 2023.886
180.3078, 2007.693
180.7899, 2014.855
181.2720, 2029.105
181.7541, 2031.679
182.2362, 2024.129
182.7184, 2015.104
183.2005, 2006.599
183.6826, 2000.350
184.1647, 2002.596
184.6468, 2017.566
185.1289, 2035.890
185.6111, 2039.282
186.0932, 2028.387
186.5753, 2018.080
187.0574, 2019.732
187.5395, 2031.755
188.0216, 2047.162
188.5037, 2065.777
188.9859, 2085.649
189.4680, 2102.635
189.9501, 2116.616
190.4322, 2127.377
190.9143, 2132.179
191.3964, 2131.656
191.8786, 2134.250
192.3607, 2144.124
192.8428, 2159.430
193.3249, 2170.981
193.8070, 2177.616
194.2891, 2184.242
194.7713, 2197.227
195.2534, 2216.831
195.7355, 2239.226
196.2176, 2263.684
196.6997, 2289.854
197.1818, 2316.373
197.6640, 2343.211
198.1461, 2370.282
198.6282, 2398.075
199.1103, 2426.983
199.5924, 2453.879
200.0745, 2476.369
200.5567, 2493.762
201.0388, 2513.462
201.5209, 2537.375
202.0030, 2562.649
202.4851, 2583.760
202.9672, 2602.385
203.4494, 2610.337
203.9315, 2598.127
204.4136, 2562.114
204.8957, 2530.034
205.3778, 2505.597
205.8599, 2487.810
206.3421, 2472.263
206.8242, 2459.600
207.3063, 2447.866
207.7884, 2435.471
208.2705, 2422.331
208.7526, 2409.345
209.2348, 2398.153
209.7169, 2388.377
210.1990, 2368.214
210.6811, 2330.384
211.1632, 2293.570
211.6453, 2281.089
212.1275, 2301.560
212.6096, 2320.148
213.0917, 2326.751
213.5738, 2320.114
214.0559, 2314.623
214.5380, 2308.553
215.0202, 2305.339
215.5023, 2311.338
215.9844, 2329.765
216.4665, 2349.704
216.9486, 2366.878
217.4307, 2379.940
217.9129, 2396.447
218.3950, 2419.427
218.8771, 2444.087
219.3592, 2458.937
219.8413, 2456.538
220.3234, 2458.282
220.8056, 2475.490
221.2877, 2516.440
221.7698, 2549.748
222.2519, 2570.475
222.7340, 2583.874
223.2161, 2608.645
223.6983, 2648.597
224.1804, 2693.563
224.6625, 2738.636
225.1446, 2786.621
225.6267, 2826.922
226.1088, 2854.334
226.5910, 2872.240
227.0731, 2903.038
227.5552, 2949.188
228.0373, 3004.690
228.5194, 3067.596
229.0015, 3146.186
229.4836, 3212.678
229.9658, 3262.907
230.4479, 3297.555
230.9300, 3321.403
231.4121, 3336.330
231.8942, 3338.661
232.3763, 3323.132
232.8585, 3281.080
233.3406, 3239.061
233.8227, 3204.665
234.3048, 3179.034
234.7869, 3140.160
235.2690, 3083.554
235.7512, 3017.191
236.2333, 2948.816
236.7154, 2875.389
237.1975, 2805.315
237.6796, 2739.001
238.1617, 2676.550
238.6439, 2619.877
239.1260, 2571.774
239.6081, 2527.445
240.0902, 2479.235
240.5723, 2417.910
241.0544, 2366.773
241.5366, 2333.513
242.0187, 2322.592
242.5008, 2312.618
242.9829, 2305.256
243.4650, 2297.923
243.9471, 2284.857
244.4293, 2258.825
244.9114, 2238.284
245.3935, 2231.546
245.8756, 2245.813
246.3577, 2252.736
246.8398, 2249.432
247.3220, 2239.789
247.8041, 2232.813
248.2862, 2231.603
248.7683, 2228.287
249.2504, 2219.227
249.7325, 2201.513
250.2147, 2185.023
250.6968, 2171.239
251.1789, 2158.462
251.6610, 2140.730
252.1431, 2112.650
252.6252, 2087.647
253.1074, 2074.255
253.5895, 2081.497
254.0716, 2077.754
254.5537, 2058.366
255.0358, 2027.349
255.5179, 1998.766
256.0001, 1970.099
256.4822, 1947.695
256.9643, 1934.829
257.4464, 1932.105
257.9285, 1938.492
258.4106, 1958.223
258.8928, 1987.618
259.3749, 2007.118
259.8570, 2015.509
260.3391, 2016.181
260.8212, 2007.135
261.3033, 1977.388
261.7855, 1970.239
262.2676, 2000.067
262.7497, 2058.601
263.2318, 2091.933
263.7139, 2089.341
264.1960, 2079.040
264.6782, 2085.088
265.1603, 2116.741
265.6424, 2136.329
266.1245, 2137.410
266.6066, 2121.534
267.0887, 2100.481
267.5709, 2073.745
268.0530, 2043.132
268.5351, 2008.907
269.0172, 1968.706
269.4993, 1934.050
269.9814, 1908.756
270.4636, 1891.549
270.9457, 1870.489
271.4278, 1843.700
271.9099, 1817.025
272.3920, 1796.614
272.8741, 1783.300
273.3563, 1772.617
273.8384, 1764.930
274.3205, 1759.615
274.8026, 1748.297
275.2847, 1727.764
275.7668, 1708.867
276.2490, 1707.779
276.7311, 1728.821
277.2132, 1738.807
277.6953, 1725.340
278.1774, 1691.509
278.6595, 1668.455
279.1417, 1658.516
279.6238, 1652.822
280.1059, 1640.884
280.5880, 1621.972
281.0701, 1605.403
281.5522, 1593.789
282.0344, 1586.872
282.5165, 1584.502
282.9986, 1587.793
283.4807, 1591.830
283.9628, 1589.041
284.4449, 1579.292
284.9271, 1573.968
285.4092, 1578.073
285.8913, 1589.901
286.3734, 1601.900
286.8555, 1614.675
287.3376, 1624.941
287.8198, 1627.007
288.3019, 1621.363
288.7840, 1616.672
289.2661, 1612.941
289.7482, 1612.360
290.2303, 1627.199
290.7124, 1659.527
291.1945, 1694.328
291.6767, 1714.895
292.1588, 1722.402
292.6409, 1725.250
293.1230, 1725.723
293.6051, 1723.955
294.0872, 1718.332
294.5694, 1707.978
295.0515, 1700.359
295.5336, 1710.154
296.0157, 1732.050
296.4978, 1742.946
296.9799, 1726.093
297.4621, 1693.198
297.9442, 1670.448
298.4263, 1658.114
298.9084, 1649.108
299.3905, 1638.071
299.8727, 1624.966
300.3548, 1609.663
300.8369, 1591.761
301.3190, 1571.868
301.8011, 1548.165
302.2832, 1519.918
302.7654, 1497.311
303.2475, 1498.892
303.7296, 1512.950
304.2117, 1514.106
304.6938, 1478.463
305.1759, 1430.396
305.6581, 1398.843
306.1402, 1384.102
306.6223, 1376.487
307.1044, 1367.514
307.5865, 1360.410
308.0686, 1360.814
308.5508, 1378.383
309.0329, 1399.899
309.5150, 1414.219
309.9971, 1421.283
310.4792, 1424.451
310.9613, 1421.584
311.4435, 1417.231
311.9256, 1417.614
312.4077, 1430.933
312.8898, 1445.463
313.3719, 1452.854
313.8540, 1452.784
314.3362, 1452.481
314.8183, 1453.315
315.3004, 1456.665
315.7825, 1464.083
316.2646, 1478.742
316.7467, 1495.287
317.2289, 1511.486
317.7110, 1527.252
318.1931, 1543.193
318.6752, 1556.401
319.1573, 1571.190
319.6394, 1591.667
320.1216, 1630.151
320.6037, 1663.789
321.0858, 1684.501
321.5679, 1692.071
322.0500, 1695.854
322.5321, 1682.210
323.0143, 1673.723
323.4964, 1688.391
323.9785, 1764.264
324.4606, 1827.092
324.9427, 1856.047
325.4248, 1852.048
325.9070, 1853.421
326.3891, 1867.557
326.8712, 1886.368
327.3533, 1904.314
327.8354, 1921.495
328.3175, 1937.289
328.7997, 1951.732
329.2818, 1964.736
329.7639, 1976.185
330.2460, 1987.054
330.7281, 1995.704
331.2102, 2001.899
331.6924, 2014.204
332.1745, 2010.490
332.6566, 1985.432
333.1387, 1941.678
333.6208, 1894.059
334.1029, 1834.741
334.5851, 1782.954
335.0672, 1753.247
335.5493, 1758.240
336.0314, 1754.722
336.5135, 1738.467
336.9956, 1711.582
337.4778, 1678.777
337.9599, 1634.809
338.4420, 1596.855
338.9241, 1577.634
339.4062, 1582.080
339.8883, 1579.515
340.3705, 1565.868
340.8526, 1545.347
341.3347, 1528.366
341.8168, 1515.811
342.2989, 1503.119
342.7810, 1488.299
343.2632, 1471.227
343.7453, 1450.577
344.2274, 1424.619
344.7095, 1397.576
345.1916, 1376.619
345.6737, 1361.859
346.1559, 1350.028
346.6380, 1340.750
347.1201, 1333.203
347.6022, 1323.120
348.0843, 1310.177
348.5664, 1295.011
349.0486, 1273.906
349.5307, 1248.927
350.0128, 1232.707
350.4949, 1241.431
350.9770, 1261.265
351.4591, 1260.392
351.9413, 1235.096
352.4234, 1206.319
352.9055, 1199.419
353.3876, 1206.677
353.8697, 1208.185
354.3518, 1185.501
354.8340, 1157.296
355.3161, 1147.867
355.7982, 1158.755
356.2803, 1169.905
356.7624, 1164.192
357.2445, 1149.292
357.7267, 1137.220
358.2088, 1132.168
358.6909, 1131.795
359.1730, 1137.556
359.6551, 1149.101
360.1372, 1156.277
360.6194, 1150.406
361.1015, 1138.817
361.5836, 1128.909
362.0657, 1119.758
362.5478, 1115.854
363.0299, 1123.436
363.5121, 1140.650
363.9942, 1151.078
364.4763, 1143.236
364.9584, 1130.584
365.4405, 1122.451
365.9226, 1125.356
366.4048, 1127.740
366.8869, 1128.801
367.3690, 1128.246
367.8511, 1124.489
368.3332, 1110.258
368.8153, 1098.119
369.2975, 1094.291
369.7796, 1108.608
370.2617, 1117.639
370.7438, 1117.729
371.2259, 1112.729
371.7080, 1113.497
372.1901, 1123.077
372.6722, 1134.475
373.1544, 1145.908
373.6365, 1160.199
374.1186, 1166.709
374.6007, 1164.312
375.0828, 1155.089
375.5649, 1140.292
376.0471, 1114.492
376.5292, 1098.207
377.0113, 1102.838
377.4934, 1130.291
377.9755, 1148.454
378.4576, 1156.211
378.9398, 1157.672
379.4219, 1156.452
379.9040, 1152.179
380.3861, 1151.159
380.8682, 1156.692
381.3503, 1167.273
381.8325, 1175.877
382.3146, 1182.055
382.7967, 1188.437
383.2788, 1199.239
383.7609, 1212.986
384.2430, 1222.696
384.7252, 1222.073
385.2073, 1219.376
385.6894, 1231.472
386.1715, 1257.488
386.6536, 1284.573
387.1357, 1304.188
387.6179, 1318.084
388.1000, 1328.749
388.5821, 1336.583
389.0642, 1341.844
389.5463, 1340.584
390.0284, 1335.644
390.5106, 1337.197
390.9927, 1350.894
391.4748, 1373.729
391.9569, 1404.495
392.4390, 1446.045
392.9211, 1487.304
393.4033, 1523.213
393.8854, 1554.260
394.3675, 1582.213
394.8496, 1600.155
395.3317, 1620.936
395.8138, 1650.239
396.2960, 1688.423
396.7781, 1735.649
397.2602, 1799.184
397.7423, 1869.394
398.2244, 1934.906
398.7065, 1988.405
399.1887, 2042.906
399.6708, 2102.546
400.1529, 2168.330
400.6350, 2229.798
401.1171, 2277.472
401.5992, 2327.953
402.0814, 2395.977
402.5635, 2495.961
403.0456, 2587.462
403.5277, 2661.410
404.0098, 2721.145
404.4919, 2789.998
404.9741, 2869.250
405.4562, 2955.914
405.9383, 3045.867
406.4204, 3139.454
406.9025, 3239.895
407.3846, 3348.569
407.8668, 3463.290
408.3489, 3577.914
408.8310, 3690.806
409.3131, 3811.238
409.7952, 3950.575
410.2773, 4104.794
410.7595, 4240.403
411.2416, 4355.164
411.7237, 4456.221
412.2058, 4545.731
412.6879, 4626.495
413.1700, 4715.646
413.6522, 4844.545
414.1343, 4977.065
414.6164, 5054.684
415.0985, 5075.620
415.5806, 5069.194
416.0627, 5055.089
416.5449, 5030.815
417.0270, 4992.180
417.5091, 4942.491
417.9912, 4874.506
418.4733, 4773.292
418.9554, 4644.660
419.4376, 4518.229
419.9197, 4410.277
420.4018, 4310.648
420.8839, 4212.516
421.3660, 4106.449
421.8481, 4011.701
422.3303, 3941.872
422.8124, 3887.266
423.2945, 3820.515
423.7766, 3719.363
424.2587, 3618.716
424.7408, 3532.520
425.2230, 3471.245
425.7051, 3403.509
426.1872, 3322.036
426.6693, 3235.856
427.1514, 3157.620
427.6335, 3091.231
428.1157, 3025.188
428.5978, 2954.745
429.0799, 2879.753
429.5620, 2814.892
430.0441, 2761.763
430.5262, 2718.148
431.0084, 2683.556
431.4905, 2658.597
431.9726, 2637.341
432.4547, 2619.732
432.9368, 2604.513
433.4189, 2585.169
433.9011, 2561.102
434.3832, 2543.423
434.8653, 2539.879
435.3474, 2549.272
435.8295, 2568.195
436.3116, 2598.950
436.7938, 2631.648
437.2759, 2655.825
437.7580, 2671.180
438.2401, 2676.057
438.7222, 2654.944
439.2043, 2629.731
439.6865, 2633.190
440.1686, 2669.602
440.6507, 2701.679
441.1328, 2695.933
441.6149, 2671.289
442.0970, 2653.332
442.5792, 2655.684
443.0613, 2662.960
443.5434, 2667.902
444.0255, 2670.810
444.5076, 2676.126
444.9897, 2690.661
445.4719, 2704.596
445.9540, 2711.305
446.4361, 2697.158
446.9182, 2692.588
447.4003, 2706.844
447.8824, 2733.078
448.3646, 2752.790
448.8467, 2762.889
449.3288, 2769.828
449.8109, 2772.966
450.2930, 2767.279
450.7751, 2780.711
451.2573, 2822.211
451.7394, 2873.123
452.2215, 2908.551
452.7036, 2925.836
453.1857, 2939.783
453.6678, 2951.214
454.1500, 2962.289
454.6320, 2985.337
455.1142, 3021.788
455.5963, 3060.610
456.0784, 3092.160
456.5605, 3117.729
457.0426, 3140.963
457.5247, 3159.178
458.0069, 3181.565
458.4890, 3227.582
458.9711, 3291.851
459.4532, 3352.751
459.9353, 3394.269
460.4174, 3426.424
460.8996, 3463.123
461.3817, 3507.474
461.8638, 3543.096
462.3459, 3550.406
462.8280, 3544.125
463.3102, 3544.615
463.7923, 3563.880
464.2744, 3587.219
464.7565, 3611.066
465.2386, 3634.522
465.7207, 3651.979
466.2029, 3659.928
466.6850, 3662.611
467.1671, 3662.747
467.6492, 3657.549
468.1313, 3653.813
468.6134, 3654.945
469.0956, 3657.463
469.5777, 3653.157
470.0598, 3644.845
470.5419, 3625.147
471.0240, 3587.849
471.5061, 3529.475
471.9883, 3481.224
472.4704, 3445.562
472.9525, 3416.009
473.4346, 3387.696
473.9167, 3360.893
474.3988, 3325.778
474.8810, 3274.124
475.3631, 3215.762
475.8452, 3179.801
476.3273, 3166.094
476.8094, 3159.072
477.2915, 3150.189
477.7737, 3139.267
478.2558, 3125.626
478.7379, 3108.786
479.2200, 3090.603
479.7021, 3072.343
480.1842, 3054.136
480.6664, 3036.174
481.1485, 3016.941
481.6306, 2999.347
482.1127, 2985.488
482.5948, 2975.631
483.0769, 2967.899
483.5591, 2971.836
484.0412, 2972.399
484.5233, 2956.133
485.0054, 2907.538
485.4875, 2856.242
485.9696, 2798.664
486.4518, 2739.518
486.9339, 2701.253
487.4160, 2709.275
487.8981, 2709.920
488.3802, 2678.203
488.8623, 2599.920
489.3445, 2536.164
489.8266, 2488.683
490.3087, 2452.121
490.7908, 2420.361
491.2729, 2393.458
491.7550, 2369.183
492.2372, 2345.513
492.7193, 2323.903
493.2014, 2313.802
493.6835, 2315.573
494.1656, 2316.673
494.6477, 2308.217
495.1299, 2291.340
495.6120, 2266.361
496.0941, 2228.773
496.5762, 2194.281
497.0583, 2178.586
497.5404, 2178.637
498.0226, 2187.164
498.5047, 2220.564
498.9868, 2246.779
499.4689, 2235.971
499.9510, 2184.158
500.4331, 2136.463
500.9153, 2122.648
501.3974, 2115.838
501.8795, 2092.133
502.3616, 2021.699
502.8437, 1963.109
503.3258, 1932.103
503.8080, 1921.370
504.2901, 1900.164
504.7722, 1862.661
505.2543, 1822.481
505.7364, 1784.884
506.2185, 1750.135
506.7007, 1717.248
507.1828, 1686.982
507.6649, 1656.831
508.1470, 1623.653
508.6291, 1587.203
509.1112, 1547.966
509.5934, 1502.228
510.0755, 1455.221
510.5576, 1422.282
511.0397, 1403.140
511.5218, 1388.866
512.0039, 1374.247
512.4860, 1359.792
512.9681, 1346.989
513.4503, 1336.924
513.9324, 1324.903
514.4145, 1304.516
514.8966, 1279.614
515.3787, 1257.138
515.8608, 1237.514
516.3430, 1223.194
516.8251, 1220.252
517.3072, 1227.807
517.7893, 1226.938
518.2714, 1201.239
518.7535, 1172.844
519.2357, 1155.868
519.7178, 1164.901
520.1999, 1167.371
520.6820, 1163.058
521.1641, 1152.171
521.6462, 1133.586
522.1284, 1101.912
522.6105, 1074.151
523.0926, 1055.810
523.5747, 1046.780
524.0568, 1041.397
524.5389, 1040.555
525.0211, 1040.019
525.5032, 1035.149
525.9853, 1026.681
526.4674, 1019.764
526.9495, 1015.733
527.4316, 1012.976
527.9138, 1011.337
528.3959, 1009.610
528.8780, 1003.210
529.3601, 982.4267
529.8422, 960.1084
530.3243, 949.0082
530.8065, 950.1879
531.2886, 955.3669
531.7707, 964.0319
532.2528, 972.6454
532.7349, 978.1201
533.2170, 985.6694
533.6992, 983.1825
534.1813, 960.9236
534.6634, 925.6165
535.1455, 900.2181
535.6276, 887.1311
536.1097, 881.5842
536.5919, 884.0331
537.0740, 896.3776
537.5561, 902.7071
538.0382, 901.6374
538.5203, 897.1474
539.0024, 892.0975
539.4846, 886.2996
539.9667, 884.5291
540.4488, 889.6121
540.9309, 896.7994
541.4130, 893.6020
541.8951, 881.4858
542.3773, 873.4709
542.8594, 882.8129
543.3415, 898.9438
543.8236, 905.4352
544.3057, 900.7231
544.7878, 894.0251
545.2700, 889.0455
545.7521, 886.7573
546.2342, 888.3217
546.7163, 900.9300
547.1984, 910.0888
547.6805, 904.8420
548.1627, 891.1067
548.6448, 889.1328
549.1269, 917.8079
549.6090, 943.8738
550.0911, 953.7532
550.5732, 942.1156
551.0554, 939.3850
551.5375, 948.7637
552.0196, 963.0789
552.5017, 975.7150
552.9838, 986.5622
553.4659, 996.7336
553.9481, 1006.968
554.4302, 1016.080
554.9123, 1018.371
555.3944, 1014.453
555.8765, 1015.939
556.3586, 1032.877
556.8408, 1058.513
557.3229, 1082.201
557.8050, 1103.525
558.2871, 1120.868
558.7692, 1130.427
559.2513, 1136.221
559.7335, 1142.941
560.2156, 1150.239
560.6977, 1161.059
561.1798, 1178.037
561.6619, 1199.614
562.1440, 1221.220
562.6262, 1238.619
563.1083, 1259.623
563.5904, 1288.255
564.0725, 1326.626
564.5546, 1358.075
565.0367, 1381.620
565.5189, 1399.435
566.0010, 1412.125
566.4831, 1418.325
566.9652, 1428.188
567.4473, 1444.891
567.9294, 1463.133
568.4116, 1474.255
568.8937, 1478.353
569.3758, 1476.427
569.8579, 1465.697
570.3400, 1450.536
570.8221, 1439.480
571.3043, 1432.535
571.7864, 1422.383
572.2685, 1400.639
572.7506, 1374.674
573.2327, 1352.496
573.7148, 1336.533
574.1970, 1322.723
574.6791, 1309.808
575.1612, 1297.856
575.6433, 1287.468
576.1254, 1280.516
576.6075, 1272.709
577.0897, 1259.814
577.5718, 1242.358
578.0539, 1240.436
578.5360, 1261.728
579.0181, 1284.605
579.5002, 1292.221
579.9824, 1283.069
580.4645, 1284.243
580.9466, 1299.536
581.4287, 1318.880
581.9108, 1324.928
582.3929, 1321.474
582.8751, 1326.741
583.3572, 1352.596
583.8393, 1385.394
584.3214, 1407.222
584.8035, 1420.411
585.2856, 1435.780
585.7678, 1461.446
586.2499, 1490.347
586.7320, 1516.145
587.2141, 1535.621
587.6962, 1561.758
588.1783, 1612.273
588.6605, 1664.281
589.1426, 1693.224
589.6247, 1676.533
590.1068, 1670.901
590.5889, 1686.495
591.0710, 1715.550
591.5532, 1734.175
592.0353, 1739.533
592.5174, 1745.290
592.9995, 1761.203
593.4816, 1784.260
593.9637, 1787.203
594.4459, 1767.881
594.9280, 1751.760
595.4101, 1770.916
595.8922, 1808.891
596.3743, 1831.921
596.8564, 1830.157
597.3386, 1819.029
597.8207, 1804.227
598.3028, 1789.650
598.7849, 1782.848
599.2670, 1803.508
599.7491, 1816.029
600.2313, 1802.444
600.7134, 1763.398
601.1955, 1728.483
601.6776, 1704.732
602.1597, 1681.219
602.6418, 1651.530
603.1240, 1612.564
603.6061, 1579.864
604.0882, 1553.593
604.5703, 1533.210
605.0524, 1517.747
605.5345, 1507.315
606.0167, 1503.177
606.4988, 1510.599
606.9809, 1518.364
607.4630, 1500.249
607.9451, 1462.395
608.4272, 1432.568
608.9094, 1432.802
609.3915, 1445.289
609.8736, 1454.004
610.3557, 1457.717
610.8378, 1462.515
611.3199, 1470.072
611.8021, 1480.443
612.2842, 1493.622
612.7663, 1510.004
613.2484, 1528.609
613.7305, 1545.305
614.2126, 1565.944
614.6948, 1601.334
615.1769, 1656.852
615.6590, 1713.903
616.1411, 1768.050
616.6232, 1819.938
617.1053, 1867.611
617.5875, 1910.460
618.0696, 1960.083
618.5517, 2029.349
619.0338, 2110.407
619.5159, 2183.587
619.9980, 2246.127
620.4802, 2313.314
620.9623, 2403.051
621.4444, 2503.562
621.9265, 2599.975
622.4086, 2674.721
622.8907, 2760.245
623.3729, 2871.169
623.8550, 3000.728
624.3371, 3131.500
624.8192, 3273.798
625.3013, 3404.769
625.7834, 3513.658
626.2656, 3600.598
626.7477, 3709.075
627.2298, 3849.989
627.7119, 3982.358
628.1940, 4079.653
628.6761, 4142.437
629.1583, 4182.020
629.6404, 4202.810
630.1225, 4183.286
630.6046, 4092.718
631.0867, 3944.344
631.5688, 3764.660
632.0510, 3538.893
632.5331, 3314.160
633.0152, 3128.325
633.4973, 2969.155
633.9794, 2808.101
634.4615, 2616.209
634.9437, 2435.210
635.4258, 2280.092
635.9079, 2151.407
636.3900, 2046.281
636.8721, 1973.043
637.3542, 1911.173
637.8364, 1847.465
638.3185, 1781.039
638.8006, 1719.652
639.2827, 1662.300
639.7648, 1613.290
640.2469, 1580.847
640.7291, 1562.254
641.2112, 1544.560
641.6933, 1522.047
642.1754, 1500.482
642.6575, 1488.850
643.1396, 1484.358
643.6218, 1478.414
644.1039, 1462.706
644.5860, 1447.739
645.0681, 1440.798
645.5502, 1443.227
646.0323, 1442.225
646.5145, 1436.380
646.9966, 1426.154
647.4787, 1412.000
647.9608, 1394.482
648.4429, 1370.746
648.9250, 1339.080
649.4072, 1303.285
649.8893, 1265.206
650.3714, 1224.958
650.8535, 1193.848
651.3356, 1177.636
651.8177, 1167.700
652.2999, 1150.771
652.7820, 1127.906
653.2641, 1104.137
653.7462, 1079.264
654.2283, 1056.516
654.7104, 1039.815
655.1926, 1029.219
655.6747, 1015.674
656.1568, 990.9853
656.6389, 966.3712
657.1210, 949.7507
657.6031, 945.1411
658.0853, 937.7636
658.5674, 925.0246
659.0495, 912.5770
659.5316, 909.8886
660.0137, 918.4207
660.4958, 918.4106
660.9779, 902.9667
661.4600, 881.7764
661.9421, 874.0785
662.4243, 876.5429
662.9064, 874.9995
663.3885, 853.8322
663.8706, 831.3812
664.3527, 827.5007
664.8348, 840.2873
665.3170, 850.1171
665.7991, 846.1278
666.2812, 838.9025
666.7633, 834.7042
667.2454, 836.0735
667.7275, 834.6396
668.2097, 830.1498
668.6918, 823.0872
669.1739, 812.2183
669.6560, 795.8724
670.1381, 787.8397
670.6202, 792.3338
671.1024, 800.7621
671.5845, 797.8510
672.0666, 785.4762
672.5487, 773.4956
673.0308, 764.1983
673.5129, 758.2800
673.9951, 758.4479
674.4772, 763.2078
674.9593, 766.6265
675.4414, 764.3069
675.9235, 761.3159
676.4056, 761.7519
676.8878, 767.1207
677.3699, 765.2086
677.8520, 747.1553
678.3341, 730.8381
678.8162, 730.6032
679.2983, 752.1931
679.7805, 760.0985
680.2626, 749.5775
680.7447, 733.4577
681.2268, 728.1240
681.7089, 731.8380
682.1910, 737.3743
682.6732, 745.0558
683.1553, 749.8915
683.6374, 742.2403
684.1195, 727.5001
684.6016, 718.4301
685.0837, 727.5533
685.5659, 737.0465
686.0480, 738.8311
686.5301, 733.0637
687.0122, 726.0419
687.4943, 714.0255
687.9764, 705.9896
688.4586, 706.3995
688.9407, 715.9404
689.4228, 728.0830
689.9049, 744.8989
690.3870, 757.1639
690.8691, 752.3381
691.3513, 734.9047
691.8334, 722.8813
692.3155, 719.2211
692.7976, 719.7530
693.2797, 723.0131
693.7618, 727.2134
694.2440, 729.5352
694.7261, 726.9813
695.2082, 724.5109
695.6903, 722.8656
696.1724, 722.4891
696.6545, 725.2089
697.1367, 736.6444
697.6188, 742.2665
698.1009, 734.6885
698.5830, 716.9167
699.0651, 715.1824
699.5472, 732.0920
700.0294, 747.4370
700.5115, 746.1496
700.9936, 733.9669
701.4757, 726.6766
701.9578, 725.0175
702.4399, 723.2565
702.9221, 712.1973
703.4042, 701.1385
703.8863, 701.2086
704.3684, 721.2487
704.8505, 736.4286
705.3326, 736.4470
705.8148, 729.3661
706.2969, 725.1696
706.7790, 725.4346
707.2611, 725.7200
707.7432, 725.7529
708.2253, 725.3225
708.7075, 723.9777
709.1896, 721.7335
709.6717, 718.4451
710.1538, 711.9890
710.6359, 706.0023
711.1180, 707.9144
711.6002, 716.5092
712.0823, 726.3116
712.5644, 738.5918
713.0465, 747.5497
713.5286, 747.8722
714.0107, 738.5944
714.4929, 730.3382
714.9750, 724.0067
715.4571, 720.2881
715.9392, 719.7940
716.4213, 723.2222
716.9034, 727.6152
717.3856, 733.5522
717.8677, 739.1340
718.3498, 742.7039
718.8319, 744.2214
719.3140, 743.1169
719.7961, 738.5379
720.2783, 733.6475
720.7604, 729.8701
721.2425, 728.5629
721.7246, 732.2223
722.2067, 748.3472
722.6888, 762.7082
723.1710, 769.4741
723.6531, 770.4243
724.1352, 771.2908
724.6173, 774.0063
725.0994, 773.9130
725.5815, 767.7216
726.0637, 757.1874
726.5458, 756.3514
727.0279, 766.1207
727.5100, 776.1707
727.9921, 779.5673
728.4742, 778.7845
728.9564, 778.5770
729.4385, 779.1554
729.9206, 781.9611
730.4027, 789.4631
730.8848, 798.6932
731.3669, 807.7854
731.8491, 817.8260
732.3312, 823.4481
732.8133, 818.6553
733.2954, 812.2085
733.7775, 811.5178
734.2596, 818.5294
734.7418, 825.0858
735.2239, 830.9278
735.7060, 835.3745
736.1881, 835.6222
736.6702, 832.8107
737.1523, 834.0659
737.6345, 845.0988
738.1166, 855.7922
738.5987, 851.8013
739.0808, 839.1624
739.5629, 832.1401
740.0450, 842.0863
740.5272, 853.0056
741.0093, 857.6594
741.4914, 857.0339
741.9735, 861.3666
742.4556, 876.4514
742.9377, 885.7939
743.4199, 879.4106
743.9020, 859.8309
744.3841, 855.2916
744.8662, 866.5257
745.3483, 880.1831
745.8304, 887.8341
746.3126, 890.4026
746.7947, 886.7974
747.2768, 876.4200
747.7589, 870.0338
748.2410, 878.2631
748.7231, 890.4727
749.2053, 898.0582
749.6874, 899.6927
750.1695, 896.0224
750.6516, 883.1070
751.1337, 868.9066
751.6158, 862.2449
752.0980, 864.0095
752.5801, 866.9586
753.0622, 870.6369
753.5443, 873.7755
754.0264, 874.6531
754.5085, 873.3781
754.9907, 870.1067
755.4728, 863.2063
755.9549, 856.4713
756.4370, 852.2075
756.9191, 850.1500
757.4012, 849.8430
757.8834, 857.2735
758.3655, 859.1623
758.8476, 850.1906
759.3297, 833.0760
759.8118, 820.2946
760.2939, 811.4522
760.7761, 808.3928
761.2582, 815.6306
761.7403, 828.6089
762.2224, 830.5737
762.7045, 822.5572
763.1866, 815.0068
763.6688, 814.0551
764.1509, 817.5703
764.6330, 825.5034
765.1151, 838.2017
765.5972, 847.0938
766.0793, 848.9710
766.5615, 846.7053
767.0436, 840.9852
767.5257, 829.2861
768.0078, 825.3889
768.4899, 832.5975
768.9720, 839.5475
769.4542, 831.7247
769.9363, 813.0400
770.4184, 802.8813
770.9005, 804.5536
771.3826, 811.2507
771.8647, 819.9207
772.3469, 828.3956
772.8290, 833.5546
773.3111, 833.5108
773.7932, 831.7932
774.2753, 826.4194
774.7574, 820.9481
775.2396, 821.0396
775.7217, 829.4642
776.2038, 835.9940
776.6859, 838.0095
777.1680, 838.3414
777.6501, 844.6807
778.1323, 855.7048
778.6144, 862.3710
779.0965, 859.8386
779.5786, 852.5545
780.0607, 842.0485
780.5428, 830.3333
781.0250, 823.5723
781.5071, 825.7712
781.9892, 831.4965
782.4713, 842.4783
782.9534, 856.5085
783.4355, 860.8226
783.9177, 852.5503
784.3998, 841.5514
784.8819, 830.6960
785.3640, 820.5953
785.8461, 814.7645
786.3282, 813.1148
786.8104, 813.1470
787.2925, 812.0272
787.7746, 812.3940
788.2567, 817.4507
788.7388, 827.3992
789.2209, 838.6611
789.7031, 845.9396
790.1852, 857.7916
790.6673, 885.6611
791.1494, 940.6249
791.6315, 950.1374
792.1136, 902.5364
792.5958, 838.7556
793.0779, 789.3234
793.5600, 753.4733
794.0421, 731.7595
794.5242, 725.0056
795.0063, 723.4405
795.4885, 720.3077
795.9706, 716.4534
796.4527, 712.2729
796.9348, 705.3459
797.4169, 703.8625
797.8990, 718.9288
798.3812, 734.9633
798.8633, 735.0308
799.3454, 712.9346
799.8275, 697.2033
800.3096, 691.6219
800.7917, 690.0985
801.2739, 683.0505
801.7560, 672.3013
802.2381, 663.9871
802.7202, 659.0447
803.2023, 658.8564
803.6844, 670.3788
804.1666, 685.8979
804.6487, 693.2430
805.1308, 682.2646
805.6129, 670.7441
806.0950, 658.7057
806.5771, 649.0307
807.0593, 649.6832
807.5414, 662.9276
808.0235, 672.3853
808.5056, 672.5455
808.9877, 667.7996
809.4698, 667.0626
809.9520, 668.8254
810.4341, 667.8392
810.9162, 654.5752
811.3983, 644.3070
811.8804, 651.2047
812.3625, 669.8901
812.8447, 679.1468
813.3268, 668.5215
813.8089, 657.5710
814.2910, 650.0407
814.7731, 646.1143
815.2552, 647.3411
815.7374, 653.9407
816.2195, 661.2839
816.7016, 668.6626
817.1837, 674.4351
817.6658, 674.8649
818.1479, 670.7172
818.6301, 666.1863
819.1122, 662.0259
819.5943, 659.2749
820.0764, 659.0109
820.5585, 661.3253
821.0406, 663.2119
821.5228, 664.8226
822.0049, 665.7031
822.4870, 665.2858
822.9691, 663.8113
823.4512, 663.1756
823.9333, 663.3663
824.4154, 664.3724
824.8975, 667.8318
825.3796, 671.1537
825.8618, 670.3492
826.3439, 665.1498
826.8260, 661.6882
827.3081, 663.4527
827.7902, 666.3998
828.2723, 668.2344
828.7545, 668.6819
829.2366, 670.4360
829.7187, 674.1288
830.2008, 677.0358
830.6829, 675.8392
831.1650, 672.2039
831.6472, 671.1338
832.1293, 672.9406
832.6114, 676.9583
833.0935, 685.6807
833.5756, 694.3954
834.0577, 698.5392
834.5399, 695.5571
835.0220, 695.5646
835.5041, 702.4440
835.9862, 708.9940
836.4683, 709.4082
836.9504, 703.0890
837.4326, 700.1924
837.9147, 701.6841
838.3968, 702.5349
838.8789, 692.3499
839.3610, 680.1959
839.8431, 684.1732
840.3253, 711.1772
840.8074, 731.1064
841.2895, 720.9053
841.7716, 702.8965
842.2537, 696.2696
842.7358, 706.7817
843.2180, 714.9563
843.7001, 720.6699
844.1822, 724.4097
844.6643, 726.0028
845.1464, 725.8959
845.6285, 726.8770
846.1107, 729.6166
846.5928, 731.2128
847.0749, 725.1363
847.5570, 718.5020
848.0391, 720.2131
848.5212, 737.5634
849.0034, 750.7542
849.4855, 757.5521
849.9676, 759.2834
850.4497, 755.3491
850.9318, 744.4710
851.4139, 739.4342
851.8961, 742.1795
852.3782, 746.9184
852.8603, 745.7374
853.3424, 742.1088
853.8245, 743.5161
854.3066, 754.1426
854.7888, 761.4055
855.2709, 755.9146
855.7530, 745.8727
856.2351, 739.5403
856.7172, 735.6277
857.1993, 740.3456
857.6815, 758.1348
858.1636, 776.3863
858.6457, 777.8279
859.1278, 766.1218
859.6099, 759.5484
860.0920, 762.2349
860.5742, 765.0983
861.0563, 758.0164
861.5384, 747.9965
862.0205, 743.1573
862.5026, 748.6932
862.9847, 753.0591
863.4669, 754.3282
863.9490, 754.8908
864.4311, 758.3188
864.9132, 765.0786
865.3953, 765.3203
865.8774, 756.7518
866.3596, 747.2058
866.8417, 745.1252
867.3238, 748.1130
867.8059, 753.2896
868.2880, 762.5327
868.7701, 766.4707
869.2523, 753.8903
869.7344, 739.0007
870.2165, 736.7994
870.6986, 754.9203
871.1807, 762.4646
871.6628, 755.6855
872.1450, 745.6714
872.6271, 746.7831
873.1092, 754.9036
873.5913, 756.9479
874.0734, 749.8726
874.5555, 741.6922
875.0377, 736.9504
875.5198, 734.5606
876.0019, 733.3312
876.4840, 732.2678
876.9661, 734.8757
877.4482, 744.8592
877.9304, 753.1907
878.4125, 748.5706
878.8946, 732.3859
879.3767, 722.8211
879.8588, 721.8310
880.3409, 723.9891
880.8231, 725.6077
881.3052, 726.9304
881.7873, 728.8779
882.2694, 733.0443
882.7515, 732.6807
883.2336, 719.1444
883.7158, 707.4122
884.1979, 709.9512
884.6800, 729.7055
885.1621, 738.4695
885.6442, 734.2701
886.1263, 728.1001
886.6085, 731.9011
887.0906, 739.8428
887.5727, 742.5981
888.0548, 738.6240
888.5369, 733.6708
889.0190, 727.8629
889.5012, 723.9180
889.9833, 723.1636
890.4654, 725.1946
890.9475, 734.6232
891.4296, 754.4022
891.9117, 770.9644
892.3939, 769.0375
892.8760, 756.3671
893.3581, 755.4836
893.8402, 767.3870
894.3223, 775.0273
894.8044, 762.1848
895.2866, 746.1202
895.7687, 737.9830
896.2508, 739.4741
896.7329, 744.2451
897.2150, 754.0555
897.6971, 763.5502
898.1793, 769.6481
898.6614, 772.8304
899.1435, 776.5661
899.6256, 780.5067
900.1077, 780.3704
900.5898, 768.3572
901.0720, 754.8703
901.5541, 750.0718
902.0362, 753.8132
902.5183, 751.6420
903.0004, 736.9919
903.4825, 724.4747
903.9647, 719.9945
904.4468, 722.1417
904.9289, 723.3591
905.4110, 723.7799
905.8931, 726.0271
906.3752, 733.4692
906.8574, 742.0149
907.3395, 749.0745
907.8216, 754.0959
908.3037, 754.8931
908.7858, 745.0251
909.2679, 737.8636
909.7501, 737.5011
910.2322, 741.8105
910.7143, 742.7818
911.1964, 740.3705
911.6785, 739.7219
912.1606, 743.7180
912.6428, 749.4654
913.1249, 754.7994
913.6070, 758.8061
914.0891, 759.2684
914.5712, 745.9502
915.0533, 740.8484
915.5355, 756.0066
916.0176, 779.1193
916.4997, 785.3956
916.9818, 772.9447
917.4639, 761.3683
917.9460, 754.2241
918.4282, 751.7552
918.9103, 757.0235
919.3924, 766.6876
919.8745, 774.3539
920.3566, 776.1215
920.8387, 778.5773
921.3209, 788.0642
921.8030, 796.7613
922.2851, 794.0660
922.7672, 775.9749
923.2493, 766.4778
923.7314, 768.5105
924.2136, 776.9221
924.6957, 792.7933
925.1778, 808.4691
925.6599, 806.2206
926.1420, 776.9656
926.6241, 754.0078
927.1063, 756.2424
927.5884, 767.7328
928.0705, 774.6959
928.5526, 774.8875
929.0347, 781.4766
929.5168, 796.3629
929.9990, 809.4099
930.4811, 808.5606
930.9632, 800.4192
931.4453, 798.8426
931.9274, 804.8795
932.4095, 812.0505
932.8917, 820.2886
933.3738, 825.8628
933.8559, 824.3210
934.3380, 815.5839
934.8201, 815.3590
935.3022, 825.5109
935.7844, 837.0062
936.2665, 848.2581
936.7486, 856.0248
937.2307, 847.3996
937.7128, 826.1819
938.1949, 811.1026
938.6771, 817.9156
939.1592, 827.5380
939.6413, 830.2454
940.1234, 827.8035
940.6055, 828.8218
941.0876, 835.5619
941.5698, 836.6171
942.0519, 825.5967
942.5340, 810.5359
943.0161, 807.1987
943.4982, 813.0357
943.9803, 821.3629
944.4625, 832.0464
944.9446, 841.5067
945.4267, 849.5724
945.9088, 854.9255
946.3909, 854.3706
946.8730, 844.0329
947.3552, 842.7472
947.8373, 855.4863
948.3194, 871.0399
948.8015, 872.2083
949.2836, 864.7609
949.7657, 861.1902
950.2479, 864.7119
950.7300, 871.0248
951.2121, 880.9764
951.6942, 891.0423
952.1763, 898.1374
952.6584, 901.6138
953.1406, 903.6740
953.6227, 903.5166
954.1048, 905.2134
954.5869, 915.0542
955.0690, 928.3715
955.5511, 935.0718
956.0333, 934.5325
956.5154, 935.8302
956.9975, 943.2101
957.4796, 953.8388
957.9617, 966.6574
958.4438, 981.3035
958.9260, 998.2277
959.4081, 1018.712
959.8902, 1033.007
960.3723, 1028.275
960.8544, 1018.899
961.3365, 1033.917
961.8187, 1066.782
962.3008, 1095.011
962.7829, 1100.756
963.2650, 1109.399
963.7471, 1132.125
964.2292, 1162.505
964.7114, 1184.480
965.1935, 1196.409
965.6756, 1217.572
966.1577, 1256.236
966.6398, 1298.829
967.1219, 1325.742
967.6041, 1344.767
968.0862, 1369.712
968.5683, 1405.425
969.0504, 1446.417
969.5325, 1492.214
970.0146, 1542.031
970.4968, 1595.336
970.9789, 1651.539
971.4610, 1715.283
971.9431, 1786.761
972.4252, 1864.666
972.9073, 1947.839
973.3895, 2036.374
973.8716, 2129.929
974.3537, 2227.200
974.8358, 2337.481
975.3179, 2462.125
975.8000, 2602.060
976.2822, 2758.987
976.7643, 2933.760
977.2464, 3114.608
977.7285, 3302.364
978.2106, 3499.606
978.6927, 3705.405
979.1749, 3926.145
979.6570, 4175.519
980.1391, 4446.581
980.6212, 4710.790
981.1033, 4949.844
981.5854, 5207.516
982.0676, 5495.146
982.5497, 5802.969
983.0318, 6106.841
983.5139, 6410.229
983.9960, 6738.703
984.4781, 7098.058
984.9603, 7474.769
985.4424, 7877.358
985.9245, 8282.953
986.4066, 8663.097
986.8887, 9027.703
987.3708, 9343.521
987.8530, 9608.126
988.3351, 9830.495
988.8172, 10038.06
989.2993, 10210.56
989.7814, 10288.65
990.2635, 10267.06
990.7456, 10196.85
991.2277, 10072.06
991.7098, 9937.463
992.1920, 9820.416
992.6741, 9720.092
993.1562, 9608.394
993.6383, 9484.475
994.1204, 9350.087
994.6025, 9185.229
995.0847, 9024.918
995.5668, 8925.437
996.0489, 8881.317
996.5310, 8876.113
997.0131, 8923.523
997.4952, 8986.325
997.9774, 9054.341
998.4595, 9131.344
998.9416, 9237.155
999.4237, 9370.848
999.9058, 9469.152
1000.388, 9528.184
1000.870, 9516.625
1001.352, 9400.646
1001.834, 9196.338
1002.316, 8918.130
1002.799, 8553.779
1003.281, 8144.204
1003.763, 7673.652
1004.245, 7185.273
1004.727, 6691.416
1005.209, 6200.500
1005.691, 5734.238
1006.173, 5296.486
1006.655, 4911.009
1007.138, 4617.969
1007.620, 4361.719
1008.102, 4099.175
1008.584, 3838.506
1009.066, 3619.724
1009.548, 3448.807
1010.030, 3308.322
1010.512, 3196.339
1010.995, 3107.726
1011.477, 3033.033
1011.959, 2973.643
1012.441, 2935.256
1012.923, 2924.763
1013.405, 2926.970
1013.887, 2942.447
1014.369, 2964.477
1014.851, 2985.177
1015.334, 3002.877
1015.816, 3031.714
1016.298, 3072.791
1016.780, 3123.361
1017.262, 3187.058
1017.744, 3255.088
1018.226, 3317.025
1018.708, 3371.810
1019.190, 3428.966
1019.673, 3493.829
1020.155, 3556.634
1020.637, 3614.312
1021.119, 3667.263
1021.601, 3720.915
1022.083, 3771.929
1022.565, 3800.550
1023.047, 3794.215
1023.530, 3766.349
1024.012, 3722.351
1024.494, 3663.669
1024.976, 3591.980
1025.458, 3505.760
1025.940, 3417.208
1026.422, 3330.665
1026.904, 3232.845
1027.386, 3096.545
1027.869, 2939.235
1028.351, 2799.110
1028.833, 2682.743
1029.315, 2573.537
1029.797, 2466.412
1030.279, 2363.127
1030.761, 2262.223
1031.243, 2164.183
1031.726, 2077.671
1032.208, 2003.425
1032.690, 1935.469
1033.172, 1869.763
1033.654, 1810.562
1034.136, 1766.022
1034.618, 1730.583
1035.100, 1690.885
1035.583, 1636.723
1036.065, 1589.517
1036.547, 1553.530
1037.029, 1523.535
1037.511, 1493.291
1037.993, 1463.203
1038.475, 1434.634
1038.957, 1406.782
1039.439, 1385.971
1039.922, 1379.079
1040.404, 1378.181
1040.886, 1380.221
1041.368, 1385.833
1041.850, 1372.210
1042.332, 1336.224
1042.814, 1305.193
1043.296, 1301.546
1043.778, 1308.486
1044.261, 1302.179
1044.743, 1286.711
1045.225, 1274.344
1045.707, 1271.506
1046.189, 1268.705
1046.671, 1265.305
1047.153, 1260.300
1047.635, 1249.247
1048.118, 1234.315
1048.600, 1230.439
1049.082, 1242.443
1049.564, 1251.148
1050.046, 1233.881
1050.528, 1213.315
1051.010, 1211.747
1051.492, 1232.012
1051.974, 1243.443
1052.457, 1244.427
1052.939, 1243.489
1053.421, 1244.990
1053.903, 1248.090
1054.385, 1250.777
1054.867, 1253.766
1055.349, 1259.370
1055.831, 1267.659
1056.313, 1280.473
1056.796, 1302.050
1057.278, 1324.121
1057.760, 1330.418
1058.242, 1323.490
1058.724, 1324.851
1059.206, 1338.315
1059.688, 1357.631
1060.170, 1384.376
1060.653, 1410.316
1061.135, 1424.732
1061.617, 1424.915
1062.099, 1442.767
1062.581, 1481.113
1063.063, 1524.369
1063.545, 1568.645
1064.027, 1609.609
1064.510, 1633.899
1064.992, 1647.952
1065.474, 1668.953
1065.956, 1708.438
1066.438, 1749.159
1066.920, 1790.013
1067.402, 1829.351
1067.884, 1861.762
1068.366, 1889.057
1068.849, 1925.474
1069.331, 1973.147
1069.813, 2024.147
1070.295, 2074.859
1070.777, 2125.301
1071.259, 2177.920
1071.741, 2232.283
1072.223, 2277.097
1072.705, 2309.993
1073.188, 2343.997
1073.670, 2387.400
1074.152, 2431.117
1074.634, 2458.411
1075.116, 2474.682
1075.598, 2490.605
1076.080, 2518.913
1076.562, 2532.909
1077.044, 2526.092
1077.527, 2510.513
1078.009, 2501.568
1078.491, 2495.765
1078.973, 2472.739
1079.455, 2430.917
1079.937, 2385.504
1080.419, 2341.659
1080.901, 2302.000
1081.384, 2272.063
1081.866, 2248.164
1082.348, 2209.009
1082.830, 2151.791
1083.312, 2102.072
1083.794, 2069.708
1084.276, 2045.262
1084.758, 2022.243
1085.240, 1997.689
1085.723, 1967.708
1086.205, 1931.393
1086.687, 1887.233
1087.169, 1829.169
1087.651, 1775.432
1088.133, 1741.894
1088.615, 1724.263
1089.097, 1710.701
1089.579, 1700.089
1090.062, 1688.256
1090.544, 1666.295
1091.026, 1650.360
1091.508, 1648.624
1091.990, 1656.253
1092.472, 1664.356
1092.954, 1672.820
1093.436, 1677.944
1093.919, 1677.542
1094.401, 1679.700
1094.883, 1690.001
1095.365, 1707.839
1095.847, 1735.970
1096.329, 1779.023
1096.811, 1803.705
1097.293, 1805.931
1097.776, 1804.350
1098.258, 1807.280
1098.740, 1814.615
1099.222, 1829.544
1099.704, 1848.633
1100.186, 1862.680
1100.668, 1866.428
1101.150, 1867.588
1101.632, 1869.931
1102.115, 1867.181
1102.597, 1850.133
1103.079, 1820.577
1103.561, 1783.504
1104.043, 1739.366
1104.525, 1704.431
1105.007, 1706.633
1105.489, 1704.455
1105.971, 1665.348
1106.454, 1598.724
1106.936, 1556.909
1107.418, 1541.005
1107.900, 1520.222
1108.382, 1482.736
1108.864, 1439.103
1109.346, 1398.165
1109.828, 1359.170
1110.311, 1322.340
1110.793, 1286.512
1111.275, 1253.570
1111.757, 1221.992
1112.239, 1197.101
1112.721, 1188.808
1113.203, 1187.345
1113.685, 1170.935
1114.167, 1142.994
1114.650, 1120.451
1115.132, 1115.582
1115.614, 1109.513
1116.096, 1098.120
1116.578, 1083.626
1117.060, 1068.147
1117.542, 1052.546
1118.024, 1040.726
1118.506, 1032.930
1118.989, 1030.748
1119.471, 1044.731
1119.953, 1055.679
1120.435, 1047.964
1120.917, 1023.974
1121.399, 1015.884
1121.881, 1023.857
1122.363, 1032.697
1122.846, 1037.392
1123.328, 1037.735
1123.810, 1029.857
1124.292, 1018.798
1124.774, 1012.852
1125.256, 1014.243
1125.738, 1016.848
1126.220, 1021.106
1126.703, 1024.420
1127.185, 1022.691
1127.667, 1019.634
1128.149, 1021.728
1128.631, 1028.274
1129.113, 1033.434
1129.595, 1035.104
1130.077, 1035.687
1130.559, 1034.792
1131.042, 1034.182
1131.524, 1038.412
1132.006, 1045.418
1132.488, 1048.415
1132.970, 1045.379
1133.452, 1043.472
1133.934, 1050.874
1134.416, 1054.868
1134.898, 1047.073
1135.381, 1029.946
1135.863, 1020.344
1136.345, 1017.682
1136.827, 1015.823
1137.309, 1013.063
1137.791, 1008.802
1138.273, 1003.577
1138.755, 995.9641
1139.238, 982.2005
1139.720, 958.0756
1140.202, 954.5859
1140.684, 974.4538
1141.166, 989.9848
1141.648, 969.7485
1142.130, 942.4529
1142.612, 937.9390
1143.094, 952.1105
1143.577, 956.0607
1144.059, 942.7516
1144.541, 936.4103
1145.023, 942.9290
1145.505, 953.8883
1145.987, 958.0634
1146.469, 959.0524
1146.951, 960.9520
1147.433, 963.5375
1147.916, 975.1458
1148.398, 1002.516
1148.880, 1027.947
1149.362, 1044.624
1149.844, 1053.970
1150.326, 1053.702
1150.808, 1048.912
1151.290, 1054.539
1151.773, 1085.854
1152.255, 1110.167
1152.737, 1109.499
1153.219, 1109.401
1153.701, 1134.106
1154.183, 1180.175
1154.665, 1210.743
1155.147, 1226.762
1155.630, 1241.057
1156.112, 1259.687
1156.594, 1279.984
1157.076, 1299.865
1157.558, 1321.011
1158.040, 1347.448
1158.522, 1378.959
1159.004, 1407.642
1159.486, 1431.894
1159.969, 1459.118
1160.451, 1496.920
1160.933, 1538.940
1161.415, 1581.148
1161.897, 1622.943
1162.379, 1665.109
1162.861, 1708.305
1163.343, 1746.291
1163.825, 1777.673
1164.308, 1801.552
1164.790, 1807.004
1165.272, 1808.916
1165.754, 1827.431
1166.236, 1869.975
1166.718, 1912.426
1167.200, 1955.458
1167.682, 1993.985
1168.165, 2024.614
1168.647, 2049.070
1169.129, 2067.227
1169.611, 2081.199
1170.093, 2095.650
1170.575, 2115.746
1171.057, 2129.465
1171.539, 2135.670
1172.021, 2136.904
1172.504, 2136.942
1172.986, 2133.500
1173.468, 2120.628
1173.950, 2098.809
1174.432, 2075.548
1174.914, 2053.504
1175.396, 2029.206
1175.878, 1999.784
1176.360, 1970.305
1176.843, 1950.814
1177.325, 1938.313
1177.807, 1929.266
1178.289, 1926.170
1178.771, 1900.032
1179.253, 1817.994
1179.735, 1732.111
1180.217, 1664.593
1180.700, 1610.422
1181.182, 1550.581
1181.664, 1486.891
1182.146, 1426.314
1182.628, 1369.466
1183.110, 1318.669
1183.592, 1281.141
1184.074, 1244.977
1184.557, 1197.707
1185.039, 1140.428
1185.521, 1099.133
1186.003, 1072.980
1186.485, 1052.480
1186.967, 1035.336
1187.449, 1019.233
1187.931, 1004.451
1188.413, 988.9252
1188.896, 967.3840
1189.378, 938.8060
1189.860, 927.0126
1190.342, 934.1580
1190.824, 937.9557
1191.306, 914.4868
1191.788, 888.2203
1192.270, 876.8661
1192.752, 876.9160
1193.235, 876.1898
1193.717, 874.6504
1194.199, 873.0351
1194.681, 871.7322
1195.163, 869.1307
1195.645, 860.5153
1196.127, 852.2927
1196.609, 853.7473
1197.092, 864.2173
1197.574, 858.8464
1198.056, 834.8629
1198.538, 818.9134
1199.020, 823.5299
1199.502, 832.3394
1199.984, 823.5686
1200.466, 810.2609
1200.948, 810.1269
1201.431, 828.2495
1201.913, 842.5898
1202.395, 853.1774
1202.877, 858.2857
1203.359, 855.0384
1203.841, 847.4553
1204.323, 838.3845
1204.805, 828.9071
1205.287, 821.6584
1205.770, 819.2751
1206.252, 811.7886
1206.734, 797.3502
1207.216, 785.6116
1207.698, 787.8960
1208.180, 795.5392
1208.662, 799.0983
1209.144, 798.3741
1209.627, 793.6429
1210.109, 782.8959
1210.591, 774.1757
1211.073, 768.5360
1211.555, 764.6458
1212.037, 759.8772
1212.519, 756.4491
1213.001, 759.9149
1213.484, 769.9954
1213.966, 770.8434
1214.448, 755.2807
1214.930, 747.5061
1215.412, 756.4984
1215.894, 768.8276
1216.376, 761.2928
1216.858, 745.2596
1217.340, 737.1752
1217.823, 740.7497
1218.305, 747.9854
1218.787, 762.2214
1219.269, 768.0182
1219.751, 752.2344
1220.233, 733.7688
1220.715, 759.9424
1221.197, 803.9401
1221.679, 815.3109
1222.162, 763.0790
1222.644, 725.4440
1223.126, 708.0375
1223.608, 700.1091
1224.090, 696.5636
1224.572, 697.0763
1225.054, 704.2095
1225.536, 714.6365
1226.019, 720.5113
1226.501, 717.7283
1226.983, 711.6613
1227.465, 700.0974
1227.947, 691.4908
1228.429, 697.4511
1228.911, 708.9232
1229.393, 707.1276
1229.875, 695.6534
1230.358, 691.4734
1230.840, 707.9836
1231.322, 715.3882
1231.804, 708.4744
1232.286, 697.5378
1232.768, 692.8408
1233.250, 692.9758
1233.732, 697.2276
1234.214, 705.0497
1234.697, 710.9374
1235.179, 714.8467
1235.661, 714.7224
1236.143, 708.7581
1236.625, 701.9117
1237.107, 702.1185
1237.589, 705.6469
1238.071, 706.1768
1238.553, 702.6143
1239.036, 700.7841
1239.518, 700.7232
1240.000, 703.8589
1240.482, 711.9008
1240.964, 720.9686
1241.446, 726.0203
1241.928, 727.4841
1242.410, 725.4513
1242.893, 718.5808
1243.375, 714.9782
1243.857, 716.3614
1244.339, 716.5704
1244.821, 711.5671
1245.303, 705.3694
1245.785, 705.8207
1246.267, 709.3142
1246.750, 709.2468
1247.232, 699.8828
1247.714, 700.1760
1248.196, 712.9926
1248.678, 724.4852
1249.160, 726.0391
1249.642, 720.6403
1250.124, 705.6994
1250.606, 688.3651
1251.089, 685.3835
1251.571, 708.7175
1252.053, 721.4796
1252.535, 721.9896
1253.017, 716.1677
1253.499, 700.6766
1253.981, 687.8323
1254.463, 698.0453
1254.945, 721.8269
1255.428, 729.9565
1255.910, 716.0998
1256.392, 703.3442
1256.874, 693.0856
1257.356, 687.7990
1257.838, 693.2333
1258.320, 701.8406
1258.802, 705.0602
1259.285, 705.0128
1259.767, 714.1316
1260.249, 736.3602
1260.731, 741.3388
1261.213, 722.2861
1261.695, 702.6527
1262.177, 708.5547
1262.659, 720.1848
1263.141, 720.3502
1263.624, 710.6700
1264.106, 702.1044
1264.588, 694.4275
1265.070, 691.8847
1265.552, 695.9982
1266.034, 702.0120
1266.516, 706.9051
1266.998, 711.2857
1267.480, 717.4521
1267.963, 723.7875
1268.445, 718.9555
1268.927, 703.7692
1269.409, 691.9615
##END=



