##NAMES=Dolomite
##RRUFFID=R050241
##IDEAL CHEMISTRY=CaMg(CO_3_)_2_
##LOCALITY=Eugui quarries, Navarre, Spain
##OWNER=RRUFF
##SOURCE=Marcus Origlieri
##DESCRIPTION=Light gray colored tabular crystals
##STATUS=The identification of this mineral has been confirmed by X-ray diffraction and chemical analysis
##URL=rruff.info/R050241
##MEASURED CHEMISTRY=(Ca_0.96_Mg_0.04_)_Σ=1_(Mg_0.98_Fe^2+^_0.02_)_Σ=1_(CO_3_)_2_ ; CO_2_ estimated by difference
92.35352, 74.56174
92.83563, 75.15924
93.31775, 75.38910
93.79987, 75.55617
94.28198, 74.98208
94.76410, 74.66608
95.24622, 74.93648
95.72833, 75.17948
96.21045, 74.88628
96.69257, 74.25582
97.17468, 72.50452
97.65680, 68.29910
98.13892, 63.71816
98.62103, 60.49986
99.10315, 59.35970
99.58527, 59.58926
100.0674, 59.12473
100.5495, 57.15491
101.0316, 55.49818
101.5137, 54.76711
101.9958, 54.47663
102.4780, 53.80709
102.9601, 52.08303
103.4422, 49.19927
103.9243, 47.43023
104.4064, 47.17532
104.8885, 47.27456
105.3707, 47.33918
105.8528, 47.28427
106.3349, 47.04571
106.8170, 46.49582
107.2991, 45.57681
107.7813, 44.78341
108.2634, 44.11568
108.7455, 43.59316
109.2276, 43.26981
109.7097, 43.19123
110.1918, 43.21074
110.6740, 43.22728
111.1561, 43.24057
111.6382, 43.09959
112.1203, 42.48637
112.6024, 41.50374
113.0845, 41.05314
113.5666, 41.86652
114.0488, 42.84140
114.5309, 43.24735
115.0130, 43.00783
115.4951, 42.44793
115.9772, 41.89336
116.4593, 41.27730
116.9415, 40.87382
117.4236, 40.77029
117.9057, 40.82733
118.3878, 40.96741
118.8699, 41.15856
119.3520, 41.39629
119.8342, 41.66146
120.3163, 41.78725
120.7984, 42.16468
121.2805, 43.17311
121.7626, 44.37608
122.2447, 45.17846
122.7269, 45.21859
123.2090, 44.58534
123.6911, 43.99050
124.1732, 43.29443
124.6553, 42.75582
125.1374, 42.43066
125.6196, 42.33290
126.1017, 42.55506
126.5838, 43.36217
127.0659, 44.58933
127.5480, 45.09983
128.0302, 44.12868
128.5123, 42.83863
128.9944, 42.38562
129.4765, 42.91038
129.9586, 43.76821
130.4407, 44.81447
130.9229, 45.85344
131.4050, 46.39375
131.8871, 45.90125
132.3692, 44.71697
132.8513, 43.93744
133.3334, 43.63690
133.8155, 43.73823
134.2977, 44.24268
134.7798, 45.06526
135.2619, 46.00167
135.7440, 47.04641
136.2261, 48.27894
136.7082, 48.86645
137.1904, 48.03133
137.6725, 47.15906
138.1546, 46.61962
138.6367, 46.52145
139.1188, 46.91973
139.6009, 47.99431
140.0831, 50.35691
140.5652, 51.85806
141.0473, 52.05259
141.5294, 51.84774
142.0115, 51.74575
142.4936, 51.91111
142.9758, 52.34233
143.4579, 53.06004
143.9400, 54.31115
144.4221, 55.43126
144.9042, 56.31173
145.3863, 57.06016
145.8685, 57.66924
146.3506, 58.04243
146.8327, 58.58193
147.3148, 60.29919
147.7969, 63.33434
148.2790, 66.70823
148.7612, 70.16516
149.2433, 73.68077
149.7254, 77.07034
150.2075, 79.99501
150.6896, 83.05024
151.1717, 86.89921
151.6539, 91.46625
152.1360, 97.06599
152.6181, 104.0414
153.1002, 112.4909
153.5823, 121.7066
154.0644, 131.4375
154.5466, 141.8109
155.0287, 153.4981
155.5108, 167.0866
155.9929, 180.8307
156.4750, 191.5850
156.9571, 198.4979
157.4393, 204.0125
157.9214, 208.7337
158.4035, 212.7197
158.8856, 215.8024
159.3677, 217.8169
159.8498, 219.1700
160.3320, 221.3284
160.8141, 224.1930
161.2962, 228.2065
161.7783, 233.9370
162.2604, 240.7290
162.7425, 247.6111
163.2247, 253.9609
163.7068, 259.9061
164.1889, 266.8024
164.6710, 275.5108
165.1531, 284.1699
165.6352, 291.3940
166.1174, 298.0600
166.5995, 306.1566
167.0816, 317.3725
167.5637, 331.6778
168.0458, 345.5993
168.5279, 357.4504
169.0101, 370.3057
169.4922, 385.2217
169.9743, 402.4012
170.4564, 422.3889
170.9385, 445.1165
171.4206, 471.3641
171.9028, 503.3544
172.3849, 540.7827
172.8670, 584.1803
173.3491, 634.6962
173.8312, 692.7070
174.3133, 755.5020
174.7955, 830.9134
175.2776, 910.9080
175.7597, 974.3039
176.2418, 1021.060
176.7239, 1045.789
177.2060, 1034.872
177.6882, 980.3013
178.1703, 903.0374
178.6524, 808.6903
179.1345, 703.9413
179.6166, 603.4122
180.0987, 512.7537
180.5809, 431.9817
181.0630, 362.5037
181.5451, 306.3381
182.0272, 260.6132
182.5093, 224.9320
182.9914, 197.6664
183.4736, 175.8397
183.9557, 157.9215
184.4378, 143.9968
184.9199, 131.4769
185.4020, 120.4538
185.8841, 110.9310
186.3663, 103.5430
186.8484, 97.86642
187.3305, 92.87047
187.8126, 87.49603
188.2947, 81.48656
188.7768, 76.75336
189.2590, 73.99348
189.7411, 71.72462
190.2232, 69.34200
190.7053, 66.81935
191.1874, 64.44579
191.6695, 62.56157
192.1517, 61.34347
192.6338, 59.90163
193.1159, 58.09541
193.5980, 56.21083
194.0801, 54.36681
194.5622, 52.60757
195.0444, 50.96766
195.5265, 49.48066
196.0086, 48.15557
196.4907, 47.11454
196.9728, 46.32829
197.4549, 45.83619
197.9371, 45.89034
198.4192, 46.54287
198.9013, 47.09085
199.3834, 46.54913
199.8655, 44.90154
200.3476, 43.56983
200.8298, 42.95938
201.3119, 42.72834
201.7940, 42.46935
202.2761, 42.14505
202.7582, 41.69227
203.2403, 40.88990
203.7225, 39.82953
204.2046, 38.99355
204.6867, 38.67573
205.1688, 38.69151
205.6509, 38.59083
206.1330, 38.24539
206.6152, 37.93153
207.0973, 37.88006
207.5794, 38.03664
208.0615, 38.24357
208.5436, 38.47678
209.0257, 38.70770
209.5079, 38.80035
209.9900, 38.73986
210.4721, 38.52613
210.9542, 38.08275
211.4363, 37.49032
211.9184, 36.97210
212.4006, 36.69305
212.8827, 36.64513
213.3648, 36.68356
213.8469, 36.95499
214.3290, 37.16057
214.8111, 37.11966
215.2933, 36.90543
215.7754, 36.71875
216.2575, 36.75217
216.7396, 37.02234
217.2217, 37.16515
217.7038, 36.85360
218.1859, 36.70890
218.6681, 37.11012
219.1502, 37.87974
219.6323, 38.52409
220.1144, 38.56627
220.5965, 37.92428
221.0786, 37.58883
221.5608, 37.88496
222.0429, 38.16121
222.5250, 38.09496
223.0071, 37.77851
223.4892, 37.55157
223.9713, 37.74347
224.4535, 38.43697
224.9356, 38.75331
225.4177, 38.32310
225.8998, 37.93621
226.3819, 38.09892
226.8640, 38.66076
227.3462, 39.03954
227.8283, 38.69662
228.3104, 37.54897
228.7925, 36.73883
229.2746, 36.60511
229.7567, 36.43943
230.2389, 35.70338
230.7210, 34.53016
231.2031, 33.61185
231.6852, 33.57615
232.1673, 34.42367
232.6494, 34.80378
233.1316, 34.23912
233.6137, 33.65797
234.0958, 33.72197
234.5779, 34.35072
235.0600, 34.89064
235.5421, 34.83219
236.0243, 34.22909
236.5064, 33.83366
236.9885, 33.77349
237.4706, 33.81266
237.9527, 33.79531
238.4348, 33.72591
238.9170, 33.68863
239.3991, 33.70975
239.8812, 33.82178
240.3633, 34.08269
240.8454, 34.73690
241.3275, 35.32937
241.8097, 35.44262
242.2918, 35.09098
242.7739, 34.67550
243.2560, 34.34667
243.7381, 34.12425
244.2202, 34.01933
244.7024, 34.00707
245.1845, 34.14949
245.6666, 34.63486
246.1487, 35.47458
246.6308, 36.10034
247.1129, 36.04899
247.5951, 35.73780
248.0772, 35.70786
248.5593, 36.12014
249.0414, 36.59434
249.5235, 36.68053
250.0056, 36.34064
250.4878, 36.13638
250.9699, 36.33112
251.4520, 36.72071
251.9341, 37.19772
252.4162, 37.77355
252.8983, 38.24290
253.3805, 38.22997
253.8626, 37.64007
254.3447, 37.43682
254.8268, 38.26482
255.3089, 39.32479
255.7910, 40.05015
256.2732, 40.36288
256.7553, 40.65563
257.2374, 41.48799
257.7195, 42.99783
258.2016, 44.05062
258.6837, 44.08196
259.1659, 43.85351
259.6480, 43.64113
260.1301, 43.50986
260.6122, 43.50722
261.0943, 43.74400
261.5764, 44.27390
262.0586, 44.67283
262.5407, 44.35915
263.0228, 44.36566
263.5049, 45.43076
263.9870, 47.38445
264.4691, 49.33806
264.9513, 50.32009
265.4334, 50.14009
265.9155, 50.53198
266.3976, 52.16550
266.8797, 53.81748
267.3618, 54.97221
267.8440, 55.74504
268.3261, 56.56797
268.8082, 57.82966
269.2903, 59.54977
269.7724, 61.17387
270.2545, 62.45308
270.7367, 63.87289
271.2188, 65.67632
271.7009, 67.73653
272.1830, 69.62834
272.6651, 70.87093
273.1472, 71.59631
273.6294, 74.24610
274.1115, 81.03690
274.5936, 87.64371
275.0757, 93.13335
275.5578, 97.82803
276.0399, 102.1674
276.5221, 106.3222
277.0042, 110.5456
277.4863, 116.2556
277.9684, 124.7060
278.4505, 133.4787
278.9326, 142.4022
279.4148, 151.5135
279.8969, 161.2457
280.3790, 171.9093
280.8611, 182.7565
281.3432, 191.3896
281.8253, 194.9365
282.3075, 199.6436
282.7896, 206.8097
283.2717, 214.8949
283.7538, 222.2453
284.2359, 228.2192
284.7180, 233.3444
285.2002, 238.6870
285.6823, 244.9906
286.1644, 250.4195
286.6465, 254.0617
287.1286, 257.3678
287.6107, 261.3992
288.0929, 266.5171
288.5750, 272.7453
289.0571, 280.3124
289.5392, 290.2704
290.0213, 299.1060
290.5034, 305.5048
290.9856, 311.7196
291.4677, 319.4468
291.9498, 328.8228
292.4319, 338.8446
292.9140, 348.1478
293.3961, 356.1988
293.8783, 366.1306
294.3604, 378.3210
294.8425, 391.7767
295.3246, 406.1918
295.8067, 421.3487
296.2888, 436.8024
296.7710, 452.2441
297.2531, 467.5826
297.7352, 482.7416
298.2173, 500.7911
298.6994, 515.7241
299.1815, 526.0834
299.6637, 531.2738
300.1458, 530.3488
300.6279, 522.3864
301.1100, 507.8420
301.5921, 489.6456
302.0742, 467.9496
302.5564, 443.3534
303.0385, 414.4487
303.5206, 382.9634
304.0027, 351.1593
304.4848, 320.0692
304.9669, 290.2168
305.4491, 263.1405
305.9312, 238.6663
306.4133, 216.8565
306.8954, 198.2188
307.3775, 182.0964
307.8596, 167.7759
308.3418, 155.0412
308.8239, 143.7837
309.3060, 133.9936
309.7881, 125.9835
310.2702, 118.9699
310.7523, 113.2715
311.2345, 108.3328
311.7166, 103.6739
312.1987, 99.21491
312.6808, 95.14851
313.1629, 91.75944
313.6451, 89.28249
314.1272, 86.66363
314.6093, 83.41132
315.0914, 80.42043
315.5735, 78.30783
316.0556, 77.07804
316.5378, 76.34277
317.0199, 75.80074
317.5020, 75.46511
317.9841, 75.38903
318.4662, 75.57665
318.9483, 75.97114
319.4305, 76.78923
319.9126, 77.82390
320.3947, 78.46151
320.8768, 78.23390
321.3589, 77.42297
321.8410, 77.55431
322.3232, 79.76325
322.8053, 81.41136
323.2874, 81.46336
323.7695, 80.64635
324.2516, 80.03963
324.7337, 80.07858
325.2159, 80.61436
325.6980, 81.36137
326.1801, 82.58884
326.6622, 83.54778
327.1443, 83.76698
327.6264, 83.90208
328.1086, 84.56938
328.5907, 85.92879
329.0728, 87.86330
329.5549, 90.23661
330.0370, 93.13684
330.5191, 96.35335
331.0013, 100.1832
331.4834, 104.0746
331.9655, 107.2976
332.4476, 110.0282
332.9297, 113.3627
333.4118, 118.3321
333.8940, 125.0256
334.3761, 131.7906
334.8582, 137.4735
335.3403, 144.3545
335.8224, 153.9551
336.3045, 165.4974
336.7867, 177.5945
337.2688, 189.5539
337.7509, 201.0210
338.2330, 210.0504
338.7151, 217.9449
339.1972, 221.9835
339.6793, 221.3618
340.1614, 216.7881
340.6436, 208.8324
341.1257, 197.6524
341.6078, 183.9890
342.0899, 169.0437
342.5720, 150.7733
343.0541, 134.8853
343.5363, 121.9980
344.0184, 110.8948
344.5005, 100.5699
344.9826, 90.88759
345.4647, 82.39689
345.9468, 75.76529
346.4290, 71.19931
346.9111, 67.56398
347.3932, 65.60487
347.8753, 63.69062
348.3574, 60.93601
348.8395, 57.55690
349.3217, 54.27999
349.8038, 51.64019
350.2859, 49.59049
350.7680, 47.74038
351.2501, 45.86791
351.7322, 44.44946
352.2144, 43.93246
352.6965, 43.81879
353.1786, 43.45557
353.6607, 42.54820
354.1428, 41.30192
354.6249, 40.14980
355.1071, 38.78936
355.5892, 38.08883
356.0713, 38.74278
356.5534, 39.56611
357.0355, 39.49487
357.5176, 38.41494
357.9998, 37.14542
358.4819, 36.79072
358.9640, 37.74296
359.4461, 37.96950
359.9282, 36.61387
360.4103, 35.37211
360.8925, 35.18876
361.3746, 35.75901
361.8567, 36.11903
362.3388, 35.47710
362.8209, 33.99051
363.3030, 33.12889
363.7852, 33.36993
364.2673, 33.67982
364.7494, 33.87464
365.2315, 33.98686
365.7136, 34.05070
366.1957, 34.07755
366.6779, 34.10704
367.1600, 34.29470
367.6421, 34.89301
368.1242, 34.99146
368.6063, 33.89965
369.0884, 32.69350
369.5706, 32.21319
370.0527, 32.51814
370.5348, 32.93543
371.0169, 32.65411
371.4990, 31.59792
371.9811, 30.97087
372.4633, 31.13062
372.9454, 31.40468
373.4275, 31.59695
373.9096, 31.66353
374.3917, 31.52794
374.8738, 31.04830
375.3560, 30.37768
375.8381, 30.03406
376.3202, 30.17493
376.8023, 30.27436
377.2844, 30.03566
377.7665, 29.68429
378.2487, 29.43789
378.7308, 29.34525
379.2129, 29.41690
379.6950, 29.80310
380.1771, 30.53073
380.6592, 30.90471
381.1414, 30.52624
381.6235, 29.92716
382.1056, 29.58324
382.5877, 29.49347
383.0698, 29.37669
383.5519, 28.93239
384.0341, 28.32040
384.5162, 28.10735
384.9983, 28.49985
385.4804, 28.88275
385.9625, 28.59347
386.4446, 27.94648
386.9268, 27.61984
387.4089, 28.02774
387.8910, 28.65110
388.3731, 28.89091
388.8552, 28.76208
389.3373, 28.72119
389.8195, 29.12551
390.3016, 29.63121
390.7837, 29.53395
391.2658, 28.58540
391.7479, 27.77336
392.2300, 27.73382
392.7122, 28.16177
393.1943, 28.36234
393.6764, 28.12691
394.1585, 27.81747
394.6406, 27.98109
395.1227, 28.64262
395.6049, 28.84171
396.0870, 28.02347
396.5691, 26.99583
397.0512, 26.43872
397.5333, 26.36094
398.0154, 26.43972
398.4976, 26.49045
398.9797, 26.50899
399.4618, 26.47407
399.9439, 26.47146
400.4260, 26.32884
400.9081, 25.70822
401.3903, 24.98152
401.8724, 24.84056
402.3545, 25.54244
402.8366, 26.60046
403.3187, 27.20647
403.8008, 27.22256
404.2830, 27.00840
404.7651, 26.18364
405.2472, 25.42782
405.7293, 25.31643
406.2114, 25.79194
406.6935, 26.34755
407.1757, 26.55539
407.6578, 26.42480
408.1399, 26.39408
408.6220, 26.55500
409.1041, 26.71252
409.5862, 26.97153
410.0684, 27.15659
410.5505, 26.93346
411.0326, 26.16359
411.5147, 25.24037
411.9968, 24.98657
412.4789, 25.77404
412.9611, 26.42123
413.4432, 27.03833
413.9253, 27.38981
414.4074, 27.13703
414.8895, 26.40297
415.3716, 25.75255
415.8538, 25.77816
416.3359, 26.41744
416.8180, 26.57798
417.3001, 25.85775
417.7822, 25.21771
418.2643, 25.02594
418.7465, 25.09380
419.2286, 25.14647
419.7107, 25.05884
420.1928, 24.98499
420.6749, 25.28105
421.1570, 26.05165
421.6392, 26.40876
422.1213, 25.71161
422.6034, 24.86945
423.0855, 24.61802
423.5676, 24.95318
424.0497, 25.37102
424.5319, 25.52869
425.0140, 25.52979
425.4961, 25.72189
425.9782, 26.22311
426.4603, 26.58119
426.9424, 26.29443
427.4246, 25.65187
427.9067, 25.22424
428.3888, 25.15372
428.8709, 25.27017
429.3530, 25.57936
429.8351, 26.00706
430.3173, 26.18597
430.7994, 25.93758
431.2815, 25.46076
431.7636, 24.99272
432.2457, 24.46508
432.7278, 24.29006
433.2100, 24.83633
433.6921, 25.62443
434.1742, 26.28444
434.6563, 26.73548
435.1384, 26.73674
435.6205, 25.98739
436.1027, 24.55423
436.5848, 23.56301
437.0669, 23.05031
437.5490, 22.84862
438.0311, 23.06335
438.5132, 23.51262
438.9954, 23.96328
439.4775, 24.32498
439.9596, 24.57998
440.4417, 24.66722
440.9238, 24.38564
441.4059, 24.42018
441.8881, 25.17099
442.3702, 25.84453
442.8523, 25.87810
443.3344, 25.39774
443.8165, 24.93811
444.2986, 24.92451
444.7808, 25.24739
445.2629, 25.18070
445.7450, 24.15659
446.2271, 23.61787
446.7092, 24.15026
447.1913, 25.06615
447.6735, 25.73106
448.1556, 25.96976
448.6377, 26.00718
449.1198, 26.16507
449.6019, 26.46960
450.0840, 26.38227
450.5662, 25.45059
451.0483, 24.61782
451.5304, 24.58313
452.0125, 25.03843
452.4946, 25.20289
452.9767, 24.52967
453.4589, 23.56656
453.9410, 23.22085
454.4231, 23.53349
454.9052, 23.92288
455.3873, 24.22526
455.8694, 24.44342
456.3516, 24.59027
456.8337, 24.65913
457.3158, 24.69677
457.7979, 24.73755
458.2800, 24.75760
458.7621, 24.68023
459.2443, 24.48565
459.7264, 24.34218
460.2085, 24.43394
460.6906, 24.72526
461.1727, 24.82252
461.6548, 24.60697
462.1370, 24.32402
462.6191, 24.07749
463.1012, 23.84334
463.5833, 23.53489
464.0654, 23.11068
464.5475, 22.70961
465.0297, 22.56466
465.5118, 22.75257
465.9939, 23.04110
466.4760, 23.66448
466.9581, 24.17899
467.4402, 24.23033
467.9224, 23.92495
468.4045, 23.60376
468.8866, 23.48155
469.3687, 23.55274
469.8508, 23.82477
470.3329, 24.70721
470.8151, 25.10875
471.2972, 24.41166
471.7793, 23.54374
472.2614, 23.28456
472.7435, 23.75846
473.2256, 24.53590
473.7078, 25.35509
474.1899, 26.20659
474.6720, 26.51410
475.1541, 26.02214
475.6362, 25.36414
476.1183, 24.73569
476.6005, 24.17962
477.0826, 23.78560
477.5647, 23.61504
478.0468, 23.53487
478.5289, 23.36195
479.0110, 23.12047
479.4932, 23.10446
479.9753, 23.59157
480.4574, 24.01044
480.9395, 23.43258
481.4216, 21.97927
481.9037, 21.07018
482.3859, 21.46199
482.8680, 22.29325
483.3501, 22.84803
483.8322, 23.09492
484.3143, 23.08306
484.7964, 22.75401
485.2786, 22.29481
485.7607, 22.31070
486.2428, 23.24314
486.7249, 23.83748
487.2070, 23.69617
487.6891, 23.30337
488.1713, 23.13716
488.6534, 23.23577
489.1355, 23.29618
489.6176, 23.00299
490.0997, 22.37204
490.5818, 22.14801
491.0640, 22.73972
491.5461, 23.29581
492.0282, 23.77237
492.5103, 24.10096
492.9924, 24.17464
493.4745, 23.97261
493.9567, 23.64002
494.4388, 23.30881
494.9209, 22.96485
495.4030, 22.81515
495.8851, 23.07512
496.3672, 23.27366
496.8494, 23.20136
497.3315, 22.90721
497.8136, 22.45890
498.2957, 21.79051
498.7778, 21.14048
499.2599, 20.70291
499.7421, 20.49202
500.2242, 20.89103
500.7063, 22.41981
501.1884, 24.03596
501.6705, 24.24018
502.1526, 23.11840
502.6348, 22.29026
503.1169, 22.42352
503.5990, 22.84948
504.0811, 22.96332
504.5632, 22.76693
505.0453, 22.48877
505.5274, 22.24765
506.0096, 22.01446
506.4917, 21.68447
506.9738, 20.78453
507.4559, 20.57016
507.9380, 21.84882
508.4201, 23.33280
508.9023, 23.87727
509.3844, 23.47900
509.8665, 22.91020
510.3486, 22.80867
510.8307, 23.10038
511.3128, 23.12790
511.7950, 22.64125
512.2771, 22.25488
512.7592, 21.92231
513.2413, 21.81502
513.7234, 22.31533
514.2056, 23.40959
514.6877, 24.30595
515.1698, 23.96995
515.6519, 22.59320
516.1340, 21.94935
516.6161, 22.41052
517.0983, 22.92921
517.5804, 22.76387
518.0625, 22.32008
518.5446, 22.23697
519.0267, 22.82452
519.5089, 23.33319
519.9910, 23.09975
520.4731, 22.36099
520.9552, 21.73816
521.4373, 21.35814
521.9194, 21.14506
522.4016, 21.03014
522.8837, 21.02287
523.3658, 21.11475
523.8479, 21.41665
524.3300, 21.69932
524.8121, 21.84809
525.2943, 21.90798
525.7764, 21.94774
526.2585, 21.99402
526.7406, 22.07564
527.2227, 22.26212
527.7048, 22.64857
528.1870, 22.79326
528.6691, 22.53840
529.1512, 22.21752
529.6333, 21.84676
530.1154, 21.52135
530.5975, 21.40443
531.0797, 21.58589
531.5618, 21.92234
532.0439, 22.19679
532.5260, 22.41104
533.0081, 22.54149
533.4902, 22.55584
533.9724, 22.51297
534.4545, 22.43849
534.9366, 22.34392
535.4187, 22.27327
535.9008, 22.31811
536.3829, 22.33518
536.8651, 22.05912
537.3472, 21.55510
537.8293, 21.27552
538.3114, 21.39964
538.7935, 21.79987
539.2756, 22.37268
539.7578, 23.24023
540.2399, 23.67335
540.7220, 23.15619
541.2041, 22.57223
541.6862, 22.56717
542.1683, 23.01332
542.6505, 23.45505
543.1326, 23.64988
543.6147, 23.68093
544.0968, 23.77938
544.5789, 24.18132
545.0610, 24.15100
545.5432, 23.41031
546.0253, 22.51889
546.5074, 21.51351
546.9895, 20.61506
547.4716, 20.34147
547.9537, 21.18680
548.4359, 22.55461
548.9180, 23.07818
549.4001, 22.62478
549.8822, 22.27421
550.3643, 22.47818
550.8464, 22.73255
551.3286, 22.39831
551.8107, 21.54582
552.2928, 21.04100
552.7749, 21.58289
553.2570, 22.38441
553.7391, 22.52860
554.2213, 22.09602
554.7034, 21.71679
555.1855, 21.69136
555.6676, 21.84482
556.1497, 21.81056
556.6318, 21.40198
557.1140, 21.25075
557.5961, 21.56135
558.0782, 21.96282
558.5603, 22.28346
559.0424, 22.48869
559.5245, 22.54554
560.0067, 22.42758
560.4888, 22.20597
560.9709, 22.07601
561.4530, 22.11681
561.9351, 22.02679
562.4172, 21.50016
562.8994, 21.06888
563.3815, 21.01361
563.8636, 21.29642
564.3457, 21.77063
564.8278, 22.52648
565.3099, 23.25218
565.7921, 23.36480
566.2742, 22.89560
566.7563, 22.55211
567.2384, 22.56811
567.7205, 22.77387
568.2026, 22.97234
568.6848, 23.16277
569.1669, 23.38268
569.6490, 23.83891
570.1311, 24.14360
570.6132, 23.88477
571.0953, 23.26990
571.5775, 22.83706
572.0596, 22.82122
572.5417, 22.99927
573.0238, 22.96701
573.5059, 22.58279
573.9880, 22.42537
574.4702, 22.81022
574.9523, 23.08250
575.4344, 22.92836
575.9165, 22.49052
576.3986, 22.00332
576.8807, 21.55098
577.3629, 21.20678
577.8450, 21.15261
578.3271, 21.38336
578.8092, 21.40660
579.2913, 20.98971
579.7734, 20.64044
580.2556, 20.87666
580.7377, 21.48486
581.2198, 21.95571
581.7019, 22.20526
582.1840, 22.28180
582.6661, 21.94859
583.1483, 21.51652
583.6304, 21.82628
584.1125, 23.07585
584.5946, 24.17517
585.0767, 23.87482
585.5588, 22.09851
586.0409, 21.12936
586.5230, 21.69924
587.0051, 22.12540
587.4872, 21.84014
587.9694, 21.33434
588.4515, 21.13517
588.9336, 21.36297
589.4157, 21.83335
589.8978, 22.51017
590.3799, 23.31959
590.8621, 23.53182
591.3442, 22.86757
591.8263, 22.29026
592.3084, 22.36698
592.7905, 22.68115
593.2726, 22.75396
593.7548, 22.50924
594.2369, 22.28887
594.7190, 22.27794
595.2011, 22.38665
595.6832, 22.50275
596.1653, 22.61577
596.6475, 22.73908
597.1296, 22.87885
597.6117, 23.03607
598.0938, 23.22079
598.5759, 23.64678
599.0580, 23.73968
599.5402, 23.12724
600.0223, 22.50277
600.5044, 22.44567
600.9865, 22.77369
601.4686, 22.85703
601.9507, 22.27646
602.4329, 21.44335
602.9150, 21.30482
603.3971, 21.97982
603.8792, 22.58872
604.3613, 23.10544
604.8434, 23.36760
605.3256, 23.14518
605.8077, 22.58267
606.2898, 22.15509
606.7719, 22.10266
607.2540, 22.10345
607.7361, 21.90080
608.2183, 21.55012
608.7004, 21.10482
609.1825, 20.56767
609.6646, 20.26655
610.1467, 20.62562
610.6288, 21.68683
611.1110, 22.41176
611.5931, 22.61943
612.0752, 22.74449
612.5573, 22.86138
613.0394, 22.95366
613.5215, 23.04784
614.0037, 23.12087
614.4858, 23.02211
614.9679, 22.48718
615.4500, 21.64499
615.9321, 21.28576
616.4142, 21.56125
616.8964, 21.80111
617.3785, 21.65223
617.8606, 21.40434
618.3427, 21.40648
618.8248, 21.68020
619.3069, 22.00832
619.7891, 22.44056
620.2712, 22.79747
620.7533, 22.91517
621.2354, 22.79501
621.7175, 22.42847
622.1996, 21.78530
622.6818, 21.07964
623.1639, 20.72571
623.6460, 20.84760
624.1281, 20.96920
624.6102, 21.16994
625.0923, 21.28732
625.5745, 21.22104
626.0566, 21.03810
626.5387, 20.78205
627.0208, 20.45852
627.5029, 20.30403
627.9850, 20.83046
628.4672, 21.87337
628.9493, 22.15155
629.4314, 21.29435
629.9135, 20.60668
630.3956, 21.11881
630.8777, 22.34488
631.3599, 22.88894
631.8420, 22.45086
632.3241, 21.99376
632.8062, 21.75050
633.2883, 21.67219
633.7704, 21.82351
634.2526, 22.12035
634.7347, 22.22473
635.2168, 21.88854
635.6989, 21.34324
636.1810, 21.32620
636.6631, 22.20647
637.1453, 22.67259
637.6274, 22.22775
638.1095, 21.69988
638.5916, 21.31207
639.0737, 21.16457
639.5558, 21.51415
640.0380, 22.73073
640.5201, 23.85346
641.0022, 23.69183
641.4843, 22.60257
641.9664, 21.78700
642.4485, 21.46443
642.9307, 21.51278
643.4128, 21.98789
643.8949, 22.78357
644.3770, 22.91027
644.8591, 21.59471
645.3412, 20.73677
645.8234, 20.85632
646.3055, 21.40419
646.7876, 22.03073
647.2697, 22.61512
647.7518, 23.05812
648.2339, 23.29100
648.7161, 23.32499
649.1982, 23.09328
649.6803, 22.50508
650.1624, 22.27375
650.6445, 22.82272
651.1266, 23.43864
651.6088, 23.39770
652.0909, 22.87627
652.5730, 22.57889
653.0551, 22.77871
653.5372, 23.10911
654.0193, 23.50909
654.5015, 23.84378
654.9836, 23.81430
655.4657, 23.38504
655.9478, 22.85113
656.4299, 22.45199
656.9120, 22.20645
657.3942, 22.35120
657.8763, 23.45602
658.3584, 23.98414
658.8405, 23.27790
659.3226, 22.32815
659.8047, 21.80770
660.2869, 21.73596
660.7690, 21.84961
661.2511, 22.09685
661.7332, 22.36025
662.2153, 22.41170
662.6974, 22.30947
663.1796, 22.40113
663.6617, 22.79684
664.1438, 23.35504
664.6259, 24.02576
665.1080, 24.81154
665.5901, 25.03814
666.0723, 24.26702
666.5544, 23.55910
667.0365, 22.88376
667.5186, 22.56771
668.0007, 23.24637
668.4828, 24.75076
668.9650, 25.96877
669.4471, 25.93775
669.9292, 25.10104
670.4113, 24.65523
670.8934, 24.60813
671.3755, 24.91894
671.8577, 25.83138
672.3398, 26.76069
672.8219, 26.97571
673.3040, 26.61892
673.7861, 26.46246
674.2682, 26.61527
674.7504, 27.00067
675.2325, 27.91302
675.7146, 28.89519
676.1967, 29.15197
676.6788, 28.61737
677.1609, 28.01671
677.6431, 28.02150
678.1252, 28.50489
678.6073, 28.70588
679.0894, 28.38995
679.5715, 28.36904
680.0536, 29.04885
680.5358, 29.88267
681.0179, 30.68531
681.5000, 31.35688
681.9821, 31.56009
682.4642, 30.65162
682.9464, 29.84723
683.4285, 30.23018
683.9106, 31.45345
684.3927, 32.97077
684.8748, 34.61530
685.3569, 35.72913
685.8391, 35.60774
686.3212, 34.45238
686.8033, 33.98889
687.2854, 34.62294
687.7675, 35.32558
688.2496, 35.92929
688.7318, 36.61437
689.2139, 37.75095
689.6960, 39.09980
690.1781, 39.82929
690.6602, 39.20749
691.1423, 38.43827
691.6245, 39.19820
692.1066, 41.06783
692.5887, 42.37672
693.0708, 42.76221
693.5529, 43.00754
694.0350, 43.76247
694.5172, 44.92941
694.9993, 45.92399
695.4814, 46.53519
695.9635, 47.26505
696.4456, 48.16676
696.9277, 49.17564
697.4099, 50.28823
697.8920, 51.47056
698.3741, 52.65120
698.8562, 53.79178
699.3383, 54.94826
699.8204, 56.02825
700.3026, 57.12140
700.7847, 59.07687
701.2668, 62.21206
701.7489, 65.25294
702.2310, 67.13963
702.7131, 68.27460
703.1953, 70.17070
703.6774, 72.94263
704.1595, 76.12904
704.6416, 80.16322
705.1237, 84.16920
705.6058, 87.04793
706.0880, 89.40313
706.5701, 92.83466
707.0522, 98.08644
707.5343, 104.0922
708.0164, 109.2891
708.4985, 113.7389
708.9807, 118.3973
709.4628, 123.4181
709.9449, 128.3469
710.4270, 132.6554
710.9091, 136.8477
711.3912, 142.1172
711.8734, 148.9195
712.3555, 155.0681
712.8376, 159.3563
713.3197, 163.6228
713.8018, 169.0671
714.2839, 175.4592
714.7661, 182.0902
715.2482, 188.7324
715.7303, 195.8715
716.2124, 204.3608
716.6945, 214.0950
717.1766, 223.2015
717.6588, 230.9840
718.1409, 240.3646
718.6230, 253.0291
719.1051, 267.4302
719.5872, 281.2361
720.0693, 294.4379
720.5515, 308.7065
721.0336, 324.8176
721.5157, 341.6445
721.9978, 358.8145
722.4799, 376.0705
722.9620, 394.1771
723.4442, 412.7639
723.9263, 428.3843
724.4084, 438.1995
724.8905, 442.2320
725.3726, 440.5673
725.8547, 432.9040
726.3369, 420.7448
726.8190, 403.8166
727.3011, 383.0941
727.7832, 358.7769
728.2653, 331.3676
728.7474, 303.5346
729.2296, 273.5634
729.7117, 245.4474
730.1938, 221.0155
730.6759, 199.3877
731.1580, 179.2968
731.6401, 160.6910
732.1223, 144.6072
732.6044, 131.8643
733.0865, 121.6266
733.5686, 111.8743
734.0507, 102.5418
734.5328, 94.14095
735.0150, 86.71748
735.4971, 80.25767
735.9792, 75.07259
736.4613, 70.81184
736.9434, 66.68742
737.4255, 62.37838
737.9077, 58.91985
738.3898, 57.50963
738.8719, 56.40315
739.3540, 53.61284
739.8361, 49.75530
740.3182, 46.90681
740.8004, 45.97231
741.2825, 45.76608
741.7646, 44.46467
742.2467, 42.05586
742.7288, 40.26476
743.2109, 39.29492
743.6931, 38.37104
744.1752, 37.15623
744.6573, 35.82928
745.1394, 34.62935
745.6215, 33.55653
746.1036, 32.58960
746.5858, 31.59688
747.0679, 30.84957
747.5500, 30.76288
748.0321, 30.91648
748.5142, 30.60406
748.9963, 29.73040
749.4785, 28.87489
749.9606, 28.59998
750.4427, 28.68325
750.9248, 28.28166
751.4069, 27.30775
751.8890, 26.66803
752.3712, 26.66633
752.8533, 26.87999
753.3354, 26.95043
753.8175, 26.91365
754.2996, 26.98423
754.7817, 27.45054
755.2639, 27.62352
755.7460, 27.16967
756.2281, 26.48954
756.7102, 25.77923
757.1923, 25.15643
757.6744, 24.86560
758.1566, 25.05716
758.6387, 25.32021
759.1208, 24.95498
759.6029, 24.06652
760.0850, 23.50320
760.5671, 23.35049
761.0493, 23.38229
761.5314, 23.56119
762.0135, 23.77178
762.4956, 23.77717
762.9777, 23.50961
763.4598, 23.27277
763.9420, 23.25826
764.4241, 23.06759
764.9062, 22.21093
765.3883, 21.24722
765.8704, 20.98152
766.3525, 21.49723
766.8347, 22.09059
767.3168, 22.29734
767.7989, 22.16876
768.2810, 21.56098
768.7631, 20.59197
769.2452, 20.28861
769.7274, 20.98230
770.2095, 21.93058
770.6916, 22.45095
771.1737, 22.59853
771.6558, 22.82636
772.1379, 23.58677
772.6201, 23.73729
773.1022, 22.41402
773.5843, 21.23479
774.0664, 21.49017
774.5485, 22.61163
775.0306, 23.19638
775.5128, 22.69398
775.9949, 21.91521
776.4770, 21.44932
776.9591, 21.17858
777.4412, 20.89683
777.9233, 20.60198
778.4055, 20.35512
778.8876, 20.16676
779.3697, 20.20690
779.8518, 20.85978
780.3339, 22.27023
780.8160, 22.88201
781.2982, 22.18924
781.7803, 21.51528
782.2624, 21.24348
782.7445, 21.14769
783.2266, 21.08709
783.7087, 21.03775
784.1909, 20.91734
784.6730, 20.48310
785.1551, 20.19957
785.6372, 20.63197
786.1193, 21.28343
786.6014, 21.28499
787.0836, 20.63672
787.5657, 20.07433
788.0478, 20.09858
788.5299, 20.55659
789.0120, 21.27971
789.4941, 22.35155
789.9763, 22.55060
790.4584, 21.32461
790.9405, 20.28289
791.4226, 20.53853
791.9047, 21.48349
792.3868, 21.84378
792.8690, 21.49062
793.3511, 21.12671
793.8332, 20.67550
794.3153, 20.42823
794.7974, 20.77470
795.2795, 21.31693
795.7617, 21.39264
796.2438, 20.92514
796.7259, 20.53472
797.2080, 20.83324
797.6901, 21.45093
798.1722, 21.53555
798.6544, 21.17022
799.1365, 21.16953
799.6186, 21.78786
800.1007, 22.30894
800.5828, 22.08017
801.0649, 21.27263
801.5471, 20.71622
802.0292, 20.39007
802.5113, 20.36472
802.9934, 21.01788
803.4755, 21.55558
803.9576, 21.50436
804.4398, 21.10619
804.9219, 20.69365
805.4040, 20.31981
805.8861, 20.29505
806.3682, 21.25639
806.8503, 22.34225
807.3325, 22.40489
807.8146, 21.71869
808.2967, 21.17337
808.7788, 21.04845
809.2609, 21.05448
809.7430, 20.86308
810.2252, 20.54920
810.7073, 20.62692
811.1894, 21.22470
811.6715, 21.72835
812.1536, 22.20719
812.6357, 22.29938
813.1179, 21.20276
813.6000, 19.50014
814.0821, 19.05235
814.5642, 20.80010
815.0463, 22.05828
815.5284, 22.04893
816.0106, 21.47437
816.4927, 20.28378
816.9748, 19.06189
817.4569, 18.95799
817.9390, 20.29373
818.4211, 21.86084
818.9033, 22.52071
819.3854, 22.53761
819.8675, 22.42506
820.3496, 22.21557
820.8317, 22.31700
821.3138, 22.91573
821.7960, 23.34962
822.2781, 22.84127
822.7602, 21.56443
823.2423, 21.07685
823.7244, 21.91807
824.2065, 22.56196
824.6887, 22.86721
825.1708, 22.96033
825.6529, 22.84181
826.1350, 22.57141
826.6171, 22.22314
827.0992, 21.77733
827.5814, 21.42898
828.0635, 21.23650
828.5456, 21.21443
829.0277, 21.51994
829.5098, 21.97939
829.9919, 22.19379
830.4741, 22.05776
830.9562, 21.82080
831.4383, 21.71026
831.9204, 21.70506
832.4025, 21.75918
832.8846, 21.87964
833.3668, 21.89880
833.8489, 21.72638
834.3310, 21.63948
834.8131, 21.98971
835.2952, 22.56537
835.7773, 22.49859
836.2595, 21.09025
836.7416, 20.27363
837.2237, 20.41817
837.7058, 20.77649
838.1879, 21.19004
838.6700, 21.50933
839.1522, 21.50348
839.6343, 21.14347
840.1164, 20.80521
840.5985, 20.71757
841.0806, 20.75650
841.5627, 20.82215
842.0449, 20.90565
842.5270, 20.99715
843.0091, 21.09161
843.4912, 21.18399
843.9733, 21.27812
844.4554, 21.34171
844.9376, 21.22839
845.4197, 20.89674
845.9018, 20.86809
846.3839, 21.28087
846.8660, 21.74379
847.3481, 22.09002
847.8303, 22.32813
848.3124, 22.46932
848.7945, 22.50963
849.2766, 22.47550
849.7587, 22.32565
850.2408, 22.15303
850.7230, 21.97045
851.2051, 21.79342
851.6872, 21.57066
852.1693, 21.35397
852.6514, 21.38237
853.1335, 21.95473
853.6157, 22.40149
854.0978, 21.72852
854.5799, 20.63285
855.0620, 20.53289
855.5441, 21.38363
856.0262, 22.16263
856.5084, 22.37189
856.9905, 22.23972
857.4726, 22.02344
857.9547, 21.73269
858.4368, 21.89591
858.9189, 22.74178
859.4011, 23.09178
859.8832, 22.33053
860.3653, 21.34972
860.8474, 20.93738
861.3295, 21.07805
861.8116, 21.53674
862.2938, 23.09238
862.7759, 23.82642
863.2580, 22.87981
863.7401, 21.67735
864.2222, 20.84936
864.7043, 20.48338
865.1865, 20.66528
865.6686, 21.41603
866.1507, 22.31807
866.6328, 23.18705
867.1149, 23.98558
867.5970, 24.67888
868.0792, 25.26156
868.5613, 25.82397
869.0434, 26.33063
869.5255, 26.32254
870.0076, 25.33747
870.4897, 23.85238
870.9719, 23.01117
871.4540, 22.81180
871.9361, 23.44160
872.4182, 25.17803
872.9003, 26.81870
873.3824, 27.81197
873.8646, 28.26168
874.3467, 28.24197
874.8288, 27.58520
875.3109, 27.37111
875.7930, 27.71993
876.2751, 28.32083
876.7573, 29.26170
877.2394, 30.30139
877.7215, 30.95686
878.2036, 31.51969
878.6857, 32.91983
879.1678, 35.36466
879.6500, 38.95467
880.1321, 44.95633
880.6142, 51.25745
881.0963, 56.32122
881.5784, 59.53143
882.0605, 59.77472
882.5427, 56.76632
883.0248, 51.72414
883.5069, 45.19562
883.9890, 38.05042
884.4711, 32.97393
884.9532, 29.89184
885.4354, 27.69322
885.9175, 26.20222
886.3996, 25.16087
886.8817, 24.45091
887.3638, 23.97642
887.8459, 23.46650
888.3281, 22.85287
888.8102, 22.40820
889.2923, 22.14207
889.7744, 22.03394
890.2565, 22.23114
890.7386, 22.47442
891.2208, 22.51814
891.7029, 22.35857
892.1850, 22.09138
892.6671, 21.54778
893.1492, 21.14525
893.6313, 21.18325
894.1135, 21.30519
894.5956, 21.13194
895.0777, 20.77221
895.5598, 20.60053
896.0419, 20.76023
896.5240, 20.88886
897.0062, 20.53861
897.4883, 20.02058
897.9704, 19.84713
898.4525, 19.96043
898.9346, 20.14735
899.4167, 20.34401
899.8989, 20.51669
900.3810, 20.64548
900.8631, 20.71089
901.3452, 20.62269
901.8273, 20.35843
902.3094, 20.20540
902.7916, 20.17218
903.2737, 20.31127
903.7558, 20.71732
904.2379, 21.22689
904.7200, 21.64513
905.2021, 22.00125
905.6843, 21.97354
906.1664, 21.09809
906.6485, 20.47937
907.1306, 20.46383
907.6127, 20.58398
908.0948, 20.63140
908.5770, 20.54004
909.0591, 20.13829
909.5412, 19.26421
910.0233, 18.63155
910.5054, 18.89320
910.9875, 19.18789
911.4697, 18.52241
911.9518, 17.55678
912.4339, 17.55658
912.9160, 18.61119
913.3981, 19.65609
913.8802, 20.00530
914.3624, 19.88161
914.8445, 19.29568
915.3265, 18.53977
915.8087, 18.64524
916.2908, 19.58500
916.7729, 20.15634
917.2550, 19.78932
917.7371, 19.05174
918.2192, 18.70762
918.7014, 18.72192
919.1835, 18.67477
919.6656, 18.53397
920.1477, 18.52651
920.6298, 18.78776
921.1119, 18.98016
921.5941, 18.78489
922.0762, 18.36353
922.5583, 18.21836
923.0404, 18.50569
923.5225, 18.67460
924.0046, 18.70557
924.4868, 18.64895
924.9689, 18.35460
925.4510, 18.09836
925.9331, 18.20790
926.4152, 18.63894
926.8973, 19.02810
927.3795, 19.38053
927.8616, 19.50434
928.3437, 19.07287
928.8258, 18.58783
929.3079, 18.43535
929.7900, 18.59269
930.2722, 19.05807
930.7543, 19.77761
931.2364, 20.27068
931.7185, 20.01282
932.2006, 19.46383
932.6827, 19.20130
933.1649, 19.15673
933.6470, 19.25249
934.1291, 19.42137
934.6112, 19.31018
935.0933, 18.69094
935.5754, 18.06165
936.0576, 18.33645
936.5397, 19.40504
937.0218, 20.26485
937.5039, 20.94436
937.9860, 20.77395
938.4681, 19.33244
938.9503, 18.01594
939.4324, 18.19454
939.9145, 19.40732
940.3966, 19.76491
940.8787, 18.82099
941.3608, 18.24034
941.8430, 18.16894
942.3251, 18.27110
942.8072, 18.53245
943.2893, 18.81794
943.7714, 19.03619
944.2535, 19.17500
944.7357, 18.99770
945.2178, 18.06793
945.6999, 17.40918
946.1820, 17.24866
946.6641, 17.40097
947.1462, 18.08541
947.6284, 18.86570
948.1105, 18.84359
948.5926, 17.84172
949.0747, 17.22586
949.5568, 18.12526
950.0389, 19.15788
950.5211, 19.17403
951.0032, 18.79261
951.4853, 18.83952
951.9674, 19.33733
952.4495, 19.97878
952.9316, 20.63444
953.4138, 21.07816
953.8959, 21.02186
954.3780, 20.60712
954.8601, 19.85706
955.3422, 18.97875
955.8243, 18.86934
956.3065, 19.66160
956.7886, 20.30212
957.2707, 19.95127
957.7528, 19.14263
958.2349, 19.11143
958.7170, 19.79999
959.1992, 20.06497
959.6813, 19.81763
960.1634, 19.55753
960.6455, 19.45397
961.1276, 19.46207
961.6097, 19.55188
962.0919, 19.70555
962.5740, 19.80924
963.0561, 19.89637
963.5382, 19.81865
964.0203, 19.45501
964.5024, 19.11450
964.9846, 18.88128
965.4667, 18.80274
965.9488, 18.99427
966.4309, 19.47903
966.9130, 19.88657
967.3951, 20.28695
967.8773, 20.50739
968.3594, 20.41508
968.8415, 20.24599
969.3236, 19.98142
969.8057, 19.80166
970.2878, 20.11436
970.7700, 21.02863
971.2521, 21.66119
971.7342, 21.68937
972.2163, 21.41055
972.6984, 20.64846
973.1805, 19.90449
973.6627, 19.81480
974.1448, 20.19122
974.6269, 20.31210
975.1090, 19.88104
975.5911, 19.57896
976.0732, 20.14436
976.5554, 20.87321
977.0375, 21.02283
977.5196, 20.75524
978.0017, 20.28760
978.4838, 19.75752
978.9659, 19.46165
979.4481, 19.59241
979.9302, 19.90376
980.4123, 20.11333
980.8944, 20.25255
981.3765, 20.37850
981.8586, 20.50306
982.3408, 20.62242
982.8229, 20.74713
983.3050, 21.04779
983.7871, 21.68300
984.2692, 22.50751
984.7513, 23.38322
985.2335, 24.24701
985.7156, 23.89523
986.1977, 22.17205
986.6798, 21.03834
987.1619, 21.28265
987.6440, 21.95184
988.1262, 22.03813
988.6083, 21.71570
989.0904, 21.88371
989.5725, 22.69418
990.0546, 23.31143
990.5367, 23.70734
991.0189, 23.80869
991.5010, 23.42329
991.9831, 22.95195
992.4652, 22.92380
992.9473, 23.32016
993.4294, 23.64150
993.9116, 23.96166
994.3937, 24.06827
994.8758, 23.77653
995.3579, 23.47232
995.8400, 23.07828
996.3221, 22.91525
996.8043, 23.71366
997.2864, 25.52746
997.7685, 26.39054
998.2506, 25.32023
998.7327, 24.44444
999.2148, 24.04023
999.6970, 24.11397
1000.179, 25.23628
1000.661, 26.59810
1001.143, 26.67564
1001.625, 25.22839
1002.108, 24.20394
1002.590, 24.36008
1003.072, 24.92306
1003.554, 26.01288
1004.036, 26.95485
1004.518, 26.96658
1005.000, 26.38599
1005.482, 26.02698
1005.964, 26.11461
1006.447, 26.27512
1006.929, 26.38971
1007.411, 26.38694
1007.893, 25.89277
1008.375, 25.45217
1008.857, 26.05653
1009.339, 27.37380
1009.821, 28.18864
1010.304, 28.04140
1010.786, 27.62358
1011.268, 27.42250
1011.750, 27.37274
1012.232, 27.41693
1012.714, 27.53688
1013.196, 27.67099
1013.678, 27.83889
1014.160, 28.15226
1014.643, 28.66641
1015.125, 29.31765
1015.607, 30.14082
1016.089, 31.00176
1016.571, 31.64702
1017.053, 32.07073
1017.535, 32.21284
1018.017, 32.08784
1018.500, 31.77883
1018.982, 31.31020
1019.464, 31.06252
1019.946, 31.67202
1020.428, 32.96579
1020.910, 34.42695
1021.392, 35.96137
1021.874, 36.38663
1022.356, 35.47911
1022.839, 34.44921
1023.321, 34.04553
1023.803, 34.03825
1024.285, 33.98660
1024.767, 33.92766
1025.249, 34.50651
1025.731, 35.77943
1026.213, 36.73716
1026.696, 37.15949
1027.178, 37.25009
1027.660, 37.10333
1028.142, 36.81593
1028.624, 36.50791
1029.106, 36.15511
1029.588, 36.49536
1030.070, 37.71853
1030.552, 38.79244
1031.035, 39.52755
1031.517, 39.93136
1031.999, 39.91073
1032.481, 39.68965
1032.963, 39.75107
1033.445, 40.11504
1033.927, 40.63464
1034.409, 41.47310
1034.891, 42.02291
1035.374, 42.00465
1035.856, 41.92842
1036.338, 42.11015
1036.820, 42.50370
1037.302, 43.04213
1037.784, 43.79531
1038.266, 44.28347
1038.748, 44.23261
1039.231, 44.42509
1039.713, 45.22178
1040.195, 46.03560
1040.677, 46.45649
1041.159, 46.62428
1041.641, 46.81936
1042.123, 47.01775
1042.605, 47.35896
1043.088, 47.95221
1043.570, 48.53153
1044.052, 48.91619
1044.534, 49.41405
1045.016, 50.36195
1045.498, 51.51182
1045.980, 52.33923
1046.462, 52.75539
1046.944, 53.34991
1047.427, 54.40717
1047.909, 55.30549
1048.391, 55.61035
1048.873, 56.02399
1049.355, 57.29144
1049.837, 58.87388
1050.319, 59.57454
1050.801, 59.15736
1051.283, 59.58961
1051.766, 61.84418
1052.248, 64.05193
1052.730, 65.65340
1053.212, 67.13907
1053.694, 68.68491
1054.176, 70.43349
1054.658, 72.70395
1055.140, 75.54461
1055.623, 78.15231
1056.105, 79.93861
1056.587, 82.04533
1057.069, 84.84388
1057.551, 88.05112
1058.033, 91.71503
1058.515, 95.53753
1058.997, 98.85756
1059.479, 101.6491
1059.962, 105.2020
1060.444, 110.7370
1060.926, 115.9185
1061.408, 119.3664
1061.890, 122.7487
1062.372, 127.0900
1062.854, 132.1831
1063.336, 137.6440
1063.818, 143.4159
1064.301, 149.5259
1064.783, 156.3067
1065.265, 162.8605
1065.747, 168.2908
1066.229, 174.0322
1066.711, 181.3826
1067.193, 189.5392
1067.675, 197.1395
1068.158, 204.2501
1068.640, 212.1771
1069.122, 221.3843
1069.604, 231.3489
1070.086, 242.3678
1070.568, 253.5236
1071.050, 263.5296
1071.532, 273.6067
1072.015, 285.8885
1072.497, 299.9163
1072.979, 312.2086
1073.461, 320.7185
1073.943, 330.5630
1074.425, 344.4495
1074.907, 360.0065
1075.389, 376.5399
1075.871, 393.1109
1076.354, 408.8043
1076.836, 423.5852
1077.318, 437.5447
1077.800, 450.2148
1078.282, 464.5956
1078.764, 481.7917
1079.246, 501.4045
1079.728, 522.7686
1080.210, 546.8608
1080.693, 574.0869
1081.175, 605.2748
1081.657, 640.9645
1082.139, 681.2844
1082.621, 730.4577
1083.103, 792.7568
1083.585, 861.7936
1084.067, 934.2713
1084.549, 1012.137
1085.032, 1101.835
1085.514, 1196.707
1085.996, 1283.544
1086.478, 1359.722
1086.960, 1431.213
1087.442, 1496.285
1087.924, 1562.548
1088.406, 1628.462
1088.889, 1701.423
1089.371, 1786.159
1089.853, 1883.144
1090.335, 1992.020
1090.817, 2112.637
1091.299, 2247.266
1091.781, 2393.070
1092.263, 2559.369
1092.745, 2744.917
1093.228, 2956.920
1093.710, 3191.294
1094.192, 3460.035
1094.674, 3772.408
1095.156, 4131.044
1095.638, 4543.769
1096.120, 5032.272
1096.602, 5522.479
1097.084, 6051.184
1097.567, 6497.176
1098.049, 6869.170
1098.531, 7062.126
1099.013, 6950.889
1099.495, 6564.722
1099.977, 6006.732
1100.459, 5263.455
1100.941, 4517.581
1101.424, 3755.805
1101.906, 3078.637
1102.388, 2525.564
1102.870, 2072.106
1103.352, 1708.508
1103.834, 1420.283
1104.316, 1189.577
1104.798, 1015.190
1105.281, 869.4796
1105.763, 753.8668
1106.245, 656.1550
1106.727, 577.3059
1107.209, 511.5554
1107.691, 458.2611
1108.173, 414.2492
1108.655, 375.8623
1109.137, 342.7822
1109.620, 312.1995
1110.102, 283.2473
1110.584, 257.8253
1111.066, 236.4751
1111.548, 218.4880
1112.030, 205.1021
1112.512, 193.7083
1112.994, 180.8458
1113.476, 167.1060
1113.959, 156.3095
1114.441, 150.3936
1114.923, 143.5037
1115.405, 133.9924
1115.887, 125.5243
1116.369, 119.8363
1116.851, 114.7247
1117.333, 108.1715
1117.816, 100.9716
1118.298, 95.35358
1118.780, 91.64471
1119.262, 87.93077
1119.744, 84.16292
1120.226, 80.47504
1120.708, 76.79377
1121.190, 73.33022
1121.672, 70.10515
1122.155, 67.31554
1122.637, 65.45424
1123.119, 64.49718
1123.601, 62.61056
1124.083, 59.08134
1124.565, 56.94896
1125.047, 57.05949
1125.529, 56.99007
1126.011, 55.69732
1126.494, 53.84804
1126.976, 52.03547
1127.458, 50.35976
1127.940, 49.43031
1128.422, 49.49398
1128.904, 48.57405
1129.386, 46.42382
1129.868, 44.50771
1130.351, 43.27534
1130.833, 42.17637
1131.315, 40.75680
1131.797, 39.30918
1132.279, 38.43996
1132.761, 38.12470
1133.243, 38.08279
1133.725, 38.32035
1134.208, 37.65987
1134.690, 35.86406
1135.172, 34.78092
1135.654, 35.39938
1136.136, 36.50518
1136.618, 36.66800
1137.100, 36.07914
1137.582, 35.19454
1138.064, 34.08113
1138.547, 32.99676
1139.029, 32.02433
1139.511, 31.64645
1139.993, 31.98030
1140.475, 32.41584
1140.957, 32.49216
1141.439, 32.30014
1141.921, 31.86221
1142.403, 31.31663
1142.886, 31.02446
1143.368, 30.91483
1143.850, 30.83980
1144.332, 30.69975
1144.814, 30.12860
1145.296, 28.93503
1145.778, 27.87481
1146.260, 27.82868
1146.743, 28.21719
1147.225, 28.39960
1147.707, 28.43120
1148.189, 28.40358
1148.671, 28.30747
1149.153, 28.13993
1149.635, 27.87184
1150.117, 27.24870
1150.599, 25.71588
1151.082, 24.64323
1151.564, 25.70286
1152.046, 27.07563
1152.528, 26.99138
1153.010, 26.13485
1153.492, 25.66101
1153.974, 25.56634
1154.456, 24.95262
1154.938, 23.25649
1155.421, 22.56143
1155.903, 25.03884
1156.385, 27.05989
1156.867, 26.38279
1157.349, 24.94416
1157.831, 24.20926
1158.313, 24.04291
1158.795, 23.91552
1159.278, 23.76601
1159.760, 23.94949
1160.242, 25.11119
1160.724, 25.70146
1161.206, 25.04454
1161.688, 24.32093
1162.170, 23.85957
1162.652, 23.73952
1163.135, 24.35986
1163.617, 25.38068
1164.099, 25.32593
1164.581, 23.63591
1165.063, 22.85512
1165.545, 23.47336
1166.027, 23.84398
1166.509, 23.39574
1166.991, 23.16783
1167.474, 23.99302
1167.956, 25.08047
1168.438, 25.08228
1168.920, 24.12241
1169.402, 23.63586
1169.884, 23.70924
1170.366, 23.25999
1170.848, 22.08294
1171.330, 21.61076
1171.813, 22.41447
1172.295, 23.52537
1172.777, 24.12319
1173.259, 24.32333
1173.741, 24.33000
1174.223, 24.16240
1174.705, 23.82515
1175.187, 23.38314
1175.670, 23.22823
1176.152, 23.39384
1176.634, 23.58887
1177.116, 23.67165
1177.598, 23.64324
1178.080, 23.39688
1178.562, 23.19292
1179.044, 23.56947
1179.526, 24.19300
1180.009, 24.44783
1180.491, 24.43184
1180.973, 24.55584
1181.455, 24.86372
1181.937, 25.05187
1182.419, 24.99681
1182.901, 24.64335
1183.383, 23.41249
1183.865, 22.46110
1184.348, 23.11277
1184.830, 24.26080
1185.312, 24.57506
1185.794, 24.30948
1186.276, 24.42434
1186.758, 25.10295
1187.240, 25.45378
1187.722, 24.79063
1188.205, 24.38771
1188.687, 24.77621
1189.169, 25.27621
1189.651, 25.63822
1190.133, 25.84618
1190.615, 25.89584
1191.097, 25.78775
1191.579, 25.46788
1192.062, 24.66960
1192.544, 24.70390
1193.026, 26.22783
1193.508, 27.12904
1193.990, 26.81694
1194.472, 26.21756
1194.954, 25.55775
1195.436, 25.51867
1195.918, 27.37013
1196.401, 30.46632
1196.883, 30.99463
1197.365, 28.83326
1197.847, 27.17779
1198.329, 26.19540
1198.811, 26.14684
1199.293, 27.10806
1199.775, 27.63614
1200.257, 26.69822
1200.740, 25.42108
1201.222, 25.56812
1201.704, 26.57837
1202.186, 27.13164
1202.668, 27.30893
1203.150, 27.23921
1203.632, 27.01582
1204.114, 26.81816
1204.597, 26.71902
1205.079, 26.79422
1205.561, 27.11683
1206.043, 27.54984
1206.525, 28.21656
1207.007, 28.69268
1207.489, 28.22449
1207.971, 27.53803
1208.453, 27.79402
1208.936, 28.67379
1209.418, 28.93341
1209.900, 28.26617
1210.382, 28.05396
1210.864, 29.44559
1211.346, 30.32119
1211.828, 29.72061
1212.310, 28.90413
1212.792, 28.35939
1213.275, 28.09584
1213.757, 28.27872
1214.239, 28.71682
1214.721, 28.68860
1215.203, 27.97852
1215.685, 27.83789
1216.167, 28.45748
1216.649, 29.13186
1217.132, 29.84272
1217.614, 30.24015
1218.096, 30.08147
1218.578, 29.76064
1219.060, 29.73038
1219.542, 29.91858
1220.024, 30.05145
1220.506, 30.16302
1220.989, 30.71120
1221.471, 31.61311
1221.953, 32.01422
1222.435, 31.79911
1222.917, 31.63173
1223.399, 31.85605
1223.881, 32.09438
1224.363, 31.90413
1224.845, 31.57617
1225.328, 31.39600
1225.810, 31.41493
1226.292, 31.78738
1226.774, 32.38524
1227.256, 33.07808
1227.738, 33.74358
1228.220, 34.03000
1228.702, 33.75844
1229.184, 33.39126
1229.667, 32.64991
1230.149, 32.50567
1230.631, 34.10165
1231.113, 35.74514
1231.595, 36.27819
1232.077, 35.97989
1232.559, 35.01557
1233.041, 33.54424
1233.524, 33.04604
1234.006, 34.05632
1234.488, 34.61764
1234.970, 34.33275
1235.452, 34.72757
1235.934, 36.48516
1236.416, 38.00397
1236.898, 38.31784
1237.380, 37.86427
1237.863, 37.14372
1238.345, 36.32934
1238.827, 36.24963
1239.309, 36.77902
1239.791, 36.93828
1240.273, 36.74675
1240.755, 36.75220
1241.237, 37.07439
1241.719, 37.45641
1242.202, 37.74781
1242.684, 38.33875
1243.166, 40.30239
1243.648, 42.07405
1244.130, 41.53808
1244.612, 40.02980
1245.094, 38.82901
1245.576, 38.15623
1246.059, 38.31488
1246.541, 39.12715
1247.023, 39.65869
1247.505, 39.54177
1247.987, 39.51590
1248.469, 39.93630
1248.951, 40.27197
1249.433, 40.46455
1249.916, 40.38734
1250.398, 39.76725
1250.880, 39.00611
1251.362, 38.47181
1251.844, 38.24404
1252.326, 38.91056
1252.808, 40.84022
1253.290, 41.60493
1253.772, 41.07888
1254.255, 40.19163
1254.737, 39.09362
1255.219, 38.31258
1255.701, 38.12908
1256.183, 38.31293
1256.665, 38.72141
1257.147, 39.08211
1257.629, 38.64211
1258.111, 37.86633
1258.594, 37.98239
1259.076, 38.55084
1259.558, 38.23716
1260.040, 37.14461
1260.522, 36.55325
1261.004, 36.91596
1261.486, 37.27299
1261.968, 36.98106
1262.451, 36.67760
1262.933, 36.77113
1263.415, 36.84811
1263.897, 36.64341
1264.379, 36.27161
1264.861, 35.83334
1265.343, 35.35007
1265.825, 34.79368
1266.307, 34.09383
1266.790, 34.02070
1267.272, 35.01044
1267.754, 35.23544
1268.236, 34.29484
1268.718, 33.46143
1269.200, 33.21104
1269.682, 33.14949
1270.164, 32.97369
1270.646, 32.68077
1271.129, 32.12905
1271.611, 31.51402
1272.093, 31.67437
1272.575, 32.25852
1273.057, 32.19362
1273.539, 31.55773
1274.021, 30.96833
1274.503, 30.59896
1274.986, 30.30081
1275.468, 29.98853
1275.950, 29.78188
1276.432, 29.86447
1276.914, 29.94318
1277.396, 29.68982
1277.878, 29.50171
1278.360, 29.98001
1278.843, 30.59978
1279.325, 30.23676
1279.807, 29.07720
1280.289, 29.12183
1280.771, 30.99821
1281.253, 31.89338
1281.735, 31.43331
1282.217, 31.27252
1282.699, 31.83962
1283.182, 31.98001
1283.664, 31.01784
1284.146, 30.33082
1284.628, 31.58223
1285.110, 33.44969
1285.592, 33.55252
1286.074, 31.89416
##END=



