##NAMES=Dolomite
##RRUFFID=R100168
##IDEAL CHEMISTRY=CaMg(CO_3_)_2_
##LOCALITY=Oberdorf An Der Laming Moine near Bruck An Der Mur, Styria, Austria
##OWNER=RRUFF
##SOURCE=Mineralogical Museum, Harvard University
##DESCRIPTION=Colorless transparent cleavage rhomb
##STATUS=The identification of this mineral has been confirmed only by single crystal X-ray diffraction.
##URL=rruff.info/R100168
91.03516, 47.12605
91.51727, 47.12848
91.99939, 47.09544
92.48151, 47.05494
92.96362, 47.08685
93.44574, 47.50989
93.92786, 48.00928
94.40997, 47.87579
94.89210, 47.00177
95.37421, 45.66590
95.85633, 43.83244
96.33845, 41.55083
96.82056, 40.09076
97.30268, 41.11382
97.78480, 44.25879
98.26691, 45.70936
98.74903, 44.59920
99.23115, 41.80237
99.71326, 39.74089
100.1954, 38.53114
100.6775, 37.68418
101.1596, 36.67972
101.6417, 35.33223
102.1239, 34.86600
102.6060, 35.89742
103.0881, 38.28070
103.5702, 39.21906
104.0523, 38.01687
104.5344, 36.22871
105.0166, 35.54412
105.4987, 36.65213
105.9808, 37.66109
106.4629, 38.22311
106.9450, 38.38099
107.4271, 37.84285
107.9093, 35.53881
108.3914, 32.91393
108.8735, 32.13684
109.3556, 35.85398
109.8377, 38.96892
110.3198, 39.89176
110.8020, 36.83476
111.2841, 35.02715
111.7662, 35.91812
112.2483, 38.19044
112.7304, 38.93708
113.2125, 35.82976
113.6947, 32.51257
114.1768, 30.75659
114.6589, 31.96074
115.1410, 33.15834
115.6231, 33.66911
116.1052, 33.61802
116.5874, 33.48717
117.0695, 33.70869
117.5516, 33.77903
118.0337, 33.30979
118.5158, 31.22323
118.9980, 29.43817
119.4801, 29.10384
119.9622, 30.09891
120.4443, 30.96491
120.9264, 30.42563
121.4085, 29.40875
121.8907, 29.05615
122.3728, 31.19222
122.8549, 33.32379
123.3370, 32.78671
123.8191, 29.39219
124.3012, 26.28185
124.7834, 26.42293
125.2655, 28.74868
125.7476, 30.98205
126.2297, 32.17084
126.7118, 32.56314
127.1939, 32.36135
127.6761, 31.49714
128.1582, 30.44117
128.6403, 29.54302
129.1224, 28.84653
129.6045, 28.56291
130.0867, 28.94015
130.5688, 29.85078
131.0509, 30.88891
131.5330, 32.06825
132.0151, 33.27647
132.4972, 34.63579
132.9794, 36.14790
133.4615, 36.84062
133.9436, 35.00286
134.4257, 30.95218
134.9078, 29.50599
135.3899, 32.03807
135.8721, 36.99925
136.3542, 39.91444
136.8363, 40.42336
137.3184, 40.48900
137.8005, 41.70365
138.2826, 44.23569
138.7648, 46.74044
139.2469, 48.90876
139.7290, 50.84450
140.2111, 53.08522
140.6932, 55.52544
141.1753, 58.50251
141.6575, 62.46743
142.1396, 67.92471
142.6217, 73.07561
143.1038, 77.30721
143.5859, 80.56715
144.0681, 84.88654
144.5502, 91.02772
145.0323, 97.58266
145.5144, 103.0139
145.9965, 106.7727
146.4786, 110.1728
146.9608, 113.2202
147.4429, 115.6201
147.9250, 119.1621
148.4071, 124.4488
148.8892, 130.6655
149.3713, 136.4797
149.8535, 141.1179
150.3356, 146.1918
150.8177, 152.0572
151.2998, 158.5214
151.7819, 166.1967
152.2640, 174.6875
152.7462, 184.4569
153.2283, 196.1831
153.7104, 210.5369
154.1925, 226.3469
154.6746, 243.0977
155.1567, 259.9349
155.6389, 278.7433
156.1210, 299.4315
156.6031, 322.2984
157.0852, 348.2435
157.5673, 378.7814
158.0495, 411.3691
158.5316, 445.3717
159.0137, 482.9348
159.4958, 518.2966
159.9779, 550.1526
160.4600, 578.8409
160.9422, 605.4658
161.4243, 629.4484
161.9064, 652.0359
162.3885, 673.8461
162.8706, 693.6468
163.3527, 714.6745
163.8349, 737.7822
164.3170, 763.1578
164.7991, 791.6973
165.2812, 823.8865
165.7633, 859.4022
166.2454, 897.9287
166.7276, 938.7245
167.2097, 983.0935
167.6918, 1031.544
168.1739, 1083.906
168.6560, 1142.306
169.1381, 1205.581
169.6203, 1275.724
170.1024, 1346.458
170.5845, 1420.147
171.0666, 1505.130
171.5487, 1603.469
172.0309, 1714.381
172.5130, 1838.104
172.9951, 1975.904
173.4772, 2125.949
173.9593, 2286.190
174.4414, 2464.033
174.9236, 2646.408
175.4057, 2827.587
175.8878, 3009.869
176.3699, 3158.876
176.8520, 3272.077
177.3341, 3334.627
177.8163, 3312.160
178.2984, 3170.024
178.7805, 2943.783
179.2626, 2665.430
179.7447, 2336.378
180.2268, 2003.810
180.7090, 1707.119
181.1911, 1446.305
181.6732, 1226.828
182.1553, 1061.887
182.6374, 938.4989
183.1195, 836.9059
183.6017, 756.1252
184.0838, 691.0413
184.5659, 635.0436
185.0480, 588.2365
185.5301, 548.7951
186.0123, 518.0220
186.4944, 494.1779
186.9765, 473.3188
187.4586, 455.2304
187.9407, 439.4191
188.4228, 425.1423
188.9050, 412.4478
189.3871, 401.4272
189.8692, 392.8893
190.3513, 386.4029
190.8334, 379.4985
191.3155, 371.9364
191.7977, 364.3781
192.2798, 358.0450
192.7619, 352.9340
193.2440, 347.9124
193.7261, 341.9915
194.2082, 335.3567
194.6904, 329.8721
195.1725, 325.6911
195.6546, 322.5514
196.1367, 320.3845
196.6188, 319.2464
197.1009, 318.1519
197.5831, 316.6163
198.0652, 314.6273
198.5473, 312.3600
199.0294, 309.6766
199.5115, 306.9174
199.9937, 304.7239
200.4758, 303.1205
200.9579, 302.0254
201.4400, 301.7983
201.9221, 302.5787
202.4042, 302.1080
202.8864, 299.8859
203.3685, 296.7209
203.8506, 294.4495
204.3327, 293.1642
204.8148, 292.4532
205.2969, 292.1368
205.7791, 292.2223
206.2612, 292.7523
206.7433, 294.0487
207.2254, 295.5513
207.7075, 295.6592
208.1896, 293.9725
208.6718, 292.0614
209.1539, 290.6697
209.6360, 289.8081
210.1181, 289.5313
210.6002, 290.0611
211.0823, 291.0621
211.5645, 291.5100
212.0466, 291.1548
212.5287, 290.8600
213.0108, 291.2518
213.4929, 292.6958
213.9750, 293.3784
214.4572, 292.9798
214.9393, 291.8530
215.4214, 290.9474
215.9035, 290.1565
216.3856, 289.7948
216.8678, 290.1130
217.3499, 291.3273
217.8320, 292.4974
218.3141, 293.5501
218.7962, 294.5213
219.2783, 295.5464
219.7605, 296.6982
220.2426, 297.7372
220.7247, 298.4311
221.2068, 298.4705
221.6889, 299.0379
222.1710, 300.2632
222.6532, 302.0301
223.1353, 304.0661
223.6174, 306.8860
224.0995, 309.1642
224.5816, 310.0190
225.0637, 308.4915
225.5459, 308.0695
226.0280, 309.2509
226.5101, 311.5223
226.9922, 313.3414
227.4743, 314.8133
227.9564, 315.7013
228.4386, 315.8860
228.9207, 315.2798
229.4028, 314.1239
229.8849, 312.1064
230.3670, 309.6153
230.8492, 307.6832
231.3313, 306.4694
231.8134, 305.5963
232.2955, 304.9106
232.7776, 304.4958
233.2597, 304.1314
233.7419, 303.9342
234.2240, 303.7609
234.7061, 303.1594
235.1882, 301.6806
235.6703, 300.4703
236.1524, 300.0976
236.6346, 301.1376
237.1167, 301.6998
237.5988, 301.6345
238.0809, 301.1533
238.5630, 300.6899
239.0451, 300.0395
239.5273, 299.7152
240.0094, 299.9785
240.4915, 301.1032
240.9736, 302.0927
241.4557, 302.9321
241.9378, 303.6399
242.4200, 304.2226
242.9021, 304.5083
243.3842, 304.9389
243.8663, 305.7213
244.3484, 307.0247
244.8306, 308.1706
245.3127, 309.1031
245.7948, 309.8991
246.2769, 310.6526
246.7590, 311.1763
247.2411, 311.9706
247.7233, 313.3398
248.2054, 315.6149
248.6875, 317.2758
249.1696, 318.3819
249.6517, 318.8321
250.1338, 318.1771
250.6160, 315.1728
251.0981, 313.3356
251.5802, 314.2384
252.0623, 318.7579
252.5444, 321.4077
253.0265, 321.3427
253.5087, 320.0870
253.9908, 319.8708
254.4729, 321.3406
254.9550, 322.5002
255.4371, 322.4029
255.9192, 320.6551
256.4014, 321.0273
256.8835, 324.5605
257.3656, 329.1840
257.8477, 332.4731
258.3298, 334.0186
258.8120, 335.1365
259.2941, 336.0308
259.7762, 336.6738
260.2583, 337.6035
260.7404, 338.8357
261.2225, 340.3352
261.7047, 342.1858
262.1868, 344.6240
262.6689, 346.7466
263.1510, 348.1258
263.6331, 348.7918
264.1152, 350.6127
264.5974, 354.0484
265.0795, 357.9128
265.5616, 360.8702
266.0437, 362.5646
266.5258, 364.7213
267.0079, 367.8078
267.4901, 371.7135
267.9722, 375.0860
268.4543, 377.7159
268.9364, 380.3245
269.4185, 383.4409
269.9006, 387.0502
270.3828, 391.3227
270.8649, 396.6636
271.3470, 402.6796
271.8291, 407.3113
272.3112, 409.9814
272.7933, 412.8998
273.2755, 417.6372
273.7576, 424.3256
274.2397, 431.8216
274.7218, 440.0639
275.2039, 448.9198
275.6860, 457.6644
276.1682, 466.0049
276.6503, 475.6429
277.1324, 487.8555
277.6145, 502.6460
278.0966, 518.3915
278.5787, 534.7051
279.0609, 552.1483
279.5430, 572.4266
280.0251, 595.6459
280.5072, 620.6000
280.9893, 646.0399
281.4715, 671.7766
281.9536, 702.2178
282.4357, 738.0911
282.9178, 777.6826
283.3999, 818.4826
283.8820, 860.5098
284.3642, 903.3710
284.8463, 946.8657
285.3284, 991.1818
285.8105, 1036.171
286.2926, 1082.069
286.7747, 1128.554
287.2569, 1174.663
287.7390, 1220.454
288.2211, 1268.060
288.7032, 1317.792
289.1853, 1369.915
289.6674, 1425.901
290.1496, 1485.816
290.6317, 1550.648
291.1138, 1621.348
291.5959, 1698.230
292.0780, 1780.224
292.5602, 1865.370
293.0423, 1956.626
293.5244, 2061.965
294.0065, 2181.096
294.4886, 2311.355
294.9707, 2451.863
295.4529, 2603.174
295.9350, 2764.492
296.4171, 2940.077
296.8992, 3123.760
297.3813, 3307.555
297.8634, 3489.864
298.3456, 3661.936
298.8277, 3824.750
299.3098, 3970.531
299.7919, 4082.259
300.2740, 4158.483
300.7561, 4193.670
301.2383, 4179.481
301.7204, 4116.811
302.2025, 4009.358
302.6846, 3846.502
303.1667, 3643.885
303.6488, 3416.145
304.1310, 3161.538
304.6131, 2901.102
305.0952, 2651.669
305.5773, 2414.730
306.0594, 2195.255
306.5415, 1990.590
307.0237, 1805.743
307.5058, 1643.867
307.9879, 1507.045
308.4700, 1388.557
308.9521, 1284.812
309.4343, 1195.275
309.9164, 1116.382
310.3985, 1048.634
310.8806, 988.8118
311.3627, 934.8271
311.8448, 886.1032
312.3270, 842.7004
312.8091, 805.7561
313.2912, 773.6774
313.7733, 744.5828
314.2554, 718.1794
314.7375, 694.2706
315.2197, 673.5333
315.7018, 655.5240
316.1839, 638.1847
316.6660, 619.5521
317.1481, 601.6263
317.6302, 586.2906
318.1124, 575.0777
318.5945, 564.9944
319.0766, 555.0491
319.5587, 545.3972
320.0408, 536.4194
320.5229, 528.5194
321.0051, 521.1251
321.4872, 513.8083
321.9693, 506.0729
322.4514, 499.3843
322.9335, 494.2850
323.4156, 490.4150
323.8978, 487.0816
324.3799, 484.6152
324.8620, 482.2759
325.3441, 479.7310
325.8262, 476.7907
326.3083, 474.2561
326.7905, 472.0499
327.2726, 470.3197
327.7547, 469.2713
328.2368, 468.8028
328.7189, 469.1172
329.2010, 470.5301
329.6832, 473.1618
330.1653, 475.3935
330.6474, 476.7101
331.1295, 477.9961
331.6116, 479.9431
332.0938, 482.3562
332.5759, 485.7545
333.0580, 490.1935
333.5401, 495.6850
334.0222, 502.0064
334.5043, 509.3105
334.9865, 517.2976
335.4686, 525.7996
335.9507, 534.6414
336.4328, 544.6722
336.9149, 556.5512
337.3970, 569.5085
337.8792, 581.5093
338.3613, 593.4025
338.8434, 602.4943
339.3255, 607.7620
339.8076, 609.1628
340.2898, 607.1443
340.7719, 601.7650
341.2540, 592.8896
341.7361, 579.3685
342.2182, 561.0816
342.7003, 541.4952
343.1825, 521.2737
343.6646, 500.6210
344.1467, 481.9254
344.6288, 464.9039
345.1109, 450.4331
345.5930, 439.6807
346.0752, 432.5359
346.5573, 426.4942
347.0394, 421.0486
347.5215, 416.1966
348.0036, 411.7586
348.4857, 407.7579
348.9679, 404.3612
349.4500, 401.8206
349.9321, 399.9624
350.4142, 398.4129
350.8963, 397.2820
351.3784, 395.9895
351.8606, 393.4330
352.3427, 389.9792
352.8248, 386.9230
353.3069, 384.9554
353.7890, 383.8748
354.2711, 383.5980
354.7533, 384.2061
355.2354, 384.8332
355.7175, 384.7031
356.1996, 384.0858
356.6817, 383.4500
357.1638, 382.9192
357.6460, 382.4975
358.1281, 382.1580
358.6102, 381.9071
359.0923, 381.8210
359.5744, 382.0631
360.0565, 382.4398
360.5387, 382.7984
361.0208, 383.5394
361.5029, 383.7007
361.9850, 382.2292
362.4671, 379.7197
362.9492, 378.0249
363.4314, 378.6769
363.9135, 379.6719
364.3956, 379.8069
364.8777, 378.3737
365.3598, 377.3906
365.8419, 377.7146
366.3241, 378.6492
366.8062, 379.1491
367.2883, 378.0269
367.7704, 377.4589
368.2526, 378.4263
368.7347, 381.4225
369.2168, 383.1588
369.6989, 382.9819
370.1810, 381.9163
370.6631, 380.7128
371.1453, 378.4402
371.6274, 377.4605
372.1095, 378.5990
372.5916, 381.4533
373.0737, 383.3290
373.5558, 384.0839
374.0380, 384.0968
374.5201, 383.3724
375.0022, 381.4603
375.4843, 380.3940
375.9664, 380.5278
376.4485, 381.2848
376.9307, 381.3878
377.4128, 380.5854
377.8949, 380.2102
378.3770, 381.1265
378.8591, 383.2199
379.3412, 384.1739
379.8234, 383.8399
380.3055, 382.8604
380.7876, 381.7988
381.2697, 380.6599
381.7518, 379.6537
382.2339, 378.7475
382.7161, 378.0799
383.1982, 378.1642
383.6803, 378.9745
384.1624, 379.7357
384.6445, 379.7019
385.1266, 379.1810
385.6088, 378.9360
386.0909, 379.1013
386.5730, 379.5021
387.0551, 380.0664
387.5372, 380.7196
388.0193, 381.2565
388.5015, 381.3303
388.9836, 381.3529
389.4657, 381.8550
389.9478, 382.8783
390.4299, 383.8726
390.9120, 384.6230
391.3942, 385.0775
391.8763, 385.1538
392.3584, 384.3421
392.8405, 383.6085
393.3226, 383.4992
393.8047, 383.9139
394.2869, 384.3901
394.7690, 385.1803
395.2511, 385.6841
395.7332, 385.3715
396.2154, 383.3812
396.6975, 382.2169
397.1796, 383.0086
397.6617, 384.8582
398.1438, 386.2123
398.6259, 386.6107
399.1081, 386.7513
399.5902, 386.7585
400.0723, 386.6073
400.5544, 386.4917
401.0365, 386.1613
401.5186, 386.0449
402.0008, 386.5757
402.4829, 388.4287
402.9650, 389.6314
403.4471, 389.8269
403.9292, 389.2057
404.4113, 388.5461
404.8935, 387.8152
405.3756, 387.1117
405.8577, 386.3799
406.3398, 385.5448
406.8219, 385.3686
407.3040, 385.9957
407.7862, 387.0366
408.2683, 388.1484
408.7504, 389.3566
409.2325, 389.9658
409.7146, 389.4937
410.1967, 388.3100
410.6789, 387.5942
411.1610, 387.3593
411.6431, 387.3521
412.1252, 387.2128
412.6073, 387.1172
413.0894, 387.6570
413.5716, 389.1034
414.0537, 390.8423
414.5358, 392.1855
415.0179, 393.1876
415.5000, 394.0807
415.9821, 395.0135
416.4643, 395.8640
416.9464, 396.5854
417.4285, 397.1793
417.9106, 397.3455
418.3927, 396.2482
418.8748, 394.8176
419.3570, 394.1781
419.8391, 395.4970
420.3212, 396.9055
420.8033, 397.6151
421.2854, 397.7433
421.7675, 397.8652
422.2497, 398.2995
422.7318, 398.6781
423.2139, 398.7610
423.6960, 398.2850
424.1781, 398.0529
424.6602, 398.3310
425.1424, 398.8636
425.6245, 399.2672
426.1066, 399.3087
426.5887, 399.5146
427.0709, 400.1050
427.5530, 401.0771
428.0351, 401.6170
428.5172, 401.4156
428.9993, 401.2034
429.4814, 401.5391
429.9636, 402.5675
430.4457, 403.6218
430.9278, 404.7728
431.4099, 405.7935
431.8920, 405.9602
432.3741, 405.1181
432.8563, 404.6472
433.3384, 405.6609
433.8205, 407.7798
434.3026, 408.0458
434.7847, 406.2484
435.2668, 404.3047
435.7490, 404.2752
436.2311, 405.7575
436.7132, 407.3820
437.1953, 408.9551
437.6774, 410.2743
438.1595, 411.0175
438.6417, 411.2617
439.1238, 411.3231
439.6059, 411.2267
440.0880, 411.1326
440.5701, 411.2440
441.0522, 411.6126
441.5344, 411.9946
442.0165, 412.4282
442.4986, 412.7289
442.9807, 412.6656
443.4628, 411.4862
443.9449, 410.5896
444.4271, 410.6798
444.9092, 411.6003
445.3913, 412.4409
445.8734, 412.8553
446.3555, 413.2065
446.8376, 413.6980
447.3198, 414.5674
447.8019, 415.1188
448.2840, 415.0483
448.7661, 414.7714
449.2482, 414.9074
449.7303, 415.8961
450.2125, 416.5125
450.6946, 416.1988
451.1767, 415.0916
451.6588, 415.3834
452.1409, 417.6380
452.6230, 419.9928
453.1052, 421.0267
453.5873, 420.6475
454.0694, 420.3170
454.5515, 420.1999
455.0337, 420.0683
455.5158, 419.2139
455.9979, 417.7236
456.4800, 417.0368
456.9621, 418.3939
457.4442, 420.7910
457.9264, 421.8161
458.4085, 421.5053
458.8906, 420.8074
459.3727, 420.0269
459.8548, 419.4837
460.3369, 419.8304
460.8191, 421.5414
461.3012, 423.3878
461.7833, 424.7669
462.2654, 425.5486
462.7475, 425.4587
463.2296, 422.9339
463.7118, 420.6905
464.1939, 420.5647
464.6760, 422.6874
465.1581, 424.5662
465.6402, 425.1075
466.1223, 425.2902
466.6045, 425.7924
467.0866, 427.5117
467.5687, 428.5321
468.0508, 428.1643
468.5329, 427.0860
469.0150, 426.8252
469.4972, 427.8244
469.9793, 428.9788
470.4614, 430.0110
470.9435, 430.9286
471.4256, 431.6110
471.9077, 432.0323
472.3899, 432.2849
472.8720, 432.4396
473.3541, 432.4998
473.8362, 432.4662
474.3183, 432.3126
474.8004, 432.1102
475.2826, 431.8495
475.7647, 431.5612
476.2468, 431.7021
476.7289, 432.7974
477.2110, 434.4288
477.6931, 435.7167
478.1753, 436.6561
478.6574, 437.2922
479.1395, 437.6516
479.6216, 437.7332
480.1037, 437.3825
480.5858, 435.9752
481.0680, 435.2363
481.5501, 437.4433
482.0322, 441.1566
482.5143, 443.3470
482.9964, 441.2885
483.4786, 438.7778
483.9607, 437.6719
484.4428, 438.2042
484.9249, 438.6567
485.4070, 438.5977
485.8892, 438.4145
486.3713, 438.3819
486.8534, 438.6502
487.3355, 438.8408
487.8176, 438.7599
488.2997, 438.6547
488.7819, 439.1209
489.2640, 440.4530
489.7461, 441.6992
490.2282, 442.6301
490.7103, 443.2371
491.1924, 443.0553
491.6746, 441.8162
492.1567, 440.8681
492.6388, 441.7553
493.1209, 444.2336
493.6030, 446.1023
494.0851, 447.1101
494.5673, 447.3650
495.0494, 446.4291
495.5315, 444.7133
496.0136, 443.7357
496.4957, 444.5945
496.9778, 446.3226
497.4600, 448.3105
497.9421, 450.4350
498.4242, 451.6978
498.9063, 450.9102
499.3884, 449.3516
499.8705, 448.0574
500.3527, 447.1841
500.8348, 446.7270
501.3169, 447.0165
501.7990, 447.6452
502.2811, 448.0412
502.7632, 447.8683
503.2454, 447.7073
503.7275, 447.5521
504.2096, 447.4437
504.6917, 447.8596
505.1738, 449.0753
505.6559, 450.4423
506.1381, 451.7419
506.6202, 453.1737
507.1023, 453.5898
507.5844, 452.6026
508.0665, 451.3085
508.5486, 451.2814
509.0308, 452.5510
509.5129, 453.8556
509.9950, 454.8233
510.4771, 455.6611
510.9592, 457.1203
511.4413, 459.0718
511.9235, 460.4241
512.4056, 459.9596
512.8877, 458.6456
513.3698, 457.8505
513.8519, 457.6785
514.3340, 457.9442
514.8162, 459.2386
515.2983, 460.6285
515.7804, 460.9169
516.2625, 458.2520
516.7446, 456.3463
517.2267, 457.2680
517.7089, 460.0851
518.1910, 462.5020
518.6731, 464.4976
519.1552, 465.5951
519.6373, 465.1598
520.1194, 462.9595
520.6016, 461.8673
521.0837, 462.2535
521.5658, 463.3353
522.0479, 464.7463
522.5300, 466.7894
523.0121, 467.8890
523.4943, 467.6334
523.9764, 466.7945
524.4585, 466.8849
524.9406, 467.9289
525.4227, 468.6812
525.9048, 468.5858
526.3870, 467.9467
526.8691, 467.3944
527.3513, 466.9415
527.8334, 466.7712
528.3155, 467.1287
528.7976, 467.8094
529.2797, 468.5298
529.7618, 469.2602
530.2440, 470.0181
530.7261, 471.0835
531.2082, 472.0923
531.6903, 472.5599
532.1724, 471.6328
532.6545, 470.8811
533.1367, 470.6851
533.6188, 471.0403
534.1009, 471.9101
534.5830, 474.3891
535.0651, 476.3107
535.5472, 476.8228
536.0294, 475.7094
536.5115, 474.7011
536.9936, 473.5239
537.4757, 472.8383
537.9578, 473.4265
538.4399, 475.5807
538.9221, 477.2314
539.4042, 478.2275
539.8863, 478.5621
540.3684, 477.7904
540.8505, 476.0473
541.3326, 474.9922
541.8148, 475.7453
542.2969, 477.3309
542.7790, 477.7778
543.2611, 477.2657
543.7432, 477.2321
544.2253, 479.5047
544.7075, 482.2974
545.1896, 483.5206
545.6717, 482.5810
546.1538, 481.8553
546.6359, 483.0836
547.1180, 484.8943
547.6002, 485.8141
548.0823, 484.6353
548.5644, 483.5362
549.0465, 482.6961
549.5286, 482.2011
550.0107, 482.3559
550.4929, 483.8033
550.9750, 484.8997
551.4571, 484.8517
551.9392, 483.6467
552.4213, 483.8287
552.9034, 485.8211
553.3856, 487.8693
553.8677, 488.3141
554.3498, 487.3200
554.8319, 486.9768
555.3140, 487.6122
555.7961, 488.4828
556.2783, 488.4113
556.7604, 487.7666
557.2425, 487.6271
557.7246, 488.8709
558.2067, 490.2987
558.6888, 490.6348
559.1710, 490.1454
559.6531, 489.7121
560.1352, 489.3942
560.6173, 489.5641
561.0994, 490.7814
561.5815, 493.2990
562.0637, 494.9792
562.5458, 494.6283
563.0279, 493.7880
563.5100, 493.5929
563.9921, 494.4865
564.4742, 495.1942
564.9564, 495.3596
565.4385, 495.5659
565.9206, 497.2282
566.4027, 500.8871
566.8848, 503.0815
567.3669, 502.3150
567.8491, 499.6270
568.3312, 498.1698
568.8133, 497.9278
569.2954, 498.4950
569.7775, 500.4181
570.2596, 502.7518
570.7418, 503.4225
571.2239, 502.2675
571.7060, 501.1587
572.1881, 501.9273
572.6702, 503.3384
573.1523, 503.9693
573.6345, 502.9495
574.1166, 502.0437
574.5987, 502.1674
575.0808, 502.7806
575.5629, 502.9871
576.0450, 501.1773
576.5272, 500.6593
577.0093, 502.9458
577.4914, 507.3612
577.9735, 509.3060
578.4556, 507.8081
578.9377, 505.8169
579.4199, 504.6128
579.9020, 504.2210
580.3841, 504.4868
580.8662, 505.5025
581.3483, 506.7034
581.8304, 507.4171
582.3126, 507.8264
582.7947, 508.7277
583.2768, 510.5345
583.7589, 512.0515
584.2410, 511.4211
584.7231, 509.6068
585.2053, 508.5173
585.6874, 509.3755
586.1696, 510.7695
586.6517, 512.2704
587.1338, 513.7474
587.6159, 514.6995
588.0980, 514.3492
588.5801, 514.0019
589.0623, 514.3353
589.5444, 515.5270
590.0265, 516.1846
590.5086, 516.0639
590.9907, 515.7284
591.4728, 515.5391
591.9550, 515.4658
592.4371, 515.8951
592.9192, 517.0123
593.4013, 518.2908
593.8834, 519.0048
594.3655, 519.2015
594.8477, 519.0982
595.3298, 518.6404
595.8119, 518.0921
596.2940, 517.7040
596.7761, 517.5073
597.2582, 517.5930
597.7404, 517.9252
598.2225, 518.6096
598.7046, 520.0925
599.1867, 522.3514
599.6688, 523.7377
600.1509, 523.3830
600.6331, 522.2727
601.1152, 520.8434
601.5973, 518.3998
602.0794, 517.3981
602.5615, 518.5859
603.0436, 520.5081
603.5258, 521.4634
604.0079, 521.2401
604.4900, 521.2221
604.9721, 521.6849
605.4542, 522.3974
605.9363, 522.9028
606.4185, 523.2231
606.9006, 523.5447
607.3827, 523.9900
607.8648, 524.4631
608.3469, 524.7088
608.8290, 524.7963
609.3112, 525.0944
609.7933, 526.1916
610.2754, 527.3214
610.7575, 527.8367
611.2396, 527.5690
611.7217, 527.3560
612.2039, 527.4666
612.6860, 527.6808
613.1681, 527.8141
613.6502, 527.5332
614.1323, 527.7567
614.6144, 528.8026
615.0966, 530.0714
615.5787, 530.6008
616.0608, 530.2221
616.5429, 530.2704
617.0250, 531.3372
617.5071, 532.7028
617.9893, 532.3345
618.4714, 530.4837
618.9535, 529.0909
619.4356, 529.6563
619.9177, 530.9761
620.3998, 531.4872
620.8820, 531.2518
621.3641, 531.0060
621.8462, 530.8504
622.3283, 531.0533
622.8104, 532.0139
623.2925, 534.1371
623.7747, 535.5481
624.2568, 535.2576
624.7389, 534.5114
625.2210, 534.2758
625.7031, 534.5961
626.1852, 535.4312
626.6674, 537.1718
627.1495, 538.9602
627.6316, 539.0314
628.1137, 537.2914
628.5958, 536.1838
629.0779, 536.5633
629.5601, 537.8130
630.0422, 539.0740
630.5243, 540.2364
631.0064, 540.8141
631.4885, 539.9066
631.9706, 538.7244
632.4528, 538.5129
632.9349, 539.2316
633.4170, 539.9053
633.8991, 539.9610
634.3812, 539.9577
634.8633, 540.2169
635.3455, 540.7910
635.8276, 541.6045
636.3097, 543.0062
636.7918, 544.3143
637.2739, 544.7758
637.7560, 543.9523
638.2382, 544.1061
638.7203, 545.6589
639.2024, 547.7444
639.6845, 549.3242
640.1666, 550.3563
640.6487, 550.3848
641.1309, 548.6375
641.6130, 546.7096
642.0951, 547.1794
642.5772, 549.3461
643.0594, 551.2314
643.5415, 551.9616
644.0236, 552.0514
644.5057, 551.3140
644.9879, 549.9473
645.4700, 549.5838
645.9521, 552.0213
646.4342, 554.2607
646.9163, 554.7870
647.3984, 553.2003
647.8806, 552.8438
648.3627, 554.2562
648.8448, 555.9193
649.3269, 556.5793
649.8090, 556.2416
650.2911, 555.9745
650.7733, 555.8705
651.2554, 555.8079
651.7375, 555.3051
652.2196, 554.7369
652.7017, 555.1509
653.1838, 557.3842
653.6660, 559.5817
654.1481, 559.8011
654.6302, 559.0555
655.1123, 559.1456
655.5944, 562.0660
656.0765, 564.4036
656.5587, 564.4798
657.0408, 562.9001
657.5229, 562.7173
658.0050, 565.0709
658.4871, 566.8336
658.9692, 566.6213
659.4514, 564.6811
659.9335, 563.8840
660.4156, 564.3365
660.8977, 565.0594
661.3798, 565.1556
661.8619, 565.0034
662.3441, 565.9825
662.8262, 568.2176
663.3083, 569.9323
663.7904, 568.8973
664.2725, 566.9808
664.7546, 566.4289
665.2368, 568.4176
665.7189, 569.8184
666.2010, 568.9120
666.6831, 567.1949
667.1652, 566.3964
667.6473, 567.1542
668.1295, 567.8615
668.6116, 568.2019
669.0937, 568.6005
669.5758, 570.2156
670.0579, 573.2797
670.5400, 575.2647
671.0222, 574.9350
671.5043, 573.5958
671.9864, 574.2618
672.4685, 576.5209
672.9506, 578.3670
673.4327, 577.9705
673.9149, 577.1442
674.3970, 577.5544
674.8791, 579.0995
675.3612, 580.7703
675.8433, 582.6598
676.3254, 584.1740
676.8076, 584.8619
677.2897, 584.5467
677.7718, 584.4428
678.2539, 584.5076
678.7360, 584.8705
679.2181, 585.8297
679.7003, 587.5148
680.1824, 588.3280
680.6645, 588.0776
681.1466, 587.5842
681.6287, 587.3447
682.1108, 587.5750
682.5930, 589.2059
683.0751, 592.9329
683.5572, 596.3057
684.0393, 596.7835
684.5214, 595.7421
685.0035, 595.1643
685.4857, 595.6020
685.9678, 596.6409
686.4499, 598.4499
686.9320, 600.7552
687.4141, 603.0274
687.8962, 605.5833
688.3784, 607.4364
688.8605, 608.1705
689.3426, 608.1390
689.8247, 608.4671
690.3068, 609.1639
690.7889, 610.2064
691.2711, 611.8201
691.7532, 613.6725
692.2353, 614.9064
692.7174, 615.6351
693.1995, 616.6345
693.6816, 618.9485
694.1638, 621.2902
694.6459, 622.4836
695.1280, 622.3915
695.6101, 622.6024
696.0922, 623.4229
696.5743, 624.7515
697.0565, 626.5753
697.5386, 629.0423
698.0207, 631.5368
698.5028, 634.1498
698.9849, 636.6171
699.4670, 638.3857
699.9492, 639.5970
700.4313, 641.9598
700.9135, 645.8225
701.3956, 649.8271
701.8777, 651.9197
702.3598, 653.2521
702.8419, 655.8984
703.3240, 660.9852
703.8062, 666.3155
704.2883, 671.0742
704.7704, 675.2452
705.2525, 678.7187
705.7346, 680.7831
706.2167, 683.0028
706.6989, 685.0016
707.1810, 687.4850
707.6631, 692.2615
708.1452, 699.5375
708.6273, 707.5213
709.1094, 716.0146
709.5916, 724.5513
710.0737, 731.7405
710.5558, 737.8159
711.0379, 744.2886
711.5200, 751.3561
712.0021, 759.6110
712.4843, 770.2729
712.9664, 782.9460
713.4485, 795.6228
713.9306, 806.8619
714.4127, 818.4353
714.8948, 830.8908
715.3770, 844.3230
715.8591, 858.7443
716.3412, 873.9277
716.8233, 890.4745
717.3054, 908.6228
717.7875, 928.4925
718.2697, 948.8518
718.7518, 969.7805
719.2339, 992.5179
719.7160, 1018.760
720.1981, 1047.248
720.6802, 1076.838
721.1624, 1107.267
721.6445, 1137.128
722.1266, 1165.333
722.6087, 1192.464
723.0908, 1219.213
723.5729, 1248.195
724.0551, 1270.869
724.5372, 1288.029
725.0193, 1297.804
725.5014, 1297.971
725.9835, 1288.183
726.4656, 1270.643
726.9478, 1244.874
727.4299, 1212.643
727.9120, 1175.620
728.3941, 1134.160
728.8762, 1090.326
729.3583, 1042.965
729.8405, 997.0745
730.3226, 956.4938
730.8047, 919.9936
731.2868, 886.8269
731.7689, 856.2342
732.2510, 829.0634
732.7332, 806.0712
733.2153, 786.5745
733.6974, 769.2795
734.1795, 754.4913
734.6616, 741.3613
735.1437, 729.9196
735.6259, 719.9539
736.1080, 711.1723
736.5901, 703.5431
737.0722, 696.7965
737.5543, 690.8112
738.0364, 685.6277
738.5186, 681.3107
739.0007, 677.8605
739.4828, 675.1379
739.9649, 674.6293
740.4470, 673.3639
740.9291, 669.1517
741.4113, 662.3174
741.8934, 657.7956
742.3755, 656.5287
742.8576, 655.9139
743.3397, 655.0526
743.8218, 653.9515
744.3040, 652.4802
744.7861, 650.6390
745.2682, 649.0148
745.7503, 648.1053
746.2324, 647.6264
746.7145, 647.1027
747.1967, 646.5273
747.6788, 646.2227
748.1609, 646.6492
748.6430, 647.1837
749.1251, 647.4437
749.6072, 647.3658
750.0894, 647.0992
750.5715, 646.5009
751.0536, 645.9307
751.5357, 645.6805
752.0178, 645.7973
752.4999, 645.5856
752.9821, 644.9828
753.4642, 644.4669
753.9463, 644.6821
754.4284, 645.2677
754.9105, 645.4288
755.3926, 645.0176
755.8748, 644.6413
756.3569, 644.4896
756.8390, 644.6549
757.3211, 645.3914
757.8032, 647.6688
758.2853, 648.2316
758.7675, 645.5938
759.2496, 642.5468
759.7318, 641.9904
760.2139, 644.4666
760.6960, 644.9759
761.1781, 642.6397
761.6602, 640.0432
762.1423, 640.6628
762.6245, 643.4570
763.1066, 646.0866
763.5887, 648.2661
764.0708, 649.4259
764.5529, 647.9997
765.0350, 645.7899
765.5172, 644.9325
765.9993, 647.4214
766.4814, 649.2236
766.9635, 649.9077
767.4456, 649.9473
767.9277, 649.9388
768.4099, 649.8965
768.8920, 649.5187
769.3741, 648.5378
769.8562, 647.7338
770.3383, 648.7178
770.8204, 650.8134
771.3026, 652.1324
771.7847, 651.7303
772.2668, 651.0928
772.7489, 651.0831
773.2310, 651.5519
773.7131, 652.2568
774.1953, 653.9910
774.6774, 654.8549
775.1595, 654.3333
775.6416, 653.0589
776.1237, 651.9263
776.6058, 650.7983
777.0880, 651.0660
777.5701, 653.5341
778.0522, 656.6575
778.5343, 657.6680
779.0164, 657.1443
779.4985, 656.7789
779.9807, 657.4095
780.4628, 658.1982
780.9449, 658.3500
781.4270, 658.3133
781.9091, 659.0325
782.3912, 662.3314
782.8734, 664.2341
783.3555, 663.5829
783.8376, 661.4899
784.3197, 660.6770
784.8018, 661.2113
785.2839, 662.2620
785.7661, 663.7031
786.2482, 665.3251
786.7303, 667.0074
787.2124, 668.5843
787.6945, 669.6288
788.1766, 670.1046
788.6588, 669.8252
789.1409, 667.9785
789.6230, 665.2898
790.1051, 663.8049
790.5872, 664.2897
791.0693, 665.0965
791.5515, 665.9543
792.0336, 666.9042
792.5157, 668.0887
792.9978, 669.5118
793.4799, 670.9223
793.9620, 672.4407
794.4442, 673.6672
794.9263, 673.6658
795.4084, 672.8727
795.8905, 672.5045
796.3726, 673.4909
796.8547, 674.6008
797.3369, 675.3597
797.8190, 675.8198
798.3011, 676.2371
798.7832, 676.5613
799.2653, 676.9479
799.7474, 677.4828
800.2296, 678.0569
800.7117, 678.2190
801.1938, 678.0325
801.6759, 678.2211
802.1580, 679.3136
802.6401, 680.6962
803.1223, 681.7415
803.6044, 682.5161
804.0865, 683.1679
804.5686, 683.6406
805.0507, 684.1553
805.5328, 684.7496
806.0150, 685.4609
806.4971, 686.5804
806.9792, 688.5895
807.4613, 689.3112
807.9434, 687.5161
808.4255, 684.7590
808.9077, 684.9330
809.3898, 687.4450
809.8719, 689.6576
810.3540, 690.4092
810.8361, 690.3889
811.3182, 689.5546
811.8004, 688.3787
812.2825, 687.9693
812.7646, 689.4816
813.2467, 690.7178
813.7288, 691.1666
814.2109, 691.1281
814.6931, 691.4429
815.1752, 692.2042
815.6573, 692.5287
816.1394, 692.0571
816.6215, 691.2150
817.1037, 690.4167
817.5858, 689.8212
818.0679, 689.8233
818.5500, 690.9008
819.0322, 692.2791
819.5143, 693.7776
819.9964, 695.2568
820.4785, 696.4109
820.9606, 697.2828
821.4427, 697.6418
821.9249, 697.1920
822.4070, 696.4638
822.8891, 696.6174
823.3712, 697.5838
823.8533, 698.6835
824.3354, 699.9376
824.8176, 700.8271
825.2997, 700.1874
825.7818, 698.8984
826.2639, 698.4728
826.7460, 700.8170
827.2281, 702.3901
827.7103, 701.6603
828.1924, 700.0792
828.6745, 699.5306
829.1566, 700.2172
829.6387, 701.2058
830.1208, 702.4789
830.6030, 703.6947
831.0851, 704.2098
831.5672, 704.2097
832.0493, 704.2098
832.5314, 704.3445
833.0135, 704.4943
833.4957, 704.2742
833.9778, 704.1546
834.4599, 704.6938
834.9420, 707.3139
835.4241, 708.6185
835.9063, 707.9675
836.3884, 706.7836
836.8705, 706.8757
837.3526, 708.2043
837.8347, 709.0001
838.3168, 708.9434
838.7990, 708.9722
839.2811, 710.6591
839.7632, 712.8069
840.2453, 713.4970
840.7274, 711.6979
841.2095, 710.7202
841.6917, 712.5154
842.1738, 714.9768
842.6559, 716.5068
843.1380, 716.9453
843.6201, 716.8493
844.1022, 716.0298
844.5844, 715.3265
845.0665, 715.7870
845.5486, 716.9688
846.0307, 717.7584
846.5128, 718.0690
846.9949, 717.7650
847.4771, 715.3942
847.9592, 713.3609
848.4413, 713.9634
848.9234, 718.2158
849.4055, 720.7812
849.8876, 720.5548
850.3698, 720.1395
850.8519, 721.3306
851.3340, 723.9070
851.8161, 724.7358
852.2982, 723.8231
852.7803, 722.9206
853.2625, 723.2767
853.7446, 724.3207
854.2267, 725.6328
854.7088, 727.1419
855.1909, 728.4608
855.6730, 729.6678
856.1552, 730.4156
856.6373, 730.5162
857.1194, 730.0414
857.6015, 729.5427
858.0836, 729.0406
858.5657, 728.3764
859.0479, 727.2427
859.5300, 726.0592
860.0121, 725.6818
860.4942, 725.9805
860.9763, 726.5070
861.4584, 726.9758
861.9406, 727.6791
862.4227, 728.8322
862.9048, 730.3427
863.3869, 731.9512
863.8690, 734.2089
864.3511, 735.0548
864.8333, 733.4932
865.3154, 730.9033
865.7975, 729.8246
866.2796, 730.2067
866.7617, 731.9685
867.2438, 736.1261
867.7260, 739.8804
868.2081, 740.2890
868.6902, 739.1550
869.1723, 739.3170
869.6544, 743.1688
870.1365, 745.7324
870.6187, 746.2761
871.1008, 745.9821
871.5829, 746.4114
872.0650, 747.5351
872.5471, 748.6979
873.0292, 749.8307
873.5114, 750.8652
873.9935, 751.8059
874.4756, 752.5775
874.9577, 752.8151
875.4399, 751.8092
875.9220, 752.3950
876.4041, 756.8114
876.8862, 761.7712
877.3683, 764.8326
877.8505, 765.3584
878.3326, 768.4405
878.8147, 774.2224
879.2968, 781.3098
879.7789, 789.2240
880.2610, 797.2527
880.7432, 804.7922
881.2253, 811.7236
881.7074, 816.7319
882.1895, 821.0665
882.6716, 821.5672
883.1537, 815.0193
883.6359, 802.0071
884.1180, 790.8808
884.6001, 781.6872
885.0822, 773.9205
885.5643, 767.1194
886.0464, 761.7092
886.5286, 759.3176
887.0107, 759.4072
887.4928, 759.7564
887.9749, 758.9990
888.4570, 758.3929
888.9391, 758.9605
889.4213, 760.1982
889.9034, 760.4183
890.3855, 759.0355
890.8676, 757.9086
891.3497, 757.3346
891.8318, 757.3026
892.3140, 758.3705
892.7961, 760.0591
893.2782, 760.2214
893.7603, 757.3483
894.2424, 754.8377
894.7245, 755.5324
895.2067, 757.9232
895.6888, 760.2070
896.1709, 762.5916
896.6530, 763.9700
897.1351, 764.1861
897.6172, 763.6223
898.0994, 762.1149
898.5815, 759.9549
899.0636, 759.7628
899.5457, 761.9066
900.0278, 763.8203
900.5099, 762.6519
900.9921, 760.7816
901.4742, 760.5473
901.9563, 762.4618
902.4384, 764.0091
902.9205, 764.3038
903.4026, 765.0615
903.8848, 767.7672
904.3669, 771.8666
904.8490, 772.0267
905.3311, 768.4064
905.8132, 765.4598
906.2953, 766.8184
906.7775, 769.4191
907.2596, 769.9869
907.7417, 769.1279
908.2238, 769.1360
908.7059, 772.4808
909.1880, 774.3607
909.6702, 773.1077
910.1523, 770.2405
910.6344, 769.4316
911.1165, 770.6466
911.5986, 772.1998
912.0807, 773.9042
912.5629, 775.1027
913.0450, 774.6064
913.5271, 773.2618
914.0092, 772.2831
914.4913, 771.8325
914.9734, 772.1601
915.4556, 773.8729
915.9377, 775.8055
916.4198, 776.8920
916.9019, 777.0853
917.3840, 777.2484
917.8661, 777.4287
918.3483, 777.5385
918.8304, 777.0623
919.3125, 776.7133
919.7946, 777.8398
920.2767, 780.5829
920.7589, 782.1755
921.2410, 780.3466
921.7231, 778.6862
922.2052, 778.6409
922.6873, 780.0389
923.1694, 781.5082
923.6516, 783.0406
924.1337, 784.3737
924.6158, 785.3710
925.0979, 786.0880
925.5800, 786.4881
926.0621, 786.6578
926.5443, 786.8260
927.0264, 787.4618
927.5085, 787.5465
927.9906, 786.2483
928.4727, 784.7488
928.9548, 785.2435
929.4370, 787.8125
929.9191, 790.2781
930.4012, 792.4258
930.8833, 793.6177
931.3654, 792.0431
931.8475, 789.5238
932.3297, 788.6469
932.8118, 790.3643
933.2939, 792.0987
933.7761, 793.7326
934.2582, 794.6901
934.7403, 794.3055
935.2224, 792.5155
935.7045, 792.0081
936.1866, 792.8294
936.6688, 793.4285
937.1509, 792.2447
937.6330, 790.5826
938.1151, 789.9445
938.5972, 790.2190
939.0793, 790.5978
939.5615, 791.2206
940.0436, 791.4671
940.5257, 791.0650
941.0078, 790.2850
941.4899, 789.9969
941.9720, 790.1664
942.4542, 789.6071
942.9363, 787.4893
943.4184, 785.7028
943.9005, 786.8498
944.3826, 789.3910
944.8647, 791.1779
945.3469, 791.0253
945.8290, 791.3365
946.3111, 792.4734
946.7932, 793.8801
947.2753, 795.1454
947.7574, 796.2799
948.2396, 797.2239
948.7217, 797.9851
949.2038, 798.5555
949.6859, 798.2436
950.1680, 798.2676
950.6501, 800.4594
951.1323, 804.6724
951.6144, 806.7435
952.0965, 805.0453
952.5786, 803.1580
953.0607, 801.9845
953.5428, 801.4780
954.0250, 801.5214
954.5071, 802.1064
954.9892, 803.3160
955.4713, 805.7686
955.9534, 807.8157
956.4355, 807.6917
956.9177, 806.5664
957.3998, 806.1591
957.8819, 807.2139
958.3640, 807.9440
958.8461, 808.1900
959.3282, 808.3762
959.8104, 809.2366
960.2925, 810.4153
960.7746, 810.3924
961.2567, 809.0563
961.7388, 807.9403
962.2209, 808.2057
962.7031, 808.8749
963.1852, 809.0108
963.6673, 808.6834
964.1494, 810.0557
964.6315, 813.7980
965.1136, 816.8138
965.5958, 817.7063
966.0779, 817.3907
966.5600, 817.6183
967.0421, 818.2297
967.5242, 818.8022
968.0063, 819.3773
968.4885, 819.6099
968.9706, 819.0067
969.4527, 818.2034
969.9348, 817.8566
970.4169, 817.8777
970.8990, 819.2996
971.3812, 822.5515
971.8633, 825.0934
972.3454, 822.8712
972.8275, 819.0297
973.3096, 818.8824
973.7917, 822.8376
974.2739, 825.4279
974.7560, 822.7867
975.2381, 820.5143
975.7202, 821.0195
976.2023, 823.6341
976.6844, 824.7791
977.1666, 824.4918
977.6487, 825.0282
978.1308, 828.3983
978.6129, 831.2574
979.0950, 828.5759
979.5771, 823.3914
980.0593, 820.6711
980.5414, 823.5956
981.0235, 826.4413
981.5056, 829.3726
981.9877, 831.5992
982.4698, 831.9740
982.9520, 830.8324
983.4341, 830.3215
983.9162, 830.5692
984.3983, 830.9895
984.8804, 831.3173
985.3625, 831.5221
985.8447, 831.4759
986.3268, 831.2111
986.8089, 831.2805
987.2910, 831.8298
987.7731, 832.3172
988.2552, 832.5233
988.7374, 832.6462
989.2195, 832.8931
989.7016, 833.3930
990.1837, 834.6149
990.6658, 837.5651
991.1479, 839.5734
991.6301, 838.3617
992.1122, 836.4362
992.5944, 836.3641
993.0765, 838.6352
993.5586, 839.8513
994.0407, 839.8147
994.5228, 840.0048
995.0049, 842.3882
995.4871, 845.2571
995.9692, 846.0862
996.4513, 845.0872
996.9334, 844.4484
997.4155, 844.9137
997.8976, 845.8134
998.3798, 847.2404
998.8619, 848.8134
999.3440, 849.5073
999.8261, 849.4232
1000.308, 849.5372
1000.790, 850.1554
1001.272, 850.8487
1001.755, 851.3282
1002.237, 851.6555
1002.719, 851.8829
1003.201, 852.0002
1003.683, 852.0558
1004.165, 851.9812
1004.647, 852.0399
1005.129, 852.5833
1005.612, 853.3695
1006.094, 853.5266
1006.576, 853.2257
1007.058, 853.2511
1007.540, 854.4951
1008.022, 855.6157
1008.504, 855.6960
1008.986, 855.4509
1009.468, 856.1978
1009.951, 858.0673
1010.433, 859.9409
1010.915, 861.7543
1011.397, 863.0699
1011.879, 862.8312
1012.361, 862.0895
1012.843, 862.3295
1013.325, 863.9410
1013.807, 864.8291
1014.290, 863.6532
1014.772, 863.2090
1015.254, 865.2295
1015.736, 868.7922
1016.218, 869.7817
1016.700, 868.6462
1017.182, 867.9765
1017.664, 869.3516
1018.147, 871.0267
1018.629, 871.8590
1019.111, 872.3085
1019.593, 873.0732
1020.075, 874.1639
1020.557, 875.8281
1021.039, 878.3607
1021.521, 880.3461
1022.003, 879.3132
1022.486, 877.2756
1022.968, 878.6010
1023.450, 883.1171
1023.932, 886.1120
1024.414, 884.0151
1024.896, 882.0825
1025.378, 882.0926
1025.860, 883.4287
1026.343, 884.1808
1026.825, 884.4352
1027.307, 885.7938
1027.789, 889.1025
1028.271, 892.2921
1028.753, 893.4646
1029.235, 893.5306
1029.717, 893.3953
1030.199, 893.0472
1030.682, 892.9825
1031.164, 893.2031
1031.646, 893.6933
1032.128, 894.3152
1032.610, 895.2535
1033.092, 897.2809
1033.574, 900.1036
1034.056, 902.5714
1034.539, 904.4918
1035.021, 905.5495
1035.503, 904.9896
1035.985, 903.9333
1036.467, 903.8813
1036.949, 904.8537
1037.431, 905.9454
1037.913, 907.0707
1038.396, 908.1156
1038.878, 908.7907
1039.360, 909.4830
1039.842, 910.9298
1040.324, 913.1386
1040.806, 913.7558
1041.288, 911.6710
1041.770, 910.4480
1042.252, 911.4205
1042.734, 913.6312
1043.217, 915.4075
1043.699, 916.7981
1044.181, 917.9232
1044.663, 918.7452
1045.145, 919.5175
1045.627, 920.3056
1046.109, 921.1154
1046.591, 921.8343
1047.074, 922.4313
1047.556, 923.8494
1048.038, 926.1033
1048.520, 928.5579
1049.002, 930.8131
1049.484, 933.0331
1049.966, 935.5534
1050.448, 938.1580
1050.931, 940.2053
1051.413, 941.2167
1051.895, 942.6966
1052.377, 944.9719
1052.859, 947.3596
1053.341, 948.5349
1053.823, 949.3642
1054.305, 951.9793
1054.787, 956.6298
1055.270, 961.5208
1055.752, 966.8286
1056.234, 971.0319
1056.716, 972.7964
1057.198, 973.1640
1057.680, 976.7766
1058.162, 983.3648
1058.644, 988.4734
1059.126, 989.7422
1059.609, 991.4802
1060.091, 998.8464
1060.573, 1007.968
1061.055, 1014.199
1061.537, 1016.186
1062.019, 1018.774
1062.501, 1021.570
1062.983, 1026.488
1063.466, 1036.096
1063.948, 1047.919
1064.430, 1057.626
1064.912, 1065.695
1065.394, 1073.567
1065.876, 1080.243
1066.358, 1088.905
1066.840, 1100.867
1067.323, 1113.964
1067.805, 1125.228
1068.287, 1135.143
1068.769, 1146.242
1069.251, 1158.777
1069.733, 1173.015
1070.215, 1190.648
1070.697, 1208.563
1071.179, 1223.934
1071.661, 1237.486
1072.144, 1251.965
1072.626, 1267.348
1073.108, 1282.899
1073.590, 1298.072
1074.072, 1313.990
1074.554, 1332.270
1075.036, 1351.823
1075.518, 1371.275
1076.001, 1390.316
1076.483, 1409.567
1076.965, 1429.776
1077.447, 1448.475
1077.929, 1463.438
1078.411, 1476.343
1078.893, 1491.614
1079.375, 1508.993
1079.858, 1527.566
1080.340, 1546.393
1080.822, 1567.413
1081.304, 1590.502
1081.786, 1616.813
1082.268, 1647.201
1082.750, 1681.392
1083.232, 1719.383
1083.714, 1761.500
1084.197, 1810.483
1084.679, 1864.153
1085.161, 1929.377
1085.643, 2012.928
1086.125, 2112.344
1086.607, 2220.608
1087.089, 2335.550
1087.571, 2464.767
1088.054, 2610.960
1088.536, 2765.713
1089.018, 2917.934
1089.500, 3073.586
1089.982, 3237.315
1090.464, 3410.346
1090.946, 3598.328
1091.428, 3793.392
1091.911, 4016.492
1092.393, 4271.143
1092.875, 4561.513
1093.357, 4893.510
1093.839, 5268.368
1094.321, 5698.563
1094.803, 6186.044
1095.285, 6735.084
1095.767, 7369.007
1096.250, 8044.028
1096.732, 8757.354
1097.214, 9495.783
1097.696, 10139.02
1098.178, 10682.33
1098.660, 10994.92
1099.142, 11039.29
1099.624, 10800.29
1100.106, 10178.81
1100.589, 9292.715
1101.071, 8312.024
1101.553, 7178.916
1102.035, 6161.687
1102.517, 5259.042
1102.999, 4478.912
1103.481, 3851.099
1103.963, 3342.282
1104.446, 2935.647
1104.928, 2621.401
1105.410, 2360.510
1105.892, 2161.904
1106.374, 1992.769
1106.856, 1851.263
1107.338, 1733.631
1107.820, 1635.810
1108.302, 1556.200
1108.785, 1487.149
1109.267, 1428.198
1109.749, 1377.881
1110.231, 1338.766
1110.713, 1304.400
1111.195, 1272.159
1111.677, 1242.369
1112.159, 1215.659
1112.641, 1191.930
1113.124, 1170.618
1113.606, 1151.446
1114.088, 1134.412
1114.570, 1120.034
1115.052, 1107.372
1115.534, 1095.900
1116.016, 1085.620
1116.498, 1076.005
1116.981, 1066.974
1117.463, 1058.672
1117.945, 1051.022
1118.427, 1044.305
1118.909, 1039.744
1119.391, 1035.886
1119.873, 1030.464
1120.355, 1022.217
1120.838, 1015.546
1121.320, 1010.606
1121.802, 1006.538
1122.284, 1002.675
1122.766, 999.3734
1123.248, 997.5964
1123.730, 996.7473
1124.212, 995.1874
1124.694, 991.4057
1125.177, 988.5250
1125.659, 987.0831
1126.141, 985.9820
1126.623, 983.6147
1127.105, 980.7781
1127.587, 980.0656
1128.069, 981.2377
1128.551, 981.5895
1129.033, 979.5005
1129.516, 976.8158
1129.998, 973.5611
1130.480, 970.5348
1130.962, 969.3990
1131.444, 969.7542
1131.926, 969.4147
1132.408, 968.0447
1132.890, 966.7296
1133.373, 966.2075
1133.855, 965.9031
1134.337, 965.4995
1134.819, 965.0575
1135.301, 964.8077
1135.783, 964.7564
1136.265, 964.8698
1136.747, 965.3379
1137.229, 965.1661
1137.712, 962.3444
1138.194, 959.3483
1138.676, 958.9894
1139.158, 961.2693
1139.640, 961.1168
1140.122, 958.1741
1140.604, 956.2904
1141.086, 957.4964
1141.569, 959.5624
1142.051, 960.0583
1142.533, 959.8171
1143.015, 959.9675
1143.497, 960.7592
1143.979, 961.7929
1144.461, 963.2805
1144.943, 964.1041
1145.426, 963.2130
1145.908, 961.5242
1146.390, 960.2050
1146.872, 959.2814
1147.354, 958.8002
1147.836, 958.7888
1148.318, 959.3119
1148.800, 960.5309
1149.282, 961.8945
1149.765, 963.3364
1150.247, 964.4425
1150.729, 963.8990
1151.211, 962.0839
1151.693, 960.6100
1152.175, 959.7469
1152.657, 959.9958
1153.139, 962.0643
1153.621, 964.2241
1154.104, 964.1497
1154.586, 962.4821
1155.068, 961.2230
1155.550, 960.4992
1156.032, 960.1918
1156.514, 960.5697
1156.996, 960.9393
1157.478, 961.1251
1157.961, 961.1217
1158.443, 960.3010
1158.925, 959.1160
1159.407, 961.0522
1159.889, 966.7088
1160.371, 970.5832
1160.853, 966.9343
1161.335, 963.1381
1161.818, 963.4394
1162.300, 966.2662
1162.782, 967.0065
1163.264, 965.8173
1163.746, 964.5568
1164.228, 963.4763
1164.710, 963.2869
1165.192, 965.6361
1165.674, 968.0928
1166.156, 968.5550
1166.639, 967.4431
1167.121, 967.5593
1167.603, 968.9017
1168.085, 969.8555
1168.567, 969.9540
1169.049, 969.4182
1169.531, 967.2052
1170.013, 965.2996
1170.496, 966.4814
1170.978, 970.8257
1171.460, 971.6755
1171.942, 968.8264
1172.424, 966.0963
1172.906, 965.0275
1173.388, 965.0553
1173.870, 966.0825
1174.353, 967.6466
1174.835, 969.1213
1175.317, 970.3856
1175.799, 972.3525
1176.281, 975.2725
1176.763, 977.0306
1177.245, 975.5233
1177.727, 973.2736
1178.209, 972.7552
1178.692, 973.6360
1179.174, 975.6094
1179.656, 979.8819
1180.138, 981.4330
1180.620, 979.8752
1181.102, 977.6022
1181.584, 975.8372
1182.066, 974.7137
1182.548, 974.3719
1183.031, 974.8049
1183.513, 976.1695
1183.995, 979.7872
1184.477, 981.0906
1184.959, 979.5182
1185.441, 977.1389
1185.923, 974.8112
1186.405, 973.4460
1186.888, 975.0399
1187.370, 978.8026
1187.852, 981.8798
1188.334, 984.1089
1188.816, 984.7458
1189.298, 983.4307
1189.780, 981.4522
1190.262, 979.1998
1190.745, 977.6716
1191.227, 979.0770
1191.709, 982.8802
1192.191, 985.8279
1192.673, 987.6790
1193.155, 987.4813
1193.637, 984.4265
1194.119, 981.1710
1194.601, 980.8109
1195.084, 982.3818
1195.566, 985.1672
1196.048, 988.7989
1196.530, 990.2634
1197.012, 987.4401
1197.494, 985.7626
1197.976, 986.5971
1198.458, 988.1005
1198.941, 987.2969
1199.423, 985.5283
1199.905, 985.2902
1200.387, 986.7944
1200.869, 987.8467
1201.351, 988.1359
1201.833, 987.5569
1202.315, 985.5847
1202.797, 983.7631
1203.280, 985.3315
1203.762, 988.5164
1204.244, 990.2348
1204.726, 989.9740
1205.208, 989.3633
1205.690, 988.3260
1206.172, 987.7711
1206.654, 988.0522
1207.136, 988.8059
1207.619, 989.3329
1208.101, 989.8864
1208.583, 991.0533
1209.065, 993.0631
1209.547, 994.6345
1210.029, 995.9041
1210.511, 995.9345
1210.993, 993.6705
1211.476, 991.1119
1211.958, 992.4470
1212.440, 995.9378
1212.922, 998.4894
1213.404, 999.3843
1213.886, 999.9446
1214.368, 1000.224
1214.850, 1000.573
1215.333, 1001.271
1215.815, 1001.937
1216.297, 1001.744
1216.779, 1001.054
1217.261, 1000.528
1217.743, 1000.388
1218.225, 1000.090
1218.707, 999.5570
1219.189, 998.8792
1219.672, 997.6106
1220.154, 996.8392
1220.636, 999.8171
1221.118, 1004.340
1221.600, 1006.329
1222.082, 1003.806
1222.564, 1001.852
1223.046, 1000.907
1223.528, 999.8989
1224.011, 997.9158
1224.493, 995.9642
1224.975, 995.7475
1225.457, 996.8161
1225.939, 998.5847
1226.421, 1001.900
1226.903, 1002.739
1227.385, 1000.256
1227.868, 998.2336
1228.350, 999.1436
1228.832, 1001.312
1229.314, 1002.375
1229.796, 1002.791
1230.278, 1003.390
1230.760, 1003.561
1231.242, 1004.846
1231.724, 1003.404
1232.207, 1002.042
1232.689, 1001.548
1233.171, 1001.841
1233.653, 1003.277
1234.135, 1005.251
1234.617, 1006.778
1235.099, 1007.763
1235.581, 1008.212
1236.063, 1008.057
1236.546, 1007.927
1237.028, 1008.642
1237.510, 1009.139
1237.992, 1007.593
1238.474, 1005.331
1238.956, 1004.672
1239.438, 1006.071
1239.920, 1007.605
1240.403, 1009.302
1240.885, 1010.348
1241.367, 1009.439
1241.849, 1008.414
1242.331, 1008.965
1242.813, 1010.377
1243.295, 1011.612
1243.777, 1012.668
1244.260, 1013.269
1244.742, 1013.417
1245.224, 1013.456
1245.706, 1013.538
1246.188, 1013.664
1246.670, 1014.129
1247.152, 1014.467
1247.634, 1013.933
1248.116, 1012.406
1248.599, 1012.054
1249.081, 1012.814
1249.563, 1013.420
1250.045, 1012.332
1250.527, 1011.805
1251.009, 1013.795
1251.491, 1016.402
1251.973, 1017.578
1252.455, 1017.392
1252.938, 1017.797
1253.420, 1018.733
1253.902, 1019.637
1254.384, 1020.952
1254.866, 1021.166
1255.348, 1018.567
1255.830, 1015.842
1256.313, 1015.350
1256.795, 1016.880
1257.277, 1020.289
1257.759, 1024.800
1258.241, 1026.594
1258.723, 1020.097
1259.205, 1016.300
1259.687, 1018.507
1260.169, 1021.971
1260.651, 1022.285
1261.134, 1020.558
1261.616, 1020.149
1262.098, 1020.883
1262.580, 1022.020
1263.062, 1023.488
1263.544, 1025.052
1264.026, 1026.775
1264.508, 1028.384
1264.991, 1030.210
1265.473, 1031.460
1265.955, 1029.874
1266.437, 1026.495
1266.919, 1024.059
1267.401, 1023.153
1267.883, 1023.813
1268.365, 1026.452
1268.848, 1029.102
1269.330, 1030.258
1269.812, 1030.536
1270.294, 1030.747
1270.776, 1030.689
1271.258, 1029.725
1271.740, 1027.108
1272.222, 1026.037
1272.704, 1026.676
1273.187, 1027.642
1273.669, 1027.725
1274.151, 1027.943
1274.633, 1030.288
1275.115, 1032.798
1275.597, 1031.944
1276.079, 1026.709
1276.561, 1025.795
1277.043, 1029.109
1277.526, 1032.107
1278.008, 1031.381
1278.490, 1030.270
1278.972, 1030.616
1279.454, 1031.699
1279.936, 1033.198
1280.418, 1035.019
1280.900, 1033.895
1281.383, 1030.398
1281.865, 1028.238
1282.347, 1030.745
1282.829, 1032.684
1283.311, 1031.460
1283.793, 1030.056
1284.275, 1031.315
1284.757, 1034.175
1285.240, 1033.296
1285.722, 1030.068
1286.204, 1029.122
1286.686, 1034.725
1287.168, 1038.124
1287.650, 1037.738
1288.132, 1036.641
1288.614, 1037.046
1289.096, 1038.100
1289.578, 1037.945
1290.061, 1037.102
1290.543, 1036.604
1291.025, 1036.540
1291.507, 1037.385
1291.989, 1039.312
1292.471, 1041.302
1292.953, 1043.178
1293.435, 1044.272
1293.918, 1043.114
1294.400, 1040.968
1294.882, 1039.744
1295.364, 1039.642
1295.846, 1039.365
1296.328, 1038.932
1296.810, 1038.559
1297.292, 1038.048
1297.775, 1037.990
1298.257, 1039.705
1298.739, 1041.599
1299.221, 1042.123
1299.703, 1041.403
1300.185, 1040.730
1300.667, 1040.099
1301.149, 1039.249
1301.631, 1037.509
1302.114, 1036.663
1302.596, 1038.531
##END=



