##NAMES=Dolomite
##RRUFFID=R050272
##IDEAL CHEMISTRY=CaMg(CO_3_)_2_
##LOCALITY=Eagle mine, Gillman, Colorado, USA
##OWNER=RRUFF
##SOURCE=University of Arizona Mineral Museum
##DESCRIPTION=Gray-white rhombohedral crystals
##STATUS=The identification of this mineral has been confirmed by X-ray diffraction and chemical analysis
##URL=rruff.info/R050272
##MEASURED CHEMISTRY=(Ca_0.96_Fe^2+^_0.04_)_Σ=1_(Mg_0.63_Mn^2+^_0.21_Fe^2+^_0.16_)_Σ=1_(CO_3_)_2_ ; CO_3_ estimated by difference and stoichiometry
92.67285, 112.5789
93.15497, 113.2873
93.63708, 113.6394
94.11920, 115.4445
94.60132, 116.1222
95.08344, 114.2405
95.56555, 110.5741
96.04767, 107.4735
96.52979, 106.2531
97.01190, 105.5618
97.49402, 103.1493
97.97614, 98.49200
98.45825, 94.24982
98.94037, 90.60199
99.42249, 87.47141
99.90460, 84.96918
100.3867, 83.47100
100.8688, 82.79567
101.3510, 82.44820
101.8331, 82.60698
102.3152, 82.57806
102.7973, 81.59959
103.2794, 79.59103
103.7615, 77.98444
104.2437, 77.57180
104.7258, 77.78307
105.2079, 78.36774
105.6900, 79.41070
106.1721, 80.52318
106.6542, 80.78321
107.1364, 79.72606
107.6185, 78.46521
108.1006, 77.09207
108.5827, 75.76929
109.0648, 74.75375
109.5469, 74.27294
110.0291, 74.30257
110.5112, 73.83015
110.9933, 72.44540
111.4754, 70.96681
111.9575, 69.55578
112.4396, 68.25418
112.9218, 67.03932
113.4039, 65.86873
113.8860, 64.70207
114.3681, 63.94061
114.8502, 63.89230
115.3323, 64.00669
115.8144, 63.90745
116.2966, 63.51975
116.7787, 62.91041
117.2608, 61.99717
117.7429, 60.73093
118.2250, 59.88142
118.7071, 59.83144
119.1893, 60.31853
119.6714, 60.82842
120.1535, 61.34044
120.6356, 61.66364
121.1177, 61.52258
121.5998, 60.91056
122.0820, 60.37001
122.5641, 60.48759
123.0462, 61.31772
123.5283, 61.75393
124.0104, 60.87714
124.4925, 59.89736
124.9747, 59.58033
125.4568, 60.09525
125.9389, 60.97324
126.4210, 61.43604
126.9031, 61.13697
127.3852, 61.12501
127.8674, 61.54528
128.3495, 62.23879
128.8316, 63.15171
129.3137, 64.25569
129.7958, 65.43903
130.2780, 66.27759
130.7601, 66.30538
131.2422, 66.47598
131.7243, 67.07472
132.2064, 67.86609
132.6885, 68.42493
133.1707, 68.43919
133.6528, 68.00300
134.1349, 68.08054
134.6170, 69.03041
135.0991, 70.03221
135.5812, 70.70985
136.0633, 71.09030
136.5455, 71.39582
137.0276, 71.68373
137.5097, 72.03932
137.9918, 72.77697
138.4739, 74.21565
138.9560, 75.89003
139.4382, 77.30880
139.9203, 78.41820
140.4024, 79.40257
140.8845, 80.41497
141.3666, 81.40425
141.8487, 82.26957
142.3309, 82.76927
142.8130, 83.07646
143.2951, 83.80699
143.7772, 85.17139
144.2593, 86.70309
144.7414, 87.97777
145.2236, 89.18285
145.7057, 90.79297
146.1878, 93.33180
146.6699, 96.86930
147.1520, 100.0842
147.6341, 102.1765
148.1163, 104.6179
148.5984, 108.1302
149.0805, 112.5878
149.5626, 117.3506
150.0447, 121.6700
150.5268, 125.2773
151.0090, 129.3398
151.4911, 134.1513
151.9732, 139.0765
152.4553, 143.7592
152.9374, 148.0941
153.4195, 152.2238
153.9017, 156.2813
154.3838, 159.9810
154.8659, 164.2233
155.3480, 169.6949
155.8301, 175.4254
156.3122, 180.2439
156.7944, 183.7093
157.2765, 186.6600
157.7586, 190.6480
158.2407, 195.7778
158.7228, 201.1626
159.2049, 206.2023
159.6871, 211.3063
160.1692, 217.6362
160.6513, 226.1311
161.1334, 235.2251
161.6155, 242.3046
162.0976, 246.9897
162.5798, 251.8462
163.0619, 258.3508
163.5440, 266.4491
164.0261, 275.5667
164.5082, 285.9593
164.9903, 297.0665
165.4725, 308.4947
165.9546, 320.1348
166.4367, 332.0410
166.9188, 344.1070
167.4009, 356.3840
167.8830, 368.8144
168.3652, 381.5450
168.8473, 394.3758
169.3294, 407.8135
169.8115, 422.0609
170.2936, 435.6170
170.7757, 445.8732
171.2579, 453.2157
171.7400, 455.7481
172.2221, 453.8179
172.7042, 447.7429
173.1863, 437.4312
173.6684, 422.8469
174.1506, 404.7061
174.6327, 385.2176
175.1148, 363.0654
175.5969, 340.7419
176.0790, 317.7213
176.5611, 294.8448
177.0433, 272.7122
177.5254, 251.5832
178.0075, 231.7567
178.4896, 214.9508
178.9717, 202.6416
179.4538, 191.2911
179.9360, 180.1063
180.4181, 169.3302
180.9002, 159.6128
181.3823, 151.4574
181.8644, 144.6603
182.3465, 138.1407
182.8287, 131.3320
183.3108, 125.2833
183.7929, 120.8343
184.2750, 117.7566
184.7571, 114.8057
185.2392, 111.2393
185.7214, 107.2946
186.2035, 103.6816
186.6856, 100.3455
187.1677, 97.42101
187.6498, 95.17076
188.1319, 93.61352
188.6141, 92.17747
189.0962, 90.67513
189.5783, 89.05421
190.0604, 87.16023
190.5425, 84.71085
191.0246, 82.25071
191.5068, 80.65907
191.9889, 80.23505
192.4710, 79.67764
192.9531, 78.03291
193.4352, 76.07506
193.9173, 74.68284
194.3995, 74.33160
194.8816, 74.55159
195.3637, 74.21387
195.8458, 72.94413
196.3279, 71.79523
196.8100, 71.29237
197.2922, 70.99107
197.7743, 70.28853
198.2564, 68.79180
198.7385, 66.84026
199.2206, 65.78172
199.7027, 66.61916
200.1849, 67.09102
200.6670, 66.51971
201.1491, 65.40652
201.6312, 64.44064
202.1133, 64.04521
202.5954, 64.08218
203.0776, 63.72359
203.5597, 62.30942
204.0418, 61.18266
204.5239, 60.65442
205.0060, 60.54178
205.4881, 60.59317
205.9703, 60.67604
206.4524, 60.75911
206.9345, 60.54894
207.4166, 59.48004
207.8987, 58.75786
208.3808, 58.94807
208.8630, 59.73945
209.3451, 60.49979
209.8272, 60.87717
210.3093, 60.86474
210.7914, 60.43362
211.2735, 58.91246
211.7557, 57.73791
212.2378, 57.73089
212.7199, 58.60503
213.2020, 59.43575
213.6841, 59.69659
214.1662, 59.45216
214.6484, 59.15448
215.1305, 58.60928
215.6126, 58.19735
216.0947, 58.23677
216.5768, 58.66032
217.0589, 59.03078
217.5410, 59.08971
218.0232, 58.92695
218.5053, 58.81183
218.9874, 58.66664
219.4695, 58.66932
219.9516, 59.05784
220.4337, 59.82366
220.9159, 60.55051
221.3980, 61.25640
221.8801, 61.66909
222.3622, 61.30654
222.8443, 59.75901
223.3264, 58.06229
223.8086, 57.43292
224.2907, 57.99001
224.7728, 58.43380
225.2549, 58.12356
225.7370, 57.48143
226.2191, 56.77654
226.7013, 56.00393
227.1834, 55.41836
227.6655, 55.43988
228.1476, 56.22002
228.6297, 56.96087
229.1118, 57.48922
229.5940, 57.84074
230.0761, 57.95844
230.5582, 57.81123
231.0403, 57.62130
231.5224, 57.73840
232.0045, 58.25765
232.4867, 58.80909
232.9688, 59.42734
233.4509, 59.99389
233.9330, 60.36431
234.4151, 60.50880
234.8972, 60.61329
235.3794, 61.05695
235.8615, 62.20971
236.3436, 62.82418
236.8257, 61.93447
237.3078, 61.09556
237.7899, 61.73891
238.2721, 64.11379
238.7542, 66.99983
239.2363, 68.26574
239.7184, 66.60820
240.2005, 65.89877
240.6826, 66.71217
241.1648, 68.00877
241.6469, 69.09109
242.1290, 69.78122
242.6111, 70.31322
243.0932, 71.05921
243.5753, 72.31415
244.0575, 73.15892
244.5396, 73.05669
245.0217, 72.95525
245.5038, 73.60103
245.9859, 75.10419
246.4680, 76.98214
246.9502, 78.61345
247.4323, 79.91125
247.9144, 81.11791
248.3965, 82.19334
248.8786, 83.21349
249.3607, 84.12489
249.8429, 84.96391
250.3250, 85.97321
250.8071, 87.46111
251.2892, 89.57280
251.7713, 91.69866
252.2534, 93.71564
252.7356, 95.81113
253.2177, 98.24357
253.6998, 100.9859
254.1819, 103.6497
254.6640, 105.8067
255.1461, 107.3339
255.6283, 109.0527
256.1104, 111.1360
256.5925, 113.2722
257.0746, 114.9604
257.5567, 116.2601
258.0388, 118.1285
258.5210, 121.5703
259.0031, 126.6499
259.4852, 131.1203
259.9673, 134.7268
260.4494, 137.9374
260.9315, 140.9257
261.4137, 143.7486
261.8958, 146.7060
262.3779, 149.8518
262.8600, 153.3869
263.3421, 157.8257
263.8242, 163.8267
264.3064, 170.2158
264.7885, 175.8666
265.2706, 180.8847
265.7527, 186.5917
266.2348, 194.0412
266.7169, 202.6474
267.1991, 210.5691
267.6812, 217.0710
268.1633, 223.6679
268.6454, 231.2179
269.1275, 239.7207
269.6096, 249.4000
270.0918, 260.8904
270.5739, 273.3335
271.0560, 285.1787
271.5381, 296.4114
272.0202, 307.0866
272.5023, 316.6111
272.9845, 325.2521
273.4666, 335.0070
273.9487, 347.0741
274.4308, 360.2710
274.9129, 373.0411
275.3951, 385.2860
275.8772, 397.2746
276.3593, 408.8438
276.8414, 420.1458
277.3235, 432.2108
277.8056, 445.4258
278.2878, 459.3335
278.7699, 473.3520
279.2520, 487.5821
279.7341, 501.7244
280.2162, 515.5970
280.6983, 529.2764
281.1805, 542.8499
281.6626, 556.3173
282.1447, 569.6664
282.6268, 582.4457
283.1089, 594.9108
283.5910, 608.1978
284.0732, 623.8123
284.5553, 640.8795
285.0374, 656.2592
285.5195, 669.2978
286.0016, 681.3215
286.4837, 692.9127
286.9659, 704.2194
287.4480, 715.5571
287.9301, 727.1168
288.4122, 738.8322
288.8943, 750.8677
289.3764, 764.4923
289.8586, 775.5934
290.3407, 781.8488
290.8228, 784.8766
291.3049, 786.8382
291.7870, 788.8591
292.2691, 789.9066
292.7513, 788.1974
293.2334, 783.8447
293.7155, 776.2060
294.1976, 765.1476
294.6797, 750.8989
295.1618, 732.7273
295.6440, 710.1682
296.1261, 685.2372
296.6082, 660.8452
297.0903, 637.2914
297.5724, 612.9141
298.0545, 586.3343
298.5367, 559.0978
299.0188, 531.8473
299.5009, 504.6943
299.9830, 478.2777
300.4651, 453.3339
300.9472, 429.8708
301.4294, 406.6901
301.9115, 382.5793
302.3936, 359.5345
302.8757, 338.6124
303.3578, 319.7737
303.8399, 302.3857
304.3221, 285.8631
304.8042, 270.2405
305.2863, 255.4919
305.7684, 241.2646
306.2505, 228.3840
306.7326, 217.5707
307.2148, 208.4217
307.6969, 199.9127
308.1790, 191.4276
308.6611, 183.0137
309.1432, 174.7731
309.6253, 166.2979
310.1075, 158.7171
310.5896, 152.7453
311.0717, 147.7740
311.5538, 142.8332
312.0359, 137.3333
312.5180, 131.7299
313.0002, 127.3067
313.4823, 124.7050
313.9644, 121.9913
314.4465, 118.2071
314.9286, 114.2170
315.4107, 110.9924
315.8929, 108.8990
316.3750, 107.1941
316.8571, 104.5603
317.3392, 100.5586
317.8213, 97.00684
318.3034, 94.09596
318.7856, 91.84178
319.2677, 90.56952
319.7498, 90.23818
320.2319, 90.06604
320.7140, 89.12256
321.1961, 87.29257
321.6783, 85.62624
322.1604, 84.17316
322.6425, 82.95770
323.1246, 82.12901
323.6067, 81.60223
324.0888, 81.05718
324.5710, 80.11649
325.0531, 78.83791
325.5352, 78.10165
326.0173, 78.61382
326.4994, 78.76483
326.9815, 77.39620
327.4637, 75.29222
327.9458, 73.91124
328.4279, 74.23530
328.9100, 75.70427
329.3921, 76.69981
329.8742, 77.39002
330.3564, 77.18956
330.8385, 75.04005
331.3206, 72.38347
331.8027, 70.84138
332.2848, 71.06438
332.7669, 72.12673
333.2491, 72.60591
333.7312, 72.36114
334.2133, 72.09068
334.6954, 71.89248
335.1775, 71.77087
335.6596, 71.70307
336.1418, 71.69319
336.6239, 71.83722
337.1060, 72.54243
337.5881, 73.85417
338.0702, 74.10213
338.5523, 72.32363
339.0345, 70.17796
339.5165, 68.63358
339.9987, 67.57438
340.4808, 66.44864
340.9629, 64.76219
341.4450, 62.65604
341.9271, 60.93094
342.4092, 59.73064
342.8914, 58.67981
343.3735, 57.65536
343.8556, 56.62540
344.3377, 55.54402
344.8198, 54.38357
345.3019, 53.17094
345.7841, 51.91071
346.2662, 50.55334
346.7483, 49.35049
347.2304, 48.74565
347.7125, 48.18613
348.1946, 46.97771
348.6768, 44.84489
349.1589, 42.89989
349.6410, 42.70052
350.1231, 44.22440
350.6052, 44.73151
351.0873, 42.90903
351.5695, 40.52970
352.0516, 38.94595
352.5337, 38.18356
353.0158, 37.97033
353.4979, 38.55215
353.9800, 39.60343
354.4622, 39.92210
354.9443, 39.14223
355.4264, 38.17741
355.9085, 37.62236
356.3906, 37.37890
356.8727, 37.26754
357.3549, 37.43004
357.8370, 37.57339
358.3191, 37.20512
358.8012, 36.26980
359.2833, 35.28884
359.7654, 34.43216
360.2476, 33.74659
360.7297, 33.31848
361.2118, 33.21307
361.6939, 33.24915
362.1760, 33.42831
362.6581, 33.68716
363.1403, 33.63321
363.6224, 33.02921
364.1045, 32.20927
364.5866, 31.57244
365.0687, 31.11132
365.5508, 30.81636
366.0330, 30.72372
366.5151, 30.78675
366.9972, 30.99835
367.4793, 31.40445
367.9614, 31.69785
368.4435, 31.54387
368.9257, 31.00060
369.4078, 30.41121
369.8899, 29.59878
370.3720, 28.92333
370.8541, 28.82797
371.3362, 29.25039
371.8184, 29.56617
372.3005, 29.34811
372.7826, 28.80802
373.2647, 28.68105
373.7468, 29.27729
374.2289, 29.76016
374.7111, 29.77132
375.1932, 29.44355
375.6753, 28.96837
376.1574, 28.37669
376.6395, 27.83419
377.1216, 27.63861
377.6038, 27.87955
378.0859, 28.11681
378.5680, 28.48651
379.0501, 28.72331
379.5322, 28.45538
380.0143, 27.69932
380.4965, 26.93848
380.9786, 26.59549
381.4607, 26.68604
381.9428, 26.80208
382.4249, 27.10376
382.9070, 27.26509
383.3892, 26.98312
383.8713, 26.46519
384.3534, 26.19626
384.8355, 26.45301
385.3176, 27.00811
385.7997, 27.18765
386.2819, 26.35947
386.7640, 25.94528
387.2461, 26.40443
387.7282, 27.06823
388.2103, 27.26101
388.6924, 26.85637
389.1746, 26.26743
389.6567, 26.01318
390.1388, 26.20947
390.6209, 26.28234
391.1030, 26.14724
391.5851, 25.99126
392.0673, 25.92474
392.5494, 25.90797
393.0315, 25.81303
393.5136, 25.53611
393.9957, 25.12764
394.4778, 24.89657
394.9600, 25.04029
395.4421, 25.09869
395.9242, 24.85351
396.4063, 24.56605
396.8884, 24.57045
397.3705, 24.95915
397.8527, 25.43449
398.3348, 25.52002
398.8169, 25.10323
399.2990, 24.69436
399.7811, 24.09822
400.2632, 23.70848
400.7454, 23.91225
401.2275, 24.55314
401.7096, 25.06956
402.1917, 24.96267
402.6738, 24.35658
403.1559, 23.99907
403.6381, 24.02039
404.1202, 24.07293
404.6023, 24.02637
405.0844, 23.92796
405.5665, 23.81150
406.0486, 23.66629
406.5308, 23.58693
407.0129, 23.79074
407.4950, 24.31504
407.9771, 24.58271
408.4592, 24.23632
408.9413, 23.76937
409.4235, 23.62052
409.9056, 23.78651
410.3877, 23.99218
410.8698, 24.09063
411.3519, 24.11145
411.8340, 24.14273
412.3162, 24.20848
412.7983, 24.22150
413.2804, 24.04108
413.7625, 23.76425
414.2446, 23.63136
414.7267, 23.91456
415.2089, 24.10686
415.6910, 23.48346
416.1731, 22.26917
416.6552, 21.80101
417.1373, 22.91402
417.6194, 24.60817
418.1016, 24.87468
418.5837, 23.43951
419.0658, 22.27037
419.5479, 22.09904
420.0300, 22.38409
420.5121, 22.44294
420.9943, 22.17755
421.4764, 21.91932
421.9585, 21.93892
422.4406, 22.25330
422.9227, 22.82182
423.4048, 24.34032
423.8870, 25.37738
424.3691, 24.91257
424.8512, 23.51865
425.3333, 22.36360
425.8154, 21.98843
426.2975, 22.17541
426.7797, 22.45070
427.2618, 23.26884
427.7439, 23.43454
428.2260, 22.28494
428.7081, 20.97658
429.1902, 20.42049
429.6724, 20.66112
430.1545, 21.11842
430.6366, 21.24055
431.1187, 21.01655
431.6008, 20.94412
432.0829, 20.90070
432.5651, 21.16724
433.0472, 22.20963
433.5293, 23.47552
434.0114, 24.22136
434.4935, 24.11840
434.9756, 23.47580
435.4578, 22.83418
435.9399, 22.21531
436.4220, 21.53190
436.9041, 20.19242
437.3862, 19.24774
437.8683, 19.68856
438.3505, 21.25948
438.8326, 22.59274
439.3147, 22.50906
439.7968, 21.34361
440.2789, 20.47481
440.7610, 19.85520
441.2432, 19.66197
441.7253, 20.34938
442.2074, 21.37740
442.6895, 22.08100
443.1716, 22.23686
443.6537, 22.23264
444.1359, 22.49461
444.6180, 22.95143
445.1001, 23.10669
445.5822, 22.72052
446.0643, 22.18975
446.5464, 22.02139
447.0286, 22.16979
447.5107, 22.19318
447.9928, 21.80325
448.4749, 21.33527
448.9570, 21.13970
449.4391, 21.22255
449.9213, 21.45716
450.4034, 21.83448
450.8855, 22.26935
451.3676, 22.42692
451.8497, 22.22394
452.3318, 21.92721
452.8140, 21.50104
453.2961, 21.06078
453.7782, 20.74411
454.2603, 20.58637
454.7424, 20.57764
455.2245, 20.74156
455.7067, 21.15152
456.1888, 21.28728
456.6709, 20.72767
457.1530, 20.37599
457.6351, 20.84076
458.1172, 21.74894
458.5994, 22.36303
459.0815, 22.29041
459.5636, 21.79451
460.0457, 21.56160
460.5278, 21.81988
461.0099, 21.87340
461.4921, 21.48788
461.9742, 21.05562
462.4563, 20.87001
462.9384, 20.91159
463.4205, 20.91958
463.9026, 20.57771
464.3848, 19.99072
464.8669, 19.94255
465.3490, 20.74661
465.8311, 21.49723
466.3132, 21.84787
466.7953, 21.95076
467.2775, 21.95994
467.7596, 21.91169
468.2417, 21.78868
468.7238, 21.54025
469.2059, 21.18350
469.6880, 20.81705
470.1702, 20.34650
470.6523, 20.08040
471.1344, 20.55477
471.6165, 21.56261
472.0986, 22.21263
472.5807, 22.15551
473.0629, 21.73972
473.5450, 21.05774
474.0271, 20.21776
474.5092, 19.84480
474.9913, 20.36986
475.4734, 21.33966
475.9556, 21.64547
476.4377, 20.98334
476.9198, 20.53382
477.4019, 20.70027
477.8840, 21.01728
478.3661, 20.97077
478.8483, 20.56276
479.3304, 20.24780
479.8125, 20.44646
480.2946, 21.10849
480.7767, 21.36480
481.2589, 20.81901
481.7410, 20.33315
482.2231, 19.79698
482.7052, 19.50530
483.1873, 19.97784
483.6694, 21.28437
484.1516, 22.68521
484.6337, 23.17587
485.1158, 22.61631
485.5979, 21.97508
486.0800, 21.03023
486.5621, 20.25183
487.0443, 19.81810
487.5264, 19.67342
488.0085, 19.72653
488.4906, 19.96394
488.9727, 20.31187
489.4548, 20.73357
489.9370, 21.24767
490.4191, 21.50460
490.9012, 21.31568
491.3833, 20.91852
491.8654, 20.40104
492.3475, 19.80301
492.8297, 19.62981
493.3118, 20.51558
493.7939, 21.72298
494.2760, 22.25649
494.7581, 22.09647
495.2402, 21.74837
495.7224, 21.42596
496.2045, 21.15658
496.6866, 21.01933
497.1687, 20.99955
497.6508, 21.10743
498.1329, 21.60454
498.6151, 22.09157
499.0972, 22.06258
499.5793, 21.48082
500.0614, 20.70876
500.5435, 20.02235
501.0256, 19.42238
501.5078, 19.34253
501.9899, 20.39426
502.4720, 21.24123
502.9541, 21.63063
503.4362, 21.68306
503.9183, 21.41152
504.4004, 20.86693
504.8825, 20.39291
505.3647, 20.56960
505.8468, 21.54417
506.3289, 22.01789
506.8110, 21.62605
507.2931, 21.13904
507.7752, 20.87307
508.2574, 20.74600
508.7395, 20.58022
509.2216, 20.25106
509.7037, 19.99733
510.1858, 20.20038
510.6679, 20.83176
511.1501, 21.39962
511.6322, 21.87327
512.1143, 22.10404
512.5964, 21.73863
513.0786, 20.87989
513.5607, 20.33636
514.0428, 20.54550
514.5249, 20.98341
515.0070, 21.23082
515.4891, 21.29594
515.9713, 21.27496
516.4534, 21.19782
516.9355, 21.10385
517.4176, 21.10167
517.8997, 21.41940
518.3818, 21.34216
518.8640, 20.27193
519.3461, 19.26033
519.8282, 19.22822
520.3103, 19.99781
520.7924, 20.70201
521.2745, 20.71984
521.7567, 20.25876
522.2388, 20.23302
522.7209, 21.07621
523.2030, 21.55062
523.6851, 21.22156
524.1672, 20.71226
524.6494, 20.42392
525.1315, 20.41359
525.6136, 20.57914
526.0957, 20.94339
526.5778, 21.41653
527.0599, 21.68273
527.5421, 21.73256
528.0242, 21.58819
528.5063, 20.98207
528.9884, 20.32942
529.4705, 20.24727
529.9526, 20.90691
530.4348, 21.55059
530.9169, 21.84756
531.3990, 21.84780
531.8811, 21.54925
532.3632, 20.95525
532.8453, 20.34267
533.3275, 19.86917
533.8096, 19.55874
534.2917, 19.62292
534.7738, 20.43615
535.2559, 21.08700
535.7380, 21.34482
536.2202, 21.35012
536.7023, 21.11855
537.1844, 20.72935
537.6665, 20.53447
538.1486, 20.98293
538.6307, 22.08295
539.1129, 22.72443
539.5950, 22.65306
540.0771, 22.41960
540.5592, 22.03442
541.0413, 21.62366
541.5234, 21.28161
542.0056, 21.03825
542.4877, 20.97186
542.9698, 21.35009
543.4519, 22.06365
543.9340, 22.20608
544.4161, 21.44566
544.8983, 20.76211
545.3804, 20.96439
545.8625, 21.66457
546.3446, 22.16468
546.8267, 22.41131
547.3088, 22.36631
547.7910, 21.74590
548.2731, 20.87099
548.7552, 20.32604
549.2373, 20.24110
549.7194, 20.57331
550.2015, 21.40787
550.6837, 22.76944
551.1658, 23.47955
551.6479, 23.18375
552.1300, 22.77190
552.6121, 22.45811
553.0942, 22.17693
553.5764, 21.77144
554.0585, 21.22370
554.5406, 20.74319
555.0227, 20.56191
555.5048, 20.68121
555.9869, 21.11600
556.4691, 22.34237
556.9512, 23.20406
557.4333, 23.10221
557.9154, 22.52568
558.3975, 22.04299
558.8796, 21.79459
559.3618, 21.76768
559.8439, 22.13092
560.3260, 22.73159
560.8081, 22.93808
561.2902, 22.59081
561.7723, 22.18174
562.2545, 22.17092
562.7366, 22.41052
563.2187, 22.21036
563.7008, 21.00220
564.1829, 20.07553
564.6650, 20.13057
565.1472, 20.67584
565.6293, 21.05974
566.1114, 21.14081
566.5935, 21.15217
567.0756, 21.35889
567.5577, 21.75850
568.0399, 21.75676
568.5220, 20.67734
569.0041, 20.01398
569.4862, 20.40296
569.9683, 21.09360
570.4504, 21.22825
570.9326, 20.68309
571.4147, 20.13043
571.8968, 20.39251
572.3789, 21.28777
572.8610, 21.54036
573.3431, 20.89076
573.8253, 20.35342
574.3074, 20.68383
574.7895, 21.30734
575.2716, 21.35083
575.7537, 20.60856
576.2358, 19.90165
576.7180, 19.57581
577.2001, 19.54468
577.6822, 19.77944
578.1643, 20.24288
578.6464, 20.66745
579.1285, 20.86054
579.6107, 20.87812
580.0928, 20.96274
580.5749, 21.40584
581.0570, 21.51828
581.5391, 20.90001
582.0212, 20.22298
582.5034, 20.01744
582.9855, 20.27811
583.4676, 20.74162
583.9497, 21.30939
584.4318, 21.82158
584.9139, 21.63585
585.3961, 20.48047
585.8782, 19.55346
586.3602, 19.14204
586.8423, 19.09655
587.3245, 19.49535
587.8066, 20.25253
588.2887, 20.73280
588.7708, 20.42348
589.2529, 19.85191
589.7350, 19.63604
590.2172, 19.73189
590.6993, 19.83002
591.1814, 19.80627
591.6635, 19.73044
592.1456, 19.70029
592.6277, 19.69287
593.1099, 19.83650
593.5920, 20.41968
594.0741, 20.86230
594.5562, 20.74062
595.0383, 20.29305
595.5204, 19.97303
596.0026, 19.97467
596.4847, 20.13811
596.9668, 20.27595
597.4489, 20.42352
597.9310, 20.24970
598.4131, 19.40006
598.8953, 18.69494
599.3774, 18.55835
599.8595, 18.81054
600.3416, 19.22154
600.8237, 19.86254
601.3058, 20.26029
601.7880, 19.75991
602.2701, 18.76920
602.7522, 18.35473
603.2343, 18.71365
603.7164, 19.24025
604.1985, 19.47654
604.6807, 19.45440
605.1628, 19.43187
605.6449, 19.32870
606.1270, 19.32972
606.6091, 19.63145
607.0912, 19.94217
607.5734, 19.95343
608.0555, 19.66785
608.5376, 19.31451
609.0197, 19.06595
609.5018, 18.90814
609.9839, 18.79986
610.4661, 18.78371
610.9482, 18.68875
611.4303, 18.27884
611.9124, 17.93113
612.3945, 18.07235
612.8766, 18.63069
613.3588, 18.94922
613.8409, 18.39172
614.3230, 17.70490
614.8051, 17.91025
615.2872, 18.78209
615.7693, 19.19339
616.2515, 18.65357
616.7336, 17.87354
617.2157, 17.94437
617.6978, 19.21101
618.1799, 19.68444
618.6620, 18.62115
619.1442, 17.66981
619.6263, 17.49199
620.1084, 17.80554
620.5905, 18.25026
621.0726, 18.68733
621.5547, 19.00487
622.0369, 19.08258
622.5190, 18.92237
623.0011, 18.46634
623.4832, 17.45141
623.9653, 16.74718
624.4474, 16.98413
624.9296, 17.70206
625.4117, 18.37664
625.8938, 19.01203
626.3759, 19.36404
626.8580, 19.14261
627.3401, 18.68850
627.8223, 18.29356
628.3044, 18.03347
628.7865, 18.19254
629.2686, 19.01562
629.7507, 20.07430
630.2328, 20.20880
630.7150, 18.55961
631.1971, 17.68543
631.6792, 18.07905
632.1613, 18.65967
632.6434, 18.98551
633.1255, 19.07014
633.6077, 19.01109
634.0898, 18.82425
634.5719, 18.65295
635.0540, 18.73973
635.5361, 19.04656
636.0182, 19.22380
636.5004, 19.20934
636.9825, 19.10188
637.4646, 18.94303
637.9467, 18.74673
638.4288, 18.58025
638.9109, 18.50457
639.3931, 18.36281
639.8752, 18.07083
640.3573, 17.70847
640.8394, 17.29860
641.3215, 16.88721
641.8036, 16.61741
642.2858, 16.59489
642.7679, 16.78209
643.2500, 17.06691
643.7321, 17.49768
644.2142, 17.90111
644.6964, 18.37579
645.1785, 18.70178
645.6606, 18.56507
646.1427, 18.15961
646.6248, 18.10255
647.1069, 18.87892
647.5891, 19.72083
648.0712, 19.79276
648.5533, 19.31474
649.0354, 18.94934
649.5175, 18.83956
649.9996, 18.95198
650.4818, 19.33319
650.9639, 19.94909
651.4460, 20.16944
651.9281, 19.69647
652.4102, 19.23987
652.8923, 18.72289
653.3745, 18.38808
653.8566, 18.55872
654.3387, 19.16206
654.8208, 19.78979
655.3029, 20.20315
655.7850, 20.38209
656.2672, 20.22068
656.7493, 19.69065
657.2314, 19.11383
657.7135, 18.40434
658.1956, 17.91143
658.6777, 18.18806
659.1599, 19.07788
659.6420, 19.73733
660.1241, 20.00068
660.6062, 20.06003
661.0883, 19.95076
661.5704, 19.71852
662.0526, 19.34755
662.5347, 18.87506
663.0168, 18.54563
663.4989, 18.61911
663.9810, 19.02983
664.4631, 19.24768
664.9453, 19.15958
665.4274, 19.11806
665.9095, 19.11340
666.3916, 19.24984
666.8737, 19.74862
667.3558, 20.51575
667.8380, 21.04805
668.3201, 20.97747
668.8022, 20.71302
669.2843, 20.71894
669.7664, 20.87587
670.2485, 20.72939
670.7307, 20.14023
671.2128, 19.59508
671.6949, 19.65257
672.1770, 20.30807
672.6591, 20.63923
673.1412, 20.08850
673.6234, 19.91803
674.1055, 20.68323
674.5876, 21.62308
675.0697, 22.03181
675.5518, 21.91360
676.0339, 21.79905
676.5161, 22.08859
676.9982, 22.54098
677.4803, 22.66473
677.9624, 22.48220
678.4445, 22.46197
678.9266, 22.78158
679.4088, 23.16288
679.8909, 23.31056
680.3730, 23.22269
680.8551, 23.19522
681.3372, 23.20692
681.8193, 23.30276
682.3015, 23.53131
682.7836, 23.82973
683.2657, 24.11494
683.7478, 24.39076
684.2299, 24.73538
684.7120, 25.22413
685.1942, 25.81143
685.6763, 26.40704
686.1584, 27.04380
686.6405, 27.47098
687.1226, 27.60000
687.6047, 27.54124
688.0869, 27.21835
688.5690, 26.74799
689.0511, 26.65370
689.5332, 27.06412
690.0153, 27.81127
690.4974, 29.20677
690.9796, 30.70159
691.4617, 31.44769
691.9438, 31.41587
692.4259, 31.34225
692.9080, 31.79830
693.3901, 32.67098
693.8723, 33.53023
694.3544, 34.35484
694.8365, 35.24688
695.3186, 36.10700
695.8007, 37.17266
696.2828, 38.66481
696.7650, 40.47788
697.2471, 42.29827
697.7292, 44.04813
698.2113, 45.79562
698.6934, 47.52867
699.1755, 49.31469
699.6577, 51.20098
700.1398, 53.21846
700.6219, 55.46280
701.1040, 57.97584
701.5861, 60.82218
702.0682, 64.35342
702.5504, 69.16049
703.0325, 73.29638
703.5146, 75.57110
703.9967, 78.20404
704.4788, 82.21354
704.9609, 87.34471
705.4431, 93.18962
705.9252, 99.90218
706.4073, 106.2187
706.8894, 110.6883
707.3715, 114.2892
707.8536, 118.7882
708.3358, 124.3919
708.8179, 131.0555
709.3000, 138.8764
709.7821, 147.3667
710.2642, 155.2491
710.7463, 161.9606
711.2285, 169.3213
711.7106, 178.4132
712.1927, 186.9843
712.6748, 193.1332
713.1569, 198.4698
713.6390, 205.4989
714.1212, 214.9543
714.6033, 225.2576
715.0854, 235.6108
715.5675, 245.7908
716.0496, 254.9030
716.5317, 263.0702
717.0139, 272.3167
717.4960, 283.9950
717.9781, 295.9413
718.4602, 304.4514
718.9423, 308.5452
719.4244, 313.0322
719.9066, 319.8979
720.3887, 324.7844
720.8708, 326.5236
721.3529, 325.4695
721.8350, 322.2408
722.3171, 316.8894
722.7993, 308.7038
723.2814, 295.8256
723.7635, 280.3513
724.2456, 266.1684
724.7277, 253.0420
725.2098, 239.5915
725.6920, 225.3306
726.1741, 210.5799
726.6562, 195.4610
727.1383, 179.9218
727.6204, 165.3047
728.1025, 151.3846
728.5847, 138.7069
729.0668, 127.6289
729.5489, 117.6826
730.0310, 108.7347
730.5131, 100.6635
730.9952, 93.23082
731.4774, 86.27990
731.9595, 79.86643
732.4416, 74.12756
732.9237, 69.02980
733.4058, 64.45911
733.8879, 60.41050
734.3701, 56.69511
734.8522, 53.11887
735.3343, 49.76108
735.8164, 47.03983
736.2985, 45.64515
736.7806, 43.90767
737.2628, 41.27353
737.7449, 38.76514
738.2270, 37.11965
738.7091, 36.07570
739.1912, 35.02036
739.6733, 33.70831
740.1555, 32.31182
740.6376, 30.97774
741.1197, 29.69203
741.6018, 28.30652
742.0839, 26.82766
742.5660, 25.88773
743.0482, 25.95068
743.5303, 26.46576
744.0124, 26.29999
744.4945, 25.14116
744.9766, 24.29919
745.4587, 24.23817
745.9409, 23.93657
746.4230, 22.79090
746.9051, 21.35605
747.3872, 20.23362
747.8693, 19.55806
748.3514, 19.23182
748.8336, 19.38633
749.3157, 19.73042
749.7978, 19.86254
750.2799, 19.78948
750.7620, 19.54085
751.2441, 19.11827
751.7263, 18.59564
752.2084, 17.99198
752.6905, 17.32213
753.1726, 17.14494
753.6547, 17.87781
754.1368, 18.47399
754.6190, 18.93164
755.1011, 19.10490
755.5832, 18.74656
756.0653, 17.99887
756.5474, 17.31265
757.0295, 16.83584
757.5117, 16.52742
757.9938, 16.38374
758.4759, 16.37308
758.9580, 16.51430
759.4401, 16.77146
759.9222, 16.87392
760.4044, 16.63791
760.8865, 16.16996
761.3686, 15.69187
761.8507, 15.07207
762.3328, 14.85222
762.8149, 15.37337
763.2971, 15.88106
763.7792, 16.04584
764.2613, 16.03496
764.7434, 16.11700
765.2255, 16.35164
765.7076, 16.39774
766.1898, 15.86103
766.6719, 15.25713
767.1540, 15.15693
767.6361, 15.39187
768.1182, 15.47718
768.6003, 15.26433
769.0825, 14.94753
769.5646, 14.68666
770.0467, 14.51728
770.5288, 14.87946
771.0109, 16.09713
771.4930, 16.82236
771.9752, 16.60343
772.4573, 15.91513
772.9394, 14.93045
773.4215, 13.78914
773.9036, 13.08673
774.3857, 13.06118
774.8679, 13.27143
775.3500, 13.77389
775.8321, 14.27010
776.3142, 14.45198
776.7963, 14.32657
777.2784, 13.98837
777.7606, 13.46612
778.2427, 13.00468
778.7248, 13.13896
779.2069, 13.81032
779.6890, 14.03320
780.1711, 13.65791
780.6533, 13.20410
781.1354, 12.82117
781.6175, 12.60606
782.0996, 12.77619
782.5817, 13.42249
783.0638, 14.01150
783.5460, 14.89401
784.0281, 15.28206
784.5102, 14.30852
784.9923, 12.98165
785.4744, 12.57036
785.9565, 13.18916
786.4387, 13.97314
786.9208, 14.38322
787.4029, 14.54157
787.8850, 14.46302
788.3671, 14.26092
788.8492, 14.70928
789.3314, 16.02991
789.8135, 17.06210
790.2956, 16.80561
790.7777, 15.59751
791.2598, 14.82860
791.7419, 14.71861
792.2241, 14.64392
792.7062, 14.45441
793.1883, 14.44223
793.6704, 15.00525
794.1525, 15.73804
794.6346, 15.91934
795.1168, 15.34911
795.5989, 14.78254
796.0810, 14.90154
796.5631, 15.07806
797.0452, 14.30213
797.5273, 12.97016
798.0095, 12.38930
798.4916, 12.95600
798.9737, 13.84094
799.4558, 14.14067
799.9379, 13.94434
800.4200, 13.91934
800.9022, 14.10722
801.3843, 14.33279
801.8664, 14.66548
802.3485, 14.89334
802.8306, 14.77492
803.3127, 14.40468
803.7949, 14.05821
804.2770, 13.69897
804.7591, 13.47288
805.2412, 13.45516
805.7233, 13.56111
806.2054, 13.80335
806.6876, 14.09784
807.1697, 14.29353
807.6518, 14.32930
808.1339, 14.25551
808.6160, 13.98798
809.0981, 13.66506
809.5803, 13.90815
810.0624, 14.72559
810.5445, 15.18530
811.0266, 14.87134
811.5087, 14.35919
811.9908, 14.36907
812.4730, 14.90841
812.9551, 15.12766
813.4372, 14.75679
813.9193, 14.44029
814.4014, 14.14426
814.8835, 14.01508
815.3657, 14.29335
815.8478, 14.81726
816.3299, 15.13389
816.8120, 15.04614
817.2941, 14.88684
817.7762, 14.96092
818.2584, 15.05472
818.7405, 14.78849
819.2226, 14.25091
819.7047, 13.85290
820.1868, 13.77204
820.6689, 13.88264
821.1511, 14.05291
821.6332, 14.27314
822.1153, 14.32109
822.5974, 14.12527
823.0795, 14.04128
823.5616, 14.27713
824.0438, 14.53389
824.5259, 14.44736
825.0080, 14.06205
825.4901, 13.83984
825.9722, 13.92417
826.4543, 13.99841
826.9365, 13.96360
827.4186, 13.92155
827.9007, 13.93550
828.3828, 14.01270
828.8649, 14.16891
829.3470, 14.41889
829.8292, 14.64350
830.3113, 14.77662
830.7934, 14.78164
831.2755, 14.46551
831.7576, 13.89545
832.2397, 13.57902
832.7219, 13.71851
833.2040, 13.98154
833.6861, 13.94672
834.1682, 13.63999
834.6503, 13.56090
835.1324, 13.85370
835.6146, 14.03652
836.0967, 13.81624
836.5788, 13.67564
837.0609, 14.03279
837.5430, 14.72178
838.0251, 15.31035
838.5073, 15.85976
838.9894, 16.02861
839.4715, 15.34384
839.9536, 14.55668
840.4357, 14.24632
840.9178, 14.31369
841.4000, 14.48949
841.8821, 14.67964
842.3642, 14.90417
842.8463, 15.24265
843.3284, 15.60246
843.8105, 15.79840
844.2927, 15.82210
844.7748, 15.49466
845.2569, 14.71733
845.7390, 14.06988
846.2211, 14.10770
846.7032, 14.64952
847.1854, 14.84258
847.6675, 14.46691
848.1496, 14.22247
848.6317, 14.28189
849.1138, 14.31707
849.5959, 14.13660
850.0781, 13.86633
850.5602, 13.66125
851.0423, 13.53087
851.5244, 13.57831
852.0065, 14.00220
852.4886, 14.44750
852.9708, 14.70580
853.4529, 14.81449
853.9350, 14.82931
854.4171, 14.76907
854.8992, 14.62599
855.3813, 14.35590
855.8635, 14.10081
856.3456, 14.21949
856.8277, 14.60871
857.3098, 14.58436
857.7919, 14.03938
858.2740, 13.65985
858.7562, 13.85041
859.2383, 14.36353
859.7204, 14.76035
860.2025, 15.03205
860.6846, 15.22711
861.1667, 15.13690
861.6489, 15.28820
862.1310, 16.29467
862.6131, 17.21328
863.0952, 17.06162
863.5773, 16.03932
864.0594, 15.32479
864.5416, 15.36668
865.0237, 15.47859
865.5058, 15.11862
865.9879, 14.88010
866.4700, 15.59998
866.9521, 16.90925
867.4343, 17.72110
867.9164, 17.61735
868.3985, 17.37853
868.8806, 17.97296
869.3627, 19.02237
869.8448, 19.45615
870.3270, 19.35651
870.8091, 19.59861
871.2912, 20.46257
871.7733, 21.28404
872.2554, 21.44817
872.7375, 21.06333
873.2197, 20.62617
873.7018, 20.03873
874.1839, 19.70164
874.6660, 19.93766
875.1481, 20.02549
875.6302, 19.32209
876.1124, 18.35632
876.5945, 17.91143
877.0766, 18.07587
877.5587, 18.32499
878.0408, 18.76911
878.5229, 19.02590
879.0051, 18.60435
879.4872, 18.10428
879.9693, 18.53714
880.4514, 19.64904
880.9335, 19.92618
881.4156, 18.29030
881.8978, 16.43830
882.3799, 16.58762
882.8620, 17.74020
883.3441, 17.74232
883.8262, 16.59948
884.3083, 15.41323
884.7905, 14.65857
885.2726, 14.19914
885.7547, 13.85919
886.2368, 13.65050
886.7189, 13.78235
887.2010, 14.38897
887.6832, 14.65924
888.1653, 14.28362
888.6474, 13.79304
889.1295, 13.62180
889.6116, 13.67086
890.0938, 13.54888
890.5759, 13.06728
891.0580, 12.80268
891.5401, 12.97049
892.0222, 13.12936
892.5043, 13.08459
892.9865, 12.92623
893.4686, 12.69947
893.9507, 12.44513
894.4328, 12.40185
894.9149, 12.81721
895.3970, 13.32002
895.8792, 13.73413
896.3613, 14.02107
896.8434, 14.17340
897.3255, 14.15012
897.8076, 13.74879
898.2897, 12.85712
898.7719, 11.96139
899.2540, 11.75515
899.7361, 12.06572
900.2182, 12.23592
900.7003, 12.26100
901.1824, 12.25378
901.6646, 12.23622
902.1467, 12.31065
902.6288, 12.61862
903.1109, 13.07250
903.5930, 13.18753
904.0751, 12.78478
904.5573, 12.57082
905.0394, 12.68893
905.5215, 12.86281
906.0036, 13.04421
906.4857, 13.15027
906.9678, 13.02269
907.4500, 12.63429
907.9321, 12.28930
908.4142, 11.98464
908.8963, 11.77973
909.3784, 11.64618
909.8605, 11.65990
910.3427, 12.00768
910.8248, 12.55976
911.3069, 12.97981
911.7890, 13.17275
912.2711, 13.05155
912.7532, 12.13475
913.2354, 11.16816
913.7175, 11.25584
914.1996, 12.06722
914.6817, 12.65753
915.1638, 12.75224
915.6459, 12.59542
916.1280, 12.32799
916.6101, 12.08499
917.0922, 12.27723
917.5743, 12.84715
918.0565, 13.25127
918.5386, 13.42412
919.0207, 13.35191
919.5028, 12.99753
919.9849, 12.47446
920.4670, 11.92444
920.9492, 11.30330
921.4313, 11.20384
921.9134, 11.88094
922.3955, 12.53226
922.8776, 13.09568
923.3597, 13.44523
923.8419, 13.44527
924.3240, 13.14772
924.8061, 12.63620
925.2882, 11.57427
925.7703, 11.09944
926.2524, 12.13412
926.7346, 12.94484
927.2167, 12.33918
927.6988, 11.20145
928.1809, 10.56203
928.6630, 10.57490
929.1451, 10.95856
929.6273, 11.83579
930.1094, 12.64838
930.5915, 12.99352
931.0736, 13.04099
931.5557, 12.99089
932.0378, 12.85334
932.5200, 12.50615
933.0021, 11.91726
933.4842, 11.41060
933.9663, 11.33981
934.4484, 11.59048
934.9305, 12.02862
935.4127, 12.57352
935.8948, 12.70849
936.3769, 12.33992
936.8590, 11.95737
937.3411, 11.87553
937.8232, 12.07084
938.3054, 12.67866
938.7875, 13.83069
939.2696, 13.83589
939.7517, 12.25653
940.2338, 11.14666
940.7159, 11.30761
941.1981, 11.98334
941.6802, 12.51481
942.1623, 12.89136
942.6444, 13.00814
943.1265, 12.51509
943.6086, 12.34522
944.0908, 12.94436
944.5729, 13.36985
945.0550, 13.02805
945.5371, 12.39915
946.0192, 12.13977
946.5013, 12.29670
946.9835, 12.38641
947.4656, 12.15118
947.9477, 12.00272
948.4298, 12.07951
948.9119, 12.33797
949.3940, 12.92422
949.8762, 13.61818
950.3583, 13.88476
950.8404, 13.53930
951.3225, 13.25379
951.8046, 13.78831
952.2867, 14.39186
952.7689, 14.04372
953.2510, 13.20406
953.7331, 12.81522
954.2152, 12.98081
954.6973, 13.21995
955.1794, 13.24946
955.6616, 13.18438
956.1437, 13.10026
956.6258, 13.06991
957.1079, 13.53547
957.5900, 14.42069
958.0721, 14.69358
958.5543, 14.01806
959.0364, 13.30738
959.5185, 13.45168
960.0006, 14.12886
960.4827, 14.22376
960.9648, 13.67980
961.4470, 12.97893
961.9291, 12.01395
962.4112, 11.46122
962.8933, 11.78747
963.3754, 12.37658
963.8575, 12.32078
964.3397, 11.64468
964.8218, 11.81438
965.3039, 13.82197
965.7860, 14.84422
966.2681, 13.80627
966.7502, 12.62930
967.2324, 12.29099
967.7145, 12.45359
968.1966, 12.63359
968.6787, 12.82161
969.1608, 12.90265
969.6429, 12.65794
970.1251, 12.57110
970.6072, 13.05727
971.0893, 13.53270
971.5714, 13.40075
972.0535, 12.88513
972.5356, 12.56102
973.0178, 12.57302
973.4999, 12.83756
973.9820, 13.75708
974.4641, 14.45556
974.9462, 13.97274
975.4283, 13.01513
975.9105, 12.54556
976.3926, 12.64151
976.8747, 12.93235
977.3568, 13.27420
977.8389, 13.52120
978.3210, 13.42314
978.8032, 13.20834
979.2853, 13.29919
979.7674, 13.57086
980.2495, 13.57615
980.7316, 13.24571
981.2137, 12.92354
981.6959, 12.84249
982.1780, 13.01163
982.6601, 13.63504
983.1422, 14.53182
983.6243, 14.87231
984.1064, 14.64759
984.5886, 14.45008
985.0707, 14.49819
985.5528, 14.51412
986.0349, 14.16476
986.5170, 13.62936
986.9991, 13.62860
987.4813, 14.19785
987.9634, 14.80165
988.4455, 15.44967
988.9276, 15.79378
989.4097, 15.59494
989.8918, 15.20461
990.3740, 15.06383
990.8561, 15.16923
991.3382, 15.46815
991.8203, 16.09044
992.3024, 16.57827
992.7845, 16.96635
993.2667, 17.05987
993.7488, 16.61796
994.2309, 15.91160
994.7130, 15.31236
995.1951, 14.78099
995.6772, 14.71961
996.1594, 15.68155
996.6415, 16.31625
997.1236, 16.17958
997.6057, 15.94402
998.0878, 15.94422
998.5699, 16.15137
999.0521, 16.56032
999.5342, 17.22006
1000.016, 17.63979
1000.498, 17.57311
1000.981, 17.44917
1001.463, 17.34685
1001.945, 17.31362
1002.427, 17.48266
1002.909, 17.72783
1003.391, 17.68894
1003.873, 17.21794
1004.355, 17.02994
1004.837, 17.83072
1005.320, 18.58121
1005.802, 18.47666
1006.284, 18.03456
1006.766, 17.79785
1007.248, 17.84041
1007.730, 18.12066
1008.212, 18.64833
1008.694, 19.16608
1009.177, 19.43196
1009.659, 19.63974
1010.141, 20.08421
1010.623, 20.57983
1011.105, 20.74709
1011.587, 20.59460
1012.069, 20.42953
1012.551, 20.41057
1013.033, 20.43181
1013.516, 20.37617
1013.998, 20.28594
1014.480, 20.11144
1014.962, 19.98171
1015.444, 20.32891
1015.926, 21.17466
1016.408, 22.04429
1016.890, 22.63081
1017.372, 23.11318
1017.855, 23.94036
1018.337, 24.84719
1018.819, 24.74492
1019.301, 23.82707
1019.783, 23.43313
1020.265, 23.88370
1020.747, 24.61335
1021.229, 25.22089
1021.712, 25.70845
1022.194, 26.08101
1022.676, 26.33570
1023.158, 26.40648
1023.640, 26.29359
1024.122, 26.13466
1024.604, 25.95203
1025.086, 25.99980
1025.568, 26.54496
1026.051, 27.33200
1026.533, 27.62498
1027.015, 27.38690
1027.497, 27.44980
1027.979, 27.85196
1028.461, 28.47931
1028.943, 29.39280
1029.425, 30.09353
1029.908, 29.99557
1030.390, 29.51468
1030.872, 30.24311
1031.354, 32.72179
1031.836, 33.47857
1032.318, 31.76293
1032.800, 30.66393
1033.282, 31.41581
1033.765, 32.59109
1034.247, 32.85415
1034.729, 32.46822
1035.211, 32.47368
1035.693, 33.04309
1036.175, 33.47373
1036.657, 33.64402
1037.139, 33.91843
1037.621, 34.40339
1038.104, 35.04700
1038.586, 35.85218
1039.068, 36.77187
1039.550, 37.63956
1040.032, 38.65571
1040.514, 39.09877
1040.996, 38.31892
1041.478, 37.92611
1041.960, 38.73664
1042.443, 39.82158
1042.925, 40.27970
1043.407, 40.28989
1043.889, 40.63572
1044.371, 41.56416
1044.853, 42.26682
1045.335, 42.49318
1045.817, 42.79890
1046.300, 43.21547
1046.782, 43.89269
1047.264, 45.29837
1047.746, 47.08637
1048.228, 47.94193
1048.710, 47.21778
1049.192, 47.05116
1049.674, 48.11987
1050.156, 49.21798
1050.639, 49.70922
1051.121, 50.23240
1051.603, 51.55344
1052.085, 53.39566
1052.567, 54.75058
1053.049, 55.29207
1053.531, 56.02466
1054.013, 57.44213
1054.495, 58.71578
1054.978, 59.17381
1055.460, 59.63024
1055.942, 60.80985
1056.424, 62.61821
1056.906, 64.72818
1057.388, 67.24156
1057.870, 69.29983
1058.352, 70.02487
1058.835, 71.05848
1059.317, 73.34441
1059.799, 76.05807
1060.281, 78.52528
1060.763, 80.75860
1061.245, 82.98425
1061.727, 85.23236
1062.209, 87.48895
1062.692, 89.30741
1063.174, 91.66971
1063.656, 95.43369
1064.138, 99.60349
1064.620, 103.3630
1065.102, 106.7383
1065.584, 109.7401
1066.066, 112.3128
1066.548, 115.9425
1067.031, 121.9309
1067.513, 128.1862
1067.995, 133.6626
1068.477, 139.0008
1068.959, 144.0875
1069.441, 149.6994
1069.923, 157.6003
1070.405, 168.1032
1070.887, 178.4992
1071.370, 186.4651
1071.852, 195.5035
1072.334, 208.0568
1072.816, 221.6741
1073.298, 233.4400
1073.780, 244.8792
1074.262, 259.0020
1074.744, 276.2277
1075.227, 294.5674
1075.709, 312.2136
1076.191, 331.9421
1076.673, 354.4206
1077.155, 380.1021
1077.637, 409.3233
1078.119, 442.1518
1078.601, 478.4917
1079.083, 518.4519
1079.566, 562.6601
1080.048, 611.1020
1080.530, 664.8106
1081.012, 726.7617
1081.494, 792.0555
1081.976, 856.3619
1082.458, 921.7757
1082.940, 990.7181
1083.422, 1063.512
1083.905, 1137.850
1084.387, 1212.130
1084.869, 1290.754
1085.351, 1375.443
1085.833, 1465.187
1086.315, 1559.368
1086.797, 1658.038
1087.279, 1760.014
1087.761, 1866.370
1088.244, 1981.885
1088.726, 2108.350
1089.208, 2240.351
1089.690, 2377.179
1090.172, 2517.807
1090.654, 2661.726
1091.136, 2809.189
1091.618, 2968.971
1092.101, 3132.131
1092.583, 3280.308
1093.065, 3411.051
1093.547, 3504.154
1094.029, 3566.818
1094.511, 3570.438
1094.993, 3496.307
1095.475, 3360.205
1095.958, 3162.676
1096.440, 2919.847
1096.922, 2649.149
1097.404, 2354.528
1097.886, 2065.874
1098.368, 1781.691
1098.850, 1523.038
1099.332, 1295.705
1099.814, 1097.320
1100.297, 928.3763
1100.779, 785.7960
1101.261, 665.9948
1101.743, 567.3367
1102.225, 484.8140
1102.707, 421.1286
1103.189, 366.5250
1103.671, 319.6468
1104.153, 279.5363
1104.636, 247.0033
1105.118, 220.1934
1105.600, 198.0602
1106.082, 180.0185
1106.564, 163.7453
1107.046, 148.9023
1107.528, 135.8588
1108.010, 124.8681
1108.493, 115.4673
1108.975, 108.2206
1109.457, 101.8038
1109.939, 94.67566
1110.421, 87.38212
1110.903, 81.76870
1111.385, 78.53176
1111.867, 75.07531
1112.349, 70.93272
1112.832, 66.86140
1113.314, 62.77723
1113.796, 59.04454
1114.278, 55.92158
1114.760, 53.30698
1115.242, 51.03481
1115.724, 49.09505
1116.206, 47.51569
1116.688, 47.03063
1117.171, 45.69567
1117.653, 42.48402
1118.135, 39.47272
1118.617, 37.74109
1119.099, 36.72735
1119.581, 35.70325
1120.063, 34.69088
1120.545, 34.09073
1121.028, 34.43332
1121.510, 33.92509
1121.992, 32.06056
1122.474, 30.17872
1122.956, 28.57587
1123.438, 27.45173
1123.920, 27.16527
1124.402, 27.42314
1124.885, 27.10228
1125.367, 26.01408
1125.849, 25.17659
1126.331, 24.67558
1126.813, 24.11568
1127.295, 23.32693
1127.777, 22.70589
1128.259, 22.62621
1128.741, 22.71078
1129.224, 22.14724
1129.706, 20.95620
1130.188, 20.32911
1130.670, 20.33926
1131.152, 20.34297
1131.634, 20.24844
1132.116, 20.10221
1132.598, 19.92595
1133.080, 19.69741
1133.563, 19.33834
1134.045, 18.96006
1134.527, 19.18879
1135.009, 19.96408
1135.491, 19.84068
1135.973, 18.74234
1136.455, 17.98850
1136.937, 18.01761
1137.420, 18.25848
1137.902, 18.26319
1138.384, 18.05584
1138.866, 17.60749
1139.348, 16.99411
1139.830, 16.52796
1140.312, 16.18593
1140.794, 15.79048
1141.276, 15.32305
1141.759, 14.92222
1142.241, 14.66415
1142.723, 14.50431
1143.205, 14.43640
1143.687, 14.39612
1144.169, 14.16339
1144.651, 13.89968
1145.133, 14.07337
1145.615, 14.58044
1146.098, 14.93167
1146.580, 14.95537
1147.062, 14.71559
1147.544, 14.12349
1148.026, 13.58081
1148.508, 13.67776
1148.990, 13.94175
1149.472, 13.61638
1149.955, 13.04672
1150.437, 13.07960
1150.919, 13.67689
1151.401, 13.90687
1151.883, 13.24443
1152.365, 12.79104
1152.847, 13.74652
1153.329, 14.60263
1153.812, 13.98569
1154.294, 12.87152
1154.776, 12.29508
1155.258, 12.19122
1155.740, 12.09872
1156.222, 11.91538
1156.704, 11.97138
1157.186, 12.65873
1157.668, 13.20732
1158.151, 13.39136
1158.633, 13.32256
1159.115, 12.81418
1159.597, 12.26504
1160.079, 12.35555
1160.561, 12.97175
1161.043, 13.03131
1161.525, 11.93771
1162.007, 11.31217
1162.490, 11.60553
1162.972, 11.90516
1163.454, 12.10974
1163.936, 12.06916
1164.418, 11.44703
1164.900, 10.62506
1165.382, 10.48255
1165.864, 11.09469
1166.347, 11.61414
1166.829, 12.11135
1167.311, 12.27020
1167.793, 11.92206
1168.275, 11.59545
1168.757, 11.52610
1169.239, 11.63796
1169.721, 11.90043
1170.203, 12.20888
1170.686, 12.05725
1171.168, 11.42389
1171.650, 11.03485
1172.132, 10.92316
1172.614, 10.76256
1173.096, 10.45717
1173.578, 10.50043
1174.060, 11.27799
1174.542, 12.18381
1175.025, 12.18629
1175.507, 11.58569
1175.989, 11.34428
1176.471, 11.40402
1176.953, 11.66182
1177.435, 12.01812
1177.917, 12.04553
1178.399, 11.62506
1178.882, 11.29399
1179.364, 11.62466
1179.846, 11.90030
1180.328, 10.81398
1180.810, 9.435124
1181.292, 9.413537
1181.774, 10.26227
1182.256, 11.02437
1182.739, 11.48889
1183.221, 11.73262
1183.703, 11.78279
1184.185, 11.63001
1184.667, 11.09152
1185.149, 10.56451
1185.631, 10.22769
1186.113, 10.08631
1186.595, 10.22523
1187.078, 10.52158
1187.560, 10.73008
1188.042, 10.84131
1188.524, 11.17290
1189.006, 12.16158
1189.488, 12.72890
1189.970, 12.41650
1190.452, 12.00888
1190.934, 11.65484
1191.417, 11.48168
1191.899, 11.77903
1192.381, 12.26476
1192.863, 12.20282
1193.345, 11.50961
1193.827, 10.85901
1194.309, 10.18912
1194.791, 9.733798
1195.274, 9.511751
1195.756, 9.595461
1196.238, 10.13176
1196.720, 10.63236
1197.202, 10.49802
1197.684, 9.966035
1198.166, 9.893274
1198.648, 10.25450
1199.130, 10.18688
1199.613, 9.713464
1200.095, 9.938894
1200.577, 11.05027
1201.059, 11.73786
1201.541, 11.24020
1202.023, 10.36034
1202.505, 10.02688
1202.987, 10.02786
1203.469, 10.02101
1203.952, 10.00165
1204.434, 9.815141
1204.916, 9.631904
1205.398, 10.12005
1205.880, 11.26857
1206.362, 11.99990
1206.844, 11.69250
1207.326, 11.01985
1207.809, 10.14017
1208.291, 9.465759
1208.773, 9.403435
1209.255, 9.668730
1209.737, 10.09546
1210.219, 10.52773
1210.701, 10.69133
1211.183, 10.53859
1211.666, 10.40281
1212.148, 10.39841
1212.630, 10.35859
1213.112, 10.19524
1213.594, 10.06215
1214.076, 10.03499
1214.558, 10.05893
1215.040, 10.08504
1215.522, 10.12697
1216.005, 10.25888
1216.487, 10.53351
1216.969, 10.37592
1217.451, 9.528084
1217.933, 9.416528
1218.415, 10.43405
1218.897, 11.32706
1219.379, 11.53650
1219.861, 11.27301
1220.344, 10.68051
1220.826, 9.989597
1221.308, 9.925113
1221.790, 10.29731
1222.272, 9.943170
1222.754, 9.103293
1223.236, 9.300612
1223.718, 10.58715
1224.201, 11.37026
1224.683, 10.90363
1225.165, 10.19335
1225.647, 10.16918
1226.129, 10.33018
1226.611, 9.992186
1227.093, 9.623586
1227.575, 9.861587
1228.057, 10.46523
1228.540, 11.07573
1229.022, 11.55076
1229.504, 11.63488
1229.986, 11.16648
1230.468, 10.70800
1230.950, 10.44411
1231.432, 10.22813
1231.914, 10.13966
1232.396, 9.940115
1232.879, 9.054350
1233.361, 8.234272
1233.843, 8.828759
1234.325, 10.55933
1234.807, 11.19562
1235.289, 10.29909
1235.771, 9.694586
1236.253, 9.448912
1236.736, 9.302992
1237.218, 9.219566
1237.700, 9.088157
1238.182, 8.824087
1238.664, 8.574160
1239.146, 8.574533
1239.628, 8.719333
1240.110, 8.517139
1240.593, 8.154183
1241.075, 8.636532
1241.557, 9.750720
1242.039, 10.25369
1242.521, 9.957561
1243.003, 9.797545
1243.485, 10.30504
1243.967, 10.68058
1244.449, 9.861175
1244.932, 8.980465
1245.414, 9.172667
1245.896, 9.798432
1246.378, 10.39640
1246.860, 10.76062
1247.342, 10.43081
1247.824, 9.551050
1248.306, 9.335327
1248.788, 10.54686
1249.271, 11.06915
1249.753, 9.836825
1250.235, 8.879751
1250.717, 8.835153
1251.199, 9.052552
1251.681, 9.261542
1252.163, 9.412161
1252.645, 9.418135
1253.128, 9.308896
1253.610, 9.280757
1254.092, 9.351238
1254.574, 9.216940
1255.056, 8.855607
1255.538, 8.839565
1256.020, 9.291158
1256.502, 9.804759
1256.984, 10.15832
1257.467, 10.32018
1257.949, 10.23559
1258.431, 9.970545
1258.913, 9.580052
1259.395, 9.123281
1259.877, 8.597721
1260.359, 8.128658
1260.841, 7.935663
1261.323, 8.048414
1261.806, 8.527153
1262.288, 9.479524
1262.770, 9.894410
1263.252, 8.739245
1263.734, 7.757977
1264.216, 7.628043
1264.698, 7.914763
1265.180, 8.743158
1265.663, 9.525385
1266.145, 9.325181
1266.627, 8.539122
1267.109, 8.707023
1267.591, 10.16731
1268.073, 10.42105
1268.555, 9.100417
1269.037, 8.403292
1269.520, 8.731489
1270.002, 9.136354
1270.484, 9.213522
1270.966, 9.100298
1271.448, 8.904147
1271.930, 8.684474
1272.412, 8.409001
1272.894, 8.265605
1273.376, 8.920094
1273.859, 9.976342
1274.341, 10.64618
1274.823, 10.79766
1275.305, 10.35524
1275.787, 9.374234
1276.269, 8.467969
1276.751, 7.822845
1277.233, 7.591583
1277.715, 8.163397
1278.198, 8.781462
1278.680, 9.096806
1279.162, 9.206921
1279.644, 9.187264
1280.126, 9.034758
1280.608, 8.642242
1281.090, 8.040073
1281.572, 7.993421
1282.055, 8.707674
1282.537, 9.208387
1283.019, 9.453882
1283.501, 9.502213
1283.983, 9.366568
1284.465, 8.976807
1284.947, 8.251580
1285.429, 7.677120
1285.911, 7.783114
1286.394, 8.575989
##END=



