##NAMES=Dolomite
##RRUFFID=R050357
##IDEAL CHEMISTRY=CaMg(CO_3_)_2_
##LOCALITY=Black Rock, Lawrence County, Arkansas, USA
##OWNER=RRUFF
##SOURCE=California Institute of Technology
##DESCRIPTION=Aggregate of pale pink curved saddle-shaped crystals
##STATUS=The identification of this mineral has been confirmed by X-ray diffraction and chemical analysis
##URL=rruff.info/R050357
##MEASURED CHEMISTRY=Ca_1.00_(Mg_0.98_Fe^2+^_0.02_)_Î£=1_(CO_3_)_2_ ; CO_2_ estimated by difference
118.5577, 38.86407
119.0398, 38.85789
119.5220, 38.84008
120.0041, 38.73682
120.4862, 38.67765
120.9683, 38.94006
121.4504, 39.74965
121.9325, 40.49934
122.4147, 40.58723
122.8968, 39.95236
123.3789, 39.39455
123.8610, 39.38383
124.3431, 39.64262
124.8252, 39.96687
125.3074, 40.34294
125.7895, 40.69093
126.2716, 40.80773
126.7537, 40.50414
127.2358, 40.30485
127.7179, 40.41706
128.2001, 40.70371
128.6822, 40.96901
129.1643, 41.06481
129.6464, 41.02298
130.1285, 41.24826
130.6106, 42.32407
131.0928, 43.12200
131.5749, 43.20686
132.0570, 42.76462
132.5391, 42.24047
133.0212, 42.01385
133.5033, 42.11589
133.9855, 42.37085
134.4676, 43.03580
134.9497, 43.61979
135.4318, 43.70562
135.9139, 43.31197
136.3960, 42.93061
136.8782, 43.15232
137.3603, 44.12430
137.8424, 45.00826
138.3245, 45.72791
138.8066, 46.34672
139.2887, 46.92397
139.7709, 47.46584
140.2530, 47.98005
140.7351, 48.48780
141.2172, 48.98866
141.6993, 49.43185
142.1814, 49.67819
142.6636, 49.81628
143.1457, 50.18961
143.6278, 50.94526
144.1099, 51.89559
144.5920, 52.81969
145.0741, 53.71697
145.5563, 54.76841
146.0384, 56.28318
146.5205, 58.35536
147.0026, 60.06131
147.4847, 60.46495
147.9668, 60.96128
148.4490, 62.41649
148.9311, 64.97965
149.4132, 68.09469
149.8953, 70.86623
150.3774, 72.86868
150.8595, 75.47382
151.3417, 78.38242
151.8238, 81.99205
152.3059, 86.79238
152.7880, 92.90060
153.2701, 99.91956
153.7522, 106.7594
154.2344, 112.3825
154.7165, 119.0358
155.1986, 127.2400
155.6807, 136.4067
156.1628, 146.0734
156.6449, 156.0774
157.1271, 166.0663
157.6092, 174.4401
158.0913, 181.0963
158.5734, 186.7297
159.0555, 191.2008
159.5376, 194.7253
160.0198, 197.7492
160.5019, 200.2855
160.9840, 202.6477
161.4661, 205.8175
161.9482, 210.0324
162.4303, 214.7453
162.9125, 219.4253
163.3946, 224.0972
163.8767, 229.4958
164.3588, 236.3493
164.8409, 244.1567
165.3230, 252.1157
165.8052, 260.0192
166.2873, 268.0651
166.7694, 276.4230
167.2515, 285.2028
167.7336, 294.0345
168.2157, 302.8842
168.6979, 311.6695
169.1800, 320.2393
169.6621, 328.2560
170.1442, 336.2205
170.6263, 345.6208
171.1084, 356.9514
171.5906, 369.0964
172.0727, 381.3517
172.5548, 394.1199
173.0369, 408.1723
173.5190, 424.2433
174.0011, 441.9771
174.4833, 458.3769
174.9654, 475.8067
175.4475, 489.1468
175.9296, 499.0396
176.4117, 503.9576
176.8938, 501.5624
177.3760, 489.9179
177.8581, 468.9141
178.3402, 442.2686
178.8223, 406.8033
179.3044, 369.6524
179.7865, 331.5956
180.2687, 293.7191
180.7508, 257.9654
181.2329, 226.0242
181.7150, 198.0437
182.1971, 174.3315
182.6792, 155.6757
183.1614, 139.8901
183.6435, 126.0082
184.1256, 113.9215
184.6077, 103.6680
185.0898, 95.49793
185.5719, 89.67408
186.0540, 84.46240
186.5362, 80.01197
187.0183, 76.07362
187.5004, 72.44698
187.9825, 69.09818
188.4646, 66.11974
188.9467, 63.70701
189.4289, 61.77532
189.9110, 59.99770
190.3931, 58.33201
190.8752, 56.77436
191.3573, 55.31130
191.8394, 53.94996
192.3216, 52.66477
192.8037, 51.40455
193.2858, 50.19817
193.7679, 49.13226
194.2500, 48.21776
194.7321, 47.47333
195.2143, 46.99929
195.6964, 47.03307
196.1785, 46.96984
196.6606, 46.36370
197.1427, 45.41921
197.6248, 44.59298
198.1070, 44.23212
198.5891, 44.28577
199.0712, 44.24134
199.5533, 44.06455
200.0354, 43.81119
200.5175, 43.43467
200.9997, 42.99752
201.4818, 42.62698
201.9639, 42.43181
202.4460, 42.41520
202.9281, 42.42175
203.4102, 42.63955
203.8924, 42.70355
204.3745, 42.34817
204.8566, 41.71603
205.3387, 41.17525
205.8208, 41.07123
206.3029, 41.46825
206.7851, 41.70108
207.2672, 41.59867
207.7493, 41.51129
208.2314, 41.63239
208.7135, 41.91115
209.1956, 42.13667
209.6778, 42.09470
210.1599, 41.72193
210.6420, 41.59401
211.1241, 41.91208
211.6062, 42.24860
212.0883, 42.38046
212.5705, 42.31077
213.0526, 42.16327
213.5347, 42.01704
214.0168, 41.86604
214.4989, 41.93763
214.9810, 42.51960
215.4632, 43.08292
215.9453, 43.21432
216.4274, 42.91697
216.9095, 42.56658
217.3916, 42.48030
217.8737, 42.67419
218.3559, 42.85448
218.8380, 43.05210
219.3201, 43.21355
219.8022, 43.18180
220.2843, 42.94628
220.7664, 42.92086
221.2486, 43.61721
221.7307, 44.85003
222.2128, 45.78014
222.6949, 46.02843
223.1770, 46.05600
223.6591, 46.38517
224.1413, 47.06030
224.6234, 47.82647
225.1055, 48.55712
225.5876, 49.24422
226.0697, 49.87009
226.5518, 50.61827
227.0340, 51.20237
227.5161, 51.06274
227.9982, 49.98689
228.4803, 48.92286
228.9624, 48.53851
229.4445, 48.48155
229.9267, 48.28827
230.4088, 47.70637
230.8909, 46.97040
231.3730, 46.57090
231.8551, 46.65364
232.3372, 46.70821
232.8194, 46.44713
233.3015, 46.06309
233.7836, 45.77098
234.2657, 45.65719
234.7478, 45.68859
235.2299, 45.82730
235.7121, 46.19947
236.1942, 46.41602
236.6763, 46.25982
237.1584, 45.95757
237.6405, 45.73732
238.1227, 45.69543
238.6048, 45.79202
239.0869, 45.91877
239.5690, 46.02657
240.0511, 46.26754
240.5332, 46.85398
241.0154, 47.48551
241.4975, 47.82933
241.9796, 47.74086
242.4617, 47.38713
242.9438, 47.18563
243.4259, 47.24232
243.9081, 47.29510
244.3902, 47.21169
244.8723, 47.15741
245.3544, 47.32864
245.8365, 47.79707
246.3186, 48.41815
246.8007, 48.86470
247.2829, 48.99593
247.7650, 49.13761
248.2471, 49.19268
248.7292, 49.31829
249.2113, 49.75549
249.6934, 50.56338
250.1756, 51.46517
250.6577, 51.90178
251.1398, 51.26717
251.6219, 51.03542
252.1040, 51.49767
252.5861, 52.18782
253.0683, 52.66066
253.5504, 52.79481
254.0325, 52.83389
254.5146, 53.18214
254.9967, 54.06921
255.4788, 54.86547
255.9610, 55.48380
256.4431, 56.05885
256.9252, 56.78762
257.4073, 57.69808
257.8894, 58.51981
258.3716, 58.83268
258.8537, 58.23573
259.3358, 58.24061
259.8179, 59.09915
260.3000, 60.40575
260.7821, 62.06092
261.2643, 63.99388
261.7464, 65.62939
262.2285, 66.21425
262.7106, 65.40458
263.1927, 65.24583
263.6748, 65.98597
264.1570, 67.24947
264.6391, 68.85582
265.1212, 70.75346
265.6033, 72.70032
266.0854, 74.43664
266.5675, 75.94936
267.0497, 77.59071
267.5318, 79.29765
268.0139, 81.17607
268.4960, 83.37554
268.9781, 85.88470
269.4602, 88.43476
269.9424, 90.68037
270.4245, 92.77816
270.9066, 95.59702
271.3887, 99.54710
271.8708, 103.9433
272.3529, 108.2718
272.8351, 112.5495
273.3172, 116.9800
273.7993, 121.6790
274.2814, 126.6815
274.7635, 131.9190
275.2456, 136.8776
275.7278, 142.6115
276.2099, 150.0791
276.6920, 159.1389
277.1741, 168.6407
277.6562, 177.9480
278.1383, 187.4708
278.6204, 197.6846
279.1025, 208.6974
279.5847, 220.3750
280.0668, 232.6828
280.5489, 245.6471
281.0310, 259.2906
281.5131, 274.2955
281.9952, 289.2612
282.4774, 302.2741
282.9595, 313.1684
283.4416, 323.1743
283.9237, 332.6684
284.4058, 341.7646
284.8879, 351.0179
285.3701, 360.4161
285.8522, 370.1840
286.3343, 380.5809
286.8164, 391.5718
287.2985, 402.7209
287.7806, 413.4357
288.2628, 424.1026
288.7449, 435.9258
289.2270, 449.3583
289.7091, 463.5706
290.1912, 478.0796
290.6733, 492.8073
291.1555, 507.9292
291.6376, 523.8848
292.1197, 540.1484
292.6018, 555.4811
293.0839, 569.1588
293.5660, 583.3007
294.0482, 599.8921
294.5303, 617.8102
295.0124, 635.3361
295.4945, 651.8397
295.9766, 667.3906
296.4587, 682.2351
296.9409, 696.5800
297.4230, 709.5171
297.9051, 721.9393
298.3872, 732.3879
298.8693, 738.9886
299.3514, 741.7435
299.8336, 739.5210
300.3157, 730.7903
300.7978, 715.2880
301.2799, 694.3835
301.7620, 666.4009
302.2441, 633.9065
302.7263, 597.9044
303.2084, 558.0445
303.6905, 517.4618
304.1726, 478.6089
304.6547, 441.5657
305.1368, 406.3474
305.6190, 372.3803
306.1011, 340.8187
306.5832, 312.6018
307.0653, 287.7771
307.5474, 265.5816
308.0295, 245.6825
308.5117, 228.0586
308.9938, 212.0169
309.4759, 197.6384
309.9580, 184.9423
310.4401, 173.8503
310.9222, 164.2755
311.4044, 155.8971
311.8865, 148.9315
312.3686, 143.1442
312.8507, 137.3247
313.3328, 131.1600
313.8149, 125.5275
314.2971, 120.8139
314.7792, 116.8500
315.2613, 113.3467
315.7434, 110.2662
316.2255, 107.4839
316.7076, 104.7391
317.1898, 102.0025
317.6719, 99.31753
318.1540, 96.43356
318.6361, 93.70198
319.1182, 91.59120
319.6003, 90.31407
320.0825, 89.46024
320.5646, 88.53841
321.0467, 87.55479
321.5288, 86.46782
322.0109, 85.37572
322.4930, 84.08772
322.9752, 82.28316
323.4573, 79.90271
323.9394, 77.63335
324.4215, 76.14506
324.9036, 75.43295
325.3857, 74.90411
325.8679, 74.56117
326.3500, 74.28941
326.8321, 74.09821
327.3142, 73.94407
327.7963, 73.59877
328.2784, 72.73392
328.7606, 71.49709
329.2427, 70.59327
329.7248, 70.08993
330.2069, 69.89410
330.6890, 70.08537
331.1711, 70.50379
331.6533, 70.81086
332.1354, 70.81725
332.6175, 70.63600
333.0996, 70.46907
333.5817, 70.29407
334.0638, 70.20477
334.5460, 70.29945
335.0281, 70.48920
335.5102, 70.67984
335.9923, 70.83818
336.4744, 71.01452
336.9565, 71.39003
337.4387, 71.99681
337.9208, 72.22859
338.4029, 71.74949
338.8850, 70.87113
339.3671, 69.91454
339.8492, 68.90505
340.3314, 67.73628
340.8135, 66.31445
341.2956, 64.64826
341.7777, 62.82742
342.2598, 60.72106
342.7419, 58.67868
343.2241, 57.00826
343.7062, 55.65343
344.1883, 54.38998
344.6704, 53.03380
345.1525, 51.70560
345.6346, 50.62110
346.1168, 49.74439
346.5989, 49.26455
347.0810, 49.96737
347.5631, 51.12265
348.0452, 51.33727
348.5273, 49.67590
349.0095, 47.44930
349.4916, 46.12387
349.9737, 45.72004
350.4558, 45.50444
350.9379, 45.17068
351.4200, 44.82893
351.9022, 44.68777
352.3843, 44.85947
352.8664, 44.94622
353.3485, 44.55069
353.8306, 43.81567
354.3127, 43.34071
354.7949, 43.38132
355.2770, 43.58550
355.7591, 43.52284
356.2412, 43.20794
356.7233, 42.78923
357.2054, 42.19175
357.6876, 41.56340
358.1697, 41.16016
358.6518, 41.03200
359.1339, 41.00613
359.6160, 40.98407
360.0981, 40.94973
360.5803, 40.82002
361.0624, 40.38436
361.5445, 40.00086
362.0266, 40.09187
362.5087, 40.58900
362.9908, 40.91286
363.4730, 40.67007
363.9551, 40.06948
364.4372, 39.79060
364.9193, 40.11004
365.4014, 40.26907
365.8835, 39.76454
366.3657, 38.89884
366.8478, 38.30742
367.3299, 38.22863
367.8120, 38.37838
368.2941, 38.30561
368.7762, 37.95094
369.2584, 37.65619
369.7405, 37.44846
370.2226, 37.33287
370.7047, 37.33202
371.1868, 37.44381
371.6689, 37.62930
372.1511, 37.89687
372.6332, 38.24906
373.1153, 38.32436
373.5974, 37.89008
374.0795, 37.43819
374.5616, 37.21931
375.0438, 37.17533
375.5259, 37.13978
376.0080, 37.03039
376.4901, 36.84708
376.9722, 36.58445
377.4543, 36.04833
377.9365, 35.68340
378.4186, 35.62776
378.9007, 35.72342
379.3828, 35.85023
379.8649, 35.96062
380.3470, 35.97346
380.8292, 35.75027
381.3113, 35.13619
381.7934, 34.75425
382.2755, 34.77197
382.7576, 34.84332
383.2397, 34.75755
383.7219, 34.53912
384.2040, 34.34552
384.6861, 34.30996
385.1682, 34.41779
385.6503, 34.43386
386.1324, 34.24441
386.6146, 34.08601
387.0967, 34.04903
387.5788, 34.05008
388.0609, 33.95076
388.5430, 33.69402
389.0251, 33.39835
389.5073, 33.33186
389.9894, 33.70141
390.4715, 33.86088
390.9536, 33.63046
391.4357, 33.32320
391.9178, 33.16008
392.4000, 33.14243
392.8821, 33.10162
393.3642, 32.85887
393.8463, 32.40623
394.3284, 31.98907
394.8105, 31.52183
395.2927, 31.19886
395.7748, 31.15703
396.2569, 31.28395
396.7390, 31.40764
397.2211, 31.45668
397.7032, 31.42292
398.1854, 31.24497
398.6675, 30.82825
399.1496, 30.55499
399.6317, 30.55630
400.1138, 30.72791
400.5959, 31.09538
401.0780, 31.65184
401.5602, 32.10966
402.0423, 32.17310
402.5244, 31.87051
403.0065, 31.47179
403.4886, 30.83410
403.9707, 30.37130
404.4529, 30.49714
404.9350, 31.02155
405.4171, 31.41050
405.8992, 31.36097
406.3813, 31.08189
406.8634, 30.89840
407.3456, 30.82160
407.8277, 30.73746
408.3098, 30.60172
408.7919, 30.41402
409.2740, 30.14916
409.7561, 29.72873
410.2383, 29.43289
410.7204, 29.56534
411.2025, 29.96489
411.6846, 30.13904
412.1667, 29.92733
412.6488, 29.56800
413.1310, 29.34972
413.6131, 29.26640
414.0952, 29.14690
414.5773, 28.83429
415.0594, 28.55888
415.5415, 28.64647
416.0237, 29.05381
416.5058, 29.29806
416.9879, 28.99270
417.4700, 28.28439
417.9521, 27.98104
418.4342, 28.43206
418.9164, 28.79557
419.3985, 28.71563
419.8806, 28.44708
420.3627, 28.43066
420.8448, 28.80358
421.3269, 29.22976
421.8091, 29.18406
422.2912, 28.41279
422.7733, 27.88491
423.2554, 27.91634
423.7375, 27.89971
424.2196, 27.26194
424.7018, 26.21247
425.1839, 25.50193
425.6660, 25.71697
426.1481, 26.69059
426.6302, 27.28959
427.1123, 27.33617
427.5945, 27.17607
428.0766, 26.57125
428.5587, 25.92476
429.0408, 25.69630
429.5229, 26.00218
430.0050, 26.49431
430.4872, 26.67350
430.9693, 26.45524
431.4514, 26.27683
431.9335, 26.18195
432.4156, 26.09881
432.8977, 25.94437
433.3799, 25.77558
433.8620, 25.75254
434.3441, 26.05213
434.8262, 26.50374
435.3083, 26.56162
435.7904, 26.05966
436.2726, 25.62336
436.7547, 25.57530
437.2368, 25.64057
437.7189, 25.54170
438.2010, 25.21227
438.6831, 24.94018
439.1653, 25.12743
439.6474, 25.64289
440.1295, 25.68624
440.6116, 24.88289
441.0937, 24.07979
441.5758, 24.15165
442.0580, 24.83832
442.5401, 25.37385
443.0222, 25.51216
443.5043, 25.42747
443.9864, 25.25099
444.4685, 24.99189
444.9507, 24.69057
445.4328, 24.30986
445.9149, 23.95775
446.3970, 23.89822
446.8791, 24.18972
447.3612, 24.53279
447.8434, 25.00219
448.3255, 25.40754
448.8076, 25.43050
449.2897, 25.04096
449.7718, 24.61057
450.2539, 24.49243
450.7361, 24.70432
451.2182, 24.89481
451.7003, 25.31265
452.1824, 25.44685
452.6645, 24.78208
453.1466, 23.77834
453.6288, 23.28365
454.1109, 23.67035
454.5930, 24.45780
455.0751, 24.66912
455.5572, 23.91437
456.0393, 23.32787
456.5215, 22.92491
457.0036, 22.64654
457.4857, 22.42162
457.9678, 22.28063
458.4499, 22.34313
458.9320, 22.74716
459.4142, 23.41584
459.8963, 23.91452
460.3784, 24.27656
460.8605, 24.38727
461.3426, 24.10217
461.8247, 23.65030
462.3069, 23.18432
462.7890, 22.74376
463.2711, 22.48177
463.7532, 22.73686
464.2353, 23.44857
464.7174, 23.66255
465.1996, 22.94028
465.6817, 22.23657
466.1638, 22.38599
466.6459, 23.08016
467.1280, 23.54406
467.6101, 23.39544
468.0923, 23.02069
468.5744, 22.77493
469.0565, 22.65784
469.5386, 22.71013
470.0207, 23.01204
470.5028, 23.41020
470.9850, 23.63520
471.4671, 23.68373
471.9492, 23.65789
472.4313, 23.58242
472.9134, 23.44586
473.3955, 23.19590
473.8777, 22.84661
474.3598, 22.51931
474.8419, 22.29922
475.3240, 22.18497
475.8061, 22.17176
476.2882, 22.40122
476.7704, 22.54404
477.2525, 22.39688
477.7346, 22.18825
478.2167, 22.23656
478.6988, 22.60875
479.1809, 23.06194
479.6631, 23.30878
480.1452, 23.34946
480.6273, 23.16637
481.1094, 22.31912
481.5915, 21.70203
482.0736, 21.78834
482.5558, 22.27680
483.0379, 22.64524
483.5200, 22.64627
484.0021, 22.39463
484.4842, 22.01854
484.9663, 21.41520
485.4485, 21.16989
485.9306, 21.85025
486.4127, 22.53664
486.8948, 22.47525
487.3769, 21.78593
487.8590, 21.27023
488.3412, 21.60995
488.8233, 22.35971
489.3054, 22.57697
489.7875, 22.19276
490.2696, 21.90480
490.7517, 22.21162
491.2339, 22.75184
491.7160, 22.76627
492.1981, 22.05062
492.6802, 21.40962
493.1623, 21.22088
493.6444, 21.30365
494.1266, 21.42535
494.6087, 21.54275
495.0908, 21.62863
495.5729, 21.65509
496.0550, 21.62226
496.5371, 21.58943
497.0193, 21.64445
497.5014, 21.59946
497.9835, 21.20135
498.4656, 20.73611
498.9477, 20.71359
499.4298, 21.26918
499.9120, 21.90524
500.3941, 21.82070
500.8762, 20.68988
501.3583, 20.13778
501.8404, 20.67588
502.3225, 21.27518
502.8047, 21.62414
503.2868, 21.76188
503.7689, 21.80178
504.2510, 21.79587
504.7331, 21.73837
505.2152, 21.57291
505.6974, 21.25524
506.1795, 21.11098
506.6616, 21.37545
507.1437, 21.67523
507.6258, 21.74041
508.1079, 21.59167
508.5901, 21.37584
509.0722, 21.03195
509.5543, 20.72765
510.0364, 20.76440
510.5185, 21.13784
511.0006, 21.51774
511.4828, 21.76789
511.9649, 21.91364
512.4470, 22.02487
512.9291, 22.14610
513.4112, 22.10618
513.8933, 21.64963
514.3754, 21.13785
514.8575, 21.01857
515.3397, 21.28225
515.8218, 21.53142
516.3039, 21.45597
516.7860, 21.11514
517.2681, 20.93968
517.7502, 21.11642
518.2324, 21.22865
518.7145, 21.18657
519.1966, 21.09541
519.6787, 21.02996
520.1608, 21.01712
520.6429, 21.08389
521.1251, 21.29764
521.6072, 21.65023
522.0893, 21.81384
522.5714, 21.72415
523.0535, 21.53840
523.5356, 21.15998
524.0178, 20.79553
524.4999, 20.76119
524.9820, 21.16993
525.4641, 21.55240
525.9462, 21.37595
526.4283, 20.78043
526.9105, 20.38208
527.3926, 20.26611
527.8747, 20.35873
528.3568, 20.74437
528.8389, 21.30651
529.3210, 21.64312
529.8032, 21.62202
530.2853, 21.47190
530.7674, 21.27683
531.2495, 21.04689
531.7316, 20.77770
532.2137, 20.46551
532.6959, 20.19029
533.1780, 20.04818
533.6601, 20.04654
534.1422, 20.14295
534.6243, 20.46915
535.1064, 20.73487
535.5886, 20.81339
536.0707, 20.76512
536.5528, 20.70215
537.0349, 20.66786
537.5170, 20.59063
537.9991, 20.26209
538.4813, 19.54254
538.9634, 19.31008
539.4455, 20.07919
539.9276, 20.82399
540.4097, 21.07859
540.8918, 20.96524
541.3740, 20.72722
541.8561, 20.39623
542.3382, 20.11317
542.8203, 20.11956
543.3024, 20.37754
543.7845, 20.49920
544.2667, 20.33092
544.7488, 20.11476
545.2309, 20.14720
545.7130, 20.39749
546.1951, 20.59962
546.6772, 20.63968
547.1594, 20.68784
547.6415, 20.96928
548.1236, 21.34479
548.6057, 21.42954
549.0878, 21.05939
549.5699, 20.49129
550.0521, 20.14001
550.5342, 20.04893
551.0163, 20.06104
551.4984, 20.34751
551.9805, 20.54729
552.4626, 20.38609
552.9448, 20.04244
553.4269, 19.88154
553.9090, 20.08646
554.3911, 20.44551
554.8732, 20.57969
555.3553, 20.45343
555.8375, 20.33806
556.3196, 20.16694
556.8017, 20.14016
557.2838, 20.54622
557.7659, 21.19346
558.2480, 21.53328
558.7302, 21.26271
559.2123, 20.73291
559.6944, 20.12424
560.1765, 19.51804
560.6586, 19.35565
561.1407, 19.85227
561.6229, 20.56434
562.1050, 20.94529
562.5871, 20.93132
563.0692, 20.98463
563.5513, 21.37214
564.0334, 21.56324
564.5156, 21.09164
564.9977, 20.27196
565.4798, 19.66262
565.9619, 19.48895
566.4440, 19.60090
566.9261, 19.79927
567.4083, 20.14081
567.8904, 20.33760
568.3725, 20.30632
568.8546, 20.20622
569.3367, 20.02744
569.8188, 19.83128
570.3010, 19.70274
570.7831, 19.66823
571.2652, 19.72827
571.7473, 19.92976
572.2294, 20.24923
572.7115, 20.53753
573.1937, 20.83693
573.6758, 20.92667
574.1579, 20.36747
574.6400, 19.40117
575.1221, 18.98826
575.6042, 19.74678
576.0864, 20.47583
576.5685, 20.46794
577.0506, 20.07230
577.5327, 19.86018
578.0148, 19.97421
578.4969, 20.23155
578.9791, 20.45668
579.4612, 20.65297
579.9433, 20.73236
580.4254, 20.64342
580.9075, 20.49265
581.3896, 20.19607
581.8718, 19.89972
582.3539, 19.80070
582.8360, 19.92400
583.3181, 20.05995
583.8002, 19.92436
584.2823, 19.58064
584.7645, 19.53980
585.2466, 19.91311
585.7287, 20.27729
586.2108, 20.42507
586.6929, 20.43774
587.1750, 20.40756
587.6572, 20.31805
588.1393, 20.28553
588.6214, 20.44513
589.1035, 20.65040
589.5856, 20.68341
590.0677, 20.53996
590.5499, 20.39044
591.0320, 20.35340
591.5141, 20.38158
591.9962, 20.29811
592.4783, 19.89570
592.9604, 19.67842
593.4426, 19.89560
593.9247, 20.09679
594.4068, 19.83525
594.8889, 19.25179
595.3710, 18.88406
595.8531, 19.11930
596.3353, 19.70828
596.8174, 20.10102
597.2995, 20.29164
597.7816, 20.28433
598.2637, 19.89350
598.7458, 19.50584
599.2280, 19.48740
599.7101, 19.77569
600.1922, 20.02872
600.6743, 20.15467
601.1564, 20.18976
601.6385, 20.12435
602.1207, 19.99067
602.6028, 19.87892
603.0849, 19.81879
603.5670, 19.79650
604.0491, 19.79740
604.5313, 19.82461
605.0134, 19.85589
605.4955, 20.08235
605.9776, 20.09472
606.4597, 19.50180
606.9418, 18.73295
607.4240, 18.40809
607.9061, 18.67740
608.3882, 19.07288
608.8703, 18.96635
609.3524, 18.42061
609.8345, 18.36588
610.3167, 19.07015
610.7988, 19.62011
611.2809, 19.31643
611.7630, 18.70413
612.2451, 18.57604
612.7272, 19.11092
613.2094, 19.58171
613.6915, 19.64461
614.1736, 19.46935
614.6557, 19.17183
615.1378, 18.80864
615.6199, 18.62545
616.1021, 18.80438
616.5842, 19.17896
617.0663, 19.25368
617.5484, 18.56850
618.0305, 18.37739
618.5126, 19.22163
618.9948, 20.01107
619.4769, 19.97349
619.9590, 19.38475
620.4411, 19.02638
620.9232, 19.34546
621.4053, 19.85095
621.8875, 19.63609
622.3696, 18.71900
622.8517, 18.19876
623.3338, 18.35582
623.8159, 18.76133
624.2980, 19.21621
624.7802, 19.64762
625.2623, 19.78587
625.7444, 19.38844
626.2265, 18.96421
626.7086, 18.63207
627.1907, 18.46271
627.6729, 18.70654
628.1550, 19.33582
628.6371, 19.79190
629.1192, 19.51636
629.6013, 18.65004
630.0834, 18.39858
630.5656, 19.35215
631.0477, 19.93706
631.5298, 19.66650
632.0119, 19.19372
632.4940, 19.02839
632.9761, 19.15116
633.4583, 19.17838
633.9404, 18.73086
634.4225, 18.18454
634.9046, 18.24490
635.3867, 18.85839
635.8688, 19.30584
636.3510, 19.32716
636.8331, 19.19340
637.3152, 19.25159
637.7973, 19.53304
638.2794, 19.61636
638.7615, 19.23936
639.2437, 18.95031
639.7258, 19.05608
640.2079, 19.35549
640.6900, 19.57887
641.1721, 19.64936
641.6542, 19.62435
642.1364, 19.55271
642.6185, 19.43798
643.1006, 19.32429
643.5827, 19.20088
644.0648, 19.10259
644.5469, 18.97184
645.0291, 18.91866
645.5112, 19.10448
645.9933, 19.53541
646.4754, 19.90046
646.9575, 20.07530
647.4396, 20.10403
647.9218, 20.00601
648.4039, 19.79806
648.8860, 19.49435
649.3681, 19.07979
649.8502, 18.73378
650.3323, 18.77168
650.8145, 19.35263
651.2966, 19.58204
651.7787, 19.01636
652.2608, 18.62501
652.7429, 18.94985
653.2250, 19.50163
653.7072, 19.59425
654.1893, 19.07279
654.6714, 18.47311
655.1535, 18.25335
655.6356, 18.35831
656.1177, 18.69168
656.5999, 19.29714
657.0820, 19.71431
657.5641, 19.67496
658.0462, 19.37690
658.5283, 19.13938
659.0104, 18.92608
659.4926, 18.91325
659.9747, 19.39394
660.4568, 19.82914
660.9389, 19.78243
661.4210, 19.44441
661.9031, 19.24641
662.3853, 19.35485
662.8674, 19.57364
663.3495, 19.60034
663.8316, 19.41241
664.3137, 19.43200
664.7958, 19.89493
665.2780, 20.13463
665.7601, 19.54766
666.2422, 18.72495
666.7243, 18.35746
667.2064, 18.55201
667.6885, 18.91162
668.1707, 19.41681
668.6528, 19.88143
669.1349, 20.09583
669.6170, 20.06874
670.0991, 19.83195
670.5812, 19.37680
671.0634, 18.93317
671.5455, 18.93455
672.0276, 19.53941
672.5097, 19.98687
672.9918, 20.22122
673.4739, 20.35106
673.9561, 20.44947
674.4382, 20.43900
674.9203, 20.09958
675.4024, 19.38145
675.8845, 18.85374
676.3666, 19.18871
676.8488, 19.98518
677.3309, 20.32339
677.8130, 20.16804
678.2951, 20.06036
678.7772, 20.27942
679.2593, 20.64236
679.7415, 20.80948
680.2236, 20.68610
680.7057, 20.65338
681.1878, 20.86337
681.6699, 20.99915
682.1520, 20.82333
682.6342, 20.51589
683.1163, 20.33808
683.5984, 20.37102
684.0805, 20.54392
684.5626, 20.77859
685.0447, 21.08602
685.5269, 21.64009
686.0090, 22.56168
686.4911, 23.05167
686.9732, 22.54094
687.4553, 21.60999
687.9374, 21.20232
688.4196, 21.35208
688.9017, 21.54223
689.3838, 21.53867
689.8659, 21.71109
690.3480, 22.56955
690.8301, 23.67347
691.3123, 24.19629
691.7944, 23.90465
692.2765, 23.37238
692.7586, 23.26996
693.2407, 23.55906
693.7228, 23.65497
694.2050, 23.41094
694.6871, 23.38498
695.1692, 24.07015
695.6513, 24.84100
696.1334, 24.88353
696.6155, 24.20194
697.0977, 23.89439
697.5798, 24.54045
698.0619, 25.43273
698.5440, 26.18242
699.0261, 26.75998
699.5082, 27.05309
699.9904, 27.05898
700.4725, 27.09722
700.9546, 27.54465
701.4367, 28.36381
701.9188, 28.97202
702.4009, 29.18339
702.8831, 29.55262
703.3652, 30.24387
703.8473, 31.13041
704.3294, 32.25513
704.8115, 33.54608
705.2936, 34.62084
705.7758, 34.99516
706.2579, 35.41211
706.7400, 36.61961
707.2221, 38.31727
707.7042, 39.83363
708.1863, 41.01596
708.6685, 42.19541
709.1505, 43.68866
709.6326, 45.44190
710.1147, 47.01205
710.5969, 48.15559
711.0790, 49.55882
711.5611, 51.60046
712.0432, 53.66522
712.5253, 55.27705
713.0074, 56.56188
713.4896, 57.96590
713.9717, 59.68629
714.4538, 61.53271
714.9359, 63.40076
715.4180, 65.25843
715.9001, 67.01919
716.3823, 68.67416
716.8644, 70.17922
717.3465, 71.39889
717.8286, 72.59419
718.3107, 74.84520
718.7928, 79.19959
719.2750, 82.59586
719.7571, 84.35081
720.2392, 85.77871
720.7213, 87.27912
721.2034, 88.96964
721.6855, 91.08626
722.1677, 93.80167
722.6498, 96.39450
723.1319, 98.52920
723.6140, 100.0312
724.0961, 100.4922
724.5782, 99.90578
725.0604, 98.58764
725.5425, 96.70786
726.0246, 94.18265
726.5067, 90.77265
726.9888, 86.21317
727.4709, 81.55888
727.9531, 76.86983
728.4352, 72.03391
728.9173, 66.64659
729.3994, 61.27333
729.8815, 56.74853
730.3636, 53.23288
730.8458, 50.07912
731.3279, 46.80043
731.8100, 43.59328
732.2921, 40.76715
732.7742, 38.32249
733.2563, 36.23301
733.7385, 34.50535
734.2206, 33.02552
734.7027, 31.67358
735.1848, 30.46029
735.6669, 29.21022
736.1490, 27.74328
736.6312, 26.47972
737.1133, 25.63080
737.5954, 24.89442
738.0775, 23.88848
738.5596, 22.69061
739.0417, 21.86131
739.5239, 21.86114
740.0060, 22.14031
740.4881, 22.12890
740.9702, 21.86993
741.4523, 21.44888
741.9344, 20.88599
742.4166, 20.32978
742.8987, 19.90194
743.3808, 19.58813
743.8629, 19.32357
744.3450, 19.17641
744.8271, 18.95347
745.3093, 18.52386
745.7914, 18.13892
746.2735, 17.95327
746.7556, 17.90937
747.2377, 17.89439
747.7198, 17.89723
748.2020, 17.81829
748.6841, 17.40798
749.1662, 16.93907
749.6483, 16.97030
750.1304, 17.46928
750.6125, 17.93074
751.0947, 18.10019
751.5768, 18.07117
752.0589, 17.99580
752.5410, 17.85299
753.0231, 17.77321
753.5052, 17.97105
753.9874, 17.93628
754.4695, 17.13467
754.9516, 16.26585
755.4337, 16.25419
755.9158, 17.15312
756.3979, 17.78708
756.8801, 17.36789
757.3622, 16.63652
757.8443, 16.21071
758.3264, 16.05462
758.8085, 16.09814
759.2906, 16.30692
759.7728, 16.55193
760.2549, 16.71081
760.7370, 16.79310
761.2191, 16.85441
761.7012, 16.89972
762.1833, 16.91414
762.6655, 16.94909
763.1476, 16.89234
763.6297, 16.53234
764.1118, 16.02905
764.5939, 15.85174
765.0760, 16.28626
765.5582, 16.66797
766.0403, 16.59375
766.5224, 16.35292
767.0045, 16.25831
767.4866, 16.31145
767.9688, 16.37745
768.4509, 16.38796
768.9330, 16.37046
769.4151, 16.38570
769.8972, 16.43820
770.3793, 16.36180
770.8615, 16.04028
771.3436, 15.91710
771.8257, 16.41399
772.3078, 17.04756
772.7899, 17.01692
773.2720, 16.25534
773.7542, 15.74712
774.2363, 15.74774
774.7184, 15.92310
775.2005, 16.29128
775.6826, 16.64032
776.1647, 16.61573
776.6469, 16.22805
777.1290, 15.90954
777.6111, 16.05659
778.0932, 16.40904
778.5753, 16.30400
779.0574, 15.76368
779.5396, 15.42097
780.0217, 15.41085
780.5038, 15.57444
780.9859, 15.85622
781.4680, 16.19771
781.9501, 16.34221
782.4323, 16.15452
782.9144, 15.99757
783.3965, 15.85720
783.8786, 15.78033
784.3607, 15.83548
784.8428, 15.96007
785.3250, 16.04012
785.8071, 16.03946
786.2892, 16.03640
786.7713, 16.14085
787.2534, 16.26926
787.7355, 16.24615
788.2177, 16.08585
788.6998, 15.90224
789.1819, 15.72687
789.6640, 15.64220
790.1461, 15.78351
790.6282, 16.14892
791.1104, 16.28074
791.5925, 16.00930
792.0746, 15.78897
792.5567, 15.63952
793.0388, 15.61436
793.5209, 15.89041
794.0031, 16.33563
794.4852, 16.50446
794.9673, 16.14121
795.4494, 15.72181
795.9315, 15.52364
796.4136, 15.45331
796.8958, 15.42710
797.3779, 15.41331
797.8600, 15.32553
798.3421, 15.11376
798.8242, 14.92375
799.3063, 15.07421
799.7885, 15.58720
800.2706, 15.72935
800.7527, 15.33008
801.2348, 15.08368
801.7169, 15.37980
802.1990, 15.86202
802.6812, 16.03885
803.1633, 15.91366
803.6454, 15.76770
804.1275, 15.47677
804.6096, 15.35188
805.0917, 15.64667
805.5739, 16.07153
806.0560, 16.40275
806.5381, 16.56948
807.0202, 16.48967
807.5023, 16.05851
807.9844, 15.53323
808.4666, 15.23204
808.9487, 15.14024
809.4308, 15.27661
809.9129, 15.64757
810.3950, 15.87160
810.8771, 15.67974
811.3593, 15.33260
811.8414, 15.39668
812.3235, 16.07341
812.8056, 16.40213
813.2877, 16.08545
813.7698, 15.78660
814.2520, 15.70591
814.7341, 15.71150
815.2162, 15.69150
815.6983, 15.62865
816.1804, 15.50711
816.6625, 15.19767
817.1447, 14.95350
817.6268, 14.99594
818.1089, 15.21226
818.5910, 15.44983
819.0731, 15.67392
819.5552, 15.90586
820.0374, 16.17516
820.5195, 16.38257
821.0016, 16.28549
821.4837, 15.87465
821.9658, 15.47737
822.4479, 15.08260
822.9301, 14.81874
823.4122, 14.79588
823.8943, 14.90274
824.3764, 14.92379
824.8585, 14.80941
825.3406, 14.87494
825.8228, 15.40079
826.3049, 15.77997
826.7870, 15.70223
827.2691, 15.44475
827.7512, 15.25408
828.2333, 15.17857
828.7155, 15.21133
829.1976, 15.39177
829.6797, 15.59758
830.1618, 15.69572
830.6439, 15.71206
831.1260, 15.69866
831.6082, 15.66529
832.0903, 15.61979
832.5724, 15.56471
833.0545, 15.50990
833.5366, 15.47659
834.0187, 15.46842
834.5009, 15.45115
834.9830, 15.40163
835.4651, 15.38890
835.9472, 15.42275
836.4293, 15.51871
836.9114, 15.77317
837.3936, 16.16494
837.8757, 16.29844
838.3578, 15.84809
838.8399, 15.46082
839.3220, 15.45865
839.8041, 15.57501
840.2863, 15.49153
840.7684, 15.26896
841.2505, 15.23282
841.7326, 15.56856
842.2147, 15.94301
842.6968, 15.88652
843.1790, 15.56458
843.6611, 15.43693
844.1432, 15.52620
844.6253, 15.76682
845.1074, 16.16818
845.5895, 16.48192
846.0717, 16.35625
846.5538, 15.79037
847.0359, 15.21622
847.5180, 14.45242
848.0001, 14.04818
848.4822, 14.33954
848.9644, 14.81522
849.4465, 15.22722
849.9286, 15.53799
850.4107, 15.64579
850.8928, 15.46022
851.3749, 15.24036
851.8571, 15.00386
852.3392, 14.83348
852.8213, 14.81855
853.3034, 14.91755
853.7855, 15.08758
854.2676, 15.29749
854.7498, 15.39816
855.2319, 15.15973
855.7140, 14.75632
856.1961, 14.61472
856.6782, 14.69636
857.1603, 14.69548
857.6425, 14.52877
858.1246, 14.41875
858.6067, 14.57245
859.0888, 14.90182
859.5709, 15.06539
860.0530, 14.97104
860.5352, 14.96022
861.0173, 15.16564
861.4994, 15.29537
861.9815, 15.10505
862.4636, 14.82512
862.9457, 14.76014
863.4279, 14.93996
863.9100, 15.18562
864.3921, 15.69863
864.8742, 15.98707
865.3563, 15.54971
865.8384, 14.89102
866.3206, 14.61647
866.8027, 14.75148
867.2848, 14.95797
867.7669, 15.03043
868.2490, 15.14376
868.7311, 15.65690
869.2133, 16.37268
869.6954, 16.65950
870.1775, 16.50381
870.6596, 16.43335
871.1417, 16.70799
871.6238, 16.98501
872.1060, 16.74363
872.5881, 15.98938
873.0702, 15.47938
873.5523, 15.22361
874.0344, 15.19753
874.5165, 15.52858
874.9987, 15.93839
875.4808, 16.22051
875.9629, 16.40446
876.4450, 16.56034
876.9271, 16.61578
877.4092, 16.80874
877.8914, 17.30752
878.3735, 17.83299
878.8556, 18.25125
879.3377, 18.56933
879.8198, 18.81679
880.3019, 19.00331
880.7841, 19.13131
881.2662, 19.19148
881.7483, 19.20572
882.2304, 19.27906
882.7125, 19.31203
883.1946, 19.03231
883.6768, 18.42269
884.1589, 17.67962
884.6410, 16.91616
885.1231, 16.19182
885.6052, 15.62415
886.0873, 15.21329
886.5695, 14.95426
887.0516, 14.89923
887.5337, 14.77650
888.0158, 14.44409
888.4979, 14.06179
888.9800, 13.80128
889.4622, 13.66257
889.9443, 13.64812
890.4264, 13.90972
890.9085, 14.07559
891.3906, 14.08887
891.8727, 14.01955
892.3549, 13.86899
892.8370, 13.68003
893.3191, 13.52719
893.8012, 13.42902
894.2833, 13.34130
894.7654, 13.25302
895.2476, 13.15609
895.7297, 13.02442
896.2118, 12.88706
896.6939, 12.82273
897.1760, 12.82174
897.6581, 12.73391
898.1403, 12.41035
898.6224, 12.07652
899.1045, 12.20207
899.5866, 12.65270
900.0687, 12.79690
900.5508, 12.58294
901.0330, 12.37483
901.5151, 12.34200
901.9972, 12.41308
902.4793, 12.50862
902.9614, 12.62884
903.4435, 12.52144
903.9257, 11.96994
904.4078, 11.79158
904.8899, 12.53314
905.3720, 13.20415
905.8541, 12.83274
906.3362, 11.80483
906.8184, 11.34863
907.3005, 11.81132
907.7826, 12.03986
908.2647, 11.51504
908.7468, 11.15047
909.2289, 11.58221
909.7111, 12.31438
910.1932, 12.71953
910.6753, 12.73432
911.1574, 12.70036
911.6395, 12.80126
912.1216, 12.88561
912.6038, 12.87744
913.0859, 12.74979
913.5680, 12.33864
914.0501, 11.76105
914.5322, 11.42841
915.0143, 11.51828
915.4965, 11.78945
915.9786, 11.99500
916.4607, 12.13883
916.9428, 12.23535
917.4249, 12.28458
917.9070, 12.26066
918.3892, 12.14827
918.8713, 12.08130
919.3534, 12.19465
919.8355, 12.38367
920.3176, 12.28107
920.7997, 11.72201
921.2819, 11.51408
921.7640, 11.88648
922.2461, 12.17996
922.7282, 12.06986
923.2103, 11.80865
923.6924, 11.66264
924.1746, 11.63051
924.6567, 11.75069
925.1388, 12.31189
925.6209, 12.61950
926.1030, 12.34027
926.5851, 11.96857
927.0673, 11.87580
927.5494, 11.92223
928.0315, 11.72890
928.5136, 11.19248
928.9957, 10.94266
929.4778, 11.64995
929.9600, 12.43458
930.4421, 12.58038
930.9242, 12.32876
931.4063, 11.94857
931.8884, 11.57593
932.3705, 11.48077
932.8527, 11.84458
933.3348, 12.32105
933.8169, 12.46834
934.2990, 12.37257
934.7811, 12.24226
935.2632, 12.09167
935.7454, 11.89337
936.2275, 11.63727
936.7096, 11.52363
937.1917, 11.78407
937.6738, 12.29316
938.1559, 12.57449
938.6381, 12.61057
939.1202, 12.53455
939.6023, 12.33495
940.0844, 12.09170
940.5665, 11.79001
941.0486, 11.54050
941.5308, 11.52167
942.0129, 11.74590
942.4950, 12.07138
942.9771, 12.72059
943.4592, 13.13447
943.9413, 13.15168
944.4235, 13.00236
944.9056, 12.71669
945.3877, 12.39548
945.8698, 12.28503
946.3519, 12.49902
946.8340, 12.54359
947.3162, 11.94190
947.7983, 11.54336
948.2804, 12.09595
948.7625, 12.89111
949.2446, 13.03375
949.7267, 12.58258
950.2089, 12.24854
950.6910, 12.37420
951.1731, 12.59102
951.6552, 12.62215
952.1373, 12.57176
952.6194, 12.60644
953.1016, 12.66373
953.5837, 12.50495
954.0658, 12.10548
954.5479, 11.80399
955.0300, 11.89785
955.5121, 12.21485
955.9943, 12.48372
956.4763, 12.69967
956.9584, 12.87949
957.4406, 13.01249
957.9227, 12.89257
958.4048, 12.40598
958.8869, 11.86359
959.3690, 11.68577
959.8511, 11.83112
960.3333, 11.96831
960.8154, 12.08885
961.2975, 12.27835
961.7796, 12.58832
962.2617, 12.84490
962.7438, 12.93010
963.2260, 12.88760
963.7081, 12.78313
964.1902, 12.56051
964.6723, 12.58661
965.1544, 13.09106
965.6365, 13.46234
966.1187, 13.54669
966.6008, 13.46157
967.0829, 13.23679
967.5650, 12.92033
968.0471, 12.65203
968.5292, 12.41401
969.0114, 12.29073
969.4935, 12.30948
969.9756, 12.42586
970.4577, 12.83305
970.9398, 13.18016
971.4219, 12.92498
971.9041, 12.20480
972.3862, 11.84411
972.8683, 12.26167
973.3504, 12.77013
973.8325, 13.13553
974.3146, 13.33404
974.7968, 13.28543
975.2789, 13.07576
975.7610, 12.79370
976.2431, 12.49543
976.7252, 12.32997
977.2073, 12.41381
977.6895, 12.63954
978.1716, 13.06526
978.6537, 13.46340
979.1358, 13.19444
979.6179, 12.50469
980.1000, 12.55545
980.5822, 13.71883
981.0643, 14.87964
981.5464, 14.89964
982.0285, 14.13403
982.5106, 13.12129
982.9927, 12.02213
983.4749, 11.74803
983.9570, 12.37736
984.4391, 13.04848
984.9212, 13.31562
985.4033, 13.33970
985.8854, 13.32383
986.3676, 13.27800
986.8497, 13.31874
987.3318, 13.46395
987.8139, 13.46708
988.2960, 13.25517
988.7781, 13.00758
989.2603, 12.82087
989.7424, 12.70798
990.2245, 12.68769
990.7066, 12.75420
991.1887, 12.98871
991.6708, 13.51864
992.1530, 13.91431
992.6351, 14.09963
993.1172, 14.07847
993.5993, 13.69246
994.0814, 13.14625
994.5635, 13.12304
995.0457, 13.99181
995.5278, 14.33991
996.0099, 13.58010
996.4920, 13.07170
996.9741, 13.26635
997.4562, 13.75448
997.9384, 14.35363
998.4205, 14.95751
998.9026, 15.22978
999.3847, 15.01952
999.8668, 14.76056
1000.349, 14.38792
1000.831, 14.15799
1001.313, 14.34745
1001.795, 14.63658
1002.277, 14.59399
1002.760, 14.29300
1003.242, 14.23663
1003.724, 14.69841
1004.206, 15.12946
1004.688, 15.33209
1005.170, 15.35438
1005.652, 15.07847
1006.134, 14.72841
1006.616, 14.63794
1007.099, 14.82938
1007.581, 15.08033
1008.063, 15.30532
1008.545, 15.49557
1009.027, 15.70377
1009.509, 15.82757
1009.991, 15.64170
1010.473, 15.30266
1010.956, 15.13360
1011.438, 15.21763
1011.920, 15.50381
1012.402, 16.05513
1012.884, 16.55252
1013.366, 16.50879
1013.848, 16.17391
1014.330, 15.99654
1014.812, 15.98025
1015.295, 15.99828
1015.777, 16.00745
1016.259, 16.02572
1016.741, 16.07116
1017.223, 16.12929
1017.705, 16.15059
1018.187, 16.16331
1018.669, 16.26538
1019.151, 16.46224
1019.634, 16.78259
1020.116, 17.23031
1020.598, 17.49237
1021.080, 17.16664
1021.562, 16.55433
1022.044, 16.61480
1022.526, 17.26433
1023.008, 17.62489
1023.491, 17.61081
1023.973, 17.38775
1024.455, 16.99284
1024.937, 16.73925
1025.419, 17.05308
1025.901, 17.75176
1026.383, 17.93917
1026.865, 17.57140
1027.348, 17.38634
1027.830, 17.49188
1028.312, 17.53084
1028.794, 17.29805
1029.276, 17.07917
1029.758, 17.25491
1030.240, 17.76777
1030.722, 18.18057
1031.204, 18.51445
1031.687, 18.59606
1032.169, 18.25614
1032.651, 18.14102
1033.133, 18.68081
1033.615, 19.36149
1034.097, 19.47202
1034.579, 19.06210
1035.061, 18.90036
1035.543, 19.07360
1036.026, 19.27656
1036.508, 19.51353
1036.990, 19.72726
1037.472, 19.90939
1037.954, 20.03312
1038.436, 20.04565
1038.918, 19.95176
1039.400, 19.88800
1039.883, 19.76427
1040.365, 19.85009
1040.847, 20.46241
1041.329, 20.88210
1041.811, 20.56179
1042.293, 20.03662
1042.775, 20.04558
1043.257, 20.57165
1043.740, 20.92957
1044.222, 21.12291
1044.704, 21.14320
1045.186, 20.77533
1045.668, 20.48450
1046.150, 20.50057
1046.632, 20.68588
1047.114, 20.89399
1047.596, 21.11831
1048.078, 21.35336
1048.561, 21.41380
1049.043, 21.76670
1049.525, 22.93540
1050.007, 23.86866
1050.489, 23.79857
1050.971, 23.39381
1051.453, 23.52737
1051.935, 24.16539
1052.418, 24.55007
1052.900, 24.15613
1053.382, 24.19893
1053.864, 25.32213
1054.346, 26.47074
1054.828, 27.01541
1055.310, 27.33675
1055.792, 27.93515
1056.275, 28.79109
1056.757, 29.51924
1057.239, 30.07899
1057.721, 30.41360
1058.203, 30.19051
1058.685, 30.09880
1059.167, 30.42278
1059.649, 31.15221
1060.131, 32.53382
1060.614, 34.33040
1061.096, 35.50672
1061.578, 35.43847
1062.060, 35.66190
1062.542, 36.85663
1063.024, 38.30120
1063.506, 39.88107
1063.988, 41.27982
1064.470, 41.96067
1064.953, 42.13512
1065.435, 42.68041
1065.917, 43.90279
1066.399, 45.27785
1066.881, 46.85078
1067.363, 48.22733
1067.845, 48.87085
1068.327, 49.42544
1068.810, 50.67336
1069.292, 52.47158
1069.774, 54.13527
1070.256, 55.42962
1070.738, 56.84733
1071.220, 58.66188
1071.702, 60.57186
1072.184, 62.44344
1072.667, 64.28142
1073.149, 66.01324
1073.631, 67.71862
1074.113, 69.58492
1074.595, 71.66576
1075.077, 73.78161
1075.559, 75.80193
1076.041, 77.87190
1076.523, 79.75137
1077.005, 81.98441
1077.488, 85.33359
1077.970, 89.40837
1078.452, 93.15938
1078.934, 96.34153
1079.416, 100.1654
1079.898, 104.9323
1080.380, 110.8050
1080.862, 117.9359
1081.344, 126.1899
1081.827, 134.9044
1082.309, 144.8482
1082.791, 157.2800
1083.273, 172.4544
1083.755, 189.4367
1084.237, 208.0631
1084.719, 228.2129
1085.201, 251.0547
1085.684, 274.1225
1086.166, 295.6281
1086.648, 315.8824
1087.130, 335.3669
1087.612, 354.2349
1088.094, 372.9732
1088.576, 391.2034
1089.058, 410.2272
1089.541, 430.6003
1090.023, 452.0789
1090.505, 473.8022
1090.987, 496.9797
1091.469, 523.5554
1091.951, 553.3342
1092.433, 584.6918
1092.915, 617.7586
1093.397, 650.1716
1093.880, 679.3605
1094.362, 709.3297
1094.844, 743.4550
1095.326, 778.4921
1095.808, 812.5877
1096.290, 844.0800
1096.772, 871.2030
1097.254, 895.0015
1097.736, 905.8615
1098.219, 904.3771
1098.701, 884.3919
1099.183, 838.4259
1099.665, 776.7154
1100.147, 702.2548
1100.629, 621.1514
1101.111, 542.1647
1101.593, 465.9280
1102.076, 398.0461
1102.558, 339.9318
1103.040, 289.9611
1103.522, 248.7004
1104.004, 213.9221
1104.486, 185.1575
1104.968, 161.4416
1105.450, 142.2726
1105.932, 127.4944
1106.415, 114.4967
1106.897, 102.7318
1107.379, 92.89192
1107.861, 85.96390
1108.343, 80.02696
1108.825, 74.23075
1109.307, 68.75062
1109.789, 63.76908
1110.271, 59.34054
1110.754, 55.54004
1111.236, 52.48912
1111.718, 49.86645
1112.200, 47.75958
1112.682, 45.91730
1113.164, 44.24097
1113.646, 42.78001
1114.128, 41.64144
1114.611, 40.74739
1115.093, 39.84296
1115.575, 38.84394
1116.057, 38.08288
1116.539, 37.88874
1117.021, 37.42816
1117.503, 36.30496
1117.985, 35.14791
1118.468, 34.34664
1118.950, 33.79743
1119.432, 33.29656
1119.914, 32.83136
1120.396, 32.58080
1120.878, 32.68693
1121.360, 32.70385
1121.842, 32.58306
1122.324, 32.35307
1122.807, 31.95838
1123.289, 31.55394
1123.771, 31.34924
1124.253, 31.31811
1124.735, 31.22191
1125.217, 30.99799
1125.699, 30.95941
1126.181, 31.22794
1126.663, 31.32046
1127.146, 30.99193
1127.628, 30.64130
1128.110, 30.62757
1128.592, 30.87995
1129.074, 31.25404
1129.556, 31.79424
1130.038, 31.93874
1130.520, 31.64413
1131.003, 31.18206
1131.485, 30.54857
1131.967, 30.22765
1132.449, 30.59297
1132.931, 31.18310
1133.413, 31.18369
1133.895, 30.72265
1134.377, 30.77005
1134.859, 31.30440
1135.342, 31.62663
1135.824, 31.64743
1136.306, 31.70674
1136.788, 31.95638
1137.270, 32.14600
1137.752, 31.95592
1138.234, 31.62997
1138.716, 31.89825
1139.198, 32.56342
1139.681, 32.67127
1140.163, 32.28573
1140.645, 32.12162
1141.127, 32.37211
1141.609, 32.81654
1142.091, 33.30719
1142.573, 33.89354
1143.055, 34.80931
1143.538, 35.77457
1144.020, 36.26882
1144.502, 36.31744
1144.984, 35.75049
1145.466, 34.80843
1145.948, 34.51353
1146.430, 35.28650
1146.912, 36.22063
1147.395, 36.49737
1147.877, 36.55017
1148.359, 36.86341
1148.841, 37.26907
1149.323, 37.52414
1149.805, 37.67252
1150.287, 37.91201
1150.769, 38.24928
1151.251, 38.37487
1151.734, 37.94611
1152.216, 37.72810
1152.698, 38.49361
1153.180, 39.40078
1153.662, 39.79185
1154.144, 39.86633
1154.626, 39.78213
1155.108, 39.68552
1155.590, 39.93838
1156.073, 40.71610
1156.555, 41.31953
1157.037, 41.21574
1157.519, 41.27167
1158.001, 42.08103
1158.483, 42.95050
1158.965, 43.34242
1159.447, 43.42875
1159.930, 43.56411
1160.412, 43.77449
1160.894, 43.80772
1161.376, 43.18909
1161.858, 43.09876
1162.340, 44.01813
1162.822, 44.99397
1163.304, 45.68121
1163.786, 46.27179
1164.269, 47.00407
1164.751, 47.77317
1165.233, 48.20788
1165.715, 48.22306
1166.197, 48.24439
1166.679, 48.14942
1167.161, 48.45123
1167.643, 49.42281
1168.125, 50.32878
1168.608, 50.67265
1169.090, 50.86148
1169.572, 51.54297
1170.054, 52.62611
1170.536, 53.37523
1171.018, 53.77811
1171.500, 54.20382
1171.982, 54.69019
1172.465, 54.92577
1172.947, 54.77981
1173.429, 54.92572
1173.911, 55.98124
1174.393, 57.43549
1174.875, 58.40481
1175.357, 58.94174
1175.839, 59.07136
1176.322, 58.96555
1176.804, 59.44032
1177.286, 60.50835
1177.768, 61.28357
1178.250, 61.38042
1178.732, 61.58190
1179.214, 62.81236
1179.696, 64.31985
1180.178, 65.13260
1180.661, 65.53902
1181.143, 65.82251
1181.625, 66.13146
1182.107, 66.73950
1182.589, 67.63293
1183.071, 68.42834
1183.553, 68.88170
1184.035, 69.45112
1184.517, 70.56371
1185.000, 71.73061
1185.482, 72.75800
1185.964, 73.53528
1186.446, 73.63942
1186.928, 73.50187
1187.410, 74.14553
1187.892, 75.75844
1188.374, 77.31416
1188.857, 78.91174
1189.339, 79.91450
1189.821, 79.37547
1190.303, 79.18982
1190.785, 80.82818
1191.267, 82.84237
1191.749, 83.57897
1192.231, 83.37178
1192.714, 83.50216
1193.196, 83.97001
1193.678, 84.83716
1194.160, 86.38289
1194.642, 87.51230
1195.124, 87.82335
1195.606, 88.24174
1196.088, 89.32352
1196.570, 90.70881
1197.052, 91.88622
1197.535, 92.93229
1198.017, 94.31402
1198.499, 96.01732
1198.981, 97.51018
1199.463, 98.74733
1199.945, 99.29084
1200.427, 99.06016
1200.909, 99.11909
1201.392, 100.2384
1201.874, 101.7059
1202.356, 102.4021
1202.838, 102.7775
1203.320, 103.8547
1203.802, 105.3570
1204.284, 106.6786
1204.766, 107.7947
1205.249, 108.9353
1205.731, 110.1458
1206.213, 111.1017
1206.695, 111.4498
1207.177, 111.8587
1207.659, 113.0344
1208.141, 114.2912
1208.623, 114.9732
1209.105, 115.4053
1209.588, 115.9192
1210.070, 116.6075
1210.552, 117.6719
1211.034, 119.2307
1211.516, 120.3736
1211.998, 120.2852
1212.480, 120.6590
1212.962, 122.3437
1213.444, 124.0725
1213.927, 125.1838
1214.409, 125.9935
1214.891, 126.7153
1215.373, 127.4366
1215.855, 128.6245
1216.337, 130.5415
1216.819, 131.6898
1217.301, 131.8545
1217.784, 132.0088
1218.266, 132.2659
1218.748, 132.9938
1219.230, 134.4745
1219.712, 136.1895
1220.194, 137.5090
1220.676, 138.4918
1221.158, 139.2542
1221.641, 139.8610
1222.123, 140.6187
1222.605, 141.5483
1223.087, 142.7844
1223.569, 144.2609
1224.051, 145.2095
1224.533, 145.1552
1225.015, 145.3854
1225.497, 147.8276
1225.979, 150.6398
1226.462, 151.3757
1226.944, 151.3871
1227.426, 152.5438
1227.908, 154.4142
1228.390, 155.7584
1228.872, 156.4361
1229.354, 157.1678
1229.836, 158.1550
1230.319, 159.3545
1230.801, 161.2526
1231.283, 162.7060
1231.765, 162.4464
1232.247, 162.3252
1232.729, 164.3026
1233.211, 167.1635
1233.693, 168.6262
1234.176, 168.7426
1234.658, 168.9523
1235.140, 168.9447
1235.622, 170.1576
1236.104, 173.1889
1236.586, 175.3998
1237.068, 175.8160
1237.550, 176.2271
1238.032, 177.9395
1238.515, 180.2913
1238.997, 182.3185
1239.479, 183.9564
1239.961, 184.6596
1240.443, 184.7553
1240.925, 185.9685
1241.407, 188.1204
1241.889, 189.4840
1242.371, 189.7068
1242.854, 190.1512
1243.336, 191.6828
1243.818, 193.5496
1244.300, 195.1130
1244.782, 196.6169
1245.264, 198.3089
1245.746, 200.0810
1246.228, 201.9587
1246.711, 203.7338
1247.193, 204.8798
1247.675, 205.3987
1248.157, 206.2285
1248.639, 207.7190
1249.121, 209.2906
1249.603, 211.2648
1250.085, 212.6994
1250.568, 212.5736
1251.050, 212.7488
1251.532, 214.8171
1252.014, 217.5780
1252.496, 218.9571
1252.978, 219.1143
1253.460, 219.8820
1253.942, 221.3326
1254.424, 222.6933
1254.906, 223.9264
1255.389, 224.5192
1255.871, 224.3442
1256.353, 224.5306
1256.835, 225.8176
1257.317, 227.5921
1257.799, 229.2539
1258.281, 230.7060
1258.763, 231.5363
1259.246, 232.1711
1259.728, 233.6278
1260.210, 235.4776
1260.692, 236.4895
1261.174, 236.6039
1261.656, 236.8571
1262.138, 237.7117
1262.620, 238.4178
1263.103, 238.2236
1263.585, 238.3485
1264.067, 239.7122
1264.549, 241.1802
1265.031, 241.9196
1265.513, 242.3031
1265.995, 242.8836
1266.477, 243.6194
1266.959, 244.3356
1267.442, 245.2350
1267.924, 245.1690
1268.406, 243.8698
1268.888, 242.7409
1269.370, 241.9771
1269.852, 242.0336
1270.334, 243.2061
1270.816, 244.6423
1271.298, 245.4931
##END=



