##NAMES=Dolomite
##RRUFFID=R050370
##IDEAL CHEMISTRY=CaMg(CO_3_)_2_
##LOCALITY=Morro Velho mine, Nova Lima, Minas Gerais, Brazil
##OWNER=RRUFF
##SOURCE=Eugene Schlepp
##DESCRIPTION=Colorless bladed crystals associated with pyrrhotite and albite
##STATUS=The identification of this mineral has been confirmed by X-ray diffraction and chemical analysis
##URL=rruff.info/R050370
##MEASURED CHEMISTRY=(Ca_0.84_Fe_0.16_)_Σ=1_(Mg_0.98_Mn_0.02_)_Σ=1_(CO_3_)_2_ ; CO_2_ estimated by difference
93.48767, 128.9028
93.96979, 133.7859
94.45190, 136.6560
94.93402, 135.4444
95.41614, 131.1599
95.89825, 126.7332
96.38037, 124.2292
96.86249, 123.0227
97.34460, 121.3239
97.82672, 118.5070
98.30884, 116.2701
98.79095, 115.3607
99.27307, 115.0866
99.75519, 114.2094
100.2373, 112.2571
100.7194, 109.5884
101.2015, 107.5978
101.6837, 106.9521
102.1658, 106.3518
102.6479, 104.4066
103.1300, 100.9088
103.6121, 97.96415
104.0942, 97.70329
104.5764, 99.01283
105.0585, 100.4067
105.5406, 101.5848
106.0227, 102.4792
106.5048, 102.8500
106.9869, 102.5691
107.4691, 101.8101
107.9512, 100.5369
108.4333, 98.89693
108.9154, 97.24104
109.3975, 95.80708
109.8796, 94.57757
110.3618, 93.65971
110.8439, 93.33829
111.3260, 93.07781
111.8081, 92.55936
112.2902, 91.79558
112.7723, 91.08243
113.2544, 90.86707
113.7366, 91.60349
114.2187, 92.01251
114.7008, 91.87056
115.1829, 91.54369
115.6650, 91.25060
116.1471, 91.06212
116.6293, 91.12598
117.1114, 91.97253
117.5935, 94.51735
118.0756, 96.07850
118.5577, 95.37347
119.0398, 93.15720
119.5220, 91.15224
120.0041, 89.98628
120.4862, 89.72758
120.9683, 90.27776
121.4504, 92.04967
121.9325, 93.91521
122.4147, 95.09825
122.8968, 95.59257
123.3789, 95.47083
123.8610, 93.99342
124.3431, 92.15462
124.8252, 90.92099
125.3074, 90.67475
125.7895, 91.08909
126.2716, 91.47728
126.7537, 91.67082
127.2358, 92.16881
127.7179, 93.51031
128.2001, 95.11346
128.6822, 96.17741
129.1643, 96.10933
129.6464, 95.02647
130.1285, 94.43307
130.6107, 94.62160
131.0928, 95.06607
131.5749, 95.76457
132.0570, 96.63792
132.5391, 97.57106
133.0212, 98.45826
133.5033, 99.29191
133.9855, 100.1611
134.4676, 101.1346
134.9497, 102.0831
135.4318, 102.9003
135.9139, 103.5888
136.3960, 104.2451
136.8782, 104.8584
137.3603, 105.3215
137.8424, 106.6567
138.3245, 110.2062
138.8066, 114.1644
139.2887, 116.1024
139.7709, 115.1918
140.2530, 113.3974
140.7351, 113.1490
141.2172, 114.2664
141.6993, 115.6889
142.1814, 116.9756
142.6636, 118.2017
143.1457, 119.6744
143.6278, 121.5331
144.1099, 123.5867
144.5920, 125.7143
145.0741, 127.8997
145.5563, 130.0479
146.0384, 131.6936
146.5205, 132.6128
147.0026, 134.9105
147.4847, 140.5295
147.9668, 146.6649
148.4490, 151.5931
148.9311, 155.0041
149.4132, 158.1670
149.8953, 163.0246
150.3774, 170.3544
150.8595, 178.0146
151.3417, 185.5883
151.8238, 193.4294
152.3059, 201.7115
152.7880, 210.4620
153.2701, 219.8676
153.7522, 230.2896
154.2344, 243.7455
154.7165, 255.8542
155.1986, 266.4291
155.6807, 275.6182
156.1628, 283.4855
156.6449, 289.9755
157.1271, 295.3520
157.6092, 300.6028
158.0913, 305.2767
158.5734, 310.3704
159.0555, 315.7304
159.5376, 321.6467
160.0198, 328.9813
160.5019, 338.4515
160.9840, 349.6797
161.4661, 360.6611
161.9482, 370.8161
162.4303, 381.3318
162.9125, 393.1306
163.3946, 406.1635
163.8767, 419.3365
164.3588, 431.5005
164.8409, 443.5180
165.3230, 456.9024
165.8052, 471.8206
166.2873, 488.2405
166.7694, 505.6518
167.2515, 523.7972
167.7336, 544.1734
168.2157, 567.6436
168.6979, 593.6099
169.1800, 622.1536
169.6621, 654.0807
170.1442, 688.0724
170.6263, 720.8976
171.1084, 753.5494
171.5906, 782.9290
172.0727, 809.9733
172.5548, 833.4932
173.0369, 852.7225
173.5190, 868.2082
174.0011, 878.8838
174.4833, 875.7084
174.9654, 852.2228
175.4475, 819.0182
175.9296, 774.2970
176.4117, 721.5311
176.8938, 665.1577
177.3760, 607.9852
177.8581, 549.8806
178.3402, 496.3752
178.8223, 446.0294
179.3044, 401.0218
179.7865, 363.5548
180.2687, 332.5973
180.7508, 305.4150
181.2329, 279.8974
181.7150, 256.0084
182.1971, 235.6696
182.6792, 219.8944
183.1614, 206.2265
183.6435, 193.1461
184.1256, 180.6763
184.6077, 170.0065
185.0898, 162.6265
185.5719, 158.8523
186.0541, 154.3624
186.5362, 148.4924
187.0183, 142.2172
187.5004, 135.9986
187.9825, 129.7951
188.4646, 124.8555
188.9468, 123.3159
189.4289, 124.3329
189.9110, 124.4801
190.3931, 122.6711
190.8752, 119.6454
191.3573, 116.3824
191.8395, 112.8170
192.3216, 109.3881
192.8037, 106.3285
193.2858, 103.6377
193.7679, 101.4078
194.2500, 99.84561
194.7322, 98.80061
195.2143, 97.75846
195.6964, 96.64857
196.1785, 95.66154
196.6606, 95.12503
197.1427, 94.78563
197.6249, 94.07434
198.1070, 92.41362
198.5891, 89.93238
199.0712, 87.94356
199.5533, 86.66888
200.0354, 85.70909
200.5176, 85.04198
200.9997, 84.56845
201.4818, 84.09538
201.9639, 83.40969
202.4460, 82.49379
202.9281, 82.01622
203.4103, 82.52678
203.8924, 83.00516
204.3745, 83.27975
204.8566, 83.28126
205.3387, 82.90540
205.8208, 81.97969
206.3030, 80.37997
206.7851, 79.38612
207.2672, 79.55692
207.7493, 79.73929
208.2314, 79.36679
208.7135, 78.55708
209.1957, 77.84956
209.6778, 77.77890
210.1599, 78.48506
210.6420, 78.71138
211.1241, 77.93261
211.6062, 77.22536
212.0884, 77.21089
212.5705, 77.84612
213.0526, 78.68233
213.5347, 79.39301
214.0168, 79.97289
214.4989, 80.05387
214.9811, 79.34731
215.4632, 78.41646
215.9453, 77.52135
216.4274, 76.70885
216.9095, 76.07547
217.3916, 75.73291
217.8737, 75.70065
218.3559, 75.68652
218.8380, 75.61511
219.3201, 75.60616
219.8022, 75.73531
220.2843, 76.00864
220.7664, 76.49868
221.2486, 77.61872
221.7307, 79.06768
222.2128, 79.54085
222.6949, 78.00860
223.1770, 75.84697
223.6591, 74.59669
224.1413, 74.37255
224.6234, 74.53638
225.1055, 74.78438
225.5876, 75.09579
226.0697, 75.44961
226.5518, 75.95689
227.0340, 76.44173
227.5161, 76.62152
227.9982, 76.44322
228.4803, 76.13732
228.9624, 75.72220
229.4445, 75.29023
229.9267, 74.97300
230.4088, 74.85786
230.8909, 74.85482
231.3730, 74.79220
231.8551, 74.64414
232.3372, 74.50258
232.8194, 74.27015
233.3015, 74.10353
233.7836, 74.22858
234.2657, 74.79573
234.7478, 75.61581
235.2299, 76.24397
235.7121, 76.55046
236.1942, 76.93263
236.6763, 77.73502
237.1584, 78.57622
237.6405, 79.01730
238.1227, 78.84079
238.6048, 78.27504
239.0869, 77.83144
239.5690, 77.22868
240.0511, 77.31922
240.5332, 78.75414
241.0154, 80.62193
241.4975, 82.10138
241.9796, 82.84837
242.4617, 82.92086
242.9438, 82.30759
243.4259, 79.76100
243.9081, 78.58346
244.3902, 79.83568
244.8723, 82.12477
245.3544, 84.28319
245.8365, 85.84636
246.3186, 86.88344
246.8008, 87.51936
247.2829, 87.08998
247.7650, 87.24165
248.2471, 88.15244
248.7292, 89.56924
249.2113, 91.49105
249.6935, 93.86314
250.1756, 96.23584
250.6577, 97.71483
251.1398, 97.54041
251.6219, 97.47694
252.1040, 97.29028
252.5862, 97.32881
253.0683, 97.99654
253.5504, 99.38233
254.0325, 101.1421
254.5146, 102.7099
254.9967, 103.8302
255.4789, 105.2368
255.9610, 107.1316
256.4431, 109.1838
256.9252, 111.0528
257.4073, 112.6777
257.8894, 114.3429
258.3716, 116.4686
258.8537, 119.3466
259.3358, 121.9239
259.8179, 123.7643
260.3000, 125.5741
260.7821, 128.1670
261.2643, 131.6416
261.7464, 135.1290
262.2285, 137.6375
262.7106, 138.8964
263.1927, 140.4108
263.6748, 141.3475
264.1570, 143.0871
264.6391, 147.3054
265.1212, 154.0439
265.6033, 161.1839
266.0854, 166.6355
266.5675, 170.2839
267.0497, 174.5417
267.5318, 179.7477
268.0139, 185.3572
268.4960, 191.0342
268.9781, 196.7326
269.4602, 202.3345
269.9424, 207.4050
270.4245, 212.2674
270.9066, 218.6487
271.3887, 227.5981
271.8708, 237.3459
272.3529, 246.3619
272.8351, 254.7463
273.3172, 263.7343
273.7993, 274.2746
274.2814, 286.0536
274.7635, 297.7366
275.2456, 308.8167
275.7278, 320.2675
276.2099, 333.1971
276.6920, 347.3873
277.1741, 360.9240
277.6562, 372.2007
278.1383, 382.7095
278.6205, 395.2801
279.1026, 410.7298
279.5847, 426.7308
280.0668, 441.6800
280.5489, 455.8350
281.0310, 470.4934
281.5132, 486.6865
281.9953, 502.9603
282.4774, 516.9365
282.9595, 528.1583
283.4416, 539.7675
283.9237, 553.9910
284.4059, 570.2449
284.8880, 586.3097
285.3701, 601.7067
285.8522, 616.5472
286.3343, 630.8576
286.8164, 644.6633
287.2986, 658.6188
287.7807, 673.0447
288.2628, 687.9193
288.7449, 703.0828
289.2270, 718.7411
289.7091, 734.3623
290.1913, 750.4575
290.6734, 766.5093
291.1555, 780.7709
291.6376, 791.5279
292.1197, 799.9059
292.6018, 809.1158
293.0840, 820.2278
293.5661, 829.7246
294.0482, 835.4905
294.5303, 838.1543
295.0124, 838.4368
295.4945, 836.6787
295.9767, 832.6268
296.4588, 826.1732
296.9409, 817.7357
297.4230, 805.3609
297.9051, 786.2105
298.3872, 762.9573
298.8694, 738.2747
299.3515, 713.1380
299.8336, 686.4369
300.3157, 656.1343
300.7978, 621.5663
301.2799, 586.2603
301.7621, 549.6309
302.2442, 513.7585
302.7263, 480.2740
303.2084, 449.4106
303.6905, 421.0976
304.1726, 395.4651
304.6548, 372.6423
305.1369, 350.7380
305.6190, 328.8448
306.1011, 308.1296
306.5832, 289.5870
307.0653, 273.2610
307.5475, 258.3299
308.0296, 244.1855
308.5117, 230.8759
308.9938, 218.6696
309.4759, 207.8160
309.9580, 198.0183
310.4402, 189.0473
310.9223, 180.8685
311.4044, 173.3601
311.8865, 166.6490
312.3686, 160.6352
312.8507, 154.6739
313.3329, 148.3948
313.8150, 142.8643
314.2971, 138.5594
314.7792, 135.2602
315.2613, 132.6375
315.7434, 130.8494
316.2256, 129.4277
316.7077, 127.3129
317.1898, 124.2757
317.6719, 121.1165
318.1540, 118.0522
318.6361, 115.1032
319.1183, 112.1685
319.6004, 109.0229
320.0825, 106.3911
320.5646, 105.6551
321.0467, 107.2100
321.5288, 108.1324
322.0110, 106.8481
322.4931, 104.9366
322.9752, 103.4889
323.4573, 102.6748
323.9394, 102.3377
324.4215, 102.5324
324.9037, 103.2428
325.3858, 103.7249
325.8679, 103.8195
326.3500, 103.6507
326.8321, 103.1162
327.3142, 102.3204
327.7964, 101.8373
328.2785, 102.4631
328.7606, 103.8487
329.2427, 104.1384
329.7248, 102.5243
330.2069, 101.0431
330.6891, 100.7563
331.1712, 101.4767
331.6533, 102.9258
332.1354, 105.5081
332.6175, 108.4734
333.0996, 110.1810
333.5818, 110.3175
334.0639, 110.2284
334.5460, 110.6987
335.0281, 111.2820
335.5102, 111.3271
335.9923, 110.3878
336.4745, 109.5143
336.9566, 110.2419
337.4387, 112.6905
337.9208, 114.6474
338.4029, 115.2475
338.8850, 115.0930
339.3671, 115.0008
339.8492, 115.0975
340.3314, 114.2997
340.8135, 111.4010
341.2956, 106.6980
341.7777, 102.0622
342.2598, 97.37543
342.7419, 93.53935
343.2241, 91.65780
343.7062, 91.35890
344.1883, 90.84341
344.6704, 89.14197
345.1525, 86.64775
345.6346, 84.25642
346.1168, 82.12666
346.5989, 79.74715
347.0810, 76.25156
347.5631, 72.29635
348.0452, 69.03621
348.5273, 66.73404
349.0095, 65.27751
349.4916, 64.98927
349.9737, 65.90891
350.4558, 66.19273
350.9379, 64.46551
351.4200, 61.89174
351.9022, 60.41328
352.3843, 60.40322
352.8664, 60.70391
353.3485, 60.65292
353.8306, 60.30225
354.3127, 59.79020
354.7949, 58.99878
355.2770, 58.32135
355.7591, 58.39157
356.2412, 59.19056
356.7233, 59.81276
357.2054, 59.95764
357.6876, 59.71815
358.1697, 59.13237
358.6518, 58.15324
359.1339, 57.20410
359.6160, 56.79623
360.0981, 56.78441
360.5803, 56.39230
361.0624, 54.95888
361.5445, 53.54075
362.0266, 53.12141
362.5087, 53.60850
362.9908, 54.19421
363.4730, 54.47569
363.9551, 54.51566
364.4372, 54.56223
364.9193, 54.78390
365.4014, 54.74493
365.8835, 54.01986
366.3657, 52.93193
366.8478, 52.19698
367.3299, 52.10835
367.8120, 52.21941
368.2941, 51.78942
368.7762, 50.69796
369.2584, 49.65326
369.7405, 48.36292
370.2226, 47.38947
370.7047, 47.60000
371.1868, 49.00584
371.6689, 50.37309
372.1511, 50.54124
372.6332, 49.43768
373.1153, 48.73959
373.5974, 48.55437
374.0795, 48.61463
374.5616, 49.13242
375.0438, 49.81143
375.5259, 49.89610
376.0080, 48.91515
376.4901, 47.18816
376.9722, 45.84355
377.4543, 44.20414
377.9365, 43.79729
378.4186, 45.96275
378.9007, 48.90772
379.3828, 50.65854
379.8649, 50.67522
380.3470, 49.71024
380.8292, 48.73488
381.3113, 47.58042
381.7934, 46.97691
382.2755, 47.68069
382.7576, 48.20874
383.2397, 47.34779
383.7219, 45.44669
384.2040, 43.91321
384.6861, 43.95810
385.1682, 45.43238
385.6503, 45.94690
386.1324, 43.55379
386.6146, 42.36020
387.0967, 44.09317
387.5788, 47.09465
388.0609, 49.26495
388.5430, 49.70374
389.0251, 49.06018
389.5073, 48.66477
389.9894, 48.90163
390.4715, 48.54628
390.9536, 46.29810
391.4357, 44.46219
391.9178, 45.20619
392.4000, 48.25082
392.8821, 51.05679
393.3642, 50.92970
393.8463, 47.75821
394.3284, 45.30664
394.8105, 43.60738
395.2927, 42.67157
395.7748, 42.97526
396.2569, 43.91979
396.7390, 44.53359
397.2211, 44.28838
397.7032, 43.53164
398.1854, 42.98609
398.6675, 42.62540
399.1496, 42.55720
399.6317, 43.08467
400.1138, 43.75132
400.5959, 44.31533
401.0781, 44.72450
401.5602, 44.80576
402.0423, 44.20786
402.5244, 43.01144
403.0065, 42.07503
403.4886, 41.41748
403.9708, 41.18902
404.4529, 41.71047
404.9350, 42.72169
405.4171, 43.49325
405.8992, 43.69715
406.3813, 43.48708
406.8635, 42.97034
407.3456, 42.09144
407.8277, 41.41990
408.3098, 41.34231
408.7919, 41.60248
409.2740, 41.72931
409.7562, 41.61420
410.2383, 41.58389
410.7204, 41.78633
411.2025, 42.22721
411.6846, 43.07441
412.1667, 44.56639
412.6489, 45.91984
413.1310, 45.93085
413.6131, 44.64959
414.0952, 43.66743
414.5773, 43.48579
415.0594, 43.56363
415.5416, 43.43821
416.0237, 43.09066
416.5058, 42.65452
416.9879, 42.16131
417.4700, 41.66954
417.9521, 41.49476
418.4343, 41.77768
418.9164, 42.14672
419.3985, 42.56368
419.8806, 42.98773
420.3627, 43.44549
420.8448, 43.94213
421.3270, 44.20602
421.8091, 43.72456
422.2912, 41.86593
422.7733, 41.16996
423.2554, 42.88016
423.7375, 44.57961
424.2197, 44.50640
424.7018, 43.05253
425.1839, 41.88218
425.6660, 42.25112
426.1481, 43.87785
426.6302, 44.86246
427.1124, 45.42113
427.5945, 44.93096
428.0766, 42.09614
428.5587, 38.81457
429.0408, 37.07008
429.5229, 37.42144
430.0051, 38.77909
430.4872, 39.62955
430.9693, 39.78631
431.4514, 40.20245
431.9335, 41.49842
432.4156, 42.52196
432.8978, 42.81748
433.3799, 42.45537
433.8620, 41.62191
434.3441, 40.15893
434.8262, 38.52639
435.3083, 38.19731
435.7905, 39.61039
436.2726, 41.12025
436.7547, 42.47216
437.2368, 43.48166
437.7189, 43.78384
438.2010, 43.26450
438.6832, 42.72277
439.1653, 43.18151
439.6474, 44.33650
440.1295, 44.35151
440.6116, 42.41743
441.0938, 40.32462
441.5759, 39.76297
442.0580, 40.31546
442.5401, 40.80058
443.0222, 40.80012
443.5043, 40.65120
443.9865, 40.65500
444.4686, 40.80914
444.9507, 41.11979
445.4328, 41.71289
445.9149, 42.33639
446.3970, 42.32952
446.8792, 41.41802
447.3613, 40.77941
447.8434, 41.12312
448.3255, 41.73227
448.8076, 41.50286
449.2897, 40.30985
449.7719, 39.29228
450.2540, 39.66660
450.7361, 41.54129
451.2182, 42.36960
451.7003, 41.66784
452.1824, 40.62787
452.6646, 39.09585
453.1467, 37.64016
453.6288, 37.39246
454.1109, 38.85237
454.5930, 41.01015
455.0751, 41.81258
455.5573, 40.38743
456.0394, 39.26328
456.5215, 38.33695
457.0036, 37.74236
457.4857, 37.51034
457.9678, 37.67291
458.4500, 38.33836
458.9321, 39.71550
459.4142, 41.62168
459.8963, 42.97363
460.3784, 43.51997
460.8605, 43.93211
461.3427, 44.62110
461.8248, 45.16721
462.3069, 44.97572
462.7890, 43.90215
463.2711, 42.82829
463.7532, 42.86740
464.2354, 43.91557
464.7175, 44.49065
465.1996, 44.34281
465.6817, 43.81637
466.1638, 42.90142
466.6459, 41.80922
467.1281, 41.08585
467.6102, 40.84136
468.0923, 41.10953
468.5744, 42.48134
469.0565, 44.76627
469.5386, 45.77935
470.0208, 44.24178
470.5029, 41.52652
470.9850, 40.04897
471.4671, 39.89332
471.9492, 39.99890
472.4313, 40.27085
472.9135, 40.57190
473.3956, 40.80911
473.8777, 40.95253
474.3598, 40.83450
474.8419, 40.18791
475.3240, 39.15424
475.8062, 39.17525
476.2883, 41.47363
476.7704, 43.17541
477.2525, 43.24261
477.7346, 42.60606
478.2167, 42.51210
478.6989, 43.24377
479.1810, 43.94363
479.6631, 43.35609
480.1452, 41.02604
480.6273, 39.77300
481.1094, 40.78952
481.5916, 41.67386
482.0737, 41.39335
482.5558, 40.48675
483.0379, 39.98173
483.5200, 40.39914
484.0021, 41.30602
484.4843, 42.00792
484.9664, 42.60121
485.4485, 42.52128
485.9306, 40.70611
486.4127, 38.99869
486.8948, 38.83800
487.3770, 40.02348
487.8591, 41.15574
488.3412, 41.09528
488.8233, 40.55204
489.3054, 41.17699
489.7875, 43.14174
490.2697, 44.61566
490.7518, 44.41211
491.2339, 43.24105
491.7160, 42.66299
492.1981, 42.93063
492.6802, 43.05834
493.1624, 42.32399
493.6445, 41.30914
494.1266, 40.98788
494.6087, 41.50894
495.0908, 42.13530
495.5729, 42.13915
496.0551, 41.53904
496.5372, 41.64682
497.0193, 43.47812
497.5014, 44.73003
497.9835, 44.18123
498.4656, 42.80952
498.9478, 42.12705
499.4299, 42.59374
499.9120, 43.29664
500.3941, 42.73327
500.8762, 40.20730
501.3583, 39.19152
501.8405, 41.55613
502.3226, 43.53209
502.8047, 43.39918
503.2868, 41.95754
503.7689, 40.74893
504.2510, 40.51225
504.7331, 40.91053
505.2152, 41.61144
505.6974, 42.83974
506.1795, 42.89735
506.6616, 39.93132
507.1437, 37.14285
507.6258, 37.19081
508.1079, 39.67435
508.5901, 42.15742
509.0722, 43.33189
509.5543, 43.88854
510.0364, 45.19214
510.5185, 47.21857
511.0006, 48.02425
511.4828, 46.21759
511.9649, 43.05756
512.4470, 41.24780
512.9291, 41.05718
513.4113, 40.97580
513.8934, 40.48626
514.3755, 40.00829
514.8576, 40.15555
515.3397, 40.87283
515.8218, 41.35192
516.3040, 40.87841
516.7861, 39.69763
517.2682, 39.59181
517.7503, 41.94817
518.2324, 43.65925
518.7145, 43.98042
519.1967, 43.82311
519.6788, 44.09505
520.1609, 44.91916
520.6430, 45.77351
521.1251, 46.19874
521.6072, 46.19369
522.0894, 45.61869
522.5715, 43.88731
523.0536, 42.52444
523.5357, 42.30424
524.0178, 42.56829
524.4999, 42.49609
524.9821, 41.84316
525.4642, 41.25123
525.9463, 41.25355
526.4284, 41.80491
526.9105, 42.89947
527.3926, 44.82428
527.8748, 46.41058
528.3569, 46.56863
528.8390, 45.61262
529.3211, 44.63588
529.8032, 43.56670
530.2853, 42.70026
530.7675, 42.36132
531.2496, 42.31494
531.7317, 41.90219
532.2138, 40.91752
532.6959, 40.29268
533.1780, 41.39979
533.6602, 44.80343
534.1423, 46.36710
534.6244, 44.81446
535.1065, 43.13462
535.5886, 42.54198
536.0707, 42.52961
536.5529, 42.08201
537.0350, 40.81922
537.5171, 39.47706
537.9992, 39.39600
538.4813, 40.90871
538.9634, 41.96330
539.4456, 42.22959
539.9277, 42.27532
540.4098, 42.31718
540.8919, 42.34029
541.3740, 42.28375
541.8561, 42.09517
542.3383, 41.87915
542.8204, 41.78720
543.3025, 41.80228
543.7846, 41.73702
544.2667, 41.48975
544.7488, 41.25826
545.2310, 41.25983
545.7131, 41.47483
546.1952, 41.81292
546.6773, 42.23109
547.1594, 42.79323
547.6415, 43.75166
548.1237, 44.88260
548.6058, 45.67309
549.0879, 45.91436
549.5700, 45.72050
550.0521, 45.20968
550.5342, 44.10632
551.0164, 43.55716
551.4985, 44.10146
551.9806, 44.56517
552.4627, 44.38662
552.9448, 43.75571
553.4269, 43.12462
553.9091, 42.71722
554.3912, 42.30249
554.8733, 41.18110
555.3554, 39.05666
555.8375, 38.29725
556.3196, 39.97630
556.8018, 42.24992
557.2839, 44.48440
557.7660, 46.37191
558.2481, 46.97811
558.7302, 45.27866
559.2123, 42.98655
559.6945, 41.83456
560.1766, 41.61689
560.6587, 41.35261
561.1408, 40.65304
561.6229, 40.14423
562.1050, 40.81978
562.5872, 42.97368
563.0693, 44.06364
563.5514, 43.12106
564.0335, 42.05192
564.5156, 42.22884
564.9977, 42.88720
565.4799, 42.19975
565.9620, 39.48875
566.4441, 36.47729
566.9262, 36.09147
567.4083, 39.12893
567.8904, 41.56223
568.3726, 43.82227
568.8547, 44.94089
569.3368, 43.69067
569.8189, 41.29359
570.3010, 39.73695
570.7831, 39.79657
571.2653, 40.58141
571.7474, 41.24546
572.2295, 41.76529
572.7116, 41.90627
573.1937, 41.49868
573.6758, 41.04507
574.1580, 41.21725
574.6401, 41.72964
575.1222, 41.43248
575.6043, 38.82922
576.0864, 36.97333
576.5685, 38.06473
577.0507, 40.70693
577.5328, 42.77697
578.0149, 43.70399
578.4970, 43.64451
578.9791, 42.58488
579.4612, 40.44780
579.9434, 39.26490
580.4255, 39.93008
580.9076, 40.52448
581.3897, 40.61603
581.8718, 40.50762
582.3539, 40.63556
582.8361, 41.05930
583.3182, 41.32756
583.8003, 40.69131
584.2824, 39.36594
584.7645, 39.09079
585.2466, 40.24695
585.7288, 41.38284
586.2108, 41.77214
586.6929, 41.71777
587.1750, 41.61947
587.6572, 41.49317
588.1393, 41.37193
588.6214, 41.29350
589.1035, 41.21696
589.5856, 41.08461
590.0677, 40.89407
590.5499, 40.68597
591.0320, 40.48914
591.5141, 40.28971
591.9962, 40.04179
592.4783, 39.91162
592.9604, 39.48113
593.4426, 38.28498
593.9247, 37.17073
594.4068, 36.72890
594.8889, 36.91837
595.3710, 37.40495
595.8531, 38.02425
596.3353, 38.69702
596.8174, 39.30971
597.2995, 39.91451
597.7816, 40.11039
598.2637, 39.55138
598.7458, 38.82235
599.2280, 38.23263
599.7101, 37.84894
600.1922, 38.03566
600.6743, 39.85152
601.1564, 41.46792
601.6385, 40.86793
602.1207, 38.77898
602.6028, 37.40065
603.0849, 37.48587
603.5670, 38.26984
604.0491, 38.79167
604.5313, 38.97805
605.0134, 39.36097
605.4955, 40.27509
605.9776, 40.97645
606.4597, 41.35725
606.9418, 41.33674
607.4240, 40.62355
607.9061, 39.21091
608.3882, 37.80812
608.8703, 37.19746
609.3524, 37.34511
609.8345, 37.96148
610.3167, 39.44572
610.7988, 40.39293
611.2809, 39.56231
611.7630, 38.02218
612.2451, 37.16142
612.7272, 37.11845
613.2094, 37.62716
613.6915, 39.22382
614.1736, 40.94296
614.6557, 41.47894
615.1378, 40.84186
615.6199, 39.76112
616.1021, 38.58443
616.5842, 37.51395
617.0663, 37.15640
617.5484, 37.98965
618.0305, 38.75295
618.5126, 39.83054
618.9948, 40.49216
619.4769, 39.97147
619.9590, 38.71724
620.4411, 37.85791
620.9232, 38.04836
621.4053, 38.52439
621.8875, 37.96442
622.3696, 36.39051
622.8517, 34.96849
623.3338, 33.73380
623.8159, 33.00121
624.2980, 33.17905
624.7802, 34.09283
625.2623, 35.24334
625.7444, 37.08079
626.2265, 38.49730
626.7086, 38.87842
627.1907, 38.58027
627.6729, 37.94255
628.1550, 37.10256
628.6371, 36.38637
629.1192, 36.10619
629.6013, 36.19674
630.0834, 36.10592
630.5656, 35.49314
631.0477, 35.27904
631.5298, 35.73676
632.0119, 36.47709
632.4940, 37.50140
632.9761, 38.61567
633.4583, 39.13784
633.9404, 38.39394
634.4225, 37.05236
634.9046, 35.88537
635.3867, 34.94464
635.8688, 35.14810
636.3510, 37.12107
636.8331, 39.53246
637.3152, 40.90682
637.7973, 41.16413
638.2794, 40.73175
638.7615, 38.80237
639.2437, 37.08850
639.7258, 36.05916
640.2079, 35.77157
640.6900, 36.75835
641.1721, 38.91115
641.6542, 40.58195
642.1364, 39.65629
642.6185, 36.43056
643.1006, 34.96904
643.5827, 36.12318
644.0648, 37.16920
644.5469, 37.26122
645.0291, 36.74058
645.5112, 35.44576
645.9933, 33.40664
646.4754, 32.39213
646.9575, 34.22414
647.4396, 36.73821
647.9218, 37.35724
648.4039, 36.46872
648.8860, 36.15450
649.3681, 37.32534
649.8502, 38.84074
650.3323, 38.85958
650.8145, 36.84290
651.2966, 35.81074
651.7787, 36.33703
652.2608, 37.14083
652.7429, 38.14198
653.2250, 39.06604
653.7072, 39.58074
654.1893, 39.61180
654.6714, 39.39606
655.1535, 38.95956
655.6356, 38.45570
656.1177, 38.56234
656.5999, 39.40283
657.0820, 39.90460
657.5641, 39.37125
658.0462, 38.40081
658.5283, 38.17446
659.0104, 38.83714
659.4926, 39.32195
659.9747, 39.60478
660.4568, 39.55214
660.9389, 38.81365
661.4210, 37.72053
661.9031, 36.92699
662.3853, 36.68447
662.8674, 36.72818
663.3495, 36.69813
663.8316, 36.58511
664.3137, 36.53790
664.7958, 36.54948
665.2780, 36.63987
665.7601, 36.96027
666.2422, 37.29621
666.7243, 37.27208
667.2064, 36.77060
667.6885, 36.63426
668.1707, 37.96087
668.6528, 39.39096
669.1349, 38.75200
669.6170, 36.59232
670.0991, 35.77655
670.5812, 37.73428
671.0634, 40.82440
671.5455, 42.16654
672.0276, 41.26067
672.5097, 40.47447
672.9918, 39.81850
673.4739, 39.27972
673.9561, 38.51069
674.4382, 38.01772
674.9203, 38.78327
675.4024, 41.03849
675.8845, 42.97205
676.3666, 42.53402
676.8488, 40.88569
677.3309, 40.73951
677.8130, 42.19352
678.2951, 43.53338
678.7772, 43.97217
679.2593, 43.81605
679.7415, 43.59499
680.2236, 43.26645
680.7057, 43.00708
681.1878, 42.80476
681.6699, 42.68078
682.1520, 42.58969
682.6342, 42.60226
683.1163, 42.89680
683.5984, 43.50474
684.0805, 44.09653
684.5626, 44.10456
685.0447, 43.73584
685.5269, 44.29279
686.0090, 46.00927
686.4911, 47.41160
686.9732, 47.61899
687.4553, 47.38418
687.9374, 48.17893
688.4196, 50.22802
688.9017, 51.20463
689.3838, 49.35842
689.8659, 47.73531
690.3480, 48.64485
690.8301, 50.91258
691.3123, 52.37135
691.7944, 52.34644
692.2765, 51.77823
692.7586, 51.56192
693.2407, 51.73396
693.7228, 53.07085
694.2050, 56.42427
694.6871, 58.63307
695.1692, 57.63108
695.6513, 55.66817
696.1334, 55.15193
696.6155, 56.10815
697.0977, 57.23363
697.5798, 57.86599
698.0619, 58.79809
698.5440, 60.71618
699.0261, 63.35415
699.5082, 66.28696
699.9904, 69.34315
700.4725, 72.18864
700.9546, 74.42146
701.4367, 76.08171
701.9188, 77.87102
702.4009, 80.01465
702.8831, 81.82903
703.3652, 82.59102
703.8473, 83.38683
704.3294, 84.57973
704.8115, 86.40107
705.2936, 89.88644
705.7758, 96.71036
706.2579, 104.0906
706.7400, 109.6761
707.2221, 114.1170
707.7042, 118.9234
708.1863, 124.4356
708.6685, 130.2330
709.1506, 136.0015
709.6327, 141.6813
710.1148, 146.6045
710.5969, 149.4521
711.0790, 153.9719
711.5612, 162.1673
712.0433, 170.7754
712.5254, 177.7948
713.0075, 183.4200
713.4896, 188.5098
713.9717, 192.7633
714.4539, 197.7779
714.9360, 205.6765
715.4181, 215.2898
715.9002, 223.8986
716.3823, 231.1045
716.8644, 237.8108
717.3466, 244.5536
717.8287, 251.4836
718.3108, 259.3527
718.7929, 268.9973
719.2750, 277.9316
719.7571, 285.8185
720.2393, 293.2700
720.7214, 301.1631
721.2035, 308.6643
721.6856, 314.2160
722.1677, 317.1971
722.6498, 318.6426
723.1320, 320.3040
723.6141, 320.7715
724.0962, 316.7133
724.5783, 308.0628
725.0604, 297.8565
725.5425, 287.7689
726.0247, 276.8906
726.5068, 263.0470
726.9889, 244.9017
727.4710, 227.8352
727.9531, 212.5631
728.4352, 197.5786
728.9174, 181.6512
729.3995, 166.1116
729.8816, 153.0033
730.3637, 142.7173
730.8458, 133.6756
731.3279, 124.9510
731.8101, 116.6226
732.2922, 108.6481
732.7743, 101.1455
733.2564, 95.03278
733.7385, 90.77734
734.2206, 87.05028
734.7028, 81.92568
735.1849, 75.15907
735.6670, 70.71401
736.1491, 71.19395
736.6312, 70.69604
737.1133, 67.23325
737.5955, 63.16288
738.0776, 60.67019
738.5597, 59.68791
739.0418, 58.62003
739.5239, 56.40806
740.0060, 53.98727
740.4882, 52.50275
740.9703, 51.69477
741.4524, 50.85021
741.9345, 49.81967
742.4166, 48.51575
742.8987, 46.74088
743.3809, 44.73900
743.8630, 43.78963
744.3451, 44.79275
744.8272, 45.21168
745.3093, 44.64207
745.7914, 43.75312
746.2736, 42.47262
746.7557, 41.22284
747.2378, 40.94078
747.7199, 42.18946
748.2020, 43.27249
748.6841, 42.40066
749.1663, 40.71801
749.6484, 40.38446
750.1305, 41.36030
750.6126, 42.21695
751.0947, 42.27690
751.5768, 41.50034
752.0590, 39.60084
752.5411, 36.05840
753.0232, 33.85588
753.5053, 33.55222
753.9874, 33.89362
754.4695, 34.91924
754.9517, 36.10059
755.4338, 36.92345
755.9159, 37.32265
756.3980, 37.40638
756.8801, 37.03601
757.3622, 36.53287
757.8444, 36.24988
758.3265, 36.07518
758.8086, 35.58728
759.2907, 34.72746
759.7728, 34.20836
760.2549, 34.88475
760.7371, 36.40697
761.2192, 36.36609
761.7013, 33.75117
762.1834, 32.32485
762.6655, 33.62806
763.1476, 35.38055
763.6298, 36.11523
764.1119, 36.07655
764.5940, 36.00108
765.0761, 36.14550
765.5582, 36.04504
766.0403, 35.16954
766.5225, 34.13474
767.0046, 33.73445
767.4867, 33.85824
767.9688, 33.85028
768.4509, 33.37584
768.9330, 32.61994
769.4152, 31.65002
769.8973, 30.41010
770.3794, 30.44772
770.8615, 32.22322
771.3436, 34.14721
771.8257, 35.97113
772.3079, 37.22492
772.7900, 36.96703
773.2721, 35.04875
773.7542, 33.67632
774.2363, 33.43979
774.7184, 33.55225
775.2006, 33.88905
775.6827, 34.20327
776.1648, 34.15067
776.6469, 33.71581
777.1290, 33.17334
777.6111, 32.65494
778.0933, 32.29263
778.5754, 32.50307
779.0575, 33.26104
779.5396, 33.88506
780.0217, 34.28353
780.5038, 34.36915
780.9860, 33.94212
781.4681, 33.17429
781.9502, 32.82409
782.4323, 33.32491
782.9144, 33.51537
783.3965, 32.92367
783.8787, 32.42997
784.3608, 32.80574
784.8429, 33.55342
785.3250, 33.64383
785.8071, 32.74837
786.2892, 31.87137
786.7714, 31.84666
787.2535, 32.42704
787.7356, 33.35430
788.2177, 34.52618
788.6998, 35.30529
789.1819, 35.41981
789.6641, 35.47389
790.1462, 36.34231
790.6283, 38.01645
791.1104, 38.41192
791.5925, 36.60271
792.0746, 35.07103
792.5568, 34.13332
793.0389, 33.69354
793.5210, 33.97953
794.0031, 34.73658
794.4852, 35.14785
794.9673, 34.78972
795.4495, 34.39997
795.9316, 34.38593
796.4137, 34.63721
796.8958, 35.29246
797.3779, 36.12348
797.8600, 36.19344
798.3422, 34.98835
798.8243, 33.44813
799.3064, 33.24335
799.7885, 34.43124
800.2706, 35.36182
800.7527, 36.30871
801.2349, 35.97514
801.7170, 32.52884
802.1991, 28.72343
802.6812, 29.04020
803.1633, 33.48760
803.6454, 36.32589
804.1276, 35.92955
804.6097, 35.18414
805.0918, 34.93293
805.5739, 34.98716
806.0560, 35.19419
806.5381, 35.47949
807.0203, 35.74517
807.5024, 35.94386
807.9845, 36.06532
808.4666, 36.16665
808.9487, 36.18497
809.4308, 35.70299
809.9130, 34.66010
810.3951, 33.99213
810.8772, 34.30006
811.3593, 35.15224
811.8414, 35.66827
812.3235, 35.72702
812.8057, 35.91308
813.2878, 36.27404
813.7699, 36.70835
814.2520, 37.66213
814.7341, 38.36716
815.2162, 37.75600
815.6984, 35.90944
816.1805, 34.41845
816.6626, 33.90289
817.1447, 33.99222
817.6268, 34.69271
818.1089, 35.69895
818.5911, 36.66527
819.0732, 37.45802
819.5553, 37.81524
820.0374, 37.53025
820.5195, 36.90617
821.0016, 36.47275
821.4838, 36.22253
821.9659, 36.67130
822.4480, 38.33987
822.9301, 38.98126
823.4122, 36.65598
823.8943, 33.33672
824.3765, 32.82571
824.8586, 35.97533
825.3407, 37.41505
825.8228, 34.86415
826.3049, 33.13158
826.7870, 35.08664
827.2692, 37.85712
827.7513, 37.95735
828.2334, 35.58574
828.7155, 33.92210
829.1976, 34.98924
829.6797, 36.89127
830.1619, 37.69183
830.6440, 37.64543
831.1261, 37.16269
831.6082, 36.37786
832.0903, 35.79890
832.5724, 35.72378
833.0546, 35.98347
833.5367, 36.28467
834.0188, 36.65520
834.5009, 36.87414
834.9830, 36.91286
835.4651, 36.85234
835.9473, 36.61408
836.4294, 36.37366
836.9115, 36.30799
837.3936, 36.41575
837.8757, 36.63811
838.3578, 37.18798
838.8400, 37.57391
839.3221, 37.74206
839.8042, 37.56696
840.2863, 36.47874
840.7684, 34.92439
841.2505, 34.32727
841.7327, 35.47741
842.2148, 37.07730
842.6969, 37.60201
843.1790, 37.34296
843.6611, 37.11577
844.1432, 36.96090
844.6254, 36.57874
845.1075, 35.78095
845.5896, 35.10773
846.0717, 35.36851
846.5538, 36.56839
847.0359, 37.25080
847.5181, 37.48612
848.0002, 37.03252
848.4823, 34.74933
848.9644, 32.78881
849.4465, 32.91743
849.9286, 34.55087
850.4108, 35.96322
850.8929, 37.14350
851.3750, 37.47894
851.8571, 35.89138
852.3392, 34.13567
852.8214, 33.79863
853.3035, 34.39563
853.7856, 34.72061
854.2677, 34.40546
854.7498, 34.04440
855.2319, 34.18744
855.7141, 34.69403
856.1962, 35.47779
856.6783, 36.42066
857.1604, 36.48629
857.6425, 35.34957
858.1246, 34.42202
858.6068, 35.01542
859.0889, 36.57599
859.5710, 36.96911
860.0531, 35.69905
860.5352, 34.52241
861.0173, 32.88191
861.4995, 32.17511
861.9816, 34.01198
862.4637, 36.60515
862.9458, 37.46659
863.4279, 36.31760
863.9100, 35.30263
864.3922, 34.89711
864.8743, 34.82288
865.3564, 35.18929
865.8385, 35.64748
866.3206, 35.59053
866.8027, 35.16642
867.2849, 35.25122
867.7670, 36.42217
868.2491, 37.99537
868.7312, 39.37934
869.2133, 40.40602
869.6954, 40.31251
870.1776, 39.15686
870.6597, 38.27012
871.1418, 38.23742
871.6239, 38.89796
872.1060, 40.28677
872.5881, 42.38262
873.0703, 42.40716
873.5524, 39.10600
874.0345, 36.98280
874.5166, 37.73645
874.9987, 39.13419
875.4808, 39.43760
875.9630, 38.95347
876.4451, 38.49846
876.9272, 37.77198
877.4093, 37.82726
877.8914, 39.90536
878.3735, 41.76517
878.8557, 41.94013
879.3378, 41.02576
879.8199, 39.63353
880.3020, 38.10068
880.7841, 37.69392
881.2662, 40.14474
881.7484, 43.34893
882.2305, 45.16204
882.7126, 45.59053
883.1947, 44.13374
883.6768, 41.01529
884.1589, 38.12613
884.6411, 36.70697
885.1232, 36.12106
885.6053, 34.87091
886.0874, 32.89613
886.5695, 32.85982
887.0516, 35.47351
887.5338, 37.26303
888.0159, 36.70679
888.4980, 35.06260
888.9801, 33.66081
889.4622, 32.50048
889.9443, 31.70353
890.4265, 31.46182
890.9086, 31.30356
891.3907, 31.17363
891.8728, 31.12851
892.3549, 31.20042
892.8370, 31.38379
893.3192, 31.79177
893.8013, 32.53538
894.2834, 32.75843
894.7655, 31.40503
895.2476, 29.96671
895.7297, 29.81879
896.2119, 30.42135
896.6940, 30.68025
897.1761, 30.49414
897.6582, 30.84574
898.1403, 32.71886
898.6224, 34.59565
899.1046, 33.23257
899.5867, 29.60290
900.0688, 28.25046
900.5509, 29.54961
901.0330, 30.99395
901.5151, 31.42948
901.9973, 31.30334
902.4794, 31.26363
902.9615, 31.31073
903.4436, 31.07747
903.9257, 30.42226
904.4078, 29.84502
904.8900, 29.37745
905.3721, 29.10611
905.8542, 29.14459
906.3363, 29.43221
906.8184, 29.83936
907.3005, 30.67626
907.7827, 30.85687
908.2648, 29.24578
908.7469, 28.07368
909.2290, 28.99813
909.7111, 30.64309
910.1932, 31.33766
910.6754, 30.87582
911.1575, 29.92517
911.6396, 28.27379
912.1217, 27.05313
912.6038, 27.56079
913.0859, 28.84448
913.5681, 29.78650
914.0502, 30.19381
914.5323, 29.93010
915.0143, 28.95033
915.4965, 27.83764
915.9786, 27.14472
916.4607, 26.91370
916.9428, 27.68532
917.4249, 29.32163
917.9070, 29.61218
918.3892, 27.88766
918.8713, 26.26500
919.3534, 26.47070
919.8355, 27.95540
920.3176, 29.12109
920.7997, 30.05451
921.2819, 30.32672
921.7640, 29.61584
922.2461, 28.86658
922.7282, 28.55345
923.2103, 28.29795
923.6924, 27.47792
924.1746, 26.14368
924.6567, 25.35704
925.1388, 24.86282
925.6209, 25.34168
926.1030, 28.36449
926.5851, 31.00926
927.0673, 30.84386
927.5494, 29.01812
928.0315, 27.70054
928.5136, 27.41124
928.9957, 27.56487
929.4778, 28.14170
929.9600, 28.75311
930.4421, 29.25921
930.9242, 29.50591
931.4063, 29.02339
931.8884, 27.99512
932.3705, 27.44431
932.8527, 28.02000
933.3348, 28.73475
933.8169, 28.20565
934.2990, 26.82778
934.7811, 25.44423
935.2632, 24.19392
935.7454, 23.73527
936.2275, 24.28697
936.7096, 25.24352
937.1917, 26.05020
937.6738, 26.72572
938.1559, 27.37796
938.6381, 28.03123
939.1202, 28.45109
939.6023, 28.65337
940.0844, 28.44934
940.5665, 27.57532
941.0486, 26.46015
941.5308, 25.77806
942.0129, 25.55748
942.4950, 25.42367
942.9771, 25.01292
943.4592, 25.24769
943.9413, 27.26835
944.4235, 28.96081
944.9056, 28.63198
945.3877, 27.09563
945.8698, 26.09682
946.3519, 25.84676
946.8340, 26.16590
947.3162, 27.83933
947.7983, 29.11779
948.2804, 28.57940
948.7625, 27.48390
949.2446, 27.31830
949.7267, 28.07841
950.2089, 28.88470
950.6910, 29.38270
951.1731, 29.72996
951.6552, 30.32660
952.1373, 30.64462
952.6194, 29.47077
953.1016, 27.55365
953.5837, 26.95772
954.0658, 28.11339
954.5479, 29.43280
955.0300, 29.66809
955.5121, 29.19010
955.9943, 28.30597
956.4764, 27.29099
956.9585, 27.70005
957.4406, 29.51868
957.9227, 30.13075
958.4048, 28.24758
958.8870, 25.69550
959.3691, 24.94008
959.8512, 25.74216
960.3333, 26.11717
960.8154, 25.95182
961.2975, 26.36364
961.7797, 27.91890
962.2618, 28.73936
962.7439, 27.19287
963.2260, 24.60354
963.7081, 23.86513
964.1902, 25.37644
964.6724, 26.62295
965.1545, 27.67986
965.6366, 28.33427
966.1187, 28.26969
966.6008, 28.03729
967.0829, 28.23582
967.5651, 28.60375
968.0472, 28.22155
968.5293, 26.40744
969.0114, 25.52117
969.4935, 27.00068
969.9756, 28.14945
970.4578, 27.48787
970.9399, 26.08272
971.4220, 24.77642
971.9041, 23.84662
972.3862, 23.93654
972.8683, 25.98948
973.3505, 27.45630
973.8326, 26.30237
974.3147, 24.65852
974.7968, 24.58834
975.2789, 25.38322
975.7610, 25.44957
976.2432, 24.54936
976.7253, 23.80451
977.2074, 23.91491
977.6895, 24.54799
978.1716, 25.74513
978.6537, 27.00972
979.1359, 27.23207
979.6180, 26.68592
980.1001, 26.74167
980.5822, 27.87215
981.0643, 29.14291
981.5464, 29.53551
982.0286, 29.48043
982.5107, 30.38832
982.9928, 31.82096
983.4749, 31.10879
983.9570, 28.06985
984.4391, 25.95336
984.9213, 26.51292
985.4034, 28.36583
985.8855, 29.67418
986.3676, 30.43656
986.8497, 30.50921
987.3318, 29.83714
987.8140, 29.00015
988.2961, 27.96480
988.7782, 27.54334
989.2603, 28.49832
989.7424, 29.99390
990.2245, 30.24760
990.7067, 29.07714
991.1888, 28.10526
991.6709, 27.21857
992.1530, 26.78914
992.6351, 26.89056
993.1172, 27.52597
993.5994, 29.17959
994.0815, 31.24258
994.5636, 31.71855
995.0457, 29.71218
995.5278, 28.64723
996.0099, 29.38581
996.4921, 29.92653
996.9742, 29.30383
997.4563, 28.67274
997.9384, 29.23933
998.4205, 30.63901
998.9026, 31.52652
999.3848, 31.73284
999.8669, 31.43787
1000.349, 29.87161
1000.831, 28.75097
1001.313, 29.21965
1001.795, 30.33911
1002.277, 31.30341
1002.760, 31.91663
1003.242, 31.87208
1003.724, 30.63137
1004.206, 29.84563
1004.688, 30.66224
1005.170, 31.83560
1005.652, 32.61109
1006.134, 32.99663
1006.617, 32.85596
1007.099, 32.37680
1007.581, 32.50140
1008.063, 34.07086
1008.545, 35.44099
1009.027, 34.83616
1009.509, 33.66461
1009.991, 33.74211
1010.473, 34.57836
1010.956, 34.79778
1011.438, 34.14905
1011.920, 33.51702
1012.402, 33.56841
1012.884, 33.74893
1013.366, 33.21836
1013.848, 32.40264
1014.330, 32.17699
1014.813, 32.43644
1015.295, 32.36091
1015.777, 31.80352
1016.259, 32.04156
1016.741, 34.48038
1017.223, 37.69083
1017.705, 38.96784
1018.187, 38.76557
1018.669, 38.62041
1019.152, 38.62557
1019.634, 38.19866
1020.116, 37.13861
1020.598, 36.23511
1021.080, 36.36523
1021.562, 37.14721
1022.044, 37.52668
1022.526, 37.53346
1023.008, 37.53339
1023.491, 37.56228
1023.973, 37.04903
1024.455, 35.68501
1024.937, 34.33732
1025.419, 33.99376
1025.901, 34.52594
1026.383, 35.39360
1026.865, 36.61118
1027.348, 38.07644
1027.830, 39.92303
1028.312, 41.05893
1028.794, 40.81060
1029.276, 40.25945
1029.758, 40.85030
1030.240, 42.36132
1030.722, 42.95429
1031.204, 42.40182
1031.687, 41.93135
1032.169, 41.64405
1032.651, 41.46856
1033.133, 41.33338
1033.615, 41.37214
1034.097, 41.81951
1034.579, 42.63616
1035.061, 43.20081
1035.544, 43.45710
1036.026, 43.56233
1036.508, 43.24114
1036.990, 43.35318
1037.472, 44.80779
1037.954, 46.33976
1038.436, 45.82534
1038.918, 43.40391
1039.401, 43.39195
1039.883, 48.19654
1040.365, 50.87273
1040.847, 49.38343
1041.329, 47.87084
1041.811, 48.16598
1042.293, 49.41244
1042.775, 50.91187
1043.257, 52.62074
1043.740, 52.94434
1044.222, 49.90351
1044.704, 48.53934
1045.186, 50.18540
1045.668, 52.29445
1046.150, 54.25262
1046.632, 55.75608
1047.114, 56.17397
1047.596, 55.61094
1048.079, 55.59793
1048.561, 56.92014
1049.043, 57.80149
1049.525, 57.16154
1050.007, 57.04063
1050.489, 58.88430
1050.971, 61.47604
1051.453, 63.54975
1051.936, 64.99444
1052.418, 65.74800
1052.900, 64.95598
1053.382, 64.93894
1053.864, 66.82005
1054.346, 68.81029
1054.828, 70.02147
1055.310, 70.80070
1055.792, 71.36337
1056.275, 71.87532
1056.757, 72.99931
1057.239, 75.12328
1057.721, 77.36311
1058.203, 79.78033
1058.685, 81.90877
1059.167, 82.94171
1059.649, 83.90871
1060.131, 86.25907
1060.614, 89.75049
1061.096, 92.76392
1061.578, 94.73464
1062.060, 96.53560
1062.542, 97.76961
1063.024, 99.69061
1063.506, 103.7838
1063.988, 108.4093
1064.471, 111.4119
1064.953, 113.1304
1065.435, 115.5190
1065.917, 119.0944
1066.399, 123.4996
1066.881, 129.7652
1067.363, 135.4712
1067.845, 137.9714
1068.328, 140.0883
1068.810, 145.4848
1069.292, 153.3098
1069.774, 159.9870
1070.256, 164.3971
1070.738, 168.4017
1071.220, 170.8668
1071.702, 175.3803
1072.184, 185.6344
1072.667, 197.7177
1073.149, 207.5691
1073.631, 215.5533
1074.113, 223.7289
1074.595, 232.6412
1075.077, 241.3987
1075.559, 248.4314
1076.041, 256.5188
1076.523, 266.5789
1077.006, 278.9502
1077.488, 294.1487
1077.970, 311.8795
1078.452, 331.3597
1078.934, 352.4068
1079.416, 376.1238
1079.898, 401.3078
1080.380, 431.6142
1080.862, 469.1979
1081.345, 512.7461
1081.827, 561.7872
1082.309, 615.5189
1082.791, 671.5555
1083.273, 729.8665
1083.755, 793.1566
1084.237, 865.3768
1084.719, 939.3566
1085.202, 1013.557
1085.684, 1086.042
1086.166, 1151.641
1086.648, 1216.259
1087.130, 1288.513
1087.612, 1369.371
1088.094, 1454.947
1088.576, 1542.198
1089.058, 1636.170
1089.541, 1735.112
1090.023, 1846.233
1090.505, 1976.886
1090.987, 2121.455
1091.469, 2276.800
1091.951, 2439.772
1092.433, 2601.948
1092.915, 2760.375
1093.397, 2917.090
1093.880, 3090.467
1094.362, 3241.114
1094.844, 3353.122
1095.326, 3422.776
1095.808, 3453.174
1096.290, 3438.605
1096.772, 3361.342
1097.254, 3213.359
1097.737, 3021.286
1098.219, 2778.502
1098.701, 2514.841
1099.183, 2223.923
1099.665, 1934.364
1100.147, 1662.088
1100.629, 1413.391
1101.111, 1194.210
1101.594, 1004.594
1102.076, 842.6652
1102.558, 710.5939
1103.040, 601.1381
1103.522, 517.1895
1104.004, 448.8979
1104.486, 393.3675
1104.968, 347.2450
1105.450, 306.9273
1105.932, 272.0440
1106.415, 242.5110
1106.897, 220.6384
1107.379, 200.8408
1107.861, 181.6965
1108.343, 164.8111
1108.825, 151.2833
1109.307, 140.2123
1109.789, 130.8078
1110.272, 122.9179
1110.754, 115.6449
1111.236, 109.1001
1111.718, 102.8228
1112.200, 96.14137
1112.682, 90.50575
1113.164, 86.92380
1113.646, 84.10718
1114.129, 81.16371
1114.611, 78.00373
1115.093, 74.40782
1115.575, 70.19093
1116.057, 66.05235
1116.539, 61.44268
1117.021, 57.73885
1117.503, 55.29089
1117.985, 53.74237
1118.468, 53.34686
1118.950, 53.43264
1119.432, 52.62723
1119.914, 50.81124
1120.396, 49.63754
1120.878, 50.04761
1121.360, 48.89072
1121.842, 44.27593
1122.324, 40.99971
1122.807, 42.32045
1123.289, 44.91891
1123.771, 44.41224
1124.253, 41.24387
1124.735, 39.16299
1125.217, 38.38686
1125.699, 37.96289
1126.181, 38.05585
1126.664, 37.76422
1127.146, 36.51531
1127.628, 35.59164
1128.110, 36.50940
1128.592, 38.19447
1129.074, 37.07774
1129.556, 32.69467
1130.038, 30.69280
1130.521, 31.37288
1131.003, 32.58620
1131.485, 34.05782
1131.967, 34.42753
1132.449, 32.56834
1132.931, 30.15930
1133.413, 30.11292
1133.895, 32.01752
1134.377, 33.06579
1134.859, 33.27176
1135.342, 32.64506
1135.824, 31.20908
1136.306, 30.37279
1136.788, 30.78254
1137.270, 30.87389
1137.752, 28.72279
1138.234, 25.63997
1138.716, 25.21140
1139.199, 26.71283
1139.681, 26.92642
1140.163, 25.88287
1140.645, 24.98597
1141.127, 24.65288
1141.609, 24.79514
1142.091, 25.40472
1142.573, 26.09489
1143.056, 26.29895
1143.538, 26.20760
1144.020, 26.30325
1144.502, 26.40046
1144.984, 25.70082
1145.466, 24.42529
1145.948, 24.10501
1146.430, 25.36072
1146.912, 26.50924
1147.395, 25.86261
1147.877, 24.58955
1148.359, 23.75791
1148.841, 23.31025
1149.323, 23.36883
1149.805, 23.66829
1150.287, 23.43021
1150.769, 22.66808
1151.251, 22.77961
1151.734, 25.08805
1152.216, 26.92756
1152.698, 25.94638
1153.180, 24.37820
1153.662, 24.11790
1154.144, 24.37031
1154.626, 23.85029
1155.108, 22.74364
1155.591, 22.15745
1156.073, 22.44926
1156.555, 22.85240
1157.037, 23.77350
1157.519, 23.85566
1158.001, 20.77935
1158.483, 18.39247
1158.965, 21.01791
1159.448, 25.70349
1159.930, 27.02314
1160.412, 24.58829
1160.894, 22.60224
1161.376, 21.54439
1161.858, 20.91981
1162.340, 21.04653
1162.822, 21.14535
1163.304, 20.60533
1163.786, 20.25842
1164.269, 21.26805
1164.751, 23.01061
1165.233, 23.20856
1165.715, 21.27402
1166.197, 20.45181
1166.679, 21.18291
1167.161, 21.82099
1167.643, 22.12160
1168.126, 22.00540
1168.608, 21.26705
1169.090, 20.45838
1169.572, 20.47304
1170.054, 21.15649
1170.536, 21.26609
1171.018, 20.76478
1171.500, 20.49978
1171.983, 20.53406
1172.465, 21.22701
1172.947, 22.76052
1173.429, 23.62590
1173.911, 22.44676
1174.393, 20.33065
1174.875, 19.17388
1175.357, 18.89554
1175.839, 19.42853
1176.322, 20.53624
1176.804, 21.29629
1177.286, 21.57396
1177.768, 21.69711
1178.250, 21.81081
1178.732, 21.57255
1179.214, 20.23388
1179.696, 18.93866
1180.178, 19.63108
1180.661, 21.10174
1181.143, 21.37487
1181.625, 20.86617
1182.107, 20.82443
1182.589, 21.46263
1183.071, 22.25078
1183.553, 22.98492
1184.035, 23.62829
1184.518, 24.48471
1185.000, 24.86164
1185.482, 23.85137
1185.964, 22.45203
1186.446, 21.66994
1186.928, 21.40268
1187.410, 21.06715
1187.892, 20.55007
1188.375, 20.74926
1188.857, 23.19904
1189.339, 24.39255
1189.821, 22.59829
1190.303, 20.59392
1190.785, 19.25225
1191.267, 18.75401
1191.749, 19.81048
1192.231, 21.77860
1192.714, 21.96836
1193.196, 19.41646
1193.678, 18.98505
1194.160, 21.77679
1194.642, 23.65367
1195.124, 23.66142
1195.606, 23.01111
1196.088, 22.24669
1196.570, 21.59320
1197.053, 21.42698
1197.535, 21.59836
1198.017, 21.11357
1198.499, 20.01793
1198.981, 20.53143
1199.463, 22.69928
1199.945, 24.06332
1200.427, 23.93800
1200.910, 23.20996
1201.392, 22.45404
1201.874, 21.74508
1202.356, 21.44983
1202.838, 21.11976
1203.320, 18.96078
1203.802, 16.32692
1204.284, 16.96700
1204.766, 20.12271
1205.249, 21.93599
1205.731, 21.34136
1206.213, 20.61356
1206.695, 21.32459
1207.177, 21.95446
1207.659, 21.08037
1208.141, 19.88388
1208.623, 19.33841
1209.105, 19.14747
1209.588, 18.75435
1210.070, 18.32300
1210.552, 18.63182
1211.034, 19.97610
1211.516, 20.70868
1211.998, 19.75761
1212.480, 19.16836
1212.962, 19.90991
1213.445, 20.57431
1213.927, 20.26552
1214.409, 19.61953
1214.891, 19.20617
1215.373, 19.05676
1215.855, 19.33529
1216.337, 20.12305
1216.819, 21.09279
1217.302, 22.54194
1217.784, 22.78805
1218.266, 21.13724
1218.748, 20.03210
1219.230, 20.97033
1219.712, 22.32839
1220.194, 21.90029
1220.676, 20.37646
1221.158, 20.02598
1221.641, 20.62812
1222.123, 21.07212
1222.605, 21.30866
1223.087, 21.49150
1223.569, 21.67073
1224.051, 21.93799
1224.533, 22.36081
1225.015, 22.56568
1225.497, 22.19937
1225.980, 21.38668
1226.462, 19.50705
1226.944, 17.85651
1227.426, 18.88339
1227.908, 21.19889
1228.390, 21.42951
1228.872, 19.43316
1229.354, 18.54220
1229.837, 20.50605
1230.319, 21.86539
1230.801, 20.75131
1231.283, 19.69657
1231.765, 20.00333
1232.247, 20.56648
1232.729, 20.45661
1233.211, 20.02654
1233.693, 20.13283
1234.176, 20.72418
1234.658, 20.12640
1235.140, 17.42981
1235.622, 16.39304
1236.104, 17.55296
1236.586, 19.15810
1237.068, 20.91776
1237.550, 21.98558
1238.032, 21.71333
1238.515, 20.47149
1238.997, 18.46814
1239.479, 16.25904
1239.961, 16.58379
1240.443, 18.75670
1240.925, 19.52960
1241.407, 18.94044
1241.889, 18.89250
1242.372, 19.81961
1242.854, 20.50687
1243.336, 20.21113
1243.818, 19.40652
1244.300, 17.89483
1244.782, 16.76189
1245.264, 17.28001
1245.746, 18.62280
1246.229, 20.08522
1246.711, 21.42349
1247.193, 22.60251
1247.675, 23.51059
1248.157, 23.21766
1248.639, 20.33627
1249.121, 18.59423
1249.603, 19.73178
1250.085, 20.58870
1250.568, 19.90350
1251.050, 18.98931
1251.532, 18.82903
1252.014, 18.80597
1252.496, 17.61266
1252.978, 15.51905
1253.460, 15.92059
1253.942, 19.18272
1254.424, 20.83128
1254.907, 20.54985
1255.389, 19.68194
1255.871, 18.61634
1256.353, 18.06148
1256.835, 18.51211
1257.317, 19.17454
1257.799, 19.13844
1258.281, 18.53045
1258.764, 16.99517
1259.246, 15.40506
1259.728, 15.41024
1260.210, 16.68037
1260.692, 18.46999
1261.174, 20.37167
1261.656, 21.64551
1262.138, 21.98249
1262.620, 21.73907
1263.103, 20.60157
1263.585, 19.56103
1264.067, 19.12956
1264.549, 18.87526
1265.031, 18.15676
1265.513, 17.65133
1265.995, 18.73616
1266.477, 20.91939
1266.959, 21.48956
1267.442, 19.74801
1267.924, 19.43901
1268.406, 21.01359
1268.888, 21.95109
1269.370, 21.76977
1269.852, 20.87512
1270.334, 19.38845
1270.816, 18.18474
1271.299, 18.35993
1271.781, 18.98891
1272.263, 17.71339
1272.745, 15.63604
1273.227, 15.61127
1273.709, 17.02203
1274.191, 18.52938
1274.673, 19.62469
1275.156, 19.33316
1275.638, 17.47586
1276.120, 16.51786
1276.602, 18.40200
1277.084, 20.44440
1277.566, 21.83806
1278.048, 22.35949
1278.530, 21.40200
1279.012, 19.91122
1279.495, 18.49531
1279.977, 17.38357
1280.459, 16.92757
1280.941, 17.12216
1281.423, 18.22837
1281.905, 21.06903
1282.387, 21.31760
1282.869, 18.01242
1283.351, 16.32711
1283.834, 17.96692
1284.316, 19.49462
1284.798, 18.51340
1285.280, 16.73714
##END=



