##NAMES=Dolomite
##RRUFFID=R050241
##IDEAL CHEMISTRY=CaMg(CO_3_)_2_
##LOCALITY=Eugui quarries, Navarre, Spain
##OWNER=RRUFF
##SOURCE=Marcus Origlieri
##DESCRIPTION=Light gray colored tabular crystals
##STATUS=The identification of this mineral has been confirmed by X-ray diffraction and chemical analysis
##URL=rruff.info/R050241
##MEASURED CHEMISTRY=(Ca_0.96_Mg_0.04_)_Σ=1_(Mg_0.98_Fe^2+^_0.02_)_Σ=1_(CO_3_)_2_ ; CO_2_ estimated by difference
92.29974, 0.0000000E+00
92.78186, 0.0000000E+00
93.26398, 0.0000000E+00
93.74609, 18.03473
94.22821, 17.48284
94.71033, 17.71749
95.19244, 18.62369
95.67456, 19.73706
96.15668, 20.86091
96.63879, 22.02871
97.12091, 23.47955
97.60303, 25.33125
98.08514, 27.16072
98.56726, 27.95579
99.04938, 27.65418
99.53149, 27.85233
100.0136, 29.74518
100.4957, 33.37152
100.9778, 36.41604
101.4600, 38.49377
101.9421, 40.03199
102.4242, 42.27204
102.9063, 45.47535
103.3884, 48.75565
103.8705, 51.39628
104.3527, 53.09771
104.8348, 55.12397
105.3169, 57.60125
105.7990, 60.51250
106.2811, 64.02798
106.7632, 68.58783
107.2454, 73.29453
107.7275, 77.32282
108.2096, 80.44321
108.6917, 83.26133
109.1738, 85.79840
109.6559, 88.01935
110.1381, 90.33035
110.6202, 92.29591
111.1023, 94.53510
111.5844, 97.69508
112.0665, 102.7143
112.5486, 107.8341
113.0308, 112.3820
113.5129, 115.7812
113.9950, 120.5607
114.4771, 128.4986
114.9592, 137.7651
115.4413, 145.6904
115.9235, 150.3535
116.4056, 154.4400
116.8877, 159.0460
117.3698, 164.3864
117.8519, 170.3196
118.3340, 177.5830
118.8162, 185.4994
119.2983, 192.3775
119.7804, 196.4223
120.2625, 199.8075
120.7446, 204.2850
121.2267, 211.0745
121.7089, 217.9384
122.1910, 223.7667
122.6731, 228.5821
123.1552, 232.4877
123.6373, 235.0647
124.1194, 236.8908
124.6016, 238.7175
125.0837, 240.7859
125.5658, 242.9029
126.0479, 244.6040
126.5300, 245.9408
127.0121, 247.7751
127.4943, 251.3855
127.9764, 256.0529
128.4585, 260.2064
128.9406, 262.1213
129.4227, 263.4492
129.9048, 267.5768
130.3869, 274.7167
130.8691, 282.5504
131.3512, 288.4021
131.8333, 292.5734
132.3154, 296.8788
132.7975, 302.3000
133.2796, 308.5820
133.7618, 314.2409
134.2439, 318.4581
134.7260, 320.9294
135.2081, 323.4017
135.6902, 326.6502
136.1723, 329.8188
136.6545, 332.4988
137.1366, 334.6926
137.6187, 336.8558
138.1008, 339.1529
138.5829, 341.2883
139.0650, 342.5215
139.5472, 342.6348
140.0293, 342.7536
140.5114, 343.7177
140.9935, 345.9000
141.4756, 346.9899
141.9577, 346.4413
142.4399, 344.8473
142.9220, 344.3977
143.4041, 345.3712
143.8862, 346.9252
144.3683, 348.5056
144.8504, 349.7911
145.3326, 351.8395
145.8147, 354.8947
146.2968, 358.8651
146.7789, 362.6169
147.2610, 365.6263
147.7431, 368.9536
148.2253, 373.4508
148.7074, 379.9026
149.1895, 386.3311
149.6716, 392.2492
150.1537, 397.6312
150.6358, 403.6110
151.1180, 410.0585
151.6001, 417.1389
152.0822, 424.9077
152.5643, 431.2138
153.0464, 440.3915
153.5285, 453.1881
154.0107, 469.6251
154.4928, 488.4161
154.9749, 508.8686
155.4570, 531.9935
155.9391, 558.7399
156.4212, 591.4781
156.9034, 626.0427
157.3855, 662.5165
157.8676, 701.4066
158.3497, 737.3461
158.8318, 770.6149
159.3139, 800.3214
159.7961, 825.5443
160.2782, 842.2114
160.7603, 857.5221
161.2424, 874.4531
161.7245, 893.7374
162.2066, 912.9642
162.6888, 929.9438
163.1709, 946.4790
163.6530, 965.5046
164.1351, 988.6815
164.6172, 1014.214
165.0993, 1041.174
165.5815, 1069.637
166.0636, 1099.078
166.5457, 1127.125
167.0278, 1156.070
167.5099, 1190.709
167.9920, 1235.707
168.4742, 1285.901
168.9563, 1336.036
169.4384, 1382.399
169.9205, 1435.769
170.4026, 1500.094
170.8847, 1576.575
171.3669, 1668.101
171.8490, 1772.274
172.3311, 1893.839
172.8132, 2037.153
173.2953, 2202.344
173.7774, 2392.276
174.2596, 2617.254
174.7417, 2872.332
175.2238, 3136.757
175.7059, 3435.183
176.1880, 3723.208
176.6701, 3942.667
177.1523, 4099.933
177.6344, 4155.497
178.1165, 4043.034
178.5986, 3775.816
179.0807, 3439.913
179.5628, 3046.909
180.0450, 2628.247
180.5271, 2252.276
181.0092, 1930.930
181.4913, 1658.238
181.9734, 1433.967
182.4555, 1256.957
182.9377, 1114.180
183.4198, 1001.832
183.9019, 915.0253
184.3840, 841.8341
184.8661, 779.8617
185.3482, 728.2461
185.8304, 685.2435
186.3125, 651.0726
186.7946, 622.3065
187.2767, 596.8346
187.7588, 574.3235
188.2409, 554.5609
188.7231, 537.6458
189.2052, 523.1143
189.6873, 509.8695
190.1694, 497.8255
190.6515, 486.5905
191.1336, 475.4478
191.6158, 464.5304
192.0979, 455.1584
192.5800, 447.8732
193.0621, 442.2969
193.5442, 437.0880
194.0263, 432.2140
194.5085, 427.6083
194.9906, 423.3564
195.4727, 419.4462
195.9548, 415.4118
196.4369, 411.0361
196.9190, 406.4521
197.4012, 402.2278
197.8833, 398.3292
198.3654, 394.9571
198.8475, 392.6601
199.3296, 391.4845
199.8117, 390.1725
200.2939, 388.2563
200.7760, 385.8684
201.2581, 383.9757
201.7402, 382.6730
202.2223, 381.6386
202.7044, 380.5780
203.1866, 379.5209
203.6687, 378.2698
204.1508, 376.6913
204.6329, 374.8179
205.1150, 373.0899
205.5971, 371.4247
206.0793, 370.0793
206.5614, 369.4086
207.0435, 369.5041
207.5256, 369.8483
208.0077, 370.4195
208.4898, 371.2040
208.9720, 371.6281
209.4541, 371.6897
209.9362, 371.3879
210.4183, 370.4741
210.9004, 368.5758
211.3825, 367.4585
211.8647, 367.8041
212.3468, 369.6427
212.8289, 371.0240
213.3110, 371.9024
213.7931, 372.3972
214.2752, 372.5788
214.7574, 372.3308
215.2395, 372.1392
215.7216, 372.1840
216.2037, 372.4838
216.6858, 372.4607
217.1679, 371.7953
217.6500, 371.2151
218.1322, 371.6685
218.6143, 373.5345
219.0964, 375.4855
219.5785, 377.1737
220.0606, 378.6018
220.5427, 379.9977
221.0249, 381.3301
221.5070, 382.6437
221.9891, 384.0042
222.4712, 385.5477
222.9533, 386.8019
223.4354, 387.2649
223.9176, 386.7978
224.3997, 388.2452
224.8818, 392.5426
225.3639, 397.7484
225.8460, 401.9219
226.3281, 404.9899
226.8103, 407.1280
227.2924, 408.3602
227.7745, 408.7154
228.2566, 407.8215
228.7387, 404.7546
229.2208, 401.4127
229.7030, 400.1154
230.1851, 402.4940
230.6672, 403.5886
231.1493, 401.7813
231.6314, 396.8993
232.1135, 394.1376
232.5957, 394.5377
233.0778, 395.9569
233.5599, 396.2658
234.0420, 394.8653
234.5241, 393.5074
235.0062, 392.3142
235.4884, 391.2899
235.9705, 391.4868
236.4526, 393.9583
236.9347, 396.5563
237.4168, 397.0985
237.8989, 394.0718
238.3811, 391.9453
238.8632, 391.6093
239.3453, 393.0491
239.8274, 394.7666
240.3095, 397.2996
240.7916, 399.5237
241.2738, 400.3568
241.7559, 398.9033
242.2380, 397.8326
242.7201, 397.4667
243.2022, 397.8086
243.6843, 398.8602
244.1665, 400.8684
244.6486, 403.3132
245.1307, 405.8624
245.6128, 408.7401
246.0949, 411.3249
246.5770, 413.8006
247.0592, 416.0506
247.5413, 416.7208
248.0234, 414.7491
248.5055, 412.5314
248.9876, 411.7347
249.4697, 412.7096
249.9519, 414.3545
250.4340, 416.9418
250.9161, 420.1996
251.3982, 422.4242
251.8803, 423.0345
252.3624, 423.3813
252.8446, 424.2586
253.3267, 425.7264
253.8088, 427.6045
254.2909, 430.0660
254.7730, 432.9386
255.2551, 435.5072
255.7373, 437.9106
256.2194, 439.7920
256.7015, 440.7223
257.1836, 439.9844
257.6657, 440.2506
258.1478, 441.7570
258.6299, 444.3253
259.1121, 447.7270
259.5942, 452.8960
260.0763, 457.2545
260.5584, 459.2841
261.0405, 457.7768
261.5226, 457.6943
262.0048, 459.5103
262.4869, 462.6082
262.9690, 465.4522
263.4511, 467.5222
263.9332, 470.4288
264.4153, 475.1817
264.8975, 482.5937
265.3796, 488.6952
265.8617, 493.0883
266.3438, 496.5622
266.8259, 500.6276
267.3080, 505.2791
267.7902, 510.4730
268.2723, 516.2203
268.7544, 522.7216
269.2365, 528.7165
269.7186, 533.6791
270.2007, 538.8005
270.6829, 546.0880
271.1650, 556.1111
271.6471, 566.1475
272.1292, 574.5712
272.6113, 581.2751
273.0934, 590.9254
273.5756, 604.0781
274.0577, 619.0292
274.5398, 633.3549
275.0219, 646.2858
275.5040, 662.1399
275.9861, 682.6320
276.4683, 707.4551
276.9504, 732.1308
277.4325, 755.8503
277.9146, 781.5165
278.3967, 812.6117
278.8788, 849.3597
279.3610, 887.8430
279.8431, 926.2800
280.3252, 965.2936
280.8073, 1010.560
281.2894, 1062.766
281.7715, 1118.366
282.2537, 1175.099
282.7358, 1233.009
283.2179, 1290.194
283.7000, 1346.883
284.1821, 1402.467
284.6642, 1453.093
285.1464, 1498.558
285.6285, 1543.060
286.1106, 1589.376
286.5927, 1637.450
287.0748, 1686.778
287.5569, 1737.666
288.0391, 1789.487
288.5212, 1838.074
289.0033, 1883.525
289.4854, 1933.558
289.9675, 1993.619
290.4496, 2063.134
290.9318, 2136.287
291.4139, 2212.561
291.8960, 2293.729
292.3781, 2380.520
292.8602, 2473.825
293.3423, 2574.520
293.8245, 2681.606
294.3066, 2796.940
294.7887, 2928.337
295.2708, 3076.114
295.7529, 3234.565
296.2350, 3398.158
296.7172, 3566.153
297.1993, 3737.509
297.6814, 3920.473
298.1635, 4106.858
298.6456, 4282.485
299.1277, 4449.374
299.6099, 4590.519
300.0920, 4696.312
300.5741, 4762.375
301.0562, 4772.134
301.5383, 4716.125
302.0204, 4602.552
302.5026, 4437.030
302.9847, 4219.118
303.4668, 3971.732
303.9489, 3689.052
304.4310, 3392.752
304.9131, 3108.741
305.3953, 2846.085
305.8774, 2601.740
306.3595, 2374.425
306.8416, 2165.872
307.3237, 1979.078
307.8058, 1822.706
308.2880, 1689.174
308.7701, 1570.279
309.2522, 1464.039
309.7343, 1369.632
310.2164, 1287.732
310.6985, 1216.665
311.1807, 1154.073
311.6628, 1101.562
312.1449, 1054.845
312.6270, 1011.430
313.1091, 970.4220
313.5912, 933.3422
314.0734, 901.5594
314.5555, 874.0143
315.0376, 848.5128
315.5197, 823.9604
316.0018, 801.1367
316.4839, 781.4802
316.9661, 765.2759
317.4482, 749.6437
317.9303, 732.3304
318.4124, 715.2996
318.8945, 700.6364
319.3766, 691.0019
319.8588, 682.2108
320.3409, 672.5413
320.8230, 661.9364
321.3051, 652.2960
321.7872, 644.1218
322.2693, 637.1718
322.7515, 631.2555
323.2336, 627.0303
323.7157, 623.1007
324.1978, 619.5738
324.6799, 616.2900
325.1620, 612.1735
325.6442, 604.7291
326.1263, 598.0659
326.6084, 594.3473
327.0905, 596.2607
327.5726, 597.6515
328.0547, 597.9039
328.5369, 597.3538
329.0190, 596.8815
329.5011, 595.1930
329.9832, 594.8234
330.4653, 596.8945
330.9474, 602.7198
331.4296, 607.5527
331.9117, 609.9979
332.3938, 612.0949
332.8759, 616.8929
333.3580, 626.3629
333.8401, 635.5892
334.3223, 642.6256
334.8044, 647.0264
335.2865, 654.8139
335.7686, 666.6531
336.2507, 681.0615
336.7328, 696.6403
337.2150, 713.9807
337.6971, 731.4928
338.1792, 750.2375
338.6613, 769.1556
339.1434, 782.9698
339.6255, 792.0005
340.1076, 795.1563
340.5898, 791.4135
341.0719, 780.5832
341.5540, 764.2352
342.0361, 741.2620
342.5182, 714.3671
343.0003, 689.6437
343.4825, 667.3953
343.9646, 646.6086
344.4467, 626.3146
344.9288, 606.9454
345.4109, 591.3934
345.8930, 580.4156
346.3752, 571.6561
346.8573, 561.5944
347.3394, 550.4012
347.8215, 541.3451
348.3036, 536.6140
348.7857, 534.8643
349.2679, 532.4945
349.7500, 529.5248
350.2321, 525.9073
350.7142, 520.5231
351.1963, 514.3710
351.6784, 510.4799
352.1606, 510.8785
352.6427, 512.7436
353.1248, 511.8583
353.6069, 508.6090
354.0890, 505.4888
354.5711, 504.6237
355.0533, 504.8333
355.5354, 504.3834
356.0175, 502.7831
356.4996, 500.9196
356.9817, 499.1932
357.4638, 497.7628
357.9460, 497.0055
358.4281, 497.9821
358.9102, 499.1599
359.3923, 498.8494
359.8744, 496.6553
360.3565, 495.3298
360.8387, 497.5378
361.3208, 501.1915
361.8029, 503.7000
362.2850, 503.4603
362.7671, 502.5111
363.2492, 501.5690
363.7314, 500.6517
364.2135, 499.7324
364.6956, 498.0549
365.1777, 496.8183
365.6598, 496.8943
366.1419, 499.9930
366.6241, 502.5242
367.1062, 503.8267
367.5883, 504.0891
368.0704, 503.8255
368.5525, 502.4435
369.0346, 501.1107
369.5168, 500.3625
369.9989, 500.7582
370.4810, 500.4361
370.9631, 498.3788
371.4452, 496.0316
371.9273, 495.4136
372.4095, 497.6834
372.8916, 500.0260
373.3737, 502.1795
373.8558, 504.1894
374.3379, 504.3625
374.8200, 501.6976
375.3022, 498.5452
375.7843, 497.0772
376.2664, 497.9995
376.7485, 498.0936
377.2306, 496.5407
377.7127, 494.0560
378.1949, 493.2053
378.6770, 494.3272
379.1591, 495.7283
379.6412, 496.3420
380.1233, 496.1619
380.6054, 496.5868
381.0876, 497.9180
381.5697, 499.2279
382.0518, 498.9920
382.5339, 497.2877
383.0160, 495.3602
383.4981, 493.0109
383.9803, 490.9152
384.4624, 491.9595
384.9445, 496.2573
385.4266, 500.2699
385.9087, 500.0902
386.3908, 497.1544
386.8730, 495.1808
387.3551, 495.2787
387.8372, 496.4471
388.3193, 497.7365
388.8014, 499.1119
389.2835, 500.4152
389.7657, 501.7537
390.2478, 502.8813
390.7299, 503.4729
391.2120, 503.4340
391.6941, 503.0985
392.1762, 502.6301
392.6584, 502.0213
393.1405, 501.2542
393.6226, 499.0478
394.1047, 497.7471
394.5868, 499.3687
395.0689, 503.8285
395.5511, 507.3517
396.0332, 508.3972
396.5153, 508.0618
396.9974, 507.1747
397.4795, 505.2926
397.9616, 503.5833
398.4438, 501.8403
398.9259, 500.3602
399.4080, 500.0673
399.8901, 501.9933
400.3722, 504.3169
400.8543, 506.4507
401.3365, 508.5097
401.8186, 510.0800
402.3007, 511.1883
402.7828, 511.7881
403.2649, 511.7248
403.7470, 510.4551
404.2292, 509.5659
404.7113, 509.5474
405.1934, 510.2936
405.6755, 510.3953
406.1576, 509.3730
406.6397, 508.7777
407.1219, 510.2634
407.6040, 514.2745
408.0861, 516.4552
408.5682, 515.9249
409.0503, 514.0643
409.5324, 513.5827
410.0146, 514.5168
410.4967, 515.5445
410.9788, 515.9230
411.4609, 515.8429
411.9430, 516.2094
412.4251, 517.0695
412.9073, 517.9535
413.3894, 518.3041
413.8715, 518.2894
414.3536, 518.4225
414.8357, 518.9100
415.3178, 519.5284
415.8000, 520.0326
416.2821, 520.4237
416.7642, 520.7091
417.2463, 521.0204
417.7284, 521.1678
418.2105, 520.6707
418.6927, 519.1174
419.1748, 518.3686
419.6569, 520.4319
420.1390, 523.8883
420.6211, 526.4885
421.1032, 527.2820
421.5854, 527.2664
422.0675, 526.8334
422.5496, 525.9988
423.0317, 524.6819
423.5138, 521.4747
423.9959, 518.6612
424.4781, 517.7181
424.9602, 520.6808
425.4423, 523.1473
425.9244, 524.5189
426.4065, 525.2338
426.8886, 526.3134
427.3708, 528.5634
427.8529, 530.1664
428.3350, 530.2046
428.8171, 528.2405
429.2992, 528.0356
429.7813, 530.7411
430.2635, 533.6838
430.7456, 533.7766
431.2277, 530.0121
431.7098, 527.4658
432.1919, 526.5758
432.6740, 527.7043
433.1562, 533.5817
433.6383, 545.0068
434.1204, 554.3009
434.6025, 555.4501
435.0846, 549.8516
435.5667, 545.6614
436.0489, 543.1479
436.5310, 542.3731
437.0131, 545.0491
437.4952, 549.8726
437.9773, 552.2798
438.4594, 549.4752
438.9415, 544.2684
439.4236, 538.4216
439.9058, 532.5636
440.3879, 531.1066
440.8700, 540.9586
441.3521, 554.7791
441.8342, 565.2941
442.3163, 571.5619
442.7985, 573.3038
443.2806, 566.8560
443.7627, 556.3973
444.2448, 548.4809
444.7269, 546.8859
445.2090, 546.9596
445.6912, 547.4035
446.1733, 548.1296
446.6554, 548.2755
447.1375, 546.1378
447.6196, 544.3663
448.1017, 544.6577
448.5839, 550.8719
449.0660, 554.0635
449.5481, 552.4613
450.0302, 548.2412
450.5123, 546.0935
450.9944, 547.0023
451.4766, 548.2858
451.9587, 549.2286
452.4408, 549.8353
452.9229, 549.9824
453.4050, 549.4102
453.8871, 548.9947
454.3693, 549.8350
454.8514, 552.0253
455.3335, 553.3350
455.8156, 553.0575
456.2977, 552.2645
456.7798, 553.6493
457.2620, 557.0160
457.7441, 559.6015
458.2262, 559.2612
458.7083, 557.2214
459.1904, 556.1836
459.6725, 556.2672
460.1547, 556.6097
460.6368, 556.1080
461.1189, 555.4341
461.6010, 555.7711
462.0831, 558.1381
462.5652, 560.6666
463.0474, 562.1845
463.5295, 562.7909
464.0116, 562.7134
464.4937, 561.1441
464.9758, 559.6315
465.4579, 559.0254
465.9401, 559.4570
466.4222, 560.5268
466.9043, 563.0036
467.3864, 565.6617
467.8685, 567.3466
468.3506, 567.0989
468.8328, 566.8436
469.3149, 566.3717
469.7970, 565.9760
470.2791, 566.9818
470.7612, 570.7914
471.2433, 573.8661
471.7255, 574.4984
472.2076, 572.2157
472.6897, 570.3396
473.1718, 568.6476
473.6539, 567.7206
474.1360, 568.5714
474.6182, 571.2856
475.1003, 573.7327
475.5824, 575.4799
476.0645, 576.6279
476.5466, 577.4701
477.0287, 577.9825
477.5109, 577.8227
477.9930, 575.6885
478.4751, 572.9736
478.9572, 572.6651
479.4393, 575.0939
479.9214, 578.2766
480.4036, 581.1630
480.8857, 583.4941
481.3678, 584.8289
481.8499, 584.5328
482.3320, 583.7773
482.8141, 583.1855
483.2963, 582.7047
483.7784, 582.1635
484.2605, 581.1053
484.7426, 580.3087
485.2247, 580.3488
485.7068, 581.5988
486.1890, 582.3345
486.6711, 581.7318
487.1532, 580.8438
487.6353, 580.6641
488.1174, 581.7858
488.5995, 582.6676
489.0817, 582.9979
489.5638, 582.9943
490.0459, 583.4830
490.5280, 584.7379
491.0101, 585.7610
491.4922, 585.8041
491.9744, 584.8289
492.4565, 585.3271
492.9386, 587.5051
493.4207, 590.2495
493.9028, 592.6229
494.3849, 594.5957
494.8671, 595.9088
495.3492, 596.5755
495.8313, 596.4587
496.3134, 594.3141
496.7955, 590.9191
497.2776, 589.1674
497.7598, 592.2159
498.2419, 596.8661
498.7240, 600.1569
499.2061, 601.9678
499.6882, 602.2001
500.1703, 598.7401
500.6525, 594.7291
501.1346, 593.2521
501.6167, 597.0829
502.0988, 600.3741
502.5809, 601.1175
503.0630, 600.2302
503.5452, 599.5891
504.0273, 598.7137
504.5094, 598.8903
504.9915, 601.2462
505.4736, 605.9310
505.9557, 607.6430
506.4379, 604.8637
506.9200, 601.1174
507.4021, 598.8219
507.8842, 598.2137
508.3663, 597.7536
508.8484, 597.0630
509.3306, 596.9648
509.8127, 599.6041
510.2948, 604.8998
510.7769, 609.0058
511.2590, 610.1403
511.7411, 609.2907
512.2233, 608.4880
512.7054, 607.7485
513.1875, 607.2310
513.6696, 607.2557
514.1517, 607.4957
514.6339, 607.4264
515.1160, 606.8880
515.5981, 606.4280
516.0802, 606.1642
516.5623, 606.2613
517.0444, 606.9425
517.5266, 609.0526
518.0087, 610.9518
518.4908, 612.0101
518.9729, 612.3408
519.4550, 612.5132
519.9371, 612.0673
520.4193, 611.9813
520.9014, 612.9067
521.3835, 615.4391
521.8656, 616.2312
522.3477, 613.8534
522.8298, 611.3179
523.3120, 612.0566
523.7941, 617.1039
524.2762, 620.4553
524.7583, 620.7243
525.2404, 619.4621
525.7225, 620.5660
526.2047, 624.0190
526.6868, 626.9670
527.1689, 627.9791
527.6510, 627.4984
528.1331, 626.1684
528.6152, 624.0224
529.0974, 622.5897
529.5795, 624.1876
530.0616, 626.8516
530.5437, 627.5342
531.0258, 624.9270
531.5079, 622.3981
531.9901, 621.6671
532.4722, 622.4130
532.9543, 624.1330
533.4364, 628.2822
533.9185, 631.7418
534.4006, 633.1647
534.8828, 632.7391
535.3649, 632.6381
535.8470, 634.1943
536.3291, 634.9615
536.8112, 633.3961
537.2933, 628.1060
537.7755, 626.2533
538.2576, 629.3181
538.7397, 633.7591
539.2218, 635.5358
539.7039, 634.3868
540.1860, 632.8902
540.6682, 631.1000
541.1503, 629.7971
541.6324, 631.3018
542.1145, 635.2968
542.5966, 638.6658
543.0787, 639.3363
543.5609, 638.5370
544.0430, 637.8956
544.5251, 637.4757
545.0072, 637.8654
545.4893, 640.5560
545.9714, 643.7527
546.4536, 645.5519
546.9357, 645.2504
547.4178, 644.3956
547.8999, 643.1234
548.3820, 641.8204
548.8641, 641.0198
549.3463, 640.8936
549.8284, 641.2049
550.3105, 642.3719
550.7926, 644.0809
551.2747, 644.4615
551.7568, 642.1276
552.2390, 640.7545
552.7211, 642.4927
553.2032, 647.7627
553.6853, 650.9691
554.1674, 651.8520
554.6495, 651.4845
555.1317, 650.5099
555.6138, 649.0814
556.0959, 648.1794
556.5780, 648.0021
557.0601, 648.3721
557.5422, 649.2743
558.0244, 650.5619
558.5065, 651.7987
558.9886, 652.8458
559.4707, 653.7012
559.9528, 654.0526
560.4349, 654.0551
560.9171, 654.6329
561.3992, 656.7665
561.8813, 659.1915
562.3634, 661.2314
562.8455, 662.9902
563.3276, 663.7639
563.8098, 662.0236
564.2919, 660.0639
564.7740, 660.1454
565.2561, 664.3863
565.7382, 666.1986
566.2203, 663.9027
566.7025, 659.4191
567.1846, 657.8292
567.6667, 659.4820
568.1488, 661.3832
568.6309, 662.4961
569.1130, 662.9263
569.5952, 662.8656
570.0773, 662.3290
570.5594, 661.6914
571.0415, 660.9125
571.5236, 660.3168
572.0057, 660.5143
572.4879, 661.6561
572.9700, 663.1155
573.4521, 664.8754
573.9342, 666.5377
574.4163, 667.5872
574.8984, 666.9066
575.3806, 666.6818
575.8627, 668.1490
576.3448, 670.5485
576.8269, 671.7679
577.3090, 669.9554
577.7911, 668.9288
578.2733, 670.0715
578.7554, 673.3053
579.2375, 675.2987
579.7196, 675.9073
580.2017, 675.6170
580.6838, 674.2613
581.1660, 671.8738
581.6481, 670.6679
582.1302, 670.7493
582.6123, 672.0908
583.0944, 675.6810
583.5765, 680.5591
584.0587, 683.9111
584.5408, 684.5104
585.0229, 683.9999
585.5050, 683.4740
585.9871, 683.1056
586.4692, 683.3126
586.9513, 685.4018
587.4334, 687.1171
587.9155, 686.7936
588.3976, 684.5479
588.8798, 683.2107
589.3619, 684.1299
589.8440, 685.4290
590.3261, 686.1415
590.8082, 685.9685
591.2903, 686.1815
591.7725, 686.8518
592.2546, 687.7848
592.7367, 688.9279
593.2188, 690.3478
593.7009, 691.1703
594.1830, 691.1424
594.6652, 690.6664
595.1473, 690.1765
595.6294, 689.7688
596.1115, 689.9507
596.5936, 691.5473
597.0757, 693.4523
597.5579, 694.3491
598.0400, 694.3257
598.5221, 693.8808
599.0042, 692.8793
599.4863, 691.8575
599.9684, 690.9109
600.4506, 689.8788
600.9327, 690.1870
601.4148, 693.7418
601.8969, 697.7601
602.3790, 700.0830
602.8611, 699.7462
603.3433, 699.5417
603.8254, 699.6935
604.3075, 699.8488
604.7896, 699.1991
605.2717, 697.5226
605.7538, 696.6922
606.2360, 697.4166
606.7181, 699.0750
607.2002, 700.4953
607.6823, 701.6349
608.1644, 702.1335
608.6465, 701.2212
609.1287, 699.8275
609.6108, 699.1469
610.0929, 699.1962
610.5750, 699.5491
611.0571, 699.7129
611.5392, 700.2516
612.0214, 701.9410
612.5035, 705.9033
612.9856, 708.1829
613.4677, 705.8747
613.9498, 702.6729
614.4319, 702.5541
614.9141, 708.3340
615.3962, 711.5250
615.8783, 710.4740
616.3604, 707.0271
616.8425, 704.9965
617.3246, 704.4108
617.8068, 704.9496
618.2889, 706.8694
618.7710, 709.6017
619.2531, 711.9186
619.7352, 713.8153
620.2173, 715.1230
620.6995, 715.8260
621.1816, 715.8295
621.6637, 714.6575
622.1458, 712.2588
622.6279, 710.2968
623.1100, 709.6598
623.5922, 709.7968
624.0743, 710.3289
624.5564, 711.4760
625.0385, 712.4788
625.5206, 713.0781
626.0027, 713.6154
626.4849, 714.4310
626.9670, 715.4596
627.4491, 717.1901
627.9312, 720.3639
628.4133, 723.6949
628.8954, 723.5728
629.3776, 719.9877
629.8597, 716.4533
630.3418, 713.8609
630.8239, 712.5614
631.3060, 714.2943
631.7881, 718.5094
632.2703, 721.6725
632.7524, 719.8668
633.2345, 717.0742
633.7166, 717.2753
634.1987, 721.0837
634.6808, 723.9210
635.1630, 722.3783
635.6451, 720.4037
636.1272, 721.0371
636.6093, 726.9417
637.0914, 730.9487
637.5735, 732.8329
638.0557, 732.9860
638.5378, 731.2868
639.0199, 727.1300
639.5020, 724.7172
639.9841, 725.1159
640.4662, 727.1822
640.9484, 729.0762
641.4305, 730.7447
641.9126, 731.8617
642.3947, 731.6619
642.8768, 731.2997
643.3589, 732.6115
643.8411, 735.1696
644.3232, 737.0279
644.8053, 736.1605
645.2874, 735.1314
645.7695, 735.7897
646.2516, 738.4973
646.7338, 740.2404
647.2159, 740.1205
647.6980, 739.2496
648.1801, 737.9857
648.6622, 735.6970
649.1443, 734.9882
649.6265, 736.0672
650.1086, 738.2627
650.5907, 741.4746
651.0728, 745.5551
651.5549, 747.7101
652.0370, 747.1208
652.5192, 745.3136
653.0013, 743.5512
653.4834, 742.2258
653.9655, 742.2924
654.4476, 745.8449
654.9297, 749.2393
655.4119, 749.7687
655.8940, 748.2533
656.3761, 747.2022
656.8582, 747.6609
657.3403, 748.4097
657.8224, 749.3969
658.3046, 750.5509
658.7867, 750.3266
659.2688, 747.8107
659.7509, 745.6522
660.2330, 745.4312
660.7151, 747.1474
661.1973, 748.7597
661.6794, 750.3262
662.1615, 751.3501
662.6436, 750.8423
663.1257, 749.5146
663.6078, 748.9821
664.0900, 749.5479
664.5721, 750.6594
665.0542, 752.3109
665.5363, 754.1071
666.0184, 755.5768
666.5005, 756.8268
666.9827, 757.4193
667.4648, 756.1025
667.9469, 754.3038
668.4290, 754.8034
668.9111, 759.2701
669.3932, 762.8334
669.8754, 764.2521
670.3575, 764.2015
670.8396, 764.7006
671.3217, 765.7408
671.8038, 767.3954
672.2859, 770.6364
672.7681, 774.1027
673.2502, 774.2396
673.7323, 771.4958
674.2144, 769.1449
674.6965, 770.0079
675.1786, 771.7709
675.6608, 772.1061
676.1429, 770.6818
676.6250, 770.4993
677.1071, 774.4100
677.5892, 778.4893
678.0714, 779.8424
678.5535, 776.7875
679.0356, 775.7721
679.5177, 777.7111
679.9998, 780.4166
680.4819, 781.2958
680.9641, 780.3024
681.4462, 780.2739
681.9283, 781.7588
682.4104, 783.7562
682.8925, 785.0624
683.3746, 785.7700
683.8568, 785.9901
684.3389, 785.2008
684.8210, 784.8013
685.3031, 786.4084
685.7852, 789.1246
686.2673, 791.0342
686.7495, 789.8646
687.2316, 789.6699
687.7137, 792.5566
688.1958, 797.5712
688.6779, 800.7576
689.1600, 801.4804
689.6422, 801.7894
690.1243, 802.1628
690.6064, 802.7362
691.0885, 804.7645
691.5706, 808.3049
692.0527, 811.7044
692.5349, 813.5898
693.0170, 814.7111
693.4991, 816.3123
693.9812, 818.4525
694.4633, 820.9022
694.9454, 824.2183
695.4276, 827.2953
695.9097, 829.1056
696.3918, 828.9370
696.8739, 829.1976
697.3560, 829.8890
697.8381, 831.3757
698.3203, 834.2147
698.8024, 839.1663
699.2845, 842.7091
699.7666, 844.0016
700.2487, 845.0905
700.7308, 849.4918
701.2130, 856.5739
701.6951, 862.3514
702.1772, 865.7045
702.6593, 867.7397
703.1414, 868.8615
703.6235, 869.6883
704.1057, 871.4035
704.5878, 873.6940
705.0699, 877.7938
705.5520, 885.6024
706.0341, 895.7766
706.5162, 903.8724
706.9984, 907.1955
707.4805, 912.0925
707.9626, 920.4319
708.4447, 931.5933
708.9268, 942.6297
709.4089, 953.5026
709.8911, 963.7386
710.3732, 972.6034
710.8553, 980.7620
711.3374, 989.6027
711.8195, 999.1110
712.3016, 1009.627
712.7838, 1022.061
713.2659, 1035.080
713.7480, 1047.412
714.2301, 1058.967
714.7122, 1071.546
715.1943, 1086.277
715.6765, 1102.008
716.1586, 1117.672
716.6407, 1132.784
717.1228, 1150.264
717.6049, 1170.429
718.0870, 1192.625
718.5692, 1216.557
719.0513, 1242.068
719.5334, 1266.531
720.0155, 1289.292
720.4976, 1314.712
720.9797, 1350.918
721.4619, 1392.097
721.9440, 1430.066
722.4261, 1462.389
722.9082, 1490.166
723.3903, 1513.671
723.8724, 1533.089
724.3546, 1549.095
724.8367, 1565.425
725.3188, 1572.850
725.8009, 1570.986
726.2830, 1559.620
726.7651, 1537.793
727.2473, 1504.743
727.7294, 1466.175
728.2115, 1422.725
728.6936, 1375.890
729.1757, 1327.507
729.6578, 1278.292
730.1400, 1231.776
730.6221, 1189.254
731.1042, 1149.723
731.5863, 1112.213
732.0684, 1077.399
732.5505, 1047.501
733.0327, 1025.306
733.5148, 1005.939
733.9969, 988.2839
734.4790, 972.3961
734.9611, 957.3332
735.4432, 942.6718
735.9254, 930.3724
736.4075, 922.2689
736.8896, 917.2038
737.3717, 910.2018
737.8538, 901.5042
738.3359, 893.5898
738.8181, 888.4559
739.3002, 884.7902
739.7823, 881.3984
740.2644, 878.1904
740.7465, 875.2161
741.2286, 871.8685
741.7108, 869.2711
742.1929, 868.6249
742.6750, 870.6781
743.1571, 869.7670
743.6392, 864.2693
744.1213, 858.9333
744.6035, 858.0660
745.0856, 861.2715
745.5677, 862.3456
746.0498, 860.8339
746.5319, 858.7629
747.0140, 858.2301
747.4962, 858.2700
747.9783, 857.2139
748.4604, 854.4212
748.9425, 852.3099
749.4246, 852.8999
749.9067, 854.2635
750.3889, 854.6277
750.8710, 853.1310
751.3531, 851.9406
751.8352, 851.1642
752.3173, 850.5712
752.7994, 849.6877
753.2816, 848.4811
753.7637, 848.5553
754.2458, 850.5054
754.7279, 852.4155
755.2100, 851.3094
755.6921, 848.4855
756.1743, 846.4686
756.6564, 845.9222
757.1385, 846.5384
757.6206, 849.4019
758.1027, 852.9432
758.5848, 854.8187
759.0670, 853.9647
759.5491, 852.3431
760.0312, 849.2968
760.5133, 846.1500
760.9954, 845.7441
761.4775, 848.2714
761.9597, 850.5571
762.4418, 851.6823
762.9239, 852.3698
763.4060, 853.5638
763.8881, 855.2344
764.3702, 857.3522
764.8524, 861.5726
765.3345, 864.4835
765.8166, 862.8600
766.2987, 858.5384
766.7808, 856.1909
767.2629, 858.4044
767.7451, 860.2666
768.2272, 860.7529
768.7093, 860.3411
769.1914, 860.8137
769.6735, 862.3270
770.1556, 862.8424
770.6378, 860.7839
771.1199, 857.9818
771.6020, 858.5145
772.0841, 861.4794
772.5662, 863.5941
773.0483, 862.1411
773.5305, 860.2563
774.0126, 859.5244
774.4947, 859.9220
774.9768, 861.1008
775.4589, 864.1800
775.9410, 866.5018
776.4232, 867.0546
776.9053, 866.2054
777.3874, 866.2407
777.8695, 867.2725
778.3516, 867.8214
778.8337, 866.4391
779.3159, 864.3787
779.7980, 864.4080
780.2801, 866.1713
780.7622, 867.8063
781.2443, 868.3039
781.7264, 868.3050
782.2086, 867.6755
782.6907, 866.5304
783.1728, 866.9852
783.6548, 870.8351
784.1370, 873.8478
784.6191, 874.0242
785.1012, 871.7698
785.5833, 871.1906
786.0654, 872.3771
786.5475, 873.6877
787.0297, 873.6330
787.5118, 873.1805
787.9939, 874.5804
788.4760, 877.5233
788.9581, 879.3690
789.4402, 877.2477
789.9224, 874.7792
790.4045, 873.9977
790.8866, 875.1185
791.3687, 877.0062
791.8508, 880.2534
792.3329, 883.1837
792.8151, 885.0205
793.2972, 885.8234
793.7793, 885.8983
794.2614, 885.2420
794.7435, 884.3389
795.2256, 882.5577
795.7078, 881.2567
796.1899, 883.1151
796.6720, 887.9508
797.1541, 891.7401
797.6362, 892.0791
798.1183, 891.2921
798.6005, 890.3383
799.0826, 889.2167
799.5647, 889.0305
800.0468, 890.5910
800.5289, 891.2282
801.0110, 888.2943
801.4932, 882.6956
801.9753, 881.4487
802.4574, 884.4486
802.9395, 888.1237
803.4216, 890.2844
803.9037, 891.5394
804.3859, 892.3329
804.8680, 892.7207
805.3501, 893.1881
805.8322, 893.6785
806.3143, 894.5253
806.7964, 896.0897
807.2786, 898.4249
807.7607, 899.8223
808.2428, 900.0447
808.7249, 900.2466
809.2070, 901.4648
809.6891, 903.2485
810.1713, 903.9839
810.6534, 903.7137
811.1355, 903.2946
811.6176, 902.4681
812.0997, 902.3441
812.5818, 904.6986
813.0640, 909.6837
813.5461, 912.0412
814.0282, 908.6615
814.5103, 905.0994
814.9924, 903.5900
815.4745, 904.0602
815.9567, 905.0534
816.4388, 906.6371
816.9209, 907.9185
817.4030, 907.7076
817.8851, 907.0363
818.3672, 908.0431
818.8494, 910.5615
819.3315, 912.9261
819.8136, 914.3783
820.2957, 915.3363
820.7778, 915.9739
821.2599, 916.3079
821.7421, 916.4635
822.2242, 916.4254
822.7063, 916.2318
823.1884, 915.4993
823.6705, 914.6170
824.1526, 916.3610
824.6348, 920.5443
825.1169, 923.7562
825.5990, 922.9964
826.0811, 920.7933
826.5632, 918.7892
827.0453, 917.3543
827.5275, 918.2239
828.0096, 925.8981
828.4917, 931.7959
828.9738, 932.3604
829.4559, 928.3093
829.9380, 924.4110
830.4202, 920.2033
830.9023, 918.7347
831.3844, 922.9170
831.8665, 929.8195
832.3486, 932.7667
832.8307, 932.3519
833.3129, 931.2729
833.7950, 930.6115
834.2771, 930.0872
834.7592, 929.3826
835.2413, 928.6257
835.7234, 928.4609
836.2056, 928.7722
836.6877, 929.9861
837.1698, 932.9198
837.6519, 936.4401
838.1340, 936.4514
838.6161, 933.1614
839.0983, 930.3364
839.5804, 929.4043
840.0625, 929.8888
840.5446, 932.0750
841.0267, 935.2378
841.5089, 937.5210
841.9910, 937.7742
842.4731, 937.6159
842.9552, 936.8934
843.4373, 936.2419
843.9194, 937.4011
844.4016, 941.1166
844.8837, 943.1375
845.3658, 941.9938
845.8479, 939.5248
846.3300, 939.0958
846.8121, 939.9984
847.2943, 940.1295
847.7764, 937.7962
848.2585, 935.9976
848.7406, 936.9320
849.2227, 939.3939
849.7048, 941.5554
850.1870, 943.6693
850.6691, 944.6376
851.1512, 944.0420
851.6333, 942.6942
852.1154, 941.2245
852.5975, 939.8288
853.0797, 940.9364
853.5618, 945.7847
854.0439, 950.1361
854.5260, 948.1867
855.0081, 943.7428
855.4902, 941.8882
855.9724, 945.0304
856.4545, 948.2866
856.9366, 951.1520
857.4187, 953.3846
857.9008, 954.8206
858.3829, 955.5043
858.8651, 954.3619
859.3472, 950.7790
859.8293, 948.0184
860.3114, 950.9210
860.7935, 956.5659
861.2756, 959.2967
861.7578, 958.1143
862.2399, 956.8589
862.7220, 957.6476
863.2041, 958.9775
863.6862, 958.8231
864.1683, 965.5740
864.6505, 969.7128
865.1326, 971.3793
865.6147, 963.1693
866.0968, 967.7126
866.5789, 967.1451
867.0610, 966.3679
867.5432, 972.7065
868.0253, 965.9332
868.5074, 972.1587
868.9895, 973.1953
869.4716, 976.6068
869.9537, 971.9738
870.4359, 975.0945
870.9180, 978.5314
871.4001, 980.5553
871.8822, 979.8094
872.3643, 977.1429
872.8464, 977.3517
873.3286, 980.2936
873.8107, 983.2943
874.2928, 984.7103
874.7749, 985.5825
875.2570, 987.1195
875.7391, 989.0472
876.2213, 990.4938
876.7034, 990.0866
877.1855, 990.4713
877.6676, 992.0954
878.1497, 994.9371
878.6318, 998.8516
879.1140, 1003.781
879.5961, 1010.754
880.0782, 1020.462
880.5603, 1031.615
881.0424, 1043.576
881.5245, 1055.410
882.0067, 1065.438
882.4888, 1076.209
882.9709, 1080.355
883.4530, 1072.751
883.9351, 1058.292
884.4172, 1042.404
884.8994, 1023.100
885.3815, 1009.489
885.8636, 1003.052
886.3457, 1000.447
886.8278, 998.7880
887.3099, 997.6998
887.7921, 996.0358
888.2742, 993.4212
888.7563, 991.4926
889.2384, 991.7849
889.7205, 992.8291
890.2026, 993.4100
890.6848, 993.2549
891.1669, 993.4595
891.6490, 994.1440
892.1311, 994.9147
892.6132, 995.4117
893.0953, 995.7485
893.5775, 996.6678
894.0596, 998.1216
894.5417, 999.0218
895.0238, 998.3631
895.5059, 997.1434
895.9880, 995.6556
896.4702, 994.0266
896.9523, 993.8455
897.4344, 996.2791
897.9165, 998.0798
898.3986, 997.6919
898.8807, 996.0470
899.3629, 996.7617
899.8450, 999.5236
900.3271, 1001.913
900.8092, 1003.321
901.2913, 1003.387
901.7734, 1000.533
902.2556, 996.2841
902.7377, 993.8153
903.2198, 995.4487
903.7019, 996.8929
904.1840, 997.5458
904.6661, 997.9759
905.1483, 999.5424
905.6304, 1002.125
906.1125, 1002.788
906.5946, 1000.372
907.0767, 998.5015
907.5588, 1002.505
908.0410, 1008.489
908.5231, 1011.485
909.0052, 1009.063
909.4873, 1007.145
909.9694, 1006.341
910.4515, 1006.487
910.9337, 1007.829
911.4158, 1010.441
911.8979, 1012.084
912.3800, 1012.706
912.8621, 1012.596
913.3442, 1011.283
913.8264, 1009.805
914.3085, 1009.600
914.7906, 1010.658
915.2727, 1011.392
915.7548, 1010.391
916.2369, 1010.063
916.7191, 1011.613
917.2012, 1014.570
917.6833, 1016.399
918.1654, 1017.095
918.6475, 1017.026
919.1296, 1015.981
919.6118, 1014.686
920.0939, 1013.823
920.5760, 1013.479
921.0581, 1013.848
921.5402, 1015.101
922.0223, 1017.032
922.5045, 1020.508
922.9866, 1023.998
923.4687, 1024.777
923.9508, 1022.572
924.4329, 1021.554
924.9150, 1022.522
925.3972, 1024.109
925.8793, 1024.825
926.3614, 1025.149
926.8435, 1025.800
927.3256, 1027.012
927.8077, 1028.092
928.2899, 1029.482
928.7720, 1030.014
929.2541, 1028.358
929.7362, 1024.230
930.2183, 1023.832
930.7004, 1027.406
931.1826, 1031.159
931.6647, 1033.265
932.1468, 1033.394
932.6289, 1029.243
933.1110, 1021.983
933.5931, 1018.238
934.0753, 1024.197
934.5574, 1029.535
935.0395, 1030.612
935.5216, 1028.952
936.0037, 1029.869
936.4858, 1033.484
936.9680, 1035.435
937.4501, 1033.760
937.9322, 1031.073
938.4143, 1029.845
938.8964, 1030.076
939.3785, 1031.933
939.8607, 1037.609
940.3428, 1041.237
940.8249, 1040.386
941.3070, 1038.564
941.7891, 1039.291
942.2712, 1042.684
942.7534, 1045.170
943.2355, 1046.544
943.7176, 1047.196
944.1997, 1047.317
944.6818, 1047.051
945.1639, 1046.463
945.6461, 1045.576
946.1282, 1044.775
946.6103, 1044.372
947.0924, 1043.839
947.5745, 1042.867
948.0566, 1041.641
948.5388, 1041.264
949.0209, 1041.689
949.5030, 1041.781
949.9851, 1040.123
950.4672, 1038.888
950.9493, 1041.355
951.4315, 1045.672
951.9136, 1048.129
952.3957, 1046.063
952.8778, 1044.363
953.3599, 1043.073
953.8420, 1042.740
954.3242, 1045.119
954.8063, 1049.591
955.2884, 1050.887
955.7705, 1047.884
956.2526, 1045.043
956.7347, 1046.506
957.2169, 1049.670
957.6990, 1052.272
958.1811, 1053.966
958.6632, 1055.334
959.1453, 1056.472
959.6274, 1057.169
960.1096, 1056.965
960.5917, 1056.264
961.0738, 1056.979
961.5559, 1058.919
962.0380, 1060.910
962.5201, 1063.219
963.0023, 1064.488
963.4844, 1063.175
963.9665, 1060.262
964.4486, 1058.394
964.9307, 1058.047
965.4128, 1057.725
965.8950, 1057.118
966.3771, 1056.697
966.8592, 1057.637
967.3413, 1059.264
967.8234, 1059.556
968.3055, 1057.807
968.7877, 1056.522
969.2698, 1056.897
969.7519, 1058.490
970.2340, 1061.434
970.7161, 1066.070
971.1982, 1068.213
971.6804, 1067.482
972.1625, 1066.339
972.6446, 1066.522
973.1267, 1067.223
973.6088, 1067.085
974.0909, 1066.142
974.5731, 1064.542
975.0552, 1060.320
975.5373, 1057.823
976.0194, 1058.724
976.5015, 1061.942
976.9836, 1066.275
977.4658, 1071.852
977.9479, 1074.760
978.4300, 1073.724
978.9121, 1071.882
979.3942, 1073.170
979.8763, 1075.591
980.3585, 1076.410
980.8406, 1074.696
981.3226, 1073.092
981.8047, 1070.775
982.2869, 1070.311
982.7690, 1074.397
983.2511, 1082.153
983.7332, 1084.573
984.2153, 1082.008
984.6974, 1079.149
985.1796, 1078.553
985.6617, 1078.973
986.1438, 1079.753
986.6259, 1080.787
987.1080, 1081.860
987.5901, 1083.234
988.0723, 1083.965
988.5544, 1083.662
989.0365, 1083.116
989.5186, 1083.611
990.0007, 1084.868
990.4828, 1085.913
990.9650, 1086.476
991.4471, 1087.479
991.9292, 1090.152
992.4113, 1092.956
992.8934, 1094.992
993.3755, 1096.327
993.8577, 1095.586
994.3398, 1092.382
994.8219, 1089.331
995.3040, 1087.643
995.7861, 1087.213
996.2682, 1088.247
996.7504, 1090.378
997.2325, 1092.561
997.7146, 1095.385
998.1967, 1096.844
998.6788, 1095.505
999.1609, 1093.430
999.6431, 1094.012
1000.125, 1097.206
1000.607, 1099.256
1001.089, 1099.599
1001.572, 1099.279
1002.054, 1098.257
1002.536, 1097.713
1003.018, 1099.252
1003.500, 1103.337
1003.982, 1106.357
1004.464, 1108.063
1004.946, 1108.637
1005.428, 1107.486
1005.911, 1105.615
1006.393, 1106.800
1006.875, 1110.288
1007.357, 1112.810
1007.839, 1111.659
1008.321, 1110.849
1008.803, 1113.141
1009.285, 1116.631
1009.768, 1118.511
1010.250, 1118.324
1010.732, 1118.234
1011.214, 1118.408
1011.696, 1118.478
1012.178, 1117.966
1012.660, 1117.191
1013.142, 1116.156
1013.624, 1114.987
1014.107, 1115.522
1014.589, 1120.770
1015.071, 1125.105
1015.553, 1126.575
1016.035, 1125.882
1016.517, 1124.778
1016.999, 1123.412
1017.481, 1123.650
1017.964, 1126.897
1018.446, 1130.124
1018.928, 1129.656
1019.410, 1128.152
1019.892, 1129.174
1020.374, 1135.153
1020.856, 1138.346
1021.338, 1137.901
1021.820, 1136.915
1022.303, 1138.484
1022.785, 1141.156
1023.267, 1140.118
1023.749, 1136.178
1024.231, 1134.375
1024.713, 1139.242
1025.195, 1144.497
1025.677, 1148.513
1026.160, 1150.924
1026.642, 1150.032
1027.124, 1145.517
1027.606, 1144.027
1028.088, 1147.451
1028.570, 1151.399
1029.052, 1150.083
1029.534, 1147.386
1030.016, 1148.325
1030.499, 1154.700
1030.981, 1158.514
1031.463, 1158.471
1031.945, 1157.294
1032.427, 1155.571
1032.909, 1154.037
1033.391, 1155.737
1033.873, 1160.021
1034.355, 1164.135
1034.838, 1167.491
1035.320, 1169.607
1035.802, 1168.906
1036.284, 1167.481
1036.766, 1168.476
1037.248, 1172.578
1037.730, 1174.935
1038.212, 1175.103
1038.695, 1174.446
1039.177, 1173.292
1039.659, 1172.603
1040.141, 1173.883
1040.623, 1177.066
1041.105, 1180.142
1041.587, 1183.518
1042.069, 1185.334
1042.552, 1184.333
1043.034, 1182.281
1043.516, 1183.443
1043.998, 1187.225
1044.480, 1191.224
1044.962, 1194.990
1045.444, 1198.407
1045.926, 1201.891
1046.408, 1204.640
1046.891, 1205.819
1047.373, 1205.269
1047.855, 1204.649
1048.337, 1203.862
1048.819, 1204.009
1049.301, 1206.526
1049.783, 1209.830
1050.265, 1211.626
1050.747, 1212.573
1051.230, 1214.487
1051.712, 1217.462
1052.194, 1222.482
1052.676, 1231.023
1053.158, 1239.397
1053.640, 1241.424
1054.122, 1239.049
1054.604, 1240.246
1055.087, 1245.872
1055.569, 1251.761
1056.051, 1255.200
1056.533, 1258.415
1057.015, 1262.991
1057.497, 1268.518
1057.979, 1272.538
1058.461, 1274.810
1058.943, 1278.774
1059.426, 1285.897
1059.908, 1294.314
1060.390, 1302.727
1060.872, 1310.763
1061.354, 1317.870
1061.836, 1323.457
1062.318, 1328.897
1062.800, 1333.214
1063.282, 1339.545
1063.765, 1350.937
1064.247, 1365.859
1064.729, 1378.859
1065.211, 1390.514
1065.693, 1403.024
1066.175, 1419.749
1066.657, 1434.803
1067.139, 1443.838
1067.622, 1451.674
1068.104, 1465.172
1068.586, 1484.407
1069.068, 1502.613
1069.550, 1519.085
1070.032, 1535.826
1070.514, 1554.681
1070.996, 1574.479
1071.479, 1594.777
1071.961, 1615.467
1072.443, 1634.430
1072.925, 1649.744
1073.407, 1669.662
1073.889, 1698.347
1074.371, 1729.667
1074.853, 1754.325
1075.335, 1774.882
1075.818, 1796.717
1076.300, 1821.104
1076.782, 1846.191
1077.264, 1872.193
1077.746, 1897.841
1078.228, 1921.909
1078.710, 1944.581
1079.192, 1966.813
1079.674, 1988.642
1080.156, 2010.844
1080.639, 2029.778
1081.121, 2054.055
1081.603, 2089.590
1082.085, 2133.272
1082.567, 2177.808
1083.049, 2220.787
1083.531, 2275.174
1084.013, 2341.864
1084.496, 2421.713
1084.978, 2517.809
1085.460, 2625.999
1085.942, 2742.858
1086.424, 2869.048
1086.906, 3004.695
1087.388, 3150.935
1087.870, 3304.149
1088.353, 3464.579
1088.835, 3630.769
1089.317, 3792.505
1089.799, 3957.669
1090.281, 4141.563
1090.763, 4346.235
1091.245, 4575.600
1091.727, 4819.782
1092.209, 5104.237
1092.692, 5428.462
1093.174, 5800.279
1093.656, 6246.817
1094.138, 6770.176
1094.620, 7388.100
1095.102, 8103.788
1095.584, 8923.130
1096.066, 9891.295
1096.548, 10942.92
1097.031, 12042.23
1097.513, 13225.72
1097.995, 14268.99
1098.477, 15198.39
1098.959, 15785.65
1099.441, 15917.13
1099.923, 15582.37
1100.405, 14640.00
1100.888, 13227.01
1101.370, 11707.00
1101.852, 10001.07
1102.334, 8488.525
1102.816, 7196.938
1103.298, 6113.199
1103.780, 5225.699
1104.262, 4515.907
1104.745, 3951.315
1105.227, 3520.165
1105.709, 3166.795
1106.191, 2887.295
1106.673, 2656.920
1107.155, 2472.756
1107.637, 2325.750
1108.119, 2198.467
1108.601, 2089.086
1109.083, 1993.536
1109.566, 1910.296
1110.048, 1838.902
1110.530, 1782.548
1111.012, 1733.957
1111.494, 1686.507
1111.976, 1640.340
1112.458, 1605.506
1112.940, 1582.202
1113.423, 1560.057
1113.905, 1534.190
1114.387, 1507.804
1114.869, 1483.380
1115.351, 1461.107
1115.833, 1442.066
1116.315, 1427.247
1116.797, 1413.174
1117.280, 1399.932
1117.762, 1386.701
1118.244, 1371.412
1118.726, 1356.645
1119.208, 1346.812
1119.690, 1340.909
1120.172, 1335.742
1120.654, 1331.024
1121.136, 1325.812
1121.619, 1319.511
1122.101, 1313.553
1122.583, 1310.402
1123.065, 1308.812
1123.547, 1304.376
1124.029, 1297.091
1124.511, 1290.447
1124.993, 1285.856
1125.475, 1282.773
1125.958, 1281.791
1126.440, 1281.468
1126.922, 1278.777
1127.404, 1273.965
1127.886, 1268.682
1128.368, 1263.070
1128.850, 1258.517
1129.332, 1257.173
1129.815, 1256.262
1130.297, 1253.173
1130.779, 1248.533
1131.261, 1246.543
1131.743, 1247.278
1132.225, 1248.865
1132.707, 1251.239
1133.189, 1252.796
1133.672, 1251.354
1134.154, 1248.610
1134.636, 1246.425
1135.118, 1245.085
1135.600, 1243.777
1136.082, 1242.393
1136.564, 1241.615
1137.046, 1242.365
1137.528, 1243.300
1138.010, 1242.130
1138.493, 1239.786
1138.975, 1237.983
1139.457, 1238.040
1139.939, 1237.024
1140.421, 1234.225
1140.903, 1231.951
1141.385, 1232.126
1141.867, 1234.066
1142.350, 1236.897
1142.832, 1240.204
1143.314, 1242.635
1143.796, 1243.485
1144.278, 1243.504
1144.760, 1242.734
1145.242, 1241.417
1145.724, 1239.776
1146.207, 1237.856
1146.689, 1234.982
1147.171, 1231.398
1147.653, 1230.241
1148.135, 1236.669
1148.617, 1241.667
1149.099, 1241.420
1149.581, 1238.351
1150.063, 1236.833
1150.546, 1236.797
1151.028, 1238.222
1151.510, 1241.253
1151.992, 1243.604
1152.474, 1243.104
1152.956, 1242.021
1153.438, 1241.449
1153.920, 1241.485
1154.402, 1243.235
1154.885, 1246.600
1155.367, 1247.322
1155.849, 1243.391
1156.331, 1239.450
1156.813, 1239.539
1157.295, 1241.409
1157.777, 1243.321
1158.259, 1245.184
1158.742, 1246.135
1159.224, 1246.182
1159.706, 1245.113
1160.188, 1241.933
1160.670, 1239.251
1161.152, 1240.491
1161.634, 1243.584
1162.116, 1245.658
1162.599, 1245.859
1163.081, 1247.589
1163.563, 1251.283
1164.045, 1253.998
1164.527, 1252.895
1165.009, 1250.727
1165.491, 1251.617
1165.973, 1254.079
1166.455, 1255.125
1166.938, 1253.342
1167.420, 1251.715
1167.902, 1250.203
1168.384, 1249.100
1168.866, 1249.407
1169.348, 1249.863
1169.830, 1247.348
1170.312, 1243.077
1170.794, 1241.116
1171.277, 1244.105
1171.759, 1247.466
1172.241, 1251.482
1172.723, 1254.319
1173.205, 1252.869
1173.687, 1249.300
1174.169, 1248.038
1174.651, 1249.018
1175.134, 1249.866
1175.616, 1249.644
1176.098, 1249.332
1176.580, 1248.949
1177.062, 1248.780
1177.544, 1249.058
1178.026, 1249.913
1178.508, 1252.019
1178.990, 1255.404
1179.473, 1258.290
1179.955, 1261.220
1180.437, 1261.707
1180.919, 1258.195
1181.401, 1252.917
1181.883, 1249.010
1182.365, 1247.050
1182.847, 1250.261
1183.329, 1259.963
1183.812, 1266.893
1184.294, 1264.931
1184.776, 1261.241
1185.258, 1258.057
1185.740, 1255.678
1186.222, 1255.337
1186.704, 1256.589
1187.186, 1257.736
1187.669, 1258.334
1188.151, 1258.827
1188.633, 1259.463
1189.115, 1259.954
1189.597, 1259.782
1190.079, 1259.412
1190.561, 1261.905
1191.043, 1266.427
1191.526, 1268.499
1192.008, 1265.135
1192.490, 1262.433
1192.972, 1264.760
1193.454, 1267.530
1193.936, 1267.338
1194.418, 1264.610
1194.900, 1263.528
1195.382, 1263.852
1195.865, 1263.969
1196.347, 1263.043
1196.829, 1261.978
1197.311, 1260.472
1197.793, 1259.707
1198.275, 1261.137
1198.757, 1264.684
1199.239, 1266.073
1199.721, 1265.524
1200.204, 1265.099
1200.686, 1266.150
1201.168, 1267.330
1201.650, 1268.424
1202.132, 1268.971
1202.614, 1267.867
1203.096, 1265.128
1203.578, 1266.124
1204.061, 1270.583
1204.543, 1273.906
1205.025, 1271.259
1205.507, 1268.951
1205.989, 1271.711
1206.471, 1275.949
1206.953, 1276.511
1207.435, 1273.495
1207.917, 1272.249
1208.400, 1273.015
1208.882, 1274.486
1209.364, 1276.768
1209.846, 1278.461
1210.328, 1278.664
1210.810, 1277.761
1211.292, 1275.515
1211.774, 1272.023
1212.256, 1271.942
1212.739, 1275.618
1213.221, 1279.090
1213.703, 1279.054
1214.185, 1278.702
1214.667, 1280.205
1215.149, 1282.474
1215.631, 1283.169
1216.113, 1282.446
1216.596, 1283.422
1217.078, 1286.557
1217.560, 1288.923
1218.042, 1288.189
1218.524, 1286.478
1219.006, 1284.486
1219.488, 1282.641
1219.970, 1282.184
1220.453, 1282.946
1220.935, 1282.725
1221.417, 1281.113
1221.899, 1279.509
1222.381, 1277.267
1222.863, 1277.140
1223.345, 1282.543
1223.827, 1290.195
1224.309, 1289.978
1224.792, 1283.071
1225.274, 1279.052
1225.756, 1279.898
1226.238, 1282.185
1226.720, 1284.834
1227.202, 1287.237
1227.684, 1289.111
1228.166, 1290.507
1228.648, 1292.221
1229.131, 1293.773
1229.613, 1291.794
1230.095, 1284.734
1230.577, 1279.028
1231.059, 1278.646
1231.541, 1280.351
1232.023, 1282.856
1232.505, 1285.789
1232.988, 1288.153
1233.470, 1289.908
1233.952, 1290.777
1234.434, 1290.653
1234.916, 1289.878
1235.398, 1287.962
1235.880, 1286.212
1236.362, 1285.344
1236.844, 1285.032
1237.327, 1283.956
1237.809, 1282.496
1238.291, 1282.044
1238.773, 1283.334
1239.255, 1284.328
1239.737, 1282.418
1240.219, 1282.618
1240.701, 1288.804
1241.183, 1297.515
1241.666, 1297.608
1242.148, 1291.853
1242.630, 1288.128
1243.112, 1289.313
1243.594, 1290.482
1244.076, 1290.100
1244.558, 1290.163
1245.040, 1291.981
1245.523, 1294.595
1246.005, 1295.655
1246.487, 1295.589
1246.969, 1295.478
1247.451, 1295.839
1247.933, 1295.250
1248.415, 1292.544
1248.897, 1291.246
1249.380, 1294.018
1249.862, 1298.584
1250.344, 1300.097
1250.826, 1299.756
1251.308, 1299.850
1251.790, 1301.319
1252.272, 1302.183
1252.754, 1302.195
1253.236, 1302.177
1253.719, 1302.669
1254.201, 1303.315
1254.683, 1304.453
1255.165, 1305.038
1255.647, 1302.798
1256.129, 1294.741
1256.611, 1292.155
1257.093, 1296.059
1257.575, 1300.506
1258.058, 1302.266
1258.540, 1302.618
1259.022, 1302.545
1259.504, 1302.295
1259.986, 1302.301
1260.468, 1302.696
1260.950, 1302.583
1261.432, 1301.873
1261.915, 1301.860
1262.397, 1304.726
1262.879, 1306.705
1263.361, 1302.262
1263.843, 1296.098
1264.325, 1294.807
1264.807, 1299.252
1265.289, 1301.755
1265.771, 1302.373
1266.254, 1302.458
1266.736, 1301.825
1267.218, 1302.159
1267.700, 1306.902
1268.182, 1311.389
1268.664, 1309.517
1269.146, 1301.503
1269.628, 1301.260
1270.110, 1307.873
1270.593, 1313.914
1271.075, 1316.092
1271.557, 1316.423
1272.039, 1314.367
1272.521, 1312.032
1273.003, 1311.004
1273.485, 1311.092
1273.967, 1311.317
1274.450, 1311.526
1274.932, 1310.971
1275.414, 1307.573
1275.896, 1306.453
1276.378, 1310.205
1276.860, 1313.916
1277.342, 1313.014
1277.824, 1309.709
1278.306, 1311.396
1278.789, 1316.437
1279.271, 1320.250
1279.753, 1320.345
1280.235, 1321.030
1280.717, 1323.509
1281.199, 1324.083
1281.681, 1317.557
1282.163, 1309.459
1282.646, 1311.085
1283.128, 1318.384
1283.610, 1322.724
1284.092, 1320.476
1284.574, 1320.219
1285.056, 1322.397
1285.538, 1324.225
1286.020, 1323.226
1286.502, 1321.804
1286.984, 1323.614
1287.467, 1326.366
1287.949, 1325.954
1288.431, 1321.130
1288.913, 1320.348
1289.395, 1323.697
1289.877, 1326.670
1290.359, 1326.666
1290.841, 1325.497
1291.324, 1323.171
1291.806, 1321.293
1292.288, 1322.169
1292.770, 1325.731
1293.252, 1324.116
1293.734, 1318.307
1294.216, 1315.863
1294.698, 1323.797
1295.181, 1330.087
1295.663, 1327.354
1296.145, 1323.091
1296.627, 1321.880
1297.109, 1323.285
1297.591, 1326.383
1298.073, 1330.405
1298.555, 1332.725
1299.037, 1330.806
1299.520, 1330.620
1300.002, 1333.640
1300.484, 1337.278
1300.966, 1340.433
1301.448, 1342.460
1301.930, 1341.105
1302.412, 1338.141
1302.894, 1337.172
1303.376, 1340.066
1303.859, 1342.548
1304.341, 1344.705
1304.823, 1345.073
1305.305, 1342.597
1305.787, 1337.492
##END=



