##NAMES=Dolomite
##RRUFFID=R040030
##IDEAL CHEMISTRY=CaMg(CO_3_)_2_
##LOCALITY=Austria
##OWNER=RRUFF
##SOURCE=University of Arizona Mineral Museum
##DESCRIPTION=Group of colorless tabular crystals
##STATUS=The identification of this mineral has been confirmed by X-ray diffraction and chemical analysis
##URL=rruff.info/R040030
##MEASURED CHEMISTRY=(Ca_0.99_Mg_0.01_)_Î£=1_Mg_1.00_(CO_3_)_2_ ; trace amounts of Mn; CO_2_ estimated by difference
120.0622, 90.95966
120.5444, 91.39101
121.0265, 91.08378
121.5086, 90.02074
121.9907, 89.17765
122.4728, 89.18178
122.9549, 89.63732
123.4371, 89.44151
123.9192, 87.91074
124.4013, 86.13792
124.8834, 85.26491
125.3655, 85.30444
125.8476, 85.85895
126.3298, 87.01862
126.8119, 88.90372
127.2940, 89.86295
127.7761, 88.15416
128.2582, 86.07906
128.7404, 85.13344
129.2225, 85.71677
129.7046, 86.91235
130.1867, 87.02171
130.6688, 84.94450
131.1509, 83.90100
131.6331, 85.31783
132.1152, 87.35761
132.5973, 88.14235
133.0794, 86.73595
133.5615, 83.80119
134.0436, 82.13634
134.5258, 82.68219
135.0079, 83.59158
135.4900, 85.05026
135.9721, 86.69302
136.4542, 87.92797
136.9363, 88.32414
137.4184, 87.94328
137.9006, 87.87083
138.3827, 88.17734
138.8648, 88.64576
139.3469, 89.19073
139.8290, 89.80727
140.3111, 90.53200
140.7933, 91.45515
141.2754, 92.53987
141.7575, 93.45306
142.2396, 93.80045
142.7217, 94.15426
143.2038, 95.15081
143.6860, 96.89889
144.1681, 98.98927
144.6502, 101.2782
145.1323, 103.6615
145.6144, 105.9052
146.0965, 107.5761
146.5787, 108.9834
147.0608, 111.1438
147.5429, 114.2971
148.0250, 118.0276
148.5071, 121.9051
148.9892, 126.0190
149.4714, 130.6701
149.9535, 135.6105
150.4356, 140.6831
150.9177, 148.1615
151.3998, 159.4886
151.8819, 172.2783
152.3641, 185.8057
152.8462, 200.0664
153.3283, 215.4732
153.8104, 232.8389
154.2925, 252.9720
154.7746, 272.6474
155.2568, 292.9287
155.7389, 312.2073
156.2210, 329.8546
156.7031, 345.5423
157.1852, 358.8448
157.6673, 368.9354
158.1495, 373.4491
158.6316, 378.2585
159.1137, 383.1683
159.5958, 388.4570
160.0779, 394.1076
160.5600, 400.0995
161.0422, 407.0718
161.5243, 416.6628
162.0064, 429.3473
162.4885, 442.9605
162.9706, 457.1815
163.4527, 472.0121
163.9349, 487.5059
164.4170, 503.7999
164.8991, 520.6473
165.3812, 537.5724
165.8633, 554.4476
166.3454, 571.9176
166.8276, 590.0040
167.3097, 608.7894
167.7918, 629.4647
168.2739, 652.0558
168.7560, 677.3097
169.2381, 705.4950
169.7203, 736.5513
170.2024, 770.6449
170.6845, 807.4069
171.1666, 846.1364
171.6487, 890.9280
172.1308, 944.2852
172.6130, 1003.798
173.0951, 1070.129
173.5772, 1144.313
174.0593, 1220.805
174.5414, 1294.315
175.0235, 1376.986
175.5057, 1427.129
175.9878, 1445.086
176.4699, 1429.999
176.9520, 1376.297
177.4341, 1280.152
177.9162, 1152.130
178.3984, 1022.433
178.8805, 879.2135
179.3626, 751.0773
179.8447, 638.9162
180.3268, 543.0607
180.8089, 463.4138
181.2911, 400.6864
181.7732, 353.3012
182.2553, 312.3624
182.7374, 279.1027
183.2195, 250.7363
183.7016, 227.9216
184.1838, 209.6444
184.6659, 194.5430
185.1480, 181.9379
185.6301, 171.6434
186.1122, 161.9549
186.5943, 152.4200
187.0765, 143.8064
187.5586, 136.5051
188.0407, 130.4164
188.5228, 125.1615
189.0049, 120.6010
189.4870, 116.7710
189.9692, 113.2995
190.4513, 110.1692
190.9334, 107.3797
191.4155, 105.1458
191.8976, 103.4288
192.3797, 101.5105
192.8619, 98.64671
193.3440, 95.27283
193.8261, 92.63731
194.3082, 91.37360
194.7903, 90.57465
195.2724, 89.31200
195.7546, 87.53710
196.2367, 85.64184
196.7188, 83.64677
197.2009, 81.72695
197.6830, 80.17989
198.1651, 79.23540
198.6473, 78.61810
199.1294, 77.80455
199.6115, 76.64217
200.0936, 75.68224
200.5757, 75.29360
201.0578, 75.20625
201.5400, 75.10921
202.0221, 74.88782
202.5042, 74.54262
202.9863, 74.03330
203.4684, 73.16190
203.9505, 72.46565
204.4327, 72.07261
204.9148, 71.93504
205.3969, 72.01779
205.8790, 72.34826
206.3611, 72.84790
206.8432, 73.13877
207.3254, 73.36544
207.8075, 73.14285
208.2896, 71.94194
208.7717, 70.33743
209.2538, 69.17863
209.7359, 69.05413
210.2181, 69.82689
210.7002, 70.23092
211.1823, 69.61354
211.6644, 69.29106
212.1465, 69.92873
212.6286, 71.01280
213.1108, 71.60209
213.5929, 71.02057
214.0750, 69.37491
214.5571, 68.25195
215.0392, 67.76882
215.5213, 67.60902
216.0035, 67.82167
216.4856, 68.30507
216.9677, 68.90244
217.4498, 69.54629
217.9319, 70.21036
218.4140, 70.56853
218.8961, 70.49255
219.3783, 70.31789
219.8604, 70.03319
220.3425, 69.72757
220.8246, 69.64262
221.3067, 69.96009
221.7888, 70.63966
222.2710, 71.30290
222.7531, 72.06322
223.2352, 72.70495
223.7173, 73.06753
224.1994, 73.19292
224.6815, 73.32085
225.1637, 73.68846
225.6458, 74.11956
226.1279, 74.03496
226.6100, 72.97266
227.0921, 71.86214
227.5742, 71.57394
228.0564, 71.99709
228.5385, 71.90077
229.0206, 70.23028
229.5027, 67.74149
229.9848, 66.13109
230.4669, 65.69420
230.9491, 65.87646
231.4312, 66.46623
231.9133, 67.46992
232.3954, 68.15341
232.8775, 68.02724
233.3596, 67.42201
233.8418, 66.73798
234.3239, 65.95500
234.8060, 65.24077
235.2881, 64.62791
235.7702, 64.06263
236.2523, 64.12757
236.7345, 66.01871
237.2166, 68.15432
237.6987, 68.92668
238.1808, 67.80364
238.6629, 66.21266
239.1451, 66.05309
239.6272, 67.65942
240.1093, 68.90232
240.5914, 68.96069
241.0735, 68.50874
241.5556, 67.82219
242.0378, 66.95345
242.5199, 66.19670
243.0020, 65.95876
243.4841, 66.34852
243.9662, 66.87468
244.4483, 67.40235
244.9305, 68.06139
245.4126, 69.18040
245.8947, 70.77002
246.3768, 72.17243
246.8589, 72.31144
247.3410, 70.61749
247.8232, 69.43883
248.3053, 69.20602
248.7874, 69.35299
249.2695, 69.58556
249.7516, 69.83845
250.2337, 70.19331
250.7159, 70.76158
251.1980, 71.57691
251.6801, 72.53357
252.1622, 74.09361
252.6443, 75.43105
253.1264, 75.94987
253.6086, 75.64845
254.0907, 75.03697
254.5728, 74.69795
255.0549, 74.59940
255.5370, 74.91422
256.0191, 75.83525
256.5013, 76.93301
256.9834, 77.98213
257.4655, 78.96240
257.9476, 79.99458
258.4297, 81.24935
258.9118, 82.88390
259.3940, 84.08331
259.8761, 84.53015
260.3582, 84.91027
260.8403, 85.43619
261.3224, 86.19466
261.8045, 87.30169
262.2867, 88.91729
262.7688, 91.13811
263.2509, 93.19692
263.7330, 94.92602
264.2151, 96.66869
264.6972, 98.68192
265.1794, 100.8807
265.6615, 102.9290
266.1436, 104.4503
266.6257, 105.3938
267.1078, 107.3046
267.5899, 110.5387
268.0721, 114.1686
268.5542, 117.9862
269.0363, 121.8867
269.5184, 125.6551
270.0005, 129.0214
270.4826, 132.0891
270.9648, 136.2032
271.4469, 141.6823
271.9290, 147.6046
272.4111, 153.5296
272.8932, 159.6084
273.3753, 166.2748
273.8575, 173.7422
274.3396, 181.9821
274.8217, 190.9412
275.3038, 199.7179
275.7859, 209.9758
276.2680, 222.2042
276.7502, 236.2551
277.2323, 252.1803
277.7144, 270.2299
278.1965, 289.7164
278.6786, 308.6659
279.1607, 326.3703
279.6429, 344.7292
280.1250, 365.0665
280.6071, 386.3931
281.0892, 406.7667
281.5713, 425.5551
282.0534, 443.2607
282.5356, 461.0181
283.0177, 479.3478
283.4998, 496.2407
283.9819, 509.6924
284.4640, 521.7303
284.9461, 535.6818
285.4283, 552.6176
285.9104, 570.6602
286.3925, 586.8680
286.8746, 600.8909
287.3567, 616.7266
287.8388, 636.2650
288.3210, 657.7299
288.8031, 678.2032
289.2852, 697.1069
289.7673, 717.0698
290.2494, 741.4838
290.7315, 770.2079
291.2137, 798.6284
291.6958, 824.6359
292.1779, 850.9351
292.6600, 880.3594
293.1421, 913.1447
293.6242, 948.0518
294.1064, 984.0696
294.5885, 1021.464
295.0706, 1060.265
295.5527, 1102.079
296.0348, 1144.207
296.5169, 1184.943
296.9991, 1224.117
297.4812, 1261.525
297.9633, 1300.023
298.4454, 1334.926
298.9275, 1355.764
299.4096, 1362.034
299.8918, 1354.307
300.3739, 1332.445
300.8560, 1296.562
301.3381, 1247.433
301.8202, 1182.056
302.3023, 1105.079
302.7845, 1025.801
303.2666, 943.0067
303.7487, 862.1606
304.2308, 785.6805
304.7129, 713.8895
305.1950, 647.1370
305.6772, 585.0699
306.1593, 529.2054
306.6414, 481.2777
307.1235, 440.9604
307.6056, 405.4118
308.0877, 373.7066
308.5699, 345.7328
309.0520, 321.4447
309.5341, 301.3702
310.0162, 283.6567
310.4983, 266.4399
310.9804, 249.6232
311.4626, 234.4459
311.9447, 221.2192
312.4268, 209.9016
312.9089, 200.7119
313.3910, 193.8860
313.8731, 187.8281
314.3553, 181.0689
314.8374, 173.9566
315.3195, 167.6071
315.8016, 162.4586
316.2837, 158.0394
316.7658, 153.7851
317.2480, 149.6717
317.7301, 146.2730
318.2122, 144.2717
318.6943, 143.1793
319.1764, 141.7246
319.6585, 139.4291
320.1407, 137.2419
320.6228, 136.1544
321.1049, 135.9916
321.5870, 135.3909
322.0691, 133.5534
322.5512, 131.1405
323.0334, 129.2689
323.5155, 127.8929
323.9976, 127.1712
324.4797, 127.5252
324.9618, 128.6517
325.4439, 129.6253
325.9261, 130.1828
326.4082, 130.5301
326.8903, 130.8854
327.3724, 131.2357
327.8545, 131.7255
328.3366, 132.1576
328.8188, 132.8229
329.3009, 134.3622
329.7830, 137.0061
330.2651, 139.8881
330.7472, 141.9702
331.2293, 143.4625
331.7115, 145.6314
332.1936, 149.0307
332.6757, 153.0262
333.1578, 157.0075
333.6399, 160.9517
334.1220, 164.9343
334.6042, 168.7089
335.0863, 172.6801
335.5684, 177.9703
336.0505, 185.9362
336.5326, 193.8817
337.0147, 200.6700
337.4969, 206.1695
337.9790, 209.8243
338.4611, 211.4966
338.9432, 210.9176
339.4253, 207.7504
339.9074, 202.0305
340.3896, 194.3207
340.8717, 183.7582
341.3538, 171.4713
341.8359, 159.5643
342.3180, 148.5009
342.8001, 138.2380
343.2822, 128.6791
343.7643, 119.7593
344.2465, 111.6800
344.7286, 104.2735
345.2107, 97.83319
345.6928, 92.97443
346.1749, 89.74550
346.6570, 87.05791
347.1392, 83.91694
347.6213, 80.32652
348.1034, 77.41875
348.5855, 75.09178
349.0676, 73.51744
349.5497, 73.33604
350.0319, 74.19896
350.5140, 74.52634
350.9961, 73.23625
351.4782, 70.73924
351.9603, 69.02688
352.4424, 68.82443
352.9246, 68.38017
353.4067, 66.81116
353.8888, 64.68380
354.3709, 63.07053
354.8530, 62.41018
355.3351, 62.24055
355.8173, 61.64746
356.2994, 60.19498
356.7815, 59.33829
357.2636, 59.81241
357.7457, 60.59931
358.2278, 60.63131
358.7100, 59.75605
359.1921, 58.63554
359.6742, 57.96666
360.1563, 57.81123
360.6384, 57.85909
361.1205, 58.52959
361.6027, 59.00623
362.0848, 58.68791
362.5669, 57.75390
363.0490, 56.81715
363.5311, 56.28908
364.0132, 56.13134
364.4954, 56.05845
364.9775, 56.17636
365.4596, 56.24822
365.9417, 56.16719
366.4238, 56.03051
366.9059, 55.99459
367.3881, 56.12202
367.8702, 56.31031
368.3523, 56.33701
368.8344, 55.95432
369.3165, 55.82262
369.7986, 56.26862
370.2808, 56.71766
370.7629, 56.70509
371.2450, 56.19695
371.7271, 55.49007
372.2092, 54.87876
372.6913, 54.34170
373.1735, 54.02427
373.6556, 54.31766
374.1377, 54.42812
374.6198, 53.69592
375.1019, 52.56955
375.5840, 52.10387
376.0662, 53.08477
376.5483, 55.05035
377.0304, 55.73098
377.5125, 54.04203
377.9946, 52.56666
378.4767, 51.56254
378.9589, 51.02566
379.4410, 51.07706
379.9231, 51.72941
380.4052, 52.58514
380.8873, 53.04305
381.3694, 53.02178
381.8516, 52.85438
382.3337, 52.42701
382.8158, 51.97228
383.2979, 51.61755
383.7800, 51.35468
384.2621, 51.08598
384.7443, 50.67582
385.2264, 50.15396
385.7085, 49.89295
386.1906, 50.06598
386.6727, 50.26328
387.1548, 50.39206
387.6370, 50.42095
388.1191, 50.29404
388.6012, 49.96911
389.0833, 49.51475
389.5654, 48.97387
390.0475, 48.26347
390.5297, 47.85275
391.0118, 48.29718
391.4939, 48.86012
391.9760, 48.84455
392.4581, 48.14476
392.9402, 47.49325
393.4224, 47.68307
393.9045, 48.53143
394.3866, 48.84079
394.8687, 48.16550
395.3508, 47.38923
395.8329, 47.27268
396.3151, 47.65029
396.7972, 48.00480
397.2793, 48.06462
397.7614, 48.02628
398.2435, 48.28552
398.7256, 48.88540
399.2078, 49.18066
399.6899, 48.53930
400.1720, 47.44834
400.6541, 47.00621
401.1362, 47.60079
401.6183, 48.20009
402.1005, 48.07429
402.5826, 47.46770
403.0647, 47.06486
403.5468, 47.08852
404.0289, 47.34186
404.5110, 47.62497
404.9932, 47.96799
405.4753, 48.08881
405.9574, 47.78697
406.4395, 47.33173
406.9216, 46.95366
407.4037, 46.67776
407.8859, 46.46719
408.3680, 46.28799
408.8501, 46.14850
409.3322, 46.13031
409.8143, 46.48901
410.2964, 46.66959
410.7786, 46.20971
411.2607, 45.48711
411.7428, 45.23746
412.2249, 45.77976
412.7070, 46.67763
413.1891, 47.06117
413.6713, 46.44270
414.1534, 46.17067
414.6355, 46.41743
415.1176, 46.86727
415.5997, 47.49744
416.0818, 48.17312
416.5640, 48.48263
417.0461, 47.97738
417.5282, 46.64207
418.0103, 45.74649
418.4924, 45.76166
418.9745, 45.72103
419.4567, 45.25711
419.9388, 44.65689
420.4209, 44.35435
420.9030, 44.55112
421.3851, 45.02271
421.8672, 45.32335
422.3494, 45.42094
422.8315, 45.42558
423.3136, 45.02454
423.7957, 44.79099
424.2778, 45.28326
424.7599, 46.39185
425.2421, 47.38620
425.7242, 47.70188
426.2063, 47.36514
426.6884, 46.49780
427.1705, 44.52294
427.6526, 43.00642
428.1348, 42.76846
428.6169, 43.30883
429.0990, 44.00211
429.5811, 44.73780
430.0632, 45.29885
430.5453, 45.29383
431.0275, 44.70880
431.5096, 44.23649
431.9917, 44.02590
432.4738, 44.06827
432.9559, 44.43053
433.4380, 45.10640
433.9202, 45.57964
434.4023, 45.44633
434.8844, 44.99627
435.3665, 44.70382
435.8486, 44.60738
436.3307, 44.71370
436.8129, 45.18587
437.2950, 45.87028
437.7771, 46.14262
438.2592, 45.63442
438.7413, 45.09101
439.2234, 44.97555
439.7056, 45.13173
440.1877, 45.18551
440.6698, 44.99967
441.1519, 44.66084
441.6340, 44.27319
442.1161, 43.75061
442.5983, 43.45631
443.0804, 43.84885
443.5625, 44.14588
444.0446, 43.43585
444.5267, 41.93210
445.0089, 40.82650
445.4910, 41.08792
445.9731, 42.54469
446.4552, 43.52102
446.9373, 43.74234
447.4194, 43.81059
447.9016, 43.67998
448.3837, 43.49851
448.8658, 43.38627
449.3479, 43.39070
449.8300, 43.54729
450.3121, 44.00198
450.7943, 44.97174
451.2764, 45.41977
451.7585, 44.92801
452.2406, 44.29053
452.7227, 43.68410
453.2048, 43.17416
453.6870, 42.83859
454.1691, 42.74543
454.6512, 42.82487
455.1333, 42.92294
455.6154, 43.07822
456.0975, 43.13442
456.5797, 42.77711
457.0618, 42.46231
457.5439, 42.69504
458.0260, 43.53662
458.5081, 44.23443
458.9902, 44.18538
459.4724, 43.52444
459.9545, 42.59748
460.4366, 41.22322
460.9187, 40.18291
461.4008, 40.35290
461.8829, 41.32047
462.3651, 42.11678
462.8472, 42.54429
463.3293, 42.79306
463.8114, 42.98798
464.2935, 43.12146
464.7756, 43.14306
465.2578, 43.00730
465.7399, 42.81977
466.2220, 42.73650
466.7041, 42.72625
467.1862, 42.93063
467.6683, 43.81153
468.1505, 44.59220
468.6326, 44.41050
469.1147, 43.40827
469.5968, 42.54373
470.0789, 42.52591
470.5610, 43.19825
471.0432, 43.50696
471.5253, 42.82327
472.0074, 42.55301
472.4895, 43.26900
472.9716, 44.24178
473.4537, 44.82497
473.9359, 44.83318
474.4180, 44.33823
474.9001, 43.21535
475.3822, 41.27087
475.8643, 40.37003
476.3464, 41.83704
476.8286, 42.96008
477.3107, 42.56416
477.7928, 41.31581
478.2749, 40.32769
478.7570, 40.09914
479.2391, 40.31089
479.7213, 40.48698
480.2034, 40.62600
480.6855, 40.74384
481.1676, 40.82114
481.6497, 40.90147
482.1318, 40.98780
482.6140, 41.09238
483.0961, 41.29705
483.5782, 41.90865
484.0603, 42.53255
484.5424, 42.41693
485.0245, 41.51460
485.5067, 40.63363
485.9888, 40.18578
486.4709, 40.07856
486.9530, 40.06886
487.4351, 40.28823
487.9172, 40.31591
488.3994, 39.49562
488.8815, 38.61261
489.3636, 39.09984
489.8457, 41.13448
490.3278, 43.02445
490.8099, 43.02618
491.2921, 41.02828
491.7742, 39.94227
492.2563, 40.35130
492.7384, 40.84384
493.2205, 41.14585
493.7026, 41.21945
494.1848, 40.96111
494.6669, 40.35112
495.1490, 39.66280
495.6311, 39.35486
496.1132, 39.57679
496.5953, 39.69916
497.0775, 39.50625
497.5596, 39.41962
498.0417, 39.77229
498.5238, 40.35517
499.0059, 40.69485
499.4880, 40.49613
499.9702, 40.00547
500.4523, 39.68653
500.9344, 39.54581
501.4165, 39.52882
501.8986, 39.63612
502.3807, 39.85920
502.8629, 40.25468
503.3450, 40.80643
503.8271, 41.22925
504.3092, 41.27566
504.7913, 41.15789
505.2734, 41.30593
505.7556, 41.73840
506.2377, 41.85494
506.7198, 41.11749
507.2019, 39.92321
507.6840, 39.54147
508.1661, 40.37600
508.6482, 41.13327
509.1303, 41.57507
509.6125, 41.71406
510.0946, 41.41646
510.5767, 40.72881
511.0588, 40.08226
511.5409, 39.89810
512.0231, 40.17225
512.5052, 40.27936
512.9873, 40.21240
513.4694, 39.98306
513.9515, 39.39766
514.4337, 38.74090
514.9158, 38.35806
515.3979, 38.33710
515.8800, 38.45369
516.3621, 38.38139
516.8442, 38.07806
517.3264, 38.04937
517.8085, 38.47832
518.2906, 38.96267
518.7727, 39.30001
519.2548, 39.57027
519.7369, 39.97053
520.2191, 40.69078
520.7012, 41.24509
521.1833, 40.89009
521.6654, 39.76555
522.1475, 38.99146
522.6296, 38.90984
523.1118, 39.08515
523.5939, 39.06627
524.0760, 38.88268
524.5581, 38.74247
525.0402, 38.72498
525.5223, 38.72189
526.0045, 38.56701
526.4866, 38.35531
526.9687, 38.40685
527.4508, 38.88297
527.9329, 39.53683
528.4150, 39.90409
528.8972, 39.83744
529.3793, 39.80478
529.8614, 39.97598
530.3435, 40.02484
530.8256, 39.60970
531.3077, 38.91989
531.7899, 38.43054
532.2720, 38.43076
532.7541, 38.76559
533.2362, 39.07565
533.7183, 39.43076
534.2004, 39.56457
534.6826, 39.06679
535.1647, 38.62106
535.6468, 38.72076
536.1289, 39.28519
536.6110, 39.81890
537.0931, 40.00202
537.5753, 39.98309
538.0574, 40.05331
538.5395, 40.22122
539.0216, 40.27305
539.5037, 40.01377
539.9858, 39.68937
540.4680, 39.80516
540.9501, 40.48927
541.4322, 40.82538
541.9143, 40.17432
542.3964, 39.30905
542.8785, 38.91409
543.3607, 39.04464
543.8428, 39.66003
544.3249, 40.83786
544.8070, 42.29452
545.2891, 42.97425
545.7712, 42.14668
546.2534, 41.50631
546.7355, 41.09436
547.2176, 40.88276
547.6997, 40.87257
548.1818, 41.04679
548.6639, 41.40260
549.1461, 42.02922
549.6282, 42.76763
550.1103, 42.88954
550.5924, 42.17601
551.0745, 41.41558
551.5566, 40.37773
552.0388, 39.68975
552.5209, 40.26025
553.0030, 42.08414
553.4851, 43.37784
553.9672, 42.46933
554.4493, 40.59343
554.9315, 40.13038
555.4136, 41.20651
555.8957, 42.27850
556.3778, 42.53308
556.8599, 42.20098
557.3420, 41.86260
557.8242, 41.48521
558.3063, 41.17662
558.7884, 41.17282
559.2705, 41.10109
559.7526, 40.35617
560.2347, 39.11197
560.7169, 38.32594
561.1990, 38.76564
561.6811, 40.08540
562.1632, 40.66961
562.6453, 39.90266
563.1274, 39.44093
563.6096, 39.82255
564.0917, 40.25676
564.5738, 40.12775
565.0559, 39.45906
565.5380, 38.72044
566.0201, 38.19323
566.5023, 37.85885
566.9844, 37.69176
567.4665, 37.70788
567.9486, 37.79825
568.4307, 38.00961
568.9128, 38.19959
569.3950, 38.06094
569.8771, 37.52999
570.3592, 37.41042
570.8413, 38.47853
571.3234, 39.73960
571.8055, 40.16627
572.2877, 39.79245
572.7698, 39.05680
573.2519, 38.13532
573.7340, 37.20681
574.2161, 36.74366
574.6982, 36.99973
575.1804, 37.30851
575.6625, 37.59641
576.1446, 37.99622
576.6267, 38.87660
577.1088, 39.93943
577.5909, 40.40449
578.0731, 39.72404
578.5552, 38.43943
579.0373, 37.79415
579.5194, 37.93006
580.0015, 37.89518
580.4836, 37.18446
580.9658, 36.59882
581.4479, 36.93334
581.9300, 37.95994
582.4121, 38.66992
582.8942, 38.43442
583.3763, 37.94301
583.8585, 37.88822
584.3406, 38.15924
584.8227, 38.36677
585.3048, 38.39316
585.7869, 38.22206
586.2690, 37.74560
586.7512, 36.79097
587.2333, 36.45847
587.7154, 37.44004
588.1975, 38.25549
588.6796, 38.13968
589.1617, 37.48259
589.6438, 36.91885
590.1259, 36.69074
590.6080, 36.64941
591.0901, 36.58674
591.5723, 36.48840
592.0544, 36.50440
592.5365, 36.62695
593.0186, 36.88521
593.5007, 37.54799
593.9828, 38.25855
594.4650, 38.41397
594.9471, 37.74997
595.4292, 36.98980
595.9113, 36.72870
596.3934, 36.77343
596.8755, 36.64791
597.3577, 36.27415
597.8398, 35.92127
598.3219, 35.80054
598.8040, 35.87992
599.2861, 35.94062
599.7682, 36.02702
600.2504, 36.04058
600.7325, 35.78254
601.2146, 35.56574
601.6967, 35.82027
602.1788, 36.47602
602.6609, 36.98369
603.1431, 36.85896
603.6252, 36.27645
604.1073, 36.03155
604.5894, 36.29356
605.0715, 36.44889
605.5536, 36.28744
606.0358, 36.00419
606.5179, 35.65313
607.0000, 35.27263
607.4821, 35.05725
607.9642, 35.26044
608.4464, 35.57477
608.9285, 35.50012
609.4106, 35.13594
609.8927, 35.13526
610.3748, 35.80849
610.8569, 36.75097
611.3391, 37.41058
611.8212, 37.79366
612.3033, 37.76710
612.7854, 36.87808
613.2675, 36.07809
613.7496, 35.99474
614.2318, 36.22507
614.7139, 35.96245
615.1960, 34.94291
615.6781, 33.87281
616.1602, 33.93877
616.6423, 35.22688
617.1245, 35.53569
617.6066, 34.10466
618.0887, 32.97395
618.5708, 33.62317
619.0529, 35.00601
619.5350, 35.65206
620.0172, 35.18840
620.4993, 34.61748
620.9814, 34.43099
621.4635, 34.53155
621.9456, 34.86417
622.4277, 35.38749
622.9099, 35.82191
623.3920, 35.98766
623.8741, 35.92660
624.3562, 35.77897
624.8383, 35.36198
625.3204, 35.13097
625.8026, 35.30094
626.2847, 35.46686
626.7668, 35.32543
627.2489, 34.94958
627.7310, 34.60946
628.2131, 34.46510
628.6953, 34.39787
629.1774, 34.11682
629.6595, 33.60489
630.1416, 33.41217
630.6237, 33.74287
631.1058, 34.24420
631.5880, 34.72579
632.0701, 35.15029
632.5522, 35.35194
633.0343, 35.13736
633.5164, 34.89618
633.9985, 34.80237
634.4807, 34.81367
634.9628, 34.89642
635.4449, 35.03022
635.9270, 35.11705
636.4091, 35.02801
636.8912, 34.80993
637.3734, 34.99971
637.8555, 36.07884
638.3376, 36.78450
638.8197, 36.71363
639.3018, 36.40435
639.7839, 36.23460
640.2661, 36.23341
640.7482, 36.25343
641.2303, 36.09899
641.7124, 35.99503
642.1945, 36.51197
642.6766, 37.56078
643.1588, 38.06372
643.6409, 37.56063
644.1230, 36.70669
644.6051, 36.32253
645.0872, 36.49520
645.5693, 36.39793
646.0515, 35.76228
646.5336, 35.16191
647.0157, 34.73036
647.4978, 34.50921
647.9799, 34.58899
648.4620, 34.96568
648.9442, 35.46543
649.4263, 35.98320
649.9084, 36.48493
650.3905, 36.53754
650.8726, 35.87376
651.3547, 35.48434
651.8369, 36.09795
652.3190, 36.89522
652.8011, 36.92569
653.2832, 36.14602
653.7653, 35.54949
654.2474, 35.75307
654.7296, 36.11011
655.2117, 35.90899
655.6938, 35.31960
656.1759, 34.94431
656.6580, 35.02000
657.1401, 35.36274
657.6223, 35.74628
658.1044, 36.22236
658.5865, 36.42630
659.0686, 35.71389
659.5507, 35.47044
660.0328, 36.62170
660.5150, 38.12258
660.9971, 38.69648
661.4792, 38.09558
661.9613, 37.23201
662.4434, 36.69662
662.9255, 36.45893
663.4077, 36.58833
663.8898, 37.08381
664.3719, 37.36657
664.8540, 37.16146
665.3361, 36.62208
665.8182, 35.93433
666.3004, 34.91980
666.7825, 34.43864
667.2646, 34.64719
667.7467, 35.24361
668.2288, 36.46294
668.7109, 37.84262
669.1931, 38.65985
669.6752, 38.69138
670.1573, 38.35581
670.6394, 38.13403
671.1215, 38.00948
671.6036, 37.67590
672.0858, 36.94483
672.5679, 36.60236
673.0500, 37.24312
673.5321, 38.34199
674.0142, 39.14232
674.4963, 39.62996
674.9785, 39.89749
675.4606, 39.93723
675.9427, 39.79374
676.4248, 39.31498
676.9069, 38.69444
677.3890, 38.42101
677.8712, 38.68600
678.3533, 39.18148
678.8354, 39.42858
679.3175, 39.37134
679.7996, 39.61802
680.2817, 40.33315
680.7639, 41.11224
681.2460, 41.81964
681.7281, 42.51086
682.2102, 43.34931
682.6923, 44.36785
683.1744, 45.05480
683.6566, 44.84995
684.1387, 44.34911
684.6208, 44.26408
685.1029, 44.57518
685.5850, 45.08152
686.0671, 45.71969
686.5493, 46.34455
687.0314, 46.71711
687.5135, 46.76356
687.9956, 46.94919
688.4777, 47.29111
688.9598, 47.75724
689.4420, 48.29144
689.9241, 48.97357
690.4062, 50.10378
690.8883, 51.66102
691.3704, 52.79804
691.8525, 52.45647
692.3347, 51.44111
692.8168, 51.24971
693.2989, 51.87608
693.7810, 52.93378
694.2631, 54.41061
694.7452, 55.85825
695.2274, 56.57169
695.7095, 56.35021
696.1916, 56.62924
696.6737, 57.81228
697.1558, 58.96515
697.6379, 59.62880
698.1201, 60.20036
698.6022, 61.13619
699.0843, 62.52126
699.5664, 64.15157
700.0485, 65.92601
700.5306, 67.79386
701.0128, 69.63818
701.4949, 71.46362
701.9770, 73.06920
702.4591, 74.21860
702.9412, 75.44162
703.4233, 77.37888
703.9055, 80.08199
704.3876, 82.85271
704.8697, 85.10351
705.3518, 88.12505
705.8339, 93.12463
706.3160, 98.68017
706.7982, 102.8325
707.2803, 105.5722
707.7624, 108.6644
708.2445, 113.5578
708.7266, 119.7256
709.2087, 125.7927
709.6909, 131.7887
710.1730, 137.3389
710.6551, 142.2943
711.1372, 146.9322
711.6193, 151.5261
712.1014, 156.0416
712.5836, 160.2354
713.0657, 163.2992
713.5478, 167.0517
714.0299, 172.4730
714.5120, 178.6520
714.9941, 184.5712
715.4763, 190.2634
715.9584, 196.4268
716.4405, 203.6240
716.9226, 211.4208
717.4047, 218.5829
717.8868, 224.9750
718.3690, 232.1172
718.8511, 240.0131
719.3332, 249.0113
719.8153, 260.0856
720.2974, 272.3394
720.7795, 283.6428
721.2617, 293.6895
721.7438, 303.0090
722.2259, 312.5274
722.7080, 320.7856
723.1901, 326.5281
723.6722, 329.7199
724.1544, 331.1940
724.6365, 331.4356
725.1186, 329.1954
725.6007, 322.0000
726.0828, 309.6859
726.5649, 295.0291
727.0471, 277.3845
727.5292, 258.9675
728.0113, 240.1944
728.4934, 221.5144
728.9755, 203.2464
729.4576, 185.2591
729.9398, 168.7074
730.4219, 153.4994
730.9040, 140.0389
731.3861, 129.2546
731.8682, 120.3124
732.3503, 111.2731
732.8325, 101.5273
733.3146, 92.46211
733.7967, 86.02793
734.2788, 82.07228
734.7609, 78.17890
735.2430, 74.25174
735.7252, 70.69353
736.2073, 67.70113
736.6894, 65.12983
737.1715, 62.84288
737.6536, 60.82972
738.1357, 58.81844
738.6179, 56.65425
739.1000, 54.58569
739.5821, 52.56942
740.0642, 50.80739
740.5463, 49.69592
741.0284, 49.22004
741.5106, 48.79318
741.9927, 47.90810
742.4748, 46.73092
742.9569, 45.84941
743.4390, 45.31454
743.9211, 44.72515
744.4033, 43.93897
744.8854, 43.18238
745.3675, 42.74447
745.8496, 42.49367
746.3317, 41.98375
746.8138, 40.93917
747.2960, 40.03042
747.7781, 39.52320
748.2602, 39.20120
748.7423, 38.89984
749.2244, 38.59808
749.7065, 38.32669
750.1887, 38.10146
750.6708, 37.89749
751.1529, 37.66477
751.6350, 37.40586
752.1171, 37.19047
752.5992, 37.04154
753.0814, 36.86564
753.5635, 36.55840
754.0456, 36.22930
754.5277, 36.16629
755.0098, 36.49990
755.4919, 36.47337
755.9741, 35.43190
756.4562, 34.59279
756.9383, 34.96073
757.4204, 35.82764
757.9025, 35.97895
758.3846, 35.18199
758.8668, 34.34512
759.3489, 34.39581
759.8310, 35.01952
760.3131, 35.28373
760.7952, 35.18097
761.2773, 35.02604
761.7595, 34.89955
762.2416, 34.76893
762.7237, 34.54107
763.2058, 34.22916
763.6879, 34.26625
764.1700, 35.14954
764.6522, 35.67691
765.1343, 35.32729
765.6164, 34.79676
766.0985, 34.70535
766.5806, 34.95181
767.0627, 35.05053
767.5449, 34.75773
768.0270, 34.25089
768.5091, 33.54152
768.9912, 32.79330
769.4733, 32.75085
769.9554, 33.50799
770.4376, 34.00052
770.9197, 33.53179
771.4018, 32.55566
771.8839, 32.09001
772.3660, 32.26398
772.8481, 32.58331
773.3303, 33.29048
773.8124, 33.86099
774.2945, 34.30737
774.7766, 34.41967
775.2587, 33.65499
775.7408, 32.01224
776.2230, 30.88650
776.7051, 31.63626
777.1872, 32.97690
777.6693, 33.20954
778.1514, 32.70932
778.6335, 32.86405
779.1157, 34.02621
779.5978, 35.05448
780.0799, 34.77229
780.5620, 33.41339
781.0441, 32.51828
781.5262, 32.19781
782.0084, 32.09003
782.4905, 32.23917
782.9726, 32.49764
783.4547, 32.92324
783.9368, 33.37356
784.4189, 33.46076
784.9011, 32.92760
785.3832, 32.47997
785.8653, 32.60676
786.3474, 32.87200
786.8295, 32.65263
787.3116, 32.14477
787.7938, 32.15778
788.2759, 33.03958
788.7580, 34.05248
789.2401, 34.08079
789.7222, 33.17260
790.2043, 32.32902
790.6865, 31.41985
791.1686, 31.16268
791.6507, 32.21445
792.1328, 33.60196
792.6149, 33.98290
793.0970, 33.34877
793.5792, 33.09900
794.0613, 33.96734
794.5434, 34.40612
795.0255, 33.41470
795.5076, 32.12799
795.9897, 31.67322
796.4719, 32.04218
796.9540, 32.61128
797.4361, 33.09716
797.9182, 33.40676
798.4003, 33.25169
798.8824, 32.79124
799.3646, 32.72692
799.8467, 33.15162
800.3288, 33.53988
800.8109, 33.57301
801.2930, 33.42204
801.7751, 33.47554
802.2573, 33.86398
802.7394, 34.01723
803.2215, 33.68262
803.7036, 33.40452
804.1857, 33.46788
804.6678, 33.57929
805.1500, 33.30605
805.6321, 32.65253
806.1142, 32.24453
806.5963, 32.64507
807.0784, 33.15341
807.5605, 33.18583
808.0427, 32.89487
808.5248, 32.43956
809.0069, 31.92585
809.4890, 31.74209
809.9711, 32.22675
810.4532, 33.08701
810.9354, 33.57085
811.4175, 33.66378
811.8996, 33.41856
812.3817, 32.54274
812.8638, 31.98749
813.3459, 32.60031
813.8281, 33.76080
814.3102, 34.10603
814.7923, 33.41277
815.2744, 32.86950
815.7565, 32.63503
816.2386, 32.59100
816.7208, 32.74405
817.2029, 33.01665
817.6850, 33.32549
818.1671, 33.65051
818.6492, 34.03241
819.1313, 34.70602
819.6135, 35.22396
820.0956, 34.50982
820.5777, 32.91212
821.0598, 32.11898
821.5419, 32.48988
822.0240, 33.01641
822.5062, 32.93712
822.9883, 32.47451
823.4704, 32.37224
823.9525, 32.83469
824.4346, 33.15340
824.9167, 33.15057
825.3989, 33.20403
825.8810, 33.75597
826.3631, 34.30671
826.8452, 33.98294
827.3273, 32.63261
827.8094, 31.76963
828.2916, 32.35635
828.7737, 33.22881
829.2558, 33.58560
829.7379, 33.63353
830.2200, 33.71063
830.7021, 33.90297
831.1843, 34.20950
831.6664, 34.69178
832.1485, 35.13947
832.6306, 34.95444
833.1127, 34.17869
833.5948, 33.78715
834.0770, 33.98389
834.5591, 34.19946
835.0412, 34.09068
835.5233, 33.75341
836.0054, 33.39714
836.4875, 32.94333
836.9697, 32.69692
837.4518, 32.69270
837.9339, 32.83590
838.4160, 33.29317
838.8981, 33.75995
839.3802, 33.82161
839.8624, 33.49847
840.3445, 33.31724
840.8266, 33.76771
841.3087, 34.18944
841.7908, 33.84586
842.2729, 33.17332
842.7551, 32.96598
843.2372, 33.25776
843.7193, 33.51239
844.2014, 33.39070
844.6835, 33.11355
845.1656, 33.17997
845.6478, 33.59497
846.1299, 33.51469
846.6120, 32.74923
847.0941, 32.11616
847.5762, 31.95813
848.0583, 32.12336
848.5405, 32.50018
849.0226, 33.15374
849.5047, 33.34293
849.9868, 32.47072
850.4689, 31.93744
850.9510, 32.27372
851.4332, 32.88929
851.9153, 33.57220
852.3974, 34.08838
852.8795, 33.80511
853.3616, 32.12637
853.8438, 30.76731
854.3259, 31.53014
854.8080, 33.17699
855.2901, 34.07870
855.7722, 34.17395
856.2543, 33.73278
856.7365, 32.88019
857.2186, 32.12231
857.7007, 32.19469
858.1828, 32.92545
858.6649, 32.90691
859.1470, 31.94742
859.6292, 31.48800
860.1113, 32.06577
860.5934, 32.83095
861.0755, 33.04561
861.5576, 32.82398
862.0397, 32.75740
862.5219, 32.97431
863.0040, 33.12674
863.4861, 33.19650
863.9682, 33.20379
864.4503, 33.10754
864.9324, 32.97827
865.4146, 32.84935
865.8967, 32.74058
866.3788, 32.90049
866.8609, 33.74734
867.3430, 34.67778
867.8251, 34.94944
868.3073, 34.92246
868.7894, 35.43973
869.2715, 36.55035
869.7536, 37.48839
870.2357, 37.70850
870.7178, 37.49086
871.2000, 37.41747
871.6821, 37.48027
872.1642, 37.27057
872.6463, 36.62707
873.1284, 36.47409
873.6105, 37.39599
874.0927, 38.79909
874.5748, 39.81436
875.0569, 40.43747
875.5390, 40.76273
876.0211, 40.21939
876.5032, 40.14124
876.9854, 40.81554
877.4675, 41.94643
877.9496, 43.24892
878.4317, 44.81797
878.9138, 47.05553
879.3959, 50.36625
879.8781, 53.47097
880.3602, 55.78984
880.8423, 57.49299
881.3244, 59.37200
881.8065, 60.63564
882.2886, 59.21646
882.7708, 54.69376
883.2529, 49.37199
883.7350, 45.12137
884.2171, 41.81962
884.6992, 39.32038
885.1813, 37.55381
885.6635, 36.10220
886.1456, 34.88724
886.6277, 33.88258
887.1098, 33.10528
887.5919, 32.46227
888.0740, 31.66020
888.5562, 30.47515
889.0383, 30.03446
889.5204, 30.80349
890.0025, 31.54017
890.4846, 31.75069
890.9667, 31.74559
891.4489, 31.83333
891.9310, 32.01024
892.4131, 32.17731
892.8952, 32.63784
893.3773, 32.66344
893.8594, 31.63902
894.3416, 30.43434
894.8237, 29.70462
895.3058, 29.40331
895.7879, 29.25590
896.2700, 29.16736
896.7521, 29.19454
897.2343, 29.44842
897.7164, 29.80194
898.1985, 30.26616
898.6806, 30.66189
899.1627, 30.31494
899.6448, 29.15747
900.1270, 28.12712
900.6091, 28.02370
901.0912, 28.53138
901.5733, 28.85319
902.0554, 28.98525
902.5375, 29.21092
903.0197, 29.64532
903.5018, 29.71444
903.9839, 29.03418
904.4660, 27.98861
904.9481, 27.10357
905.4302, 26.32951
905.9124, 26.20937
906.3945, 27.23287
906.8766, 28.20709
907.3587, 29.14711
907.8408, 29.79410
908.3229, 29.88249
908.8051, 29.54767
909.2872, 29.09231
909.7693, 28.43122
910.2514, 28.12332
910.7335, 28.71424
911.2156, 29.39715
911.6978, 29.57898
912.1799, 29.45442
912.6620, 29.41125
913.1441, 29.50045
913.6262, 29.42623
914.1083, 28.84206
914.5905, 28.24932
915.0726, 28.47550
915.5547, 29.16669
916.0368, 29.45711
916.5189, 29.28413
917.0010, 28.97231
917.4832, 28.67644
917.9652, 28.46286
918.4473, 28.49031
918.9294, 28.71343
919.4116, 28.55372
919.8937, 27.92159
920.3758, 27.56219
920.8579, 27.69439
921.3400, 28.06190
921.8221, 28.54090
922.3043, 29.05434
922.7864, 29.33097
923.2685, 29.47198
923.7506, 29.15451
924.2327, 27.78649
924.7148, 26.65923
925.1970, 26.06738
925.6791, 26.00466
926.1612, 26.77639
926.6433, 28.25628
927.1254, 29.07943
927.6075, 28.24721
928.0897, 27.59931
928.5718, 28.09660
929.0539, 28.81918
929.5360, 29.03092
930.0181, 28.79613
930.5002, 28.39872
930.9824, 27.93521
931.4645, 27.44552
931.9466, 26.66135
932.4287, 26.10871
932.9108, 26.81139
933.3929, 28.18243
933.8751, 28.82405
934.3572, 28.56063
934.8393, 28.11024
935.3214, 27.92283
935.8035, 27.87847
936.2856, 27.78254
936.7678, 27.64332
937.2499, 27.49749
937.7320, 27.34352
938.2141, 27.34442
938.6962, 27.58844
939.1783, 27.83106
939.6605, 27.79607
940.1426, 27.53987
940.6247, 27.39708
941.1068, 27.36135
941.5889, 27.48615
942.0710, 27.97958
942.5532, 28.27491
943.0353, 27.82984
943.5174, 27.17978
943.9995, 27.28500
944.4816, 28.22834
944.9637, 28.85150
945.4459, 29.05015
945.9280, 29.01115
946.4101, 28.45618
946.8922, 27.96586
947.3743, 28.02174
947.8564, 28.46526
948.3386, 28.99517
948.8207, 29.62540
949.3028, 29.73629
949.7849, 28.31897
950.2670, 27.03154
950.7491, 27.43405
951.2313, 28.54838
951.7134, 28.89483
952.1955, 28.39013
952.6776, 27.91869
953.1597, 27.98911
953.6418, 28.14477
954.1240, 27.76168
954.6061, 27.18240
955.0882, 27.05413
955.5703, 27.32034
956.0524, 27.61747
956.5345, 27.82953
957.0167, 28.10543
957.4988, 28.65926
957.9809, 29.22756
958.4630, 28.94764
958.9451, 27.91657
959.4272, 27.52948
959.9094, 27.98269
960.3915, 28.27387
960.8736, 27.89150
961.3557, 27.21105
961.8378, 26.72084
962.3199, 26.42501
962.8021, 26.55157
963.2842, 27.33613
963.7663, 27.76286
964.2484, 27.46795
964.7305, 27.14906
965.2126, 27.29115
965.6948, 27.69184
966.1769, 27.89758
966.6590, 27.85832
967.1411, 27.81934
967.6232, 27.86176
968.1053, 27.79627
968.5875, 27.43845
969.0696, 27.08184
969.5517, 26.96496
970.0338, 27.03912
970.5159, 27.13091
970.9980, 27.20742
971.4802, 27.31409
971.9623, 27.33445
972.4444, 27.53115
972.9265, 28.25152
973.4086, 29.11378
973.8907, 29.77483
974.3729, 30.11293
974.8550, 29.87903
975.3371, 28.65656
975.8192, 27.65114
976.3013, 27.94779
976.7834, 28.75443
977.2656, 29.57331
977.7477, 30.06451
978.2298, 29.31592
978.7119, 27.35130
979.1940, 25.89511
979.6761, 26.37089
980.1583, 27.72344
980.6404, 28.60266
981.1225, 29.11584
981.6046, 29.56354
982.0867, 29.91869
982.5688, 29.81054
983.0510, 29.10001
983.5331, 28.23144
984.0152, 27.60461
984.4973, 27.29041
984.9794, 27.76814
985.4615, 28.94028
985.9437, 29.32917
986.4258, 28.68911
986.9079, 28.22018
987.3900, 28.59713
987.8721, 29.33509
988.3542, 29.70724
988.8364, 29.72134
989.3185, 29.48945
989.8006, 28.85965
990.2827, 28.78036
990.7648, 29.68122
991.2469, 30.47908
991.7291, 30.39601
992.2112, 29.81062
992.6933, 29.55035
993.1754, 29.69642
993.6575, 29.71149
994.1396, 29.44476
994.6218, 29.32196
995.1039, 29.57235
995.5860, 29.84937
996.0681, 29.76163
996.5502, 29.51661
997.0323, 29.72656
997.5145, 30.62455
997.9966, 31.28213
998.4787, 31.71898
998.9608, 31.80832
999.4429, 31.10270
999.9250, 30.36315
1000.407, 30.42931
1000.889, 31.05369
1001.371, 31.20829
1001.854, 30.38610
1002.336, 30.02886
1002.818, 30.97135
1003.300, 32.05967
1003.782, 32.81279
1004.264, 33.22068
1004.746, 33.13741
1005.228, 32.70877
1005.710, 32.50088
1006.193, 32.79789
1006.675, 33.13415
1007.157, 33.32788
1007.639, 33.34684
1008.121, 32.75838
1008.603, 32.15609
1009.085, 32.85809
1009.567, 34.75079
1010.049, 36.01889
1010.532, 35.44375
1011.014, 34.51324
1011.496, 34.79812
1011.978, 35.50308
1012.460, 35.38656
1012.942, 34.73064
1013.424, 34.45599
1013.906, 34.76300
1014.389, 35.11633
1014.871, 35.06675
1015.353, 35.01812
1015.835, 35.70275
1016.317, 36.78606
1016.799, 37.47739
1017.281, 37.77295
1017.763, 37.94141
1018.245, 38.07561
1018.728, 38.15061
1019.210, 38.14544
1019.692, 38.06041
1020.174, 37.88114
1020.656, 37.62010
1021.138, 37.22979
1021.620, 36.74860
1022.102, 36.69086
1022.585, 37.25622
1023.067, 38.15872
1023.549, 39.20255
1024.031, 40.18568
1024.513, 40.28025
1024.995, 39.51562
1025.477, 39.33073
1025.959, 39.89688
1026.442, 40.28390
1026.924, 40.04985
1027.406, 39.79815
1027.888, 40.29923
1028.370, 41.32687
1028.852, 41.55872
1029.334, 40.83591
1029.816, 40.51262
1030.298, 40.76239
1030.781, 41.17031
1031.263, 41.55213
1031.745, 42.03559
1032.227, 42.89010
1032.709, 43.99163
1033.191, 44.21098
1033.673, 43.23373
1034.155, 42.38010
1034.637, 41.53895
1035.120, 41.42319
1035.602, 42.88782
1036.084, 44.45016
1036.566, 43.86047
1037.048, 41.35960
1037.530, 40.90742
1038.012, 43.81252
1038.494, 45.85058
1038.977, 46.51589
1039.459, 46.65579
1039.941, 46.49326
1040.423, 46.12217
1040.905, 45.41572
1041.387, 44.43256
1041.869, 44.58929
1042.351, 47.02793
1042.833, 48.69437
1043.316, 48.95669
1043.798, 49.02140
1044.280, 49.34226
1044.762, 49.76601
1045.244, 50.09314
1045.726, 50.33211
1046.208, 50.66788
1046.690, 50.93246
1047.172, 51.56178
1047.655, 53.08633
1048.137, 54.40404
1048.619, 54.76540
1049.101, 54.81799
1049.583, 55.29792
1050.065, 56.21750
1050.547, 57.30234
1051.029, 58.64384
1051.512, 59.94673
1051.994, 61.25421
1052.476, 62.43130
1052.958, 63.16407
1053.440, 63.89056
1053.922, 65.12364
1054.404, 66.85555
1054.886, 68.74426
1055.369, 70.58800
1055.851, 72.83352
1056.333, 76.49494
1056.815, 79.54211
1057.297, 79.96629
1057.779, 79.78120
1058.261, 81.27501
1058.743, 84.48595
1059.225, 88.46735
1059.708, 93.70821
1060.190, 97.98173
1060.672, 99.44218
1061.154, 101.0969
1061.636, 104.8376
1062.118, 109.5474
1062.600, 113.8638
1063.082, 117.8177
1063.564, 122.1682
1064.047, 127.3172
1064.529, 132.3809
1065.011, 136.6873
1065.493, 141.2607
1065.975, 147.0567
1066.457, 153.1821
1066.939, 158.2903
1067.421, 162.7447
1067.904, 168.1545
1068.386, 175.0737
1068.868, 182.4438
1069.350, 190.0982
1069.832, 197.7372
1070.314, 204.9386
1070.796, 212.2211
1071.278, 220.1787
1071.760, 228.7163
1072.243, 237.3832
1072.725, 245.9968
1073.207, 254.9218
1073.689, 264.3863
1074.171, 274.1185
1074.653, 284.4978
1075.135, 294.7029
1075.617, 303.1723
1076.099, 310.9657
1076.582, 320.5739
1077.064, 332.6841
1077.546, 345.6965
1078.028, 359.2026
1078.510, 373.1375
1078.992, 386.2646
1079.474, 400.8529
1079.956, 417.9052
1080.439, 438.4973
1080.921, 463.9200
1081.403, 494.5553
1081.885, 530.9832
1082.367, 572.6075
1082.849, 621.4041
1083.331, 679.1559
1083.813, 743.2638
1084.295, 813.3112
1084.778, 887.3257
1085.260, 964.4955
1085.742, 1043.909
1086.224, 1122.525
1086.706, 1201.129
1087.188, 1275.422
1087.670, 1338.641
1088.152, 1402.095
1088.635, 1471.547
1089.117, 1548.701
1089.599, 1634.358
1090.081, 1729.160
1090.563, 1833.896
1091.045, 1948.340
1091.527, 2072.916
1092.009, 2206.639
1092.491, 2351.763
1092.974, 2508.938
1093.456, 2678.901
1093.938, 2864.059
1094.420, 3063.370
1094.902, 3276.193
1095.384, 3506.465
1095.866, 3737.124
1096.348, 3994.203
1096.830, 4211.316
1097.313, 4385.025
1097.795, 4476.729
1098.277, 4458.150
1098.759, 4324.448
1099.241, 4059.662
1099.723, 3642.436
1100.205, 3201.051
1100.687, 2739.763
1101.170, 2309.747
1101.652, 1920.916
1102.134, 1582.455
1102.616, 1305.466
1103.098, 1082.986
1103.580, 901.5826
1104.062, 760.9660
1104.544, 645.4627
1105.026, 560.7731
1105.509, 489.3715
1105.991, 429.0280
1106.473, 377.8085
1106.955, 336.3235
1107.437, 302.3563
1107.919, 273.4768
1108.401, 249.2998
1108.883, 227.8083
1109.365, 208.9130
1109.848, 192.1918
1110.330, 177.9998
1110.812, 165.3840
1111.294, 153.9301
1111.776, 143.8170
1112.258, 135.7188
1112.740, 129.2974
1113.222, 122.4743
1113.705, 114.5835
1114.187, 107.4858
1114.669, 100.9794
1115.151, 95.70680
1115.633, 92.91277
1116.115, 90.42535
1116.597, 86.40005
1117.079, 81.38065
1117.562, 76.74831
1118.044, 72.42709
1118.526, 68.84696
1119.008, 66.24884
1119.490, 63.99260
1119.972, 61.90467
1120.454, 60.26856
1120.936, 59.77504
1121.418, 59.36140
1121.901, 56.92469
1122.383, 52.38677
1122.865, 49.77069
1123.347, 49.94600
1123.829, 49.73265
1124.311, 48.63824
1124.793, 47.55605
1125.275, 46.90079
1125.757, 46.39878
1126.240, 45.75047
1126.722, 44.97274
1127.204, 44.16647
1127.686, 43.36668
1128.168, 42.33627
1128.650, 40.98399
1129.132, 39.70078
1129.614, 38.51863
1130.097, 37.78600
1130.579, 37.87302
1131.061, 38.43154
1131.543, 38.66929
1132.025, 38.58691
1132.507, 38.12249
1132.989, 37.24560
1133.471, 36.36561
1133.953, 35.54083
1134.436, 35.03786
1134.918, 35.05886
1135.400, 35.11787
1135.882, 34.44228
1136.364, 33.26943
1136.846, 32.58957
1137.328, 32.37769
1137.810, 32.61164
1138.292, 33.21066
1138.775, 33.18659
1139.257, 32.17191
1139.739, 30.91145
1140.221, 29.99906
1140.703, 29.50531
1141.185, 29.86210
1141.667, 30.67520
1142.149, 30.61077
1142.632, 29.87012
1143.114, 29.58060
1143.596, 29.92340
1144.078, 30.14834
1144.560, 29.80607
1145.042, 29.24483
1145.524, 28.63604
1146.006, 28.24911
1146.489, 28.81499
1146.971, 29.78895
1147.453, 30.00617
1147.935, 29.54182
1148.417, 29.30153
1148.899, 29.56764
1149.381, 29.44013
1149.863, 27.73287
1150.345, 26.10007
1150.828, 26.42937
1151.310, 27.33208
1151.792, 27.20402
1152.274, 26.42816
1152.756, 25.74907
1153.238, 25.41300
1153.720, 25.82564
1154.202, 27.66524
1154.684, 28.71624
1155.167, 26.88937
1155.649, 24.99844
1156.131, 25.19107
1156.613, 26.00407
1157.095, 25.58657
1157.577, 24.38283
1158.059, 24.06650
1158.541, 25.05422
1159.024, 25.89481
1159.506, 26.35760
1159.988, 26.47049
1160.470, 25.98712
1160.952, 25.42980
1161.434, 25.08045
1161.916, 24.87571
1162.398, 24.63182
1162.880, 24.37183
1163.363, 24.55703
1163.845, 25.85046
1164.327, 26.33205
1164.809, 25.33723
1165.291, 24.66341
1165.773, 25.00436
1166.255, 25.66092
1166.737, 26.12283
1167.219, 26.42495
1167.702, 26.68598
1168.184, 26.94301
1168.666, 26.67492
1169.148, 25.69865
1169.630, 25.08220
1170.112, 25.04239
1170.594, 25.18325
1171.076, 25.32396
1171.559, 25.49076
1172.041, 25.78981
1172.523, 26.04437
1173.005, 25.34473
1173.487, 23.82081
1173.969, 23.17616
1174.451, 23.46415
1174.933, 23.95172
1175.416, 24.40623
1175.898, 24.46272
1176.380, 23.79967
1176.862, 23.18116
1177.344, 24.10301
1177.826, 25.70852
1178.308, 25.97270
1178.790, 25.29168
1179.272, 24.54790
1179.755, 23.95424
1180.237, 23.70748
1180.719, 23.84742
1181.201, 23.94452
1181.683, 23.56836
1182.165, 23.21801
1182.647, 23.37142
1183.129, 23.81717
1183.611, 24.63251
1184.094, 25.39658
1184.576, 25.30549
1185.058, 24.46643
1185.540, 23.76210
1186.022, 23.47272
1186.504, 23.44444
1186.986, 24.01947
1187.468, 24.31525
1187.951, 23.48581
1188.433, 22.60163
1188.915, 22.59891
1189.397, 23.14601
1189.879, 23.60284
1190.361, 23.91301
1190.843, 24.17278
1191.325, 24.45406
1191.807, 24.58346
1192.290, 24.48244
1192.772, 24.34645
1193.254, 24.34487
1193.736, 24.15574
1194.218, 23.20861
1194.700, 22.09836
1195.182, 22.55476
1195.664, 24.80317
1196.146, 25.67921
1196.629, 24.89056
1197.111, 24.31674
1197.593, 24.27613
1198.075, 24.20854
1198.557, 23.80939
1199.039, 23.58662
1199.521, 24.22760
1200.003, 25.19226
1200.486, 24.75353
1200.968, 23.27717
1201.450, 22.69025
1201.932, 22.94777
1202.414, 23.43972
1202.896, 23.94880
1203.378, 24.08716
1203.860, 23.63148
1204.343, 23.12370
1204.825, 23.21475
1205.307, 23.50838
1205.789, 23.48164
1206.271, 23.30605
1206.753, 23.20008
1207.235, 23.17719
1207.717, 23.26934
1208.199, 23.43154
1208.682, 23.34449
1209.164, 22.65200
1209.646, 22.36195
1210.128, 23.57305
1210.610, 24.61161
1211.092, 24.06126
1211.574, 23.26247
1212.056, 23.89857
1212.538, 25.16079
1213.021, 24.88798
1213.503, 22.73505
1213.985, 21.66496
1214.467, 22.61224
1214.949, 23.46026
1215.431, 24.20402
1215.913, 24.64567
1216.395, 24.57682
1216.878, 24.41525
1217.360, 24.58664
1217.842, 24.88476
1218.324, 24.75369
1218.806, 24.18508
1219.288, 23.55656
1219.770, 22.84793
1220.252, 22.52791
1220.734, 22.67175
1221.217, 22.98236
1221.699, 23.33442
1222.181, 23.65812
1222.663, 23.88786
1223.145, 24.03412
1223.627, 24.03988
1224.109, 24.01283
1224.591, 24.32505
1225.073, 24.79430
1225.556, 24.90480
1226.038, 24.62996
1226.520, 24.24406
1227.002, 23.85839
1227.484, 23.47182
1227.966, 22.92142
1228.448, 22.58037
1228.930, 22.84700
1229.413, 23.30523
1229.895, 23.78685
1230.377, 24.09172
1230.859, 23.90910
1231.341, 23.31652
1231.823, 22.69407
1232.305, 21.98063
1232.787, 21.71324
1233.270, 22.44476
1233.752, 22.89478
1234.234, 22.51822
1234.716, 22.26647
1235.198, 22.77345
1235.680, 23.46507
1236.162, 23.62467
1236.644, 23.34212
1237.126, 22.99682
1237.609, 22.55438
1238.091, 22.39609
1238.573, 22.53109
1239.055, 23.04733
1239.537, 23.96448
1240.019, 24.67034
1240.501, 24.83445
1240.983, 24.50997
1241.465, 23.54622
1241.948, 22.48845
1242.430, 22.48992
1242.912, 23.12449
1243.394, 23.70038
1243.876, 24.08441
1244.358, 24.01143
1244.840, 23.57934
1245.322, 23.38557
1245.805, 23.70417
1246.287, 23.94956
1246.769, 23.64380
1247.251, 23.34007
1247.733, 23.36999
1248.215, 23.50302
1248.697, 23.65440
1249.179, 23.72985
1249.661, 23.59626
1250.144, 23.27261
1250.626, 22.87735
1251.108, 22.20528
1251.590, 22.15829
1252.072, 23.13018
1252.554, 23.83719
1253.036, 24.04373
1253.518, 23.93572
1254.000, 23.54769
1254.483, 23.07250
1254.965, 22.74002
1255.447, 22.50267
1255.929, 22.17169
1256.411, 21.78357
1256.893, 21.64807
1257.375, 21.72652
1257.857, 21.78089
1258.340, 21.74914
1258.822, 21.50223
1259.304, 21.00353
1259.786, 20.77193
1260.268, 21.31882
1260.750, 22.18793
1261.232, 23.23015
1261.714, 24.06474
1262.197, 24.09314
1262.679, 23.78267
1263.161, 23.83252
1263.643, 24.18251
1264.125, 24.37395
1264.607, 24.31607
1265.089, 24.11175
1265.571, 23.79774
1266.053, 23.30097
1266.536, 22.38433
1267.018, 21.61129
1267.500, 21.08303
1267.982, 20.99560
1268.464, 21.70906
1268.946, 22.75769
1269.428, 22.92553
1269.910, 22.26680
1270.392, 22.21502
1270.875, 22.73580
1271.357, 22.66592
1271.839, 21.96968
1272.321, 22.09418
1272.803, 23.42828
1273.285, 24.23373
1273.767, 23.11717
1274.249, 21.75713
1274.732, 22.40946
1275.214, 23.61066
1275.696, 23.51082
1276.178, 22.88388
##END=



