##NAMES=Dozyite
##RRUFFID=R100040
##IDEAL CHEMISTRY=Mg_7_Al_2_(Si_4_Al_2_)O_15_(OH)_12_
##LOCALITY=Wood's Chrome mine, Lancaster County, Pennsylvania, USA
##OWNER=RRUFF
##SOURCE=Jeff Weissman
##DESCRIPTION=Mauve fibers intimately mixed with serpentine and chlorite
##STATUS=The identification of this mineral has been confirmed by single-crystal X-ray diffraction.
##URL=rruff.info/R100040
90.49219, 57.53009
90.97430, 57.72753
91.45642, 57.79967
91.93854, 57.63998
92.42065, 57.38580
92.90277, 57.21854
93.38489, 57.14171
93.86700, 57.17785
94.34912, 57.43433
94.83124, 57.87199
95.31335, 58.25865
95.79547, 58.35693
96.27759, 58.25798
96.75970, 58.37587
97.24182, 58.84010
97.72394, 59.45517
98.20605, 59.89312
98.68817, 60.17398
99.17029, 60.10942
99.65240, 59.22999
100.1345, 57.43015
100.6166, 56.43586
101.0988, 56.90617
101.5809, 58.58306
102.0630, 59.16264
102.5451, 58.26524
103.0272, 56.95543
103.5093, 56.40812
103.9915, 56.84057
104.4736, 57.49984
104.9557, 58.29212
105.4378, 59.31766
105.9199, 59.89193
106.4020, 59.84641
106.8842, 59.43604
107.3663, 59.09266
107.8484, 58.82877
108.3305, 58.62088
108.8126, 58.45563
109.2947, 58.26178
109.7769, 58.23083
110.2590, 58.58541
110.7411, 59.14245
111.2232, 59.32375
111.7053, 58.73967
112.1874, 58.04546
112.6696, 57.53914
113.1517, 57.11595
113.6338, 57.02464
114.1159, 57.57016
114.5980, 58.62736
115.0801, 59.31716
115.5623, 59.21832
116.0444, 58.77150
116.5265, 58.31934
117.0086, 57.90515
117.4907, 57.53515
117.9728, 57.09677
118.4550, 56.57850
118.9371, 56.41688
119.4192, 57.31004
119.9013, 58.56229
120.3834, 59.27190
120.8655, 58.34709
121.3477, 57.20779
121.8298, 56.95045
122.3119, 57.78112
122.7940, 58.81293
123.2761, 59.55505
123.7582, 60.03937
124.2404, 60.33702
124.7225, 60.39591
125.2046, 60.32008
125.6867, 60.16771
126.1688, 59.84136
126.6509, 59.69820
127.1331, 60.26794
127.6152, 61.43736
128.0973, 62.64368
128.5794, 63.37244
129.0615, 63.84830
129.5436, 64.61927
130.0258, 65.86822
130.5079, 67.39705
130.9900, 68.90421
131.4721, 70.37680
131.9542, 71.88386
132.4363, 73.31485
132.9185, 74.74070
133.4006, 76.64701
133.8827, 79.18246
134.3648, 82.27736
134.8469, 85.87218
135.3290, 89.97166
135.8112, 94.57174
136.2933, 99.62319
136.7754, 105.1495
137.2575, 111.0905
137.7396, 117.5715
138.2217, 124.4690
138.7039, 131.3241
139.1860, 138.0323
139.6681, 144.8818
140.1502, 152.6303
140.6323, 161.5164
141.1144, 170.2516
141.5966, 178.3214
142.0787, 185.5334
142.5608, 192.8211
143.0429, 200.4737
143.5250, 208.0268
144.0071, 214.1600
144.4893, 217.8342
144.9714, 221.6908
145.4535, 226.8427
145.9356, 233.7108
146.4177, 241.1682
146.8998, 249.3693
147.3820, 258.1822
147.8641, 267.4318
148.3462, 276.9977
148.8283, 286.9956
149.3104, 297.5927
149.7925, 308.5814
150.2747, 320.3845
150.7568, 333.2121
151.2389, 346.9592
151.7210, 360.3775
152.2031, 373.7496
152.6852, 386.4911
153.1674, 398.3849
153.6495, 408.9474
154.1316, 419.0370
154.6137, 428.9276
155.0958, 438.6336
155.5779, 447.3693
156.0601, 454.5482
156.5422, 460.9610
157.0243, 467.1954
157.5064, 472.8087
157.9885, 478.7668
158.4706, 485.6955
158.9528, 493.8174
159.4349, 501.1082
159.9170, 506.1111
160.3991, 510.2855
160.8812, 515.3182
161.3633, 522.3109
161.8455, 529.7706
162.3276, 536.9809
162.8097, 543.6210
163.2918, 550.8049
163.7739, 558.9211
164.2560, 567.2002
164.7382, 571.8412
165.2203, 576.2467
165.7024, 580.8021
166.1845, 584.9842
166.6666, 588.7240
167.1487, 592.1999
167.6309, 595.4048
168.1130, 598.4645
168.5951, 601.5839
169.0772, 605.2086
169.5593, 608.7844
170.0414, 611.7491
170.5236, 613.7731
171.0057, 615.7499
171.4878, 618.8537
171.9699, 622.5964
172.4520, 625.4252
172.9341, 625.8679
173.4163, 625.1769
173.8984, 624.8115
174.3805, 625.1629
174.8626, 625.7715
175.3447, 626.1118
175.8268, 626.2726
176.3090, 626.7024
176.7911, 627.9964
177.2732, 629.6943
177.7553, 630.9734
178.2374, 631.2506
178.7195, 631.4376
179.2017, 633.0464
179.6838, 635.9280
180.1659, 638.5433
180.6480, 639.4018
181.1301, 639.1049
181.6122, 639.0908
182.0944, 639.9120
182.5765, 641.1268
183.0586, 641.7846
183.5407, 641.8841
184.0228, 642.3943
184.5049, 644.6307
184.9871, 648.1255
185.4692, 651.1002
185.9513, 652.8678
186.4334, 653.8222
186.9155, 654.8060
187.3976, 655.7995
187.8798, 656.9948
188.3619, 658.9569
188.8440, 661.5058
189.3261, 663.3080
189.8082, 663.4894
190.2903, 662.6002
190.7725, 662.7405
191.2546, 664.0452
191.7367, 665.6735
192.2188, 666.4926
192.7009, 666.5701
193.1830, 667.1101
193.6652, 669.0070
194.1473, 671.9138
194.6294, 673.1805
195.1115, 672.3907
195.5936, 671.3466
196.0757, 672.6945
196.5579, 676.5118
197.0400, 680.3698
197.5221, 683.6788
198.0042, 686.3863
198.4863, 687.5667
198.9684, 687.0511
199.4506, 685.3751
199.9327, 683.0849
200.4148, 680.0872
200.8969, 677.2357
201.3790, 674.6315
201.8611, 672.2548
202.3433, 671.1284
202.8254, 671.5586
203.3075, 672.7242
203.7896, 673.3224
204.2717, 673.3257
204.7538, 672.8838
205.2360, 671.8282
205.7181, 670.0168
206.2002, 668.8716
206.6823, 668.5131
207.1644, 668.6646
207.6465, 669.0208
208.1287, 669.8137
208.6108, 670.0196
209.0929, 668.8764
209.5750, 665.9502
210.0571, 664.1591
210.5392, 663.8707
211.0214, 664.4042
211.5035, 664.1806
211.9856, 662.7664
212.4677, 661.8338
212.9498, 662.3624
213.4319, 664.8406
213.9141, 666.7062
214.3962, 667.8509
214.8783, 668.4254
215.3604, 668.6474
215.8425, 668.2493
216.3246, 668.0743
216.8067, 668.5966
217.2889, 670.0878
217.7710, 671.2607
218.2531, 671.9931
218.7352, 672.4271
219.2173, 672.8801
219.6994, 673.2271
220.1816, 673.8167
220.6637, 674.9189
221.1458, 676.8837
221.6279, 678.3294
222.1100, 679.0325
222.5921, 679.3074
223.0743, 680.0584
223.5564, 681.6442
224.0385, 683.1047
224.5206, 683.8566
225.0027, 683.3948
225.4848, 683.6940
225.9670, 685.0880
226.4491, 687.1653
226.9312, 688.9013
227.4133, 690.2646
227.8954, 691.3162
228.3775, 691.9021
228.8597, 691.4143
229.3418, 691.9991
229.8239, 694.1113
230.3060, 697.1677
230.7881, 699.4666
231.2702, 700.5718
231.7524, 701.5763
232.2345, 702.9314
232.7166, 704.7093
233.1987, 706.6800
233.6808, 708.8245
234.1629, 711.1523
234.6451, 713.8651
235.1272, 717.5978
235.6093, 720.7722
236.0914, 722.5538
236.5735, 722.0331
237.0556, 722.3151
237.5378, 723.8671
238.0199, 726.1176
238.5020, 727.6362
238.9841, 728.4421
239.4662, 728.5437
239.9483, 727.7979
240.4305, 725.5712
240.9126, 724.0648
241.3947, 723.7913
241.8768, 724.0627
242.3589, 723.1641
242.8410, 720.6609
243.3232, 717.6269
243.8053, 714.3518
244.2874, 710.2284
244.7695, 707.3624
245.2516, 706.2493
245.7337, 706.1746
246.2159, 705.5521
246.6980, 704.1602
247.1801, 702.5770
247.6622, 700.9548
248.1443, 699.1384
248.6264, 697.7479
249.1086, 696.8994
249.5907, 696.4189
250.0728, 695.9850
250.5549, 695.7319
251.0370, 695.2952
251.5191, 694.4695
252.0013, 693.0709
252.4834, 691.8649
252.9655, 690.7635
253.4476, 689.8983
253.9297, 689.6041
254.4118, 690.2072
254.8940, 690.7516
255.3761, 690.8360
255.8582, 690.2665
256.3403, 690.0702
256.8224, 690.5477
257.3046, 691.1765
257.7867, 690.9205
258.2688, 689.1160
258.7509, 687.8663
259.2330, 688.1485
259.7151, 690.4124
260.1973, 691.5193
260.6794, 690.9495
261.1615, 689.7302
261.6436, 689.5145
262.1257, 690.9398
262.6078, 691.7835
263.0900, 691.0423
263.5721, 688.4150
264.0542, 687.1574
264.5363, 687.7004
265.0184, 689.0611
265.5005, 690.0305
265.9827, 690.4973
266.4648, 690.8348
266.9469, 691.0775
267.4290, 691.2122
267.9111, 691.5794
268.3932, 692.3036
268.8754, 693.0539
269.3575, 693.5130
269.8396, 693.7291
270.3217, 693.4476
270.8038, 692.3082
271.2859, 690.4019
271.7681, 689.7786
272.2502, 690.7687
272.7323, 692.3631
273.2144, 693.5984
273.6965, 694.4729
274.1786, 695.0479
274.6608, 695.3096
275.1429, 695.2804
275.6250, 695.0797
276.1071, 694.6537
276.5892, 694.2181
277.0714, 693.9756
277.5535, 693.9390
278.0356, 694.0048
278.5177, 694.2073
278.9998, 694.4920
279.4819, 694.5587
279.9641, 694.3428
280.4462, 694.2131
280.9283, 694.5897
281.4104, 695.4988
281.8925, 696.0952
282.3746, 696.1343
282.8568, 695.8690
283.3389, 695.9609
283.8210, 696.4071
284.3031, 697.1936
284.7852, 698.6306
285.2673, 700.6255
285.7495, 701.7487
286.2316, 701.5742
286.7137, 700.7722
287.1958, 700.8327
287.6779, 701.7754
288.1600, 702.6886
288.6422, 702.8820
289.1243, 702.4699
289.6064, 702.3119
290.0885, 702.5094
290.5706, 702.9001
291.0527, 703.2482
291.5349, 703.5631
292.0170, 703.9014
292.4991, 704.6846
292.9812, 705.5903
293.4633, 705.0367
293.9454, 702.6285
294.4276, 700.1143
294.9097, 700.2479
295.3918, 702.5550
295.8739, 704.5421
296.3560, 704.5121
296.8381, 703.3376
297.3203, 703.1859
297.8024, 704.1833
298.2845, 705.3721
298.7666, 705.6003
299.2487, 705.1568
299.7308, 704.9461
300.2130, 705.5598
300.6951, 706.5510
301.1772, 707.1013
301.6593, 707.2148
302.1414, 707.4604
302.6235, 708.7303
303.1057, 710.4855
303.5878, 711.5762
304.0699, 711.1786
304.5520, 710.3105
305.0341, 710.2743
305.5162, 710.9682
305.9984, 711.5109
306.4805, 711.0389
306.9626, 710.0745
307.4447, 709.3237
307.9268, 708.8674
308.4089, 708.7991
308.8911, 709.3417
309.3732, 710.3848
309.8553, 711.4970
310.3374, 712.4476
310.8195, 713.3253
311.3016, 714.2569
311.7838, 715.4158
312.2659, 716.3216
312.7480, 716.3583
313.2301, 715.8718
313.7122, 715.7128
314.1943, 716.3329
314.6765, 717.4037
315.1586, 718.8301
315.6407, 720.7772
316.1228, 722.4501
316.6049, 723.5524
317.0870, 724.1106
317.5692, 724.1570
318.0513, 722.9345
318.5334, 721.8173
319.0155, 721.5399
319.4976, 722.2491
319.9797, 723.0521
320.4619, 723.9006
320.9440, 724.5865
321.4261, 724.8722
321.9082, 724.0428
322.3903, 723.4308
322.8724, 723.5070
323.3546, 724.2991
323.8367, 725.1891
324.3188, 726.7089
324.8009, 727.9557
325.2830, 728.2313
325.7651, 726.1683
326.2473, 724.5989
326.7294, 724.0515
327.2115, 724.4391
327.6936, 724.9767
328.1757, 725.6172
328.6578, 726.4104
329.1400, 727.4014
329.6221, 729.3849
330.1042, 730.4586
330.5863, 730.0986
331.0684, 728.7928
331.5505, 727.9946
332.0327, 727.9499
332.5148, 728.0870
332.9969, 728.1635
333.4790, 728.0463
333.9611, 728.1768
334.4432, 728.4615
334.9254, 729.0423
335.4075, 730.3177
335.8896, 732.9794
336.3717, 734.9360
336.8538, 735.1873
337.3359, 733.4639
337.8180, 733.1869
338.3001, 734.8804
338.7823, 737.2307
339.2644, 738.6834
339.7465, 739.0388
340.2286, 739.4496
340.7107, 740.2851
341.1928, 741.4296
341.6750, 741.9305
342.1571, 741.6671
342.6392, 741.2164
343.1213, 740.8477
343.6034, 740.5475
344.0855, 741.0740
344.5677, 742.7949
345.0498, 745.1451
345.5319, 746.7443
346.0140, 747.5794
346.4961, 748.0554
346.9782, 748.0686
347.4604, 747.8422
347.9425, 748.5740
348.4246, 750.5660
348.9067, 753.0181
349.3888, 754.8294
349.8709, 756.0923
350.3531, 757.2762
350.8352, 758.5937
351.3173, 760.0032
351.7994, 761.3828
352.2815, 762.7076
352.7636, 764.2182
353.2458, 766.4317
353.7279, 769.0001
354.2100, 771.1769
354.6921, 772.7288
355.1742, 773.7012
355.6563, 774.2516
356.1385, 774.3357
356.6206, 773.6219
357.1027, 771.0712
357.5848, 767.8875
358.0669, 765.4791
358.5490, 764.4973
359.0312, 763.9548
359.5133, 763.2615
359.9954, 762.4952
360.4775, 761.8962
360.9596, 761.7040
361.4417, 761.6308
361.9239, 761.4153
362.4060, 760.8641
362.8881, 760.6155
363.3702, 761.4207
363.8523, 762.5811
364.3344, 763.0273
364.8166, 761.0271
365.2987, 759.5403
365.7808, 760.0281
366.2629, 762.8293
366.7450, 765.2237
367.2271, 766.6270
367.7093, 767.5355
368.1914, 768.3868
368.6735, 769.0146
369.1556, 769.8380
369.6377, 770.8275
370.1198, 772.0128
370.6020, 773.6476
371.0841, 776.1686
371.5662, 778.7429
372.0483, 780.8917
372.5304, 782.3881
373.0125, 783.9066
373.4947, 785.4158
373.9768, 786.9509
374.4589, 788.5829
374.9410, 790.2082
375.4231, 792.1611
375.9052, 794.7601
376.3874, 798.1858
376.8695, 800.7336
377.3516, 801.9871
377.8337, 803.1129
378.3158, 805.9014
378.7979, 810.6504
379.2801, 814.9128
379.7622, 817.9744
380.2443, 820.0466
380.7264, 822.4349
381.2085, 825.2672
381.6906, 827.3754
382.1728, 827.2355
382.6549, 825.2366
383.1370, 823.9156
383.6191, 823.8051
384.1012, 824.3438
384.5833, 824.8200
385.0655, 825.1953
385.5476, 825.2105
386.0297, 824.6191
386.5118, 823.5975
386.9939, 822.4135
387.4760, 821.0831
387.9582, 819.6851
388.4403, 818.2280
388.9224, 816.7449
389.4045, 815.3146
389.8866, 814.3713
390.3687, 813.2017
390.8509, 810.8978
391.3330, 807.5838
391.8151, 804.5510
392.2972, 803.0177
392.7793, 801.9509
393.2614, 800.3279
393.7436, 797.5552
394.2257, 794.6895
394.7078, 792.2045
395.1899, 789.9882
395.6720, 787.7423
396.1541, 784.9308
396.6363, 782.4329
397.1184, 780.8646
397.6005, 780.7975
398.0826, 780.0689
398.5647, 777.2418
399.0468, 773.9648
399.5290, 772.2359
400.0111, 774.0344
400.4932, 775.4074
400.9753, 775.6210
401.4574, 774.6743
401.9395, 773.5675
402.4217, 771.9269
402.9038, 770.4958
403.3859, 769.8154
403.8680, 770.2086
404.3501, 770.6315
404.8322, 771.2595
405.3144, 771.7479
405.7965, 770.8345
406.2786, 767.8787
406.7607, 765.6295
407.2428, 765.6765
407.7249, 768.1143
408.2071, 769.6367
408.6892, 770.0413
409.1713, 770.1461
409.6534, 771.4763
410.1355, 773.8981
410.6176, 774.7040
411.0998, 772.2031
411.5819, 768.1635
412.0640, 767.1512
412.5461, 769.0753
413.0282, 771.3998
413.5103, 772.0671
413.9925, 771.7352
414.4746, 771.9083
414.9567, 773.0706
415.4388, 774.0693
415.9209, 773.1668
416.4030, 771.1214
416.8852, 769.7922
417.3673, 771.0172
417.8494, 772.7703
418.3315, 773.2694
418.8136, 772.3937
419.2957, 771.4098
419.7779, 770.6879
420.2600, 770.3546
420.7421, 770.5486
421.2242, 771.4449
421.7063, 772.7382
422.1884, 774.8887
422.6706, 777.5048
423.1527, 779.1779
423.6348, 779.2263
424.1169, 778.5411
424.5990, 777.3697
425.0811, 775.1785
425.5633, 773.8181
426.0454, 773.7272
426.5275, 774.3348
427.0096, 774.9226
427.4917, 775.2727
427.9738, 775.9562
428.4560, 777.2961
428.9381, 779.2438
429.4202, 780.3931
429.9023, 780.3990
430.3844, 780.2076
430.8665, 780.7072
431.3487, 782.1734
431.8308, 782.3785
432.3129, 780.5992
432.7950, 778.1477
433.2771, 778.1495
433.7592, 780.7059
434.2414, 782.9734
434.7235, 783.4188
435.2056, 782.4665
435.6877, 781.8400
436.1698, 781.5619
436.6519, 781.2985
437.1341, 780.5648
437.6162, 779.5848
438.0983, 778.9301
438.5804, 778.7988
439.0625, 779.0063
439.5446, 779.4600
440.0268, 780.1110
440.5089, 780.7662
440.9910, 781.6180
441.4731, 782.2571
441.9552, 782.2770
442.4373, 781.5682
442.9195, 780.6290
443.4016, 779.3619
443.8837, 778.1257
444.3658, 777.3552
444.8479, 777.2960
445.3300, 777.6066
445.8122, 778.4613
446.2943, 779.7432
446.7764, 780.5448
447.2585, 780.4722
447.7406, 780.0828
448.2227, 779.6418
448.7049, 779.1984
449.1870, 778.6066
449.6691, 777.6179
450.1512, 776.6070
450.6333, 776.1780
451.1154, 776.4127
451.5976, 777.0575
452.0797, 778.1475
452.5618, 779.6456
453.0439, 780.9612
453.5260, 782.0188
454.0081, 783.0480
454.4903, 784.4641
454.9724, 786.2391
455.4545, 786.9575
455.9366, 786.1114
456.4187, 784.8350
456.9008, 785.0650
457.3830, 786.6884
457.8651, 788.7596
458.3472, 791.6226
458.8293, 794.4118
459.3114, 795.3141
459.7935, 794.3290
460.2757, 793.0024
460.7578, 792.3582
461.2399, 792.2111
461.7220, 792.2967
462.2041, 792.5009
462.6862, 792.9932
463.1684, 794.0439
463.6505, 795.4706
464.1326, 796.8301
464.6147, 798.0807
465.0968, 799.1053
465.5789, 799.8240
466.0611, 800.2284
466.5432, 800.3450
467.0253, 800.2917
467.5074, 799.8764
467.9895, 798.9274
468.4716, 795.9156
468.9538, 794.3378
469.4359, 795.2174
469.9180, 797.6712
470.4001, 798.8448
470.8822, 798.2335
471.3643, 797.2330
471.8465, 796.2097
472.3286, 795.0855
472.8107, 795.1014
473.2928, 796.6836
473.7749, 798.4000
474.2570, 798.4242
474.7392, 796.7772
475.2213, 795.4280
475.7034, 794.9777
476.1855, 794.8585
476.6676, 793.5692
477.1497, 791.2644
477.6319, 789.4856
478.1140, 789.3135
478.5961, 790.1865
479.0782, 791.4722
479.5603, 793.1868
480.0424, 794.3656
480.5246, 793.6799
481.0067, 792.1036
481.4888, 791.0435
481.9709, 791.5927
482.4530, 792.0113
482.9352, 790.9363
483.4173, 788.9186
483.8994, 787.7037
484.3815, 788.4037
484.8636, 789.6116
485.3457, 790.8115
485.8279, 792.1357
486.3100, 792.7887
486.7921, 792.1426
487.2742, 791.1039
487.7563, 790.4704
488.2384, 790.5844
488.7206, 790.5009
489.2027, 789.9700
489.6848, 789.1937
490.1669, 789.1057
490.6490, 790.1514
491.1311, 790.5442
491.6133, 788.8790
492.0954, 785.2103
492.5775, 783.4255
493.0596, 783.7434
493.5417, 785.0980
494.0238, 786.8224
494.5060, 788.7272
494.9881, 789.8050
495.4702, 789.5519
495.9523, 788.7419
496.4344, 788.2978
496.9165, 788.2004
497.3987, 788.3808
497.8808, 788.9979
498.3629, 789.7512
498.8450, 790.3849
499.3271, 790.8809
499.8092, 791.2188
500.2914, 791.0647
500.7735, 790.8951
501.2556, 791.1686
501.7377, 792.6830
502.2198, 793.8060
502.7019, 794.2141
503.1841, 793.9747
503.6662, 793.2801
504.1483, 790.6453
504.6304, 789.1758
505.1125, 790.3157
505.5946, 794.4164
506.0768, 796.5546
506.5589, 796.0076
507.0410, 794.5626
507.5231, 793.5688
508.0052, 793.0645
508.4873, 792.8275
508.9695, 792.8680
509.4516, 793.1329
509.9337, 793.5560
510.4158, 794.1321
510.8979, 794.7665
511.3800, 795.2910
511.8622, 795.8818
512.3443, 797.2825
512.8264, 799.4088
513.3085, 801.0026
513.7906, 800.3683
514.2728, 798.8994
514.7549, 798.5377
515.2370, 799.9834
515.7191, 801.5508
516.2012, 802.0511
516.6833, 802.0206
517.1655, 802.2916
517.6476, 803.2533
518.1297, 804.4510
518.6118, 806.0387
519.0939, 807.9207
519.5760, 809.0802
520.0582, 808.2018
520.5403, 807.6015
521.0224, 808.3486
521.5045, 811.0220
521.9866, 813.3483
522.4688, 815.2448
522.9509, 816.8727
523.4330, 818.5724
523.9151, 820.4819
524.3972, 821.6017
524.8793, 821.4479
525.3615, 820.5818
525.8436, 820.3302
526.3257, 820.6953
526.8078, 821.7021
527.2899, 823.8058
527.7720, 826.5046
528.2542, 828.7047
528.7363, 830.3588
529.2184, 831.5331
529.7005, 831.8121
530.1826, 831.7811
530.6647, 832.2416
531.1469, 833.5380
531.6290, 835.1631
532.1111, 837.3765
532.5932, 839.6717
533.0753, 841.0117
533.5574, 839.8510
534.0396, 838.8884
534.5217, 839.1107
535.0038, 840.6096
535.4859, 842.2717
535.9680, 844.8192
536.4501, 846.7542
536.9323, 846.8597
537.4144, 843.5983
537.8965, 843.1207
538.3786, 846.6214
538.8607, 851.4653
539.3428, 853.4089
539.8250, 852.2510
540.3071, 851.2966
540.7892, 851.7352
541.2713, 852.8058
541.7534, 852.6284
542.2355, 851.2746
542.7177, 849.4584
543.1998, 847.4611
543.6819, 845.3312
544.1640, 843.1036
544.6461, 840.7692
545.1282, 838.5281
545.6104, 836.3572
546.0925, 834.4443
546.5746, 833.0471
547.0567, 832.9033
547.5388, 832.3422
548.0209, 830.3884
548.5031, 827.6450
548.9852, 825.4005
549.4673, 824.3572
549.9494, 823.2924
550.4315, 821.8575
550.9136, 820.0552
551.3958, 818.4688
551.8779, 817.1995
552.3600, 815.9764
552.8421, 814.5765
553.3242, 812.9636
553.8063, 811.4728
554.2885, 810.0484
554.7706, 808.9415
555.2527, 808.7703
555.7348, 809.3528
556.2169, 809.5424
556.6990, 808.9355
557.1812, 807.8463
557.6633, 806.1876
558.1454, 804.2807
558.6275, 803.3350
559.1096, 805.2751
559.5917, 807.6257
560.0739, 808.1938
560.5560, 806.8119
561.0381, 805.3519
561.5202, 804.7004
562.0023, 804.2039
562.4844, 803.3342
562.9666, 800.9871
563.4487, 799.8547
563.9308, 800.8314
564.4129, 802.7375
564.8950, 803.7909
565.3771, 803.7139
565.8593, 803.3574
566.3414, 802.8538
566.8235, 802.2130
567.3056, 801.2471
567.7877, 799.8242
568.2698, 799.0504
568.7520, 800.1600
569.2341, 802.5217
569.7162, 803.7235
570.1983, 803.6535
570.6804, 802.9735
571.1625, 802.0677
571.6447, 801.0281
572.1268, 800.0065
572.6089, 799.0554
573.0910, 798.0948
573.5731, 796.9058
574.0552, 795.7005
574.5374, 794.8204
575.0195, 794.5170
575.5016, 794.4421
575.9837, 794.5848
576.4658, 794.9215
576.9479, 795.1764
577.4301, 795.5880
577.9122, 795.6366
578.3943, 794.9925
578.8764, 793.4789
579.3585, 792.1730
579.8406, 790.8834
580.3228, 790.2208
580.8049, 791.1481
581.2870, 793.5538
581.7691, 795.6759
582.2512, 797.2552
582.7333, 798.2732
583.2155, 798.5206
583.6976, 798.1396
584.1797, 797.6066
584.6617, 797.0075
585.1439, 796.4316
585.6260, 795.7153
586.1081, 794.9908
586.5902, 794.9422
587.0723, 797.0865
587.5544, 799.0576
588.0366, 799.2220
588.5187, 796.7952
589.0008, 795.2861
589.4829, 795.7944
589.9650, 796.9305
590.4471, 797.7341
590.9293, 798.2615
591.4114, 798.2964
591.8935, 797.6336
592.3756, 796.6967
592.8577, 796.1905
593.3398, 796.1243
593.8220, 796.4620
594.3041, 797.4006
594.7862, 798.5760
595.2683, 799.2398
595.7504, 799.3898
596.2325, 799.0535
596.7147, 797.6433
597.1968, 796.0826
597.6789, 795.5871
598.1610, 796.2632
598.6431, 796.8975
599.1252, 796.8758
599.6074, 796.4943
600.0895, 795.9335
600.5716, 794.7430
601.0537, 794.2327
601.5358, 795.1182
602.0179, 796.5944
602.5001, 797.6205
602.9822, 797.9133
603.4643, 798.3263
603.9464, 799.1409
604.4285, 800.1066
604.9106, 800.3463
605.3928, 799.7780
605.8749, 799.1100
606.3570, 798.3483
606.8391, 797.7728
607.3212, 798.6343
607.8033, 800.8645
608.2855, 803.0300
608.7676, 803.9355
609.2497, 804.1454
609.7318, 804.2675
610.2139, 804.3365
610.6960, 804.6357
611.1782, 805.8277
611.6603, 807.1069
612.1424, 807.6290
612.6245, 806.5690
613.1066, 805.4988
613.5887, 804.2170
614.0709, 803.1348
614.5530, 803.2481
615.0351, 805.4078
615.5172, 806.9022
615.9993, 806.7168
616.4814, 805.2839
616.9636, 805.1240
617.4457, 806.3617
617.9278, 807.5127
618.4099, 807.3988
618.8920, 806.4997
619.3741, 806.1469
619.8563, 806.3920
620.3384, 806.7798
620.8205, 807.0672
621.3026, 807.2206
621.7847, 807.1970
622.2668, 806.9720
622.7490, 806.5917
623.2311, 805.5908
623.7132, 804.6072
624.1953, 804.4574
624.6774, 806.2355
625.1595, 807.7035
625.6417, 808.7562
626.1238, 809.3011
626.6059, 808.8318
627.0880, 806.7726
627.5701, 805.4784
628.0522, 806.0656
628.5344, 808.0994
629.0165, 809.3196
629.4986, 809.7101
629.9807, 810.0828
630.4628, 811.1602
630.9449, 812.5714
631.4271, 813.8038
631.9092, 814.8311
632.3913, 815.1837
632.8734, 813.5910
633.3555, 811.5958
633.8376, 810.8362
634.3198, 812.2542
634.8019, 813.7717
635.2840, 815.0712
635.7661, 816.0668
636.2482, 816.6514
636.7303, 816.5387
637.2125, 816.5144
637.6946, 816.8288
638.1767, 817.2420
638.6588, 816.9688
639.1409, 815.8976
639.6230, 814.9598
640.1052, 814.5654
640.5873, 814.5737
641.0694, 814.5496
641.5515, 814.5173
642.0336, 814.6309
642.5157, 815.4374
642.9979, 816.2319
643.4800, 815.8654
643.9621, 814.1791
644.4442, 813.0909
644.9263, 813.8495
645.4084, 815.4122
645.8906, 816.9636
646.3727, 818.4222
646.8548, 819.7418
647.3369, 820.7833
647.8190, 821.7464
648.3011, 822.9345
648.7833, 824.5805
649.2654, 825.5720
649.7475, 825.5649
650.2296, 825.0124
650.7117, 824.8598
651.1938, 825.0721
651.6760, 825.2565
652.1581, 824.8847
652.6402, 824.6942
653.1223, 826.2238
653.6044, 829.0600
654.0865, 831.5268
654.5687, 832.4728
655.0508, 832.8912
655.5329, 833.4763
656.0150, 834.2953
656.4971, 834.7268
656.9792, 833.9256
657.4614, 833.2841
657.9435, 833.5993
658.4256, 835.1823
658.9077, 836.6278
659.3898, 837.9088
659.8719, 839.0814
660.3541, 840.1198
660.8362, 841.0260
661.3183, 842.3195
661.8004, 844.2401
662.2825, 845.9630
662.7646, 846.0119
663.2468, 845.0077
663.7289, 844.4902
664.2110, 845.3732
664.6931, 846.4861
665.1752, 846.9257
665.6573, 846.9812
666.1395, 847.3361
666.6216, 847.7105
667.1037, 848.9268
667.5858, 852.0578
668.0679, 856.6512
668.5500, 859.2771
669.0322, 859.0248
669.5143, 858.6288
669.9964, 859.2419
670.4785, 860.8131
670.9606, 862.6871
671.4427, 864.8884
671.9249, 867.1386
672.4070, 869.2195
672.8891, 871.2065
673.3712, 873.2482
673.8533, 875.3815
674.3354, 877.4726
674.8176, 879.1726
675.2997, 880.9383
675.7818, 883.2869
676.2639, 886.8254
676.7460, 890.0878
677.2281, 892.7084
677.7103, 894.8489
678.1924, 896.6583
678.6745, 897.9873
679.1566, 899.2216
679.6387, 900.1592
680.1208, 901.2574
680.6030, 903.9237
681.0851, 908.0995
681.5672, 911.7685
682.0493, 914.0420
682.5314, 915.4714
683.0135, 916.6517
683.4957, 917.7022
683.9778, 919.0654
684.4599, 921.7133
684.9420, 924.1673
685.4241, 925.2599
685.9063, 925.0451
686.3884, 924.9437
686.8705, 925.9688
687.3526, 926.5959
687.8347, 926.0701
688.3168, 924.2083
688.7990, 922.5282
689.2811, 920.9667
689.7632, 919.7034
690.2453, 919.2565
690.7274, 919.4816
691.2095, 918.3569
691.6917, 915.6459
692.1738, 912.4111
692.6559, 910.0349
693.1380, 907.8859
693.6201, 904.7051
694.1022, 899.6750
694.5844, 895.0608
695.0665, 892.5690
695.5486, 891.1367
696.0307, 889.3981
696.5128, 886.5301
696.9949, 884.0766
697.4771, 882.5851
697.9592, 881.4149
698.4413, 879.1398
698.9234, 875.3307
699.4055, 872.2348
699.8876, 870.7490
700.3698, 870.0682
700.8519, 868.0478
701.3340, 864.8738
701.8161, 861.7961
702.2982, 859.7559
702.7803, 857.9679
703.2625, 855.0924
703.7446, 851.5005
704.2267, 849.1246
704.7088, 850.1188
705.1909, 851.3802
705.6730, 851.2502
706.1552, 849.5085
706.6373, 847.9311
707.1194, 846.0773
707.6015, 845.0242
708.0836, 845.9371
708.5657, 849.0110
709.0479, 849.3017
709.5300, 846.3820
710.0121, 843.1914
710.4942, 842.3856
710.9763, 843.3284
711.4584, 844.9073
711.9406, 847.1438
712.4227, 848.5572
712.9048, 847.5932
713.3869, 845.4828
713.8690, 843.4760
714.3511, 841.8348
714.8333, 840.4017
715.3154, 838.9516
715.7975, 837.8635
716.2796, 837.7545
716.7617, 839.3609
717.2438, 839.7746
717.7260, 838.3861
718.2081, 836.1201
718.6902, 834.3077
719.1723, 832.9843
719.6544, 832.6147
720.1365, 833.8021
720.6187, 835.2745
721.1008, 835.3554
721.5829, 834.5419
722.0650, 834.0116
722.5471, 835.2295
723.0292, 835.8419
723.5114, 833.7117
723.9935, 829.8317
724.4756, 828.7160
724.9577, 832.6735
725.4398, 835.9285
725.9219, 836.4905
726.4041, 834.9294
726.8862, 834.6819
727.3683, 835.8717
727.8504, 836.9936
728.3325, 837.2725
728.8146, 836.8895
729.2968, 835.9382
729.7789, 834.5193
730.2610, 833.4362
730.7431, 833.6301
731.2252, 834.0321
731.7073, 833.6618
732.1895, 832.3277
732.6716, 831.6748
733.1537, 832.8791
733.6358, 834.0127
734.1179, 834.0018
734.6000, 832.5274
735.0822, 831.7140
735.5643, 831.6537
736.0464, 831.8850
736.5285, 831.8395
737.0106, 831.7185
737.4927, 832.5450
737.9749, 834.5439
738.4570, 836.3176
738.9391, 836.5795
739.4212, 835.9763
739.9033, 835.1261
740.3854, 833.8731
740.8676, 833.1609
741.3497, 833.8376
741.8318, 834.8848
742.3139, 835.2111
742.7960, 834.3659
743.2781, 833.9075
743.7603, 833.9200
744.2424, 834.3378
744.7245, 835.4463
745.2066, 837.0527
745.6887, 837.5549
746.1708, 836.1927
746.6530, 834.5350
747.1351, 834.5632
747.6172, 835.5302
748.0993, 836.1405
748.5814, 835.7426
749.0635, 835.1080
749.5457, 834.1962
750.0278, 833.2832
750.5099, 832.9803
750.9920, 833.6261
751.4741, 834.3228
751.9562, 835.1240
752.4384, 835.7382
752.9205, 835.1166
753.4026, 833.3056
753.8847, 831.8422
754.3668, 831.4293
754.8489, 831.5779
755.3311, 831.4954
755.8132, 831.3694
756.2953, 831.7489
756.7774, 833.3813
757.2595, 835.0958
757.7416, 836.8967
758.2238, 838.4533
758.7059, 838.1096
759.1880, 833.7275
759.6701, 830.8966
760.1522, 831.9725
760.6343, 835.9256
761.1165, 836.9557
761.5986, 834.9167
762.0807, 832.8534
762.5628, 832.5219
763.0449, 833.2062
763.5270, 833.6609
764.0092, 833.9714
764.4913, 834.6428
764.9734, 836.9781
765.4555, 838.8821
765.9376, 838.7372
766.4197, 836.4852
766.9019, 834.8122
767.3840, 833.5303
767.8661, 833.3690
768.3482, 835.2008
768.8303, 838.8881
769.3124, 840.2272
769.7946, 839.0519
770.2767, 837.4840
770.7588, 837.2122
771.2409, 837.4869
771.7230, 836.7324
772.2051, 834.9542
772.6873, 833.5776
773.1694, 833.4014
773.6515, 833.9404
774.1336, 835.0876
774.6157, 837.0166
775.0978, 838.2773
775.5800, 838.6740
776.0621, 838.5967
776.5442, 838.0512
777.0263, 836.9776
777.5084, 836.8400
777.9905, 837.7146
778.4727, 838.7445
778.9548, 839.1674
779.4369, 839.2587
779.9190, 839.6182
780.4011, 840.3337
780.8832, 840.6514
781.3654, 839.9483
781.8475, 838.8311
782.3296, 837.7144
782.8117, 836.6531
783.2938, 835.5756
783.7759, 834.0558
784.2581, 833.1393
784.7402, 834.0467
785.2223, 836.7812
785.7044, 838.2365
786.1865, 838.1849
786.6686, 837.7217
787.1508, 837.6466
787.6329, 837.9075
788.1150, 838.6121
788.5971, 839.9085
789.0792, 840.6601
789.5613, 839.5536
790.0435, 838.1668
790.5256, 837.8699
791.0077, 839.3564
791.4898, 840.1711
791.9719, 840.0380
792.4540, 839.6703
792.9362, 839.8466
793.4183, 840.4883
793.9004, 840.5335
794.3825, 839.8558
794.8646, 839.0549
795.3467, 838.7535
795.8289, 838.6688
796.3110, 838.3745
796.7931, 837.7142
797.2752, 837.2354
797.7573, 837.2959
798.2394, 837.5245
798.7216, 837.5694
799.2037, 837.1694
799.6858, 837.3934
800.1679, 838.5392
800.6500, 839.6246
801.1321, 839.3524
801.6143, 838.0768
802.0964, 837.5430
802.5785, 837.9485
803.0606, 838.9890
803.5427, 841.3433
804.0248, 843.6850
804.5070, 844.3984
804.9891, 842.5582
805.4712, 841.0369
805.9533, 840.9052
806.4354, 840.9662
806.9175, 840.2902
807.3997, 838.6036
807.8818, 837.3041
808.3639, 836.3533
808.8460, 836.1345
809.3281, 838.1208
809.8102, 841.0554
810.2924, 841.1208
810.7745, 837.4645
811.2566, 834.2358
811.7387, 835.0273
812.2208, 837.1943
812.7029, 838.3828
813.1851, 837.8284
813.6672, 837.3557
814.1493, 837.0703
814.6314, 836.8557
815.1135, 836.5692
815.5956, 836.1883
816.0778, 836.0833
816.5599, 836.2570
817.0420, 836.7606
817.5241, 838.2404
818.0062, 839.8511
818.4883, 839.8926
818.9705, 837.8685
819.4526, 836.7246
819.9347, 838.9987
820.4168, 841.8434
820.8989, 842.9705
821.3810, 841.6559
821.8632, 841.6271
822.3453, 843.5497
822.8274, 845.3033
823.3095, 844.6595
823.7916, 842.1884
824.2737, 841.2963
824.7559, 842.1511
825.2380, 842.9756
825.7201, 841.7894
826.2022, 840.1947
826.6843, 839.9670
827.1664, 841.4909
827.6486, 842.6459
828.1307, 843.0732
828.6128, 842.8760
829.0949, 841.8203
829.5770, 839.7887
830.0591, 838.9530
830.5413, 839.4459
831.0234, 840.3658
831.5055, 841.1135
831.9876, 841.7871
832.4697, 842.7057
832.9518, 843.8318
833.4340, 844.6677
833.9161, 844.6119
834.3982, 844.4059
834.8803, 844.5790
835.3624, 845.1979
835.8445, 845.4876
836.3267, 845.4725
836.8088, 845.0800
837.2909, 844.1701
837.7730, 842.8503
838.2551, 841.4091
838.7372, 839.9186
839.2194, 839.4227
839.7015, 841.8376
840.1836, 844.6868
840.6657, 845.1292
841.1478, 843.5546
841.6299, 842.6727
842.1121, 844.4151
842.5942, 845.7987
843.0763, 845.5021
843.5584, 843.9607
844.0405, 843.8207
844.5226, 845.2772
845.0048, 846.6484
845.4869, 847.2494
845.9690, 847.2389
846.4511, 846.6545
846.9332, 845.6807
847.4153, 844.9500
847.8975, 845.0048
848.3796, 845.1296
848.8617, 844.6518
849.3438, 843.9603
849.8259, 844.4538
850.3080, 847.1967
850.7902, 848.7875
851.2723, 848.1732
851.7544, 846.3546
852.2365, 845.3974
852.7186, 845.2288
853.2007, 845.4071
853.6829, 845.9116
854.1650, 846.4868
854.6471, 846.8820
855.1292, 847.2022
855.6113, 847.6246
856.0934, 848.1146
856.5756, 848.8600
857.0577, 850.3845
857.5398, 851.7525
858.0219, 851.3137
858.5040, 848.9178
858.9861, 847.3400
859.4683, 847.1522
859.9504, 847.4222
860.4325, 847.0184
860.9146, 846.2630
861.3967, 845.6214
861.8788, 844.9889
862.3610, 845.0749
862.8431, 847.2313
863.3252, 849.5375
863.8073, 850.1061
864.2894, 848.1285
864.7715, 846.9622
865.2537, 846.7841
865.7358, 847.0322
866.2179, 847.4651
866.7000, 847.8616
867.1821, 847.4258
867.6642, 846.0468
868.1464, 844.8286
868.6285, 844.4213
869.1106, 844.5252
869.5927, 844.9139
870.0748, 845.5798
870.5569, 846.6310
871.0391, 848.3451
871.5212, 849.9045
872.0033, 850.8846
872.4854, 851.2768
872.9675, 850.7833
873.4496, 849.4606
873.9318, 848.4628
874.4139, 848.7659
874.8960, 849.5732
875.3781, 850.1436
875.8602, 850.5148
876.3423, 851.2346
876.8245, 853.3871
877.3066, 854.7337
877.7887, 854.5465
878.2708, 853.1219
878.7529, 851.3414
879.2350, 849.2176
879.7172, 847.9380
880.1993, 848.3886
880.6814, 849.5729
881.1635, 850.5377
881.6456, 851.2061
882.1277, 851.3875
882.6099, 850.4872
883.0920, 849.7274
883.5741, 849.6926
884.0562, 849.8851
884.5383, 849.4012
885.0204, 848.0865
885.5026, 847.0090
885.9847, 846.2703
886.4668, 846.0759
886.9489, 847.0059
887.4310, 848.6366
887.9131, 850.1330
888.3953, 851.3239
888.8774, 852.2252
889.3595, 852.6773
889.8416, 852.9269
890.3237, 853.2567
890.8058, 853.8865
891.2880, 853.7437
891.7701, 852.4685
892.2522, 851.5325
892.7343, 852.9813
893.2164, 855.7296
893.6985, 856.6115
894.1807, 855.3939
894.6628, 854.1550
895.1449, 854.4984
895.6270, 855.0585
896.1091, 854.6965
896.5912, 853.2408
897.0734, 852.8803
897.5555, 854.0029
898.0376, 855.3098
898.5197, 856.2985
899.0018, 856.9545
899.4839, 857.3019
899.9661, 857.2885
900.4482, 856.6077
900.9303, 853.6685
901.4124, 851.3478
901.8945, 852.0387
902.3766, 854.9358
902.8588, 857.3809
903.3409, 859.4686
903.8230, 860.2850
904.3051, 859.1752
904.7872, 857.3029
905.2693, 857.3414
905.7515, 858.8849
906.2336, 859.2924
906.7157, 857.3748
907.1978, 855.4041
907.6799, 855.4055
908.1620, 856.4457
908.6442, 857.4318
909.1263, 858.3981
909.6084, 858.7809
910.0905, 858.4020
910.5726, 857.6957
911.0547, 856.8332
911.5369, 855.8937
912.0190, 855.9084
912.5011, 856.9797
912.9832, 857.9323
913.4653, 857.4579
913.9474, 856.6407
914.4296, 856.4349
914.9117, 856.9417
915.3938, 857.9405
915.8759, 860.1740
916.3580, 861.7575
916.8401, 861.7088
917.3223, 860.3463
917.8044, 859.4518
918.2865, 859.0214
918.7686, 858.9904
919.2507, 859.7313
919.7328, 860.5054
920.2150, 860.5345
920.6971, 860.0311
921.1792, 859.5228
921.6613, 858.9709
922.1434, 858.7181
922.6255, 859.0008
923.1077, 859.4438
923.5898, 859.0883
924.0719, 858.0377
924.5540, 858.2907
925.0361, 860.5756
925.5182, 862.8686
926.0004, 862.9076
926.4825, 861.8922
926.9646, 861.2296
927.4467, 861.1815
927.9288, 861.5410
928.4109, 862.7351
928.8931, 863.7156
929.3752, 863.6910
929.8573, 862.6826
930.3394, 861.2357
930.8215, 859.3674
931.3036, 858.6912
931.7858, 862.4709
932.2679, 866.5248
932.7500, 865.8143
933.2321, 860.9754
933.7142, 858.0625
934.1964, 860.3224
934.6785, 862.1260
935.1606, 861.8520
935.6427, 860.3085
936.1248, 860.0274
936.6069, 860.8860
937.0891, 861.3621
937.5712, 860.5645
938.0533, 859.9075
938.5354, 861.4619
939.0175, 863.8065
939.4996, 864.8292
939.9818, 862.3469
940.4639, 861.0116
940.9460, 861.2859
941.4281, 862.3417
941.9102, 863.6292
942.3923, 865.0629
942.8745, 865.8388
943.3566, 865.9050
943.8387, 865.3994
944.3208, 863.4927
944.8029, 861.7748
945.2850, 862.0190
945.7672, 864.4487
946.2493, 865.7077
946.7314, 864.7686
947.2135, 864.1293
947.6956, 864.9860
948.1777, 866.7682
948.6599, 867.2357
949.1420, 866.6064
949.6241, 866.0803
950.1062, 866.0206
950.5883, 866.4918
951.0704, 868.0046
951.5526, 869.9843
952.0347, 871.2745
952.5168, 871.3506
952.9989, 871.6957
953.4810, 872.5434
953.9631, 873.4388
954.4453, 873.9227
954.9274, 873.9808
955.4095, 873.2768
955.8916, 871.6801
956.3737, 870.6787
956.8558, 872.4506
957.3380, 874.2679
957.8201, 873.6960
958.3022, 870.4277
958.7843, 868.4257
959.2664, 867.8072
959.7485, 868.1151
960.2307, 869.5844
960.7128, 871.5118
961.1949, 872.0641
961.6770, 871.5768
962.1591, 871.2228
962.6412, 872.1296
963.1234, 872.6441
963.6055, 871.5201
964.0876, 869.8206
964.5697, 869.4410
965.0518, 870.8149
965.5339, 871.5204
966.0161, 871.1820
966.4982, 870.4617
966.9803, 869.9030
967.4624, 869.5917
967.9445, 869.7030
968.4266, 870.2803
968.9088, 871.0797
969.3909, 872.7249
969.8730, 873.8123
970.3551, 873.2244
970.8372, 871.1339
971.3193, 871.2440
971.8015, 873.6461
972.2836, 875.1764
972.7657, 872.1566
973.2478, 868.9992
973.7299, 872.7811
974.2120, 880.5364
974.6942, 884.9430
975.1763, 880.7088
975.6584, 876.9377
976.1405, 874.1153
976.6226, 872.9980
977.1047, 875.6567
977.5869, 881.6306
978.0690, 885.4042
978.5511, 886.0220
979.0332, 885.9610
979.5153, 888.2596
979.9974, 890.2066
980.4796, 888.7872
980.9617, 883.1005
981.4438, 878.8253
981.9259, 876.0312
982.4080, 874.8643
982.8901, 875.9324
983.3723, 878.3734
983.8544, 879.5174
984.3365, 879.5872
984.8186, 879.5145
985.3007, 879.6076
985.7828, 879.8190
986.2650, 880.3311
986.7471, 880.8519
987.2292, 880.8409
987.7113, 879.9969
988.1934, 879.6957
988.6755, 880.1074
989.1577, 880.8314
989.6398, 881.6268
990.1219, 882.3438
990.6040, 882.7360
991.0861, 882.7761
991.5682, 882.5339
992.0504, 881.9593
992.5325, 881.1804
993.0146, 880.0984
993.4967, 878.8858
993.9788, 878.4570
994.4609, 878.8221
994.9431, 879.3100
995.4252, 879.8160
995.9073, 880.0953
996.3894, 879.5441
996.8715, 878.6944
997.3536, 878.4029
997.8358, 879.5828
998.3179, 880.2895
998.8000, 880.2901
999.2821, 880.0831
999.7642, 880.2149
1000.246, 880.5703
1000.728, 880.3658
1001.211, 879.5889
1001.693, 879.2281
1002.175, 880.3651
1002.657, 881.7291
1003.139, 882.6094
1003.621, 882.9611
1004.103, 882.7660
1004.585, 881.7841
1005.068, 881.2308
1005.550, 881.6447
1006.032, 882.2490
1006.514, 881.1420
1006.996, 879.4271
1007.478, 879.5500
1007.960, 883.2943
1008.442, 886.1047
1008.924, 885.9789
1009.407, 884.9456
1009.889, 884.1217
1010.371, 883.5000
1010.853, 883.7011
1011.335, 884.7372
1011.817, 885.3792
1012.299, 883.9434
1012.781, 882.4609
1013.263, 883.2053
1013.746, 885.5335
1014.228, 887.0959
1014.710, 887.6528
1015.192, 887.1063
1015.674, 884.9108
1016.156, 882.4923
1016.638, 882.2350
1017.120, 883.5284
1017.603, 884.3584
1018.085, 884.2914
1018.567, 884.6172
1019.049, 887.2268
1019.531, 889.4915
1020.013, 889.0673
1020.495, 886.1189
1020.977, 885.6285
1021.459, 887.9020
1021.942, 889.9095
1022.424, 890.1028
1022.906, 889.4247
1023.388, 889.4260
1023.870, 889.5021
1024.352, 888.4636
1024.834, 884.0009
1025.316, 881.2860
1025.799, 881.2572
1026.281, 882.3545
1026.763, 883.0516
1027.245, 883.4443
1027.727, 884.3997
1028.209, 885.9299
1028.691, 887.0525
1029.173, 886.8669
1029.656, 886.2428
1030.138, 885.4920
1030.620, 884.7620
1031.102, 884.6532
1031.584, 885.2849
1032.066, 885.9693
1032.548, 886.4513
1033.030, 887.0992
1033.512, 888.9869
1033.995, 891.2442
1034.477, 892.2414
1034.959, 891.2838
1035.441, 890.3096
1035.923, 889.6149
1036.405, 889.2222
1036.887, 889.2523
1037.369, 889.6406
1037.851, 889.7676
1038.334, 889.6594
1038.816, 889.5076
1039.298, 889.8214
1039.780, 889.7460
1040.262, 887.7969
1040.744, 885.3088
1041.226, 885.1169
1041.708, 888.6282
1042.191, 890.2911
1042.673, 889.3552
1043.155, 887.9992
1043.637, 888.7043
1044.119, 890.4459
1044.601, 891.5350
1045.083, 891.8500
1045.565, 891.8625
1046.047, 891.2006
1046.530, 890.9081
1047.012, 891.3265
1047.494, 892.3104
1047.976, 893.6823
1048.458, 895.3622
1048.940, 896.5370
1049.422, 896.8893
1049.904, 897.0246
1050.386, 897.2225
1050.869, 897.5443
1051.351, 898.1093
1051.833, 898.9827
1052.315, 899.6412
1052.797, 900.0400
1053.279, 900.4244
1053.761, 901.2921
1054.243, 901.9981
1054.726, 900.7459
1055.208, 898.4230
1055.690, 897.3877
1056.172, 900.1625
1056.654, 901.9005
1057.136, 901.4509
1057.618, 900.4073
1058.100, 900.9857
1058.583, 902.7864
1059.065, 902.8844
1059.547, 901.1008
1060.029, 899.3725
1060.511, 898.8666
1060.993, 899.0436
1061.475, 899.9365
1061.957, 901.2882
1062.439, 902.0316
1062.922, 902.0488
1063.404, 902.3013
1063.886, 903.1825
1064.368, 903.9091
1064.850, 903.2625
1065.332, 901.9739
1065.814, 901.0134
1066.296, 900.6112
1066.778, 900.3270
1067.261, 899.9298
1067.743, 899.9706
1068.225, 901.0094
1068.707, 902.5699
1069.189, 902.7728
1069.671, 902.0289
1070.153, 901.8162
1070.635, 903.2961
1071.118, 904.7534
1071.600, 905.7601
1072.082, 906.1944
1072.564, 905.6934
1073.046, 904.1257
1073.528, 903.1996
1074.010, 902.9656
1074.492, 903.5380
1074.974, 906.1151
1075.457, 908.5984
1075.939, 908.4424
1076.421, 906.4487
1076.903, 906.2926
1077.385, 909.2392
1077.867, 910.9916
1078.349, 910.5958
1078.831, 909.4499
1079.313, 909.3997
1079.796, 909.9124
1080.278, 909.9736
1080.760, 909.4143
1081.242, 909.0394
1081.724, 909.3163
1082.206, 909.5764
1082.688, 909.4637
1083.170, 909.2338
1083.652, 910.1501
1084.135, 911.8464
1084.617, 912.2308
1085.099, 910.0096
1085.581, 907.9767
1086.063, 908.1394
1086.545, 909.1147
1087.027, 909.5442
1087.509, 909.3033
1087.992, 909.9928
1088.474, 911.7140
1088.956, 912.9700
1089.438, 912.5353
1089.920, 911.4467
1090.402, 910.5076
1090.884, 909.7740
1091.366, 909.3572
1091.849, 908.8570
1092.331, 909.7286
1092.813, 912.7097
1093.295, 915.1664
1093.777, 913.4509
1094.259, 909.6689
1094.741, 908.1661
1095.223, 908.9387
1095.705, 910.1110
1096.188, 911.8771
1096.670, 912.6844
1097.152, 911.8801
1097.634, 910.2739
1098.116, 909.2236
1098.598, 908.6851
1099.080, 908.4887
1099.562, 908.6686
1100.044, 908.5778
1100.527, 907.1276
1101.009, 905.8864
1101.491, 906.2182
1101.973, 907.7538
1102.455, 908.1405
1102.937, 907.3265
1103.419, 906.7461
1103.901, 906.9795
1104.384, 907.3439
1104.866, 906.8857
1105.348, 906.2708
1105.830, 906.4042
1106.312, 907.7077
1106.794, 908.3114
1107.276, 907.9922
1107.758, 907.7263
1108.240, 908.0384
1108.723, 908.7813
1109.205, 910.3354
1109.687, 912.0566
1110.169, 912.4811
1110.651, 909.6126
1111.133, 907.6942
1111.615, 907.1660
1112.097, 907.4200
1112.579, 908.3828
1113.062, 909.6498
1113.544, 909.5978
1114.026, 908.3203
1114.508, 906.7103
1114.990, 903.8129
1115.472, 902.4572
1115.954, 904.9538
1116.436, 908.5784
1116.919, 908.6700
1117.401, 905.5494
1117.883, 904.8951
1118.365, 907.4226
1118.847, 909.7023
1119.329, 908.4921
1119.811, 906.7238
1120.293, 906.3318
1120.776, 907.1554
1121.258, 908.4811
1121.740, 910.4092
1122.222, 911.8996
1122.704, 912.7626
1123.186, 912.9189
1123.668, 911.7473
1124.150, 910.1815
1124.632, 909.2858
1125.115, 909.2940
1125.597, 909.0824
1126.079, 908.4579
1126.561, 908.2844
1127.043, 909.0539
1127.525, 910.2274
1128.007, 911.4557
1128.489, 912.2833
1128.971, 911.6005
1129.454, 907.8280
1129.936, 906.5325
1130.418, 909.4465
1130.900, 912.3588
1131.382, 912.5483
1131.864, 910.9675
1132.346, 910.2002
1132.828, 910.1006
1133.311, 910.2164
1133.793, 910.0393
1134.275, 910.5616
1134.757, 912.7429
1135.239, 914.8260
1135.721, 915.0912
1136.203, 913.7772
1136.685, 912.5840
1137.167, 911.6093
1137.650, 911.4152
1138.132, 913.1154
1138.614, 914.7795
1139.096, 915.6459
1139.578, 915.8792
1140.060, 915.4425
1140.542, 914.3178
1141.024, 914.0716
1141.506, 914.8505
1141.989, 915.3302
1142.471, 913.9452
1142.953, 912.4421
1143.435, 912.3245
1143.917, 913.1088
1144.399, 912.7972
1144.881, 911.0837
1145.363, 910.8425
1145.846, 912.7668
1146.328, 914.9836
1146.810, 915.9512
1147.292, 916.0207
1147.774, 914.9818
1148.256, 912.9794
1148.738, 912.8754
1149.220, 915.2773
1149.703, 917.3613
1150.185, 918.4261
1150.667, 918.6531
1151.149, 917.6888
1151.631, 916.3302
1152.113, 915.6799
1152.595, 915.9894
1153.077, 916.5508
1153.559, 917.5734
1154.042, 918.0735
1154.524, 917.4920
1155.006, 916.3907
1155.488, 915.5181
1155.970, 914.9711
1156.452, 915.0706
1156.934, 916.2633
1157.416, 916.8939
1157.898, 916.4738
1158.381, 916.0858
1158.863, 916.4518
1159.345, 917.2194
1159.827, 917.2778
1160.309, 916.8888
1160.791, 916.7581
1161.273, 917.2626
1161.755, 917.8922
1162.238, 918.7108
1162.720, 919.4414
1163.202, 919.7234
1163.684, 919.7353
1164.166, 920.9545
1164.648, 922.9031
1165.130, 923.4098
1165.612, 919.2116
1166.094, 916.2445
1166.577, 917.0645
1167.059, 919.1790
1167.541, 920.2816
1168.023, 920.4800
1168.505, 920.7194
1168.987, 921.0369
1169.469, 921.5895
1169.951, 922.5748
1170.433, 923.6783
1170.916, 925.3746
1171.398, 926.7162
1171.880, 925.9645
1172.362, 923.2916
1172.844, 922.2270
1173.326, 923.0274
1173.808, 924.4088
1174.290, 926.5080
1174.773, 927.9006
1175.255, 927.2832
1175.737, 925.5548
1176.219, 924.4033
1176.701, 923.8316
1177.183, 922.4488
1177.665, 919.9846
1178.147, 918.2079
1178.630, 918.6174
1179.112, 920.1080
1179.594, 922.6878
1180.076, 925.6507
1180.558, 926.7091
1181.040, 925.7587
1181.522, 924.9668
1182.004, 924.7500
1182.486, 924.6628
1182.969, 924.0536
1183.451, 923.5967
1183.933, 923.9398
1184.415, 924.9876
1184.897, 926.1677
1185.379, 927.5609
1185.861, 928.1066
1186.343, 927.3702
1186.825, 926.3971
1187.308, 926.0608
1187.790, 926.1061
1188.272, 926.6848
1188.754, 927.7099
1189.236, 926.8748
1189.718, 923.9388
1190.200, 921.4890
1190.682, 920.1257
1191.165, 920.2516
1191.647, 923.9219
1192.129, 928.2728
1192.611, 929.7675
1193.093, 927.8451
1193.575, 927.9074
1194.057, 930.3970
1194.539, 931.3072
1195.021, 928.0681
1195.504, 924.6208
1195.986, 925.8440
1196.468, 929.2897
1196.950, 932.1588
1197.432, 934.3557
1197.914, 934.0219
1198.396, 930.6559
1198.878, 928.1534
1199.360, 928.8981
1199.843, 930.6187
1200.325, 930.5439
1200.807, 929.8031
1201.289, 930.2827
1201.771, 932.9249
1202.253, 932.8399
1202.735, 929.4646
1203.217, 927.1618
1203.700, 929.4285
1204.182, 932.7731
1204.664, 932.8231
1205.146, 931.3458
1205.628, 931.3753
1206.110, 934.1478
1206.592, 935.0368
1207.074, 933.7674
1207.557, 932.3275
1208.039, 932.0358
1208.521, 932.1656
1209.003, 931.6354
1209.485, 931.0146
1209.967, 931.4902
1210.449, 933.8074
1210.931, 935.1510
1211.413, 935.4219
1211.896, 935.3845
1212.378, 935.3381
1212.860, 935.4777
1213.342, 936.6038
1213.824, 937.9325
1214.306, 937.6368
1214.788, 934.8829
1215.270, 933.1193
1215.752, 932.4291
1216.235, 932.7081
1216.717, 934.8958
1217.199, 937.1324
1217.681, 937.1930
1218.163, 935.9595
1218.645, 935.5411
1219.127, 936.4421
1219.609, 936.4509
1220.092, 935.3817
1220.574, 934.3417
1221.056, 934.0023
1221.538, 934.2735
1222.020, 935.7090
1222.502, 937.5266
1222.984, 937.8211
1223.466, 935.9596
1223.948, 935.7235
1224.431, 937.4661
1224.913, 939.0707
1225.395, 938.3315
1225.877, 937.2070
1226.359, 937.4833
1226.841, 938.5925
1227.323, 938.9658
1227.805, 938.4493
1228.287, 938.2023
1228.770, 938.3073
1229.252, 938.7155
1229.734, 939.7333
1230.216, 940.6910
1230.698, 940.6501
1231.180, 940.3112
1231.662, 941.5254
1232.144, 944.5150
1232.627, 945.7903
1233.109, 945.0273
1233.591, 943.6996
1234.073, 942.1006
1234.555, 941.1362
1235.037, 941.6951
1235.519, 943.2119
1236.001, 944.9451
1236.484, 946.8897
1236.966, 947.4605
1237.448, 946.5234
1237.930, 945.3104
1238.412, 944.6276
1238.894, 943.9374
1239.376, 942.6430
1239.858, 941.3103
1240.340, 941.0665
1240.823, 941.7879
1241.305, 941.9069
1241.787, 941.3038
1242.269, 941.0161
1242.751, 942.2637
1243.233, 943.2887
1243.715, 943.1483
1244.197, 942.5275
1244.679, 942.3762
1245.162, 942.6771
1245.644, 943.4861
1246.126, 944.7712
1246.608, 945.8245
1247.090, 946.0552
1247.572, 946.2893
1248.054, 946.8717
1248.536, 947.4705
1249.019, 947.3141
1249.501, 946.7615
1249.983, 947.2332
1250.465, 948.7170
1250.947, 949.6856
1251.429, 948.7809
1251.911, 948.2161
1252.393, 948.3929
1252.875, 949.1672
1253.358, 950.6512
1253.840, 952.4954
1254.322, 954.3143
1254.804, 955.9155
1255.286, 955.9566
1255.768, 952.5919
1256.250, 950.2673
1256.732, 949.8518
1257.214, 950.2171
1257.697, 950.3130
1258.179, 950.0958
1258.661, 948.9743
1259.143, 947.2614
1259.625, 947.2750
1260.107, 950.0308
1260.589, 952.5123
1261.071, 954.4301
1261.554, 955.4280
1262.036, 954.6612
1262.518, 953.0941
1263.000, 951.4342
1263.482, 949.9459
1263.964, 949.5212
1264.446, 950.4052
1264.928, 951.2152
1265.411, 951.7457
1265.893, 952.3752
1266.375, 953.9724
1266.857, 955.3447
1267.339, 954.9379
1267.821, 953.5103
1268.303, 953.3868
1268.785, 954.6083
1269.267, 957.0258
1269.750, 960.6900
1270.232, 963.1347
1270.714, 961.2424
1271.196, 958.8816
1271.678, 958.9474
1272.160, 959.9916
1272.642, 959.5007
1273.124, 957.6305
1273.606, 956.5193
1274.089, 956.3342
1274.571, 956.6814
1275.053, 958.4072
1275.535, 959.1989
1276.017, 957.3990
1276.499, 955.2087
1276.981, 956.1342
1277.463, 959.1631
1277.946, 960.2859
1278.428, 959.4788
1278.910, 958.6367
1279.392, 958.6616
1279.874, 958.5898
1280.356, 958.0693
1280.838, 957.7259
1281.320, 958.7283
1281.802, 960.1916
1282.285, 959.8813
1282.767, 958.2181
1283.249, 957.4846
1283.731, 959.5965
1284.213, 959.7536
1284.695, 957.0658
1285.177, 954.4128
1285.659, 954.7772
1286.141, 956.4543
1286.624, 957.5514
1287.106, 958.1427
1287.588, 958.6176
1288.070, 959.0280
1288.552, 959.2850
1289.034, 959.3702
1289.516, 959.4957
1289.998, 959.9384
1290.481, 960.3679
1290.963, 960.4106
1291.445, 960.2980
1291.927, 960.2252
1292.409, 960.1074
1292.891, 962.1771
1293.373, 966.2289
1293.855, 968.5291
1294.338, 964.0792
1294.820, 960.6624
1295.302, 963.9691
1295.784, 968.2946
1296.266, 967.9901
1296.748, 964.0682
1297.230, 963.6055
1297.712, 966.0568
1298.194, 968.6221
1298.677, 969.8522
1299.159, 970.7987
1299.641, 971.4603
1300.123, 972.1758
1300.605, 973.5156
1301.087, 974.8611
1301.569, 974.4382
1302.051, 972.6440
1302.533, 970.4461
1303.016, 967.2633
##END=



