##NAMES=Dravite
##RRUFFID=R040088
##IDEAL CHEMISTRY=NaMg_3_Al_6_(Si_6_O_18_)(BO_3_)_3_(OH)_3_OH
##LOCALITY=Yinnietharra Station, Pilbara, Western Australia, Australia
##OWNER=RRUFF
##SOURCE=University of Arizona Mineral Museum
##DESCRIPTION=Brown short prismatic crystal
##STATUS=The identification of this mineral has been confirmed by X-ray diffraction and chemical analysis
##URL=rruff.info/R040088
##MEASURED CHEMISTRY=(Na_0.88_Ca_0.06_[box]_0.06_)(Mg_0.88_Al_0.10_Ti_0.04_Fe_0.02_)_3_Al_6.00_(B_1_O_3_)_3_Si_6.00_O_18_((OH)_0.98_F_0.02_)_4_
154.8954, 1117.065
155.3775, 1138.472
155.8597, 1139.538
156.3418, 1113.547
156.8239, 1089.276
157.3060, 1083.585
157.7881, 1092.190
158.2702, 1097.986
158.7524, 1093.179
159.2345, 1084.174
159.7166, 1081.924
160.1987, 1088.614
160.6808, 1095.516
161.1629, 1097.272
161.6451, 1094.519
162.1272, 1090.425
162.6093, 1084.486
163.0914, 1079.478
163.5735, 1079.504
164.0556, 1086.686
164.5378, 1093.645
165.0199, 1094.534
165.5020, 1089.838
165.9841, 1084.386
166.4662, 1078.125
166.9483, 1073.475
167.4305, 1073.912
167.9126, 1081.585
168.3947, 1089.153
168.8768, 1089.156
169.3589, 1081.557
169.8410, 1074.689
170.3232, 1071.414
170.8053, 1070.435
171.2874, 1071.165
171.7695, 1074.629
172.2516, 1076.467
172.7337, 1071.206
173.2159, 1058.222
173.6980, 1045.286
174.1801, 1030.662
174.6622, 1019.807
175.1443, 1020.361
175.6264, 1036.575
176.1086, 1054.729
176.5907, 1057.868
177.0728, 1043.731
177.5549, 1032.118
178.0370, 1032.352
178.5191, 1037.105
179.0013, 1040.673
179.4834, 1041.828
179.9655, 1041.846
180.4476, 1042.429
180.9297, 1043.850
181.4118, 1044.146
181.8940, 1039.959
182.3761, 1035.721
182.8582, 1035.200
183.3403, 1039.572
183.8224, 1046.398
184.3046, 1052.753
184.7867, 1058.376
185.2688, 1064.917
185.7509, 1075.704
186.2330, 1086.124
186.7151, 1091.701
187.1973, 1090.767
187.6794, 1088.720
188.1615, 1094.242
188.6436, 1110.030
189.1257, 1119.934
189.6078, 1108.707
190.0900, 1095.673
190.5721, 1095.226
191.0542, 1111.397
191.5363, 1135.375
192.0184, 1159.556
192.5005, 1186.029
192.9827, 1202.167
193.4648, 1193.922
193.9469, 1180.233
194.4290, 1173.446
194.9111, 1176.445
195.3932, 1184.540
195.8754, 1191.812
196.3575, 1197.438
196.8396, 1206.726
197.3217, 1223.237
197.8038, 1242.622
198.2859, 1262.883
198.7681, 1283.738
199.2502, 1304.516
199.7323, 1323.280
200.2144, 1338.730
200.6965, 1359.540
201.1786, 1392.268
201.6608, 1428.209
202.1429, 1462.389
202.6250, 1494.064
203.1071, 1524.633
203.5892, 1553.115
204.0713, 1578.018
204.5535, 1612.515
205.0356, 1665.398
205.5177, 1724.723
205.9998, 1784.586
206.4819, 1844.301
206.9640, 1904.492
207.4462, 1965.915
207.9283, 2028.600
208.4104, 2091.986
208.8925, 2158.814
209.3746, 2224.060
209.8567, 2285.940
210.3388, 2343.890
210.8210, 2394.685
211.3031, 2433.040
211.7852, 2458.647
212.2673, 2484.574
212.7494, 2521.825
213.2315, 2549.875
213.7137, 2554.405
214.1958, 2536.968
214.6779, 2511.881
215.1600, 2490.836
215.6421, 2473.620
216.1242, 2451.852
216.6064, 2427.080
217.0885, 2394.630
217.5706, 2349.101
218.0527, 2292.924
218.5348, 2236.384
219.0169, 2188.141
219.4991, 2146.984
219.9812, 2101.244
220.4633, 2043.099
220.9454, 1989.832
221.4275, 1952.184
221.9096, 1927.021
222.3918, 1904.583
222.8739, 1876.299
223.3560, 1844.739
223.8381, 1823.550
224.3202, 1818.086
224.8023, 1814.882
225.2845, 1806.595
225.7666, 1794.539
226.2487, 1781.542
226.7308, 1767.582
227.2129, 1753.899
227.6950, 1743.407
228.1772, 1735.062
228.6593, 1732.533
229.1414, 1741.847
229.6235, 1757.463
230.1056, 1769.628
230.5877, 1771.295
231.0699, 1768.706
231.5520, 1774.335
232.0341, 1790.292
232.5162, 1808.014
232.9983, 1820.809
233.4804, 1833.047
233.9626, 1851.493
234.4447, 1881.039
234.9268, 1914.722
235.4089, 1942.097
235.8910, 1961.776
236.3731, 1984.305
236.8553, 2018.266
237.3374, 2057.046
237.8195, 2093.342
238.3016, 2126.969
238.7837, 2155.577
239.2658, 2172.897
239.7480, 2178.832
240.2301, 2190.534
240.7122, 2222.301
241.1943, 2259.232
241.6764, 2280.870
242.1585, 2283.538
242.6407, 2277.191
243.1228, 2267.963
243.6049, 2255.802
244.0870, 2240.581
244.5691, 2223.413
245.0512, 2201.454
245.5334, 2170.988
246.0155, 2130.647
246.4976, 2089.052
246.9797, 2050.416
247.4618, 2014.226
247.9439, 1978.047
248.4261, 1941.106
248.9082, 1904.477
249.3903, 1870.484
249.8724, 1839.896
250.3545, 1805.342
250.8366, 1759.917
251.3188, 1710.049
251.8009, 1666.476
252.2830, 1631.667
252.7651, 1602.433
253.2472, 1576.866
253.7293, 1554.978
254.2115, 1531.468
254.6936, 1502.359
255.1757, 1472.523
255.6578, 1447.366
256.1399, 1427.679
256.6220, 1411.650
257.1042, 1398.508
257.5863, 1388.444
258.0684, 1377.736
258.5505, 1363.728
259.0326, 1351.008
259.5147, 1345.346
259.9969, 1345.659
260.4790, 1342.734
260.9611, 1328.261
261.4432, 1303.628
261.9253, 1288.397
262.4074, 1288.893
262.8896, 1291.451
263.3717, 1291.293
263.8538, 1288.337
264.3359, 1282.411
264.8180, 1272.611
265.3001, 1260.650
265.7823, 1255.471
266.2644, 1264.493
266.7465, 1270.481
267.2286, 1268.031
267.7107, 1260.584
268.1928, 1252.829
268.6750, 1246.676
269.1571, 1242.166
269.6392, 1239.518
270.1213, 1243.627
270.6034, 1243.350
271.0855, 1235.466
271.5677, 1224.756
272.0498, 1215.127
272.5319, 1207.877
273.0140, 1202.859
273.4961, 1200.618
273.9782, 1205.638
274.4604, 1202.704
274.9425, 1183.379
275.4246, 1163.761
275.9067, 1153.992
276.3888, 1154.803
276.8709, 1161.175
277.3531, 1169.019
277.8352, 1179.451
278.3173, 1184.042
278.7994, 1179.737
279.2815, 1172.679
279.7636, 1163.232
280.2458, 1152.695
280.7279, 1143.299
281.2100, 1136.863
281.6921, 1133.069
282.1742, 1128.765
282.6563, 1122.346
283.1385, 1117.520
283.6206, 1117.564
284.1027, 1119.165
284.5848, 1117.066
285.0669, 1107.947
285.5490, 1095.422
286.0312, 1089.013
286.5133, 1091.392
286.9954, 1093.725
287.4775, 1092.827
287.9596, 1091.214
288.4417, 1090.933
288.9239, 1092.547
289.4060, 1095.793
289.8881, 1102.469
290.3702, 1113.595
290.8523, 1117.626
291.3344, 1105.271
291.8166, 1089.845
292.2987, 1080.916
292.7808, 1079.181
293.2629, 1081.193
293.7450, 1086.859
294.2271, 1094.918
294.7093, 1098.376
295.1914, 1093.484
295.6735, 1088.470
296.1556, 1090.325
296.6377, 1098.011
297.1198, 1107.385
297.6020, 1118.698
298.0841, 1130.102
298.5662, 1140.155
299.0483, 1149.546
299.5304, 1152.303
300.0125, 1139.203
300.4947, 1115.383
300.9768, 1099.914
301.4589, 1100.508
301.9410, 1105.593
302.4231, 1106.119
302.9052, 1103.103
303.3874, 1102.646
303.8695, 1108.298
304.3516, 1118.511
304.8337, 1128.210
305.3158, 1138.742
305.7979, 1147.026
306.2801, 1150.779
306.7622, 1151.960
307.2443, 1153.389
307.7264, 1155.901
308.2085, 1160.211
308.6906, 1167.810
309.1728, 1181.855
309.6549, 1193.002
310.1370, 1197.491
310.6191, 1201.239
311.1012, 1212.049
311.5833, 1229.582
312.0655, 1243.837
312.5476, 1242.949
313.0297, 1223.018
313.5118, 1210.676
313.9939, 1211.974
314.4760, 1213.600
314.9582, 1209.407
315.4403, 1200.840
315.9224, 1192.887
316.4045, 1189.257
316.8866, 1188.755
317.3687, 1183.504
317.8509, 1168.905
318.3330, 1155.237
318.8151, 1141.471
319.2972, 1130.733
319.7793, 1128.414
320.2614, 1136.952
320.7436, 1148.812
321.2257, 1148.783
321.7078, 1131.430
322.1899, 1120.228
322.6720, 1124.391
323.1541, 1132.337
323.6363, 1136.982
324.1184, 1137.550
324.6005, 1138.041
325.0826, 1141.581
325.5647, 1148.103
326.0468, 1157.062
326.5290, 1171.232
327.0111, 1183.665
327.4932, 1187.359
327.9753, 1185.293
328.4574, 1186.825
328.9395, 1200.431
329.4217, 1218.370
329.9038, 1226.408
330.3859, 1223.072
330.8680, 1221.342
331.3501, 1230.866
331.8322, 1247.008
332.3144, 1258.179
332.7965, 1260.153
333.2786, 1261.450
333.7607, 1268.435
334.2428, 1279.257
334.7249, 1287.240
335.2070, 1288.994
335.6891, 1288.559
336.1713, 1294.938
336.6534, 1312.208
337.1355, 1323.917
337.6176, 1323.306
338.0997, 1317.783
338.5818, 1313.201
339.0640, 1311.181
339.5461, 1314.282
340.0282, 1326.243
340.5103, 1349.387
340.9924, 1366.885
341.4745, 1377.313
341.9567, 1384.473
342.4388, 1389.161
342.9209, 1391.950
343.4030, 1393.588
343.8851, 1394.475
344.3672, 1394.705
344.8494, 1394.486
345.3315, 1390.093
345.8136, 1390.814
346.2957, 1402.795
346.7778, 1417.647
347.2599, 1426.422
347.7421, 1426.546
348.2242, 1423.526
348.7063, 1424.863
349.1884, 1431.126
349.6705, 1438.943
350.1526, 1447.388
350.6348, 1458.093
351.1169, 1472.363
351.5990, 1489.921
352.0811, 1509.021
352.5632, 1528.192
353.0453, 1548.015
353.5275, 1571.430
354.0096, 1600.786
354.4917, 1627.616
354.9738, 1638.891
355.4559, 1645.136
355.9380, 1664.513
356.4202, 1707.078
356.9023, 1756.277
357.3844, 1795.770
357.8665, 1827.778
358.3486, 1866.589
358.8307, 1918.247
359.3129, 1979.029
359.7950, 2043.305
360.2771, 2110.691
360.7592, 2180.542
361.2413, 2251.310
361.7234, 2324.804
362.2056, 2406.121
362.6877, 2495.763
363.1698, 2582.816
363.6519, 2654.635
364.1340, 2708.565
364.6161, 2771.131
365.0983, 2852.162
365.5804, 2931.110
366.0625, 3005.289
366.5446, 3070.135
367.0267, 3116.938
367.5089, 3140.700
367.9910, 3145.232
368.4731, 3143.084
368.9552, 3136.935
369.4373, 3118.534
369.9194, 3089.542
370.4016, 3048.302
370.8837, 2988.959
371.3658, 2912.227
371.8479, 2831.399
372.3300, 2764.615
372.8121, 2713.392
373.2943, 2646.500
373.7764, 2552.231
374.2585, 2454.416
374.7406, 2361.216
375.2227, 2274.536
375.7048, 2198.074
376.1870, 2137.310
376.6691, 2085.542
377.1512, 2033.050
377.6333, 1979.704
378.1154, 1925.394
378.5975, 1866.177
379.0797, 1808.405
379.5618, 1763.370
380.0439, 1734.402
380.5260, 1709.537
381.0081, 1682.411
381.4902, 1655.369
381.9724, 1633.457
382.4545, 1618.039
382.9366, 1605.013
383.4187, 1590.228
383.9008, 1573.607
384.3829, 1553.741
384.8651, 1527.960
385.3472, 1501.383
385.8293, 1473.810
386.3114, 1447.610
386.7935, 1429.377
387.2756, 1423.929
387.7578, 1427.570
388.2399, 1424.701
388.7220, 1408.368
389.2041, 1395.225
389.6862, 1387.470
390.1683, 1383.054
390.6505, 1381.745
391.1326, 1382.829
391.6147, 1382.469
392.0968, 1374.744
392.5789, 1358.789
393.0610, 1347.133
393.5432, 1341.125
394.0253, 1338.603
394.5074, 1340.470
394.9895, 1344.689
395.4716, 1346.926
395.9537, 1346.556
396.4359, 1342.040
396.9180, 1326.929
397.4001, 1300.598
397.8822, 1283.277
398.3643, 1286.225
398.8464, 1300.751
399.3286, 1312.433
399.8107, 1322.281
400.2928, 1326.039
400.7749, 1317.623
401.2570, 1303.810
401.7391, 1294.871
402.2213, 1292.482
402.7034, 1291.200
403.1855, 1285.380
403.6676, 1274.421
404.1497, 1267.744
404.6318, 1266.146
405.1140, 1267.262
405.5961, 1273.559
406.0782, 1281.312
406.5603, 1284.049
407.0424, 1278.728
407.5245, 1268.298
408.0067, 1259.415
408.4888, 1253.393
408.9709, 1245.983
409.4530, 1235.648
409.9351, 1224.958
410.4172, 1214.698
410.8994, 1205.395
411.3815, 1198.377
411.8636, 1195.908
412.3457, 1196.675
412.8278, 1194.958
413.3099, 1190.340
413.7921, 1184.313
414.2742, 1175.507
414.7563, 1166.402
415.2384, 1161.026
415.7205, 1162.476
416.2026, 1162.564
416.6848, 1152.468
417.1669, 1136.156
417.6490, 1125.719
418.1311, 1124.827
418.6132, 1128.106
419.0953, 1129.875
419.5775, 1130.226
420.0596, 1127.504
420.5417, 1119.339
421.0238, 1110.090
421.5059, 1101.226
421.9880, 1093.530
422.4702, 1088.582
422.9523, 1087.475
423.4344, 1089.218
423.9165, 1090.478
424.3986, 1090.149
424.8807, 1091.135
425.3629, 1095.261
425.8450, 1099.513
426.3271, 1101.314
426.8092, 1100.507
427.2913, 1099.132
427.7734, 1101.188
428.2556, 1105.562
428.7377, 1098.530
429.2198, 1070.329
429.7019, 1049.303
430.1840, 1057.616
430.6661, 1079.949
431.1483, 1093.798
431.6304, 1091.384
432.1125, 1084.255
432.5946, 1082.163
433.0767, 1083.399
433.5588, 1080.733
434.0410, 1070.958
434.5231, 1060.689
435.0052, 1058.866
435.4873, 1067.003
435.9694, 1073.708
436.4515, 1078.416
436.9337, 1081.502
437.4158, 1084.004
437.8979, 1085.156
438.3800, 1082.048
438.8621, 1072.505
439.3442, 1059.478
439.8264, 1052.325
440.3085, 1054.203
440.7906, 1056.889
441.2727, 1058.876
441.7548, 1062.016
442.2369, 1069.753
442.7191, 1081.038
443.2012, 1089.384
443.6833, 1088.188
444.1654, 1079.200
444.6475, 1071.774
445.1296, 1066.711
445.6118, 1061.166
446.0939, 1052.343
446.5760, 1042.623
447.0581, 1034.655
447.5402, 1027.469
448.0223, 1025.480
448.5045, 1035.266
448.9866, 1051.829
449.4687, 1064.779
449.9508, 1071.772
450.4329, 1074.097
450.9150, 1072.403
451.3972, 1066.174
451.8793, 1060.463
452.3614, 1052.673
452.8435, 1048.069
453.3256, 1052.962
453.8077, 1061.785
454.2899, 1064.089
454.7720, 1055.206
455.2541, 1041.313
455.7362, 1033.969
456.2183, 1034.845
456.7004, 1037.250
457.1826, 1045.040
457.6647, 1050.601
458.1468, 1047.288
458.6289, 1038.115
459.1110, 1032.764
459.5931, 1038.787
460.0753, 1050.064
460.5574, 1055.747
461.0395, 1055.677
461.5216, 1053.213
462.0037, 1046.849
462.4858, 1041.388
462.9680, 1046.066
463.4501, 1063.542
463.9322, 1077.277
464.4143, 1082.188
464.8964, 1081.426
465.3785, 1075.579
465.8607, 1066.136
466.3428, 1059.197
466.8249, 1059.420
467.3070, 1065.732
467.7891, 1071.409
468.2712, 1075.319
468.7534, 1080.030
469.2355, 1087.276
469.7176, 1094.479
470.1997, 1099.805
470.6818, 1102.694
471.1639, 1103.086
471.6461, 1098.874
472.1282, 1090.959
472.6103, 1089.062
473.0924, 1095.146
473.5745, 1103.009
474.0566, 1110.816
474.5388, 1117.946
475.0209, 1123.259
475.5030, 1126.341
475.9851, 1128.163
476.4672, 1130.152
476.9493, 1131.184
477.4315, 1126.868
477.9136, 1115.996
478.3957, 1107.375
478.8778, 1110.562
479.3599, 1126.475
479.8420, 1140.261
480.3242, 1152.119
480.8063, 1162.006
481.2884, 1169.154
481.7705, 1174.513
482.2526, 1179.340
482.7347, 1184.062
483.2169, 1188.221
483.6990, 1190.536
484.1811, 1190.475
484.6632, 1193.049
485.1453, 1200.691
485.6274, 1208.204
486.1096, 1213.191
486.5917, 1216.048
487.0738, 1217.342
487.5559, 1215.778
488.0380, 1214.972
488.5201, 1219.961
489.0023, 1229.096
489.4844, 1235.496
489.9665, 1237.001
490.4486, 1235.925
490.9307, 1234.955
491.4128, 1234.220
491.8950, 1232.685
492.3771, 1228.633
492.8592, 1225.486
493.3413, 1226.992
493.8234, 1230.286
494.3055, 1228.872
494.7877, 1219.685
495.2698, 1208.154
495.7519, 1204.826
496.2340, 1212.078
496.7161, 1218.288
497.1982, 1227.062
497.6804, 1229.814
498.1625, 1215.683
498.6446, 1191.695
499.1267, 1177.651
499.6088, 1188.684
500.0909, 1205.422
500.5730, 1204.150
501.0551, 1187.609
501.5373, 1171.126
502.0194, 1158.591
502.5015, 1151.032
502.9836, 1151.749
503.4657, 1164.338
503.9478, 1168.298
504.4300, 1156.588
504.9121, 1142.365
505.3942, 1130.981
505.8763, 1123.029
506.3584, 1118.612
506.8405, 1117.924
507.3227, 1119.425
507.8048, 1120.576
508.2869, 1121.894
508.7690, 1120.818
509.2511, 1115.205
509.7332, 1108.993
510.2154, 1103.798
510.6975, 1099.708
511.1796, 1096.801
511.6617, 1095.710
512.1439, 1095.114
512.6260, 1093.878
513.1081, 1091.943
513.5902, 1088.216
514.0723, 1081.510
514.5544, 1075.966
515.0366, 1078.510
515.5187, 1092.854
516.0008, 1098.124
516.4829, 1086.123
516.9650, 1073.443
517.4471, 1067.922
517.9293, 1067.629
518.4114, 1068.793
518.8935, 1069.799
519.3756, 1069.756
519.8577, 1066.811
520.3398, 1060.508
520.8220, 1054.027
521.3041, 1043.407
521.7862, 1038.284
522.2683, 1048.825
522.7504, 1068.473
523.2325, 1080.913
523.7147, 1078.083
524.1968, 1071.153
524.6789, 1070.220
525.1610, 1072.372
525.6431, 1067.542
526.1252, 1052.406
526.6074, 1037.867
527.0895, 1037.409
527.5716, 1053.485
528.0537, 1063.031
528.5358, 1059.063
529.0179, 1057.423
529.5001, 1068.115
529.9822, 1081.878
530.4643, 1085.068
530.9464, 1073.670
531.4285, 1058.259
531.9106, 1051.725
532.3928, 1053.417
532.8749, 1050.975
533.3570, 1039.726
533.8391, 1033.862
534.3212, 1049.652
534.8033, 1075.345
535.2855, 1086.245
535.7676, 1072.403
536.2497, 1057.967
536.7318, 1056.349
537.2139, 1059.880
537.6960, 1056.833
538.1782, 1045.940
538.6603, 1035.507
539.1424, 1032.963
539.6245, 1037.361
540.1066, 1038.887
540.5887, 1034.340
541.0709, 1031.587
541.5530, 1033.447
542.0351, 1036.374
542.5172, 1037.946
542.9993, 1037.612
543.4814, 1035.195
543.9636, 1029.567
544.4457, 1022.022
544.9278, 1014.256
545.4099, 1006.135
545.8920, 1002.690
546.3741, 1008.029
546.8563, 1017.518
547.3384, 1021.629
547.8205, 1019.613
548.3026, 1015.271
548.7847, 1005.042
549.2668, 995.9911
549.7490, 994.7782
550.2311, 999.1096
550.7132, 1002.321
551.1953, 1000.785
551.6774, 995.4186
552.1595, 986.2864
552.6417, 971.0872
553.1238, 964.6472
553.6059, 976.2845
554.0880, 988.9555
554.5701, 989.7259
555.0522, 981.8956
555.5344, 976.5433
556.0165, 978.9610
556.4986, 982.7239
556.9807, 982.4850
557.4628, 979.9351
557.9449, 979.7731
558.4271, 983.3166
558.9092, 986.1620
559.3913, 982.9231
559.8734, 972.9590
560.3555, 965.3812
560.8376, 958.8618
561.3198, 956.4884
561.8019, 963.4756
562.2840, 972.6376
562.7661, 975.9714
563.2482, 971.7591
563.7303, 964.3621
564.2125, 956.3422
564.6946, 948.1718
565.1767, 940.7757
565.6588, 933.9929
566.1409, 930.8428
566.6230, 935.0019
567.1052, 942.5460
567.5873, 942.0704
568.0694, 927.2594
568.5515, 920.0272
569.0336, 930.0436
569.5157, 943.1461
569.9979, 948.8330
570.4800, 948.0759
570.9621, 947.1230
571.4442, 949.7628
571.9263, 953.7375
572.4084, 953.7222
572.8906, 948.9861
573.3727, 945.1312
573.8548, 942.7081
574.3369, 941.8524
574.8190, 943.3519
575.3011, 946.5423
575.7833, 949.1777
576.2654, 951.0086
576.7475, 951.8795
577.2296, 951.5843
577.7117, 950.3109
578.1938, 947.8943
578.6760, 944.4462
579.1581, 941.6561
579.6402, 941.6820
580.1223, 944.3804
580.6044, 943.6523
581.0865, 935.7504
581.5686, 930.2081
582.0507, 930.3620
582.5328, 932.7733
583.0150, 934.6674
583.4971, 935.6006
583.9792, 935.7612
584.4613, 933.4494
584.9434, 931.3568
585.4255, 935.7333
585.9077, 945.4491
586.3898, 950.0982
586.8719, 944.1609
587.3540, 933.4029
587.8361, 928.3661
588.3182, 931.1992
588.8004, 933.8669
589.2825, 936.6488
589.7646, 938.9797
590.2467, 941.4761
590.7288, 943.1061
591.2109, 941.5345
591.6931, 935.6202
592.1752, 929.6122
592.6573, 928.6243
593.1394, 931.7744
593.6215, 934.8815
594.1036, 937.4365
594.5858, 940.6852
595.0679, 946.2600
595.5500, 952.9813
596.0321, 956.1830
596.5142, 952.9254
596.9963, 951.4186
597.4785, 955.6851
597.9606, 959.9700
598.4427, 958.6613
598.9248, 952.8606
599.4069, 947.8339
599.8890, 946.9138
600.3712, 948.4731
600.8533, 949.2222
601.3354, 949.1017
601.8175, 948.9327
602.2996, 948.1706
602.7817, 948.5405
603.2639, 952.2776
603.7460, 958.6743
604.2281, 964.4941
604.7102, 969.6287
605.1923, 973.8957
605.6744, 977.4459
606.1566, 979.9602
606.6387, 980.8782
607.1208, 980.1893
607.6029, 978.3423
608.0850, 975.2939
608.5671, 971.6397
609.0493, 970.6703
609.5314, 973.0370
610.0135, 976.1063
610.4956, 980.3572
610.9777, 983.9879
611.4598, 984.5501
611.9420, 982.3294
612.4241, 981.8057
612.9062, 985.5408
613.3883, 990.2020
613.8704, 994.9767
614.3525, 998.6058
614.8347, 997.7451
615.3168, 991.6207
615.7989, 984.1970
616.2810, 979.9493
616.7631, 978.8676
617.2452, 980.0538
617.7274, 983.2491
618.2095, 989.2357
618.6916, 1001.768
619.1737, 1015.066
619.6558, 1023.991
620.1379, 1027.980
620.6201, 1027.938
621.1022, 1019.566
621.5843, 1010.831
622.0664, 1011.517
622.5485, 1019.322
623.0306, 1024.999
623.5128, 1024.656
623.9949, 1023.410
624.4770, 1029.678
624.9591, 1045.050
625.4412, 1057.937
625.9233, 1068.014
626.4055, 1075.898
626.8876, 1078.672
627.3697, 1081.063
627.8518, 1089.379
628.3339, 1105.038
628.8160, 1122.404
629.2982, 1140.437
629.7803, 1157.180
630.2624, 1170.407
630.7445, 1179.913
631.2266, 1184.936
631.7087, 1184.789
632.1909, 1182.361
632.6730, 1183.654
633.1551, 1191.086
633.6372, 1193.594
634.1193, 1189.587
634.6014, 1182.171
635.0836, 1169.368
635.5657, 1155.112
636.0478, 1145.272
636.5299, 1141.561
637.0120, 1139.530
637.4941, 1136.835
637.9763, 1133.838
638.4584, 1130.746
638.9405, 1127.760
639.4226, 1126.138
639.9047, 1126.791
640.3868, 1128.096
640.8690, 1126.270
641.3511, 1119.495
641.8332, 1114.832
642.3153, 1112.959
642.7974, 1112.599
643.2795, 1113.012
643.7617, 1114.682
644.2438, 1119.433
644.7259, 1128.924
645.2080, 1135.472
645.6901, 1128.783
646.1722, 1118.743
646.6544, 1121.260
647.1365, 1135.921
647.6186, 1152.169
648.1007, 1164.275
648.5828, 1173.682
649.0649, 1184.103
649.5471, 1197.439
650.0292, 1206.079
650.5113, 1205.039
650.9934, 1204.839
651.4755, 1212.632
651.9576, 1223.254
652.4398, 1227.645
652.9219, 1222.572
653.4040, 1216.818
653.8861, 1215.984
654.3682, 1217.245
654.8503, 1216.546
655.3325, 1214.088
655.8146, 1212.872
656.2967, 1214.627
656.7788, 1217.728
657.2609, 1219.107
657.7430, 1218.953
658.2252, 1215.907
658.7073, 1204.906
659.1894, 1197.744
659.6715, 1201.464
660.1536, 1211.536
660.6357, 1221.141
661.1179, 1229.048
661.6000, 1237.311
662.0821, 1248.358
662.5642, 1259.312
663.0463, 1264.656
663.5284, 1266.718
664.0106, 1275.074
664.4927, 1294.508
664.9748, 1318.471
665.4569, 1334.327
665.9390, 1340.439
666.4211, 1351.421
666.9033, 1369.513
667.3854, 1388.785
667.8675, 1407.672
668.3496, 1425.341
668.8317, 1440.353
669.3138, 1452.157
669.7960, 1462.992
670.2781, 1476.256
670.7602, 1486.428
671.2423, 1485.803
671.7244, 1478.856
672.2065, 1476.036
672.6887, 1481.563
673.1708, 1491.684
673.6529, 1503.631
674.1350, 1517.084
674.6171, 1522.487
675.0992, 1518.771
675.5814, 1510.361
676.0635, 1497.224
676.5456, 1481.957
677.0277, 1469.954
677.5098, 1462.668
677.9919, 1449.788
678.4741, 1424.278
678.9562, 1398.768
679.4383, 1376.366
679.9204, 1359.792
680.4025, 1355.659
680.8846, 1364.547
681.3668, 1374.024
681.8489, 1370.211
682.3310, 1357.068
682.8131, 1348.246
683.2952, 1343.979
683.7773, 1339.344
684.2595, 1332.488
684.7416, 1324.578
685.2237, 1316.767
685.7058, 1308.868
686.1879, 1302.782
686.6700, 1298.279
687.1522, 1295.726
687.6343, 1296.180
688.1164, 1298.035
688.5985, 1300.025
689.0806, 1301.785
689.5627, 1302.836
690.0449, 1300.412
690.5270, 1299.043
691.0091, 1307.548
691.4912, 1323.424
691.9733, 1335.105
692.4554, 1339.369
692.9376, 1342.870
693.4197, 1352.596
693.9018, 1367.911
694.3839, 1378.996
694.8660, 1377.204
695.3481, 1386.298
695.8303, 1421.170
696.3124, 1457.942
696.7945, 1480.471
697.2766, 1490.312
697.7587, 1497.231
698.2408, 1503.253
698.7230, 1509.099
699.2051, 1516.706
699.6872, 1523.840
700.1693, 1527.123
700.6514, 1526.124
701.1335, 1521.884
701.6157, 1514.817
702.0978, 1505.987
702.5799, 1498.770
703.0620, 1494.004
703.5441, 1485.753
704.0262, 1473.620
704.5084, 1457.448
704.9905, 1435.034
705.4726, 1408.591
705.9547, 1383.671
706.4368, 1361.150
706.9189, 1338.400
707.4011, 1314.648
707.8832, 1290.424
708.3653, 1264.879
708.8474, 1239.460
709.3295, 1217.556
709.8116, 1200.518
710.2938, 1185.067
710.7759, 1167.577
711.2580, 1148.341
711.7401, 1127.093
712.2222, 1103.522
712.7043, 1085.466
713.1865, 1077.886
713.6686, 1074.760
714.1507, 1065.062
714.6328, 1044.780
715.1149, 1035.169
715.5970, 1051.794
716.0792, 1060.024
716.5613, 1041.333
717.0434, 1014.732
717.5255, 1001.332
718.0076, 1003.624
718.4897, 1007.515
718.9719, 1006.326
719.4540, 1002.141
719.9361, 995.9356
720.4182, 988.6062
720.9003, 982.5865
721.3824, 978.3918
721.8646, 973.9559
722.3467, 966.9388
722.8288, 958.2770
723.3109, 953.5381
723.7930, 954.1771
724.2751, 953.2267
724.7573, 946.6944
725.2394, 941.5765
725.7215, 947.2230
726.2036, 959.5713
726.6857, 964.0230
727.1678, 952.7936
727.6500, 943.4008
728.1321, 944.5443
728.6142, 946.5491
729.0963, 938.3622
729.5784, 923.5367
730.0605, 914.1271
730.5427, 916.5249
731.0248, 922.6347
731.5069, 923.0516
731.9890, 918.6044
732.4711, 911.2162
732.9532, 900.9482
733.4354, 892.4869
733.9175, 887.9496
734.3996, 887.1521
734.8817, 890.1428
735.3638, 898.1536
735.8459, 905.1068
736.3281, 912.3071
736.8102, 916.7573
737.2923, 915.4445
737.7744, 912.3336
738.2565, 912.0219
738.7386, 914.9294
739.2208, 917.4568
739.7029, 917.7238
740.1850, 917.4150
740.6671, 917.5905
741.1492, 918.2054
741.6313, 921.8538
742.1135, 927.4639
742.5956, 924.3497
743.0777, 899.6615
743.5598, 865.1588
744.0419, 858.5344
744.5240, 881.2742
745.0062, 901.1463
745.4883, 912.1155
745.9704, 920.0557
746.4525, 930.0221
746.9346, 940.6647
747.4167, 945.4833
747.8989, 937.0781
748.3810, 934.3777
748.8631, 942.2269
749.3452, 951.6522
749.8273, 959.0818
750.3094, 964.0376
750.7916, 964.6746
751.2737, 959.5164
751.7558, 959.1062
752.2379, 976.8754
752.7200, 999.9436
753.2021, 1010.026
753.6843, 1009.298
754.1664, 1008.418
754.6485, 1011.363
755.1306, 1016.061
755.6127, 1020.266
756.0948, 1023.903
756.5770, 1026.604
757.0591, 1028.751
757.5412, 1028.202
758.0233, 1023.294
758.5054, 1016.913
758.9875, 1012.020
759.4697, 1008.488
759.9518, 1003.679
760.4339, 997.3577
760.9160, 990.0350
761.3981, 980.2127
761.8802, 970.7919
762.3624, 965.1429
762.8445, 961.7994
763.3266, 955.9557
763.8087, 945.0084
764.2908, 933.3951
764.7729, 925.4313
765.2551, 919.4706
765.7372, 912.4979
766.2193, 904.4861
766.7014, 895.8192
767.1835, 886.4842
767.6656, 880.5134
768.1478, 886.6349
768.6299, 905.4422
769.1120, 912.9756
769.5941, 905.2170
770.0762, 898.1130
770.5583, 896.9458
771.0405, 899.0261
771.5226, 902.0798
772.0047, 906.1353
772.4868, 907.8811
772.9689, 906.2895
773.4510, 903.5071
773.9332, 901.2321
774.4153, 897.1420
774.8974, 885.5013
775.3795, 869.8048
775.8616, 862.1752
776.3438, 870.0999
776.8259, 882.5675
777.3080, 891.2509
777.7901, 896.7337
778.2722, 899.4462
778.7543, 899.8566
779.2365, 899.3167
779.7186, 898.4309
780.2007, 898.0800
780.6828, 900.9056
781.1649, 907.1092
781.6470, 906.6049
782.1292, 897.2233
782.6113, 888.8594
783.0934, 884.8437
783.5755, 883.9552
784.0576, 885.3333
784.5397, 889.2109
785.0219, 891.7059
785.5040, 890.1772
785.9861, 890.7804
786.4682, 898.3073
786.9503, 905.6122
787.4324, 905.5384
787.9146, 899.8472
788.3967, 896.1017
788.8788, 897.6500
789.3609, 900.7831
789.8430, 903.6437
790.3251, 905.9597
790.8073, 907.1170
791.2894, 907.3589
791.7715, 907.4572
792.2536, 907.7625
792.7357, 908.7608
793.2178, 913.2811
793.7000, 919.9856
794.1821, 915.4585
794.6642, 898.0463
795.1463, 886.8806
795.6284, 890.3431
796.1105, 897.2897
796.5927, 893.9980
797.0748, 880.7584
797.5569, 875.4935
798.0390, 884.1197
798.5211, 891.6872
799.0032, 899.0972
799.4854, 902.5699
799.9675, 895.3178
800.4496, 882.5356
800.9317, 877.6992
801.4138, 885.2562
801.8959, 896.8126
802.3781, 912.2673
802.8602, 927.2624
803.3423, 939.0231
803.8244, 947.0005
804.3065, 948.9534
804.7886, 944.7116
805.2708, 942.5229
805.7529, 953.4709
806.2350, 970.8002
806.7171, 979.1946
807.1992, 980.0158
807.6813, 979.7391
808.1635, 979.9360
808.6456, 985.0081
809.1277, 1000.428
809.6098, 1021.979
810.0919, 1030.370
810.5740, 1020.905
811.0562, 1016.360
811.5383, 1019.587
812.0204, 1027.170
812.5025, 1041.075
812.9846, 1056.525
813.4667, 1061.268
813.9489, 1050.128
814.4310, 1046.895
814.9131, 1063.452
815.3952, 1076.801
815.8773, 1075.981
816.3594, 1067.495
816.8416, 1056.665
817.3237, 1045.593
817.8058, 1039.677
818.2879, 1046.628
818.7700, 1053.763
819.2521, 1050.334
819.7343, 1040.349
820.2164, 1028.483
820.6985, 1016.331
821.1806, 1006.049
821.6627, 998.7295
822.1448, 994.4722
822.6270, 996.3393
823.1091, 1002.091
823.5912, 997.0864
824.0733, 980.4162
824.5554, 966.5402
825.0375, 961.7841
825.5197, 960.2203
826.0018, 954.0256
826.4839, 943.2737
826.9660, 935.1467
827.4481, 930.7707
827.9302, 926.7010
828.4124, 923.9855
828.8945, 919.5601
829.3766, 908.9588
829.8587, 894.7956
830.3408, 884.9335
830.8229, 881.0169
831.3051, 879.0085
831.7872, 878.1002
832.2693, 878.9685
832.7514, 885.8336
833.2335, 893.0923
833.7156, 890.7209
834.1978, 877.0291
834.6799, 864.4041
835.1620, 860.5682
835.6441, 861.1047
836.1262, 864.0193
836.6083, 867.3849
837.0905, 867.9038
837.5726, 865.0510
838.0547, 858.9992
838.5368, 848.9185
839.0189, 839.8757
839.5010, 844.5552
839.9832, 859.2861
840.4653, 859.8767
840.9474, 844.3445
841.4295, 833.3209
841.9116, 836.8584
842.3937, 847.0706
842.8759, 853.0955
843.3580, 854.9301
843.8401, 853.5938
844.3222, 848.7089
844.8043, 841.2071
845.2864, 828.0478
845.7686, 816.4672
846.2507, 813.2318
846.7328, 816.8867
847.2149, 820.0198
847.6970, 825.0920
848.1791, 825.2992
848.6613, 815.4256
849.1434, 805.4584
849.6255, 800.1893
850.1076, 798.3297
850.5897, 798.5002
851.0718, 800.3286
851.5540, 800.4073
852.0361, 795.2852
852.5182, 789.8646
853.0003, 787.0153
853.4824, 786.3369
853.9645, 788.5508
854.4467, 792.5200
854.9288, 794.0552
855.4109, 790.4611
855.8930, 785.3948
856.3751, 784.1115
856.8572, 784.6550
857.3394, 780.9244
857.8215, 773.7518
858.3036, 771.4476
858.7857, 777.2702
859.2678, 783.0256
859.7499, 778.0401
860.2321, 764.9285
860.7142, 758.6973
861.1963, 759.7745
861.6784, 763.1471
862.1605, 768.5590
862.6426, 773.6240
863.1248, 776.7662
863.6069, 778.1750
864.0890, 778.4828
864.5711, 778.2288
865.0532, 774.9196
865.5353, 761.7916
866.0175, 755.3389
866.4996, 769.3934
866.9817, 787.8699
867.4638, 793.9122
867.9459, 787.6639
868.4280, 779.6597
868.9102, 766.3300
869.3923, 757.9148
869.8744, 762.1741
870.3565, 767.6452
870.8386, 762.4876
871.3207, 752.2673
871.8029, 751.9960
872.2850, 767.3926
872.7671, 780.3985
873.2492, 778.6268
873.7313, 772.3425
874.2134, 770.2759
874.6956, 770.4683
875.1777, 769.1238
875.6598, 765.4467
876.1419, 760.0746
876.6240, 752.3972
877.1061, 745.7740
877.5883, 745.1685
878.0704, 749.0627
878.5525, 755.4616
879.0346, 763.0895
879.5167, 765.8156
879.9988, 760.8460
880.4810, 754.1463
880.9631, 753.7793
881.4452, 758.5030
881.9273, 761.0594
882.4094, 761.3630
882.8915, 763.2568
883.3737, 768.2796
883.8558, 770.6514
884.3379, 764.9173
884.8200, 754.6772
885.3021, 751.2571
885.7842, 757.1887
886.2664, 760.6721
886.7485, 760.5390
887.2306, 760.0187
887.7127, 758.7213
888.1948, 759.3541
888.6769, 768.1603
889.1591, 785.3211
889.6412, 789.4825
890.1233, 767.2550
890.6054, 751.9119
891.0875, 748.4698
891.5696, 751.3063
892.0518, 760.5560
892.5339, 772.5818
893.0160, 781.5517
893.4981, 786.7748
893.9802, 787.7296
894.4623, 779.7021
894.9445, 772.5875
895.4266, 772.4255
895.9087, 775.3958
896.3908, 778.0566
896.8729, 779.4617
897.3550, 778.3022
897.8372, 772.2765
898.3193, 768.5012
898.8014, 776.5265
899.2835, 786.1550
899.7656, 784.1889
900.2477, 774.4616
900.7299, 767.7446
901.2120, 766.9108
901.6941, 766.7330
902.1762, 762.0311
902.6583, 756.6300
903.1404, 757.0493
903.6226, 761.3681
904.1047, 765.1829
904.5868, 767.6790
905.0689, 768.1256
905.5510, 766.0449
906.0331, 763.5869
906.5153, 763.8942
906.9974, 766.5584
907.4795, 770.1075
907.9616, 774.4188
908.4437, 776.2360
908.9258, 774.5190
909.4080, 773.0670
909.8900, 774.9821
910.3721, 779.3774
910.8542, 784.5200
911.3364, 791.0439
911.8185, 792.3354
912.3006, 787.1798
912.7827, 779.4627
913.2648, 768.0880
913.7469, 760.3956
914.2291, 767.4501
914.7112, 787.9860
915.1933, 797.0535
915.6754, 788.9448
916.1575, 782.1747
916.6396, 780.1842
917.1218, 777.7051
917.6039, 768.7828
918.0860, 758.8523
918.5681, 760.4000
919.0502, 777.7257
919.5323, 784.7719
920.0145, 768.5762
920.4966, 758.9296
920.9787, 768.9645
921.4608, 782.3351
921.9429, 786.6528
922.4250, 783.6761
922.9072, 779.7128
923.3893, 774.0562
923.8714, 772.4378
924.3535, 780.5834
924.8356, 788.3099
925.3177, 789.1935
925.7999, 787.2727
926.2820, 788.0309
926.7641, 791.4501
927.2462, 793.1977
927.7283, 791.2688
928.2104, 788.0320
928.6926, 783.4175
929.1747, 779.1923
929.6568, 776.6447
930.1389, 775.8576
930.6210, 776.8446
931.1031, 779.5475
931.5853, 783.4559
932.0674, 792.1684
932.5495, 797.4636
933.0316, 786.4655
933.5137, 770.0268
933.9958, 764.5082
934.4780, 769.2777
934.9601, 776.3439
935.4422, 782.3541
935.9243, 785.1588
936.4064, 778.9643
936.8885, 770.5535
937.3707, 773.1546
937.8528, 782.4181
938.3349, 785.8231
938.8170, 782.2542
939.2991, 780.4778
939.7813, 786.0243
940.2634, 794.0718
940.7455, 797.9187
941.2276, 798.4670
941.7097, 798.1241
942.1918, 797.0978
942.6740, 795.2618
943.1561, 792.7465
943.6382, 793.3173
944.1203, 800.8941
944.6024, 811.1199
945.0845, 813.1329
945.5667, 807.8372
946.0488, 802.8965
946.5309, 798.8424
947.0130, 799.8457
947.4951, 808.0439
947.9772, 816.8175
948.4594, 818.5352
948.9415, 815.2189
949.4236, 816.8282
949.9057, 823.9126
950.3878, 827.6064
950.8699, 826.3140
951.3521, 825.7594
951.8342, 829.3893
952.3163, 833.0670
952.7984, 829.9128
953.2805, 820.4189
953.7626, 818.5128
954.2448, 826.7047
954.7269, 831.6791
955.2090, 830.1522
955.6911, 828.0291
956.1732, 828.0385
956.6553, 830.9719
957.1375, 839.6315
957.6196, 855.6972
958.1017, 862.1578
958.5838, 853.7665
959.0659, 848.4219
959.5480, 852.7664
960.0302, 856.4625
960.5123, 849.9787
960.9944, 838.0639
961.4765, 834.1048
961.9586, 840.6913
962.4407, 846.3358
962.9229, 849.9459
963.4050, 854.4307
963.8871, 862.9864
964.3692, 870.1879
964.8513, 869.7125
965.3334, 863.7794
965.8156, 862.1169
966.2977, 869.1368
966.7798, 871.4047
967.2619, 861.2299
967.7440, 855.9554
968.2261, 867.4465
968.7083, 881.5805
969.1904, 883.4241
969.6725, 874.7914
970.1546, 869.2509
970.6367, 869.6492
971.1188, 869.8625
971.6010, 870.7152
972.0831, 869.6916
972.5652, 862.8182
973.0473, 855.3201
973.5294, 853.0218
974.0115, 856.1064
974.4937, 862.1049
974.9758, 878.1649
975.4579, 886.0396
975.9400, 873.1157
976.4221, 861.3435
976.9042, 865.5717
977.3864, 877.1569
977.8685, 884.8451
978.3506, 887.2693
978.8327, 884.2336
979.3148, 867.4426
979.7969, 856.7131
980.2791, 862.1376
980.7612, 870.8814
981.2433, 876.5576
981.7254, 878.5284
982.2075, 875.1216
982.6896, 866.2795
983.1718, 861.3798
983.6539, 868.6511
984.1360, 873.0838
984.6181, 867.0264
985.1002, 857.9880
985.5823, 849.6118
986.0645, 843.5069
986.5466, 842.7677
987.0287, 848.1321
987.5108, 850.7237
987.9929, 844.1456
988.4750, 838.3056
988.9572, 841.1801
989.4393, 843.5367
989.9214, 833.4512
990.4035, 817.4562
990.8856, 811.7307
991.3677, 820.4490
991.8499, 826.9034
992.3320, 821.5336
992.8141, 815.7453
993.2962, 814.0123
993.7783, 815.6884
994.2604, 823.3514
994.7426, 833.0603
995.2247, 834.6760
995.7068, 824.7753
996.1889, 818.9480
996.6710, 828.7839
997.1531, 838.8390
997.6353, 840.1229
998.1174, 837.6748
998.5995, 836.1578
999.0816, 835.6010
999.5637, 834.7164
1000.046, 833.2877
1000.528, 830.2042
1001.010, 821.2839
1001.492, 814.8760
1001.974, 817.9746
1002.456, 824.4377
1002.939, 826.4442
1003.421, 826.1991
1003.903, 832.7143
1004.385, 849.7440
1004.867, 862.8225
1005.349, 862.2576
1005.831, 859.5179
1006.313, 860.7466
1006.795, 863.7697
1007.278, 866.0328
1007.760, 867.8340
1008.242, 871.6812
1008.724, 879.1093
1009.206, 882.1808
1009.688, 871.2051
1010.170, 862.2078
1010.652, 865.3104
1011.135, 874.4062
1011.617, 885.6396
1012.099, 896.5827
1012.581, 902.7666
1013.063, 902.2542
1013.545, 901.9000
1014.027, 904.0948
1014.509, 907.7096
1014.991, 911.5250
1015.474, 916.9514
1015.956, 927.9350
1016.438, 941.3906
1016.920, 948.3845
1017.402, 945.7025
1017.884, 943.9819
1018.366, 947.9492
1018.848, 952.7678
1019.331, 957.2568
1019.813, 960.5017
1020.295, 959.5687
1020.777, 957.1179
1021.259, 960.5089
1021.741, 972.3734
1022.223, 982.3607
1022.705, 987.3434
1023.187, 989.6683
1023.670, 987.8488
1024.152, 986.0167
1024.634, 985.8190
1025.116, 988.8911
1025.598, 1000.581
1026.080, 1024.344
1026.562, 1038.337
1027.044, 1025.409
1027.526, 1017.897
1028.009, 1032.193
1028.491, 1051.463
1028.973, 1065.028
1029.455, 1072.745
1029.937, 1076.024
1030.419, 1074.956
1030.901, 1070.039
1031.383, 1054.084
1031.866, 1044.330
1032.348, 1049.389
1032.830, 1058.199
1033.312, 1066.528
1033.794, 1072.075
1034.276, 1069.488
1034.758, 1056.926
1035.240, 1049.639
1035.723, 1051.955
1036.205, 1055.020
1036.687, 1059.645
1037.169, 1062.268
1037.651, 1058.625
1038.133, 1052.638
1038.615, 1050.977
1039.097, 1053.986
1039.579, 1057.205
1040.062, 1064.575
1040.544, 1065.363
1041.026, 1052.521
1041.508, 1041.036
1041.990, 1040.189
1042.472, 1043.432
1042.954, 1041.132
1043.436, 1033.365
1043.918, 1028.933
1044.401, 1029.627
1044.883, 1029.807
1045.365, 1030.528
1045.847, 1027.223
1046.329, 1014.351
1046.811, 1001.661
1047.293, 1002.229
1047.775, 1014.072
1048.258, 1020.885
1048.740, 1023.339
1049.222, 1016.448
1049.704, 994.8132
1050.186, 980.7340
1050.668, 984.5226
1051.150, 994.8278
1051.632, 1000.824
1052.115, 1002.552
1052.597, 999.1376
1053.079, 989.6474
1053.561, 983.4690
1054.043, 981.3871
1054.525, 979.2980
1055.007, 975.8267
1055.489, 972.7488
1055.971, 972.0049
1056.453, 971.8727
1056.936, 967.1835
1057.418, 958.3097
1057.900, 952.1041
1058.382, 948.7213
1058.864, 949.0003
1059.346, 953.1619
1059.828, 954.9270
1060.310, 949.6793
1060.793, 940.8615
1061.275, 933.1570
1061.757, 927.1151
1062.239, 926.6428
1062.721, 930.3664
1063.203, 929.4763
1063.685, 923.4090
1064.167, 922.9312
1064.650, 934.2034
1065.132, 946.9712
1065.614, 948.0131
1066.096, 941.7565
1066.578, 935.4141
1067.060, 929.7956
1067.542, 928.1843
1068.024, 929.6788
1068.506, 928.8099
1068.989, 923.5215
1069.471, 918.4478
1069.953, 918.7012
1070.435, 920.0919
1070.917, 918.6013
1071.399, 914.4197
1071.881, 905.2825
1072.363, 894.2319
1072.845, 890.1401
1073.328, 894.2132
1073.810, 894.6484
1074.292, 881.8964
1074.774, 867.7238
1075.256, 860.6421
1075.738, 856.0383
1076.220, 849.4767
1076.702, 842.4335
1077.184, 837.7870
1077.667, 835.7798
1078.149, 834.8843
1078.631, 835.8794
1079.113, 834.7672
1079.595, 828.2473
1080.077, 821.2057
1080.559, 815.8132
1081.041, 811.8235
1081.524, 808.9326
1082.006, 807.0452
1082.488, 806.0032
1082.970, 805.9650
1083.452, 806.1982
1083.934, 807.5193
1084.416, 807.8699
1084.898, 806.9771
1085.380, 804.6057
1085.863, 800.0457
1086.345, 794.0982
1086.827, 788.3366
1087.309, 782.7141
1087.791, 777.6745
1088.273, 773.0908
1088.755, 769.2634
1089.237, 766.1071
1089.719, 764.1674
1090.202, 764.6359
1090.684, 764.7487
1091.166, 759.6137
1091.648, 750.5455
1092.130, 750.3611
1092.612, 760.8793
1093.094, 766.0737
1093.576, 764.0835
1094.059, 761.3962
1094.541, 760.5761
1095.023, 758.1968
1095.505, 750.1985
1095.987, 740.2513
1096.469, 738.9929
1096.951, 744.6735
1097.433, 744.5350
1097.916, 739.1299
1098.398, 736.4920
1098.880, 738.4163
1099.362, 741.9713
1099.844, 745.4726
1100.326, 748.1399
1100.808, 750.4669
1101.290, 750.2594
1101.772, 739.6497
1102.255, 724.4609
1102.737, 718.3914
1103.219, 721.2848
1103.701, 725.6119
1104.183, 728.3367
1104.665, 728.0248
1105.147, 718.2532
1105.629, 711.2531
1106.111, 723.2540
1106.594, 738.9366
1107.076, 741.1620
1107.558, 734.0049
1108.040, 726.9749
1108.522, 722.0613
1109.004, 717.7971
1109.486, 713.1992
1109.968, 710.0043
1110.451, 709.6306
1110.933, 709.9175
1111.415, 708.7947
1111.897, 708.3731
1112.379, 711.6185
1112.861, 717.6978
1113.343, 723.1587
1113.825, 728.7099
1114.307, 730.6768
1114.790, 727.9703
1115.272, 723.2565
1115.754, 715.0245
1116.236, 707.8913
1116.718, 704.4046
1117.200, 704.1506
1117.682, 706.9284
1118.164, 712.6152
1118.646, 716.1714
1119.129, 717.3518
1119.611, 717.9655
1120.093, 718.3632
1120.575, 716.4671
1121.057, 710.9457
1121.539, 706.6035
1122.021, 708.8723
1122.503, 714.6612
1122.986, 716.4996
1123.468, 714.7957
1123.950, 712.0405
1124.432, 707.8860
1124.914, 696.9462
1125.396, 679.9766
1125.878, 671.3550
1126.360, 680.1654
1126.843, 694.3682
1127.325, 702.2557
1127.807, 705.8256
1128.289, 707.6775
1128.771, 707.1967
1129.253, 700.4877
1129.735, 690.9610
1130.217, 688.2905
1130.699, 694.9388
1131.182, 702.5286
1131.664, 709.1992
1132.146, 711.8400
1132.628, 706.3249
1133.110, 698.8375
1133.592, 691.9221
1134.074, 687.1293
1134.556, 687.7292
1135.038, 692.4119
1135.521, 693.3463
1136.003, 686.8787
1136.485, 683.2523
1136.967, 684.2609
1137.449, 686.7961
1137.931, 692.2864
1138.413, 696.0427
1138.895, 693.5967
1139.378, 688.9733
1139.860, 690.3513
1140.342, 697.4746
1140.824, 696.0387
1141.306, 683.9664
1141.788, 679.6480
1142.270, 685.6992
1142.752, 692.8660
1143.234, 697.4723
1143.717, 702.8425
1144.199, 713.2511
1144.681, 722.8477
1145.163, 716.4003
1145.645, 699.2415
1146.127, 686.4300
1146.609, 678.9706
1147.091, 679.5926
1147.573, 686.9105
1148.056, 691.7419
1148.538, 689.5795
1149.020, 689.1171
1149.502, 705.3497
1149.984, 718.4503
1150.466, 703.1906
1150.948, 680.4034
1151.430, 673.2541
1151.913, 677.1380
1152.395, 679.7214
1152.877, 678.9688
1153.359, 678.9743
1153.841, 682.0063
1154.323, 683.7906
1154.805, 681.0154
1155.287, 679.7112
1155.770, 685.6916
1156.252, 690.9976
1156.734, 686.8471
1157.216, 677.8787
1157.698, 675.3450
1158.180, 679.8356
1158.662, 684.8749
1159.144, 691.0352
1159.626, 695.5131
1160.109, 698.0831
1160.591, 697.6501
1161.073, 693.2479
1161.555, 688.9258
1162.037, 689.4299
1162.519, 692.1315
1163.001, 690.8934
1163.483, 686.1060
1163.965, 675.5115
1164.448, 662.7716
1164.930, 665.1067
1165.412, 682.2589
1165.894, 693.4869
1166.376, 688.2784
1166.858, 679.5141
1167.340, 679.6563
1167.822, 679.8223
1168.305, 665.8133
1168.787, 652.5969
1169.269, 660.6575
1169.751, 680.1572
1170.233, 692.7618
1170.715, 695.5969
1171.197, 692.2150
1171.679, 679.3250
1172.161, 668.9767
1172.644, 662.4439
1173.126, 659.9996
1173.608, 663.2210
1174.090, 668.7255
1174.572, 675.3079
1175.054, 681.6496
1175.536, 685.5362
1176.018, 686.9247
1176.500, 682.6852
1176.983, 671.4147
1177.465, 670.2338
1177.947, 681.6196
1178.429, 683.8111
1178.911, 668.7719
1179.393, 655.7582
1179.875, 661.6317
1180.357, 675.9551
1180.840, 685.1879
1181.322, 688.4788
1181.804, 679.7929
1182.286, 665.5471
1182.768, 659.1438
1183.250, 660.9347
1183.732, 666.2465
1184.214, 673.2547
1184.697, 677.1276
1185.179, 671.3317
1185.661, 667.4014
1186.143, 675.8585
1186.625, 682.3820
1187.107, 673.5832
1187.589, 660.5761
1188.071, 655.7605
1188.553, 658.7191
1189.036, 665.4604
1189.518, 677.8382
1190.000, 684.4745
1190.482, 683.6010
1190.964, 682.3242
1191.446, 682.5154
1191.928, 678.3964
1192.410, 665.7579
1192.892, 654.7509
1193.375, 657.1506
1193.857, 668.2266
1194.339, 676.6543
1194.821, 682.7623
1195.303, 687.2945
1195.785, 690.7408
1196.267, 695.9387
1196.749, 701.9911
1197.232, 701.2891
1197.714, 690.4993
1198.196, 681.9674
1198.678, 688.5449
1199.160, 696.2645
1199.642, 694.5848
1200.124, 690.4693
1200.606, 691.8360
1201.089, 693.4629
1201.571, 685.0771
1202.053, 668.9211
1202.535, 659.7175
1203.017, 660.2327
1203.499, 664.7153
1203.981, 676.6090
1204.463, 684.6277
1204.945, 685.5261
1205.427, 685.8181
1205.910, 688.8944
1206.392, 692.9823
1206.874, 696.5698
1207.356, 698.4423
1207.838, 692.2670
1208.320, 681.0239
1208.802, 680.8225
1209.284, 689.3922
1209.767, 694.2766
1210.249, 694.0104
1210.731, 695.7536
1211.213, 702.7101
1211.695, 708.8474
1212.177, 707.8498
1212.659, 706.4693
1213.141, 712.6680
1213.624, 717.4467
1214.106, 709.1426
1214.588, 697.2639
1215.070, 696.5477
1215.552, 705.0631
1216.034, 708.1234
1216.516, 701.2940
1216.998, 702.3360
1217.480, 716.2861
1217.963, 725.5249
1218.445, 727.2533
1218.927, 723.6326
1219.409, 714.3370
1219.891, 706.6849
1220.373, 709.3346
1220.855, 716.5604
1221.337, 713.6237
1221.819, 704.1360
1222.302, 698.4550
1222.784, 697.2126
1223.266, 703.3837
1223.748, 714.7201
1224.230, 723.1213
1224.712, 725.5988
1225.194, 722.3916
1225.676, 707.4843
1226.159, 697.1254
1226.641, 702.8253
1227.123, 712.2395
1227.605, 721.5031
1228.087, 727.2697
1228.569, 723.8490
1229.051, 715.1625
1229.533, 711.2376
1230.016, 712.3279
1230.498, 713.6251
1230.980, 715.3086
1231.462, 716.5992
1231.944, 717.6255
1232.426, 715.5598
1232.908, 709.3500
1233.390, 703.6422
1233.872, 702.0943
1234.354, 701.7275
1234.837, 698.4908
1235.319, 693.4437
1235.801, 686.4985
1236.283, 680.1747
1236.765, 678.7532
1237.247, 681.2884
1237.729, 686.1077
1238.211, 692.0169
1238.694, 694.3222
1239.176, 689.0673
1239.658, 686.7059
1240.140, 693.7653
1240.622, 697.6281
1241.104, 691.0032
1241.586, 686.9446
1242.068, 694.8211
1242.551, 705.5891
1243.033, 707.1704
1243.515, 701.8683
1243.997, 699.1647
1244.479, 698.3978
1244.961, 691.3395
1245.443, 679.6138
1245.925, 673.0488
1246.407, 673.4518
1246.890, 680.4957
1247.372, 693.6076
1247.854, 703.7122
1248.336, 702.9022
1248.818, 698.6437
1249.300, 694.7563
1249.782, 691.0191
1250.264, 686.0768
1250.746, 682.1240
1251.229, 683.1968
1251.711, 686.8975
1252.193, 685.4089
1252.675, 678.1247
1253.157, 676.9074
1253.639, 683.7359
1254.121, 687.7250
1254.603, 687.9330
1255.086, 685.0882
1255.568, 679.3091
1256.050, 677.1733
1256.532, 683.5154
1257.014, 691.5148
1257.496, 690.3789
1257.978, 687.4201
1258.460, 696.0988
1258.943, 707.8800
1259.425, 711.2510
1259.907, 708.5933
1260.389, 706.0223
1260.871, 703.9560
1261.353, 698.7675
1261.835, 687.8362
1262.317, 681.3082
1262.799, 682.5745
1263.281, 684.7280
1263.764, 688.7239
##END=



