##NAMES=Dravite
##RRUFFID=R060534
##IDEAL CHEMISTRY=NaMg_3_Al_6_(Si_6_O_18_)(BO_3_)_3_(OH)_3_OH
##LOCALITY=Sri Lanka
##OWNER=RRUFF
##SOURCE=Gemological Institute of America
##DESCRIPTION=Black trigonal prism
##STATUS=The identification of this mineral has been confirmed by X-ray diffraction and chemical analysis
##URL=rruff.info/R060534
##MEASURED CHEMISTRY=(Na_0.79_Ca_0.21_)(Mg_0.68_Fe^2+^_0.29_Ti_0.02_Al_0.01_)_3_Al_6.00_(BO_3_)_3_(Si_0.95_Al_005_)_6.00_O_18_(OH)_4_
92.10938, 6.087705
92.59149, 5.954844
93.07361, 5.981397
93.55573, 6.158088
94.03784, 6.373353
94.51996, 6.614628
95.00208, 6.837156
95.48419, 6.880458
95.96631, 6.603689
96.44843, 6.130274
96.93054, 5.801875
97.41266, 5.627919
97.89478, 5.564373
98.37689, 5.606469
98.85901, 5.755294
99.34113, 5.865969
99.82324, 5.880167
100.3054, 5.797879
100.7875, 5.660254
101.2696, 5.432868
101.7517, 5.194617
102.2338, 5.100403
102.7159, 5.187926
103.1981, 5.314366
103.6802, 5.374664
104.1623, 5.271245
104.6444, 5.452804
105.1265, 6.108754
105.6086, 7.048704
106.0908, 7.528572
106.5729, 7.173172
107.0550, 6.792613
107.5371, 6.870907
108.0192, 7.856590
108.5013, 8.627165
108.9835, 8.958117
109.4656, 8.869104
109.9477, 9.091859
110.4298, 9.961605
110.9119, 10.95929
111.3940, 11.74927
111.8762, 11.84332
112.3583, 12.20552
112.8404, 13.04819
113.3225, 14.41037
113.8046, 15.87667
114.2867, 17.66360
114.7689, 19.45066
115.2510, 20.87632
115.7331, 21.29279
116.2152, 21.82409
116.6973, 22.95442
117.1794, 24.85572
117.6616, 26.80037
118.1437, 28.50678
118.6258, 30.10049
119.1079, 31.73062
119.5900, 33.59341
120.0721, 35.44858
120.5543, 37.13070
121.0364, 38.58274
121.5185, 39.92994
122.0006, 41.06051
122.4827, 42.11390
122.9648, 43.50599
123.4470, 45.86334
123.9291, 48.53430
124.4112, 50.70968
124.8933, 51.92302
125.3754, 53.01348
125.8575, 54.83301
126.3397, 57.31139
126.8218, 60.02861
127.3039, 62.58886
127.7860, 65.14864
128.2681, 68.04645
128.7502, 71.63345
129.2324, 75.43632
129.7145, 78.60540
130.1966, 81.15620
130.6787, 83.35278
131.1608, 85.32354
131.6429, 87.09594
132.1251, 88.88929
132.6072, 90.70953
133.0893, 92.59863
133.5714, 94.86947
134.0535, 97.59953
134.5356, 100.3553
135.0178, 102.5789
135.4999, 104.2499
135.9820, 105.7930
136.4641, 107.2360
136.9462, 108.6019
137.4283, 110.5111
137.9105, 113.1213
138.3926, 116.0264
138.8747, 118.4976
139.3568, 120.4728
139.8389, 122.3673
140.3210, 124.3895
140.8032, 126.6154
141.2853, 128.5380
141.7674, 129.8327
142.2495, 131.0117
142.7316, 133.3463
143.2137, 137.0785
143.6959, 139.9265
144.1780, 141.5066
144.6601, 141.3190
145.1422, 141.2778
145.6243, 141.3749
146.1064, 141.6504
146.5886, 142.3375
147.0707, 143.8995
147.5528, 145.3470
148.0349, 146.1095
148.5170, 145.7399
148.9991, 145.4178
149.4813, 145.0479
149.9634, 144.6819
150.4455, 144.9009
150.9276, 146.7537
151.4097, 148.4717
151.8918, 148.9438
152.3740, 146.4669
152.8561, 144.7093
153.3382, 144.3134
153.8203, 145.2370
154.3024, 145.8281
154.7845, 145.8223
155.2667, 145.5223
155.7488, 145.1521
156.2309, 144.6633
156.7130, 144.1912
157.1951, 143.7962
157.6772, 143.4875
158.1594, 143.0979
158.6415, 142.4721
159.1236, 141.7994
159.6057, 141.2627
160.0878, 140.8044
160.5699, 140.5826
161.0521, 140.8566
161.5342, 141.7411
162.0163, 142.1764
162.4984, 141.1458
162.9805, 139.6211
163.4626, 138.8311
163.9448, 139.9868
164.4269, 141.3926
164.9090, 142.2167
165.3911, 142.3582
165.8732, 142.0711
166.3553, 140.8681
166.8375, 139.3815
167.3196, 138.6572
167.8017, 140.1156
168.2838, 141.9082
168.7659, 142.6240
169.2480, 141.9132
169.7302, 140.8570
170.2123, 139.9156
170.6944, 139.1465
171.1765, 138.6947
171.6586, 138.8490
172.1407, 139.2420
172.6229, 139.5073
173.1050, 139.5616
173.5871, 139.5656
174.0692, 139.6432
174.5513, 139.7802
175.0334, 139.9360
175.5156, 140.2057
175.9977, 140.4478
176.4798, 140.4111
176.9619, 139.9583
177.4440, 139.4428
177.9261, 139.2198
178.4083, 139.2649
178.8904, 139.4836
179.3725, 139.9929
179.8546, 140.6139
180.3367, 140.9682
180.8188, 140.9133
181.3010, 140.6977
181.7831, 140.6196
182.2652, 140.6741
182.7473, 140.8198
183.2294, 141.0367
183.7115, 141.3220
184.1937, 141.7022
184.6758, 142.2997
185.1579, 142.8541
185.6400, 142.8238
186.1221, 142.2307
186.6042, 141.5908
187.0864, 141.2650
187.5685, 141.2265
188.0506, 141.3950
188.5327, 141.8219
189.0148, 142.3861
189.4969, 142.9221
189.9791, 143.4373
190.4612, 143.7289
190.9433, 143.3874
191.4254, 142.5267
191.9075, 142.0967
192.3896, 142.3574
192.8718, 143.1722
193.3539, 144.3735
193.8360, 146.0567
194.3181, 147.4668
194.8002, 147.6457
195.2823, 146.6313
195.7645, 146.0222
196.2466, 146.2319
196.7287, 147.1089
197.2108, 148.1120
197.6929, 149.2625
198.1750, 150.4259
198.6572, 151.4608
199.1393, 152.3538
199.6214, 153.2257
200.1035, 153.9490
200.5856, 154.6535
201.0677, 156.3101
201.5499, 159.2200
202.0320, 162.1258
202.5141, 163.6577
202.9962, 163.6506
203.4783, 163.5795
203.9604, 163.6359
204.4426, 163.8759
204.9247, 164.9399
205.4068, 167.0925
205.8889, 169.3948
206.3710, 170.8345
206.8531, 171.2429
207.3353, 171.6920
207.8174, 172.5254
208.2995, 173.6842
208.7816, 174.2706
209.2637, 174.0841
209.7458, 173.7057
210.2280, 173.8099
210.7101, 174.6005
211.1922, 175.1087
211.6743, 175.0565
212.1564, 174.4630
212.6385, 173.9040
213.1207, 173.3968
213.6028, 172.9030
214.0849, 172.4715
214.5670, 172.2818
215.0491, 171.5940
215.5313, 170.0799
216.0134, 167.7410
216.4955, 165.8412
216.9776, 164.5167
217.4597, 163.4202
217.9418, 162.1615
218.4239, 160.6668
218.9061, 159.2255
219.3882, 157.8404
219.8703, 156.5203
220.3524, 155.5505
220.8345, 155.0381
221.3166, 154.7546
221.7988, 154.5133
222.2809, 154.4230
222.7630, 154.1158
223.2451, 153.4409
223.7272, 152.3852
224.2093, 151.5466
224.6915, 150.9542
225.1736, 150.5343
225.6557, 150.2311
226.1378, 150.0558
226.6199, 149.9747
227.1020, 150.0615
227.5842, 150.3191
228.0663, 150.2097
228.5484, 149.4236
229.0305, 148.6037
229.5126, 148.3520
229.9947, 148.8236
230.4769, 149.5632
230.9590, 150.6626
231.4411, 152.1142
231.9232, 152.9908
232.4053, 152.9785
232.8874, 152.7360
233.3696, 152.8649
233.8517, 153.6055
234.3338, 154.2419
234.8159, 154.6039
235.2980, 154.7041
235.7801, 154.9830
236.2623, 155.4595
236.7444, 156.0969
237.2265, 156.9002
237.7086, 158.0405
238.1907, 159.0279
238.6728, 159.8622
239.1550, 160.5276
239.6371, 160.6833
240.1192, 160.0044
240.6013, 159.1803
241.0834, 158.8474
241.5655, 159.6134
242.0477, 159.6390
242.5298, 158.4330
243.0119, 156.1406
243.4940, 154.2942
243.9761, 153.1396
244.4582, 152.1374
244.9404, 150.9612
245.4225, 149.7911
245.9046, 148.0175
246.3867, 145.1807
246.8688, 141.5471
247.3509, 139.0406
247.8331, 138.2637
248.3152, 137.8423
248.7973, 136.9102
249.2794, 135.2857
249.7615, 133.5048
250.2436, 131.5173
250.7258, 129.3969
251.2079, 127.5462
251.6900, 126.0923
252.1721, 124.7287
252.6542, 123.1791
253.1363, 121.0390
253.6185, 119.7603
254.1006, 119.8344
254.5827, 120.7966
255.0648, 120.9243
255.5469, 119.7853
256.0291, 118.5104
256.5112, 117.7352
256.9933, 117.7834
257.4754, 117.4877
257.9575, 116.6925
258.4396, 115.5649
258.9218, 114.5645
259.4039, 113.6064
259.8860, 112.9154
260.3681, 112.6026
260.8502, 112.7333
261.3323, 113.1064
261.8145, 113.9128
262.2966, 114.8420
262.7787, 115.1244
263.2608, 114.3786
263.7429, 113.7926
264.2250, 114.0285
264.7072, 115.4904
265.1893, 116.0621
265.6714, 115.4798
266.1535, 114.2181
266.6356, 113.0222
267.1177, 111.7410
267.5999, 110.9091
268.0820, 110.9294
268.5641, 112.0116
269.0462, 112.2981
269.5283, 111.5098
270.0104, 110.2785
270.4926, 109.5531
270.9747, 109.4780
271.4568, 109.3868
271.9389, 109.0253
272.4210, 108.3794
272.9031, 107.9415
273.3853, 107.7245
273.8674, 107.6950
274.3495, 107.9528
274.8316, 108.6348
275.3137, 108.8700
275.7958, 108.2117
276.2780, 106.7645
276.7601, 106.0078
277.2422, 106.0907
277.7243, 106.4755
278.2064, 106.6749
278.6885, 106.6939
279.1707, 106.4550
279.6528, 105.8495
280.1349, 104.9715
280.6170, 104.3060
281.0991, 103.8704
281.5812, 103.5807
282.0634, 103.4775
282.5455, 103.5723
283.0276, 103.3513
283.5097, 102.5809
283.9918, 101.5120
284.4739, 100.9519
284.9561, 100.9391
285.4382, 101.1494
285.9203, 101.4215
286.4024, 101.7424
286.8845, 101.9353
287.3666, 101.9529
287.8488, 101.8524
288.3309, 101.7411
288.8130, 101.6177
289.2951, 101.4884
289.7772, 101.3223
290.2593, 101.1398
290.7415, 101.0920
291.2236, 101.2447
291.7057, 101.4157
292.1878, 101.2589
292.6699, 100.8007
293.1520, 100.3576
293.6342, 99.99920
294.1163, 99.78576
294.5984, 100.0744
295.0805, 101.0046
295.5626, 101.9190
296.0447, 101.7395
296.5269, 100.7083
297.0090, 99.99932
297.4911, 100.5038
297.9732, 101.6753
298.4553, 102.2309
298.9374, 102.1049
299.4196, 101.8959
299.9017, 102.2898
300.3838, 103.0969
300.8659, 103.7996
301.3480, 104.1277
301.8301, 104.2609
302.3123, 104.4937
302.7944, 104.8209
303.2765, 105.0488
303.7586, 104.8271
304.2407, 104.4212
304.7228, 104.2933
305.2050, 104.5078
305.6871, 105.1486
306.1692, 106.8159
306.6513, 109.2699
307.1334, 110.9771
307.6155, 110.0493
308.0977, 108.0870
308.5798, 107.1958
309.0619, 108.2400
309.5440, 109.7783
310.0261, 110.8751
310.5082, 111.5542
310.9904, 111.8857
311.4725, 111.5370
311.9546, 111.0609
312.4367, 110.9793
312.9188, 111.4609
313.4009, 112.0625
313.8831, 112.8954
314.3652, 113.6326
314.8473, 113.6758
315.3294, 111.5932
315.8115, 109.5905
316.2936, 109.3518
316.7758, 111.3406
317.2579, 112.9772
317.7400, 112.8475
318.2221, 111.8132
318.7042, 110.9736
319.1863, 110.7087
319.6685, 110.6788
320.1506, 110.7812
320.6327, 111.0105
321.1148, 111.3208
321.5969, 111.8490
322.0790, 112.3741
322.5612, 112.7227
323.0433, 112.5357
323.5254, 112.4984
324.0075, 112.8969
324.4896, 113.6590
324.9717, 114.2102
325.4539, 114.1621
325.9360, 114.0845
326.4181, 114.2981
326.9002, 115.1014
327.3823, 115.8531
327.8644, 116.5393
328.3466, 117.1504
328.8287, 117.6546
329.3108, 117.9004
329.7929, 118.1774
330.2750, 118.6095
330.7571, 119.3773
331.2393, 119.8936
331.7214, 119.9751
332.2035, 119.8727
332.6856, 119.9926
333.1677, 120.4491
333.6498, 120.9616
334.1320, 121.4747
334.6141, 121.9839
335.0962, 122.4551
335.5783, 122.8949
336.0604, 123.2898
336.5425, 123.6302
337.0247, 123.9115
337.5068, 124.1305
337.9889, 124.1662
338.4710, 124.0965
338.9531, 124.6873
339.4352, 126.1882
339.9173, 127.7945
340.3994, 128.8506
340.8816, 129.2876
341.3637, 129.6767
341.8458, 130.0977
342.3279, 130.5084
342.8100, 130.7568
343.2921, 130.7985
343.7743, 130.9611
344.2564, 131.5198
344.7385, 132.4519
345.2206, 133.1880
345.7027, 133.6612
346.1848, 134.0434
346.6670, 134.5866
347.1491, 135.2855
347.6312, 136.0611
348.1133, 136.9769
348.5954, 137.9494
349.0775, 138.6476
349.5597, 139.0506
350.0418, 139.4539
350.5239, 140.1198
351.0060, 141.0286
351.4881, 142.1064
351.9702, 143.3933
352.4524, 144.7847
352.9345, 146.1071
353.4166, 147.3670
353.8987, 148.6237
354.3808, 149.8796
354.8629, 151.1641
355.3451, 152.4605
355.8272, 153.6903
356.3093, 155.0956
356.7914, 157.0871
357.2735, 159.4688
357.7556, 161.6608
358.2378, 162.8719
358.7199, 164.0237
359.2020, 166.0217
359.6841, 169.1147
360.1662, 172.1846
360.6483, 174.5826
361.1305, 176.5694
361.6126, 178.5108
362.0947, 180.4507
362.5768, 182.4550
363.0589, 184.6101
363.5410, 186.9157
364.0232, 189.1868
364.5053, 191.6474
364.9874, 193.8988
365.4695, 195.6314
365.9516, 196.4684
366.4337, 197.1301
366.9159, 197.8176
367.3980, 198.4623
367.8801, 198.7889
368.3622, 198.8451
368.8443, 198.5037
369.3264, 197.6646
369.8086, 195.9447
370.2907, 194.3991
370.7728, 193.2626
371.2549, 192.2272
371.7370, 190.7912
372.2191, 188.7384
372.7013, 186.5832
373.1834, 184.6257
373.6655, 182.9703
374.1476, 180.2399
374.6297, 175.7534
375.1118, 171.1137
375.5940, 168.0020
376.0761, 166.9817
376.5582, 165.7748
377.0403, 163.9376
377.5224, 161.6475
378.0045, 159.5630
378.4867, 157.7174
378.9688, 156.0971
379.4509, 154.8564
379.9330, 154.0195
380.4151, 152.6809
380.8972, 150.6274
381.3794, 148.3625
381.8615, 146.8062
382.3436, 145.9274
382.8257, 145.2467
383.3078, 144.6307
383.7899, 144.0345
384.2721, 143.2704
384.7542, 142.3332
385.2363, 141.3137
385.7184, 140.2166
386.2005, 139.1048
386.6826, 138.0983
387.1648, 137.3113
387.6469, 136.5873
388.1290, 135.6540
388.6111, 134.5640
389.0932, 133.5894
389.5753, 132.8412
390.0575, 132.3302
390.5396, 132.1378
391.0217, 132.4177
391.5038, 132.5802
391.9859, 132.0820
392.4680, 131.1890
392.9502, 130.3769
393.4323, 129.8888
393.9144, 129.5163
394.3965, 129.1836
394.8786, 128.8864
395.3607, 128.5172
395.8429, 127.8125
396.3250, 127.1216
396.8071, 126.7531
397.2892, 127.3237
397.7713, 127.6292
398.2534, 127.1957
398.7356, 126.2004
399.2177, 125.5165
399.6998, 125.4674
400.1819, 125.5575
400.6640, 125.5867
401.1461, 125.5654
401.6283, 125.4618
402.1104, 125.2738
402.5925, 125.0048
403.0746, 124.6300
403.5567, 124.0071
404.0388, 123.5414
404.5210, 123.4039
405.0031, 123.5950
405.4852, 123.5702
405.9673, 123.2958
406.4494, 122.8644
406.9315, 122.2629
407.4137, 121.4268
407.8958, 120.9577
408.3779, 121.0937
408.8600, 121.4979
409.3421, 121.2000
409.8242, 120.1515
410.3064, 119.2074
410.7885, 118.9255
411.2706, 119.1735
411.7527, 119.3391
412.2348, 119.4010
412.7169, 119.3659
413.1991, 119.3120
413.6812, 119.1806
414.1633, 118.7603
414.6454, 117.7131
415.1275, 116.5354
415.6096, 115.9513
416.0918, 115.9017
416.5739, 115.9190
417.0560, 115.7718
417.5381, 115.4794
418.0202, 115.0355
418.5023, 114.3765
418.9845, 113.7350
419.4666, 113.1825
419.9487, 112.7605
420.4308, 112.5592
420.9129, 112.9608
421.3951, 113.2974
421.8772, 113.2202
422.3593, 112.6865
422.8414, 112.0365
423.3235, 111.1060
423.8056, 110.2358
424.2878, 109.7100
424.7699, 109.9534
425.2520, 110.0966
425.7341, 110.0067
426.2162, 109.7362
426.6983, 109.4679
427.1805, 109.2599
427.6626, 108.9880
428.1447, 108.5380
428.6268, 107.7527
429.1089, 107.4301
429.5910, 107.8528
430.0732, 108.4368
430.5553, 108.4079
431.0374, 107.6083
431.5195, 106.7951
432.0016, 106.0414
432.4837, 105.4161
432.9659, 105.3390
433.4480, 105.8922
433.9301, 106.4740
434.4122, 106.6742
434.8943, 106.5226
435.3764, 106.1544
435.8586, 105.5007
436.3407, 104.8978
436.8228, 104.9635
437.3049, 105.5432
437.7870, 105.9691
438.2691, 105.7531
438.7513, 105.2979
439.2334, 105.2631
439.7155, 105.6202
440.1976, 105.8633
440.6797, 105.3988
441.1618, 104.6982
441.6440, 104.3598
442.1261, 104.7076
442.6082, 105.1182
443.0903, 105.2648
443.5724, 105.2089
444.0545, 105.0840
444.5367, 104.6504
445.0188, 104.4010
445.5009, 104.7346
445.9830, 105.7938
446.4651, 106.4347
446.9472, 106.0023
447.4294, 105.2921
447.9115, 104.9771
448.3936, 105.7538
448.8757, 106.1001
449.3578, 105.6181
449.8399, 104.6213
450.3221, 104.1888
450.8042, 104.6666
451.2863, 105.1584
451.7684, 105.2604
452.2505, 104.8734
452.7326, 104.7983
453.2148, 105.1915
453.6969, 105.6175
454.1790, 105.4853
454.6611, 104.7624
455.1432, 104.0469
455.6253, 103.3705
456.1075, 102.8794
456.5896, 103.1880
457.0717, 104.2769
457.5538, 105.2329
458.0359, 105.3026
458.5180, 104.8106
459.0002, 104.4922
459.4823, 104.4190
459.9644, 104.4689
460.4465, 104.4104
460.9286, 104.3991
461.4107, 104.7422
461.8929, 106.0596
462.3750, 107.3422
462.8571, 107.7595
463.3392, 107.4544
463.8213, 107.0664
464.3034, 106.8180
464.7856, 106.6463
465.2677, 106.5118
465.7498, 106.4124
466.2319, 106.3413
466.7140, 106.2399
467.1961, 106.1839
467.6783, 106.2700
468.1604, 106.7372
468.6425, 107.0939
469.1246, 107.2417
469.6067, 107.1921
470.0888, 107.0613
470.5710, 106.6459
471.0531, 106.4246
471.5352, 106.7341
472.0173, 107.8046
472.4994, 108.5722
472.9815, 108.9735
473.4637, 109.1363
473.9458, 109.2338
474.4279, 109.2663
474.9100, 109.2274
475.3921, 109.0014
475.8742, 108.7523
476.3564, 109.1135
476.8385, 110.0785
477.3206, 111.0073
477.8027, 111.2587
478.2848, 111.1388
478.7669, 111.3525
479.2491, 112.0771
479.7312, 112.7649
480.2133, 112.7917
480.6954, 112.4164
481.1775, 112.1221
481.6596, 112.3041
482.1418, 112.4742
482.6239, 112.1957
483.1060, 111.5524
483.5881, 111.1538
484.0702, 111.1824
484.5523, 111.5651
485.0345, 112.3691
485.5166, 114.0445
485.9987, 115.1348
486.4808, 115.0932
486.9629, 114.4638
487.4450, 113.9869
487.9272, 113.7047
488.4093, 113.5199
488.8914, 113.4120
489.3735, 113.3861
489.8556, 113.4822
490.3377, 113.7214
490.8199, 114.0397
491.3020, 114.4952
491.7841, 115.1336
492.2662, 115.2691
492.7483, 114.7416
493.2304, 114.0772
493.7126, 114.0882
494.1947, 114.6849
494.6768, 115.2066
495.1589, 115.4669
495.6410, 115.5006
496.1231, 115.2504
496.6053, 114.7609
497.0874, 114.3594
497.5695, 114.3879
498.0516, 114.5462
498.5337, 114.4194
499.0158, 113.8976
499.4980, 113.4963
499.9801, 113.6767
500.4622, 114.0995
500.9443, 114.3668
501.4264, 114.3315
501.9085, 114.1432
502.3907, 113.7223
502.8728, 113.1519
503.3549, 112.7625
503.8370, 112.9806
504.3191, 113.0283
504.8012, 112.5323
505.2834, 111.2731
505.7655, 110.4597
506.2476, 110.2308
506.7297, 110.2910
507.2118, 110.3952
507.6939, 110.5778
508.1761, 110.6570
508.6582, 110.6012
509.1403, 110.4308
509.6224, 110.1059
510.1045, 109.6168
510.5866, 109.3226
511.0688, 109.6312
511.5509, 110.2681
512.0330, 110.3269
512.5151, 109.7933
512.9973, 109.1903
513.4794, 108.9386
513.9615, 108.9146
514.4436, 108.9273
514.9257, 108.9341
515.4078, 108.9678
515.8900, 109.1736
516.3721, 109.4133
516.8542, 109.4249
517.3363, 108.7634
517.8184, 108.1769
518.3005, 108.0402
518.7827, 108.3548
519.2648, 108.6382
519.7469, 108.8542
520.2290, 108.9830
520.7111, 108.9932
521.1932, 108.7135
521.6754, 108.6998
522.1575, 109.1666
522.6396, 109.7226
523.1217, 109.6800
523.6038, 108.7518
524.0859, 108.3277
524.5681, 108.9260
525.0502, 110.1929
525.5323, 110.8747
526.0144, 110.9473
526.4965, 110.8855
526.9786, 110.9095
527.4608, 111.0379
527.9429, 111.3595
528.4250, 111.8949
528.9071, 112.4759
529.3892, 113.0342
529.8713, 113.5177
530.3535, 113.8125
530.8356, 113.7674
531.3177, 113.7077
531.7998, 113.8873
532.2819, 114.2174
532.7640, 114.4765
533.2462, 114.4628
533.7283, 114.4795
534.2104, 114.7225
534.6925, 115.2358
535.1746, 115.5276
535.6567, 115.3027
536.1389, 115.0423
536.6210, 115.0588
537.1031, 115.5826
537.5852, 115.8435
538.0673, 115.7199
538.5494, 115.4316
539.0316, 115.3744
539.5137, 115.5973
539.9958, 115.7063
540.4779, 115.5315
540.9600, 115.1911
541.4421, 115.0463
541.9243, 115.0912
542.4064, 115.1889
542.8885, 115.2161
543.3706, 115.2401
543.8527, 115.4289
544.3348, 115.8125
544.8170, 116.1511
545.2991, 116.1551
545.7812, 116.0380
546.2633, 116.0921
546.7454, 116.7651
547.2275, 117.1341
547.7097, 116.5516
548.1918, 115.3834
548.6739, 114.4929
549.1560, 114.1970
549.6381, 114.0552
550.1202, 113.9379
550.6024, 113.8390
551.0845, 113.8854
551.5666, 114.1421
552.0487, 114.4586
552.5308, 114.7755
553.0129, 115.1351
553.4951, 115.2004
553.9772, 114.8254
554.4593, 114.4397
554.9414, 114.8968
555.4235, 116.0879
555.9056, 116.6862
556.3878, 116.0894
556.8699, 114.9323
557.3520, 114.1184
557.8341, 113.6375
558.3162, 113.4680
558.7983, 113.9631
559.2805, 114.5366
559.7626, 114.5648
560.2447, 113.9958
560.7268, 113.4078
561.2089, 112.8826
561.6910, 112.5609
562.1732, 112.5868
562.6553, 113.4253
563.1374, 113.9226
563.6195, 113.5777
564.1016, 112.9219
564.5837, 112.7805
565.0659, 113.5932
565.5480, 114.1027
566.0301, 113.9804
566.5122, 113.3459
566.9943, 112.7115
567.4764, 112.0295
567.9586, 111.6021
568.4407, 111.6885
568.9228, 112.2113
569.4049, 112.8489
569.8870, 113.6186
570.3691, 114.1769
570.8513, 114.0244
571.3334, 113.4381
571.8155, 112.9585
572.2976, 112.7110
572.7797, 112.5712
573.2618, 112.4857
573.7440, 112.4336
574.2261, 112.3755
574.7082, 112.2867
575.1903, 112.2000
575.6724, 112.1097
576.1545, 112.0237
576.6367, 112.0084
577.1188, 112.1482
577.6009, 112.2821
578.0830, 112.3402
578.5651, 112.2995
579.0472, 112.3089
579.5294, 112.3815
580.0115, 112.4834
580.4936, 112.6306
580.9757, 112.8292
581.4578, 112.7709
581.9399, 112.2922
582.4221, 111.8238
582.9042, 112.2013
583.3863, 113.2224
583.8684, 114.0835
584.3505, 114.4220
584.8326, 114.4447
585.3148, 114.2778
585.7969, 113.9562
586.2789, 113.6485
586.7610, 113.3388
587.2432, 113.1477
587.7253, 113.2603
588.2074, 113.7884
588.6895, 113.9921
589.1716, 113.2893
589.6537, 112.4917
590.1359, 112.2350
590.6180, 112.9562
591.1001, 113.3380
591.5822, 113.1029
592.0643, 112.7155
592.5464, 113.1830
593.0286, 114.7126
593.5107, 115.4725
593.9928, 114.6690
594.4749, 112.9788
594.9570, 112.0999
595.4391, 111.9872
595.9213, 112.1057
596.4034, 112.2608
596.8855, 112.3973
597.3676, 112.4321
597.8497, 112.3629
598.3318, 112.2531
598.8140, 112.0887
599.2961, 111.9336
599.7782, 111.8418
600.2603, 111.8350
600.7424, 111.8613
601.2245, 111.9463
601.7067, 112.0403
602.1888, 112.0795
602.6709, 112.0500
603.1530, 111.9694
603.6351, 111.7697
604.1172, 111.5438
604.5994, 111.7000
605.0815, 112.3700
605.5636, 112.6667
606.0457, 111.9533
606.5278, 110.5869
607.0099, 109.9818
607.4921, 110.1373
607.9742, 110.5447
608.4563, 111.0103
608.9384, 111.4191
609.4205, 111.5635
609.9026, 111.3995
610.3848, 111.1540
610.8669, 110.9201
611.3490, 110.7064
611.8311, 110.5109
612.3132, 110.1170
612.7953, 110.0326
613.2775, 110.5721
613.7596, 111.4421
614.2417, 112.1097
614.7238, 112.5681
615.2059, 112.8080
615.6880, 112.7674
616.1702, 112.5096
616.6523, 112.3206
617.1344, 112.1888
617.6165, 112.1880
618.0986, 112.3810
618.5807, 112.7413
619.0629, 113.2403
619.5450, 113.8799
620.0271, 114.4031
620.5092, 114.3794
620.9913, 114.1955
621.4734, 114.4941
621.9556, 115.5897
622.4377, 116.3875
622.9198, 115.9122
623.4019, 114.9748
623.8840, 114.5153
624.3661, 115.2744
624.8483, 115.8677
625.3304, 115.9376
625.8125, 115.7383
626.2946, 115.8592
626.7767, 116.4706
627.2589, 117.0178
627.7410, 117.3847
628.2231, 117.5596
628.7052, 117.3491
629.1873, 116.7176
629.6694, 116.2524
630.1516, 116.5437
630.6337, 117.2438
631.1158, 117.5181
631.5979, 117.3330
632.0800, 116.9885
632.5621, 116.5398
633.0443, 116.1369
633.5264, 115.9544
634.0085, 116.0743
634.4906, 116.2840
634.9727, 116.7846
635.4548, 117.2188
635.9370, 117.1509
636.4191, 116.0047
636.9012, 115.0872
637.3833, 114.5295
637.8654, 114.2574
638.3475, 114.1485
638.8297, 114.2412
639.3118, 114.3020
639.7939, 114.1770
640.2760, 113.9972
640.7581, 114.3077
641.2402, 115.0778
641.7224, 115.7428
642.2045, 115.8719
642.6866, 115.7345
643.1687, 115.6138
643.6508, 115.5314
644.1329, 115.6699
644.6151, 116.2246
645.0972, 116.9898
645.5793, 117.8594
646.0614, 119.0033
646.5435, 119.7715
647.0256, 119.8399
647.5078, 119.6296
647.9899, 119.4848
648.4720, 119.3281
648.9541, 119.4718
649.4362, 120.0809
649.9183, 120.8467
650.4005, 121.2073
650.8826, 121.1648
651.3647, 120.9767
651.8468, 120.5479
652.3289, 120.2109
652.8110, 120.7091
653.2932, 121.8636
653.7753, 122.9033
654.2574, 123.3032
654.7395, 123.5117
655.2216, 123.8459
655.7037, 124.3109
656.1859, 124.7379
656.6680, 125.0165
657.1501, 125.2965
657.6322, 125.6721
658.1143, 126.1824
658.5964, 126.6400
659.0786, 127.1032
659.5607, 127.4405
660.0428, 127.4191
660.5249, 126.9999
661.0070, 127.0461
661.4891, 127.7068
661.9713, 128.6034
662.4534, 129.4343
662.9355, 130.1152
663.4176, 130.3709
663.8997, 129.9627
664.3818, 129.3853
664.8640, 128.8086
665.3461, 128.3928
665.8282, 128.4407
666.3103, 129.7323
666.7924, 130.7985
667.2745, 131.0455
667.7567, 130.5896
668.2388, 130.2339
668.7209, 130.0294
669.2030, 129.8484
669.6851, 129.6855
670.1672, 129.5254
670.6494, 129.1344
671.1315, 128.4873
671.6136, 127.7925
672.0957, 127.0896
672.5778, 126.4594
673.0599, 126.2089
673.5421, 126.3643
674.0242, 126.5533
674.5063, 126.4946
674.9884, 126.3039
675.4705, 126.1496
675.9526, 126.1824
676.4348, 125.9117
676.9169, 124.7357
677.3990, 123.3841
677.8811, 122.7018
678.3632, 123.2090
678.8453, 123.4587
679.3275, 123.1421
679.8096, 122.7005
680.2917, 123.1885
680.7738, 124.6997
681.2559, 125.5459
681.7380, 125.0196
682.2202, 123.8384
682.7023, 123.3377
683.1844, 123.3845
683.6665, 123.4639
684.1486, 123.0512
684.6307, 122.7649
685.1129, 123.2381
685.5950, 124.3449
686.0771, 125.3411
686.5592, 125.8213
687.0413, 126.2570
687.5234, 126.9105
688.0056, 127.8158
688.4877, 128.4481
688.9698, 128.6289
689.4519, 128.8505
689.9340, 129.5315
690.4161, 130.6786
690.8983, 131.3855
691.3804, 131.5792
691.8625, 131.7562
692.3446, 132.3997
692.8267, 133.3849
693.3088, 134.4970
693.7910, 135.7071
694.2731, 136.9764
694.7552, 138.4095
695.2373, 139.8331
695.7194, 141.0442
696.2015, 141.7277
696.6837, 142.5334
697.1658, 143.5893
697.6479, 144.8005
698.1300, 146.1162
698.6121, 147.7672
699.0942, 148.7965
699.5764, 148.8126
700.0585, 148.3045
700.5406, 148.4909
701.0227, 149.3039
701.5048, 150.0281
701.9869, 150.3980
702.4691, 150.4684
702.9512, 150.2547
703.4333, 149.7903
703.9154, 149.2104
704.3975, 148.4258
704.8796, 147.6805
705.3618, 147.0224
705.8439, 146.4626
706.3260, 146.3126
706.8081, 146.9418
707.2902, 147.5644
707.7723, 147.8996
708.2545, 147.9599
708.7366, 147.4042
709.2187, 146.0555
709.7008, 144.8786
710.1829, 144.9194
710.6650, 145.7782
711.1472, 146.1456
711.6293, 145.8794
712.1114, 145.5951
712.5935, 145.9512
713.0756, 146.4827
713.5577, 146.5867
714.0399, 145.8475
714.5220, 145.4852
715.0041, 146.1379
715.4862, 147.2063
715.9683, 148.0456
716.4504, 148.4741
716.9326, 149.0704
717.4147, 149.9234
717.8968, 150.8880
718.3789, 151.6268
718.8610, 152.1695
719.3431, 153.1298
719.8253, 154.9050
720.3074, 156.6484
720.7895, 156.9187
721.2716, 156.2793
721.7537, 156.0430
722.2358, 157.4271
722.7180, 158.7142
723.2001, 158.8840
723.6822, 158.2538
724.1643, 157.7564
724.6464, 157.4164
725.1285, 157.3682
725.6107, 157.6704
726.0928, 158.2930
726.5749, 159.3406
727.0570, 160.9838
727.5391, 161.8586
728.0212, 160.6140
728.5034, 158.3515
728.9855, 158.4525
729.4676, 160.6039
729.9497, 162.4875
730.4318, 162.0054
730.9139, 160.9944
731.3961, 161.0683
731.8782, 162.3226
732.3603, 163.5226
732.8424, 164.3564
733.3245, 164.9895
733.8066, 165.5070
734.2888, 165.9043
734.7709, 166.2145
735.2530, 166.4379
735.7351, 166.5794
736.2172, 166.4270
736.6993, 166.1165
737.1815, 166.7259
737.6636, 168.3972
738.1457, 170.0385
738.6278, 170.4034
739.1099, 170.2294
739.5920, 170.4854
740.0742, 171.4766
740.5563, 172.4295
741.0384, 172.8802
741.5205, 173.2361
742.0026, 173.9247
742.4847, 175.2731
742.9669, 176.3251
743.4490, 177.0189
743.9311, 177.4716
744.4132, 177.7376
744.8953, 177.8280
745.3774, 178.2423
745.8596, 179.1821
746.3417, 180.1475
746.8238, 180.3062
747.3059, 180.0531
747.7880, 180.1751
748.2701, 181.2266
748.7523, 182.2770
749.2344, 182.9524
749.7165, 183.3240
750.1986, 183.4957
750.6807, 183.4120
751.1628, 183.2223
751.6450, 182.7805
752.1271, 182.3435
752.6092, 182.6844
753.0913, 183.8670
753.5734, 184.7843
754.0555, 184.9757
754.5377, 184.7998
755.0198, 184.7442
755.5019, 184.8162
755.9840, 185.0440
756.4661, 185.8991
756.9482, 186.4794
757.4304, 185.9987
757.9125, 184.7459
758.3946, 183.8496
758.8767, 183.7778
759.3588, 183.7500
759.8409, 183.5609
760.3231, 183.2638
760.8052, 183.2258
761.2873, 183.5187
761.7694, 183.5458
762.2515, 182.7148
762.7336, 181.5582
763.2158, 181.5236
763.6979, 182.3968
764.1800, 182.9693
764.6621, 182.2842
765.1442, 181.2342
765.6263, 180.3137
766.1085, 179.5598
766.5906, 179.0669
767.0727, 179.0803
767.5548, 179.1018
768.0369, 178.9348
768.5190, 178.5836
769.0012, 178.4166
769.4833, 178.5243
769.9654, 178.2873
770.4475, 176.8055
770.9296, 174.7559
771.4117, 174.1826
771.8939, 175.0237
772.3760, 175.5207
772.8581, 173.9048
773.3402, 171.9045
773.8223, 170.9881
774.3044, 171.4557
774.7866, 171.4778
775.2687, 170.6077
775.7508, 169.4138
776.2329, 168.0836
776.7150, 166.5635
777.1971, 165.3994
777.6793, 164.6099
778.1614, 164.0220
778.6435, 163.5499
779.1256, 163.1639
779.6077, 162.8857
780.0898, 162.7207
780.5720, 162.3282
781.0541, 161.1016
781.5362, 159.7921
782.0183, 159.1111
782.5004, 159.3786
782.9825, 159.3798
783.4647, 158.9278
783.9468, 158.2864
784.4289, 157.6243
784.9110, 156.9439
785.3931, 156.1959
785.8752, 155.3829
786.3574, 154.5124
786.8395, 153.6769
787.3216, 152.7741
787.8037, 151.4350
788.2858, 149.5624
788.7679, 147.9315
789.2501, 147.3581
789.7322, 147.0384
790.2143, 146.2554
790.6964, 144.6788
791.1785, 143.1814
791.6606, 141.8891
792.1428, 140.5676
792.6249, 138.9122
793.1070, 136.8856
793.5891, 135.4468
794.0712, 134.7429
794.5533, 134.0180
795.0355, 132.2723
795.5176, 130.0191
795.9997, 128.0965
796.4818, 126.6585
796.9639, 125.5392
797.4460, 124.9986
797.9282, 124.5250
798.4103, 123.6269
798.8924, 122.0338
799.3745, 120.5112
799.8566, 119.0724
800.3387, 117.7107
800.8209, 116.4204
801.3030, 115.2098
801.7851, 114.2262
802.2672, 113.5038
802.7493, 112.8157
803.2314, 111.8058
803.7136, 110.7472
804.1957, 110.0592
804.6778, 109.9479
805.1599, 109.7657
805.6420, 109.2355
806.1241, 108.5658
806.6063, 107.9428
807.0884, 107.3906
807.5705, 106.8030
808.0526, 106.1502
808.5347, 105.5238
809.0168, 105.0456
809.4990, 104.6798
809.9811, 104.2842
810.4632, 103.8482
810.9453, 103.3083
811.4274, 102.4334
811.9095, 101.5108
812.3917, 100.8857
812.8738, 100.7492
813.3559, 100.5617
813.8380, 100.3516
814.3201, 99.96503
814.8022, 99.20805
815.2844, 97.99123
815.7665, 97.00431
816.2486, 96.29892
816.7307, 95.69459
817.2128, 95.03307
817.6949, 94.31797
818.1771, 93.53161
818.6592, 92.66171
819.1413, 91.83634
819.6234, 91.16544
820.1055, 90.54522
820.5876, 89.89530
821.0698, 89.23511
821.5519, 88.45669
822.0340, 87.42312
822.5161, 86.47010
822.9982, 85.91272
823.4803, 85.72964
823.9625, 85.41807
824.4446, 84.94743
824.9267, 84.38627
825.4088, 83.68187
825.8909, 82.97959
826.3730, 82.53200
826.8552, 82.40112
827.3373, 82.20891
827.8194, 81.81532
828.3015, 81.31110
828.7836, 80.73093
829.2657, 80.04685
829.7479, 79.48498
830.2300, 79.09084
830.7121, 78.70235
831.1942, 78.16073
831.6763, 77.52549
832.1584, 76.96197
832.6406, 76.48449
833.1227, 76.18810
833.6048, 76.42305
834.0869, 76.66871
834.5690, 76.44077
835.0511, 75.61241
835.5333, 75.01737
836.0154, 74.84415
836.4975, 74.73158
836.9796, 74.46313
837.4617, 74.04422
837.9438, 73.88178
838.4260, 73.98006
838.9081, 74.16106
839.3902, 74.52654
839.8723, 74.77705
840.3544, 74.32021
840.8365, 73.21924
841.3187, 72.31324
841.8008, 71.90966
842.2829, 71.86887
842.7650, 72.29618
843.2471, 73.13631
843.7292, 73.57863
844.2114, 73.52710
844.6935, 73.40070
845.1756, 73.43562
845.6577, 73.53320
846.1398, 73.37873
846.6219, 73.00231
847.1041, 72.57842
847.5862, 72.04118
848.0683, 71.63795
848.5504, 71.60910
849.0325, 71.89125
849.5146, 72.13468
849.9968, 72.30894
850.4789, 72.40876
850.9610, 72.39328
851.4431, 72.31756
851.9252, 72.45030
852.4073, 72.77942
852.8895, 72.86827
853.3716, 72.31772
853.8537, 71.68761
854.3358, 71.79168
854.8179, 72.34473
855.3000, 72.66910
855.7822, 72.21169
856.2643, 71.85350
856.7464, 71.97289
857.2285, 72.30513
857.7106, 72.32366
858.1927, 71.93335
858.6749, 71.70223
859.1570, 71.78291
859.6391, 71.99879
860.1212, 72.12453
860.6033, 72.15098
861.0854, 72.02225
861.5676, 71.53872
862.0497, 71.24006
862.5318, 71.72729
863.0139, 72.45848
863.4960, 72.62794
863.9781, 71.70280
864.4603, 71.27431
864.9424, 71.57728
865.4245, 72.10953
865.9066, 72.19347
866.3887, 71.92349
866.8708, 71.81425
867.3530, 71.95432
867.8351, 72.20734
868.3172, 72.59009
868.7993, 72.95523
869.2814, 73.14350
869.7635, 73.09257
870.2457, 72.96264
870.7278, 72.74609
871.2099, 72.49282
871.6920, 72.13844
872.1741, 71.66702
872.6563, 71.89517
873.1384, 72.90132
873.6205, 73.72571
874.1026, 73.24649
874.5847, 72.28125
875.0668, 71.93961
875.5490, 72.30840
876.0311, 72.63553
876.5132, 72.60838
876.9953, 72.51062
877.4774, 72.44141
877.9595, 72.40517
878.4417, 72.57729
878.9238, 73.01351
879.4059, 73.32784
879.8880, 73.19382
880.3701, 72.84604
880.8522, 72.73782
881.3344, 72.83558
881.8165, 72.99605
882.2986, 73.28793
882.7807, 73.48360
883.2628, 73.35426
883.7449, 73.02483
884.2271, 72.98116
884.7092, 73.33762
885.1913, 73.65757
885.6734, 73.84187
886.1555, 73.90742
886.6376, 73.83378
887.1198, 73.66442
887.6019, 73.54567
888.0840, 73.52126
888.5661, 73.58007
889.0482, 73.83741
889.5303, 74.13819
890.0125, 74.22242
890.4946, 73.89507
890.9767, 73.65128
891.4588, 73.48855
891.9409, 73.46563
892.4230, 73.70560
892.9052, 74.17188
893.3873, 74.70223
893.8694, 75.32288
894.3515, 75.68803
894.8336, 75.08778
895.3157, 74.32198
895.7979, 74.28572
896.2800, 75.46761
896.7621, 76.21614
897.2442, 76.19467
897.7263, 76.02145
898.2084, 76.18154
898.6906, 76.65185
899.1727, 76.55624
899.6548, 75.89188
900.1369, 75.27785
900.6190, 75.16657
901.1011, 75.35842
901.5833, 75.80802
902.0654, 76.45191
902.5475, 76.79806
903.0296, 76.37208
903.5117, 76.00722
903.9938, 75.95340
904.4760, 76.16128
904.9581, 76.42345
905.4402, 76.73999
905.9223, 77.12558
906.4044, 77.72994
906.8865, 78.24573
907.3687, 78.22218
907.8508, 77.81950
908.3329, 77.39362
908.8150, 76.78102
909.2971, 76.54440
909.7792, 77.11237
910.2614, 77.90130
910.7435, 77.91948
911.2256, 77.07881
911.7077, 76.58797
912.1898, 76.65804
912.6719, 77.04680
913.1541, 77.76530
913.6362, 78.49114
914.1183, 78.62924
914.6004, 77.82358
915.0825, 77.27368
915.5646, 77.63239
916.0468, 78.15760
916.5289, 78.31531
917.0110, 78.01853
917.4931, 78.11340
917.9752, 78.66265
918.4573, 79.08375
918.9395, 78.75909
919.4216, 78.10020
919.9037, 77.63956
920.3858, 77.41778
920.8679, 77.52324
921.3500, 78.38078
921.8322, 79.16895
922.3143, 79.58764
922.7964, 79.66421
923.2785, 79.40356
923.7606, 78.71891
924.2427, 78.41543
924.7249, 78.97964
925.2070, 79.83958
925.6891, 80.04244
926.1712, 79.81962
926.6533, 79.68272
927.1354, 80.00658
927.6176, 80.23190
928.0997, 80.00827
928.5818, 79.70461
929.0639, 79.83052
929.5460, 80.49356
930.0281, 80.90794
930.5103, 80.95222
930.9924, 80.89748
931.4745, 81.13410
931.9566, 81.44592
932.4387, 81.41676
932.9208, 80.92647
933.4030, 80.57226
933.8851, 80.66428
934.3672, 80.90858
934.8493, 81.15588
935.3314, 81.41130
935.8135, 81.56586
936.2957, 81.61385
936.7778, 81.61303
937.2599, 81.44718
937.7420, 81.33784
938.2241, 81.81762
938.7062, 82.70293
939.1884, 83.28132
939.6705, 82.80993
940.1526, 82.52238
940.6347, 82.96223
941.1168, 83.76327
941.5989, 84.05824
942.0811, 83.80022
942.5632, 83.60387
943.0453, 83.60995
943.5274, 83.74651
944.0095, 84.01492
944.4916, 84.32420
944.9738, 84.50230
945.4559, 84.37933
945.9380, 84.43786
946.4201, 84.91703
946.9022, 85.52245
947.3843, 86.06349
947.8665, 86.54151
948.3486, 86.99046
948.8307, 87.41837
949.3128, 87.68005
949.7949, 87.45552
950.2770, 87.12986
950.7592, 87.24425
951.2413, 87.75896
951.7234, 88.11564
952.2055, 87.87508
952.6876, 87.79375
953.1697, 88.15147
953.6519, 88.79820
954.1340, 89.25489
954.6161, 89.52470
955.0982, 89.57822
955.5803, 89.20753
956.0624, 88.99705
956.5446, 89.84387
957.0267, 91.14473
957.5088, 91.98432
957.9909, 91.79749
958.4730, 91.61411
958.9551, 91.42525
959.4373, 91.32846
959.9194, 91.41245
960.4015, 91.67243
960.8836, 92.19466
961.3657, 92.98752
961.8478, 93.55223
962.3300, 93.28859
962.8121, 92.78316
963.2942, 92.49660
963.7763, 92.46721
964.2584, 92.45167
964.7405, 92.39662
965.2227, 92.44703
965.7048, 92.71091
966.1869, 93.07882
966.6690, 93.26469
967.1511, 93.29324
967.6332, 93.25764
968.1154, 93.13038
968.5975, 93.04334
969.0796, 93.09264
969.5617, 93.22321
970.0438, 93.34746
970.5259, 93.44477
971.0081, 93.56847
971.4902, 93.70982
971.9723, 93.90543
972.4544, 94.29272
972.9365, 94.74236
973.4186, 94.87625
973.9008, 94.65669
974.3829, 94.51994
974.8650, 94.79514
975.3471, 95.11950
975.8292, 95.25927
976.3113, 95.24318
976.7935, 95.48514
977.2756, 96.05383
977.7577, 96.32768
978.2398, 95.88523
978.7219, 95.18580
979.2040, 94.91695
979.6862, 94.94617
980.1683, 94.98597
980.6504, 94.88358
981.1325, 94.85591
981.6146, 94.99966
982.0967, 95.17875
982.5789, 95.23889
983.0610, 95.17871
983.5431, 95.09150
984.0252, 94.98356
984.5073, 94.83695
984.9894, 94.55281
985.4716, 94.27470
985.9537, 94.18309
986.4358, 94.29958
986.9179, 94.32192
987.4000, 94.10545
987.8821, 93.99854
988.3643, 94.20485
988.8464, 94.57050
989.3285, 94.49781
989.8106, 94.09895
990.2927, 93.94126
990.7748, 94.51999
991.2570, 95.03144
991.7391, 94.95084
992.2212, 94.48511
992.7033, 93.89745
993.1854, 92.99072
993.6675, 92.55543
994.1497, 92.66460
994.6318, 93.10391
995.1139, 93.89407
995.5960, 94.77445
996.0781, 95.21428
996.5602, 95.17815
997.0424, 94.88716
997.5245, 94.08688
998.0066, 93.43348
998.4887, 93.33139
998.9708, 93.62005
999.4529, 93.51220
999.9351, 92.97930
1000.417, 92.57720
1000.899, 92.50195
1001.381, 92.62086
1001.864, 92.95139
1002.346, 93.31100
1002.828, 93.39256
1003.310, 92.87287
1003.792, 92.52180
1004.274, 92.40102
1004.756, 92.44480
1005.238, 92.59078
1005.720, 92.84660
1006.203, 93.43233
1006.685, 94.30968
1007.167, 94.88456
1007.649, 94.46096
1008.131, 93.84983
1008.613, 93.52867
1009.095, 93.50986
1009.577, 93.64073
1010.060, 93.92364
1010.542, 94.35690
1011.024, 94.98730
1011.506, 95.66440
1011.988, 96.23642
1012.470, 96.65568
1012.952, 96.72435
1013.434, 96.19546
1013.916, 95.98949
1014.399, 96.85999
1014.881, 97.82969
1015.363, 98.26275
1015.845, 98.15234
1016.327, 97.93465
1016.809, 97.60641
1017.291, 97.50239
1017.773, 98.10326
1018.255, 98.81544
1018.738, 99.02847
1019.220, 98.87667
1019.702, 98.76244
1020.184, 98.64204
1020.666, 98.79369
1021.148, 99.36967
1021.630, 100.0365
1022.112, 100.1440
1022.595, 99.92062
1023.077, 100.2231
1023.559, 101.2295
1024.041, 102.1650
1024.523, 102.5669
1025.005, 102.7238
1025.487, 102.7548
1025.969, 102.6860
1026.452, 102.8697
1026.934, 103.3696
1027.416, 103.5568
1027.898, 102.8862
1028.380, 102.0961
1028.862, 102.3622
1029.344, 103.2700
1029.826, 104.0397
1030.308, 104.4288
1030.791, 104.6579
1031.273, 104.7006
1031.755, 104.6675
1032.237, 104.6735
1032.719, 104.7040
1033.201, 104.4776
1033.683, 104.0162
1034.165, 104.0737
1034.647, 106.0207
1035.130, 107.8629
1035.612, 108.0817
1036.094, 106.9671
1036.576, 106.3913
1037.058, 106.5565
1037.540, 106.3497
1038.022, 105.3719
1038.504, 104.2544
1038.987, 103.7809
1039.469, 103.8350
1039.951, 104.3286
1040.433, 105.4644
1040.915, 106.1750
1041.397, 105.9189
1041.879, 105.5527
1042.361, 105.6168
1042.844, 105.3270
1043.326, 105.0129
1043.808, 105.0831
1044.290, 104.5098
1044.772, 104.5052
1045.254, 104.7019
1045.736, 105.0185
1046.218, 105.3340
1046.700, 105.3812
1047.182, 104.9813
1047.665, 105.0038
1048.147, 105.6587
1048.629, 106.1855
1049.111, 105.4340
1049.593, 104.1843
1050.075, 103.7897
1050.557, 104.3349
1051.039, 104.7000
1051.522, 104.4506
1052.004, 104.0074
1052.486, 103.3649
1052.968, 102.6895
1053.450, 102.5989
1053.932, 102.9723
1054.414, 103.0592
1054.896, 102.5451
1055.379, 101.9470
1055.861, 101.4729
1056.343, 101.1873
1056.825, 101.2342
1057.307, 101.7233
1057.789, 101.7809
1058.271, 101.3348
1058.753, 100.8837
1059.235, 100.8044
1059.718, 100.8885
1060.200, 100.8202
1060.682, 100.6606
1061.164, 100.5844
1061.646, 100.7401
1062.128, 100.8592
1062.610, 100.9394
1063.092, 100.9243
1063.574, 100.7223
1064.057, 100.3596
1064.539, 99.88601
1065.021, 99.30502
1065.503, 98.89901
1065.985, 99.11168
1066.467, 99.29977
1066.949, 99.01629
1067.431, 98.37691
1067.914, 97.78033
1068.396, 97.20910
1068.878, 96.90697
1069.360, 97.03123
1069.842, 97.21439
1070.324, 96.99218
1070.806, 96.57998
1071.288, 96.23422
1071.771, 95.95442
1072.253, 95.96828
1072.735, 96.52664
1073.217, 96.81735
1073.699, 96.10873
1074.181, 94.85023
1074.663, 94.39333
1075.145, 94.54443
1075.627, 94.63628
1076.109, 94.45969
1076.592, 94.05246
1077.074, 93.05959
1077.556, 92.12505
1078.038, 92.23568
1078.520, 93.37167
1079.002, 93.39468
1079.484, 92.14240
1079.966, 90.92189
1080.448, 90.96996
1080.931, 91.28574
1081.413, 91.12564
1081.895, 90.50126
1082.377, 89.80672
1082.859, 88.90672
1083.341, 88.53455
1083.823, 88.99445
1084.305, 89.68851
1084.788, 89.92394
1085.270, 89.78259
1085.752, 89.28530
1086.234, 88.33241
1086.716, 87.64033
1087.198, 87.34153
1087.680, 87.29893
1088.162, 87.58018
1088.645, 88.00803
1089.127, 87.94400
1089.609, 87.49239
1090.091, 87.05801
1090.573, 86.77218
1091.055, 86.58936
1091.537, 86.49818
1092.019, 86.50159
1092.501, 86.61447
1092.984, 86.84782
1093.466, 87.12296
1093.948, 87.44373
1094.430, 87.55278
1094.912, 87.23794
1095.394, 86.66509
1095.876, 85.60653
1096.358, 84.41904
1096.840, 84.25381
1097.323, 85.63553
1097.805, 86.51919
1098.287, 86.59358
1098.769, 86.29550
1099.251, 85.91333
1099.733, 85.58915
1100.215, 85.62269
1100.697, 86.03239
1101.180, 86.28725
1101.662, 86.15537
1102.144, 85.99638
1102.626, 85.90488
1103.108, 85.84773
1103.590, 85.81602
1104.072, 85.75703
1104.554, 85.44943
1105.036, 84.72627
1105.519, 84.16283
1106.001, 84.12252
1106.483, 84.28425
1106.965, 84.49795
1107.447, 84.74377
1107.929, 84.66711
1108.411, 84.29073
1108.893, 83.97716
1109.375, 84.12801
1109.858, 84.12041
1110.340, 83.13170
1110.822, 81.85278
1111.304, 81.28097
1111.786, 81.66430
1112.268, 82.02869
1112.750, 82.39645
1113.232, 82.51675
1113.715, 81.97987
1114.197, 81.23856
1114.679, 80.79964
1115.161, 80.63223
1115.643, 80.56472
1116.125, 80.66171
1116.607, 80.65771
1117.089, 80.48811
1117.572, 80.28516
1118.054, 80.20784
1118.536, 80.22488
1119.018, 80.29019
1119.500, 80.39638
1119.982, 80.47733
1120.464, 80.54836
1120.946, 80.52786
1121.428, 80.35160
1121.911, 80.10224
1122.393, 80.06688
1122.875, 80.14909
1123.357, 79.83658
1123.839, 78.88786
1124.321, 78.14429
1124.803, 78.33904
1125.285, 78.69019
1125.767, 78.63021
1126.250, 78.71324
1126.732, 78.78590
1127.214, 78.50397
1127.696, 78.65533
1128.178, 78.33760
1128.660, 77.94238
1129.142, 77.75139
1129.624, 77.69913
1130.107, 77.71861
1130.589, 77.81471
1131.071, 77.94902
1131.553, 78.14255
1132.035, 78.21691
1132.517, 77.94206
1132.999, 77.56925
1133.481, 77.50375
1133.964, 77.56075
1134.446, 77.28784
1134.928, 76.21378
1135.410, 75.64091
1135.892, 75.72031
1136.374, 76.03501
1136.856, 76.19665
1137.338, 76.29879
1137.820, 76.58705
1138.302, 77.00566
1138.785, 77.18202
1139.267, 76.80025
1139.749, 76.41348
1140.231, 76.10390
1140.713, 75.84937
1141.195, 75.58134
1141.677, 75.34409
1142.159, 75.32307
1142.642, 75.54593
1143.124, 75.61546
1143.606, 74.97401
1144.088, 74.59775
1144.570, 74.95122
1145.052, 75.73701
1145.534, 76.14817
1146.016, 76.24112
1146.499, 76.33205
1146.981, 76.53590
1147.463, 76.56203
1147.945, 75.92839
1148.427, 75.34270
1148.909, 75.32711
1149.391, 75.80302
1149.873, 76.16605
1150.355, 76.40996
1150.838, 76.27769
1151.320, 75.41911
1151.802, 74.68388
1152.284, 74.95236
1152.766, 75.56501
1153.248, 75.78820
1153.730, 75.55779
1154.212, 75.30795
1154.694, 75.02481
1155.177, 74.93259
1155.659, 75.38479
1156.141, 75.85397
1156.623, 75.73524
1157.105, 75.30065
1157.587, 75.03994
1158.069, 74.99818
1158.551, 75.13815
1159.034, 75.50819
1159.516, 75.77890
1159.998, 75.65413
1160.480, 75.30620
1160.962, 74.79200
1161.444, 74.22939
1161.926, 74.00356
1162.408, 74.22495
1162.891, 74.70492
1163.373, 75.56571
1163.855, 76.23815
1164.337, 75.91169
1164.819, 75.09518
1165.301, 74.51853
1165.783, 74.23915
1166.265, 74.19827
1166.747, 74.63051
1167.229, 74.86340
1167.712, 74.73328
1168.194, 74.45103
1168.676, 74.23548
1169.158, 74.12461
1169.640, 74.34356
1170.122, 74.91806
1170.604, 75.02331
1171.086, 73.66525
1171.569, 72.80879
1172.051, 73.14089
1172.533, 74.06145
1173.015, 74.28391
1173.497, 74.07919
1173.979, 74.28596
1174.461, 75.18154
1174.943, 75.78299
1175.426, 75.48417
1175.908, 75.04890
1176.390, 74.71160
1176.872, 74.49681
1177.354, 74.61906
1177.836, 74.94075
1178.318, 74.91585
1178.800, 74.20065
1179.282, 73.67593
1179.765, 73.95901
1180.247, 74.33276
1180.729, 74.36431
1181.211, 74.13039
1181.693, 74.11300
1182.175, 74.25461
1182.657, 74.23512
1183.139, 73.79035
1183.621, 73.40089
1184.104, 73.40654
1184.586, 73.47332
1185.068, 73.32315
1185.550, 72.97215
1186.032, 72.68308
1186.514, 72.47255
1186.996, 72.49639
1187.478, 73.08464
1187.961, 73.63675
1188.443, 73.89145
1188.925, 73.93062
1189.407, 73.77025
1189.889, 73.39822
1190.371, 73.38746
1190.853, 73.72209
1191.335, 73.89916
1191.818, 73.15334
1192.300, 72.64828
1192.782, 73.53346
1193.264, 74.81925
1193.746, 74.91073
1194.228, 73.73328
1194.710, 73.32237
1195.192, 73.79501
1195.674, 74.34502
1196.156, 74.46553
1196.639, 74.40630
1197.121, 74.19003
1197.603, 73.95472
1198.085, 74.06131
1198.567, 74.54614
1199.049, 74.51421
1199.531, 73.85409
1200.013, 73.21557
1200.496, 73.08410
1200.978, 73.18797
1201.460, 73.47513
1201.942, 73.82349
1202.424, 73.85743
1202.906, 73.55797
1203.388, 73.46194
1203.870, 73.67042
1204.353, 73.90923
1204.835, 73.94681
1205.317, 73.91795
1205.799, 73.94849
1206.281, 74.00251
1206.763, 73.90730
1207.245, 73.65712
1207.727, 73.39902
1208.209, 73.14476
1208.692, 73.02026
1209.174, 73.26720
1209.656, 73.58506
1210.138, 73.70520
1210.620, 73.66317
1211.102, 73.67052
1211.584, 73.72413
1212.066, 73.98869
1212.548, 74.60941
1213.031, 75.04711
1213.513, 74.49807
1213.995, 73.83585
1214.477, 73.93521
1214.959, 74.69265
1215.441, 75.19048
1215.923, 75.43147
1216.405, 75.51067
1216.888, 75.43629
1217.370, 75.28357
1217.852, 75.04046
1218.334, 74.80562
1218.816, 74.60960
1219.298, 74.46330
1219.780, 74.89584
1220.262, 75.89595
1220.745, 76.37291
1221.227, 75.68599
1221.709, 74.90768
1222.191, 75.01671
1222.673, 75.33657
1223.155, 75.08586
1223.637, 74.27197
1224.119, 74.38229
1224.601, 75.36010
1225.083, 76.22468
1225.566, 76.58984
1226.048, 76.60205
1226.530, 76.05431
1227.012, 75.42839
1227.494, 75.20297
1227.976, 75.38103
1228.458, 75.68355
1228.940, 76.09275
1229.423, 76.32875
1229.905, 76.05920
1230.387, 75.88544
1230.869, 76.25835
1231.351, 76.84237
1231.833, 77.38600
1232.315, 77.88612
1232.797, 77.81471
1233.280, 77.24601
1233.762, 76.85313
1234.244, 77.20859
1234.726, 77.54380
1235.208, 77.26438
1235.690, 76.95572
1236.172, 77.28387
1236.654, 78.20615
1237.136, 78.31836
1237.619, 77.74472
1238.101, 77.38682
1238.583, 78.18900
1239.065, 78.73056
1239.547, 78.03846
1240.029, 77.22379
1240.511, 77.48143
1240.993, 78.60818
1241.475, 78.74686
1241.958, 78.03438
1242.440, 77.42776
1242.922, 77.48277
1243.404, 77.60589
1243.886, 77.64750
1244.368, 77.65789
1244.850, 77.70573
1245.332, 77.76333
1245.815, 77.65817
1246.297, 77.43083
1246.779, 77.30166
1247.261, 77.48254
1247.743, 77.60581
1248.225, 77.50821
1248.707, 77.47963
1249.189, 78.02535
1249.672, 78.82777
1250.154, 78.85950
1250.636, 78.26470
1251.118, 77.83141
1251.600, 77.96500
1252.082, 78.17037
1252.564, 78.46932
1253.046, 78.64950
1253.528, 78.34267
1254.010, 77.82999
1254.493, 77.69205
1254.975, 77.86967
1255.457, 77.99941
1255.939, 78.01273
1256.421, 77.86723
1256.903, 77.47609
1257.385, 77.19121
1257.867, 77.49553
1258.350, 78.04002
1258.832, 78.44979
1259.314, 78.64986
1259.796, 78.34120
1260.278, 77.10416
1260.760, 76.57250
1261.242, 77.00819
1261.724, 77.60490
1262.207, 77.50880
1262.689, 77.24034
1263.171, 77.45311
1263.653, 77.99558
1264.135, 78.24081
1264.617, 78.10581
1265.099, 77.93944
1265.581, 77.75800
1266.063, 77.71007
1266.546, 78.10442
1267.028, 78.52071
1267.510, 78.49325
1267.992, 78.23779
1268.474, 78.42640
1268.956, 79.13837
1269.438, 79.09325
1269.920, 78.16708
1270.402, 77.37727
1270.885, 77.78361
1271.367, 78.26273
1271.849, 78.07364
1272.331, 77.52841
1272.813, 77.00436
1273.295, 76.52385
1273.777, 76.51342
1274.259, 76.98473
1274.742, 77.44248
1275.224, 77.55462
1275.706, 77.62774
1276.188, 77.74680
1276.670, 77.92390
1277.152, 78.33381
1277.634, 78.82293
1278.116, 78.59217
1278.599, 77.67606
1279.081, 76.90748
1279.563, 76.72612
1280.045, 76.65016
1280.527, 76.58716
1281.009, 76.56004
1281.491, 76.65239
1281.973, 76.78268
1282.455, 76.70614
1282.938, 76.46641
1283.420, 76.40440
1283.902, 76.70913
1284.384, 77.03584
1284.866, 77.37556
1285.348, 77.62570
1285.830, 77.64311
1286.312, 77.51472
1286.794, 77.31490
1287.277, 77.06727
1287.759, 76.84012
1288.241, 76.58955
1288.723, 76.56768
1289.205, 76.83485
1289.687, 77.07890
1290.169, 76.88588
1290.651, 76.67381
1291.134, 76.96465
1291.616, 76.85119
1292.098, 76.82299
1292.580, 77.03538
1293.062, 76.80331
1293.544, 76.92607
1294.026, 77.10494
1294.508, 77.06422
1294.990, 77.08366
1295.473, 77.59929
1295.955, 78.10057
1296.437, 77.68618
1296.919, 76.52304
1297.401, 76.11301
1297.883, 76.47596
1298.365, 76.80058
1298.847, 76.56120
1299.329, 76.33841
1299.812, 76.19109
1300.294, 76.25099
1300.776, 76.85887
1301.258, 77.75009
1301.740, 78.21982
1302.222, 78.29043
1302.704, 78.23003
1303.186, 77.86673
1303.669, 77.76721
1304.151, 77.95915
1304.633, 78.44769
##END=



