##NAMES=Dravite
##RRUFFID=R050077
##IDEAL CHEMISTRY=NaMg_3_Al_6_(Si_6_O_18_)(BO_3_)_3_(OH)_3_OH
##LOCALITY=Yinnietharra Station, Western Australia, Australia
##OWNER=RRUFF
##SOURCE=Rock Currier
##DESCRIPTION=Dark brown euhedral prismatic single crystal
##STATUS=The identification of this mineral has been confirmed by X-ray diffraction and chemical analysis
##URL=rruff.info/R050077
##MEASURED CHEMISTRY=(Na_0.783_Ca_0.217_)(Mg_0.771_Fe^2+^_0.221_Ti^4+^_0.008_)_3_(Al_0.956_Mg_0.044_)_6_(BO_3_)_3_[Si_6_O_18_]((OH)_0.914_F_0.086_)_4_
174.5344, 1335.526
175.0165, 1324.608
175.4986, 1328.750
175.9807, 1343.651
176.4628, 1358.343
176.9449, 1374.477
177.4271, 1387.006
177.9092, 1393.008
178.3913, 1395.085
178.8734, 1396.046
179.3555, 1396.017
179.8376, 1396.936
180.3197, 1405.588
180.8019, 1428.035
181.2840, 1447.519
181.7661, 1458.887
182.2482, 1464.801
182.7303, 1467.893
183.2124, 1468.850
183.6946, 1468.752
184.1767, 1470.680
184.6588, 1475.084
185.1409, 1480.946
185.6230, 1486.880
186.1051, 1494.143
186.5873, 1505.153
187.0694, 1521.796
187.5515, 1540.650
188.0336, 1552.203
188.5157, 1550.457
188.9978, 1551.486
189.4800, 1559.203
189.9621, 1570.734
190.4442, 1583.632
190.9263, 1596.876
191.4084, 1610.128
191.8905, 1622.169
192.3727, 1630.712
192.8548, 1642.450
193.3369, 1658.794
193.8190, 1678.147
194.3011, 1699.066
194.7832, 1720.979
195.2654, 1744.247
195.7475, 1769.454
196.2296, 1797.242
196.7117, 1826.375
197.1938, 1858.028
197.6759, 1890.029
198.1581, 1920.221
198.6402, 1947.997
199.1223, 1974.370
199.6044, 2000.412
200.0865, 2022.554
200.5686, 2052.302
201.0508, 2097.376
201.5329, 2144.916
202.0150, 2181.425
202.4971, 2204.375
202.9792, 2225.808
203.4613, 2268.365
203.9435, 2350.055
204.4256, 2411.519
204.9077, 2437.160
205.3898, 2454.135
205.8719, 2478.515
206.3540, 2514.426
206.8362, 2558.368
207.3183, 2607.118
207.8004, 2663.315
208.2825, 2716.646
208.7646, 2766.769
209.2467, 2814.737
209.7289, 2862.328
210.2110, 2908.801
210.6931, 2951.155
211.1752, 2987.385
211.6573, 3020.354
212.1395, 3034.828
212.6216, 3016.730
213.1037, 2993.578
213.5858, 2978.093
214.0679, 2970.564
214.5500, 2964.174
215.0322, 2952.105
215.5143, 2933.471
215.9964, 2915.154
216.4785, 2902.825
216.9606, 2885.508
217.4427, 2856.200
217.9249, 2817.555
218.4070, 2777.411
218.8891, 2742.221
219.3712, 2712.126
219.8533, 2681.904
220.3354, 2643.429
220.8176, 2613.007
221.2997, 2598.313
221.7818, 2595.251
222.2639, 2596.024
222.7460, 2596.084
223.2281, 2595.024
223.7103, 2588.333
224.1924, 2564.693
224.6745, 2547.820
225.1566, 2541.890
225.6387, 2545.843
226.1208, 2559.176
226.6030, 2582.631
227.0851, 2612.826
227.5672, 2635.503
228.0493, 2647.061
228.5314, 2655.153
229.0135, 2652.519
229.4957, 2650.426
229.9778, 2663.551
230.4599, 2698.927
230.9420, 2747.203
231.4241, 2784.635
231.9062, 2799.399
232.3884, 2823.691
232.8705, 2868.069
233.3526, 2918.592
233.8347, 2963.634
234.3168, 2999.214
234.7989, 3029.779
235.2811, 3063.522
235.7632, 3105.081
236.2453, 3138.616
236.7274, 3150.373
237.2095, 3163.463
237.6916, 3198.372
238.1738, 3256.766
238.6559, 3318.847
239.1380, 3360.458
239.6201, 3377.853
240.1022, 3388.228
240.5843, 3386.629
241.0665, 3382.660
241.5486, 3382.406
242.0307, 3385.007
242.5128, 3384.266
242.9949, 3375.178
243.4770, 3357.772
243.9592, 3330.935
244.4413, 3284.793
244.9234, 3237.641
245.4055, 3202.520
245.8876, 3172.681
246.3697, 3130.351
246.8519, 3058.632
247.3340, 2961.142
247.8161, 2874.714
248.2982, 2803.593
248.7803, 2738.630
249.2624, 2676.602
249.7446, 2617.534
250.2267, 2562.049
250.7088, 2510.171
251.1909, 2461.881
251.6730, 2417.223
252.1551, 2377.327
252.6373, 2338.628
253.1194, 2297.639
253.6015, 2258.054
254.0836, 2224.530
254.5657, 2199.314
255.0478, 2178.590
255.5300, 2156.048
256.0121, 2130.908
256.4942, 2107.158
256.9763, 2085.989
257.4584, 2066.701
257.9406, 2048.670
258.4227, 2031.789
258.9048, 2016.563
259.3869, 2004.841
259.8690, 1996.896
260.3511, 1985.110
260.8333, 1961.824
261.3154, 1939.806
261.7975, 1930.121
262.2796, 1932.346
262.7617, 1934.184
263.2438, 1925.876
263.7260, 1909.121
264.2081, 1893.866
264.6902, 1881.150
265.1723, 1870.111
265.6544, 1859.021
266.1365, 1848.561
266.6187, 1841.487
267.1008, 1843.031
267.5829, 1848.130
268.0650, 1845.316
268.5471, 1832.600
269.0292, 1817.653
269.5114, 1802.528
269.9935, 1789.057
270.4756, 1781.352
270.9577, 1783.350
271.4398, 1789.198
271.9219, 1794.161
272.4041, 1798.349
272.8862, 1797.211
273.3683, 1785.152
273.8504, 1767.675
274.3325, 1756.019
274.8146, 1753.821
275.2968, 1751.733
275.7789, 1742.833
276.2610, 1728.575
276.7431, 1714.283
277.2252, 1700.648
277.7073, 1689.538
278.1895, 1684.638
278.6716, 1686.902
279.1537, 1689.212
279.6358, 1691.004
280.1179, 1690.740
280.6000, 1684.854
281.0822, 1672.022
281.5643, 1656.702
282.0464, 1642.428
282.5285, 1628.770
283.0106, 1622.625
283.4927, 1632.945
283.9749, 1645.966
284.4570, 1647.370
284.9391, 1636.793
285.4212, 1626.475
285.9033, 1627.537
286.3854, 1639.599
286.8676, 1642.801
287.3497, 1629.022
287.8318, 1615.123
288.3139, 1608.752
288.7960, 1608.837
289.2781, 1612.311
289.7603, 1618.065
290.2424, 1624.937
290.7245, 1627.812
291.2066, 1624.954
291.6887, 1620.590
292.1708, 1610.096
292.6530, 1600.286
293.1351, 1602.969
293.6172, 1621.928
294.0993, 1645.164
294.5814, 1650.659
295.0635, 1623.553
295.5457, 1606.284
296.0278, 1602.900
296.5099, 1605.673
296.9920, 1610.070
297.4741, 1615.147
297.9562, 1621.832
298.4384, 1631.769
298.9205, 1646.111
299.4026, 1655.624
299.8847, 1654.994
300.3668, 1654.990
300.8489, 1661.245
301.3311, 1671.033
301.8131, 1677.342
302.2953, 1674.513
302.7774, 1665.616
303.2595, 1667.334
303.7416, 1691.783
304.2237, 1708.922
304.7058, 1705.252
305.1880, 1695.092
305.6701, 1695.425
306.1522, 1712.839
306.6343, 1736.345
307.1164, 1746.470
307.5985, 1738.354
308.0807, 1734.849
308.5628, 1741.157
309.0449, 1752.657
309.5270, 1769.316
310.0091, 1790.271
310.4912, 1809.805
310.9734, 1822.849
311.4555, 1829.827
311.9376, 1834.497
312.4197, 1834.499
312.9018, 1836.029
313.3839, 1845.672
313.8661, 1859.967
314.3482, 1869.728
314.8303, 1871.391
315.3124, 1865.759
315.7945, 1851.855
316.2766, 1827.982
316.7588, 1805.886
317.2409, 1792.840
317.7230, 1785.579
318.2051, 1778.746
318.6872, 1771.565
319.1693, 1765.108
319.6515, 1761.396
320.1336, 1759.537
320.6157, 1754.631
321.0978, 1743.313
321.5799, 1731.012
322.0620, 1727.849
322.5442, 1735.442
323.0263, 1739.977
323.5084, 1732.574
323.9905, 1722.063
324.4726, 1720.290
324.9547, 1729.224
325.4369, 1743.329
325.9190, 1759.582
326.4011, 1778.431
326.8832, 1785.447
327.3653, 1767.675
327.8474, 1750.439
328.3296, 1748.884
328.8117, 1760.063
329.2938, 1773.332
329.7759, 1782.711
330.2580, 1789.012
330.7401, 1795.591
331.2223, 1803.191
331.7044, 1810.185
332.1865, 1814.795
332.6686, 1819.473
333.1507, 1826.814
333.6328, 1837.594
334.1150, 1850.995
334.5971, 1867.211
335.0792, 1891.486
335.5613, 1903.550
336.0434, 1888.444
336.5255, 1875.769
337.0077, 1883.863
337.4898, 1908.961
337.9719, 1934.715
338.4540, 1947.735
338.9361, 1949.694
339.4182, 1956.065
339.9004, 1971.737
340.3825, 1984.466
340.8646, 1984.911
341.3467, 1982.764
341.8288, 1992.043
342.3109, 2019.612
342.7931, 2052.704
343.2752, 2071.112
343.7573, 2072.590
344.2394, 2075.455
344.7215, 2084.360
345.2036, 2096.097
345.6858, 2107.597
346.1679, 2118.827
346.6500, 2132.740
347.1321, 2152.788
347.6142, 2176.893
348.0963, 2199.414
348.5785, 2219.564
349.0606, 2238.855
349.5427, 2253.091
350.0248, 2266.775
350.5069, 2295.011
350.9890, 2355.278
351.4712, 2419.483
351.9533, 2462.424
352.4354, 2487.880
352.9175, 2516.004
353.3996, 2556.237
353.8817, 2605.001
354.3639, 2653.658
354.8460, 2701.642
355.3281, 2750.271
355.8102, 2797.822
356.2923, 2847.003
356.7744, 2899.572
357.2566, 2956.347
357.7387, 3018.520
358.2208, 3088.122
358.7029, 3167.083
359.1850, 3243.870
359.6671, 3316.723
360.1493, 3389.183
360.6314, 3460.889
361.1135, 3533.516
361.5956, 3610.992
362.0777, 3696.653
362.5598, 3786.872
363.0420, 3868.600
363.5241, 3935.400
364.0062, 4003.685
364.4883, 4078.104
364.9704, 4152.951
365.4525, 4225.619
365.9347, 4294.458
366.4168, 4356.137
366.8989, 4406.763
367.3810, 4446.666
367.8631, 4475.889
368.3452, 4491.356
368.8274, 4498.927
369.3095, 4510.525
369.7916, 4517.662
370.2737, 4499.372
370.7558, 4438.206
371.2379, 4352.329
371.7201, 4273.020
372.2022, 4201.837
372.6843, 4123.177
373.1664, 4026.298
373.6485, 3920.784
374.1306, 3821.565
374.6128, 3730.283
375.0949, 3641.219
375.5770, 3551.811
376.0591, 3463.145
376.5412, 3376.676
377.0233, 3292.262
377.5055, 3213.772
377.9876, 3147.449
378.4697, 3095.189
378.9518, 3035.001
379.4339, 2958.135
379.9160, 2881.130
380.3982, 2811.216
380.8803, 2749.483
381.3624, 2699.005
381.8445, 2662.193
382.3266, 2634.949
382.8087, 2604.195
383.2909, 2565.305
383.7730, 2529.176
384.2551, 2497.781
384.7372, 2468.144
385.2193, 2435.925
385.7014, 2401.563
386.1836, 2370.875
386.6657, 2350.719
387.1478, 2341.744
387.6299, 2332.443
388.1120, 2324.567
388.5941, 2314.023
389.0763, 2297.942
389.5584, 2278.816
390.0405, 2259.827
390.5226, 2241.176
391.0047, 2226.097
391.4868, 2222.604
391.9690, 2232.609
392.4511, 2235.654
392.9332, 2221.472
393.4153, 2202.487
393.8974, 2188.912
394.3795, 2180.961
394.8617, 2179.446
395.3438, 2190.570
395.8259, 2206.393
396.3080, 2213.217
396.7901, 2209.554
397.2722, 2202.339
397.7544, 2196.133
398.2365, 2190.250
398.7186, 2181.489
399.2007, 2163.804
399.6828, 2150.116
400.1649, 2147.430
400.6471, 2151.582
401.1292, 2156.715
401.6113, 2160.944
402.0934, 2162.972
402.5755, 2160.946
403.0576, 2154.487
403.5398, 2144.547
404.0219, 2124.168
404.5040, 2107.120
404.9861, 2104.308
405.4682, 2110.869
405.9503, 2114.094
406.4325, 2105.734
406.9146, 2088.605
407.3967, 2072.220
407.8788, 2055.221
408.3609, 2041.981
408.8430, 2038.862
409.3252, 2035.831
409.8073, 2023.822
410.2894, 2001.853
410.7715, 1977.865
411.2536, 1957.832
411.7357, 1941.387
412.2179, 1927.328
412.7000, 1915.652
413.1821, 1906.325
413.6642, 1900.845
414.1463, 1897.638
414.6284, 1893.911
415.1106, 1889.424
415.5927, 1883.909
416.0748, 1877.829
416.5569, 1870.647
417.0390, 1860.262
417.5211, 1845.599
418.0033, 1828.822
418.4854, 1812.428
418.9675, 1795.133
419.4496, 1783.542
419.9317, 1782.240
420.4138, 1783.261
420.8960, 1781.740
421.3781, 1777.723
421.8602, 1772.695
422.3423, 1767.251
422.8244, 1762.303
423.3065, 1762.454
423.7887, 1777.551
424.2708, 1781.889
424.7529, 1765.501
425.2350, 1743.292
425.7171, 1724.443
426.1992, 1711.660
426.6814, 1706.999
427.1635, 1717.928
427.6456, 1742.287
428.1277, 1751.983
428.6098, 1740.850
429.0919, 1726.731
429.5741, 1717.564
430.0562, 1711.659
430.5383, 1707.059
431.0204, 1703.961
431.5025, 1700.649
431.9846, 1694.426
432.4668, 1686.591
432.9489, 1681.963
433.4310, 1682.025
433.9131, 1684.820
434.3952, 1688.967
434.8773, 1694.778
435.3595, 1697.762
435.8416, 1695.187
436.3237, 1691.942
436.8058, 1693.264
437.2879, 1696.440
437.7701, 1692.500
438.2522, 1676.084
438.7343, 1654.873
439.2164, 1649.176
439.6985, 1671.619
440.1806, 1687.367
440.6628, 1696.121
441.1449, 1698.663
441.6270, 1693.626
442.1091, 1682.475
442.5912, 1668.897
443.0733, 1653.125
443.5555, 1638.129
444.0376, 1636.626
444.5197, 1652.337
445.0018, 1671.207
445.4839, 1694.174
445.9660, 1714.483
446.4482, 1724.329
446.9303, 1721.898
447.4124, 1715.493
447.8945, 1709.758
448.3766, 1703.698
448.8587, 1693.856
449.3409, 1679.302
449.8230, 1667.104
450.3051, 1663.239
450.7872, 1667.081
451.2693, 1670.292
451.7514, 1671.889
452.2336, 1674.043
452.7157, 1678.188
453.1978, 1683.052
453.6799, 1686.712
454.1620, 1688.658
454.6441, 1690.077
455.1263, 1693.101
455.6084, 1699.006
456.0905, 1699.274
456.5726, 1682.216
457.0547, 1671.530
457.5368, 1680.433
458.0190, 1699.086
458.5011, 1711.033
458.9832, 1708.709
459.4653, 1700.440
459.9474, 1697.261
460.4295, 1699.224
460.9117, 1704.053
461.3938, 1713.378
461.8759, 1722.667
462.3580, 1728.927
462.8401, 1732.129
463.3222, 1731.262
463.8044, 1720.516
464.2865, 1709.925
464.7686, 1708.156
465.2507, 1714.356
465.7328, 1725.610
466.2149, 1741.583
466.6971, 1758.674
467.1792, 1769.754
467.6613, 1773.210
468.1434, 1773.256
468.6255, 1764.641
469.1076, 1757.215
469.5898, 1759.025
470.0719, 1767.630
470.5540, 1774.749
471.0361, 1774.906
471.5182, 1770.808
472.0003, 1771.221
472.4825, 1779.422
472.9646, 1783.162
473.4467, 1771.259
473.9288, 1760.284
474.4109, 1761.892
474.8930, 1775.963
475.3752, 1793.415
475.8573, 1813.576
476.3394, 1832.011
476.8215, 1839.685
477.3036, 1836.308
477.7857, 1831.046
478.2679, 1827.666
478.7500, 1825.939
479.2321, 1825.132
479.7142, 1824.144
480.1963, 1826.408
480.6784, 1834.432
481.1606, 1844.747
481.6427, 1854.686
482.1248, 1863.834
482.6069, 1872.939
483.0890, 1883.156
483.5711, 1893.239
484.0533, 1896.068
484.5354, 1886.652
485.0175, 1877.942
485.4996, 1865.483
485.9817, 1858.687
486.4638, 1869.052
486.9460, 1895.660
487.4281, 1922.158
487.9102, 1935.481
488.3923, 1938.912
488.8744, 1942.284
489.3565, 1945.928
489.8387, 1947.815
490.3208, 1945.189
490.8029, 1941.067
491.2850, 1941.585
491.7671, 1947.786
492.2492, 1955.455
492.7314, 1964.905
493.2135, 1974.072
493.6956, 1982.715
494.1777, 1989.640
494.6598, 1988.629
495.1419, 1973.376
495.6241, 1947.155
496.1062, 1930.906
496.5883, 1931.275
497.0704, 1933.004
497.5525, 1934.418
498.0346, 1936.606
498.5168, 1941.791
498.9989, 1949.424
499.4810, 1955.306
499.9631, 1956.229
500.4452, 1952.629
500.9273, 1944.821
501.4095, 1931.171
501.8916, 1920.451
502.3737, 1919.531
502.8558, 1921.910
503.3379, 1916.019
503.8200, 1898.620
504.3022, 1885.989
504.7843, 1888.829
505.2664, 1897.021
505.7485, 1899.632
506.2306, 1895.768
506.7127, 1889.052
507.1949, 1882.247
507.6770, 1873.990
508.1591, 1857.943
508.6412, 1817.909
509.1233, 1794.262
509.6054, 1801.819
510.0876, 1815.884
510.5697, 1817.677
511.0518, 1807.583
511.5339, 1798.476
512.0161, 1800.747
512.4982, 1809.906
512.9803, 1814.147
513.4624, 1813.223
513.9445, 1808.561
514.4266, 1799.887
514.9088, 1788.153
515.3909, 1772.985
515.8730, 1753.605
516.3551, 1740.191
516.8372, 1739.035
517.3193, 1742.753
517.8015, 1746.113
518.2836, 1748.284
518.7657, 1748.435
519.2478, 1746.117
519.7299, 1741.504
520.2120, 1734.070
520.6942, 1715.121
521.1763, 1710.479
521.6584, 1735.850
522.1405, 1759.121
522.6226, 1759.833
523.1047, 1744.111
523.5869, 1730.422
524.0690, 1728.782
524.5511, 1733.178
525.0332, 1734.436
525.5153, 1732.569
525.9974, 1729.050
526.4796, 1722.040
526.9617, 1717.034
527.4438, 1721.283
527.9259, 1733.685
528.4080, 1746.157
528.8901, 1761.940
529.3723, 1773.208
529.8544, 1771.704
530.3365, 1763.051
530.8186, 1759.343
531.3007, 1764.510
531.7828, 1770.436
532.2650, 1764.379
532.7471, 1742.650
533.2292, 1731.994
533.7113, 1744.479
534.1934, 1754.414
534.6755, 1750.646
535.1577, 1741.039
535.6398, 1737.152
536.1219, 1742.757
536.6040, 1749.666
537.0861, 1750.069
537.5682, 1745.640
538.0504, 1742.027
538.5325, 1740.147
539.0146, 1737.223
539.4967, 1731.403
539.9788, 1722.896
540.4609, 1713.026
540.9431, 1698.806
541.4252, 1687.321
541.9073, 1677.210
542.3894, 1672.248
542.8715, 1680.186
543.3536, 1698.703
543.8358, 1714.343
544.3179, 1715.788
544.8000, 1706.322
545.2821, 1700.946
545.7642, 1702.692
546.2463, 1700.196
546.7285, 1686.684
547.2106, 1670.709
547.6927, 1657.057
548.1748, 1646.352
548.6569, 1640.957
549.1390, 1647.066
549.6211, 1655.448
550.1032, 1655.484
550.5853, 1648.526
551.0674, 1641.250
551.5496, 1636.256
552.0317, 1632.077
552.5138, 1626.004
552.9959, 1616.314
553.4780, 1610.633
553.9601, 1610.725
554.4423, 1612.293
554.9244, 1614.416
555.4065, 1616.626
555.8886, 1618.361
556.3707, 1619.408
556.8528, 1620.346
557.3350, 1623.688
557.8171, 1628.452
558.2992, 1625.741
558.7813, 1613.070
559.2634, 1598.004
559.7455, 1583.176
560.2277, 1570.157
560.7098, 1562.946
561.1919, 1561.602
561.6740, 1565.936
562.1561, 1584.372
562.6382, 1603.303
563.1204, 1607.056
563.6025, 1595.484
564.0846, 1578.086
564.5667, 1560.207
565.0488, 1544.475
565.5309, 1543.362
566.0131, 1567.041
566.4952, 1579.599
566.9773, 1564.903
567.4594, 1545.012
567.9415, 1532.027
568.4236, 1525.899
568.9058, 1522.670
569.3879, 1519.560
569.8700, 1519.609
570.3521, 1528.657
570.8342, 1543.787
571.3163, 1555.619
571.7985, 1561.395
572.2806, 1561.949
572.7627, 1557.823
573.2448, 1548.547
573.7269, 1538.801
574.2090, 1523.572
574.6912, 1513.736
575.1733, 1515.127
575.6554, 1521.696
576.1375, 1527.746
576.6196, 1531.638
577.1017, 1532.917
577.5839, 1530.217
578.0660, 1524.591
578.5481, 1519.469
579.0302, 1514.936
579.5123, 1510.557
579.9944, 1505.728
580.4766, 1501.318
580.9587, 1499.243
581.4408, 1499.780
581.9229, 1500.822
582.4050, 1498.268
582.8871, 1499.584
583.3693, 1517.781
583.8514, 1542.790
584.3335, 1551.361
584.8156, 1532.636
585.2977, 1502.043
585.7798, 1482.190
586.2620, 1473.398
586.7441, 1473.061
587.2262, 1484.613
587.7083, 1498.827
588.1904, 1514.764
588.6725, 1528.789
589.1547, 1533.572
589.6368, 1525.011
590.1189, 1515.597
590.6010, 1508.562
591.0831, 1505.548
591.5652, 1511.777
592.0474, 1525.503
592.5295, 1535.963
593.0116, 1535.612
593.4937, 1528.055
593.9758, 1524.835
594.4579, 1529.378
594.9401, 1530.143
595.4222, 1521.552
595.9043, 1513.191
596.3864, 1509.704
596.8685, 1510.293
597.3506, 1512.318
597.8328, 1514.645
598.3149, 1518.430
598.7970, 1528.007
599.2791, 1539.601
599.7612, 1541.179
600.2433, 1530.388
600.7255, 1520.458
601.2076, 1523.425
601.6897, 1537.194
602.1718, 1544.614
602.6539, 1540.322
603.1360, 1536.753
603.6182, 1534.635
604.1003, 1533.709
604.5824, 1533.672
605.0645, 1534.601
605.5466, 1537.208
606.0287, 1543.509
606.5109, 1549.538
606.9930, 1547.172
607.4751, 1537.852
607.9572, 1533.906
608.4393, 1539.457
608.9214, 1546.619
609.4036, 1546.166
609.8857, 1538.081
610.3678, 1539.456
610.8499, 1562.985
611.3320, 1578.977
611.8141, 1573.224
612.2963, 1561.294
612.7784, 1559.724
613.2605, 1569.489
613.7426, 1579.463
614.2247, 1579.825
614.7068, 1575.627
615.1890, 1582.023
615.6711, 1599.827
616.1532, 1608.380
616.6353, 1597.286
617.1174, 1582.768
617.5995, 1583.372
618.0817, 1599.490
618.5638, 1615.961
619.0459, 1631.750
619.5280, 1648.307
620.0101, 1671.403
620.4922, 1692.987
620.9744, 1699.661
621.4565, 1691.150
621.9386, 1683.327
622.4207, 1691.533
622.9028, 1711.387
623.3849, 1725.168
623.8671, 1731.632
624.3492, 1739.473
624.8313, 1752.529
625.3134, 1766.679
625.7955, 1776.464
626.2776, 1782.189
626.7598, 1788.537
627.2419, 1796.677
627.7240, 1804.978
628.2061, 1811.662
628.6882, 1818.319
629.1703, 1827.463
629.6525, 1839.504
630.1346, 1853.119
630.6167, 1869.073
631.0988, 1885.128
631.5809, 1886.163
632.0630, 1866.616
632.5452, 1854.647
633.0273, 1867.286
633.5094, 1882.753
633.9915, 1871.387
634.4736, 1835.111
634.9557, 1813.418
635.4379, 1822.279
635.9200, 1839.190
636.4021, 1859.337
636.8842, 1876.390
637.3663, 1877.671
637.8484, 1862.150
638.3306, 1846.120
638.8127, 1846.979
639.2948, 1861.268
639.7769, 1866.405
640.2590, 1858.333
640.7411, 1855.973
641.2233, 1869.569
641.7054, 1886.401
642.1875, 1891.605
642.6696, 1886.382
643.1517, 1885.798
643.6339, 1892.872
644.1160, 1905.428
644.5981, 1927.522
645.0802, 1952.271
645.5623, 1969.014
646.0444, 1975.765
646.5266, 1977.997
647.0087, 1980.264
647.4908, 1982.529
647.9729, 1983.534
648.4550, 1981.388
648.9371, 1986.360
649.4193, 2007.927
649.9014, 2030.028
650.3835, 2036.049
650.8656, 2028.089
651.3477, 2020.500
651.8298, 2015.314
652.3120, 2011.388
652.7941, 2009.844
653.2762, 2008.403
653.7583, 2002.443
654.2404, 1992.379
654.7225, 1984.744
655.2047, 1985.121
655.6868, 1991.531
656.1689, 1998.996
656.6510, 2008.777
657.1331, 2010.820
657.6152, 1997.801
658.0974, 1983.988
658.5795, 1982.600
659.0616, 1991.569
659.5437, 2002.533
660.0258, 2019.394
660.5079, 2032.392
660.9901, 2032.931
661.4722, 2031.331
661.9543, 2039.931
662.4364, 2058.096
662.9185, 2076.131
663.4006, 2087.448
663.8828, 2095.161
664.3649, 2108.312
664.8470, 2127.379
665.3291, 2134.157
665.8112, 2120.713
666.2933, 2106.701
666.7755, 2105.305
667.2576, 2115.557
667.7397, 2131.897
668.2218, 2163.467
668.7039, 2186.187
669.1860, 2189.550
669.6682, 2187.180
670.1503, 2188.387
670.6324, 2193.528
671.1145, 2201.708
671.5966, 2213.527
672.0787, 2220.626
672.5609, 2206.303
673.0430, 2174.432
673.5251, 2153.887
674.0072, 2148.634
674.4893, 2147.147
674.9714, 2143.156
675.4536, 2137.867
675.9357, 2134.677
676.4178, 2135.909
676.8999, 2134.057
677.3820, 2127.284
677.8641, 2119.049
678.3463, 2112.127
678.8284, 2104.727
679.3105, 2092.739
679.7926, 2074.890
680.2747, 2057.258
680.7568, 2048.078
681.2390, 2042.876
681.7211, 2029.241
682.2032, 2007.317
682.6853, 1987.846
683.1674, 1975.120
683.6495, 1968.201
684.1317, 1966.040
684.6138, 1969.548
685.0959, 1973.042
685.5780, 1979.051
686.0601, 1982.007
686.5422, 1976.601
687.0244, 1969.895
687.5065, 1967.891
687.9886, 1971.808
688.4707, 1982.512
688.9528, 2007.698
689.4349, 2034.416
689.9171, 2044.764
690.3992, 2044.342
690.8813, 2050.805
691.3634, 2068.824
691.8455, 2088.414
692.3276, 2098.745
692.8098, 2101.543
693.2919, 2112.791
693.7740, 2138.382
694.2561, 2159.276
694.7382, 2164.704
695.2203, 2171.049
695.7025, 2191.272
696.1846, 2222.283
696.6667, 2252.028
697.1488, 2282.650
697.6309, 2303.727
698.1130, 2299.182
698.5952, 2287.802
699.0773, 2298.049
699.5594, 2327.297
700.0415, 2348.419
700.5236, 2343.980
701.0057, 2325.925
701.4879, 2320.589
701.9700, 2329.040
702.4521, 2326.540
702.9342, 2307.376
703.4163, 2286.573
703.8984, 2276.136
704.3806, 2268.785
704.8627, 2245.216
705.3448, 2197.047
705.8269, 2157.839
706.3090, 2140.292
706.7911, 2124.607
707.2733, 2103.036
707.7554, 2073.673
708.2375, 2032.470
708.7196, 1978.801
709.2017, 1924.960
709.6838, 1883.146
710.1660, 1849.797
710.6481, 1814.379
711.1302, 1777.313
711.6123, 1749.651
712.0944, 1736.903
712.5765, 1728.234
713.0587, 1709.935
713.5408, 1681.431
714.0229, 1655.531
714.5050, 1632.951
714.9871, 1612.303
715.4692, 1593.604
715.9514, 1576.505
716.4335, 1560.222
716.9156, 1545.225
717.3977, 1533.381
717.8798, 1525.234
718.3619, 1520.808
718.8441, 1524.772
719.3262, 1530.657
719.8083, 1525.373
720.2904, 1508.833
720.7725, 1492.376
721.2546, 1483.560
721.7368, 1480.208
722.2189, 1478.166
722.7010, 1478.235
723.1831, 1473.779
723.6652, 1462.761
724.1473, 1450.105
724.6295, 1436.839
725.1116, 1424.527
725.5937, 1416.360
726.0758, 1413.471
726.5579, 1410.976
727.0400, 1410.022
727.5222, 1407.149
728.0043, 1396.934
728.4864, 1384.632
728.9685, 1379.359
729.4506, 1383.152
729.9327, 1389.186
730.4149, 1393.274
730.8970, 1394.418
731.3791, 1387.626
731.8612, 1374.172
732.3433, 1366.814
732.8254, 1369.740
733.3076, 1376.615
733.7897, 1381.498
734.2718, 1384.388
734.7539, 1385.507
735.2360, 1385.053
735.7181, 1382.422
736.2003, 1376.091
736.6824, 1369.004
737.1645, 1360.481
737.6466, 1352.753
738.1287, 1352.527
738.6108, 1366.200
739.0930, 1376.215
739.5751, 1369.030
740.0572, 1355.369
740.5393, 1345.669
741.0214, 1341.198
741.5035, 1342.743
741.9857, 1350.741
742.4678, 1358.901
742.9499, 1356.621
743.4320, 1344.909
743.9141, 1336.789
744.3962, 1331.523
744.8784, 1336.539
745.3605, 1361.504
745.8426, 1387.909
746.3247, 1388.368
746.8068, 1359.032
747.2889, 1339.398
747.7711, 1331.878
748.2532, 1330.098
748.7353, 1338.005
749.2174, 1346.934
749.6995, 1348.454
750.1816, 1343.420
750.6638, 1338.698
751.1459, 1337.188
751.6280, 1337.763
752.1101, 1340.999
752.5922, 1345.012
753.0743, 1345.619
753.5565, 1342.840
754.0386, 1339.485
754.5207, 1336.839
755.0028, 1337.140
755.4849, 1347.628
755.9670, 1370.637
756.4492, 1380.583
756.9313, 1372.657
757.4134, 1362.441
757.8955, 1354.503
758.3776, 1349.525
758.8597, 1350.171
759.3419, 1357.380
759.8240, 1359.714
760.3061, 1357.532
760.7882, 1348.793
761.2703, 1325.104
761.7524, 1299.476
762.2346, 1285.366
762.7167, 1283.599
763.1988, 1287.182
763.6809, 1294.112
764.1630, 1301.156
764.6451, 1303.513
765.1273, 1303.281
765.6094, 1307.239
766.0915, 1315.514
766.5736, 1319.852
767.0557, 1314.821
767.5378, 1304.275
768.0200, 1295.983
768.5021, 1289.833
768.9842, 1287.240
769.4663, 1290.287
769.9484, 1292.487
770.4305, 1290.283
770.9127, 1286.208
771.3948, 1283.418
771.8769, 1281.792
772.3590, 1282.623
772.8411, 1292.587
773.3232, 1297.217
773.8054, 1283.534
774.2875, 1266.612
774.7696, 1264.982
775.2517, 1277.288
775.7338, 1286.196
776.2159, 1279.829
776.6981, 1271.288
777.1802, 1278.913
777.6623, 1294.698
778.1444, 1298.718
778.6265, 1289.921
779.1086, 1281.526
779.5908, 1281.218
780.0729, 1283.565
780.5550, 1277.275
781.0371, 1260.893
781.5192, 1250.782
782.0013, 1248.096
782.4835, 1248.912
782.9656, 1254.872
783.4477, 1260.699
783.9298, 1258.735
784.4119, 1248.815
784.8940, 1240.123
785.3762, 1230.755
785.8583, 1225.645
786.3404, 1225.484
786.8225, 1230.618
787.3046, 1250.011
787.7867, 1275.218
788.2689, 1279.301
788.7510, 1245.109
789.2331, 1206.465
789.7152, 1189.122
790.1973, 1187.074
790.6794, 1195.192
791.1616, 1209.845
791.6437, 1220.779
792.1258, 1223.646
792.6079, 1222.040
793.0900, 1220.835
793.5721, 1219.715
794.0543, 1213.651
794.5364, 1200.604
795.0185, 1196.766
795.5006, 1211.062
795.9827, 1226.612
796.4648, 1224.631
796.9470, 1207.599
797.4291, 1202.285
797.9112, 1226.707
798.3933, 1236.930
798.8754, 1215.488
799.3575, 1194.796
799.8397, 1195.671
800.3218, 1210.068
800.8039, 1222.051
801.2860, 1228.260
801.7681, 1229.949
802.2502, 1226.650
802.7324, 1220.037
803.2145, 1206.332
803.6966, 1192.106
804.1787, 1192.516
804.6608, 1209.205
805.1429, 1224.794
805.6251, 1223.723
806.1072, 1213.152
806.5893, 1207.971
807.0714, 1207.544
807.5535, 1207.364
808.0356, 1206.684
808.5178, 1206.326
808.9999, 1207.416
809.4820, 1207.952
809.9641, 1201.668
810.4462, 1183.969
810.9283, 1176.844
811.4105, 1187.990
811.8926, 1197.123
812.3747, 1194.277
812.8568, 1186.906
813.3389, 1183.283
813.8210, 1183.504
814.3032, 1184.039
814.7853, 1183.642
815.2674, 1184.433
815.7495, 1191.449
816.2316, 1196.608
816.7137, 1188.296
817.1959, 1171.481
817.6780, 1163.076
818.1601, 1171.546
818.6422, 1183.281
819.1243, 1187.858
819.6064, 1187.673
820.0886, 1184.573
820.5707, 1180.053
821.0528, 1178.148
821.5349, 1180.271
822.0170, 1185.265
822.4991, 1193.933
822.9813, 1203.320
823.4634, 1198.373
823.9455, 1178.143
824.4276, 1162.258
824.9097, 1154.663
825.3918, 1153.049
825.8740, 1158.140
826.3561, 1166.029
826.8382, 1162.507
827.3203, 1137.278
827.8024, 1124.467
828.2845, 1130.990
828.7667, 1141.660
829.2488, 1159.705
829.7309, 1173.801
830.2130, 1163.655
830.6951, 1128.675
831.1772, 1111.616
831.6594, 1140.324
832.1415, 1167.355
832.6236, 1170.585
833.1057, 1163.384
833.5878, 1158.407
834.0699, 1156.276
834.5521, 1152.011
835.0342, 1142.728
835.5163, 1134.566
835.9984, 1134.478
836.4805, 1138.506
836.9626, 1139.766
837.4448, 1139.014
837.9269, 1141.903
838.4090, 1149.954
838.8911, 1155.688
839.3732, 1150.160
839.8553, 1136.888
840.3375, 1128.207
840.8196, 1124.140
841.3017, 1124.663
841.7838, 1131.152
842.2659, 1134.983
842.7480, 1129.009
843.2302, 1118.060
843.7123, 1114.740
844.1944, 1122.327
844.6765, 1126.474
845.1586, 1124.292
845.6407, 1122.980
846.1229, 1129.534
846.6050, 1134.842
847.0871, 1126.993
847.5692, 1107.366
848.0513, 1094.417
848.5334, 1092.780
849.0156, 1095.152
849.4977, 1103.890
849.9798, 1112.043
850.4619, 1111.687
850.9440, 1107.084
851.4261, 1108.852
851.9083, 1120.689
852.3904, 1131.992
852.8725, 1137.609
853.3546, 1137.780
853.8367, 1128.472
854.3188, 1115.265
854.8010, 1111.304
855.2831, 1117.460
855.7652, 1120.232
856.2473, 1108.114
856.7294, 1091.805
857.2115, 1091.650
857.6937, 1104.103
858.1758, 1114.524
858.6579, 1121.353
859.1400, 1123.463
859.6221, 1119.876
860.1042, 1114.691
860.5864, 1114.147
861.0685, 1117.974
861.5506, 1117.894
862.0327, 1112.169
862.5148, 1109.607
862.9969, 1113.448
863.4791, 1118.541
863.9612, 1122.519
864.4433, 1124.121
864.9254, 1118.224
865.4075, 1097.344
865.8896, 1084.592
866.3718, 1081.199
866.8539, 1084.019
867.3360, 1098.033
867.8181, 1113.843
868.3002, 1121.208
868.7823, 1119.652
869.2645, 1114.342
869.7466, 1102.883
870.2287, 1092.729
870.7108, 1087.890
871.1929, 1084.632
871.6750, 1076.538
872.1572, 1067.864
872.6393, 1071.868
873.1214, 1093.726
873.6035, 1109.599
874.0856, 1094.617
874.5677, 1071.052
875.0499, 1058.988
875.5320, 1059.352
876.0141, 1080.451
876.4962, 1117.843
876.9783, 1140.547
877.4604, 1124.701
877.9426, 1095.352
878.4247, 1096.653
878.9068, 1118.949
879.3889, 1124.173
879.8710, 1111.144
880.3531, 1099.335
880.8353, 1096.513
881.3174, 1099.813
881.7995, 1107.513
882.2816, 1117.705
882.7637, 1115.497
883.2458, 1097.850
883.7280, 1092.738
884.2101, 1109.598
884.6922, 1122.621
885.1743, 1112.237
885.6564, 1090.513
886.1385, 1084.168
886.6207, 1096.818
887.1028, 1109.249
887.5849, 1129.276
888.0670, 1136.099
888.5491, 1110.699
889.0313, 1081.878
889.5134, 1076.300
889.9955, 1089.098
890.4776, 1097.900
890.9597, 1100.935
891.4418, 1100.443
891.9240, 1093.253
892.4061, 1086.377
892.8882, 1082.316
893.3703, 1081.439
893.8524, 1085.727
894.3345, 1094.683
894.8167, 1100.260
895.2988, 1093.555
895.7809, 1089.562
896.2630, 1100.189
896.7451, 1114.564
897.2272, 1123.162
897.7094, 1125.151
898.1915, 1121.407
898.6736, 1112.219
899.1557, 1100.972
899.6378, 1085.404
900.1199, 1073.269
900.6021, 1078.943
901.0842, 1094.072
901.5663, 1099.356
902.0484, 1093.228
902.5305, 1088.861
903.0126, 1094.512
903.4948, 1105.516
903.9769, 1118.545
904.4590, 1130.854
904.9411, 1132.117
905.4232, 1123.106
905.9053, 1110.324
906.3875, 1096.039
906.8696, 1090.011
907.3517, 1104.650
907.8338, 1129.724
908.3159, 1127.495
908.7980, 1097.674
909.2802, 1084.479
909.7623, 1094.358
910.2444, 1106.764
910.7265, 1112.079
911.2086, 1114.136
911.6907, 1119.198
912.1729, 1127.108
912.6550, 1125.556
913.1371, 1109.707
913.6192, 1100.142
914.1013, 1103.124
914.5834, 1107.632
915.0656, 1104.969
915.5477, 1099.806
916.0298, 1104.131
916.5119, 1123.200
916.9940, 1131.955
917.4761, 1124.599
917.9583, 1115.109
918.4404, 1103.574
918.9225, 1093.779
919.4046, 1088.889
919.8867, 1088.251
920.3688, 1089.576
920.8510, 1094.424
921.3331, 1097.360
921.8152, 1093.461
922.2973, 1092.285
922.7794, 1102.642
923.2615, 1115.272
923.7437, 1117.780
924.2258, 1110.779
924.7079, 1106.646
925.1900, 1110.414
925.6721, 1115.435
926.1542, 1120.477
926.6364, 1124.335
927.1185, 1126.827
927.6006, 1127.089
928.0827, 1122.568
928.5648, 1113.288
929.0469, 1105.563
929.5291, 1103.240
930.0112, 1103.371
930.4933, 1103.776
930.9754, 1105.345
931.4575, 1110.264
931.9396, 1117.270
932.4218, 1123.338
932.9039, 1127.343
933.3860, 1127.966
933.8681, 1122.667
934.3502, 1114.486
934.8323, 1104.060
935.3145, 1094.915
935.7966, 1096.267
936.2787, 1107.275
936.7608, 1118.427
937.2429, 1124.753
937.7250, 1127.954
938.2072, 1128.717
938.6893, 1128.482
939.1714, 1131.918
939.6535, 1137.508
940.1356, 1137.930
940.6177, 1132.172
941.0999, 1128.018
941.5820, 1131.470
942.0641, 1136.910
942.5462, 1130.877
943.0283, 1117.276
943.5104, 1120.520
943.9926, 1139.714
944.4747, 1148.394
944.9568, 1138.200
945.4389, 1123.713
945.9210, 1117.295
946.4031, 1118.058
946.8853, 1126.058
947.3674, 1141.229
947.8495, 1146.787
948.3316, 1140.572
948.8137, 1138.371
949.2958, 1147.121
949.7780, 1157.705
950.2601, 1159.549
950.7422, 1154.637
951.2243, 1153.589
951.7064, 1156.903
952.1885, 1160.436
952.6707, 1162.940
953.1528, 1169.646
953.6349, 1185.282
954.1170, 1201.285
954.5991, 1204.982
955.0812, 1197.199
955.5634, 1197.182
956.0455, 1208.036
956.5276, 1217.702
957.0097, 1227.396
957.4918, 1229.579
957.9739, 1215.162
958.4561, 1196.347
958.9382, 1194.041
959.4203, 1209.682
959.9024, 1221.657
960.3845, 1232.227
960.8666, 1234.142
961.3488, 1219.824
961.8309, 1205.536
962.3130, 1201.500
962.7951, 1204.022
963.2772, 1206.469
963.7593, 1209.364
964.2415, 1209.323
964.7236, 1201.053
965.2057, 1197.548
965.6878, 1206.913
966.1699, 1215.913
966.6520, 1214.121
967.1342, 1206.207
967.6163, 1203.002
968.0984, 1206.031
968.5805, 1208.641
969.0626, 1208.739
969.5447, 1210.768
970.0269, 1215.650
970.5090, 1223.031
970.9911, 1236.804
971.4732, 1252.298
971.9553, 1256.609
972.4374, 1245.310
972.9196, 1234.505
973.4017, 1226.658
973.8838, 1219.217
974.3659, 1207.904
974.8480, 1199.478
975.3301, 1205.440
975.8123, 1219.126
976.2944, 1217.117
976.7765, 1186.468
977.2586, 1171.243
977.7407, 1198.924
978.2228, 1222.529
978.7050, 1217.290
979.1871, 1201.394
979.6692, 1192.141
980.1513, 1189.157
980.6334, 1184.795
981.1155, 1176.322
981.5977, 1169.963
982.0798, 1167.015
982.5619, 1167.271
983.0440, 1173.105
983.5261, 1180.276
984.0082, 1185.370
984.4904, 1187.581
984.9725, 1185.033
985.4546, 1173.945
985.9367, 1167.939
986.4188, 1176.057
986.9009, 1185.943
987.3831, 1193.246
987.8652, 1196.329
988.3473, 1190.886
988.8294, 1179.437
989.3115, 1172.451
989.7936, 1174.080
990.2758, 1177.409
990.7579, 1183.563
991.2400, 1186.190
991.7221, 1173.199
992.2042, 1159.620
992.6863, 1168.744
993.1685, 1196.234
993.6506, 1213.407
994.1327, 1208.111
994.6148, 1199.368
995.0969, 1190.707
995.5790, 1186.715
996.0612, 1195.297
996.5433, 1207.339
997.0254, 1211.248
997.5075, 1207.072
997.9896, 1201.828
998.4717, 1196.744
998.9539, 1194.407
999.4360, 1198.870
999.9181, 1203.423
1000.400, 1199.381
1000.882, 1195.201
1001.364, 1205.732
1001.847, 1227.578
1002.329, 1240.379
1002.811, 1235.053
1003.293, 1226.595
1003.775, 1217.430
1004.257, 1212.510
1004.739, 1217.037
1005.221, 1226.731
1005.703, 1237.844
1006.186, 1248.791
1006.668, 1257.266
1007.150, 1262.650
1007.632, 1264.729
1008.114, 1260.129
1008.596, 1255.818
1009.078, 1254.036
1009.560, 1256.717
1010.043, 1269.405
1010.525, 1288.655
1011.007, 1301.140
1011.489, 1301.068
1011.971, 1300.625
1012.453, 1303.743
1012.935, 1309.590
1013.417, 1322.138
1013.899, 1333.851
1014.382, 1334.594
1014.864, 1326.713
1015.346, 1320.602
1015.828, 1319.060
1016.310, 1319.618
1016.792, 1321.554
1017.274, 1325.099
1017.756, 1328.148
1018.239, 1334.596
1018.721, 1354.455
1019.203, 1380.662
1019.685, 1389.400
1020.167, 1369.268
1020.649, 1362.091
1021.131, 1399.261
1021.613, 1430.309
1022.095, 1423.751
1022.578, 1407.526
1023.060, 1408.665
1023.542, 1421.931
1024.024, 1428.110
1024.506, 1422.192
1024.988, 1419.123
1025.470, 1427.612
1025.952, 1433.248
1026.435, 1422.612
1026.917, 1414.430
1027.399, 1431.044
1027.881, 1459.586
1028.363, 1470.166
1028.845, 1456.662
1029.327, 1445.102
1029.809, 1435.742
1030.292, 1435.046
1030.774, 1452.236
1031.256, 1471.121
1031.738, 1480.237
1032.220, 1483.636
1032.702, 1490.757
1033.184, 1503.136
1033.666, 1506.362
1034.148, 1490.831
1034.630, 1477.989
1035.113, 1472.313
1035.595, 1469.043
1036.077, 1463.697
1036.559, 1460.112
1037.041, 1466.750
1037.523, 1484.212
1038.005, 1492.241
1038.487, 1482.401
1038.970, 1476.550
1039.452, 1477.828
1039.934, 1480.869
1040.416, 1485.063
1040.898, 1488.296
1041.380, 1486.138
1041.862, 1479.685
1042.344, 1482.340
1042.826, 1507.220
1043.309, 1510.687
1043.791, 1474.438
1044.273, 1448.696
1044.755, 1457.315
1045.237, 1476.126
1045.719, 1481.043
1046.201, 1475.102
1046.683, 1472.895
1047.166, 1477.231
1047.648, 1474.071
1048.130, 1457.301
1048.612, 1452.123
1049.094, 1470.113
1049.576, 1492.298
1050.058, 1504.717
1050.540, 1506.695
1051.022, 1493.662
1051.505, 1462.923
1051.987, 1445.260
1052.469, 1442.823
1052.951, 1440.610
1053.433, 1434.959
1053.915, 1430.199
1054.397, 1429.580
1054.879, 1430.367
1055.361, 1427.743
1055.844, 1421.789
1056.326, 1411.836
1056.808, 1397.861
1057.290, 1390.616
1057.772, 1391.974
1058.254, 1396.215
1058.736, 1400.664
1059.218, 1402.894
1059.701, 1399.740
1060.183, 1391.724
1060.665, 1378.364
1061.147, 1361.322
1061.629, 1349.540
1062.111, 1344.013
1062.593, 1345.536
1063.075, 1353.919
1063.557, 1358.620
1064.040, 1348.006
1064.522, 1330.400
1065.004, 1317.528
1065.486, 1310.943
1065.968, 1322.016
1066.450, 1342.963
1066.932, 1342.572
1067.414, 1315.821
1067.896, 1291.838
1068.379, 1291.477
1068.861, 1298.263
1069.343, 1296.489
1069.825, 1288.158
1070.307, 1270.503
1070.789, 1250.743
1071.271, 1244.269
1071.753, 1250.534
1072.236, 1255.920
1072.718, 1254.487
1073.200, 1249.990
1073.682, 1245.292
1074.164, 1238.538
1074.646, 1224.627
1075.128, 1210.296
1075.610, 1204.023
1076.093, 1204.612
1076.575, 1209.069
1077.057, 1217.047
1077.539, 1214.208
1078.021, 1177.507
1078.503, 1150.882
1078.985, 1166.886
1079.467, 1188.100
1079.949, 1181.994
1080.432, 1162.602
1080.914, 1156.713
1081.396, 1166.636
1081.878, 1173.023
1082.360, 1173.708
1082.842, 1168.663
1083.324, 1150.625
1083.806, 1135.542
1084.288, 1132.898
1084.771, 1135.117
1085.253, 1133.784
1085.735, 1130.008
1086.217, 1130.202
1086.699, 1140.390
1087.181, 1137.658
1087.663, 1112.673
1088.145, 1093.825
1088.628, 1089.891
1089.110, 1091.369
1089.592, 1092.126
1090.074, 1092.641
1090.556, 1094.178
1091.038, 1096.836
1091.520, 1098.187
1092.002, 1098.807
1092.484, 1093.401
1092.967, 1080.127
1093.449, 1066.654
1093.931, 1056.130
1094.413, 1051.020
1094.895, 1055.583
1095.377, 1066.658
1095.859, 1074.243
1096.341, 1077.882
1096.823, 1069.692
1097.306, 1051.359
1097.788, 1044.460
1098.270, 1055.464
1098.752, 1073.013
1099.234, 1090.417
1099.716, 1099.477
1100.198, 1080.439
1100.680, 1047.755
1101.163, 1027.687
1101.645, 1020.213
1102.127, 1026.327
1102.609, 1041.943
1103.091, 1051.121
1103.573, 1045.865
1104.055, 1041.836
1104.537, 1059.606
1105.020, 1076.255
1105.502, 1064.007
1105.984, 1043.435
1106.466, 1041.343
1106.948, 1051.775
1107.430, 1056.654
1107.912, 1052.059
1108.394, 1045.056
1108.876, 1036.526
1109.359, 1029.116
1109.841, 1023.629
1110.323, 1019.801
1110.805, 1018.874
1111.287, 1018.587
1111.769, 1014.548
1112.251, 1008.263
1112.733, 1008.702
1113.215, 1021.596
1113.698, 1028.805
1114.180, 1023.607
1114.662, 1022.915
1115.144, 1037.204
1115.626, 1047.124
1116.108, 1036.588
1116.590, 1016.334
1117.072, 1006.104
1117.555, 1005.933
1118.037, 1008.722
1118.519, 1015.621
1119.001, 1018.690
1119.483, 1016.565
1119.965, 1013.672
1120.447, 1012.021
1120.929, 1008.675
1121.411, 999.4896
1121.894, 989.1578
1122.376, 991.8611
1122.858, 1004.763
1123.340, 1015.277
1123.822, 1021.918
1124.304, 1018.656
1124.786, 1005.555
1125.268, 993.3364
1125.750, 988.1437
1126.233, 985.5986
1126.715, 981.4624
1127.197, 976.5884
1127.679, 968.4397
1128.161, 962.6576
1128.643, 975.0034
1129.125, 996.3610
1129.607, 998.8752
1130.090, 977.2193
1130.572, 957.4768
1131.054, 952.2276
1131.536, 952.8257
1132.018, 959.9232
1132.500, 965.5762
1132.982, 964.2400
1133.464, 958.4510
1133.947, 947.8639
1134.429, 935.7690
1134.911, 933.8743
1135.393, 947.0823
1135.875, 958.3834
1136.357, 968.1684
1136.839, 973.1982
1137.321, 971.1488
1137.803, 966.6039
1138.286, 960.5791
1138.768, 955.5015
1139.250, 955.6745
1139.732, 960.2283
1140.214, 960.1575
1140.696, 954.3386
1141.178, 953.6313
1141.660, 959.4828
1142.142, 961.4754
1142.625, 956.0873
1143.107, 949.4580
1143.589, 946.3148
1144.071, 944.8990
1144.553, 942.1060
1145.035, 938.5492
1145.517, 934.5911
1145.999, 931.7787
1146.482, 938.4588
1146.964, 951.5858
1147.446, 952.4778
1147.928, 935.3843
1148.410, 923.5803
1148.892, 938.9501
1149.374, 958.5365
1149.856, 962.5604
1150.339, 960.2899
1150.821, 959.0264
1151.303, 958.9016
1151.785, 960.1307
1152.267, 961.6843
1152.749, 959.7227
1153.231, 952.3135
1153.713, 945.4315
1154.195, 937.5629
1154.677, 934.3334
1155.160, 944.0946
1155.642, 951.4506
1156.124, 941.3457
1156.606, 928.0317
1157.088, 935.4901
1157.570, 960.7191
1158.052, 966.2805
1158.534, 945.7129
1159.017, 936.3699
1159.499, 942.5713
1159.981, 944.3905
1160.463, 935.2503
1160.945, 926.1254
1161.427, 925.1500
1161.909, 927.6979
1162.391, 925.6881
1162.874, 920.8469
1163.356, 917.9778
1163.838, 917.4705
1164.320, 923.2394
1164.802, 932.8825
1165.284, 933.8053
1165.766, 923.6151
1166.248, 920.0540
1166.730, 939.6512
1167.213, 957.4997
1167.695, 950.5449
1168.177, 935.3286
1168.659, 921.5317
1169.141, 912.0617
1169.623, 910.7630
1170.105, 915.6442
1170.587, 920.6125
1171.069, 924.4091
1171.552, 929.9805
1172.034, 945.1321
1172.516, 950.5853
1172.998, 932.8259
1173.480, 920.7089
1173.962, 932.1678
1174.444, 946.1581
1174.926, 937.9941
1175.409, 916.7689
1175.891, 917.4036
1176.373, 942.8641
1176.855, 943.4286
1177.337, 918.2491
1177.819, 909.4135
1178.301, 924.2717
1178.783, 935.1919
1179.266, 928.6907
1179.748, 918.7510
1180.230, 919.7751
1180.712, 926.9452
1181.194, 935.3947
1181.676, 942.6251
1182.158, 942.0965
1182.640, 937.6659
1183.122, 939.3020
1183.604, 946.1538
1184.087, 947.7657
1184.569, 939.9171
1185.051, 929.8597
1185.533, 913.0922
1186.015, 905.4910
1186.497, 922.1055
1186.979, 941.2610
1187.461, 948.6768
1187.944, 948.9386
1188.426, 950.0440
1188.908, 951.0090
1189.390, 944.3980
1189.872, 925.8351
1190.354, 915.1987
1190.836, 913.2974
1191.318, 917.1949
1191.801, 927.7729
1192.283, 932.5900
1192.765, 923.7877
1193.247, 912.1450
1193.729, 911.5039
1194.211, 917.4236
1194.693, 918.4026
1195.175, 917.3279
1195.657, 924.8866
1196.140, 936.7662
1196.622, 938.0284
1197.104, 927.9357
1197.586, 918.2621
1198.068, 914.1237
1198.550, 911.6539
1199.032, 909.6026
1199.514, 907.0047
1199.996, 899.3703
1200.479, 895.0128
1200.961, 903.9295
1201.443, 918.1859
1201.925, 926.9907
1202.407, 929.7812
1202.889, 928.0179
1203.371, 917.7904
1203.853, 916.6301
1204.336, 929.2778
1204.818, 934.6812
1205.300, 926.7626
1205.782, 920.2023
1206.264, 923.1877
1206.746, 928.7974
1207.228, 928.6263
1207.710, 925.3966
1208.193, 925.9317
1208.675, 929.0209
1209.157, 931.8618
1209.639, 933.9433
1210.121, 933.3303
1210.603, 930.8897
1211.085, 932.1289
1211.567, 939.3719
1212.049, 943.3838
1212.531, 935.8723
1213.014, 927.1806
1213.496, 920.1238
1213.978, 916.7321
1214.460, 924.2706
1214.942, 932.0172
1215.424, 922.1906
1215.906, 901.4558
1216.388, 896.3340
1216.871, 910.2522
1217.353, 918.7118
1217.835, 920.6243
1218.317, 921.3564
1218.799, 921.2761
1219.281, 923.2172
1219.763, 928.6303
1220.245, 932.3993
1220.728, 929.0864
1221.210, 924.5742
1221.692, 933.7050
1222.174, 946.4507
1222.656, 938.7602
1223.138, 919.9824
1223.620, 906.4637
1224.102, 901.6164
1224.584, 911.2282
1225.067, 934.2958
##END=



