##NAMES=Duftite
##RRUFFID=R040160
##IDEAL CHEMISTRY=Pb^2+^Cu^2+^As^5+^O_4_(OH)
##LOCALITY=Tsumeb mine, Tsumeb, Otavi District, Oshikoto, Namibia
##OWNER=RRUFF
##SOURCE=University of Arizona Mineral Museum
##DESCRIPTION=Green crystalline coating
##STATUS=The identification of this mineral has been confirmed by X-ray diffraction and chemical analysis
##URL=rruff.info/R040160
##MEASURED CHEMISTRY=(Pb_0.96_Zn_0.04_)_Î£=1_Cu_1.00_As_1.00_O_4_(OH); OH estimated by charge balance
165.3741, 2141.058
165.8563, 2162.162
166.3384, 2196.660
166.8205, 2240.119
167.3026, 2286.909
167.7847, 2346.720
168.2668, 2404.830
168.7490, 2422.964
169.2311, 2382.127
169.7132, 2344.285
170.1953, 2344.780
170.6774, 2368.966
171.1595, 2395.994
171.6417, 2419.784
172.1238, 2438.910
172.6059, 2448.693
173.0880, 2445.280
173.5701, 2439.865
174.0522, 2436.014
174.5344, 2433.835
175.0165, 2433.872
175.4986, 2437.121
175.9807, 2442.295
176.4628, 2445.619
176.9449, 2445.613
177.4271, 2446.518
177.9092, 2450.761
178.3913, 2456.564
178.8734, 2461.315
179.3555, 2463.270
179.8376, 2463.849
180.3197, 2467.611
180.8019, 2476.807
181.2840, 2485.266
181.7661, 2491.589
182.2482, 2496.055
182.7303, 2498.757
183.2124, 2499.506
183.6946, 2498.908
184.1767, 2499.050
184.6588, 2502.071
185.1409, 2501.803
185.6230, 2494.124
186.1051, 2483.741
186.5873, 2475.863
187.0694, 2472.913
187.5515, 2473.843
188.0336, 2476.612
188.5157, 2484.964
188.9978, 2488.219
189.4800, 2479.239
189.9621, 2466.865
190.4442, 2461.402
190.9263, 2468.000
191.4084, 2480.380
191.8905, 2482.345
192.3727, 2464.863
192.8548, 2452.988
193.3369, 2454.051
193.8190, 2460.267
194.3011, 2463.830
194.7832, 2461.600
195.2654, 2456.908
195.7475, 2457.435
196.2296, 2467.647
196.7117, 2474.718
197.1938, 2475.024
197.6759, 2473.115
198.1581, 2474.675
198.6402, 2481.378
199.1223, 2487.273
199.6044, 2479.348
200.0865, 2445.031
200.5686, 2422.237
201.0508, 2417.525
201.5329, 2421.169
202.0150, 2427.575
202.4971, 2434.695
202.9792, 2441.408
203.4613, 2445.991
203.9435, 2448.246
204.4256, 2448.548
204.9077, 2444.644
205.3898, 2440.687
205.8719, 2440.644
206.3540, 2444.776
206.8362, 2449.015
207.3183, 2447.010
207.8004, 2434.791
208.2825, 2426.521
208.7646, 2423.742
209.2467, 2423.228
209.7289, 2422.155
210.2110, 2420.802
210.6931, 2422.641
211.1752, 2433.841
211.6573, 2460.083
212.1395, 2474.178
212.6216, 2470.517
213.1037, 2460.508
213.5858, 2444.795
214.0679, 2426.417
214.5500, 2412.462
215.0322, 2411.661
215.5143, 2427.163
215.9964, 2434.808
216.4785, 2421.275
216.9606, 2412.350
217.4427, 2422.195
217.9249, 2446.163
218.4070, 2469.511
218.8891, 2480.029
219.3712, 2477.429
219.8533, 2472.287
220.3354, 2457.698
220.8176, 2447.300
221.2997, 2448.168
221.7818, 2456.141
222.2639, 2462.208
222.7460, 2459.266
223.2281, 2448.702
223.7103, 2445.833
224.1924, 2462.572
224.6745, 2474.231
225.1566, 2472.292
225.6387, 2462.756
226.1208, 2454.142
226.6030, 2451.054
227.0851, 2453.303
227.5672, 2460.672
228.0493, 2481.156
228.5314, 2495.862
229.0135, 2501.609
229.4957, 2500.296
229.9778, 2492.630
230.4599, 2478.662
230.9420, 2461.982
231.4241, 2451.099
231.9062, 2446.340
232.3884, 2447.904
232.8705, 2460.365
233.3526, 2475.602
233.8347, 2486.515
234.3168, 2490.766
234.7989, 2491.491
235.2811, 2494.406
235.7632, 2501.958
236.2453, 2505.733
236.7274, 2501.301
237.2095, 2495.955
237.6916, 2494.567
238.1738, 2498.034
238.6559, 2503.911
239.1380, 2509.845
239.6201, 2516.545
240.1022, 2520.592
240.5843, 2522.014
241.0665, 2520.646
241.5486, 2513.969
242.0307, 2503.309
242.5128, 2494.121
242.9949, 2492.299
243.4770, 2498.540
243.9592, 2503.714
244.4413, 2502.996
244.9234, 2506.072
245.4055, 2524.458
245.8876, 2550.589
246.3697, 2564.739
246.8519, 2547.378
247.3340, 2503.500
247.8161, 2479.467
248.2982, 2485.611
248.7803, 2499.526
249.2624, 2517.887
249.7446, 2537.206
250.2267, 2552.529
250.7088, 2561.661
251.1909, 2564.725
251.6730, 2560.590
252.1551, 2543.405
252.6373, 2531.052
253.1194, 2531.290
253.6015, 2537.863
254.0836, 2544.863
254.5657, 2550.538
255.0478, 2554.467
255.5300, 2555.374
256.0121, 2552.257
256.4942, 2549.907
256.9763, 2548.273
257.4584, 2548.797
257.9406, 2554.038
258.4227, 2564.714
258.9048, 2575.446
259.3869, 2579.809
259.8690, 2577.472
260.3511, 2576.375
260.8333, 2576.579
261.3154, 2580.058
261.7975, 2590.571
262.2796, 2607.448
262.7617, 2621.623
263.2438, 2624.257
263.7260, 2617.629
264.2081, 2615.388
264.6902, 2621.106
265.1723, 2628.085
265.6544, 2630.359
266.1365, 2629.504
266.6187, 2630.822
267.1008, 2637.300
267.5829, 2647.552
268.0650, 2660.132
268.5471, 2676.784
269.0292, 2689.895
269.5114, 2691.291
269.9935, 2685.685
270.4756, 2680.116
270.9577, 2672.204
271.4398, 2668.493
271.9219, 2680.177
272.4041, 2707.826
272.8862, 2732.119
273.3683, 2743.808
273.8504, 2745.377
274.3325, 2742.176
274.8146, 2730.437
275.2968, 2721.196
275.7789, 2721.443
276.2610, 2730.278
276.7431, 2745.217
277.2252, 2768.016
277.7073, 2793.061
278.1895, 2811.441
278.6716, 2823.144
279.1537, 2830.816
279.6358, 2831.823
280.1179, 2830.164
280.6000, 2832.501
281.0822, 2840.331
281.5643, 2852.063
282.0464, 2866.894
282.5285, 2885.031
283.0106, 2902.631
283.4927, 2916.059
283.9749, 2930.800
284.4570, 2955.343
284.9391, 2989.153
285.4212, 3018.841
285.9033, 3031.400
286.3854, 3027.251
286.8676, 3034.442
287.3497, 3062.380
287.8318, 3091.421
288.3139, 3112.373
288.7960, 3126.770
289.2781, 3138.996
289.7603, 3150.987
290.2424, 3163.478
290.7245, 3179.513
291.2066, 3201.319
291.6887, 3223.648
292.1708, 3246.562
292.6530, 3269.288
293.1351, 3291.231
293.6172, 3312.148
294.0993, 3331.441
294.5814, 3347.636
295.0635, 3357.308
295.5457, 3370.541
296.0278, 3388.767
296.5099, 3409.126
296.9920, 3432.039
297.4741, 3456.129
297.9562, 3475.939
298.4384, 3484.746
298.9205, 3480.045
299.4026, 3481.926
299.8847, 3493.744
300.3668, 3508.538
300.8489, 3525.961
301.3311, 3544.569
301.8131, 3562.510
302.2953, 3579.089
302.7774, 3593.502
303.2595, 3600.928
303.7416, 3593.716
304.2237, 3590.788
304.7058, 3600.430
305.1880, 3613.970
305.6701, 3620.688
306.1522, 3616.371
306.6343, 3609.080
307.1164, 3614.526
307.5985, 3638.577
308.0807, 3653.341
308.5628, 3641.426
309.0449, 3627.312
309.5270, 3627.685
310.0091, 3643.112
310.4912, 3658.922
310.9734, 3660.444
311.4555, 3649.301
311.9376, 3643.682
312.4197, 3647.512
312.9018, 3653.307
313.3839, 3657.024
313.8661, 3658.916
314.3482, 3659.375
314.8303, 3654.705
315.3124, 3650.404
315.7945, 3658.778
316.2766, 3682.333
316.7588, 3703.773
317.2409, 3712.154
317.7230, 3712.760
318.2051, 3714.178
318.6872, 3717.376
319.1693, 3721.502
319.6515, 3728.100
320.1336, 3735.783
320.6157, 3737.349
321.0978, 3727.990
321.5799, 3715.182
322.0620, 3712.075
322.5442, 3720.265
323.0263, 3725.775
323.5084, 3719.879
323.9905, 3711.148
324.4726, 3712.552
324.9547, 3726.215
325.4369, 3741.228
325.9190, 3747.187
326.4011, 3743.001
326.8832, 3738.966
327.3653, 3731.929
327.8474, 3727.859
328.3296, 3733.942
328.8117, 3746.382
329.2938, 3753.633
329.7759, 3748.475
330.2580, 3733.776
330.7401, 3722.682
331.2223, 3724.276
331.7044, 3718.108
332.1865, 3693.489
332.6686, 3663.957
333.1507, 3646.051
333.6328, 3644.168
334.1150, 3647.280
334.5971, 3638.936
335.0792, 3615.805
335.5613, 3589.765
336.0434, 3556.286
336.5255, 3524.280
337.0077, 3499.499
337.4898, 3480.766
337.9719, 3463.241
338.4540, 3444.371
338.9361, 3423.557
339.4182, 3394.210
339.9004, 3346.398
340.3825, 3305.226
340.8646, 3280.304
341.3467, 3264.398
341.8288, 3249.146
342.3109, 3231.682
342.7931, 3212.198
343.2752, 3190.593
343.7573, 3166.564
344.2394, 3142.328
344.7215, 3118.997
345.2036, 3094.983
345.6858, 3066.598
346.1679, 3034.006
346.6500, 3006.726
347.1321, 2996.359
347.6142, 2995.824
348.0963, 2983.446
348.5785, 2953.502
349.0606, 2922.834
349.5427, 2904.729
350.0248, 2896.522
350.5069, 2891.482
350.9890, 2894.541
351.4712, 2895.492
351.9533, 2883.055
352.4354, 2859.783
352.9175, 2839.413
353.3996, 2829.085
353.8817, 2824.862
354.3639, 2816.585
354.8460, 2804.087
355.3281, 2789.216
355.8102, 2768.747
356.2923, 2747.757
356.7744, 2732.430
357.2566, 2724.006
357.7387, 2720.502
358.2208, 2720.354
358.7029, 2724.724
359.1850, 2725.789
359.6671, 2723.423
360.1493, 2718.469
360.6314, 2710.582
361.1135, 2700.426
361.5956, 2688.366
362.0777, 2674.085
362.5598, 2659.656
363.0420, 2653.553
363.5241, 2667.364
364.0062, 2670.468
364.4883, 2648.331
364.9704, 2622.058
365.4525, 2610.701
365.9347, 2617.682
366.4168, 2630.409
366.8989, 2636.395
367.3810, 2635.609
367.8631, 2628.301
368.3452, 2605.866
368.8274, 2587.317
369.3095, 2584.747
369.7916, 2593.103
370.2737, 2599.954
370.7558, 2598.003
371.2379, 2592.450
371.7201, 2592.527
372.2022, 2598.815
372.6843, 2605.145
373.1664, 2609.140
373.6485, 2611.521
374.1306, 2613.652
374.6128, 2615.773
375.0949, 2616.910
375.5770, 2615.074
376.0591, 2612.133
376.5412, 2612.439
377.0233, 2617.203
377.5055, 2622.577
377.9876, 2623.946
378.4697, 2620.721
378.9518, 2621.701
379.4339, 2632.175
379.9160, 2642.208
380.3982, 2645.309
380.8803, 2642.949
381.3624, 2640.274
381.8445, 2640.277
382.3266, 2641.174
382.8087, 2637.415
383.2909, 2622.493
383.7730, 2611.389
384.2551, 2603.245
384.7372, 2599.734
385.2193, 2603.063
385.7014, 2613.063
386.1836, 2627.150
386.6657, 2644.480
387.1478, 2665.651
387.6299, 2677.263
388.1120, 2676.058
388.5941, 2668.090
389.0763, 2646.908
389.5584, 2622.511
390.0405, 2611.347
390.5226, 2622.214
391.0047, 2643.599
391.4868, 2657.329
391.9690, 2662.404
392.4511, 2668.772
392.9332, 2678.455
393.4153, 2691.080
393.8974, 2710.493
394.3795, 2736.393
394.8617, 2750.369
395.3438, 2731.297
395.8259, 2698.711
396.3080, 2687.492
396.7901, 2701.628
397.2722, 2719.186
397.7544, 2725.158
398.2365, 2721.689
398.7186, 2721.958
399.2007, 2725.801
399.6828, 2733.394
400.1649, 2749.585
400.6471, 2768.469
401.1292, 2780.088
401.6113, 2781.187
402.0934, 2775.549
402.5755, 2768.051
403.0576, 2756.506
403.5398, 2750.250
404.0219, 2750.910
404.5040, 2754.487
404.9861, 2762.191
405.4682, 2771.146
405.9503, 2775.238
406.4325, 2770.258
406.9146, 2758.385
407.3967, 2746.498
407.8788, 2731.400
408.3609, 2723.203
408.8430, 2729.043
409.3252, 2738.481
409.8073, 2744.034
410.2894, 2744.395
410.7715, 2741.760
411.2536, 2737.027
411.7357, 2730.618
412.2179, 2724.965
412.7000, 2720.645
413.1821, 2716.109
413.6642, 2708.899
414.1463, 2700.801
414.6284, 2695.842
415.1106, 2696.091
415.5927, 2698.018
416.0748, 2699.526
416.5569, 2700.660
417.0390, 2701.873
417.5211, 2703.593
418.0033, 2704.262
418.4854, 2700.275
418.9675, 2687.711
419.4496, 2684.861
419.9317, 2705.258
420.4138, 2724.977
420.8960, 2725.164
421.3781, 2709.652
421.8602, 2694.304
422.3423, 2689.226
422.8244, 2692.481
423.3065, 2695.501
423.7887, 2695.463
424.2708, 2699.915
424.7529, 2714.217
425.2350, 2729.816
425.7171, 2739.427
426.1992, 2742.262
426.6814, 2742.846
427.1635, 2745.389
427.6456, 2749.671
428.1277, 2752.497
428.6098, 2752.365
429.0919, 2753.686
429.5741, 2760.540
430.0562, 2769.793
430.5383, 2775.982
431.0204, 2775.179
431.5025, 2776.812
431.9846, 2793.236
432.4668, 2819.369
432.9489, 2835.667
433.4310, 2835.420
433.9131, 2830.029
434.3952, 2833.609
434.8773, 2847.464
435.3595, 2855.870
435.8416, 2854.849
436.3237, 2850.963
436.8058, 2848.246
437.2879, 2846.004
437.7701, 2841.606
438.2522, 2833.619
438.7343, 2823.213
439.2164, 2812.989
439.6985, 2799.606
440.1806, 2792.814
440.6628, 2800.867
441.1449, 2808.049
441.6270, 2801.364
442.1091, 2783.342
442.5912, 2767.495
443.0733, 2765.670
443.5555, 2773.336
444.0376, 2772.192
444.5197, 2759.096
445.0018, 2745.992
445.4839, 2739.698
445.9660, 2734.306
446.4482, 2721.069
446.9303, 2697.052
447.4124, 2680.617
447.8945, 2691.816
448.3766, 2716.865
448.8587, 2724.025
449.3409, 2707.917
449.8230, 2691.397
450.3051, 2693.330
450.7872, 2711.683
451.2693, 2723.166
451.7514, 2723.635
452.2336, 2722.644
452.7157, 2721.430
453.1978, 2721.294
453.6799, 2725.107
454.1620, 2733.331
454.6441, 2741.689
455.1263, 2744.190
455.6084, 2739.344
456.0905, 2737.078
456.5726, 2744.250
457.0547, 2746.916
457.5368, 2735.545
458.0190, 2718.090
458.5011, 2708.959
458.9832, 2715.715
459.4653, 2725.516
459.9474, 2717.063
460.4295, 2690.020
460.9117, 2669.886
461.3938, 2662.706
461.8759, 2662.349
462.3580, 2665.206
462.8401, 2670.512
463.3222, 2674.137
463.8044, 2679.677
464.2865, 2679.387
464.7686, 2659.883
465.2507, 2626.886
465.7328, 2605.612
466.2149, 2609.478
466.6971, 2621.768
467.1792, 2608.319
467.6613, 2543.729
468.1434, 2507.657
468.6255, 2522.490
469.1076, 2545.758
469.5898, 2554.132
470.0719, 2547.682
470.5540, 2534.311
471.0361, 2518.004
471.5182, 2500.787
472.0003, 2489.277
472.4825, 2487.114
472.9646, 2480.915
473.4467, 2459.090
473.9288, 2438.748
474.4109, 2434.800
474.8930, 2445.910
475.3752, 2453.362
475.8573, 2441.329
476.3394, 2420.861
476.8215, 2412.419
477.3036, 2416.586
477.7857, 2418.588
478.2679, 2409.256
478.7500, 2394.599
479.2321, 2390.629
479.7142, 2404.256
480.1963, 2409.872
480.6784, 2394.152
481.1606, 2374.029
481.6427, 2366.304
482.1248, 2370.676
482.6069, 2375.423
483.0890, 2371.615
483.5711, 2361.010
484.0533, 2353.260
484.5354, 2349.261
485.0175, 2346.840
485.4996, 2346.730
485.9817, 2347.114
486.4638, 2345.642
486.9460, 2342.554
487.4281, 2341.452
487.9102, 2348.096
488.3923, 2358.759
488.8744, 2361.630
489.3565, 2355.798
489.8387, 2346.465
490.3208, 2332.423
490.8029, 2318.617
491.2850, 2315.188
491.7671, 2325.459
492.2492, 2336.206
492.7314, 2345.370
493.2135, 2351.311
493.6956, 2350.253
494.1777, 2342.927
494.6598, 2336.354
495.1419, 2336.677
495.6241, 2341.810
496.1062, 2337.846
496.5883, 2314.076
497.0704, 2296.164
497.5525, 2288.600
498.0346, 2286.155
498.5168, 2283.857
498.9989, 2281.597
499.4810, 2283.801
499.9631, 2298.216
500.4452, 2319.881
500.9273, 2327.639
501.4095, 2317.686
501.8916, 2310.186
502.3737, 2317.333
502.8558, 2329.956
503.3379, 2331.964
503.8200, 2319.348
504.3022, 2311.980
504.7843, 2324.664
505.2664, 2342.292
505.7485, 2345.859
506.2306, 2335.311
506.7127, 2323.021
507.1949, 2316.908
507.6770, 2316.074
508.1591, 2316.659
508.6412, 2319.094
509.1233, 2322.458
509.6054, 2327.349
510.0876, 2332.595
510.5697, 2337.479
511.0518, 2341.883
511.5339, 2345.863
512.0161, 2349.174
512.4982, 2352.259
512.9803, 2356.948
513.4624, 2363.791
513.9445, 2368.503
514.4266, 2367.798
514.9088, 2365.775
515.3909, 2368.437
515.8730, 2376.277
516.3551, 2382.313
516.8372, 2384.271
517.3193, 2383.647
517.8015, 2381.044
518.2836, 2376.990
518.7657, 2372.561
519.2478, 2368.142
519.7299, 2364.607
520.2120, 2364.647
520.6942, 2374.359
521.1763, 2375.725
521.6584, 2362.264
522.1405, 2347.572
522.6226, 2337.796
523.1047, 2332.854
523.5869, 2330.876
524.0690, 2330.959
524.5511, 2333.228
525.0332, 2340.157
525.5153, 2351.680
525.9974, 2356.643
526.4796, 2351.473
526.9617, 2340.424
527.4438, 2324.623
527.9259, 2305.008
528.4080, 2292.272
528.8901, 2290.307
529.3723, 2293.250
529.8544, 2301.387
530.3365, 2311.214
530.8186, 2314.487
531.3007, 2308.684
531.7828, 2302.706
532.2650, 2311.765
532.7471, 2341.936
533.2292, 2348.898
533.7113, 2303.033
534.1934, 2267.693
534.6755, 2270.075
535.1577, 2291.119
535.6398, 2304.711
536.1219, 2303.147
536.6040, 2296.355
537.0861, 2293.176
537.5682, 2292.197
538.0504, 2287.844
538.5325, 2278.830
539.0146, 2271.606
539.4967, 2271.266
539.9788, 2276.537
540.4609, 2280.843
540.9431, 2282.385
541.4252, 2285.573
541.9073, 2295.231
542.3894, 2304.394
542.8715, 2302.934
543.3536, 2292.536
543.8358, 2287.075
544.3179, 2299.451
544.8000, 2323.864
545.2821, 2334.193
545.7642, 2326.265
546.2463, 2315.631
546.7285, 2303.267
547.2106, 2291.781
547.6927, 2282.752
548.1748, 2276.330
548.6569, 2272.697
549.1390, 2272.439
549.6211, 2274.723
550.1032, 2280.378
550.5853, 2288.225
551.0674, 2292.781
551.5496, 2291.474
552.0317, 2288.227
552.5138, 2290.189
552.9959, 2301.760
553.4780, 2303.327
553.9601, 2282.858
554.4423, 2266.719
554.9244, 2270.258
555.4065, 2283.628
555.8886, 2289.914
556.3707, 2282.750
556.8528, 2272.536
557.3350, 2272.506
557.8171, 2281.316
558.2992, 2288.267
558.7813, 2292.589
559.2634, 2294.520
559.7455, 2295.251
560.2277, 2293.288
560.7098, 2284.298
561.1919, 2260.242
561.6740, 2243.152
562.1561, 2243.727
562.6382, 2252.349
563.1204, 2260.651
563.6025, 2266.783
564.0846, 2270.591
564.5667, 2271.949
565.0488, 2270.983
565.5309, 2267.639
566.0131, 2259.746
566.4952, 2254.957
566.9773, 2254.854
567.4594, 2258.218
567.9415, 2266.769
568.4236, 2278.885
568.9058, 2287.826
569.3879, 2290.044
569.8700, 2288.524
570.3521, 2285.455
570.8342, 2281.129
571.3163, 2276.671
571.7985, 2272.479
572.2806, 2267.394
572.7627, 2259.069
573.2448, 2246.250
573.7269, 2242.018
574.2090, 2252.468
574.6912, 2263.721
575.1733, 2276.649
575.6554, 2286.327
576.1375, 2284.857
576.6196, 2271.625
577.1017, 2258.732
577.5839, 2257.746
578.0660, 2265.863
578.5481, 2275.814
579.0302, 2288.460
579.5123, 2293.528
579.9944, 2282.769
580.4766, 2264.790
580.9587, 2257.488
581.4408, 2264.189
581.9229, 2265.524
582.4050, 2254.044
582.8871, 2240.787
583.3693, 2229.153
583.8514, 2222.102
584.3335, 2226.819
584.8156, 2246.760
585.2977, 2269.979
585.7798, 2276.198
586.2620, 2263.751
586.7441, 2253.072
587.2262, 2243.425
587.7083, 2238.339
588.1904, 2242.429
588.6725, 2251.663
589.1547, 2260.244
589.6368, 2268.556
590.1189, 2273.194
590.6010, 2266.807
591.0831, 2258.925
591.5652, 2266.596
592.0474, 2287.519
592.5295, 2299.631
593.0116, 2286.880
593.4937, 2259.046
593.9758, 2247.237
594.4579, 2260.437
594.9401, 2268.414
595.4222, 2266.780
595.9043, 2260.999
596.3864, 2247.829
596.8685, 2232.753
597.3506, 2229.561
597.8328, 2247.796
598.3149, 2270.763
598.7970, 2286.766
599.2791, 2295.494
599.7612, 2293.688
600.2433, 2280.675
600.7255, 2267.511
601.2076, 2264.009
601.6897, 2268.679
602.1718, 2269.259
602.6539, 2257.321
603.1360, 2253.000
603.6182, 2265.988
604.1003, 2280.547
604.5824, 2284.417
605.0645, 2278.391
605.5466, 2271.171
606.0287, 2268.376
606.5109, 2266.215
606.9930, 2255.906
607.4751, 2239.290
607.9572, 2232.140
608.4393, 2239.676
608.9214, 2252.649
609.4036, 2263.399
609.8857, 2271.892
610.3678, 2273.472
610.8499, 2262.155
611.3320, 2252.207
611.8141, 2246.146
612.2963, 2243.490
612.7784, 2245.544
613.2605, 2251.140
613.7426, 2254.700
614.2247, 2249.479
614.7068, 2241.337
615.1890, 2249.283
615.6711, 2274.583
616.1532, 2285.657
616.6353, 2268.063
617.1174, 2242.650
617.5995, 2233.584
618.0817, 2241.258
618.5638, 2243.918
619.0459, 2233.274
619.5280, 2226.116
620.0101, 2232.604
620.4922, 2244.402
620.9744, 2250.065
621.4565, 2248.063
621.9386, 2246.542
622.4207, 2254.663
622.9028, 2268.347
623.3849, 2268.811
623.8671, 2252.576
624.3492, 2244.091
624.8313, 2254.918
625.3134, 2271.822
625.7955, 2278.928
626.2776, 2276.888
626.7598, 2274.675
627.2419, 2274.628
627.7240, 2273.464
628.2061, 2268.762
628.6882, 2262.215
629.1703, 2256.036
629.6525, 2250.897
630.1346, 2246.668
630.6167, 2243.175
631.0988, 2240.506
631.5809, 2238.511
632.0630, 2236.181
632.5452, 2238.965
633.0273, 2253.252
633.5094, 2268.815
633.9915, 2273.431
634.4736, 2267.711
634.9557, 2262.573
635.4379, 2261.789
635.9200, 2260.414
636.4021, 2252.868
636.8842, 2243.951
637.3663, 2241.842
637.8484, 2248.073
638.3306, 2257.450
638.8127, 2265.966
639.2948, 2272.918
639.7769, 2272.418
640.2590, 2261.407
640.7411, 2254.191
641.2233, 2259.322
641.7054, 2265.581
642.1875, 2258.547
642.6696, 2239.708
643.1517, 2228.272
643.6339, 2234.093
644.1160, 2241.982
644.5981, 2241.278
645.0802, 2238.168
645.5623, 2245.350
646.0444, 2263.712
646.5266, 2278.437
647.0087, 2273.879
647.4908, 2255.259
647.9729, 2248.509
648.4550, 2257.395
648.9371, 2263.054
649.4193, 2258.500
649.9014, 2251.466
650.3835, 2250.276
650.8656, 2253.857
651.3477, 2254.427
651.8298, 2246.664
652.3120, 2240.190
652.7941, 2240.006
653.2762, 2243.543
653.7583, 2248.558
654.2404, 2253.916
654.7225, 2257.046
655.2047, 2254.937
655.6868, 2250.277
656.1689, 2253.137
656.6510, 2265.201
657.1331, 2274.316
657.6152, 2277.081
658.0974, 2277.452
658.5795, 2279.927
659.0616, 2283.322
659.5437, 2281.819
660.0258, 2271.334
660.5079, 2260.321
660.9901, 2250.155
661.4722, 2241.832
661.9543, 2236.805
662.4364, 2234.773
662.9185, 2233.607
663.4006, 2231.580
663.8828, 2230.519
664.3649, 2235.456
664.8470, 2246.635
665.3291, 2255.989
665.8112, 2262.677
666.2933, 2266.401
666.7755, 2265.496
667.2576, 2261.354
667.7397, 2260.081
668.2218, 2261.788
668.7039, 2266.117
669.1860, 2278.883
669.6682, 2289.419
670.1503, 2288.081
670.6324, 2277.101
671.1145, 2263.591
671.5966, 2250.440
672.0787, 2240.515
672.5609, 2238.596
673.0430, 2243.875
673.5251, 2250.845
674.0072, 2259.197
674.4893, 2268.681
674.9714, 2281.102
675.4536, 2293.054
675.9357, 2294.815
676.4178, 2278.821
676.8999, 2269.201
677.3820, 2269.967
677.8641, 2273.764
678.3463, 2279.063
678.8284, 2283.986
679.3105, 2285.857
679.7926, 2283.828
680.2747, 2280.277
680.7568, 2276.964
681.2390, 2273.917
681.7211, 2271.337
682.2032, 2269.210
682.6853, 2267.104
683.1674, 2264.957
683.6495, 2262.170
684.1317, 2256.896
684.6138, 2247.125
685.0959, 2245.690
685.5780, 2266.024
686.0601, 2278.551
686.5422, 2266.267
687.0244, 2248.740
687.5065, 2248.587
687.9886, 2267.347
688.4707, 2285.423
688.9528, 2292.483
689.4349, 2292.615
689.9171, 2287.250
690.3992, 2278.846
690.8813, 2275.268
691.3634, 2278.542
691.8455, 2282.746
692.3276, 2281.741
692.8098, 2276.263
693.2919, 2272.335
693.7740, 2268.093
694.2561, 2269.717
694.7382, 2286.676
695.2203, 2302.344
695.7025, 2302.086
696.1846, 2290.392
696.6667, 2284.827
697.1488, 2293.016
697.6309, 2303.255
698.1130, 2312.150
698.5952, 2317.963
699.0773, 2317.674
699.5594, 2311.812
700.0415, 2303.235
700.5236, 2293.244
701.0057, 2283.885
701.4879, 2279.377
701.9700, 2279.810
702.4521, 2283.391
702.9342, 2291.246
703.4163, 2298.845
703.8984, 2302.175
704.3806, 2303.970
704.8627, 2311.997
705.3448, 2331.198
705.8269, 2342.113
706.3090, 2334.137
706.7911, 2325.152
707.2733, 2326.888
707.7554, 2334.686
708.2375, 2340.793
708.7196, 2342.608
709.2017, 2339.759
709.6838, 2325.924
710.1660, 2308.605
710.6481, 2310.949
711.1302, 2331.832
711.6123, 2346.191
712.0944, 2344.123
712.5765, 2336.483
713.0587, 2336.180
713.5408, 2343.409
714.0229, 2354.071
714.5050, 2379.071
714.9871, 2392.174
715.4692, 2379.689
715.9514, 2361.562
716.4335, 2352.045
716.9156, 2351.808
717.3977, 2356.780
717.8798, 2368.221
718.3619, 2380.188
718.8441, 2388.303
719.3262, 2393.605
719.8083, 2396.959
720.2904, 2377.274
720.7725, 2401.046
721.2546, 2415.324
721.7368, 2420.621
722.2189, 2390.027
722.7010, 2405.777
723.1831, 2402.955
723.6652, 2399.371
724.1473, 2421.643
724.6295, 2396.270
725.1116, 2418.132
725.5937, 2421.139
726.0758, 2432.776
726.5579, 2425.725
727.0400, 2424.447
727.5222, 2441.861
728.0043, 2448.925
728.4864, 2439.724
728.9685, 2430.954
729.4506, 2432.392
729.9327, 2434.727
730.4149, 2431.641
730.8970, 2427.846
731.3791, 2437.249
731.8612, 2458.036
732.3433, 2473.258
732.8254, 2478.136
733.3076, 2474.736
733.7897, 2462.682
734.2718, 2443.562
734.7539, 2438.355
735.2360, 2456.135
735.7181, 2472.791
736.2003, 2488.428
736.6824, 2499.666
737.1645, 2501.780
737.6466, 2497.951
738.1287, 2497.074
738.6108, 2503.335
739.0930, 2508.397
739.5751, 2506.173
740.0572, 2501.181
740.5393, 2498.113
741.0214, 2497.225
741.5035, 2496.988
741.9857, 2496.677
742.4678, 2498.190
742.9499, 2505.494
743.4320, 2518.000
743.9141, 2527.816
744.3962, 2534.911
744.8784, 2538.542
745.3605, 2536.570
745.8426, 2533.857
746.3247, 2537.516
746.8068, 2548.510
747.2889, 2557.069
747.7711, 2558.739
748.2532, 2563.946
748.7353, 2576.629
749.2174, 2592.808
749.6995, 2612.485
750.1816, 2632.794
750.6638, 2644.364
751.1459, 2639.078
751.6280, 2630.475
752.1101, 2628.805
752.5922, 2633.482
753.0743, 2645.228
753.5565, 2663.001
754.0386, 2681.519
754.5207, 2697.790
755.0028, 2711.745
755.4849, 2722.345
755.9670, 2728.888
756.4492, 2739.023
756.9313, 2754.306
757.4134, 2769.845
757.8955, 2785.105
758.3776, 2798.421
758.8597, 2805.667
759.3419, 2805.763
759.8240, 2811.402
760.3061, 2826.111
760.7882, 2843.539
761.2703, 2866.536
761.7524, 2887.623
762.2346, 2897.446
762.7167, 2896.808
763.1988, 2894.581
763.6809, 2892.105
764.1630, 2896.798
764.6451, 2926.403
765.1273, 2968.277
765.6094, 2990.046
766.0915, 2988.214
766.5736, 2976.941
767.0557, 2963.562
767.5378, 2952.474
768.0200, 2953.539
768.5021, 2967.851
768.9842, 2989.391
769.4663, 3025.258
769.9484, 3052.807
770.4305, 3059.943
770.9127, 3054.809
771.3948, 3044.965
771.8769, 3028.755
772.3590, 3028.566
772.8411, 3063.262
773.3232, 3094.916
773.8054, 3103.595
774.2875, 3105.417
774.7696, 3118.701
775.2517, 3143.475
775.7338, 3167.142
776.2159, 3181.653
776.6981, 3194.692
777.1802, 3214.904
777.6623, 3240.215
778.1444, 3265.086
778.6265, 3289.343
779.1086, 3318.781
779.5908, 3356.911
780.0729, 3398.928
780.5550, 3436.668
781.0371, 3470.158
781.5192, 3497.194
782.0013, 3514.712
782.4835, 3533.892
782.9656, 3557.153
783.4477, 3585.705
783.9298, 3621.895
784.4119, 3665.741
784.8940, 3712.293
785.3762, 3766.362
785.8583, 3816.445
786.3404, 3863.722
786.8225, 3902.311
787.3046, 3916.041
787.7867, 3916.536
788.2689, 3941.865
788.7510, 4014.907
789.2331, 4094.291
789.7152, 4149.278
790.1973, 4186.401
790.6794, 4210.450
791.1616, 4226.295
791.6437, 4248.883
792.1258, 4284.884
792.6079, 4328.224
793.0900, 4372.158
793.5721, 4416.370
794.0543, 4457.194
794.5364, 4494.218
795.0185, 4532.190
795.5006, 4574.785
795.9827, 4613.525
796.4648, 4637.283
796.9470, 4648.336
797.4291, 4670.313
797.9112, 4718.049
798.3933, 4755.277
798.8754, 4763.367
799.3575, 4777.466
799.8397, 4832.647
800.3218, 4904.044
800.8039, 4940.242
801.2860, 4924.255
801.7681, 4909.980
802.2502, 4927.980
802.7324, 4956.370
803.2145, 4976.362
803.6966, 4991.361
804.1787, 5009.111
804.6608, 5031.911
805.1429, 5059.024
805.6251, 5089.141
806.1072, 5124.103
806.5893, 5169.456
807.0714, 5224.178
807.5535, 5278.833
808.0356, 5331.764
808.5178, 5387.121
808.9999, 5447.308
809.4820, 5513.156
809.9641, 5586.302
810.4462, 5669.568
810.9283, 5750.377
811.4105, 5824.384
811.8926, 5903.443
812.3747, 5988.361
812.8568, 6083.057
813.3389, 6195.719
813.8210, 6325.961
814.3032, 6448.614
814.7853, 6566.280
815.2674, 6667.283
815.7495, 6729.271
816.2316, 6787.049
816.7137, 6876.827
817.1959, 6991.619
817.6780, 7102.095
818.1601, 7196.987
818.6422, 7280.503
819.1243, 7361.085
819.6064, 7431.038
820.0886, 7479.410
820.5707, 7506.145
821.0528, 7513.280
821.5349, 7501.676
822.0170, 7471.892
822.4991, 7425.283
822.9813, 7360.443
823.4634, 7267.864
823.9455, 7145.717
824.4276, 7018.567
824.9097, 6890.447
825.3918, 6762.010
825.8740, 6634.854
826.3561, 6506.912
826.8382, 6374.015
827.3203, 6244.017
827.8024, 6090.436
828.2845, 5886.544
828.7667, 5691.877
829.2488, 5530.672
829.7309, 5388.056
830.2130, 5251.672
830.6951, 5120.043
831.1772, 4980.066
831.6594, 4807.755
832.1415, 4651.956
832.6236, 4543.256
833.1057, 4453.721
833.5878, 4355.703
834.0699, 4248.933
834.5521, 4146.368
835.0342, 4054.190
835.5163, 3964.901
835.9984, 3864.905
836.4805, 3766.344
836.9626, 3693.381
837.4448, 3640.608
837.9269, 3584.153
838.4090, 3516.203
838.8911, 3446.027
839.3732, 3382.107
839.8553, 3325.458
840.3375, 3282.007
840.8196, 3252.118
841.3017, 3214.157
841.7838, 3161.434
842.2659, 3115.260
842.7480, 3092.464
843.2302, 3082.685
843.7123, 3058.804
844.1944, 3014.961
844.6765, 2976.281
845.1586, 2942.675
845.6407, 2914.418
846.1229, 2898.786
846.6050, 2883.448
847.0871, 2853.316
847.5692, 2809.875
848.0513, 2773.646
848.5334, 2746.935
849.0156, 2728.177
849.4977, 2722.855
849.9798, 2720.051
850.4619, 2713.292
850.9440, 2701.757
851.4261, 2684.354
851.9083, 2660.185
852.3904, 2637.930
852.8725, 2621.864
853.3546, 2611.517
853.8367, 2612.964
854.3188, 2617.607
854.8010, 2606.117
855.2831, 2576.679
855.7652, 2544.650
856.2473, 2520.073
856.7294, 2503.045
857.2115, 2495.922
857.6937, 2496.770
858.1758, 2497.157
858.6579, 2496.277
859.1400, 2496.666
859.6221, 2500.084
860.1042, 2501.076
860.5864, 2490.718
861.0685, 2469.604
861.5506, 2453.039
862.0327, 2441.848
862.5148, 2431.613
862.9969, 2419.875
863.4791, 2411.764
863.9612, 2412.811
864.4433, 2420.277
864.9254, 2424.417
865.4075, 2425.873
865.8896, 2422.596
866.3718, 2406.702
866.8539, 2395.651
867.3360, 2401.171
867.8181, 2411.091
868.3002, 2411.787
868.7823, 2402.700
869.2645, 2391.481
869.7466, 2373.924
870.2287, 2362.602
870.7108, 2368.967
871.1929, 2378.150
871.6750, 2375.917
872.1572, 2365.590
872.6393, 2356.583
873.1214, 2351.883
873.6035, 2352.049
874.0856, 2362.900
874.5677, 2374.330
875.0499, 2375.356
875.5320, 2368.007
876.0141, 2352.428
876.4962, 2332.005
876.9783, 2322.604
877.4604, 2336.765
877.9426, 2360.011
878.4247, 2368.992
878.9068, 2367.081
879.3889, 2366.781
879.8710, 2368.780
880.3531, 2370.206
880.8353, 2370.090
881.3174, 2365.587
881.7995, 2351.577
882.2816, 2330.825
882.7637, 2321.589
883.2458, 2325.203
883.7280, 2330.858
884.2101, 2337.113
884.6922, 2344.327
885.1743, 2353.195
885.6564, 2362.552
886.1385, 2370.070
886.6207, 2375.945
887.1028, 2379.079
887.5849, 2380.784
888.0670, 2377.503
888.5491, 2363.712
889.0313, 2348.592
889.5134, 2338.186
889.9955, 2332.882
890.4776, 2335.021
890.9597, 2356.298
891.4418, 2364.080
891.9240, 2337.958
892.4061, 2314.715
892.8882, 2317.058
893.3703, 2332.292
893.8524, 2344.547
894.3345, 2351.034
894.8167, 2351.026
895.2988, 2340.546
895.7809, 2327.963
896.2630, 2315.396
896.7451, 2304.692
897.2272, 2298.701
897.7094, 2296.157
898.1915, 2293.615
898.6736, 2289.851
899.1557, 2286.114
899.6378, 2282.941
900.1199, 2280.734
900.6021, 2280.600
901.0842, 2281.635
901.5663, 2283.099
902.0484, 2284.035
902.5305, 2279.597
903.0126, 2265.453
903.4948, 2252.817
903.9769, 2264.726
904.4590, 2290.635
904.9411, 2294.943
905.4232, 2278.838
905.9053, 2263.421
906.3875, 2255.604
906.8696, 2248.875
907.3517, 2235.688
907.8338, 2221.001
908.3159, 2224.368
908.7980, 2245.985
909.2802, 2256.710
909.7623, 2252.936
910.2444, 2240.974
910.7265, 2220.975
911.2086, 2203.793
911.6907, 2208.010
912.1729, 2233.115
912.6550, 2236.521
913.1371, 2207.357
913.6192, 2192.381
914.1013, 2208.027
914.5834, 2223.090
915.0656, 2215.168
915.5477, 2193.661
916.0298, 2179.666
916.5119, 2173.885
916.9940, 2173.028
917.4761, 2178.404
917.9583, 2186.860
918.4404, 2204.559
918.9225, 2219.178
919.4046, 2219.844
919.8867, 2209.188
920.3688, 2196.230
920.8510, 2174.223
921.3331, 2166.426
921.8152, 2198.076
922.2973, 2219.301
922.7794, 2192.321
923.2615, 2152.055
923.7437, 2142.256
924.2258, 2162.583
924.7079, 2179.006
925.1900, 2181.385
925.6721, 2178.201
926.1542, 2167.494
926.6364, 2157.622
927.1185, 2155.638
927.6006, 2159.220
928.0827, 2165.184
928.5648, 2172.188
929.0469, 2175.574
929.5291, 2171.546
930.0112, 2164.352
930.4933, 2152.774
930.9754, 2142.805
931.4575, 2144.593
931.9396, 2154.609
932.4218, 2162.028
932.9039, 2162.876
933.3860, 2158.500
933.8681, 2144.134
934.3502, 2129.973
934.8323, 2132.664
935.3145, 2144.530
935.7966, 2148.926
936.2787, 2145.063
936.7608, 2143.752
937.2429, 2150.965
937.7250, 2158.594
938.2072, 2154.019
938.6893, 2143.606
939.1714, 2142.621
939.6535, 2149.290
940.1356, 2157.736
940.6177, 2165.659
941.0999, 2165.132
941.5820, 2149.291
942.0641, 2128.703
942.5462, 2122.713
943.0283, 2129.064
943.5104, 2137.926
943.9926, 2148.392
944.4747, 2153.616
944.9568, 2151.328
945.4389, 2150.135
945.9210, 2158.915
946.4031, 2171.797
946.8853, 2170.441
947.3674, 2154.933
947.8495, 2144.905
948.3316, 2141.903
948.8137, 2141.210
949.2958, 2141.344
949.7780, 2141.131
950.2601, 2138.341
950.7422, 2134.704
951.2243, 2142.854
951.7064, 2167.454
952.1885, 2170.444
952.6707, 2141.364
953.1528, 2116.802
953.6349, 2114.740
954.1170, 2123.667
954.5991, 2129.004
955.0812, 2130.761
955.5634, 2129.635
956.0455, 2124.765
956.5276, 2119.014
957.0097, 2109.545
957.4918, 2106.410
957.9739, 2119.365
958.4561, 2137.028
958.9382, 2139.490
959.4203, 2125.147
959.9024, 2118.968
960.3845, 2126.982
960.8666, 2130.945
961.3488, 2125.478
961.8309, 2119.078
962.3130, 2116.159
962.7951, 2116.207
963.2772, 2119.658
963.7593, 2128.954
964.2415, 2128.486
964.7236, 2107.957
965.2057, 2092.639
965.6878, 2089.678
966.1699, 2090.304
966.6520, 2091.077
967.1342, 2090.817
967.6163, 2085.762
968.0984, 2073.049
968.5805, 2066.811
969.0626, 2073.205
969.5447, 2078.776
970.0269, 2077.752
970.5090, 2076.882
970.9911, 2085.527
971.4732, 2097.882
971.9553, 2095.550
972.4374, 2067.829
972.9196, 2057.887
973.4017, 2090.501
973.8838, 2117.622
974.3659, 2119.183
974.8480, 2110.785
975.3301, 2104.818
975.8123, 2101.037
976.2944, 2095.294
976.7765, 2085.223
977.2586, 2078.945
977.7407, 2080.594
978.2228, 2083.602
978.7050, 2086.290
979.1871, 2088.047
979.6692, 2087.978
980.1513, 2086.553
980.6334, 2086.211
981.1155, 2089.995
981.5977, 2086.891
982.0798, 2058.676
982.5619, 2040.288
983.0440, 2057.758
983.5261, 2088.391
984.0082, 2111.110
984.4904, 2123.212
984.9725, 2125.225
985.4546, 2114.506
985.9367, 2102.023
986.4188, 2090.506
986.9009, 2079.651
987.3831, 2067.425
987.8652, 2056.999
988.3473, 2050.949
988.8294, 2050.255
989.3115, 2058.264
989.7936, 2081.497
990.2758, 2097.055
990.7579, 2087.463
991.2400, 2075.947
991.7221, 2079.351
992.2042, 2088.200
992.6863, 2090.323
993.1685, 2085.477
993.6506, 2079.530
994.1327, 2072.223
994.6148, 2070.524
995.0969, 2086.119
995.5790, 2099.163
996.0612, 2093.158
996.5433, 2078.499
997.0254, 2066.759
997.5075, 2059.947
997.9896, 2058.082
998.4717, 2063.345
998.9539, 2066.899
999.4360, 2062.188
999.9181, 2057.006
1000.400, 2056.687
1000.882, 2059.222
1001.364, 2061.950
1001.847, 2064.646
1002.329, 2068.664
1002.811, 2075.897
1003.293, 2080.004
1003.775, 2077.537
1004.257, 2071.469
1004.739, 2059.197
1005.221, 2047.581
1005.703, 2047.377
1006.186, 2056.305
1006.668, 2061.319
1007.150, 2057.399
1007.632, 2051.443
1008.114, 2039.127
1008.596, 2034.056
1009.078, 2051.685
1009.560, 2077.205
1010.043, 2096.912
1010.525, 2107.183
1011.007, 2102.346
1011.489, 2074.750
1011.971, 2054.057
1012.453, 2058.066
1012.935, 2066.923
1013.417, 2072.970
1013.899, 2074.062
1014.382, 2063.155
1014.864, 2045.795
1015.346, 2041.341
1015.828, 2059.238
1016.310, 2072.130
1016.792, 2064.730
1017.274, 2055.265
1017.756, 2053.023
1018.239, 2054.189
1018.721, 2055.257
1019.203, 2055.803
1019.685, 2056.234
1020.167, 2056.851
1020.649, 2056.278
1021.131, 2049.791
1021.613, 2047.326
1022.095, 2057.764
1022.578, 2070.643
1023.060, 2076.737
1023.542, 2077.098
1024.024, 2075.273
1024.506, 2070.761
1024.988, 2071.617
1025.470, 2088.906
1025.952, 2100.143
1026.435, 2090.365
1026.917, 2077.274
1027.399, 2076.978
1027.881, 2083.903
1028.363, 2083.365
1028.845, 2072.104
1029.327, 2065.591
1029.809, 2071.875
1030.292, 2075.948
1030.774, 2071.729
1031.256, 2066.097
1031.738, 2062.424
1032.220, 2061.164
1032.702, 2062.804
1033.184, 2067.440
1033.666, 2074.072
1034.148, 2087.839
1034.630, 2095.888
1035.113, 2093.292
1035.595, 2087.567
1036.077, 2081.065
1036.559, 2074.920
1037.041, 2069.568
1037.523, 2064.862
1038.005, 2067.212
1038.487, 2086.870
1038.970, 2096.872
1039.452, 2086.143
1039.934, 2078.080
1040.416, 2086.839
1040.898, 2100.097
1041.380, 2102.559
1041.862, 2095.296
1042.344, 2090.521
1042.826, 2092.333
1043.309, 2087.206
1043.791, 2069.758
1044.273, 2054.358
1044.755, 2045.064
1045.237, 2041.622
1045.719, 2044.835
1046.201, 2053.365
1046.683, 2061.152
1047.166, 2068.383
1047.648, 2074.422
1048.130, 2079.235
1048.612, 2083.233
1049.094, 2087.414
1049.576, 2088.482
1050.058, 2083.221
1050.540, 2073.316
1051.022, 2062.615
1051.505, 2050.625
1051.987, 2042.737
1052.469, 2039.028
1052.951, 2040.453
1053.433, 2048.618
1053.915, 2053.982
1054.397, 2049.489
1054.879, 2040.560
1055.361, 2037.426
1055.844, 2039.444
1056.326, 2037.884
1056.808, 2032.770
1057.290, 2033.757
1057.772, 2042.595
1058.254, 2046.551
1058.736, 2038.419
1059.218, 2028.512
1059.701, 2030.745
1060.183, 2041.922
1060.665, 2053.731
1061.147, 2064.979
1061.629, 2067.458
1062.111, 2061.303
1062.593, 2054.701
1063.075, 2050.925
1063.557, 2049.312
1064.040, 2049.924
1064.522, 2050.940
1065.004, 2048.510
1065.486, 2044.056
1065.968, 2040.528
1066.450, 2038.312
1066.932, 2037.867
1067.414, 2039.128
1067.896, 2041.163
1068.379, 2043.790
1068.861, 2045.188
1069.343, 2042.195
1069.825, 2037.540
1070.307, 2035.451
1070.789, 2034.515
1071.271, 2029.552
1071.753, 2021.991
1072.236, 2021.587
1072.718, 2033.898
1073.200, 2045.511
1073.682, 2047.010
1074.164, 2043.455
1074.646, 2034.095
1075.128, 2025.818
1075.610, 2030.897
1076.093, 2043.544
1076.575, 2045.513
1077.057, 2031.621
1077.539, 2019.811
1078.021, 2013.919
1078.503, 2017.052
1078.985, 2046.837
1079.467, 2070.183
1079.949, 2049.018
1080.432, 2009.889
1080.914, 2001.266
1081.396, 2026.821
1081.878, 2043.483
1082.360, 2041.610
1082.842, 2033.396
1083.324, 2001.405
1083.806, 2022.779
1084.288, 2034.659
1084.771, 2037.556
1085.253, 2004.564
1085.735, 2017.916
1086.217, 2012.695
1086.699, 2006.712
1087.181, 2026.586
1087.663, 1998.815
1088.145, 2018.278
1088.628, 2018.886
1089.110, 2028.124
1089.592, 2018.675
1090.074, 2014.998
1090.556, 2007.153
1091.038, 2011.390
1091.520, 2009.595
1092.002, 1999.160
1092.484, 2001.760
1092.967, 2023.282
1093.449, 2042.243
1093.931, 2048.111
1094.413, 2044.382
1094.895, 2033.236
1095.377, 2018.978
1095.859, 2022.892
1096.341, 2040.663
1096.823, 2032.147
1097.306, 1998.331
1097.788, 1981.708
1098.270, 1995.259
1098.752, 2016.806
1099.234, 2029.396
1099.716, 2037.679
1100.198, 2049.740
1100.680, 2062.168
1101.163, 2069.168
1101.645, 2070.238
1102.127, 2064.494
1102.609, 2052.321
1103.091, 2032.812
1103.573, 2004.847
1104.055, 1984.693
1104.537, 1991.151
1105.020, 2005.903
1105.502, 2015.032
1105.984, 2020.450
1106.466, 2023.303
1106.948, 2025.244
1107.430, 2029.424
1107.912, 2036.320
1108.394, 2041.886
1108.876, 2046.333
1109.359, 2046.344
1109.841, 2039.517
1110.323, 2029.198
1110.805, 2011.273
1111.287, 1995.303
1111.769, 1997.395
1112.251, 2013.100
1112.733, 2015.577
1113.215, 1993.019
1113.698, 1980.953
1114.180, 1987.910
1114.662, 1993.252
1115.144, 1988.555
1115.626, 1986.937
1116.108, 2000.526
1116.590, 2019.495
1117.072, 2024.694
1117.555, 2016.038
1118.037, 2012.164
1118.519, 2013.894
1119.001, 2016.151
1119.483, 2018.667
1119.965, 2019.227
1120.447, 2016.561
1120.929, 2014.311
1121.411, 2017.067
1121.894, 2021.001
1122.376, 2013.260
1122.858, 1997.402
1123.340, 1993.358
1123.822, 1999.680
1124.304, 2005.330
1124.786, 2006.979
1125.268, 2000.106
1125.750, 1981.413
1126.233, 1965.920
1126.715, 1974.099
1127.197, 1992.652
1127.679, 2008.889
1128.161, 2019.178
1128.643, 2012.791
1129.125, 1996.691
1129.607, 1990.901
1130.090, 1999.583
1130.572, 2006.439
1131.054, 1998.227
1131.536, 1995.338
1132.018, 2015.603
1132.500, 2036.804
1132.982, 2046.709
1133.464, 2046.756
1133.947, 2034.862
1134.429, 2015.486
1134.911, 2003.816
1135.393, 2001.987
1135.875, 2006.761
1136.357, 2028.477
1136.839, 2040.943
1137.321, 2036.527
1137.803, 2026.045
1138.286, 2011.103
1138.768, 1999.203
1139.250, 2003.404
1139.732, 2021.230
1140.214, 2028.507
1140.696, 2023.618
1141.178, 2021.060
1141.660, 2022.071
1142.142, 2021.983
1142.625, 2019.318
1143.107, 2014.955
1143.589, 2009.363
1144.071, 2003.543
1144.553, 1999.102
1145.035, 1995.875
1145.517, 1991.430
1145.999, 1988.146
1146.482, 1997.611
1146.964, 2016.374
1147.446, 2022.845
1147.928, 2010.017
1148.410, 2000.374
1148.892, 2015.829
1149.374, 2032.106
1149.856, 2023.339
1150.339, 2008.979
1150.821, 2008.931
1151.303, 2016.181
1151.785, 2019.810
1152.267, 2018.428
1152.749, 2013.518
1153.231, 2003.460
1153.713, 1997.875
1154.195, 2003.041
1154.677, 2007.222
1155.160, 2005.837
1155.642, 2003.698
1156.124, 2007.155
1156.606, 2008.648
1157.088, 1992.474
1157.570, 1962.038
1158.052, 1961.509
1158.534, 2002.435
1159.017, 2017.142
1159.499, 1996.658
1159.981, 1984.342
1160.463, 1993.818
1160.945, 2008.979
1161.427, 2019.162
1161.909, 2022.990
1162.391, 2014.921
1162.874, 1999.925
1163.356, 1994.374
1163.838, 1996.403
1164.320, 2003.103
1164.802, 2011.559
1165.284, 2012.543
1165.766, 2003.946
1166.248, 1995.626
1166.730, 1995.561
1167.213, 1994.242
1167.695, 1977.680
1168.177, 1962.761
1168.659, 1967.459
1169.141, 1980.811
1169.623, 1987.732
1170.105, 1990.327
1170.587, 2003.045
1171.069, 2032.095
1171.552, 2039.755
1172.034, 1994.540
1172.516, 1966.507
1172.998, 1976.888
1173.480, 1990.720
1173.962, 1993.014
1174.444, 1992.877
1174.926, 2000.291
1175.409, 2012.574
1175.891, 2021.061
1176.373, 2025.921
1176.855, 2023.057
1177.337, 2012.228
1177.819, 2003.491
1178.301, 1998.769
1178.783, 1998.709
1179.266, 2003.636
1179.748, 2008.536
1180.230, 2007.799
1180.712, 2004.403
1181.194, 2000.869
1181.676, 1999.551
1182.158, 2008.903
1182.640, 2021.948
1183.122, 2021.534
1183.604, 2009.032
1184.087, 2002.008
1184.569, 2007.483
1185.051, 2013.900
1185.533, 2017.398
1186.015, 2018.783
1186.497, 2021.749
1186.979, 2019.147
1187.461, 1998.051
1187.944, 1973.571
1188.426, 1969.715
1188.908, 1982.331
1189.390, 1984.835
1189.872, 1971.615
1190.354, 1968.673
1190.836, 1977.886
1191.318, 1988.882
1191.801, 1999.139
1192.283, 2014.824
1192.765, 2040.970
1193.247, 2060.974
1193.729, 2050.666
1194.211, 2024.202
1194.693, 2016.510
1195.175, 2020.615
1195.657, 2018.712
1196.140, 2011.412
1196.622, 2001.829
1197.104, 1992.951
1197.586, 1994.520
1198.068, 2012.127
1198.550, 2026.742
1199.032, 2025.179
1199.514, 2018.851
1199.996, 2013.086
1200.479, 2006.358
1200.961, 1991.175
1201.443, 1977.962
1201.925, 1987.109
1202.407, 2014.775
1202.889, 2025.731
1203.371, 2013.759
1203.853, 2003.547
1204.336, 1992.325
1204.818, 1993.891
1205.300, 2014.680
1205.782, 2032.541
1206.264, 2036.286
1206.746, 2026.348
1207.228, 1998.495
1207.710, 1966.574
1208.193, 1970.536
1208.675, 1997.136
1209.157, 2008.859
1209.639, 2008.495
1210.121, 2010.386
1210.603, 2015.985
1211.085, 2018.003
1211.567, 2013.502
1212.049, 2007.898
1212.531, 2001.390
1213.014, 1998.914
1213.496, 2012.348
1213.978, 2020.477
1214.460, 1996.319
1214.942, 1967.279
1215.424, 1974.781
1215.906, 2006.861
1216.388, 2013.833
1216.871, 1989.155
1217.353, 1980.708
1217.835, 1993.036
1218.317, 2001.974
1218.799, 2003.623
1219.281, 2006.965
1219.763, 2016.218
1220.245, 2021.203
1220.728, 2011.398
1221.210, 1996.965
1221.692, 1997.442
1222.174, 2005.394
1222.656, 2004.852
1223.138, 1999.970
1223.620, 2000.943
1224.102, 2006.256
1224.584, 2008.526
1225.067, 2005.685
1225.549, 1998.149
1226.031, 1975.396
1226.513, 1969.211
1226.995, 2012.428
1227.477, 2045.670
1227.959, 2034.582
1228.441, 2012.173
1228.923, 2000.637
1229.406, 1996.461
1229.888, 1993.789
1230.370, 1992.719
1230.852, 1996.070
1231.334, 2004.352
1231.816, 2000.465
1232.298, 1984.447
1232.780, 1983.986
1233.263, 2004.346
1233.745, 2019.405
1234.227, 2014.276
1234.709, 2001.760
1235.191, 1990.025
1235.673, 1983.785
1236.155, 1994.218
##END=



