##NAMES=Dumortierite
##RRUFFID=R050628
##IDEAL CHEMISTRY=AlAl_6_BSi_3_O_18_
##LOCALITY=Minas Gerais, Brazil
##OWNER=RRUFF
##SOURCE=Gemological Center
##DESCRIPTION=Blue cut gemstone
##STATUS=The identification of this mineral is confirmed by single-crystal X-ray diffraction and chemical analysis.
##URL=rruff.info/R050628
##MEASURED CHEMISTRY=Al_7.00_(B_1.00_O_3_)(Si_1.00_O_4_)_3_O_3_
92.06543, 1398.366
92.54755, 1395.889
93.02966, 1402.024
93.51178, 1408.077
93.99390, 1405.411
94.47601, 1396.740
94.95813, 1383.541
95.44025, 1365.984
95.92236, 1343.938
96.40448, 1316.674
96.88660, 1289.811
97.36871, 1262.475
97.85082, 1237.054
98.33294, 1215.942
98.81506, 1198.658
99.29717, 1180.100
99.77929, 1160.033
100.2614, 1139.016
100.7435, 1117.459
101.2256, 1093.800
101.7078, 1069.337
102.1899, 1047.515
102.6720, 1029.176
103.1541, 1013.320
103.6362, 998.2415
104.1183, 983.8828
104.6005, 970.8936
105.0826, 960.7458
105.5647, 953.9270
106.0468, 945.3774
106.5289, 932.1918
107.0110, 917.7646
107.4931, 904.1028
107.9753, 891.6939
108.4574, 879.6789
108.9395, 866.0731
109.4216, 848.2184
109.9037, 832.9879
110.3858, 822.2281
110.8680, 813.6729
111.3501, 804.9911
111.8322, 794.8542
112.3143, 783.6727
112.7964, 773.9147
113.2785, 766.8741
113.7607, 759.7098
114.2428, 751.6272
114.7249, 742.8292
115.2070, 733.8873
115.6891, 725.3474
116.1712, 717.0816
116.6534, 708.1833
117.1355, 697.7365
117.6176, 687.2746
118.0997, 678.0746
118.5818, 670.2592
119.0639, 662.8682
119.5461, 654.7987
120.0282, 646.3895
120.5103, 638.9047
120.9924, 632.9547
121.4745, 628.1890
121.9566, 624.0425
122.4388, 621.4328
122.9209, 617.8587
123.4030, 611.1917
123.8851, 602.1468
124.3672, 593.1202
124.8493, 586.1510
125.3315, 581.3653
125.8136, 576.4848
126.2957, 571.7131
126.7778, 566.5700
127.2599, 560.4343
127.7420, 553.4561
128.2242, 546.4641
128.7063, 540.7105
129.1884, 536.9542
129.6705, 532.8952
130.1526, 528.3112
130.6347, 523.5714
131.1169, 519.0507
131.5990, 514.8504
132.0811, 510.6982
132.5632, 505.9922
133.0453, 499.3115
133.5274, 493.7982
134.0096, 490.2936
134.4917, 487.9296
134.9738, 485.5732
135.4559, 482.7280
135.9380, 479.4765
136.4201, 476.1312
136.9023, 472.7323
137.3844, 469.2273
137.8665, 465.6371
138.3486, 461.9536
138.8307, 458.0717
139.3128, 453.8098
139.7950, 449.3976
140.2771, 445.3498
140.7592, 441.5158
141.2413, 438.2159
141.7234, 436.0535
142.2055, 435.2881
142.6877, 434.3579
143.1698, 432.0509
143.6519, 429.1787
144.1340, 426.6075
144.6161, 424.6245
145.0982, 423.1759
145.5803, 422.3109
146.0625, 422.9944
146.5446, 422.6122
147.0267, 419.1997
147.5088, 414.4053
147.9909, 410.7990
148.4730, 410.3102
148.9552, 412.7518
149.4373, 414.2873
149.9194, 414.2089
150.4015, 413.7920
150.8836, 413.0269
151.3657, 412.1375
151.8479, 411.5387
152.3300, 411.6956
152.8121, 412.8745
153.2942, 413.0982
153.7763, 411.9374
154.2584, 410.4346
154.7406, 409.1183
155.2227, 408.0179
155.7048, 406.7820
156.1869, 404.9492
156.6690, 402.2013
157.1511, 400.1226
157.6333, 398.3954
158.1154, 397.4770
158.5975, 398.1850
159.0796, 400.7365
159.5617, 403.7504
160.0438, 405.3661
160.5260, 405.5673
161.0081, 405.6163
161.4902, 405.1687
161.9723, 404.8325
162.4544, 405.8032
162.9365, 408.5440
163.4187, 412.3183
163.9008, 416.6878
164.3829, 421.6234
164.8650, 425.7120
165.3471, 427.9016
165.8292, 428.4089
166.3113, 428.6301
166.7935, 429.0011
167.2756, 428.9349
167.7577, 428.2975
168.2398, 427.0435
168.7219, 424.7021
169.2040, 420.5466
169.6862, 414.3350
170.1683, 408.0018
170.6504, 401.3830
171.1325, 395.0687
171.6146, 389.2465
172.0967, 384.0097
172.5789, 379.4992
173.0610, 376.0882
173.5431, 374.4501
174.0252, 372.3959
174.5073, 369.0173
174.9894, 365.6720
175.4716, 363.4379
175.9537, 362.6397
176.4358, 362.7039
176.9179, 362.4847
177.4000, 361.6991
177.8821, 361.0023
178.3643, 360.1168
178.8464, 359.4470
179.3285, 359.4501
179.8106, 360.3124
180.2927, 361.8127
180.7748, 363.3593
181.2570, 364.9612
181.7391, 366.6032
182.2212, 368.1350
182.7033, 369.7301
183.1854, 371.5563
183.6675, 373.6348
184.1497, 376.1236
184.6318, 379.6873
185.1139, 384.9431
185.5960, 390.0375
186.0781, 394.2142
186.5602, 397.6966
187.0423, 400.9748
187.5245, 403.8897
188.0066, 407.1256
188.4887, 412.0862
188.9708, 419.1640
189.4529, 427.0695
189.9350, 434.9909
190.4172, 442.9457
190.8993, 451.6216
191.3814, 462.3145
191.8635, 473.3052
192.3456, 482.4825
192.8277, 489.7035
193.3099, 494.8455
193.7920, 497.2848
194.2741, 496.7159
194.7562, 495.7362
195.2383, 494.8532
195.7204, 494.3071
196.2026, 494.1834
196.6847, 494.3460
197.1668, 495.4373
197.6489, 498.6209
198.1310, 504.4560
198.6131, 510.8790
199.0953, 516.7126
199.5774, 523.0806
200.0595, 530.7345
200.5416, 539.9111
201.0237, 550.9665
201.5058, 565.0038
201.9880, 584.4218
202.4701, 602.6473
202.9522, 619.4391
203.4343, 634.2137
203.9164, 646.6848
204.3985, 656.7723
204.8807, 663.8423
205.3628, 665.8171
205.8449, 660.4088
206.3270, 652.0370
206.8091, 640.1443
207.2912, 626.1534
207.7733, 611.0929
208.2555, 595.4822
208.7376, 579.7991
209.2197, 565.8492
209.7018, 554.9467
210.1839, 544.4262
210.6660, 533.7314
211.1482, 523.3656
211.6303, 514.1594
212.1124, 506.5747
212.5945, 500.2841
213.0766, 493.7668
213.5587, 487.6956
214.0409, 480.6871
214.5230, 471.9791
215.0051, 462.1774
215.4872, 452.1288
215.9693, 442.1450
216.4514, 432.3986
216.9336, 423.7105
217.4157, 416.1295
217.8978, 409.1800
218.3799, 402.5634
218.8620, 396.4386
219.3441, 391.1133
219.8263, 386.7580
220.3084, 383.3830
220.7905, 381.0082
221.2726, 380.5437
221.7547, 379.4250
222.2368, 375.6929
222.7190, 370.0056
223.2011, 365.0754
223.6832, 362.2129
224.1653, 360.7173
224.6474, 358.9980
225.1295, 356.9356
225.6117, 354.9336
226.0938, 353.5063
226.5759, 352.5384
227.0580, 350.9593
227.5401, 347.6130
228.0222, 344.0771
228.5043, 342.4361
228.9865, 343.1829
229.4686, 344.2804
229.9507, 343.9987
230.4328, 342.3509
230.9149, 340.6420
231.3970, 339.0443
231.8792, 337.7283
232.3613, 337.0784
232.8434, 337.2116
233.3255, 337.0771
233.8076, 335.1658
234.2897, 331.2294
234.7719, 328.4462
235.2540, 328.3400
235.7361, 329.1545
236.2182, 330.0456
236.7003, 330.8631
237.1824, 331.5060
237.6646, 331.8893
238.1467, 332.0195
238.6288, 331.8493
239.1109, 331.1501
239.5930, 330.2869
240.0751, 329.3466
240.5573, 328.3755
241.0394, 327.4969
241.5215, 326.9122
242.0036, 326.7252
242.4857, 326.3897
242.9678, 325.5938
243.4500, 324.8640
243.9321, 324.5570
244.4142, 324.6522
244.8963, 324.8014
245.3784, 324.5390
245.8605, 323.6433
246.3427, 323.1673
246.8248, 323.5490
247.3069, 323.9586
247.7890, 323.8791
248.2711, 323.3668
248.7532, 322.9263
249.2354, 323.1998
249.7175, 324.5537
250.1996, 325.0121
250.6817, 323.1715
251.1638, 321.7754
251.6459, 322.6129
252.1281, 325.3343
252.6102, 328.1102
253.0923, 329.1229
253.5744, 328.0302
254.0565, 327.2111
254.5386, 326.6733
255.0208, 326.3356
255.5029, 326.5124
255.9850, 326.9454
256.4671, 326.7775
256.9492, 325.0468
257.4313, 321.4426
257.9135, 320.1060
258.3956, 322.8776
258.8777, 325.5972
259.3598, 326.4190
259.8419, 325.6201
260.3240, 324.4488
260.8062, 323.7802
261.2883, 323.6169
261.7704, 323.8772
262.2525, 325.5593
262.7346, 326.5856
263.2167, 325.2833
263.6989, 322.5205
264.1810, 320.7320
264.6631, 321.6177
265.1452, 324.8182
265.6273, 327.0898
266.1094, 328.3465
266.5916, 329.0011
267.0737, 328.7417
267.5558, 327.9589
268.0379, 327.6031
268.5200, 328.2906
269.0021, 329.6854
269.4843, 330.3531
269.9664, 329.5887
270.4485, 329.1126
270.9306, 329.7973
271.4127, 331.1549
271.8948, 332.0647
272.3770, 331.9216
272.8591, 331.2455
273.3412, 331.5294
273.8233, 333.4169
274.3054, 334.7321
274.7875, 334.3434
275.2697, 332.9767
275.7518, 332.0060
276.2339, 331.9435
276.7160, 332.3777
277.1981, 332.5529
277.6802, 332.4209
278.1623, 332.3553
278.6444, 332.5425
279.1266, 332.8485
279.6087, 333.1378
280.0908, 333.4450
280.5729, 333.4760
281.0550, 332.5400
281.5371, 330.6230
282.0193, 329.1129
282.5014, 328.6082
282.9835, 328.6328
283.4656, 328.5587
283.9477, 328.2965
284.4298, 327.8538
284.9120, 327.1108
285.3941, 326.1193
285.8762, 325.3308
286.3583, 324.7015
286.8404, 324.3848
287.3225, 324.5302
287.8047, 325.1436
288.2868, 326.3452
288.7689, 329.0357
289.2510, 332.5115
289.7331, 334.2586
290.2152, 332.6877
290.6974, 329.9025
291.1795, 327.7939
291.6616, 326.3972
292.1437, 325.7232
292.6258, 326.2960
293.1079, 327.5100
293.5901, 327.9039
294.0722, 326.8586
294.5543, 325.4875
295.0364, 324.5466
295.5185, 324.0375
296.0006, 324.1523
296.4828, 325.5797
296.9649, 327.3096
297.4470, 327.5007
297.9291, 325.4750
298.4112, 323.3681
298.8933, 322.9789
299.3755, 323.9876
299.8576, 324.3919
300.3397, 323.3513
300.8218, 321.5716
301.3039, 319.9725
301.7860, 318.5324
302.2682, 317.4243
302.7503, 317.1161
303.2324, 317.2806
303.7145, 316.6632
304.1966, 314.6617
304.6787, 312.3622
305.1609, 311.1719
305.6430, 310.9300
306.1251, 310.1183
306.6072, 307.4484
307.0893, 303.8251
307.5714, 301.4120
308.0536, 300.8570
308.5357, 300.3670
309.0178, 297.9995
309.4999, 294.4209
309.9820, 291.4115
310.4641, 289.8144
310.9463, 289.0158
311.4284, 288.2461
311.9105, 287.5255
312.3926, 286.6436
312.8747, 285.2419
313.3568, 283.6248
313.8390, 282.3820
314.3211, 281.9374
314.8032, 281.5825
315.2853, 280.4165
315.7674, 278.4220
316.2495, 276.6389
316.7317, 275.3957
317.2138, 274.7601
317.6959, 274.9348
318.1780, 276.3363
318.6601, 277.4984
319.1422, 276.9909
319.6243, 275.0766
320.1064, 273.5721
320.5886, 272.9749
321.0707, 273.1373
321.5528, 274.0161
322.0349, 275.6982
322.5170, 276.9568
322.9991, 276.9249
323.4813, 275.9573
323.9634, 274.9453
324.4455, 273.8671
324.9276, 273.1844
325.4097, 273.5750
325.8918, 274.8400
326.3740, 276.0963
326.8561, 277.1795
327.3382, 278.0239
327.8203, 278.4005
328.3024, 278.1880
328.7845, 278.0522
329.2667, 278.5023
329.7488, 279.4189
330.2309, 280.5576
330.7130, 282.1411
331.1951, 283.7343
331.6772, 284.7844
332.1594, 285.3017
332.6415, 285.9654
333.1236, 287.2100
333.6057, 288.8133
334.0878, 290.2402
334.5699, 291.3225
335.0521, 292.4899
335.5342, 294.1907
336.0163, 296.2622
336.4984, 298.0934
336.9805, 299.5482
337.4626, 300.5291
337.9448, 300.6783
338.4269, 299.8195
338.9090, 299.4443
339.3911, 300.2975
339.8732, 302.0082
340.3553, 304.0773
340.8375, 306.5565
341.3196, 308.7444
341.8017, 309.4424
342.2838, 308.8244
342.7659, 308.9198
343.2480, 310.7544
343.7302, 313.1245
344.2123, 314.8393
344.6944, 315.7982
345.1765, 316.2168
345.6586, 315.9884
346.1407, 315.2965
346.6229, 315.2553
347.1050, 316.9577
347.5871, 318.3380
348.0692, 317.3856
348.5513, 314.8241
349.0334, 313.5565
349.5156, 315.3073
349.9977, 318.9536
350.4798, 321.4467
350.9619, 322.6332
351.4440, 323.2785
351.9261, 323.1619
352.4083, 322.7493
352.8904, 323.2381
353.3725, 325.1669
353.8546, 326.7522
354.3367, 325.0220
354.8188, 318.9745
355.3010, 313.9111
355.7831, 310.9498
356.2652, 308.7678
356.7473, 306.2275
357.2294, 303.1884
357.7115, 300.0207
358.1937, 296.9373
358.6758, 293.9504
359.1579, 291.6581
359.6400, 290.2575
360.1221, 289.2715
360.6042, 289.0615
361.0863, 289.1339
361.5685, 288.0229
362.0506, 284.6504
362.5327, 279.9204
363.0148, 277.6299
363.4969, 280.1280
363.9790, 281.9492
364.4612, 281.9525
364.9433, 281.0179
365.4254, 280.1692
365.9075, 279.7480
366.3896, 279.5015
366.8717, 279.0016
367.3539, 277.9564
367.8360, 277.3541
368.3181, 277.4794
368.8002, 277.7950
369.2823, 277.8989
369.7644, 277.8015
370.2466, 277.8306
370.7287, 278.3412
371.2108, 279.3872
371.6929, 279.9318
372.1750, 279.1326
372.6571, 278.7656
373.1393, 279.9546
373.6214, 281.8502
374.1035, 282.9546
374.5856, 282.4126
375.0677, 280.6772
375.5498, 279.1665
376.0320, 277.5992
376.5141, 276.7556
376.9962, 277.4295
377.4783, 278.3640
377.9604, 278.2743
378.4425, 276.9274
378.9247, 275.3150
379.4068, 274.8664
379.8889, 276.0028
380.3710, 276.8376
380.8531, 277.1485
381.3352, 277.3582
381.8174, 277.4253
382.2995, 277.5185
382.7816, 278.0426
383.2637, 279.4215
383.7458, 281.4950
384.2279, 283.1210
384.7101, 284.0107
385.1922, 284.8720
385.6743, 285.8078
386.1564, 286.8819
386.6385, 288.1981
387.1206, 289.8004
387.6028, 291.5940
388.0849, 293.5177
388.5670, 295.6436
389.0491, 297.5241
389.5312, 298.7536
390.0133, 299.9222
390.4955, 301.5284
390.9776, 303.5667
391.4597, 305.4641
391.9418, 306.5272
392.4239, 306.9673
392.9060, 308.1143
393.3882, 310.5009
393.8703, 312.8142
394.3524, 314.2220
394.8345, 314.9438
395.3166, 315.3846
395.7987, 315.5546
396.2809, 315.6253
396.7630, 315.9292
397.2451, 316.5029
397.7272, 316.7791
398.2093, 316.4787
398.6914, 315.7151
399.1736, 314.7272
399.6557, 313.5001
400.1378, 312.0957
400.6199, 310.5387
401.1020, 308.8307
401.5841, 306.8929
402.0662, 304.6125
402.5483, 302.3971
403.0305, 300.9564
403.5126, 300.2293
403.9947, 299.0146
404.4768, 296.3700
404.9589, 293.6278
405.4410, 292.3484
405.9232, 292.4496
406.4053, 292.3022
406.8874, 290.6946
407.3695, 288.0125
407.8516, 286.2393
408.3337, 285.5695
408.8159, 285.4395
409.2980, 286.0167
409.7801, 286.9401
410.2622, 287.6914
410.7443, 288.1040
411.2264, 288.1571
411.7086, 287.7699
412.1907, 286.5939
412.6728, 285.8609
413.1549, 285.8078
413.6370, 285.9912
414.1191, 286.3708
414.6013, 286.7690
415.0834, 286.6265
415.5655, 285.3599
416.0476, 283.0939
416.5297, 282.1002
417.0118, 283.9756
417.4940, 285.3314
417.9761, 285.5161
418.4582, 284.9018
418.9403, 283.8247
419.4224, 282.4355
419.9045, 281.0322
420.3867, 280.2921
420.8688, 280.8789
421.3509, 280.3424
421.8330, 277.6667
422.3151, 274.6973
422.7972, 272.3282
423.2794, 270.5770
423.7615, 269.0424
424.2436, 267.4533
424.7257, 265.8170
425.2078, 264.1893
425.6899, 262.7091
426.1721, 260.9806
426.6542, 258.5705
427.1363, 255.9713
427.6184, 253.7712
428.1005, 252.1749
428.5826, 250.9053
429.0648, 249.9353
429.5469, 249.2766
430.0290, 247.6108
430.5111, 243.8495
430.9932, 239.8898
431.4753, 237.3527
431.9575, 236.1354
432.4396, 235.3795
432.9217, 234.9329
433.4038, 234.6100
433.8859, 233.9831
434.3680, 232.9801
434.8502, 232.2188
435.3323, 232.1938
435.8144, 232.6935
436.2965, 233.0795
436.7786, 233.4419
437.2607, 233.5221
437.7429, 232.8807
438.2250, 231.8665
438.7071, 231.5573
439.1892, 232.4555
439.6713, 233.1989
440.1534, 231.5086
440.6356, 226.4497
441.1177, 223.3258
441.5998, 223.7531
442.0819, 225.1504
442.5640, 225.8833
443.0461, 225.8882
443.5282, 225.6765
444.0103, 225.5721
444.4925, 225.5544
444.9746, 225.5075
445.4567, 225.4411
445.9388, 225.3328
446.4209, 225.0694
446.9030, 224.8206
447.3852, 224.7596
447.8673, 224.9285
448.3494, 225.2473
448.8315, 225.6719
449.3136, 226.2979
449.7957, 226.5404
450.2779, 226.0660
450.7600, 225.5257
451.2421, 225.1459
451.7242, 224.8599
452.2063, 224.4858
452.6884, 223.9016
453.1706, 223.2412
453.6527, 222.7093
454.1348, 222.0984
454.6169, 222.2828
455.0990, 225.2519
455.5811, 227.9120
456.0633, 227.5021
456.5454, 223.9611
457.0275, 220.5147
457.5096, 219.8927
457.9917, 221.3062
458.4738, 221.9179
458.9560, 221.4308
459.4381, 220.4986
459.9202, 219.2112
460.4023, 217.8292
460.8844, 216.8723
461.3665, 216.5846
461.8487, 216.5242
462.3308, 216.2490
462.8129, 215.9036
463.2950, 216.1301
463.7771, 217.3067
464.2592, 218.6626
464.7414, 219.0468
465.2235, 218.3480
465.7056, 217.5811
466.1877, 216.2900
466.6698, 215.3950
467.1519, 215.8889
467.6341, 217.5648
468.1162, 219.3082
468.5983, 220.3782
469.0804, 220.9923
469.5625, 222.1082
470.0446, 224.6024
470.5268, 226.4886
471.0089, 226.8546
471.4910, 226.9877
471.9731, 228.3153
472.4552, 230.9729
472.9373, 233.7902
473.4195, 235.4613
473.9016, 235.8956
474.3837, 236.3653
474.8658, 236.1904
475.3479, 236.8614
475.8300, 239.7764
476.3122, 243.4784
476.7943, 245.7090
477.2764, 245.3796
477.7585, 244.2581
478.2406, 245.1976
478.7227, 248.4349
479.2049, 251.5690
479.6870, 254.2711
480.1691, 256.6445
480.6512, 258.7089
481.1333, 260.5054
481.6154, 262.2287
482.0976, 263.9869
482.5797, 265.7220
483.0618, 267.2130
483.5439, 268.4440
484.0260, 270.0327
484.5081, 272.3129
484.9902, 275.1519
485.4724, 278.2810
485.9545, 281.8543
486.4366, 285.2388
486.9187, 288.0906
487.4008, 290.7033
487.8829, 293.3562
488.3651, 296.1244
488.8472, 299.1758
489.3293, 302.6263
489.8114, 306.4935
490.2935, 310.7511
490.7756, 316.4377
491.2578, 321.2254
491.7399, 323.4695
492.2220, 324.7831
492.7041, 327.5209
493.1862, 332.4019
493.6683, 337.9907
494.1505, 342.2508
494.6326, 344.9981
495.1147, 347.1075
495.5968, 348.1792
496.0789, 348.9698
496.5610, 350.4166
497.0432, 351.6910
497.5253, 351.0171
498.0074, 347.1785
498.4895, 341.8466
498.9716, 338.0651
499.4537, 335.9928
499.9359, 334.3953
500.4180, 332.3266
500.9001, 331.3232
501.3822, 333.0303
501.8643, 337.2109
502.3464, 341.4023
502.8286, 344.0512
503.3107, 346.2167
503.7928, 349.9316
504.2749, 355.2458
504.7570, 359.8270
505.2391, 362.1563
505.7213, 363.1249
506.2034, 365.1921
506.6855, 369.2445
507.1676, 372.2220
507.6497, 373.7474
508.1318, 373.5528
508.6140, 370.7036
509.0961, 365.3743
509.5782, 359.6382
510.0603, 355.5150
510.5424, 352.8264
511.0245, 347.7234
511.5067, 338.1205
511.9888, 328.6218
512.4709, 320.0370
512.9530, 311.8771
513.4351, 303.4813
513.9172, 294.7014
514.3994, 286.0578
514.8815, 278.1257
515.3636, 270.8867
515.8457, 264.2629
516.3278, 258.6840
516.8099, 253.1303
517.2921, 246.6029
517.7742, 240.0061
518.2563, 234.7983
518.7384, 231.5715
519.2205, 229.3844
519.7026, 227.5753
520.1848, 226.0403
520.6669, 223.8621
521.1490, 220.5875
521.6311, 217.1545
522.1132, 214.6545
522.5953, 212.9058
523.0775, 211.0336
523.5596, 208.2154
524.0417, 205.8404
524.5238, 205.5621
525.0059, 206.5817
525.4880, 206.4378
525.9702, 204.0266
526.4523, 200.7062
526.9344, 198.7668
527.4165, 198.7550
527.8986, 198.8601
528.3807, 199.8402
528.8629, 200.2318
529.3450, 198.5143
529.8271, 195.5827
530.3092, 193.6041
530.7913, 193.8617
531.2734, 195.4454
531.7556, 196.0795
532.2377, 195.3302
532.7198, 194.8563
533.2019, 195.0974
533.6840, 195.5085
534.1661, 195.6512
534.6483, 195.6533
535.1304, 196.1173
535.6125, 197.7464
536.0946, 199.8236
536.5767, 201.0712
537.0588, 201.4669
537.5410, 201.4253
538.0231, 200.8010
538.5052, 200.1186
538.9873, 200.3111
539.4694, 201.5043
539.9515, 202.4585
540.4337, 202.6604
540.9158, 202.5804
541.3979, 202.6446
541.8800, 202.8758
542.3621, 203.1767
542.8442, 203.5055
543.3264, 203.8245
543.8085, 203.9965
544.2906, 203.5471
544.7726, 203.6341
545.2548, 204.8758
545.7369, 206.1865
546.2190, 206.6839
546.7011, 206.4409
547.1832, 206.0757
547.6653, 205.9780
548.1475, 206.1948
548.6296, 207.0769
549.1117, 209.1012
549.5938, 210.5284
550.0759, 210.3370
550.5580, 209.6819
551.0402, 209.3794
551.5223, 209.4927
552.0044, 209.6517
552.4865, 209.5661
552.9686, 209.4145
553.4507, 209.6693
553.9329, 210.3520
554.4150, 210.6160
554.8971, 209.8142
555.3792, 208.4641
555.8613, 207.8885
556.3434, 208.1543
556.8256, 208.8274
557.3077, 210.5049
557.7898, 212.0878
558.2719, 212.4736
558.7540, 211.7153
559.2361, 210.5024
559.7183, 209.2374
560.2004, 208.0488
560.6825, 207.5256
561.1646, 208.4956
561.6467, 208.7029
562.1288, 207.0249
562.6110, 205.3201
563.0931, 205.2644
563.5752, 206.6145
564.0573, 207.5241
564.5394, 206.2196
565.0215, 203.8242
565.5037, 203.5620
565.9858, 205.8372
566.4679, 207.6004
566.9500, 207.6518
567.4321, 206.6699
567.9142, 205.4940
568.3964, 204.0936
568.8785, 202.9288
569.3606, 202.2991
569.8427, 201.8784
570.3248, 201.4999
570.8069, 201.0643
571.2891, 200.1084
571.7712, 198.2829
572.2533, 196.1025
572.7354, 194.8943
573.2175, 195.4978
573.6996, 195.6087
574.1818, 195.1311
574.6639, 194.2796
575.1460, 192.9312
575.6281, 191.3183
576.1102, 189.9541
576.5923, 189.1524
577.0745, 188.7264
577.5566, 188.2951
578.0387, 187.8627
578.5208, 187.4171
579.0029, 187.0726
579.4850, 186.5869
579.9672, 185.6795
580.4493, 184.4579
580.9314, 183.3840
581.4135, 182.6201
581.8956, 182.0812
582.3777, 181.5628
582.8599, 181.1700
583.3420, 181.5142
583.8241, 182.9667
584.3062, 184.4382
584.7883, 184.3647
585.2704, 182.3121
585.7526, 180.7834
586.2347, 179.7555
586.7168, 179.2256
587.1989, 179.5151
587.6810, 180.2036
588.1631, 180.7847
588.6453, 181.0470
589.1274, 180.8258
589.6095, 179.6804
590.0916, 177.4540
590.5737, 175.7677
591.0558, 174.8981
591.5380, 174.1998
592.0201, 173.3203
592.5022, 172.4235
592.9843, 171.7895
593.4664, 171.5447
593.9485, 171.3594
594.4307, 170.9712
594.9128, 170.4619
595.3949, 169.9259
595.8770, 169.3645
596.3591, 169.1695
596.8412, 169.8120
597.3234, 171.0985
597.8055, 171.5866
598.2876, 171.2494
598.7697, 170.2951
599.2518, 167.5519
599.7339, 164.9802
600.2161, 164.9574
600.6982, 167.2966
601.1803, 169.4979
601.6624, 169.3961
602.1445, 167.6660
602.6266, 167.5557
603.1088, 169.7827
603.5909, 171.7548
604.0730, 172.5039
604.5551, 172.9711
605.0372, 173.8825
605.5193, 175.2143
606.0015, 176.3613
606.4836, 176.7061
606.9657, 176.9281
607.4478, 178.1532
607.9299, 180.1591
608.4120, 181.4345
608.8942, 181.1981
609.3763, 180.5762
609.8584, 181.4258
610.3405, 184.4418
610.8226, 186.3438
611.3047, 186.7227
611.7869, 186.4740
612.2690, 185.5423
612.7511, 184.4024
613.2332, 183.9170
613.7153, 184.3820
614.1974, 184.8949
614.6796, 183.9927
615.1617, 181.5669
615.6438, 179.9379
616.1259, 179.6458
616.6080, 179.3118
617.0901, 178.2968
617.5723, 176.7730
618.0544, 174.8192
618.5365, 172.2412
619.0186, 170.0098
619.5007, 168.9527
619.9828, 168.4932
620.4650, 167.6446
620.9471, 166.3328
621.4292, 165.1570
621.9113, 164.5187
622.3934, 164.3286
622.8755, 164.2589
623.3577, 164.4546
623.8398, 164.5650
624.3219, 164.6581
624.8040, 164.6073
625.2861, 164.0180
625.7682, 163.1975
626.2504, 163.0280
626.7325, 164.1525
627.2145, 165.8471
627.6967, 166.7097
628.1788, 166.7001
628.6609, 166.8685
629.1430, 167.4986
629.6251, 168.2371
630.1072, 168.6723
630.5894, 168.9262
631.0715, 169.4848
631.5536, 170.1101
632.0357, 171.3939
632.5178, 174.3186
632.9999, 177.8656
633.4821, 179.9785
633.9642, 180.4046
634.4463, 181.3247
634.9284, 184.9307
635.4105, 191.0339
635.8926, 196.5512
636.3748, 199.8831
636.8569, 205.2159
637.3390, 215.4028
637.8211, 226.0767
638.3032, 234.3503
638.7853, 239.7158
639.2675, 242.3581
639.7496, 242.0998
640.2317, 239.3428
640.7138, 234.2314
641.1959, 226.9000
641.6780, 218.5939
642.1602, 209.1979
642.6423, 200.3844
643.1244, 194.4828
643.6065, 192.0674
644.0886, 189.5225
644.5707, 187.0014
645.0529, 184.1895
645.5350, 179.9827
646.0171, 175.7863
646.4992, 173.7989
646.9813, 174.4876
647.4634, 176.0952
647.9456, 176.8281
648.4277, 176.7419
648.9098, 176.4421
649.3919, 175.7874
649.8740, 175.2946
650.3561, 175.4148
650.8383, 175.6385
651.3204, 175.3227
651.8025, 174.4049
652.2846, 173.6125
652.7667, 173.3659
653.2488, 173.2636
653.7310, 172.9080
654.2131, 172.3502
654.6952, 171.9027
655.1773, 171.7130
655.6594, 171.3970
656.1415, 170.2136
656.6237, 167.7658
657.1058, 166.3238
657.5879, 167.1841
658.0700, 167.6453
658.5521, 166.5161
659.0342, 164.8004
659.5164, 163.8189
659.9985, 163.8782
660.4806, 164.1768
660.9627, 163.9822
661.4448, 163.5683
661.9269, 163.5679
662.4091, 164.0127
662.8912, 164.7403
663.3733, 165.7451
663.8554, 166.8888
664.3375, 167.9340
664.8196, 168.9880
665.3018, 169.5947
665.7839, 169.3038
666.2660, 169.0087
666.7481, 169.2712
667.2302, 169.8428
667.7123, 170.1843
668.1945, 170.1086
668.6766, 170.0294
669.1587, 170.6805
669.6408, 171.9727
670.1229, 172.3828
670.6050, 171.5397
671.0872, 170.8249
671.5693, 171.3404
672.0514, 172.1659
672.5335, 171.5889
673.0156, 169.2118
673.4977, 167.2997
673.9799, 166.9452
674.4620, 166.9812
674.9441, 166.3450
675.4262, 165.2449
675.9083, 164.5435
676.3904, 164.6230
676.8726, 164.8459
677.3547, 164.0085
677.8368, 161.8070
678.3189, 160.6066
678.8010, 161.0406
679.2831, 161.5698
679.7653, 161.6725
680.2474, 161.4890
680.7295, 161.1579
681.2116, 160.6947
681.6937, 160.1709
682.1758, 159.5714
682.6580, 158.9671
683.1401, 158.3201
683.6222, 157.7137
684.1043, 157.5849
684.5864, 158.1828
685.0685, 159.0786
685.5507, 159.5788
686.0328, 159.7347
686.5149, 159.2876
686.9970, 157.1812
687.4791, 155.6639
687.9612, 155.8771
688.4434, 156.8180
688.9255, 157.1837
689.4076, 156.6820
689.8897, 156.1326
690.3718, 156.1468
690.8539, 156.5571
691.3361, 157.3172
691.8182, 158.3610
692.3003, 158.5349
692.7824, 157.1631
693.2645, 155.1660
693.7466, 154.0412
694.2288, 154.1174
694.7109, 153.7077
695.1930, 152.1875
695.6751, 150.9429
696.1572, 150.6912
696.6393, 150.8781
697.1215, 150.6557
697.6036, 149.8916
698.0857, 149.3819
698.5678, 150.2057
699.0499, 151.7680
699.5320, 152.3407
700.0142, 151.8986
700.4963, 150.7593
700.9784, 148.6064
701.4605, 146.5780
701.9426, 146.5041
702.4247, 148.7687
702.9069, 149.9496
703.3890, 149.2184
703.8711, 148.3032
704.3532, 147.8006
704.8353, 147.5235
705.3174, 147.2480
705.7996, 146.9061
706.2817, 146.4456
706.7638, 145.6745
707.2459, 144.8411
707.7280, 144.9297
708.2101, 146.0816
708.6923, 146.8037
709.1743, 146.5336
709.6564, 145.9007
710.1385, 145.3692
710.6207, 144.9773
711.1028, 145.2910
711.5849, 147.6015
712.0670, 149.1321
712.5491, 148.2490
713.0313, 146.3613
713.5134, 144.9392
713.9955, 144.2459
714.4776, 143.9827
714.9597, 144.0016
715.4418, 144.1329
715.9240, 143.8505
716.4061, 143.0900
716.8882, 142.4592
717.3703, 141.9491
717.8524, 141.8031
718.3345, 142.4439
718.8167, 143.6409
719.2988, 144.6069
719.7809, 145.1700
720.2630, 145.6623
720.7451, 146.2058
721.2272, 146.7260
721.7094, 147.0952
722.1915, 147.3594
722.6736, 147.7681
723.1557, 148.5028
723.6378, 149.2560
724.1199, 149.2215
724.6021, 148.2829
725.0842, 148.0753
725.5663, 149.0269
726.0484, 150.1609
726.5305, 150.7663
727.0126, 151.1861
727.4948, 152.2233
727.9769, 154.3371
728.4590, 155.7789
728.9411, 155.6464
729.4232, 154.9612
729.9053, 154.1288
730.3875, 153.5058
730.8696, 153.8694
731.3517, 155.5320
731.8338, 157.6035
732.3159, 158.7253
732.7980, 158.8985
733.2802, 159.7225
733.7623, 161.4754
734.2444, 163.0962
734.7265, 164.1320
735.2086, 164.7984
735.6907, 165.5126
736.1729, 166.3184
736.6550, 166.5469
737.1371, 165.7094
737.6192, 164.6192
738.1013, 163.8497
738.5834, 163.1185
739.0656, 161.9370
739.5477, 160.1882
740.0298, 158.0889
740.5119, 155.6806
740.9940, 153.1784
741.4761, 151.4693
741.9583, 150.5997
742.4404, 150.3806
742.9225, 151.2227
743.4046, 152.0744
743.8867, 151.7361
744.3688, 150.4264
744.8510, 149.3703
745.3331, 148.7143
745.8152, 148.2670
746.2973, 147.9934
746.7794, 147.8815
747.2615, 148.0077
747.7437, 148.2992
748.2258, 148.5898
748.7079, 148.8295
749.1900, 148.7747
749.6721, 147.5660
750.1542, 145.2418
750.6364, 144.4140
751.1185, 145.7707
751.6006, 147.3834
752.0827, 148.0677
752.5648, 148.1498
753.0469, 148.5772
753.5291, 149.6032
754.0112, 150.2698
754.4933, 150.2819
754.9754, 150.0714
755.4575, 149.5742
755.9396, 149.1465
756.4218, 149.6248
756.9039, 151.2067
757.3860, 152.5215
757.8681, 151.5750
758.3502, 149.1921
758.8323, 148.5263
759.3145, 149.6679
759.7966, 150.7170
760.2787, 151.0251
760.7608, 150.8139
761.2429, 150.1229
761.7250, 148.8051
762.2072, 148.8635
762.6893, 152.0047
763.1714, 154.2192
763.6535, 154.0071
764.1356, 152.8736
764.6177, 152.1554
765.0999, 151.9114
765.5820, 151.4437
766.0641, 150.2007
766.5462, 148.8421
767.0283, 148.0512
767.5104, 147.8651
767.9926, 148.8494
768.4747, 151.1384
768.9568, 152.6572
769.4389, 151.7215
769.9210, 149.1996
770.4031, 148.0055
770.8853, 148.9913
771.3674, 149.6426
771.8495, 149.7228
772.3316, 149.7405
772.8137, 149.9280
773.2958, 150.1812
773.7780, 150.3314
774.2601, 150.3395
774.7422, 150.2712
775.2243, 150.2942
775.7064, 150.1816
776.1885, 149.3355
776.6707, 148.0614
777.1528, 147.4671
777.6349, 147.9394
778.1170, 149.0165
778.5991, 150.2377
779.0812, 151.5776
779.5634, 152.4944
780.0455, 153.1008
780.5276, 152.9940
781.0097, 151.0391
781.4918, 149.2773
781.9739, 149.7262
782.4561, 151.8100
782.9382, 153.0191
783.4203, 151.9792
783.9024, 151.1701
784.3845, 152.1361
784.8666, 153.7405
785.3488, 154.6228
785.8309, 154.8174
786.3130, 155.2174
786.7951, 156.3443
787.2772, 157.5496
787.7593, 157.4192
788.2415, 156.0084
788.7236, 155.8509
789.2057, 157.4487
789.6878, 158.7853
790.1699, 158.3766
790.6520, 157.6098
791.1342, 159.2736
791.6162, 164.0384
792.0983, 167.0304
792.5804, 166.5551
793.0626, 165.9337
793.5447, 166.1425
794.0268, 167.1069
794.5089, 168.8537
794.9910, 171.2463
795.4731, 173.7625
795.9553, 176.0625
796.4374, 178.2861
796.9195, 180.6809
797.4016, 183.1914
797.8837, 185.4363
798.3658, 187.3415
798.8480, 189.2891
799.3301, 191.5165
799.8122, 194.0563
800.2943, 196.9579
800.7764, 200.2277
801.2585, 203.8653
801.7407, 208.2889
802.2228, 212.6236
802.7049, 216.2289
803.1870, 219.6560
803.6691, 223.7444
804.1512, 228.6502
804.6334, 233.5498
805.1155, 238.0733
805.5976, 242.3354
806.0797, 246.0271
806.5618, 249.6169
807.0439, 254.6751
807.5261, 261.3380
808.0082, 267.1511
808.4903, 269.5510
808.9724, 269.5291
809.4545, 271.1807
809.9366, 275.0286
810.4188, 276.8687
810.9009, 275.2303
811.3830, 272.8802
811.8651, 272.0155
812.3472, 272.0456
812.8293, 270.7767
813.3115, 267.3069
813.7936, 264.4910
814.2757, 262.7597
814.7578, 261.7709
815.2399, 261.4779
815.7220, 261.7443
816.2042, 262.5554
816.6863, 263.8544
817.1684, 265.0442
817.6505, 265.5786
818.1326, 265.6663
818.6147, 265.4313
819.0969, 265.0273
819.5790, 265.5076
820.0611, 267.2234
820.5432, 268.6677
821.0253, 268.1831
821.5074, 266.2371
821.9896, 266.1503
822.4717, 269.5462
822.9538, 271.0687
823.4359, 268.8239
823.9180, 265.9817
824.4001, 264.2775
824.8823, 263.2065
825.3644, 261.5436
825.8465, 258.6617
826.3286, 257.0404
826.8107, 259.1390
827.2928, 261.4953
827.7750, 260.6727
828.2571, 258.0977
828.7392, 256.9302
829.2213, 257.9917
829.7034, 259.5729
830.1855, 260.1286
830.6677, 259.9232
831.1498, 259.2889
831.6319, 258.2768
832.1140, 258.9809
832.5961, 262.1969
833.0782, 265.7825
833.5604, 268.0259
834.0425, 269.2163
834.5246, 270.6586
835.0067, 272.5175
835.4888, 274.3304
835.9709, 276.2567
836.4531, 277.9502
836.9352, 279.0299
837.4173, 279.8959
837.8994, 281.2360
838.3815, 283.1873
838.8636, 284.9260
839.3458, 286.3559
839.8279, 287.1158
840.3100, 286.2024
840.7921, 284.5750
841.2742, 284.3287
841.7563, 285.7285
842.2385, 287.2099
842.7206, 287.5844
843.2027, 286.9913
843.6848, 285.4758
844.1669, 283.0161
844.6490, 281.3612
845.1312, 281.0241
845.6133, 280.4605
846.0954, 278.8403
846.5775, 276.3232
847.0596, 273.1129
847.5417, 268.7072
848.0239, 265.2241
848.5060, 262.9739
848.9881, 261.2165
849.4702, 260.1644
849.9523, 259.1758
850.4344, 257.5426
850.9166, 255.2662
851.3987, 252.9044
851.8808, 250.5297
852.3629, 248.4057
852.8450, 246.9254
853.3271, 245.7444
853.8093, 244.4237
854.2914, 242.8568
854.7735, 240.7665
855.2556, 237.9802
855.7377, 235.1672
856.2198, 233.6596
856.7020, 233.3805
857.1841, 232.3363
857.6662, 230.3240
858.1483, 228.5970
858.6304, 227.8803
859.1125, 227.1623
859.5947, 225.0165
860.0768, 221.4326
860.5589, 218.8857
861.0410, 217.9942
861.5231, 217.2279
862.0052, 216.3302
862.4874, 215.5752
862.9695, 215.5200
863.4516, 215.6811
863.9337, 214.8569
864.4158, 212.5145
864.8979, 210.3256
865.3801, 209.5936
865.8622, 209.3188
866.3443, 208.3145
866.8264, 206.8860
867.3085, 206.0219
867.7906, 205.9472
868.2728, 205.8664
868.7549, 204.8971
869.2370, 203.5540
869.7191, 203.6345
870.2012, 205.1203
870.6833, 205.4731
871.1655, 204.0292
871.6476, 202.6451
872.1297, 202.6906
872.6118, 203.5229
873.0939, 203.4552
873.5760, 201.8551
874.0581, 201.2268
874.5402, 202.9549
875.0223, 203.9911
875.5045, 202.9699
875.9866, 201.2304
876.4687, 199.9811
876.9508, 199.3208
877.4329, 198.9670
877.9150, 199.0718
878.3972, 199.1503
878.8793, 198.9476
879.3614, 198.5817
879.8435, 197.9554
880.3256, 197.2971
880.8077, 197.2772
881.2899, 198.2074
881.7720, 199.3125
882.2541, 199.6814
882.7362, 199.5065
883.2183, 199.2381
883.7004, 198.9173
884.1826, 198.7840
884.6647, 198.8956
885.1468, 199.4666
885.6289, 200.8201
886.1110, 202.7248
886.5931, 203.9573
887.0753, 204.5089
887.5574, 204.3614
888.0395, 203.0360
888.5216, 201.7142
889.0037, 200.8634
889.4858, 200.4986
889.9680, 200.6904
890.4501, 201.5070
890.9322, 202.4547
891.4143, 203.6089
891.8964, 204.7121
892.3785, 205.8551
892.8607, 206.7539
893.3428, 206.9848
893.8249, 206.6663
894.3070, 206.2805
894.7891, 205.8914
895.2712, 205.9894
895.7534, 207.5960
896.2355, 209.6569
896.7176, 210.1314
897.1997, 209.4102
897.6818, 209.6425
898.1639, 211.6043
898.6461, 213.7594
899.1282, 214.2833
899.6103, 213.5768
900.0924, 213.2901
900.5745, 213.4242
901.0566, 214.1877
901.5388, 215.8921
902.0209, 217.0381
902.5030, 216.1934
902.9851, 214.3437
903.4672, 214.4073
903.9493, 217.5163
904.4315, 219.3284
904.9136, 218.7818
905.3957, 218.2900
905.8778, 218.4654
906.3599, 219.1080
906.8420, 220.1440
907.3242, 221.5089
907.8063, 222.8286
908.2884, 223.8368
908.7705, 225.0217
909.2526, 226.7357
909.7347, 228.5505
910.2169, 230.2422
910.6990, 231.6944
911.1811, 232.6284
911.6632, 232.9658
912.1453, 233.4876
912.6274, 235.3030
913.1096, 237.4045
913.5917, 237.9390
914.0738, 237.4966
914.5559, 238.0730
915.0380, 239.9346
915.5201, 241.4003
916.0023, 241.2259
916.4844, 240.0696
916.9665, 239.2554
917.4486, 238.7810
917.9307, 238.6301
918.4128, 238.8882
918.8950, 238.8838
919.3771, 238.2047
919.8592, 237.4700
920.3413, 237.4959
920.8234, 238.2614
921.3055, 238.8061
921.7877, 239.1782
922.2698, 239.2448
922.7519, 238.4511
923.2340, 237.9111
923.7161, 238.4984
924.1982, 239.6333
924.6804, 240.1989
925.1625, 239.9556
925.6446, 240.0180
926.1267, 240.4375
926.6088, 241.4824
927.0909, 243.6522
927.5731, 246.2631
928.0552, 248.7737
928.5373, 250.9946
929.0194, 252.6369
929.5015, 253.3988
929.9836, 254.1535
930.4658, 255.9504
930.9479, 258.0216
931.4300, 258.8994
931.9121, 259.0829
932.3942, 260.4831
932.8763, 263.5508
933.3585, 266.4976
933.8406, 267.4644
934.3227, 267.4294
934.8048, 268.9130
935.2869, 271.7423
935.7690, 274.5890
936.2512, 277.2971
936.7333, 279.0017
937.2154, 279.0688
937.6975, 278.4539
938.1796, 278.7621
938.6617, 280.0388
939.1439, 281.2379
939.6260, 282.4180
940.1081, 283.3490
940.5902, 283.8526
941.0723, 284.2930
941.5544, 285.1112
942.0366, 286.0783
942.5187, 286.3445
943.0008, 285.4603
943.4829, 284.9973
943.9650, 285.6694
944.4471, 285.9880
944.9293, 285.0587
945.4114, 283.7361
945.8935, 283.0116
946.3756, 282.8364
946.8577, 282.3823
947.3398, 281.2690
947.8220, 280.0577
948.3041, 279.1417
948.7862, 278.1485
949.2683, 276.5067
949.7504, 274.6012
950.2325, 273.3563
950.7147, 272.9344
951.1968, 272.2885
951.6789, 270.6181
952.1610, 268.3365
952.6431, 265.4962
953.1252, 262.5757
953.6074, 260.7619
954.0895, 260.0079
954.5716, 259.3531
955.0537, 258.3148
955.5358, 256.8426
956.0179, 254.7407
956.5000, 252.1454
956.9821, 249.7414
957.4642, 247.4964
957.9464, 244.6466
958.4285, 240.8630
958.9106, 238.3103
959.3927, 238.9663
959.8748, 241.2801
960.3569, 240.9774
960.8391, 237.4503
961.3212, 234.6157
961.8033, 232.5034
962.2854, 231.1169
962.7675, 231.0424
963.2496, 230.8271
963.7318, 228.5617
964.2139, 224.6960
964.6960, 222.6505
965.1781, 224.6977
965.6602, 224.8352
966.1423, 221.0051
966.6245, 217.6244
967.1066, 217.4777
967.5887, 218.1648
968.0708, 216.2870
968.5529, 211.8077
969.0350, 208.3955
969.5172, 207.5123
969.9993, 206.8511
970.4814, 206.1644
970.9635, 204.9837
971.4456, 202.8043
971.9277, 199.9157
972.4099, 196.5674
972.8920, 192.8725
973.3741, 190.1503
973.8562, 190.1412
974.3383, 190.3356
974.8204, 188.4078
975.3026, 185.6502
975.7847, 183.6747
976.2668, 182.6515
976.7489, 182.4236
977.2310, 182.9512
977.7131, 183.1411
978.1953, 181.2967
978.6774, 178.7440
979.1595, 177.9726
979.6416, 178.4280
980.1237, 178.3586
980.6058, 177.4458
981.0880, 176.2711
981.5701, 175.1645
982.0522, 174.3681
982.5343, 174.7675
983.0164, 173.5127
983.4985, 175.1387
983.9807, 172.4024
984.4628, 170.6878
984.9449, 170.9595
985.4270, 171.1875
985.9091, 169.5340
986.3912, 166.6966
986.8734, 164.6909
987.3555, 163.5544
987.8376, 163.0053
988.3197, 163.0804
988.8018, 163.6374
989.2839, 164.8915
989.7661, 166.0401
990.2482, 166.2177
990.7303, 165.5010
991.2124, 164.4099
991.6945, 162.6865
992.1766, 161.1641
992.6588, 159.5834
993.1409, 158.6676
993.6230, 159.0993
994.1051, 160.0907
994.5872, 160.7936
995.0693, 161.2026
995.5515, 160.9727
996.0336, 159.3889
996.5157, 158.2129
996.9978, 157.8598
997.4799, 157.7308
997.9620, 157.9334
998.4442, 157.9476
998.9263, 156.6478
999.4084, 153.9503
999.8905, 152.4039
1000.373, 153.2768
1000.855, 154.5515
1001.337, 156.0206
1001.819, 157.1599
1002.301, 157.5119
1002.783, 157.2324
1003.265, 156.4617
1003.747, 155.2496
1004.230, 154.5286
1004.712, 155.2830
1005.194, 156.0744
1005.676, 155.6365
1006.158, 154.9515
1006.640, 155.5598
1007.122, 156.9132
1007.604, 157.0972
1008.086, 155.4503
1008.569, 153.7592
1009.051, 153.8193
1009.533, 154.1604
1010.015, 152.4667
1010.497, 150.2403
1010.979, 150.6010
1011.461, 153.2078
1011.943, 155.0779
1012.426, 154.8147
1012.908, 154.0871
1013.390, 154.9427
1013.872, 156.3820
1014.354, 156.5156
1014.836, 155.6661
1015.318, 154.6104
1015.800, 153.5859
1016.282, 152.9865
1016.765, 153.0466
1017.247, 153.4145
1017.729, 153.7730
1018.211, 154.0053
1018.693, 153.7746
1019.175, 153.0486
1019.657, 151.2552
1020.139, 148.3581
1020.622, 146.2850
1021.104, 146.3907
1021.586, 147.4705
1022.068, 147.2109
1022.550, 145.8064
1023.032, 145.5052
1023.514, 146.3270
1023.996, 147.1364
1024.478, 147.6940
1024.961, 147.7698
1025.443, 147.0667
1025.925, 146.1623
1026.407, 146.5200
1026.889, 148.2362
1027.371, 149.0523
1027.853, 148.7865
1028.335, 148.6291
1028.818, 148.7923
1029.300, 149.5060
1029.782, 151.0800
1030.264, 153.1400
1030.746, 154.7042
1031.228, 155.7693
1031.710, 156.2915
1032.192, 155.9506
1032.674, 156.0636
1033.156, 157.2346
1033.639, 158.4323
1034.121, 158.6638
1034.603, 158.4029
1035.085, 159.0127
1035.567, 160.5443
1036.049, 162.8598
1036.531, 166.7399
1037.013, 169.8614
1037.496, 171.0819
1037.978, 172.0307
1038.460, 174.4160
1038.942, 177.4525
1039.424, 178.5808
1039.906, 176.9776
1040.388, 175.9449
1040.870, 175.8879
1041.353, 175.8233
1041.835, 176.1033
1042.317, 175.7441
1042.799, 173.4741
1043.281, 170.0057
1043.763, 167.4420
1044.245, 165.9644
1044.727, 164.9034
1045.209, 164.9075
1045.692, 164.4297
1046.174, 162.3831
1046.656, 160.3104
1047.138, 159.8033
1047.620, 160.2029
1048.102, 159.4149
1048.584, 156.5945
1049.066, 155.1975
1049.548, 157.1532
1050.031, 158.6629
1050.513, 157.8598
1050.995, 156.7177
1051.477, 156.8749
1051.959, 157.9957
1052.441, 159.1276
1052.923, 160.2691
1053.405, 160.7437
1053.888, 159.8874
1054.370, 159.0104
1054.852, 158.6337
1055.334, 158.4064
1055.816, 157.8337
1056.298, 157.2085
1056.780, 157.2613
1057.262, 158.1686
1057.745, 159.3606
1058.227, 161.2659
1058.709, 162.6707
1059.191, 162.4969
1059.673, 162.1219
1060.155, 162.9963
1060.637, 164.5331
1061.119, 165.1922
1061.601, 164.6074
1062.083, 164.2838
1062.566, 165.1939
1063.048, 165.8802
1063.530, 165.1984
1064.012, 164.4724
1064.494, 164.7025
1064.976, 165.8306
1065.458, 167.8582
1065.940, 170.7786
1066.423, 172.8777
1066.905, 173.2676
1067.387, 172.9879
1067.869, 171.7762
1068.351, 170.7716
1068.833, 171.2062
1069.315, 172.4593
1069.797, 173.1232
1070.280, 173.0075
1070.762, 173.6209
1071.244, 176.8153
1071.726, 179.2493
1072.208, 179.1153
1072.690, 177.8800
1073.172, 175.9192
1073.654, 174.0904
1074.136, 174.0361
1074.619, 175.7075
1075.101, 176.3659
1075.583, 174.1134
1076.065, 171.9798
1076.547, 171.5991
1077.029, 171.7181
1077.511, 171.4942
1077.993, 171.0455
1078.475, 170.7227
1078.958, 170.5116
1079.440, 169.9978
1079.922, 168.8494
1080.404, 167.7747
1080.886, 166.5767
1081.368, 166.1295
1081.850, 168.1668
1082.332, 170.6416
1082.814, 170.3665
1083.297, 167.7216
1083.779, 166.1307
1084.261, 167.0655
1084.743, 168.0112
1085.225, 167.7855
1085.707, 167.2362
1086.189, 167.1638
1086.671, 166.8923
1087.154, 165.3547
1087.636, 162.8776
1088.118, 160.7066
1088.600, 159.1649
1089.082, 158.0855
1089.564, 157.9712
1090.046, 157.5955
1090.528, 155.7400
1091.010, 153.7258
1091.493, 152.9557
1091.975, 153.1413
1092.457, 153.4384
1092.939, 153.7002
1093.421, 153.4537
1093.903, 152.0948
1094.385, 150.7455
1094.867, 149.5366
1095.349, 148.9022
1095.832, 149.6913
1096.314, 151.1204
1096.796, 151.4509
1097.278, 150.4411
1097.760, 150.5418
1098.242, 154.2930
1098.724, 156.7788
1099.206, 154.9928
1099.689, 152.8657
1100.171, 153.1559
1100.653, 154.7919
1101.135, 156.0255
1101.617, 156.7287
1102.099, 157.7817
1102.581, 159.5884
1103.063, 161.4114
1103.546, 163.3336
1104.028, 164.9438
1104.510, 165.2883
1104.992, 165.7283
1105.474, 168.1064
1105.956, 172.0555
1106.438, 175.3336
1106.920, 176.9609
1107.402, 179.5573
1107.885, 184.4743
1108.367, 189.2092
1108.849, 192.9098
1109.331, 196.0337
1109.813, 198.6907
1110.295, 201.1473
1110.777, 204.2070
1111.259, 208.3075
1111.741, 211.3864
1112.224, 212.7721
1112.706, 213.8540
1113.188, 215.7883
1113.670, 216.6266
1114.152, 214.7043
1114.634, 211.0364
1115.116, 207.3383
1115.598, 203.6497
1116.081, 199.6017
1116.563, 194.8194
1117.045, 190.3624
1117.527, 186.8774
1118.009, 182.8792
1118.491, 176.6480
1118.973, 170.5766
1119.455, 168.2990
1119.938, 169.2063
1120.420, 167.2927
1120.902, 161.0673
1121.384, 155.5447
1121.866, 150.0088
1122.348, 147.2362
1122.830, 149.6083
1123.312, 152.4939
1123.794, 151.4740
1124.276, 147.7636
1124.759, 145.2124
1125.241, 144.0539
1125.723, 142.5812
1126.205, 140.5093
1126.687, 139.3504
1127.169, 139.7249
1127.651, 140.1596
1128.133, 139.7201
1128.616, 138.6259
1129.098, 137.1238
1129.580, 135.2869
1130.062, 134.4256
1130.544, 134.6598
1131.026, 134.5617
1131.508, 133.9648
1131.990, 132.4976
1132.473, 129.8203
1132.955, 127.3992
1133.437, 127.1375
1133.919, 128.2577
1134.401, 127.8766
1134.883, 126.1961
1135.365, 125.7904
1135.847, 126.7455
1136.329, 127.2992
1136.812, 126.9148
1137.294, 126.6571
1137.776, 127.4360
1138.258, 128.4617
1138.740, 127.9417
1139.222, 126.5870
1139.704, 127.0580
1140.186, 128.9089
1140.668, 130.2333
1141.151, 130.6163
1141.633, 129.8296
1142.115, 127.7366
1142.597, 126.0565
1143.079, 127.3421
1143.561, 129.6743
1144.043, 129.9310
1144.525, 128.7897
1145.008, 127.0135
1145.490, 125.2146
1145.972, 124.9823
1146.454, 126.5871
1146.936, 127.9837
1147.418, 127.7290
1147.900, 126.8041
1148.382, 125.8308
1148.865, 124.9726
1149.347, 124.6786
1149.829, 124.5119
1150.311, 123.4332
1150.793, 121.6468
1151.275, 120.6406
1151.757, 121.1314
1152.239, 121.7775
1152.721, 122.1005
1153.203, 121.9978
1153.686, 120.9017
1154.168, 119.7609
1154.650, 119.8389
1155.132, 120.5702
1155.614, 120.3698
1156.096, 118.9320
1156.578, 118.1626
1157.060, 119.5227
1157.543, 120.2920
1158.025, 118.6980
1158.507, 117.4519
1158.989, 118.8871
1159.471, 121.0589
1159.953, 121.3007
1160.435, 119.8270
1160.917, 118.8911
1161.400, 118.4980
1161.882, 118.9337
1162.364, 121.6656
1162.846, 122.8878
1163.328, 120.2157
1163.810, 117.6585
1164.292, 118.5698
1164.774, 121.1960
1165.256, 121.7813
1165.739, 120.1743
1166.221, 119.1167
1166.703, 118.5843
1167.185, 118.9015
1167.667, 120.5637
1168.149, 121.2247
1168.631, 119.4777
1169.113, 117.4702
1169.595, 117.6608
1170.078, 119.4254
1170.560, 120.7021
1171.042, 121.4901
1171.524, 121.8478
1172.006, 121.7825
1172.488, 121.3897
1172.970, 120.7026
1173.452, 119.9709
1173.934, 119.2829
1174.417, 119.4134
1174.899, 122.2474
1175.381, 122.7510
1175.863, 124.3514
1176.345, 126.6586
1176.827, 127.4727
1177.309, 129.8970
1177.791, 131.8687
1178.274, 132.7571
1178.756, 133.8291
1179.238, 135.9839
1179.720, 138.8517
1180.202, 142.7232
1180.684, 146.5067
1181.166, 148.4624
1181.648, 149.5309
1182.130, 151.2967
1182.613, 153.9095
1183.095, 156.9878
1183.577, 160.5323
1184.059, 163.1650
1184.541, 163.7130
1185.023, 163.7186
1185.505, 163.5731
1185.987, 163.6648
1186.469, 165.1833
1186.952, 166.7217
1187.434, 165.5444
1187.916, 161.6043
1188.398, 158.3592
1188.880, 156.6988
1189.362, 155.1457
1189.844, 154.1609
1190.326, 152.4556
1190.809, 149.3024
1191.291, 145.6384
1191.773, 142.1101
1192.255, 138.7058
1192.737, 135.2440
1193.219, 131.6049
1193.701, 129.6173
1194.183, 130.1229
1194.666, 128.8847
1195.148, 124.8719
1195.630, 120.9694
1196.112, 118.4015
1196.594, 116.9461
1197.076, 116.5054
1197.558, 116.7115
1198.040, 116.6115
1198.522, 116.1911
1199.005, 115.0566
1199.487, 113.3664
1199.969, 112.3951
1200.451, 112.4082
1200.933, 113.2378
1201.415, 114.8113
1201.897, 116.0589
1202.379, 115.4618
1202.861, 114.1537
1203.344, 113.8063
1203.826, 114.1272
1204.308, 114.7236
1204.790, 115.5041
1205.272, 116.5477
1205.754, 117.7441
1206.236, 118.4534
1206.718, 118.2324
1207.201, 117.9516
1207.683, 118.0071
1208.165, 118.3432
1208.647, 118.8474
1209.129, 119.6769
1209.611, 121.1955
1210.093, 123.0973
1210.575, 124.8517
1211.057, 126.3910
1211.540, 127.3461
1212.022, 126.9484
1212.504, 127.1091
1212.986, 127.9945
1213.468, 129.6002
1213.950, 132.8127
1214.432, 135.6262
1214.914, 135.8826
1215.396, 134.5981
1215.879, 134.5600
1216.361, 135.8632
1216.843, 137.2560
1217.325, 138.8271
1217.807, 139.7513
1218.289, 139.8132
1218.771, 140.0926
1219.253, 141.0824
1219.736, 142.3809
1220.218, 143.5762
1220.700, 144.7705
1221.182, 146.3799
1221.664, 148.1419
1222.146, 149.1077
1222.628, 149.4332
1223.110, 149.6906
1223.593, 150.0220
1224.075, 150.2990
1224.557, 150.4796
1225.039, 151.3311
1225.521, 154.1745
1226.003, 157.0444
1226.485, 158.1000
1226.967, 158.3310
1227.449, 158.9368
1227.932, 159.3277
1228.414, 158.0304
1228.896, 155.4150
1229.378, 153.7700
1229.860, 153.7992
1230.342, 154.2202
1230.824, 155.4666
1231.306, 156.0422
1231.788, 155.4900
1232.271, 154.1286
1232.753, 151.3442
1233.235, 148.6220
1233.717, 148.2852
1234.199, 149.8131
1234.681, 149.6106
1235.163, 147.0968
1235.645, 145.6956
1236.128, 145.5961
1236.610, 145.9060
1237.092, 146.4875
1237.574, 146.6805
1238.056, 146.0717
1238.538, 145.0160
1239.020, 143.8209
1239.502, 142.7350
1239.984, 142.3254
1240.467, 142.5504
1240.949, 143.9355
1241.431, 145.7442
1241.913, 145.2589
1242.395, 142.4619
1242.877, 140.5004
1243.359, 140.9596
1243.841, 142.1916
1244.323, 143.5276
1244.806, 144.5165
1245.288, 144.8882
1245.770, 144.7011
1246.252, 143.4978
1246.734, 142.0695
1247.216, 141.6497
1247.698, 142.2749
1248.180, 143.2016
1248.662, 144.8779
1249.145, 145.4811
1249.627, 144.0850
1250.109, 142.9893
1250.591, 142.6815
1251.073, 142.6984
1251.555, 142.7531
1252.037, 143.0700
1252.519, 144.1100
1253.002, 144.0642
1253.484, 144.3739
1253.966, 144.6340
1254.448, 144.2596
1254.930, 144.5826
1255.412, 144.0613
1255.894, 142.5120
1256.376, 141.9815
1256.859, 143.5655
1257.341, 145.0375
1257.823, 143.7772
1258.305, 141.6080
1258.787, 140.7684
1259.269, 140.6565
1259.751, 140.7351
1260.233, 140.7753
1260.715, 140.5788
1261.198, 140.0774
1261.680, 139.0664
1262.162, 137.3408
1262.644, 136.1467
1263.126, 135.9805
1263.608, 136.2350
1264.090, 137.5580
1264.572, 138.2617
1265.054, 136.9902
1265.537, 135.1176
1266.019, 133.9691
1266.501, 133.4448
1266.983, 133.3395
1267.465, 133.7691
1267.947, 133.0972
1268.429, 131.1349
1268.911, 130.5070
1269.394, 131.6304
1269.876, 132.5812
1270.358, 132.5642
1270.840, 131.7960
1271.322, 130.2477
1271.804, 128.9535
1272.286, 130.0364
1272.768, 132.0426
1273.250, 132.2855
1273.733, 131.7039
1274.215, 132.2426
1274.697, 133.6266
1275.179, 134.4174
1275.661, 134.2867
1276.143, 133.9909
1276.625, 133.5751
1277.107, 133.5414
1277.589, 134.3980
1278.072, 135.2225
1278.554, 135.5761
1279.036, 135.7612
1279.518, 135.8141
1280.000, 136.0148
1280.482, 136.9364
1280.964, 138.4978
1281.446, 139.6494
1281.929, 140.3513
1282.411, 140.7210
1282.893, 140.7349
1283.375, 140.7171
1283.857, 140.8002
1284.339, 143.9066
1284.821, 151.8120
1285.303, 160.6187
1285.786, 166.6436
1286.268, 169.8594
##END=



