##NAMES=Durangite
##RRUFFID=R060889
##IDEAL CHEMISTRY=NaAlAs^5+^O_4_F
##LOCALITY=northern end Thomas Range, Juab County, Utah, USA
##OWNER=RRUFF
##SOURCE=Bob Jenkins
##DESCRIPTION=Equant red crystals with a dusting of white powder
##STATUS=The identification of this mineral is confirmed by single-crystal X-ray diffraction and chemical analysis.
##URL=rruff.info/R060889
##MEASURED CHEMISTRY=(Na_0.80_Li_0.18_Ca_0.02_)_Σ=1_(Al_0.78_Fe^3+^_0.20_Mn_0.02_)_Σ=1_As_1.00_O_4_(F_0.60_(OH)_0.40_)_Σ=1_ ; Li estimated by difference; OH estimated by charge balance
182.2741, 9503.790
182.7562, 9517.759
183.2384, 9534.780
183.7205, 9556.680
184.2026, 9580.957
184.6847, 9605.369
185.1668, 9630.578
185.6489, 9652.182
186.1311, 9664.617
186.6132, 9671.998
187.0953, 9679.702
187.5774, 9689.181
188.0595, 9699.937
188.5416, 9708.333
189.0238, 9711.191
189.5059, 9724.370
189.9880, 9778.437
190.4701, 9845.063
190.9522, 9881.466
191.4343, 9855.989
191.9165, 9808.014
192.3986, 9799.950
192.8807, 9840.688
193.3628, 9886.881
193.8449, 9917.620
194.3270, 9939.345
194.8092, 9958.241
195.2913, 9974.003
195.7734, 9990.165
196.2555, 10014.15
196.7376, 10048.95
197.2197, 10079.49
197.7019, 10096.27
198.1840, 10104.77
198.6661, 10109.29
199.1482, 10108.48
199.6303, 10107.29
200.1124, 10115.25
200.5946, 10135.39
201.0767, 10150.27
201.5588, 10139.43
202.0409, 10122.12
202.5230, 10122.16
203.0051, 10155.48
203.4873, 10194.04
203.9694, 10197.80
204.4515, 10160.70
204.9336, 10122.19
205.4157, 10093.89
205.8978, 10075.78
206.3800, 10072.05
206.8621, 10089.69
207.3442, 10110.18
207.8263, 10109.31
208.3084, 10084.65
208.7905, 10059.16
209.2727, 10037.47
209.7548, 10022.13
210.2369, 10017.24
210.7190, 10025.55
211.2011, 10039.44
211.6832, 10052.84
212.1654, 10065.91
212.6475, 10074.92
213.1296, 10076.17
213.6117, 10073.81
214.0938, 10069.65
214.5760, 10061.20
215.0581, 10060.62
215.5402, 10086.96
216.0223, 10140.17
216.5044, 10180.12
216.9865, 10185.57
217.4687, 10177.98
217.9508, 10180.16
218.4329, 10194.92
218.9150, 10214.11
219.3971, 10236.52
219.8792, 10261.11
220.3614, 10272.07
220.8435, 10258.42
221.3256, 10234.67
221.8077, 10212.54
222.2898, 10190.60
222.7719, 10183.64
223.2541, 10212.75
223.7362, 10270.25
224.2183, 10313.85
224.7004, 10333.48
225.1825, 10334.44
225.6646, 10316.56
226.1468, 10278.64
226.6289, 10255.14
227.1110, 10277.72
227.5931, 10331.69
228.0752, 10367.45
228.5573, 10370.53
229.0395, 10361.08
229.5216, 10358.38
230.0037, 10361.85
230.4858, 10367.70
230.9679, 10371.73
231.4500, 10377.17
231.9322, 10394.07
232.4143, 10428.45
232.8964, 10462.53
233.3785, 10477.13
233.8606, 10475.61
234.3427, 10471.91
234.8249, 10454.23
235.3070, 10442.28
235.7891, 10473.76
236.2712, 10559.21
236.7533, 10655.29
237.2354, 10733.92
237.7176, 10794.38
238.1997, 10822.66
238.6818, 10788.75
239.1639, 10735.95
239.6460, 10714.74
240.1281, 10729.08
240.6103, 10749.57
241.0924, 10751.35
241.5745, 10740.35
242.0566, 10746.66
242.5387, 10791.28
243.0208, 10840.50
243.5030, 10865.16
243.9851, 10866.82
244.4672, 10867.69
244.9493, 10882.98
245.4314, 10908.72
245.9135, 10924.82
246.3957, 10922.33
246.8778, 10918.98
247.3599, 10925.28
247.8420, 10939.25
248.3241, 10953.43
248.8062, 10964.29
249.2884, 10972.35
249.7705, 10979.52
250.2526, 10981.21
250.7347, 10987.61
251.2168, 10997.13
251.6989, 11013.88
252.1811, 11048.45
252.6632, 11106.86
253.1453, 11180.62
253.6274, 11250.69
254.1095, 11316.27
254.5916, 11379.54
255.0738, 11429.79
255.5559, 11481.13
256.0380, 11555.74
256.5201, 11661.08
257.0022, 11780.92
257.4843, 11889.37
257.9665, 11975.63
258.4486, 12070.77
258.9307, 12185.52
259.4128, 12304.07
259.8949, 12412.12
260.3770, 12507.20
260.8592, 12596.16
261.3413, 12689.56
261.8234, 12795.70
262.3055, 12875.47
262.7876, 12926.39
263.2697, 12956.92
263.7519, 12977.79
264.2340, 12985.80
264.7161, 12963.04
265.1982, 12889.02
265.6803, 12756.58
266.1624, 12638.32
266.6446, 12552.37
267.1267, 12460.62
267.6088, 12344.41
268.0909, 12210.17
268.5730, 12075.07
269.0551, 11950.17
269.5373, 11835.36
270.0194, 11729.27
270.5015, 11632.75
270.9836, 11545.28
271.4657, 11471.84
271.9478, 11406.21
272.4300, 11339.80
272.9121, 11267.53
273.3942, 11193.34
273.8763, 11126.99
274.3584, 11068.21
274.8405, 11019.86
275.3227, 10990.46
275.8048, 10966.19
276.2869, 10931.27
276.7690, 10880.76
277.2511, 10827.67
277.7332, 10794.89
278.2154, 10790.27
278.6975, 10781.87
279.1796, 10755.98
279.6617, 10731.93
280.1438, 10722.04
280.6259, 10727.84
281.1081, 10742.04
281.5902, 10766.51
282.0723, 10803.63
282.5544, 10807.25
283.0365, 10737.54
283.5186, 10669.00
284.0008, 10645.41
284.4829, 10660.38
284.9650, 10681.17
285.4471, 10689.71
285.9292, 10686.87
286.4113, 10673.86
286.8935, 10642.73
287.3756, 10616.90
287.8577, 10615.72
288.3398, 10629.25
288.8219, 10637.79
289.3040, 10633.34
289.7862, 10620.27
290.2683, 10602.26
290.7504, 10578.03
291.2325, 10558.12
291.7146, 10545.14
292.1967, 10541.83
292.6789, 10555.49
293.1610, 10603.44
293.6431, 10644.32
294.1252, 10626.36
294.6073, 10562.06
295.0894, 10537.25
295.5716, 10602.91
296.0537, 10708.02
296.5358, 10752.13
297.0179, 10715.74
297.5000, 10685.81
297.9821, 10707.75
298.4643, 10757.51
298.9464, 10788.25
299.4285, 10785.10
299.9106, 10772.68
300.3927, 10784.14
300.8748, 10823.12
301.3570, 10867.58
301.8391, 10921.81
302.3212, 10976.48
302.8033, 11024.00
303.2854, 11063.54
303.7675, 11096.60
304.2497, 11122.88
304.7318, 11141.14
305.2139, 11171.83
305.6960, 11206.21
306.1781, 11259.42
306.6602, 11352.27
307.1424, 11470.40
307.6245, 11580.21
308.1066, 11659.94
308.5887, 11715.32
309.0708, 11778.92
309.5529, 11829.24
310.0351, 11914.49
310.5172, 12073.92
310.9993, 12258.16
311.4814, 12403.85
311.9635, 12486.71
312.4456, 12544.41
312.9278, 12650.48
313.4099, 12825.30
313.8920, 13007.29
314.3741, 13184.67
314.8562, 13372.76
315.3383, 13586.68
315.8205, 13825.64
316.3026, 14071.66
316.7847, 14309.96
317.2668, 14540.63
317.7489, 14762.96
318.2310, 14985.29
318.7132, 15189.25
319.1953, 15377.93
319.6774, 15543.42
320.1595, 15671.88
320.6416, 15756.47
321.1237, 15796.68
321.6059, 15788.25
322.0880, 15726.03
322.5701, 15626.02
323.0522, 15488.58
323.5343, 15319.52
324.0164, 15120.74
324.4986, 14887.91
324.9807, 14632.58
325.4628, 14354.60
325.9449, 14056.18
326.4270, 13781.68
326.9091, 13553.31
327.3913, 13351.09
327.8734, 13142.15
328.3555, 12922.19
328.8376, 12716.92
329.3197, 12536.50
329.8018, 12379.39
330.2840, 12247.04
330.7661, 12143.84
331.2482, 12042.17
331.7303, 11904.52
332.2124, 11725.64
332.6945, 11577.27
333.1767, 11476.60
333.6588, 11398.77
334.1409, 11334.32
334.6230, 11278.18
335.1051, 11212.90
335.5873, 11121.55
336.0694, 11009.32
336.5515, 10931.34
337.0336, 10919.69
337.5157, 10900.26
337.9979, 10846.24
338.4800, 10775.77
338.9621, 10716.19
339.4442, 10678.91
339.9263, 10654.84
340.4084, 10625.26
340.8906, 10585.50
341.3727, 10547.83
341.8548, 10501.99
342.3369, 10465.41
342.8190, 10457.75
343.3011, 10476.55
343.7833, 10495.79
344.2654, 10485.77
344.7475, 10443.78
345.2296, 10415.52
345.7117, 10407.01
346.1938, 10406.42
346.6760, 10416.77
347.1581, 10430.70
347.6402, 10433.51
348.1223, 10413.12
348.6044, 10381.51
349.0865, 10366.60
349.5687, 10373.54
350.0508, 10376.46
350.5329, 10352.39
351.0150, 10325.31
351.4971, 10325.26
351.9792, 10363.65
352.4614, 10402.37
352.9435, 10405.65
353.4256, 10383.37
353.9077, 10377.58
354.3898, 10403.45
354.8719, 10438.43
355.3541, 10454.24
355.8362, 10452.15
356.3183, 10448.95
356.8004, 10446.67
357.2825, 10446.08
357.7646, 10445.94
358.2468, 10446.91
358.7289, 10455.48
359.2110, 10477.87
359.6931, 10512.93
360.1752, 10544.88
360.6573, 10576.55
361.1395, 10602.54
361.6216, 10617.04
362.1037, 10625.76
362.5858, 10637.96
363.0679, 10657.53
363.5500, 10681.58
364.0322, 10703.63
364.5143, 10717.20
364.9964, 10740.91
365.4785, 10780.41
365.9606, 10824.42
366.4427, 10865.49
366.9249, 10903.18
367.4070, 10942.12
367.8891, 10989.23
368.3712, 11044.30
368.8533, 11083.76
369.3354, 11104.95
369.8176, 11112.26
370.2997, 11102.88
370.7818, 11083.09
371.2639, 11063.78
371.7460, 11051.99
372.2281, 11037.41
372.7103, 11003.27
373.1924, 10948.42
373.6745, 10885.78
374.1566, 10814.77
374.6387, 10741.21
375.1208, 10672.95
375.6030, 10611.31
376.0851, 10545.59
376.5672, 10461.97
377.0493, 10372.06
377.5314, 10301.18
378.0135, 10254.97
378.4957, 10212.86
378.9778, 10154.16
379.4599, 10079.17
379.9420, 10018.32
380.4241, 9984.472
380.9063, 9953.184
381.3884, 9909.545
381.8705, 9857.454
382.3526, 9808.614
382.8347, 9769.740
383.3168, 9736.073
383.7990, 9694.781
384.2811, 9637.574
384.7632, 9583.238
385.2453, 9519.563
385.7274, 9466.910
386.2095, 9449.391
386.6917, 9466.357
387.1738, 9491.191
387.6559, 9495.712
388.1380, 9478.510
388.6201, 9462.846
389.1022, 9447.011
389.5844, 9434.969
390.0665, 9427.656
390.5486, 9424.807
391.0307, 9427.962
391.5128, 9441.442
391.9949, 9453.741
392.4771, 9439.968
392.9592, 9395.833
393.4413, 9364.343
393.9234, 9368.219
394.4055, 9383.370
394.8876, 9378.947
395.3698, 9351.526
395.8519, 9335.279
396.3340, 9357.979
396.8161, 9400.236
397.2982, 9429.947
397.7803, 9442.954
398.2625, 9442.100
398.7446, 9427.366
399.2267, 9398.571
399.7088, 9368.559
400.1909, 9328.828
400.6730, 9296.540
401.1552, 9284.874
401.6373, 9285.385
402.1194, 9279.161
402.6015, 9257.787
403.0836, 9232.453
403.5657, 9227.409
404.0479, 9264.220
404.5300, 9282.369
405.0121, 9270.371
405.4942, 9251.923
405.9763, 9241.415
406.4584, 9239.072
406.9406, 9237.702
407.4227, 9231.554
407.9048, 9221.352
408.3869, 9211.334
408.8690, 9200.728
409.3511, 9192.070
409.8333, 9185.506
410.3154, 9181.535
410.7975, 9181.015
411.2796, 9184.321
411.7617, 9190.160
412.2438, 9194.779
412.7260, 9199.637
413.2081, 9216.867
413.6902, 9254.786
414.1723, 9293.967
414.6544, 9308.242
415.1365, 9300.590
415.6187, 9299.656
416.1008, 9318.652
416.5829, 9340.386
417.0650, 9350.314
417.5471, 9349.632
418.0292, 9346.613
418.5114, 9345.396
418.9935, 9346.148
419.4756, 9349.444
419.9577, 9366.355
420.4398, 9371.437
420.9219, 9353.422
421.4041, 9329.473
421.8862, 9315.646
422.3683, 9313.694
422.8504, 9313.330
423.3325, 9301.700
423.8146, 9278.199
424.2968, 9270.094
424.7789, 9294.711
425.2610, 9312.389
425.7431, 9305.044
426.2252, 9284.142
426.7073, 9266.907
427.1895, 9260.365
427.6716, 9257.035
428.1537, 9246.605
428.6358, 9229.480
429.1179, 9216.424
429.6000, 9211.109
430.0822, 9209.316
430.5643, 9206.098
431.0464, 9201.548
431.5285, 9199.099
432.0106, 9209.890
432.4927, 9216.301
432.9749, 9189.623
433.4570, 9136.660
433.9391, 9103.142
434.4212, 9120.573
434.9033, 9172.836
435.3854, 9197.195
435.8676, 9155.317
436.3497, 9135.217
436.8318, 9157.437
437.3139, 9195.366
437.7960, 9227.829
438.2781, 9249.911
438.7603, 9266.188
439.2424, 9279.154
439.7245, 9288.705
440.2066, 9307.889
440.6887, 9344.365
441.1708, 9380.276
441.6530, 9404.006
442.1351, 9425.071
442.6172, 9458.339
443.0993, 9511.535
443.5814, 9568.019
444.0635, 9610.240
444.5457, 9639.220
445.0278, 9660.117
445.5099, 9665.737
445.9920, 9679.189
446.4741, 9739.538
446.9562, 9842.019
447.4384, 9917.444
447.9205, 9932.137
448.4026, 9934.709
448.8847, 9960.810
449.3668, 10006.63
449.8489, 10054.01
450.3311, 10094.46
450.8132, 10128.94
451.2953, 10159.81
451.7774, 10177.38
452.2595, 10207.16
452.7416, 10256.86
453.2238, 10312.05
453.7059, 10367.63
454.1880, 10420.40
454.6701, 10464.79
455.1522, 10492.97
455.6343, 10509.94
456.1165, 10541.67
456.5986, 10595.81
457.0807, 10646.78
457.5628, 10683.86
458.0449, 10713.35
458.5270, 10740.75
459.0092, 10766.90
459.4913, 10789.99
459.9734, 10818.83
460.4555, 10842.01
460.9376, 10827.84
461.4197, 10769.20
461.9019, 10703.57
462.3840, 10661.78
462.8661, 10643.09
463.3482, 10622.98
463.8303, 10612.94
464.3124, 10589.01
464.7946, 10532.50
465.2767, 10460.97
465.7588, 10399.14
466.2409, 10354.60
466.7230, 10318.49
467.2051, 10276.47
467.6873, 10223.83
468.1694, 10188.26
468.6515, 10175.24
469.1336, 10175.20
469.6157, 10191.25
470.0978, 10216.72
470.5800, 10240.99
471.0621, 10260.57
471.5442, 10274.60
472.0263, 10277.06
472.5084, 10269.00
472.9905, 10273.30
473.4727, 10299.52
473.9548, 10334.17
474.4369, 10355.60
474.9190, 10364.31
475.4011, 10395.34
475.8832, 10474.39
476.3654, 10561.93
476.8475, 10629.17
477.3296, 10679.25
477.8117, 10726.00
478.2938, 10775.64
478.7759, 10830.37
479.2581, 10896.27
479.7402, 10984.96
480.2223, 11065.01
480.7044, 11125.14
481.1865, 11186.71
481.6686, 11260.98
482.1508, 11348.30
482.6329, 11445.45
483.1150, 11554.74
483.5971, 11668.65
484.0792, 11764.99
484.5613, 11838.11
485.0435, 11924.40
485.5256, 12050.47
486.0077, 12184.98
486.4898, 12284.71
486.9719, 12345.07
487.4540, 12411.43
487.9362, 12508.73
488.4183, 12615.82
488.9004, 12715.03
489.3825, 12802.47
489.8646, 12867.75
490.3467, 12902.57
490.8289, 12912.38
491.3110, 12920.88
491.7931, 12943.54
492.2752, 12942.81
492.7573, 12916.70
493.2394, 12867.41
493.7216, 12796.00
494.2037, 12703.03
494.6858, 12589.67
495.1679, 12451.00
495.6500, 12293.30
496.1321, 12147.14
496.6143, 12021.10
497.0964, 11881.60
497.5785, 11704.22
498.0606, 11512.48
498.5427, 11336.99
499.0248, 11183.11
499.5070, 11028.55
499.9891, 10853.38
500.4712, 10676.14
500.9533, 10529.24
501.4355, 10413.70
501.9176, 10299.02
502.3997, 10162.14
502.8818, 10009.60
503.3639, 9879.015
503.8460, 9780.314
504.3282, 9692.488
504.8103, 9623.271
505.2924, 9558.692
505.7745, 9484.267
506.2566, 9400.023
506.7387, 9320.685
507.2209, 9263.667
507.7030, 9222.438
508.1851, 9155.747
508.6672, 9048.330
509.1493, 8960.766
509.6314, 8931.291
510.1136, 8929.621
510.5957, 8918.633
511.0778, 8894.924
511.5599, 8866.368
512.0420, 8829.862
512.5241, 8793.791
513.0062, 8774.567
513.4883, 8771.169
513.9705, 8759.348
514.4526, 8718.801
514.9347, 8658.371
515.4168, 8624.794
515.8989, 8648.080
516.3810, 8658.984
516.8632, 8647.900
517.3453, 8626.632
517.8274, 8598.808
518.3095, 8568.667
518.7916, 8547.289
519.2737, 8548.712
519.7559, 8564.567
520.2380, 8564.563
520.7201, 8544.546
521.2022, 8528.886
521.6843, 8529.632
522.1664, 8538.693
522.6486, 8546.504
523.1307, 8555.887
523.6128, 8549.477
524.0949, 8505.234
524.5770, 8453.566
525.0591, 8423.025
525.5413, 8414.581
526.0234, 8419.368
526.5055, 8433.015
526.9876, 8453.263
527.4697, 8473.891
527.9518, 8501.478
528.4340, 8516.736
528.9161, 8517.267
529.3982, 8507.995
529.8803, 8482.031
530.3624, 8447.203
530.8445, 8429.304
531.3267, 8453.080
531.8088, 8494.123
532.2909, 8506.102
532.7730, 8489.535
533.2551, 8478.515
533.7372, 8488.022
534.2194, 8502.345
534.7015, 8496.866
535.1836, 8468.755
535.6657, 8445.216
536.1478, 8433.644
536.6299, 8422.881
537.1121, 8404.655
537.5942, 8381.763
538.0763, 8360.458
538.5584, 8343.419
539.0405, 8331.559
539.5226, 8328.535
540.0048, 8337.844
540.4869, 8340.646
540.9690, 8336.908
541.4511, 8324.927
541.9332, 8303.251
542.4153, 8273.390
542.8975, 8237.864
543.3796, 8193.863
543.8617, 8151.181
544.3438, 8115.581
544.8259, 8087.808
545.3080, 8071.620
545.7902, 8068.550
546.2723, 8069.003
546.7544, 8064.483
547.2365, 8055.043
547.7186, 8038.220
548.2007, 8002.734
548.6829, 7974.134
549.1650, 7961.351
549.6471, 7957.021
550.1292, 7952.239
550.6113, 7945.178
551.0934, 7941.324
551.5756, 7952.442
552.0577, 7973.569
552.5398, 7972.208
553.0219, 7942.163
553.5040, 7910.792
553.9861, 7888.891
554.4683, 7875.351
554.9504, 7867.250
555.4325, 7866.621
555.9146, 7865.374
556.3967, 7859.273
556.8788, 7852.666
557.3610, 7847.797
557.8431, 7846.125
558.3252, 7854.341
558.8073, 7879.222
559.2894, 7908.317
559.7715, 7899.135
560.2537, 7827.327
560.7358, 7777.017
561.2179, 7768.858
561.7000, 7775.663
562.1821, 7790.549
562.6642, 7808.955
563.1464, 7819.704
563.6285, 7818.773
564.1106, 7806.936
564.5927, 7776.449
565.0748, 7733.944
565.5569, 7709.826
566.0391, 7715.335
566.5212, 7724.952
567.0033, 7705.654
567.4854, 7650.793
567.9675, 7619.499
568.4496, 7634.821
568.9318, 7643.717
569.4139, 7618.648
569.8960, 7583.948
570.3781, 7575.412
570.8602, 7600.923
571.3423, 7627.780
571.8245, 7618.657
572.3066, 7581.401
572.7887, 7551.925
573.2708, 7529.978
573.7529, 7524.158
574.2350, 7551.287
574.7172, 7591.014
575.1993, 7592.384
575.6814, 7528.577
576.1635, 7500.910
576.6456, 7578.884
577.1277, 7665.732
577.6099, 7673.092
578.0920, 7612.664
578.5741, 7549.445
579.0562, 7521.388
579.5383, 7515.121
580.0204, 7497.689
580.5026, 7463.176
580.9847, 7444.235
581.4668, 7457.518
581.9489, 7472.875
582.4310, 7468.356
582.9132, 7449.717
583.3953, 7434.765
583.8774, 7431.422
584.3596, 7428.812
584.8417, 7420.822
585.3238, 7408.032
585.8059, 7387.885
586.2880, 7360.828
586.7701, 7340.269
587.2523, 7342.263
587.7344, 7364.790
588.2165, 7366.040
588.6986, 7329.535
589.1807, 7295.737
589.6628, 7269.450
590.1450, 7250.468
590.6271, 7240.286
591.1092, 7238.265
591.5913, 7238.211
592.0734, 7237.820
592.5555, 7236.368
593.0377, 7232.283
593.5198, 7225.840
594.0019, 7219.638
594.4840, 7215.090
594.9661, 7209.793
595.4482, 7199.531
595.9304, 7181.616
596.4125, 7168.461
596.8946, 7164.297
597.3767, 7159.532
597.8588, 7147.729
598.3409, 7134.065
598.8231, 7126.639
599.3052, 7128.020
599.7873, 7132.896
600.2694, 7138.059
600.7515, 7142.479
601.2336, 7141.696
601.7158, 7135.086
602.1979, 7125.619
602.6800, 7112.398
603.1621, 7099.191
603.6442, 7097.458
604.1263, 7117.516
604.6085, 7125.988
605.0906, 7111.849
605.5727, 7091.828
606.0548, 7076.123
606.5369, 7064.222
607.0190, 7050.663
607.5012, 7032.189
607.9833, 7014.074
608.4654, 7007.242
608.9475, 7011.506
609.4296, 7009.130
609.9117, 6994.617
610.3939, 6980.912
610.8760, 6983.223
611.3581, 6994.223
611.8402, 6984.683
612.3223, 6930.931
612.8044, 6889.986
613.2866, 6887.590
613.7687, 6899.518
614.2508, 6906.333
614.7329, 6903.290
615.2150, 6886.490
615.6971, 6849.651
616.1793, 6804.939
616.6614, 6788.892
617.1435, 6806.851
617.6256, 6823.312
618.1077, 6836.372
618.5898, 6839.799
619.0720, 6823.315
619.5541, 6791.323
620.0362, 6762.707
620.5183, 6739.461
621.0004, 6721.375
621.4825, 6710.705
621.9647, 6704.260
622.4468, 6697.958
622.9289, 6690.893
623.4110, 6684.322
623.8931, 6680.025
624.3752, 6676.694
624.8574, 6666.199
625.3395, 6644.724
625.8216, 6628.302
626.3037, 6625.356
626.7858, 6625.060
627.2679, 6617.174
627.7501, 6602.454
628.2322, 6588.368
628.7143, 6571.196
629.1964, 6560.908
629.6785, 6575.660
630.1606, 6598.574
630.6428, 6594.450
631.1249, 6556.533
631.6070, 6513.986
632.0891, 6497.533
632.5712, 6505.310
633.0533, 6517.796
633.5355, 6543.353
634.0176, 6553.514
634.4997, 6522.130
634.9818, 6484.250
635.4639, 6478.027
635.9460, 6503.075
636.4282, 6513.763
636.9103, 6478.498
637.3924, 6439.243
637.8745, 6431.547
638.3566, 6443.247
638.8387, 6447.053
639.3209, 6434.730
639.8030, 6417.250
640.2851, 6407.895
640.7672, 6406.235
641.2493, 6398.241
641.7314, 6376.592
642.2136, 6364.209
642.6957, 6381.477
643.1778, 6403.052
643.6599, 6399.274
644.1420, 6368.665
644.6241, 6349.762
645.1063, 6372.533
645.5884, 6396.262
646.0705, 6385.273
646.5526, 6351.507
647.0347, 6320.392
647.5168, 6300.909
647.9990, 6290.964
648.4811, 6288.365
648.9632, 6293.161
649.4453, 6307.401
649.9274, 6339.875
650.4095, 6361.548
650.8917, 6353.223
651.3738, 6335.050
651.8559, 6329.824
652.3380, 6338.704
652.8201, 6344.948
653.3022, 6340.060
653.7844, 6334.110
654.2665, 6334.924
654.7486, 6339.926
655.2307, 6346.262
655.7128, 6352.120
656.1949, 6349.722
656.6771, 6325.903
657.1592, 6283.147
657.6413, 6257.108
658.1234, 6251.009
658.6055, 6252.345
659.0876, 6258.890
659.5698, 6269.459
660.0519, 6289.221
660.5340, 6319.706
661.0161, 6323.581
661.4982, 6263.303
661.9803, 6204.813
662.4625, 6194.113
662.9446, 6209.688
663.4267, 6215.989
663.9088, 6203.196
664.3909, 6182.222
664.8730, 6161.506
665.3552, 6142.527
665.8373, 6135.042
666.3194, 6141.451
666.8015, 6146.587
667.2836, 6145.528
667.7657, 6140.888
668.2479, 6133.312
668.7300, 6122.350
669.2121, 6120.871
669.6942, 6137.169
670.1763, 6154.964
670.6584, 6175.011
671.1406, 6188.645
671.6227, 6176.812
672.1048, 6141.417
672.5869, 6116.442
673.0690, 6139.271
673.5511, 6188.254
674.0333, 6201.868
674.5154, 6179.684
674.9975, 6161.924
675.4796, 6161.502
675.9617, 6166.395
676.4438, 6164.048
676.9260, 6154.179
677.4081, 6143.484
677.8902, 6131.369
678.3723, 6119.293
678.8544, 6109.476
679.3365, 6098.549
679.8187, 6077.509
680.3008, 6050.258
680.7829, 6037.690
681.2650, 6062.563
681.7471, 6097.097
682.2292, 6096.726
682.7114, 6068.403
683.1935, 6043.487
683.6756, 6028.752
684.1577, 6024.018
684.6398, 6032.047
685.1219, 6050.125
685.6041, 6053.143
686.0862, 6024.138
686.5683, 6006.880
687.0504, 6013.351
687.5325, 6024.877
688.0146, 6031.333
688.4968, 6032.219
688.9789, 6029.301
689.4610, 6022.891
689.9431, 6013.590
690.4252, 5996.015
690.9073, 5977.826
691.3895, 5977.279
691.8716, 5994.446
692.3537, 6009.566
692.8358, 6008.820
693.3179, 5997.188
693.8000, 5988.345
694.2822, 5981.862
694.7643, 5979.816
695.2464, 5985.978
695.7285, 5991.883
696.2106, 5990.995
696.6927, 5986.790
697.1749, 5986.552
697.6570, 5993.436
698.1391, 5998.253
698.6212, 5999.262
699.1033, 5995.242
699.5854, 5980.316
700.0676, 5959.441
700.5497, 5945.862
701.0318, 5945.742
701.5139, 5952.577
701.9960, 5959.080
702.4781, 5964.942
702.9603, 5964.643
703.4424, 5956.860
703.9245, 5948.433
704.4066, 5945.024
704.8887, 5940.503
705.3708, 5920.292
705.8530, 5875.408
706.3351, 5850.242
706.8172, 5865.454
707.2993, 5879.783
707.7814, 5868.932
708.2635, 5849.125
708.7457, 5842.930
709.2278, 5855.141
709.7099, 5874.413
710.1920, 5899.839
710.6741, 5922.513
711.1563, 5922.135
711.6384, 5902.356
712.1205, 5879.847
712.6026, 5832.413
713.0847, 5867.622
713.5668, 5885.505
714.0490, 5886.992
714.5311, 5822.981
715.0132, 5843.549
715.4953, 5830.222
715.9774, 5815.504
716.4595, 5847.976
716.9417, 5793.491
717.4238, 5825.214
717.9059, 5822.526
718.3880, 5835.586
718.8701, 5814.542
719.3522, 5804.033
719.8344, 5822.746
720.3165, 5831.360
720.7986, 5821.636
721.2807, 5815.902
721.7628, 5829.616
722.2449, 5853.662
722.7271, 5868.082
723.2092, 5872.502
723.6913, 5875.150
724.1734, 5878.997
724.6555, 5874.903
725.1376, 5852.118
725.6198, 5818.905
726.1019, 5798.403
726.5840, 5792.190
727.0661, 5793.500
727.5482, 5810.570
728.0303, 5826.339
728.5125, 5832.606
728.9946, 5830.509
729.4767, 5820.126
729.9588, 5801.678
730.4409, 5787.322
730.9230, 5793.526
731.4052, 5807.850
731.8873, 5804.753
732.3694, 5786.874
732.8515, 5775.432
733.3336, 5778.544
733.8157, 5785.459
734.2979, 5782.046
734.7800, 5768.155
735.2621, 5759.977
735.7442, 5758.147
736.2263, 5760.638
736.7084, 5766.992
737.1906, 5777.613
737.6727, 5796.832
738.1548, 5822.215
738.6369, 5838.863
739.1190, 5844.105
739.6011, 5839.189
740.0833, 5811.065
740.5654, 5781.707
741.0475, 5782.202
741.5296, 5808.238
742.0117, 5829.357
742.4938, 5827.266
742.9760, 5811.355
743.4581, 5795.462
743.9402, 5779.245
744.4223, 5756.924
744.9044, 5726.156
745.3865, 5706.103
745.8687, 5709.684
746.3508, 5729.035
746.8329, 5746.735
747.3150, 5763.135
747.7971, 5776.458
748.2792, 5787.202
748.7614, 5794.193
749.2435, 5801.648
749.7256, 5802.682
750.2077, 5782.984
750.6898, 5740.623
751.1719, 5709.219
751.6541, 5711.275
752.1362, 5724.375
752.6183, 5716.279
753.1004, 5672.648
753.5825, 5712.597
754.0646, 5735.220
754.5468, 5741.448
755.0289, 5682.177
755.5110, 5707.483
755.9931, 5698.896
756.4752, 5688.917
756.9573, 5726.128
757.4395, 5719.081
757.9216, 5726.789
758.4037, 5717.409
758.8858, 5695.775
759.3679, 5684.793
759.8500, 5696.892
760.3322, 5701.787
760.8143, 5689.550
761.2964, 5679.889
761.7785, 5686.498
762.2606, 5702.242
762.7427, 5714.711
763.2249, 5721.129
763.7070, 5719.261
764.1891, 5697.576
764.6712, 5674.019
765.1533, 5672.714
765.6354, 5687.647
766.1176, 5698.673
766.5997, 5699.104
767.0818, 5698.146
767.5639, 5706.276
768.0460, 5721.902
768.5281, 5737.620
769.0103, 5754.077
769.4924, 5765.336
769.9745, 5768.763
770.4566, 5769.011
770.9387, 5770.712
771.4208, 5773.436
771.9030, 5772.084
772.3851, 5759.449
772.8672, 5753.307
773.3493, 5759.140
773.8314, 5768.045
774.3135, 5775.027
774.7957, 5780.625
775.2778, 5788.872
775.7599, 5803.342
776.2420, 5809.071
776.7241, 5782.604
777.2062, 5751.464
777.6884, 5752.463
778.1705, 5778.646
778.6526, 5805.725
779.1347, 5824.126
779.6168, 5832.657
780.0989, 5826.263
780.5811, 5808.693
781.0632, 5799.020
781.5453, 5796.578
782.0274, 5812.957
782.5095, 5860.280
782.9916, 5903.146
783.4738, 5900.611
783.9559, 5857.813
784.4380, 5845.224
784.9201, 5891.061
785.4022, 5925.920
785.8843, 5937.990
786.3665, 5944.799
786.8486, 5957.581
787.3307, 5972.946
787.8128, 5981.185
788.2949, 5977.393
788.7770, 5976.016
789.2592, 5984.479
789.7413, 5998.913
790.2234, 6022.098
790.7055, 6046.964
791.1876, 6055.442
791.6697, 6042.820
792.1519, 6028.856
792.6340, 6032.144
793.1161, 6050.771
793.5982, 6084.812
794.0803, 6132.997
794.5624, 6168.500
795.0446, 6184.031
795.5267, 6186.271
796.0088, 6177.126
796.4909, 6161.601
796.9730, 6171.083
797.4551, 6220.997
797.9373, 6261.250
798.4194, 6282.040
798.9015, 6298.417
799.3836, 6311.539
799.8657, 6327.699
800.3478, 6362.016
800.8300, 6422.945
801.3121, 6473.430
801.7942, 6489.470
802.2763, 6505.913
802.7584, 6543.426
803.2405, 6596.049
803.7227, 6658.162
804.2048, 6725.892
804.6869, 6787.341
805.1690, 6827.055
805.6511, 6862.235
806.1332, 6914.556
806.6154, 6982.951
807.0975, 7069.447
807.5796, 7172.256
808.0617, 7268.545
808.5438, 7340.706
809.0259, 7399.756
809.5081, 7469.684
809.9902, 7549.330
810.4723, 7658.292
810.9544, 7813.402
811.4365, 7951.633
811.9186, 8034.680
812.4008, 8087.903
812.8829, 8151.699
813.3650, 8225.583
813.8471, 8311.815
814.3292, 8428.456
814.8113, 8534.106
815.2935, 8606.719
815.7756, 8672.069
816.2577, 8751.696
816.7398, 8846.726
817.2219, 8950.861
817.7040, 9064.113
818.1862, 9182.191
818.6683, 9306.850
819.1504, 9431.730
819.6325, 9555.142
820.1146, 9671.153
820.5967, 9763.099
821.0789, 9822.473
821.5610, 9872.426
822.0431, 9946.783
822.5252, 10032.00
823.0073, 10083.33
823.4894, 10102.93
823.9716, 10120.49
824.4537, 10145.75
824.9358, 10171.57
825.4179, 10193.15
825.9000, 10207.81
826.3821, 10196.23
826.8643, 10156.67
827.3464, 10095.86
827.8285, 10011.34
828.3106, 9911.096
828.7927, 9797.632
829.2748, 9673.422
829.7570, 9542.434
830.2391, 9398.388
830.7212, 9264.535
831.2033, 9157.235
831.6854, 9044.911
832.1675, 8913.026
832.6497, 8769.426
833.1318, 8620.213
833.6139, 8467.867
834.0960, 8324.600
834.5781, 8200.870
835.0602, 8083.178
835.5424, 7961.734
836.0245, 7840.528
836.5066, 7727.206
836.9887, 7619.993
837.4708, 7506.968
837.9529, 7379.831
838.4351, 7255.390
838.9172, 7154.076
839.3993, 7073.877
839.8814, 7015.774
840.3635, 6977.078
840.8456, 6926.063
841.3278, 6849.875
841.8099, 6766.545
842.2920, 6696.938
842.7741, 6639.927
843.2562, 6579.261
843.7383, 6511.476
844.2205, 6456.433
844.7026, 6422.458
845.1847, 6393.680
845.6668, 6359.125
846.1489, 6320.309
846.6310, 6281.819
847.1132, 6241.041
847.5953, 6205.897
848.0774, 6178.387
848.5595, 6153.801
849.0416, 6131.950
849.5237, 6110.902
850.0059, 6090.471
850.4880, 6069.993
850.9701, 6041.826
851.4522, 5990.586
851.9343, 5945.978
852.4164, 5928.726
852.8986, 5923.297
853.3807, 5914.574
853.8628, 5901.236
854.3449, 5887.366
854.8270, 5874.890
855.3091, 5862.428
855.7913, 5850.058
856.2734, 5836.244
856.7555, 5816.998
857.2376, 5793.602
857.7197, 5769.891
858.2018, 5747.422
858.6840, 5731.209
859.1661, 5726.526
859.6482, 5731.588
860.1303, 5742.422
860.6124, 5758.942
861.0945, 5773.785
861.5767, 5786.386
862.0588, 5793.307
862.5409, 5792.429
863.0230, 5784.271
863.5051, 5767.468
863.9872, 5735.842
864.4694, 5726.310
864.9515, 5751.363
865.4336, 5775.212
865.9157, 5785.802
866.3978, 5790.828
866.8799, 5799.242
867.3621, 5810.271
867.8442, 5815.126
868.3263, 5804.460
868.8084, 5800.571
869.2905, 5810.732
869.7726, 5824.772
870.2548, 5832.493
870.7369, 5840.619
871.2190, 5864.341
871.7011, 5908.340
872.1832, 5949.818
872.6653, 5975.711
873.1475, 5998.375
873.6296, 6025.375
874.1117, 6055.329
874.5938, 6087.089
875.0759, 6119.457
875.5580, 6148.302
876.0402, 6169.229
876.5223, 6191.932
877.0044, 6229.265
877.4865, 6275.357
877.9686, 6320.969
878.4507, 6364.649
878.9329, 6403.851
879.4150, 6437.734
879.8971, 6472.312
880.3792, 6514.571
880.8613, 6562.642
881.3434, 6611.039
881.8256, 6659.387
882.3077, 6701.940
882.7898, 6736.286
883.2719, 6781.545
883.7540, 6853.393
884.2361, 6939.946
884.7183, 7012.168
885.2004, 7064.557
885.6825, 7133.917
886.1646, 7227.575
886.6467, 7316.909
887.1288, 7387.511
887.6110, 7456.278
888.0931, 7541.781
888.5752, 7643.305
889.0573, 7747.774
889.5394, 7864.385
890.0215, 7969.950
890.5037, 8053.635
890.9858, 8136.177
891.4679, 8223.477
891.9500, 8318.052
892.4321, 8422.181
892.9142, 8535.930
893.3964, 8661.733
893.8785, 8819.775
894.3606, 8966.514
894.8427, 9069.963
895.3248, 9163.670
895.8069, 9285.093
896.2891, 9429.220
896.7712, 9566.540
897.2533, 9685.221
897.7354, 9799.846
898.2175, 9913.676
898.6996, 10032.45
899.1818, 10169.95
899.6639, 10314.57
900.1460, 10442.40
900.6281, 10549.15
901.1102, 10654.16
901.5923, 10773.58
902.0745, 10894.54
902.5566, 11003.76
903.0387, 11101.62
903.5208, 11192.37
904.0029, 11273.74
904.4850, 11334.92
904.9672, 11370.37
905.4493, 11391.72
905.9314, 11415.59
906.4135, 11437.34
906.8956, 11441.75
907.3777, 11428.53
907.8599, 11393.86
908.3420, 11336.88
908.8241, 11266.91
909.3062, 11191.05
909.7883, 11106.57
910.2704, 11005.58
910.7526, 10887.54
911.2347, 10761.03
911.7169, 10625.17
912.1990, 10487.30
912.6811, 10350.72
913.1632, 10211.37
913.6453, 10062.21
914.1274, 9904.346
914.6096, 9748.480
915.0917, 9590.043
915.5738, 9445.758
916.0559, 9322.518
916.5380, 9203.023
917.0201, 9081.058
917.5023, 8954.697
917.9844, 8817.187
918.4665, 8661.077
918.9486, 8534.502
919.4307, 8475.647
919.9128, 8393.542
920.3950, 8244.474
920.8771, 8092.747
921.3592, 7989.964
921.8413, 7920.888
922.3234, 7842.968
922.8055, 7755.079
923.2877, 7647.387
923.7698, 7500.370
924.2519, 7353.647
924.7340, 7222.259
925.2161, 7102.515
925.6982, 6992.686
926.1804, 6890.485
926.6625, 6785.840
927.1446, 6674.171
927.6267, 6562.987
928.1088, 6448.596
928.5909, 6341.305
929.0731, 6251.222
929.5552, 6173.579
930.0373, 6101.545
930.5194, 6032.355
931.0015, 5961.380
931.4836, 5878.229
931.9658, 5801.083
932.4479, 5747.722
932.9300, 5708.011
933.4121, 5675.636
933.8942, 5643.613
934.3763, 5592.722
934.8585, 5515.885
935.3406, 5447.722
935.8227, 5437.111
936.3048, 5441.747
936.7869, 5390.695
937.2690, 5308.636
937.7512, 5254.563
938.2333, 5234.208
938.7154, 5213.169
939.1975, 5170.250
939.6796, 5129.995
940.1617, 5135.125
940.6439, 5166.197
941.1260, 5173.198
941.6081, 5156.747
942.0902, 5123.430
942.5723, 5076.528
943.0544, 5037.811
943.5366, 5025.987
944.0187, 5027.947
944.5008, 5015.882
944.9829, 4991.656
945.4650, 4968.953
945.9471, 4948.565
946.4293, 4924.896
946.9114, 4895.385
947.3935, 4868.235
947.8756, 4853.790
948.3577, 4847.377
948.8398, 4827.025
949.3220, 4791.837
949.8041, 4771.542
950.2862, 4770.902
950.7683, 4775.684
951.2504, 4781.380
951.7325, 4780.150
952.2147, 4757.827
952.6968, 4716.530
953.1789, 4694.812
953.6610, 4697.581
954.1431, 4695.401
954.6252, 4682.954
955.1074, 4667.540
955.5895, 4655.683
956.0716, 4640.012
956.5537, 4602.018
957.0358, 4535.396
957.5179, 4507.422
958.0001, 4536.445
958.4822, 4556.176
958.9643, 4548.979
959.4464, 4535.287
959.9285, 4531.368
960.4106, 4531.425
960.8928, 4518.603
961.3749, 4487.540
961.8570, 4462.296
962.3391, 4440.685
962.8212, 4429.021
963.3033, 4434.935
963.7855, 4445.060
964.2676, 4449.917
964.7497, 4449.372
965.2318, 4443.049
965.7139, 4430.623
966.1960, 4412.893
966.6782, 4373.295
967.1603, 4349.040
967.6424, 4368.749
968.1245, 4396.515
968.6066, 4391.314
969.0887, 4359.271
969.5709, 4346.678
970.0530, 4377.455
970.5351, 4392.152
971.0172, 4372.790
971.4993, 4352.960
971.9814, 4349.941
972.4636, 4352.764
972.9457, 4348.437
973.4278, 4336.631
973.9099, 4322.956
974.3920, 4294.993
974.8741, 4284.612
975.3563, 4317.934
975.8384, 4347.621
976.3205, 4343.382
976.8026, 4321.099
977.2847, 4299.947
977.7668, 4282.568
978.2490, 4280.455
978.7311, 4320.430
979.2132, 4341.744
979.6953, 4310.763
980.1774, 4272.728
980.6595, 4257.034
981.1417, 4256.025
981.6238, 4254.265
982.1059, 4249.428
982.5880, 4247.858
983.0701, 4258.524
983.5522, 4263.288
984.0344, 4245.403
984.5165, 4228.501
984.9986, 4236.838
985.4807, 4258.520
985.9628, 4270.438
986.4449, 4268.350
986.9271, 4253.167
987.4092, 4206.058
987.8913, 4170.121
988.3734, 4175.100
988.8555, 4190.899
989.3376, 4192.343
989.8198, 4182.323
990.3019, 4173.135
990.7840, 4167.897
991.2661, 4159.567
991.7482, 4138.043
992.2303, 4121.687
992.7125, 4124.976
993.1946, 4133.894
993.6767, 4137.781
994.1588, 4134.943
994.6409, 4120.289
995.1230, 4089.044
995.6052, 4078.106
996.0873, 4128.695
996.5694, 4174.327
997.0515, 4173.075
997.5336, 4151.307
998.0157, 4128.440
998.4979, 4111.467
998.9800, 4111.464
999.4621, 4134.448
999.9442, 4152.439
1000.426, 4151.614
1000.908, 4143.171
1001.391, 4128.370
1001.873, 4113.548
1002.355, 4103.637
1002.837, 4099.658
1003.319, 4104.046
1003.801, 4119.820
1004.283, 4129.233
1004.765, 4117.206
1005.247, 4104.582
1005.730, 4099.083
1006.212, 4103.611
1006.694, 4130.712
1007.176, 4169.416
1007.658, 4187.766
1008.140, 4174.299
1008.622, 4151.648
1009.104, 4122.195
1009.587, 4095.562
1010.069, 4073.094
1010.551, 4059.800
1011.033, 4068.996
1011.515, 4091.412
1011.997, 4097.483
1012.479, 4075.012
1012.961, 4055.356
1013.443, 4049.004
1013.926, 4052.231
1014.408, 4073.755
1014.890, 4095.472
1015.372, 4093.375
1015.854, 4074.805
1016.336, 4069.131
1016.818, 4088.318
1017.300, 4098.105
1017.783, 4077.087
1018.265, 4053.463
1018.747, 4038.382
1019.229, 4030.966
1019.711, 4033.151
1020.193, 4041.374
1020.675, 4046.205
1021.157, 4044.378
1021.639, 4044.943
1022.122, 4058.812
1022.604, 4065.883
1023.086, 4050.521
1023.568, 4029.482
1024.050, 4018.404
1024.532, 4015.155
1025.014, 4008.830
1025.496, 3994.993
1025.979, 3991.302
1026.461, 4016.644
1026.943, 4034.643
1027.425, 4024.369
1027.907, 4006.843
1028.389, 3996.954
1028.871, 3994.809
1029.353, 3999.179
1029.835, 4012.455
1030.318, 4017.805
1030.800, 3995.527
1031.282, 3987.326
1031.764, 4024.435
1032.246, 4062.634
1032.728, 4067.965
1033.210, 4049.616
1033.692, 4027.626
1034.174, 4001.179
1034.657, 3985.938
1035.139, 3989.035
1035.621, 3995.772
1036.103, 4008.863
1036.585, 4018.869
1037.067, 4016.682
1037.549, 4008.318
1038.031, 4004.555
1038.514, 4005.632
1038.996, 4011.505
1039.478, 4030.784
1039.960, 4041.384
1040.442, 4035.756
1040.924, 4026.586
1041.406, 4019.748
1041.888, 4014.206
1042.370, 4007.987
1042.853, 4000.861
1043.335, 3996.142
1043.817, 3989.874
1044.299, 3995.408
1044.781, 4025.063
1045.263, 4047.840
1045.745, 4048.029
1046.227, 4033.352
1046.709, 4012.498
1047.192, 3986.053
1047.674, 3961.507
1048.156, 3933.571
1048.638, 3927.262
1049.120, 3953.330
1049.602, 3977.487
1050.084, 3984.789
1050.566, 3983.433
1051.049, 3980.264
1051.531, 3978.082
1052.013, 3998.733
1052.495, 4050.480
1052.977, 4067.428
1053.459, 4039.962
1053.941, 4008.041
1054.423, 3984.227
1054.906, 3970.210
1055.388, 3968.998
1055.870, 3976.528
1056.352, 3980.382
1056.834, 3980.550
1057.316, 3979.817
1057.798, 3978.202
1058.280, 3982.075
1058.762, 3993.654
1059.245, 4002.642
1059.727, 4000.656
1060.209, 3991.958
1060.691, 3983.012
1061.173, 3974.925
1061.655, 3975.281
1062.137, 3982.828
1062.619, 3987.038
1063.101, 3985.873
1063.584, 3985.873
1064.066, 3991.582
1064.548, 3996.063
1065.030, 3983.614
1065.512, 3965.183
1065.994, 3973.972
1066.476, 3998.656
1066.958, 3998.226
1067.441, 3974.006
1067.923, 3970.438
1068.405, 4008.541
1068.887, 4049.156
1069.369, 4049.385
1069.851, 4031.564
1070.333, 4023.953
1070.815, 4021.112
1071.297, 4011.569
1071.780, 3998.077
1072.262, 3993.091
1072.744, 4000.203
1073.226, 4009.543
1073.708, 4017.939
1074.190, 4021.110
1074.672, 4006.177
1075.154, 3992.184
1075.636, 4008.113
1076.119, 4037.458
1076.601, 4044.188
1077.083, 4024.017
1077.565, 4007.212
1078.047, 4007.805
1078.529, 4011.580
1079.011, 4010.646
1079.494, 4012.162
1079.976, 4028.109
1080.458, 4044.708
1080.940, 4038.721
1081.422, 4014.742
1081.904, 4006.342
1082.386, 4030.023
1082.868, 4045.217
1083.350, 4035.950
1083.833, 4027.738
1084.315, 4031.159
1084.797, 4038.862
1085.279, 4046.610
1085.761, 4053.078
1086.243, 4055.950
1086.725, 4057.685
1087.207, 4044.596
1087.689, 3991.626
1088.172, 3971.665
1088.654, 4019.249
1089.136, 4067.098
1089.618, 4072.188
1090.100, 4055.102
1090.582, 4051.000
1091.064, 4059.578
1091.546, 4059.493
1092.029, 4046.455
1092.511, 4046.678
1092.993, 4065.148
1093.475, 4089.275
1093.957, 4115.918
1094.439, 4133.378
1094.921, 4125.670
1095.403, 4101.756
1095.885, 4093.906
1096.368, 4100.858
1096.850, 4108.967
1097.332, 4116.721
1097.814, 4113.662
1098.296, 4097.200
1098.778, 4081.505
1099.260, 4076.955
1099.742, 4081.024
1100.224, 4095.628
1100.707, 4113.193
1101.189, 4111.549
1101.671, 4097.574
1102.153, 4090.853
1102.635, 4094.708
1103.117, 4108.153
1103.599, 4131.475
1104.081, 4143.278
1104.564, 4107.809
1105.046, 4067.557
1105.528, 4069.244
1106.010, 4092.871
1106.492, 4117.423
1106.974, 4138.444
1107.456, 4153.739
1107.938, 4162.961
1108.421, 4169.856
1108.903, 4180.029
1109.385, 4182.550
1109.867, 4157.122
1110.349, 4138.388
1110.831, 4159.190
1111.313, 4195.916
1111.795, 4216.985
1112.277, 4221.482
1112.760, 4224.241
1113.242, 4229.044
1113.724, 4228.351
1114.206, 4211.844
1114.688, 4202.786
1115.170, 4209.668
1115.652, 4223.999
1116.134, 4241.626
1116.616, 4261.052
1117.099, 4279.118
1117.581, 4296.020
1118.063, 4310.354
1118.545, 4323.524
1119.027, 4328.563
1119.509, 4323.076
1119.991, 4314.503
1120.473, 4305.920
1120.956, 4298.203
1121.438, 4292.194
1121.920, 4288.199
1122.402, 4288.292
1122.884, 4291.940
1123.366, 4292.484
1123.848, 4290.351
1124.330, 4295.912
1124.813, 4311.678
1125.295, 4328.333
1125.777, 4339.406
1126.259, 4346.059
1126.741, 4344.442
1127.223, 4343.142
1127.705, 4362.155
1128.187, 4391.956
1128.669, 4412.583
1129.151, 4422.239
1129.634, 4427.062
1130.116, 4429.332
1130.598, 4433.039
1131.080, 4446.226
1131.562, 4455.216
1132.044, 4444.601
1132.526, 4431.283
1133.008, 4434.340
1133.491, 4444.333
1133.973, 4436.850
1134.455, 4413.313
1134.937, 4416.936
1135.419, 4486.234
1135.901, 4529.482
1136.383, 4509.926
1136.865, 4490.819
1137.348, 4496.314
1137.830, 4511.297
1138.312, 4526.607
1138.794, 4540.890
1139.276, 4550.502
1139.758, 4554.859
1140.240, 4558.550
1140.722, 4561.298
1141.204, 4562.859
1141.687, 4560.743
1142.169, 4572.477
1142.651, 4610.556
1143.133, 4646.458
1143.615, 4641.500
1144.097, 4613.915
1144.579, 4624.863
1145.061, 4666.631
1145.543, 4703.532
1146.026, 4731.369
1146.508, 4736.156
1146.990, 4718.378
1147.472, 4709.273
1147.954, 4729.233
1148.436, 4756.930
1148.918, 4771.333
1149.400, 4778.530
1149.883, 4784.744
1150.365, 4789.573
1150.847, 4791.750
1151.329, 4791.821
1151.811, 4789.431
1152.293, 4784.957
1152.775, 4788.201
1153.257, 4809.044
1153.740, 4830.215
1154.222, 4842.878
1154.704, 4857.461
1155.186, 4884.001
1155.668, 4913.069
1156.150, 4936.994
1156.632, 4953.356
1157.114, 4951.143
1157.596, 4914.951
1158.078, 4916.705
1158.561, 4975.370
1159.043, 5022.417
1159.525, 5044.686
1160.007, 5049.897
1160.489, 5038.441
1160.971, 5025.081
1161.453, 5032.264
1161.935, 5053.988
1162.418, 5059.083
1162.900, 5052.691
1163.382, 5087.399
1163.864, 5157.167
1164.346, 5189.054
1164.828, 5166.677
1165.310, 5139.305
1165.792, 5138.249
1166.275, 5152.758
1166.757, 5181.592
1167.239, 5209.398
1167.721, 5206.072
1168.203, 5196.387
1168.685, 5222.245
1169.167, 5273.245
1169.649, 5315.576
1170.131, 5340.505
1170.614, 5352.212
1171.096, 5333.355
1171.578, 5329.660
1172.060, 5378.093
1172.542, 5416.645
1173.024, 5400.997
1173.506, 5369.927
1173.988, 5358.455
1174.470, 5366.214
1174.953, 5396.272
1175.435, 5457.596
1175.917, 5479.638
1176.399, 5447.896
1176.881, 5440.297
1177.363, 5472.112
1177.845, 5515.403
1178.327, 5559.173
1178.810, 5589.183
1179.292, 5585.570
1179.774, 5563.982
1180.256, 5560.582
1180.738, 5571.292
1181.220, 5587.699
1181.702, 5605.856
1182.184, 5610.734
1182.667, 5605.063
1183.149, 5617.591
1183.631, 5663.012
1184.113, 5705.508
1184.595, 5711.653
1185.077, 5713.932
1185.559, 5743.269
1186.041, 5772.448
1186.523, 5767.820
1187.005, 5750.062
1187.488, 5756.487
1187.970, 5787.616
1188.452, 5811.965
1188.934, 5820.703
1189.416, 5833.705
1189.898, 5854.153
1190.380, 5872.930
1190.862, 5885.752
1191.345, 5902.044
1191.827, 5930.742
1192.309, 5959.565
1192.791, 5967.804
1193.273, 5960.056
1193.755, 5958.462
1194.237, 5963.210
1194.719, 5979.597
1195.202, 6005.200
1195.684, 6019.510
1196.166, 6018.934
1196.648, 6023.628
1197.130, 6046.972
1197.612, 6070.993
1198.094, 6069.758
1198.576, 6068.254
1199.058, 6104.107
1199.541, 6145.328
1200.023, 6148.517
1200.505, 6127.464
1200.987, 6112.728
1201.469, 6109.941
1201.951, 6118.255
1202.433, 6144.282
1202.915, 6168.467
1203.397, 6188.993
1203.880, 6206.668
1204.362, 6222.057
1204.844, 6233.712
1205.326, 6238.261
1205.808, 6242.740
1206.290, 6261.368
1206.772, 6290.764
1207.254, 6303.334
1207.737, 6300.319
1208.219, 6304.176
1208.701, 6315.371
1209.183, 6314.748
1209.665, 6299.790
1210.147, 6304.370
1210.629, 6353.122
1211.111, 6402.803
1211.594, 6398.210
1212.076, 6380.917
1212.558, 6393.081
1213.040, 6420.583
1213.522, 6454.354
1214.004, 6484.958
1214.486, 6493.000
1214.968, 6479.501
1215.450, 6482.398
1215.932, 6523.582
1216.415, 6552.476
1216.897, 6554.296
1217.379, 6559.857
1217.861, 6577.564
1218.343, 6599.392
1218.825, 6623.530
1219.307, 6642.181
1219.789, 6641.313
1220.272, 6626.825
1220.754, 6626.099
1221.236, 6638.400
1221.718, 6660.477
1222.200, 6690.212
1222.682, 6717.960
1223.164, 6741.318
1223.646, 6764.202
1224.129, 6789.458
1224.611, 6801.865
1225.093, 6768.024
1225.575, 6740.523
1226.057, 6774.082
1226.539, 6822.067
1227.021, 6837.967
1227.503, 6839.782
1227.985, 6860.910
1228.468, 6899.735
1228.950, 6928.980
1229.432, 6944.749
1229.914, 6955.738
1230.396, 6956.225
1230.878, 6967.582
1231.360, 6995.359
1231.842, 7030.596
1232.324, 7072.113
1232.807, 7100.415
1233.289, 7089.606
1233.771, 7064.310
1234.253, 7084.912
1234.735, 7134.132
1235.217, 7172.374
1235.699, 7195.412
1236.181, 7182.483
1236.664, 7148.973
1237.146, 7153.690
1237.628, 7214.052
1238.110, 7280.052
1238.592, 7333.120
1239.074, 7375.146
1239.556, 7411.901
##END=



