##NAMES=Dussertite
##RRUFFID=R060398
##IDEAL CHEMISTRY=BaFe^3+^_3_(As^5+^O_4_)(As^5+^O_3_OH)(OH)_6_
##LOCALITY=Constantine, Algeria
##OWNER=RRUFF
##SOURCE=American Museum of Natural History
##DESCRIPTION=Green granular aggregate
##STATUS=The identification of this mineral is confirmed by single-crystal X-ray diffraction and chemical analysis.
##URL=rruff.info/R060398
##MEASURED CHEMISTRY=(Ba_0.99_Ca_0.01_)_Σ=1_(Fe^3+^_2.85_Al_0.15_)_Σ=3_(As_1.00_O_4_)(As_1.00_O_3_OH)((OH)_5.93_F_0.07_)_Σ=6_ ; (OH) estimated by difference and charge balance
168.6560, 793.3848
169.1381, 828.3554
169.6203, 864.7644
170.1024, 899.0100
170.5845, 936.1298
171.0666, 976.5115
171.5487, 1018.568
172.0309, 1062.039
172.5130, 1105.683
172.9951, 1148.362
173.4772, 1190.651
173.9593, 1233.608
174.4414, 1277.009
174.9236, 1321.380
175.4057, 1367.282
175.8878, 1415.152
176.3699, 1461.882
176.8520, 1504.086
177.3341, 1543.632
177.8163, 1584.759
178.2984, 1627.656
178.7805, 1673.293
179.2626, 1723.344
179.7447, 1776.950
180.2268, 1834.347
180.7090, 1893.464
181.1911, 1955.443
181.6732, 2023.562
182.1553, 2097.320
182.6374, 2178.257
183.1195, 2267.917
183.6017, 2367.679
184.0838, 2474.448
184.5659, 2588.149
185.0480, 2707.796
185.5301, 2834.585
186.0123, 2971.475
186.4944, 3115.949
186.9765, 3257.771
187.4586, 3399.676
187.9407, 3532.978
188.4228, 3652.043
188.9050, 3755.627
189.3871, 3832.889
189.8692, 3879.676
190.3513, 3895.759
190.8334, 3877.913
191.3155, 3825.167
191.7977, 3741.554
192.2798, 3627.721
192.7619, 3483.883
193.2440, 3328.356
193.7261, 3164.194
194.2082, 2993.149
194.6904, 2826.497
195.1725, 2664.278
195.6546, 2507.342
196.1367, 2362.666
196.6188, 2229.508
197.1009, 2106.917
197.5831, 1994.421
198.0652, 1890.970
198.5473, 1799.602
199.0294, 1721.436
199.5115, 1653.724
199.9937, 1591.094
200.4758, 1534.199
200.9579, 1482.549
201.4400, 1436.985
201.9221, 1397.647
202.4042, 1361.893
202.8864, 1329.699
203.3685, 1300.807
203.8506, 1274.942
204.3327, 1252.695
204.8148, 1231.969
205.2969, 1211.695
205.7791, 1191.769
206.2612, 1172.998
206.7433, 1155.469
207.2254, 1139.075
207.7075, 1123.710
208.1896, 1109.551
208.6718, 1095.788
209.1539, 1081.681
209.6360, 1067.148
210.1181, 1053.331
210.6002, 1040.180
211.0823, 1027.856
211.5645, 1016.845
212.0466, 1007.242
212.5287, 998.6765
213.0108, 991.3353
213.4929, 985.8193
213.9750, 978.9686
214.4572, 970.0750
214.9393, 959.9836
215.4214, 950.9276
215.9035, 943.1253
216.3856, 935.8187
216.8678, 928.7578
217.3499, 921.8050
217.8320, 915.2026
218.3141, 909.1205
218.7962, 903.3568
219.2783, 897.2281
219.7605, 890.2498
220.2426, 883.8248
220.7247, 878.8738
221.2068, 875.9471
221.6889, 872.9418
222.1710, 869.8592
222.6532, 866.6347
223.1353, 863.1061
223.6174, 858.9860
224.0995, 855.0086
224.5816, 851.4591
225.0637, 848.0793
225.5459, 845.8326
226.0280, 845.3463
226.5101, 845.8814
226.9922, 845.0525
227.4743, 841.9088
227.9564, 838.8894
228.4386, 837.1415
228.9207, 837.0300
229.4028, 837.3693
229.8849, 838.2343
230.3670, 839.4969
230.8492, 840.7810
231.3313, 841.7341
231.8134, 843.2126
232.2955, 845.7200
232.7776, 849.7032
233.2597, 853.5975
233.7419, 857.2684
234.2240, 860.9109
234.7061, 864.9044
235.1882, 869.2362
235.6703, 873.9503
236.1524, 879.1328
236.6346, 884.8600
237.1167, 890.8919
237.5988, 897.3696
238.0809, 904.1113
238.5630, 910.7487
239.0451, 916.8463
239.5273, 923.4146
240.0094, 931.1116
240.4915, 941.0397
240.9736, 949.0018
241.4557, 953.5631
241.9378, 956.8109
242.4200, 963.3190
242.9021, 975.2615
243.3842, 987.1649
243.8663, 996.7627
244.3484, 1002.822
244.8306, 1010.320
245.3127, 1019.652
245.7948, 1030.140
246.2769, 1040.500
246.7590, 1050.327
247.2411, 1060.531
247.7233, 1071.542
248.2054, 1083.708
248.6875, 1095.522
249.1696, 1107.146
249.6517, 1118.218
250.1338, 1128.089
250.6160, 1136.756
251.0981, 1144.261
251.5802, 1150.310
252.0623, 1154.586
252.5444, 1159.508
253.0265, 1166.291
253.5087, 1172.704
253.9908, 1175.252
254.4729, 1172.523
254.9550, 1168.885
255.4371, 1165.611
255.9192, 1162.932
256.4014, 1158.958
256.8835, 1153.224
257.3656, 1146.652
257.8477, 1140.214
258.3298, 1134.118
258.8120, 1127.637
259.2941, 1120.473
259.7762, 1112.548
260.2583, 1104.572
260.7404, 1096.164
261.2225, 1088.052
261.7047, 1080.646
262.1868, 1073.615
262.6689, 1068.127
263.1510, 1064.765
263.6331, 1063.477
264.1152, 1061.644
264.5974, 1059.267
265.0795, 1056.352
265.5616, 1052.497
266.0437, 1046.671
266.5258, 1043.240
267.0079, 1043.548
267.4901, 1047.167
267.9722, 1050.039
268.4543, 1051.747
268.9364, 1053.658
269.4185, 1056.992
269.9006, 1062.042
270.3828, 1067.394
270.8649, 1073.288
271.3470, 1079.310
271.8291, 1083.313
272.3112, 1084.645
272.7933, 1085.706
273.2755, 1088.421
273.7576, 1093.096
274.2397, 1097.105
274.7218, 1100.023
275.2039, 1102.085
275.6860, 1104.065
276.1682, 1106.061
276.6503, 1107.674
277.1324, 1108.280
277.6145, 1107.723
278.0966, 1108.572
278.5787, 1111.460
279.0609, 1115.404
279.5430, 1117.961
280.0251, 1118.830
280.5072, 1120.331
280.9893, 1124.166
281.4715, 1130.300
281.9536, 1135.536
282.4357, 1139.389
282.9178, 1142.981
283.3999, 1148.192
283.8820, 1155.044
284.3642, 1162.764
284.8463, 1171.170
285.3284, 1180.230
285.8105, 1189.307
286.2926, 1198.385
286.7747, 1207.549
287.2569, 1217.027
287.7390, 1226.784
288.2211, 1236.372
288.7032, 1245.789
289.1853, 1254.901
289.6674, 1263.221
290.1496, 1270.748
290.6317, 1277.825
291.1138, 1285.107
291.5959, 1292.477
292.0780, 1298.746
292.5602, 1303.117
293.0423, 1306.364
293.5244, 1310.492
294.0065, 1315.527
294.4886, 1320.738
294.9707, 1325.484
295.4529, 1329.909
295.9350, 1334.494
296.4171, 1339.776
296.8992, 1344.967
297.3813, 1348.560
297.8634, 1350.613
298.3456, 1351.892
298.8277, 1353.377
299.3098, 1354.483
299.7919, 1353.904
300.2740, 1351.365
300.7561, 1347.035
301.2383, 1341.352
301.7204, 1334.176
302.2025, 1325.181
302.6846, 1313.712
303.1667, 1300.383
303.6488, 1285.773
304.1310, 1270.022
304.6131, 1253.266
305.0952, 1236.119
305.5773, 1218.286
306.0594, 1199.055
306.5415, 1176.275
307.0237, 1152.658
307.5058, 1131.155
307.9879, 1112.505
308.4700, 1093.626
308.9521, 1070.970
309.4343, 1046.509
309.9164, 1023.224
310.3985, 1002.172
310.8806, 982.7098
311.3627, 964.7549
311.8448, 948.1541
312.3270, 931.6953
312.8091, 914.1505
313.2912, 896.4607
313.7733, 879.7379
314.2554, 864.6049
314.7375, 850.3430
315.2197, 836.8079
315.7018, 823.8424
316.1839, 811.1929
316.6660, 798.2729
317.1481, 785.7921
317.6302, 774.5467
318.1124, 766.0523
318.5945, 757.0632
319.0766, 745.6659
319.5587, 732.6729
320.0408, 720.7322
320.5229, 711.8171
321.0051, 703.3792
321.4872, 693.7399
321.9693, 681.2156
322.4514, 670.3825
322.9335, 663.7166
323.4156, 659.2485
323.8978, 653.1825
324.3799, 642.5361
324.8620, 632.2156
325.3441, 624.0494
325.8262, 618.8835
326.3083, 613.8641
326.7905, 608.9962
327.2726, 604.0707
327.7547, 598.8984
328.2368, 592.6780
328.7189, 586.9925
329.2010, 582.1850
329.6832, 578.3505
330.1653, 574.7778
330.6474, 571.3938
331.1295, 568.3293
331.6116, 565.6829
332.0938, 563.7776
332.5759, 561.7503
333.0580, 559.3440
333.5401, 556.6550
334.0222, 554.6122
334.5043, 553.4908
334.9865, 552.6073
335.4686, 551.5118
335.9507, 550.0068
336.4328, 548.7693
336.9149, 547.6670
337.3970, 546.9223
337.8792, 547.2382
338.3613, 548.8849
338.8434, 550.8381
339.3255, 552.7824
339.8076, 554.7872
340.2898, 556.2291
340.7719, 556.9159
341.2540, 557.4105
341.7361, 558.5814
342.2182, 560.4562
342.7003, 562.5831
343.1825, 564.8415
343.6646, 567.2307
344.1467, 569.6363
344.6288, 572.1035
345.1109, 574.4543
345.5930, 576.6420
346.0752, 578.6121
346.5573, 580.0206
347.0394, 580.3627
347.5215, 580.4562
348.0036, 582.3405
348.4857, 585.9760
348.9679, 590.0466
349.4500, 593.5618
349.9321, 596.7790
350.4142, 600.4745
350.8963, 604.8829
351.3784, 609.5458
351.8606, 613.7366
352.3427, 617.5730
352.8248, 621.5884
353.3069, 625.9006
353.7890, 630.5917
354.2711, 636.1343
354.7533, 642.6699
355.2354, 648.9156
355.7175, 653.2501
356.1996, 656.5355
356.6817, 660.2737
357.1638, 665.4487
357.6460, 671.0505
358.1281, 676.6588
358.6102, 682.1886
359.0923, 687.0861
359.5744, 691.0763
360.0565, 694.2059
360.5387, 696.4523
361.0208, 696.8829
361.5029, 697.5994
361.9850, 699.8201
362.4671, 703.1171
362.9492, 706.1468
363.4314, 707.4263
363.9135, 709.0544
364.3956, 712.3705
364.8777, 718.4006
365.3598, 724.1416
365.8419, 728.1072
366.3241, 731.5923
366.8062, 736.5181
367.2883, 744.9695
367.7704, 753.1310
368.2526, 760.0779
368.7347, 765.7399
369.2168, 770.4832
369.6989, 774.2408
370.1810, 777.1682
370.6631, 779.5541
371.1453, 783.1349
371.6274, 783.5390
372.1095, 779.6531
372.5916, 771.9323
373.0737, 763.5267
373.5558, 754.0247
374.0380, 744.3410
374.5201, 734.7743
375.0022, 725.2938
375.4843, 716.3671
375.9664, 708.1240
376.4485, 700.3469
376.9307, 692.0905
377.4128, 683.0060
377.8949, 675.2146
378.3770, 669.8005
378.8591, 666.6907
379.3412, 664.0252
379.8234, 661.6588
380.3055, 660.3229
380.7876, 661.2190
381.2697, 664.2496
381.7518, 667.5082
382.2339, 670.4199
382.7161, 673.2927
383.1982, 676.6535
383.6803, 680.4947
384.1624, 685.4226
384.6445, 692.4520
385.1266, 700.8640
385.6088, 708.7551
386.0909, 715.6146
386.5730, 722.5494
387.0551, 730.4611
387.5372, 739.3270
388.0193, 749.2678
388.5015, 760.9335
388.9836, 773.2929
389.4657, 785.0109
389.9478, 795.9769
390.4299, 807.5809
390.9120, 820.7059
391.3942, 835.0692
391.8763, 850.1480
392.3584, 866.5544
392.8405, 882.8939
393.3226, 897.9456
393.8047, 912.1277
394.2869, 927.3487
394.7690, 945.0101
395.2511, 963.4955
395.7332, 981.8132
396.2154, 999.6203
396.6975, 1017.584
397.1796, 1036.126
397.6617, 1055.064
398.1438, 1073.922
398.6259, 1092.171
399.1081, 1110.957
399.5902, 1130.929
400.0723, 1152.422
400.5544, 1172.853
401.0365, 1191.953
401.5186, 1210.234
402.0008, 1227.913
402.4829, 1245.223
402.9650, 1261.756
403.4471, 1278.034
403.9292, 1293.538
404.4113, 1305.696
404.8935, 1314.161
405.3756, 1320.289
405.8577, 1324.695
406.3398, 1327.336
406.8219, 1328.648
407.3040, 1329.080
407.7862, 1327.376
408.2683, 1321.332
408.7504, 1310.894
409.2325, 1298.677
409.7146, 1285.333
410.1967, 1271.049
410.6789, 1255.370
411.1610, 1238.280
411.6431, 1220.429
412.1252, 1202.792
412.6073, 1184.980
413.0894, 1165.742
413.5716, 1144.826
414.0537, 1123.361
414.5358, 1102.314
415.0179, 1082.001
415.5000, 1062.736
415.9821, 1044.641
416.4643, 1027.934
416.9464, 1013.507
417.4285, 1001.637
417.9106, 989.4276
418.3927, 974.3204
418.8748, 957.9811
419.3570, 942.6669
419.8391, 929.1869
420.3212, 916.6572
420.8033, 904.4752
421.2854, 892.8126
421.7675, 882.1913
422.2497, 873.2056
422.7318, 864.9883
423.2139, 857.2433
423.6960, 850.2049
424.1781, 843.1130
424.6602, 835.4551
425.1424, 827.8600
425.6245, 821.3250
426.1066, 816.3043
426.5887, 811.8860
427.0709, 808.1768
427.5530, 805.1710
428.0351, 801.5015
428.5172, 796.5813
428.9993, 791.7241
429.4814, 787.8512
429.9636, 785.0908
430.4457, 782.8548
430.9278, 781.2546
431.4099, 779.9891
431.8920, 778.3026
432.3741, 776.0873
432.8563, 774.1652
433.3384, 772.9867
433.8205, 772.4523
434.3026, 771.8954
434.7847, 771.2913
435.2668, 770.8365
435.7490, 770.6096
436.2311, 770.6732
436.7132, 771.2956
437.1953, 772.6895
437.6774, 774.4736
438.1595, 776.1594
438.6417, 777.8002
439.1238, 779.6153
439.6059, 782.0201
440.0880, 784.5270
440.5701, 786.3740
441.0522, 787.3187
441.5344, 788.8502
442.0165, 792.2255
442.4986, 796.6213
442.9807, 801.0143
443.4628, 804.1661
443.9449, 808.1324
444.4271, 814.1755
444.9092, 821.9366
445.3913, 829.4089
445.8734, 834.4802
446.3555, 840.2024
446.8376, 848.2051
447.3198, 859.9221
447.8019, 871.3305
448.2840, 881.5347
448.7661, 891.6141
449.2482, 903.0617
449.7303, 916.1877
450.2125, 929.9698
450.6946, 944.1558
451.1767, 958.8680
451.6588, 974.7416
452.1409, 991.8040
452.6230, 1010.252
453.1052, 1029.723
453.5873, 1050.269
454.0694, 1073.727
454.5515, 1100.586
455.0337, 1129.571
455.5158, 1157.817
455.9979, 1185.674
456.4800, 1214.625
456.9621, 1245.467
457.4442, 1278.085
457.9264, 1312.614
458.4085, 1348.887
458.8906, 1386.779
459.3727, 1425.866
459.8548, 1466.311
460.3369, 1507.409
460.8191, 1549.161
461.3012, 1592.398
461.7833, 1637.922
462.2654, 1685.546
462.7475, 1734.664
463.2296, 1784.310
463.7118, 1836.613
464.1939, 1893.466
464.6760, 1955.504
465.1581, 2018.131
465.6402, 2078.646
466.1223, 2139.485
466.6045, 2201.571
467.0866, 2268.191
467.5687, 2331.818
468.0508, 2392.495
468.5329, 2450.191
469.0150, 2506.104
469.4972, 2563.262
469.9793, 2613.157
470.4614, 2653.369
470.9435, 2683.986
471.4256, 2703.655
471.9077, 2712.706
472.3899, 2710.276
472.8720, 2695.473
473.3541, 2667.900
473.8362, 2629.343
474.3183, 2579.207
474.8004, 2519.222
475.2826, 2451.029
475.7647, 2374.947
476.2468, 2295.550
476.7289, 2213.642
477.2110, 2129.996
477.6931, 2047.202
478.1753, 1964.933
478.6574, 1884.536
479.1395, 1807.096
479.6216, 1732.249
480.1037, 1659.067
480.5858, 1585.503
481.0680, 1516.483
481.5501, 1456.344
482.0322, 1403.014
482.5143, 1352.755
482.9964, 1304.909
483.4786, 1259.124
483.9607, 1214.869
484.4428, 1172.438
484.9249, 1132.544
485.4070, 1095.329
485.8892, 1061.128
486.3713, 1030.348
486.8534, 1005.403
487.3355, 980.5499
487.8176, 955.0294
488.2997, 929.7899
488.7819, 906.2595
489.2640, 884.3781
489.7461, 864.1349
490.2282, 845.6090
490.7103, 828.6273
491.1924, 813.2672
491.6746, 799.6462
492.1567, 786.7239
492.6388, 773.3928
493.1209, 759.7153
493.6030, 748.1394
494.0851, 739.2514
494.5673, 731.2997
495.0494, 721.7900
495.5315, 711.0691
496.0136, 700.7540
496.4957, 691.3676
496.9778, 682.8489
497.4600, 674.7493
497.9421, 667.1511
498.4242, 660.4916
498.9063, 655.4835
499.3884, 651.2233
499.8705, 646.8699
500.3527, 642.2670
500.8348, 637.6427
501.3169, 632.9438
501.7990, 628.3976
502.2811, 624.2933
502.7632, 621.2208
503.2454, 618.0889
503.7275, 614.5764
504.2096, 610.7418
504.6917, 606.9323
505.1738, 602.7079
505.6559, 599.1736
506.1381, 597.1668
506.6202, 597.2327
507.1023, 596.6036
507.5844, 595.1219
508.0665, 593.2482
508.5486, 591.4120
509.0308, 589.5930
509.5129, 588.5332
509.9950, 588.7327
510.4771, 589.4673
510.9592, 589.1643
511.4413, 587.8797
511.9235, 586.2559
512.4056, 583.8962
512.8877, 581.7443
513.3698, 581.6931
513.8519, 584.0323
514.3340, 586.0234
514.8162, 585.2028
515.2983, 583.0546
515.7804, 581.3319
516.2625, 580.3892
516.7446, 580.1914
517.2267, 581.4394
517.7089, 583.4621
518.1910, 584.5845
518.6731, 583.0281
519.1552, 581.8690
519.6373, 582.4669
520.1194, 585.0464
520.6016, 586.9611
521.0837, 587.8111
521.5658, 588.4107
522.0479, 589.3131
522.5300, 590.5377
523.0121, 591.9713
523.4943, 593.6871
523.9764, 595.4904
524.4585, 596.9068
524.9406, 597.8947
525.4227, 599.2820
525.9048, 601.5327
526.3870, 604.2991
526.8691, 606.8010
527.3513, 609.0598
527.8334, 611.2094
528.3155, 612.8934
528.7976, 614.7260
529.2797, 617.9310
529.7618, 622.9426
530.2440, 627.6339
530.7261, 630.0758
531.2082, 631.4098
531.6903, 633.0515
532.1724, 635.0212
532.6545, 637.8478
533.1367, 642.1860
533.6188, 647.6127
534.1009, 652.7805
534.5830, 657.7906
535.0651, 662.1534
535.5472, 665.2692
536.0294, 666.7697
536.5115, 670.0242
536.9936, 675.7545
537.4757, 682.2352
537.9578, 687.8661
538.4399, 692.4200
538.9221, 697.9939
539.4042, 705.1243
539.8863, 712.9143
540.3684, 719.6843
540.8505, 725.5367
541.3326, 731.6895
541.8148, 738.5174
542.2969, 745.9902
542.7790, 754.7028
543.2611, 764.4114
543.7432, 773.4688
544.2253, 779.4991
544.7075, 784.9832
545.1896, 792.7928
545.6717, 803.7250
546.1538, 814.6559
546.6359, 824.0922
547.1180, 832.7404
547.6002, 841.2249
548.0823, 849.3713
548.5644, 857.7491
549.0465, 866.0209
549.5286, 874.6227
550.0107, 884.9183
550.4929, 898.4559
550.9750, 911.3600
551.4571, 922.4413
551.9392, 931.7272
552.4213, 940.0005
552.9034, 947.1949
553.3856, 953.7238
553.8677, 959.9741
554.3498, 965.9072
554.8319, 970.9872
555.3140, 975.0711
555.7961, 978.6409
556.2783, 982.5166
556.7604, 986.3880
557.2425, 989.3586
557.7246, 991.4634
558.2067, 992.1617
558.6888, 990.6809
559.1710, 987.3046
559.6531, 982.9460
560.1352, 977.3904
560.6173, 971.5508
561.0994, 966.1625
561.5815, 961.3728
562.0637, 956.0153
562.5458, 949.8992
563.0279, 943.0988
563.5100, 935.5911
563.9921, 926.8782
564.4742, 918.2868
564.9564, 910.0464
565.4385, 901.7885
565.9206, 892.8739
566.4027, 883.2759
566.8848, 873.4361
567.3669, 863.4668
567.8491, 853.4108
568.3312, 843.7985
568.8133, 834.6525
569.2954, 825.4639
569.7775, 815.8201
570.2596, 806.0114
570.7418, 796.9990
571.2239, 788.7943
571.7060, 780.3345
572.1881, 770.0496
572.6702, 759.4229
573.1523, 750.0742
573.6345, 743.2659
574.1166, 736.3996
574.5987, 728.6016
575.0808, 720.1957
575.5629, 711.5616
576.0450, 702.3309
576.5272, 693.5758
577.0093, 685.5687
577.4914, 678.2946
577.9735, 671.3904
578.4556, 664.8156
578.9377, 658.8246
579.4199, 653.6183
579.9020, 649.2839
580.3841, 644.9549
580.8662, 640.7667
581.3483, 635.9977
581.8304, 629.2020
582.3126, 621.1658
582.7947, 614.7540
583.2768, 610.7593
583.7589, 607.7032
584.2410, 604.1428
584.7231, 600.3465
585.2053, 596.8482
585.6874, 594.2752
586.1696, 591.6670
586.6517, 588.5652
587.1338, 584.9885
587.6159, 581.0829
588.0980, 576.0441
588.5801, 571.4132
589.0623, 567.9064
589.5444, 565.6332
590.0265, 563.7250
590.5086, 562.5693
590.9907, 561.2924
591.4728, 559.0836
591.9550, 555.7743
592.4371, 552.7332
592.9192, 550.0013
593.4013, 547.8075
593.8834, 546.9906
594.3655, 547.2669
594.8477, 546.7458
595.3298, 544.5494
595.8119, 541.6322
596.2940, 539.1038
596.7761, 536.9286
597.2582, 534.9066
597.7404, 532.5218
598.2225, 530.5607
598.7046, 529.9019
599.1867, 530.5607
599.6688, 530.7339
600.1509, 529.3998
600.6331, 527.7419
601.1152, 526.5775
601.5973, 526.4919
602.0794, 525.4872
602.5615, 522.9931
603.0436, 520.1335
603.5258, 518.1530
604.0079, 517.1129
604.4900, 516.7596
604.9721, 517.2952
605.4542, 518.1699
605.9363, 518.1581
606.4185, 517.3682
606.9006, 516.7231
607.3827, 517.2245
607.8648, 517.7682
608.3469, 516.1733
608.8290, 512.8558
609.3112, 510.2371
609.7933, 510.4601
610.2754, 511.4058
610.7575, 511.4090
611.2396, 510.1517
611.7217, 508.9914
612.2039, 508.1452
612.6860, 507.6343
613.1681, 507.4986
613.6502, 508.1762
614.1323, 508.4060
614.6144, 507.9053
615.0966, 507.1806
615.5787, 506.9592
616.0608, 507.2957
616.5429, 507.9246
617.0250, 509.0883
617.5071, 510.1728
617.9893, 509.4673
618.4714, 507.1708
618.9535, 504.8549
619.4356, 502.9216
619.9177, 501.6330
620.3998, 501.7633
620.8820, 503.1271
621.3641, 504.0633
621.8462, 502.8120
622.3283, 501.3558
622.8104, 501.4512
623.2925, 503.9706
623.7747, 505.3365
624.2568, 503.6641
624.7389, 501.3460
625.2210, 500.2969
625.7031, 500.9778
626.1852, 502.0165
626.6674, 503.6859
627.1495, 505.2711
627.6316, 505.2777
628.1137, 503.6235
628.5958, 502.4944
629.0779, 502.8121
629.5601, 503.6886
630.0422, 503.0429
630.5243, 501.2499
631.0064, 500.0367
631.4885, 501.0290
631.9706, 502.6039
632.4528, 503.1349
632.9349, 502.6694
633.4170, 502.3750
633.8991, 503.0472
634.3812, 503.8376
634.8633, 504.1552
635.3455, 503.6262
635.8276, 503.6752
636.3097, 504.8698
636.7918, 506.1554
637.2739, 506.5480
637.7560, 505.7251
638.2382, 505.2301
638.7203, 505.1384
639.2024, 505.4813
639.6845, 506.3458
640.1666, 507.7128
640.6487, 509.5356
641.1309, 512.2886
641.6130, 514.8095
642.0951, 514.8817
642.5772, 513.2910
643.0594, 512.2582
643.5415, 513.2786
644.0236, 514.8171
644.5057, 516.2781
644.9879, 517.5754
645.4700, 518.1871
645.9521, 516.9675
646.4342, 516.0132
646.9163, 516.4104
647.3984, 518.4879
647.8806, 519.7228
648.3627, 519.7697
648.8448, 519.6776
649.3269, 520.4911
649.8090, 522.2149
650.2911, 523.1193
650.7733, 522.9422
651.2554, 522.6157
651.7375, 523.4169
652.2196, 524.9322
652.7017, 526.1063
653.1838, 526.4323
653.6660, 526.7394
654.1481, 527.5414
654.6302, 528.7739
655.1123, 530.3458
655.5944, 533.2941
656.0765, 535.4099
656.5587, 535.4910
657.0408, 534.0007
657.5229, 533.2012
658.0050, 533.3802
658.4871, 533.7356
658.9692, 533.7618
659.4514, 533.6003
659.9335, 535.1823
660.4156, 538.7054
660.8977, 542.2811
661.3798, 544.6832
661.8619, 546.0545
662.3441, 546.6996
662.8262, 546.6277
663.3083, 546.2927
663.7904, 545.7467
664.2725, 545.2902
664.7546, 545.1982
665.2368, 545.4149
665.7189, 546.3412
666.2010, 549.5417
666.6831, 552.9080
667.1652, 553.8717
667.6473, 549.9941
668.1295, 547.6996
668.6116, 547.7330
669.0937, 549.3533
669.5758, 551.4069
670.0579, 554.0141
670.5400, 555.9698
671.0222, 556.8223
671.5043, 556.8997
671.9864, 556.3343
672.4685, 555.4076
672.9506, 555.5463
673.4327, 558.6848
673.9149, 562.3934
674.3970, 564.5893
674.8791, 565.3419
675.3612, 565.5258
675.8433, 565.0994
676.3254, 564.5342
676.8076, 563.9442
677.2897, 563.2444
677.7718, 563.2311
678.2539, 563.9813
678.7360, 565.3311
679.2181, 567.4504
679.7003, 570.4851
680.1824, 572.6022
680.6645, 573.6395
681.1466, 574.2077
681.6287, 574.5911
682.1108, 575.0375
682.5930, 576.3894
683.0751, 579.0915
683.5572, 581.7604
684.0393, 583.0922
684.5214, 583.6973
685.0035, 584.4647
685.4857, 585.7960
685.9678, 587.1622
686.4499, 588.5191
686.9320, 589.7885
687.4141, 590.7356
687.8962, 590.6396
688.3784, 591.6882
688.8605, 594.9052
689.3426, 599.3901
689.8247, 601.6748
690.3068, 601.6859
690.7889, 602.1208
691.2711, 604.8463
691.7532, 608.6360
692.2353, 610.8317
692.7174, 611.6448
693.1995, 612.5174
693.6816, 614.1570
694.1638, 616.3146
694.6459, 618.8548
695.1280, 621.7737
695.6101, 624.8762
696.0922, 627.7724
696.5743, 631.1601
697.0565, 635.5168
697.5386, 641.2100
698.0207, 646.4498
698.5028, 650.9573
698.9849, 655.6238
699.4670, 661.3903
699.9492, 668.1637
700.4313, 674.8917
700.9135, 681.3182
701.3956, 688.0906
701.8777, 695.5571
702.3598, 703.8948
702.8419, 713.5544
703.3240, 725.2692
703.8062, 737.0741
704.2883, 747.7865
704.7704, 757.9410
705.2525, 768.1113
705.7346, 777.1472
706.2167, 787.9646
706.6989, 801.1387
707.1810, 816.1252
707.6631, 831.7051
708.1452, 847.4318
708.6273, 865.0231
709.1094, 885.7120
709.5916, 907.8496
710.0737, 927.1543
710.5558, 944.1114
711.0379, 962.0804
711.5200, 983.5911
712.0021, 1006.278
712.4843, 1028.912
712.9664, 1051.384
713.4485, 1073.437
713.9306, 1093.488
714.4127, 1114.222
714.8948, 1137.208
715.3770, 1162.692
715.8591, 1186.413
716.3412, 1207.685
716.8233, 1228.459
717.3054, 1250.299
717.7875, 1273.199
718.2697, 1291.630
718.7518, 1305.536
719.2339, 1317.939
719.7160, 1332.739
720.1981, 1347.310
720.6802, 1357.587
721.1624, 1362.886
721.6445, 1365.062
722.1266, 1364.607
722.6087, 1361.799
723.0908, 1356.849
723.5729, 1349.900
724.0551, 1340.530
724.5372, 1328.235
725.0193, 1314.150
725.5014, 1299.536
725.9835, 1284.475
726.4656, 1268.452
726.9478, 1251.240
727.4299, 1232.999
727.9120, 1214.323
728.3941, 1194.833
728.8762, 1173.926
729.3583, 1150.824
729.8405, 1127.525
730.3226, 1105.549
730.8047, 1084.374
731.2868, 1063.843
731.7689, 1044.199
732.2510, 1024.568
732.7332, 1004.090
733.2153, 983.6971
733.6974, 965.1920
734.1795, 949.5042
734.6616, 933.2554
735.1437, 915.2726
735.6259, 896.7167
736.1080, 881.0301
736.5901, 867.9694
737.0722, 855.4088
737.5543, 842.9000
738.0364, 829.9146
738.5186, 814.5771
739.0007, 798.0289
739.4828, 783.8451
739.9649, 776.3947
740.4470, 768.9764
740.9291, 757.8494
741.4113, 743.3727
741.8934, 731.3672
742.3755, 723.0472
742.8576, 714.9777
743.3397, 705.4335
743.8218, 694.7597
744.3040, 685.8480
744.7861, 678.7989
745.2682, 672.4673
745.7503, 666.0612
746.2324, 659.8549
746.7145, 654.6227
747.1967, 650.2805
747.6788, 645.9999
748.1609, 641.2195
748.6430, 636.4236
749.1251, 631.7768
749.6072, 627.1951
750.0894, 623.3621
750.5715, 620.6786
751.0536, 618.2361
751.5357, 615.5208
752.0178, 612.4882
752.4999, 609.5353
752.9821, 606.6843
753.4642, 603.6891
753.9463, 599.8707
754.4284, 595.8695
754.9105, 592.9914
755.3926, 591.4047
755.8748, 590.6105
756.3569, 591.0850
756.8390, 591.7040
757.3211, 591.3636
757.8032, 589.1571
758.2853, 587.6196
758.7675, 587.1172
759.2496, 587.0839
759.7318, 586.9641
760.2139, 586.6835
760.6960, 587.0301
761.1781, 588.2149
761.6602, 589.5182
762.1423, 590.1912
762.6245, 590.2943
763.1066, 589.7385
763.5887, 588.1356
764.0708, 587.1783
764.5529, 588.5993
765.0350, 591.1207
765.5172, 593.2249
765.9993, 594.0223
766.4814, 595.1028
766.9635, 596.3016
767.4456, 597.9903
767.9277, 600.7427
768.4099, 604.7076
768.8920, 608.9925
769.3741, 613.6864
769.8562, 618.0862
770.3383, 620.8450
770.8204, 622.5244
771.3026, 624.5424
771.7847, 626.9576
772.2668, 630.5648
772.7489, 637.1154
773.2310, 644.9318
773.7131, 651.2891
774.1953, 654.3379
774.6774, 657.5859
775.1595, 661.2881
775.6416, 665.4821
776.1237, 670.3445
776.6058, 675.9677
777.0880, 681.4568
777.5701, 686.2464
778.0522, 691.3243
778.5343, 698.9374
779.0164, 708.2376
779.4985, 716.8024
779.9807, 723.1652
780.4628, 728.9373
780.9449, 734.5184
781.4270, 740.2355
781.9091, 746.9164
782.3912, 756.0190
782.8734, 764.3494
783.3555, 771.3106
783.8376, 777.3264
784.3197, 783.2139
784.8018, 789.0046
785.2839, 794.9965
785.7661, 801.4385
786.2482, 807.8909
786.7303, 813.3420
787.2124, 818.1088
787.6945, 823.2393
788.1766, 830.0961
788.6588, 836.5443
789.1409, 841.3162
789.6230, 844.8912
790.1051, 848.8062
790.5872, 853.6008
791.0693, 858.0441
791.5515, 861.5291
792.0336, 864.6789
792.5157, 869.7096
792.9978, 876.6392
793.4799, 882.2393
793.9620, 884.6143
794.4442, 885.9108
794.9263, 889.5481
795.4084, 894.7836
795.8905, 899.5813
796.3726, 902.3050
796.8547, 905.1293
797.3369, 909.3336
797.8190, 914.4053
798.3011, 918.5977
798.7832, 921.6803
799.2653, 924.2811
799.7474, 926.3576
800.2296, 928.1774
800.7117, 930.7664
801.1938, 934.0036
801.6759, 936.5897
802.1580, 937.8156
802.6401, 938.3090
803.1223, 937.8187
803.6044, 937.1413
804.0865, 938.3299
804.5686, 945.0850
805.0507, 950.6112
805.5328, 951.7161
806.0150, 950.1035
806.4971, 950.1159
806.9792, 952.0950
807.4613, 954.6031
807.9434, 957.1522
808.4255, 960.0925
808.9077, 964.8565
809.3898, 970.9607
809.8719, 976.2219
810.3540, 978.7029
810.8361, 980.9769
811.3182, 985.4427
811.8004, 991.2122
812.2825, 996.2920
812.7646, 998.7832
813.2467, 1002.252
813.7288, 1007.524
814.2109, 1014.134
814.6931, 1020.960
815.1752, 1028.130
815.6573, 1034.885
816.1394, 1040.846
816.6215, 1046.673
817.1037, 1053.578
817.5858, 1061.225
818.0679, 1068.881
818.5500, 1075.696
819.0322, 1083.080
819.5143, 1092.173
819.9964, 1102.135
820.4785, 1111.057
820.9606, 1117.891
821.4427, 1125.340
821.9249, 1134.184
822.4070, 1143.461
822.8891, 1150.701
823.3712, 1156.139
823.8533, 1162.523
824.3354, 1171.187
824.8176, 1180.083
825.2997, 1186.721
825.7818, 1191.974
826.2639, 1197.179
826.7460, 1203.844
827.2281, 1209.339
827.7103, 1211.314
828.1924, 1212.691
828.6745, 1217.805
829.1566, 1227.823
829.6387, 1236.787
830.1208, 1243.792
830.6030, 1249.360
831.0851, 1253.418
831.5672, 1256.508
832.0493, 1259.990
832.5314, 1263.777
833.0135, 1269.115
833.4957, 1277.041
833.9778, 1286.842
834.4599, 1297.847
834.9420, 1311.035
835.4241, 1323.642
835.9063, 1335.592
836.3884, 1347.063
836.8705, 1357.676
837.3526, 1367.502
837.8347, 1378.461
838.3168, 1390.820
838.7990, 1405.018
839.2811, 1423.717
839.7632, 1443.855
840.2453, 1460.788
840.7274, 1472.717
841.2095, 1485.038
841.6917, 1500.366
842.1738, 1516.215
842.6559, 1530.809
843.1380, 1543.912
843.6201, 1556.408
844.1022, 1568.111
844.5844, 1579.836
845.0665, 1592.893
845.5486, 1606.588
846.0307, 1618.692
846.5128, 1629.061
846.9949, 1638.726
847.4771, 1647.957
847.9592, 1657.085
848.4413, 1665.912
848.9234, 1673.930
849.4055, 1685.001
849.8876, 1700.790
850.3698, 1716.874
850.8519, 1730.776
851.3340, 1742.598
851.8161, 1752.248
852.2982, 1759.731
852.7803, 1767.674
853.2625, 1779.190
853.7446, 1791.330
854.2267, 1801.422
854.7088, 1809.366
855.1909, 1815.988
855.6730, 1821.526
856.1552, 1825.685
856.6373, 1828.588
857.1194, 1830.149
857.6015, 1829.486
858.0836, 1826.454
858.5657, 1822.421
859.0479, 1818.211
859.5300, 1813.261
860.0121, 1806.898
860.4942, 1798.973
860.9763, 1788.909
861.4584, 1775.535
861.9406, 1761.105
862.4227, 1746.752
862.9048, 1732.181
863.3869, 1716.874
863.8690, 1700.533
864.3511, 1683.899
864.8333, 1667.018
865.3154, 1649.824
865.7975, 1631.445
866.2796, 1611.984
866.7617, 1591.690
867.2438, 1570.337
867.7260, 1548.352
868.2081, 1524.258
868.6902, 1500.059
869.1723, 1478.427
869.6544, 1463.203
870.1365, 1445.447
870.6187, 1423.449
871.1008, 1400.210
871.5829, 1380.828
872.0650, 1365.033
872.5471, 1346.802
873.0292, 1324.894
873.5114, 1302.239
873.9935, 1281.084
874.4756, 1261.340
874.9577, 1243.173
875.4399, 1226.956
875.9220, 1210.560
876.4041, 1193.599
876.8862, 1176.319
877.3683, 1158.725
877.8505, 1140.626
878.3326, 1123.476
878.8147, 1107.371
879.2968, 1091.838
879.7789, 1076.471
880.2610, 1061.655
880.7432, 1047.914
881.2253, 1035.255
881.7074, 1022.851
882.1895, 1009.858
882.6716, 997.4517
883.1537, 986.5402
883.6359, 977.0567
884.1180, 966.8405
884.6001, 955.6014
885.0822, 944.6500
885.5643, 934.4390
886.0464, 925.0602
886.5286, 917.1883
887.0107, 910.4711
887.4928, 903.3896
887.9749, 894.3073
888.4570, 885.7067
888.9391, 879.1625
889.4213, 874.1655
889.9034, 869.0147
890.3855, 864.1346
890.8676, 857.9944
891.3497, 849.8373
891.8318, 840.8865
892.3140, 833.2220
892.7961, 826.5439
893.2782, 819.6642
893.7603, 812.2982
894.2424, 804.6210
894.7245, 796.5505
895.2067, 788.4506
895.6888, 780.6782
896.1709, 773.7537
896.6530, 766.4794
897.1351, 758.7299
897.6172, 750.9188
898.0994, 743.6575
898.5815, 736.8405
899.0636, 729.8320
899.5457, 722.6540
900.0278, 715.5418
900.5099, 708.7674
900.9921, 702.0609
901.4742, 694.8605
901.9563, 687.0057
902.4384, 680.0975
902.9205, 674.9058
903.4026, 669.9617
903.8848, 664.5489
904.3669, 658.7654
904.8490, 653.0509
905.3311, 647.4205
905.8132, 641.7668
906.2953, 635.6349
906.7775, 629.6764
907.2596, 624.3912
907.7417, 619.7623
908.2238, 615.5939
908.7059, 612.6524
909.1880, 609.1607
909.6702, 604.4073
910.1523, 599.1115
910.6344, 595.0374
911.1165, 592.1672
911.5986, 589.5876
912.0807, 587.1879
912.5629, 584.6474
913.0450, 581.3680
913.5271, 577.7982
914.0092, 574.5115
914.4913, 571.4163
914.9734, 569.2460
915.4556, 568.8189
915.9377, 568.6501
916.4198, 567.3221
916.9019, 564.7542
917.3840, 562.4597
917.8661, 560.5251
918.3483, 558.7009
918.8304, 556.5422
919.3125, 554.4562
919.7946, 553.1489
920.2767, 552.7098
920.7589, 551.8306
921.2410, 549.6760
921.7231, 547.4543
922.2052, 545.6334
922.6873, 544.1621
923.1694, 542.6450
923.6516, 541.0952
924.1337, 539.3350
924.6158, 536.9260
925.0979, 534.5529
925.5800, 533.2234
926.0621, 532.6736
926.5443, 532.2336
927.0264, 532.1366
927.5085, 531.4982
927.9906, 529.6981
928.4727, 527.5899
928.9548, 526.9401
929.4370, 527.8484
929.9191, 527.2596
930.4012, 524.2919
930.8833, 521.3089
931.3654, 521.2523
931.8475, 522.7157
932.3297, 523.9021
932.8118, 524.5474
933.2939, 524.4913
933.7761, 522.9742
934.2582, 521.4531
934.7403, 520.9987
935.2224, 521.6508
935.7045, 520.8948
936.1866, 518.6688
936.6688, 516.5392
937.1509, 515.8676
937.6330, 515.7108
938.1151, 515.1521
938.5972, 514.1685
939.0793, 512.8379
939.5615, 510.5014
940.0436, 508.6513
940.5257, 507.6676
941.0078, 507.4138
941.4899, 508.0277
941.9720, 509.4339
942.4542, 509.3155
942.9363, 506.3897
943.4184, 503.2191
943.9005, 502.6664
944.3826, 503.5897
944.8647, 504.4507
945.3469, 505.2986
945.8290, 505.1215
946.3111, 503.1429
946.7932, 501.0765
947.2753, 500.6295
947.7574, 501.6898
948.2396, 502.0336
948.7217, 501.5878
949.2038, 500.6066
949.6859, 499.0653
950.1680, 497.2553
950.6501, 495.0541
951.1323, 492.5686
951.6144, 491.4487
952.0965, 492.7075
952.5786, 493.8998
953.0607, 494.3373
953.5428, 494.1652
954.0250, 493.6192
954.5071, 492.7868
954.9892, 492.2132
955.4713, 492.2246
955.9534, 492.3638
956.4355, 492.3499
956.9177, 492.2234
957.3998, 492.0346
957.8819, 491.6631
958.3640, 491.5247
958.8461, 491.7938
959.3282, 491.9688
959.8104, 491.4091
960.2925, 490.3201
960.7746, 489.3054
961.2567, 488.4173
961.7388, 487.8753
962.2209, 488.2184
962.7031, 488.6082
963.1852, 488.3095
963.6673, 487.3610
964.1494, 487.0744
964.6315, 487.6839
965.1136, 488.1356
965.5958, 488.0112
966.0779, 487.4968
966.5600, 486.6659
967.0421, 485.7614
967.5242, 485.4937
968.0063, 486.7579
968.4885, 487.8489
968.9706, 488.0510
969.4527, 487.7792
969.9348, 487.5482
970.4169, 487.4031
970.8990, 487.0569
971.3812, 486.4599
971.8633, 485.8590
972.3454, 485.2823
972.8275, 484.9683
973.3096, 485.5558
973.7917, 487.0679
974.2739, 487.9993
974.7560, 487.1867
975.2381, 486.3364
975.7202, 485.9122
976.2023, 485.9899
976.6844, 487.3209
977.1666, 489.8934
977.6487, 491.7045
978.1308, 491.7952
978.6129, 491.0038
979.0950, 489.5585
979.5771, 488.0176
980.0593, 487.2821
980.5414, 488.3053
981.0235, 489.0958
981.5056, 489.3878
981.9877, 489.6953
982.4698, 490.8646
982.9520, 492.6226
983.4341, 492.9725
983.9162, 491.8033
984.3983, 490.7982
984.8804, 491.4705
985.3625, 492.5014
985.8447, 492.9640
986.3268, 492.8180
986.8089, 492.6070
987.2910, 492.1905
987.7731, 492.1488
988.2552, 492.7642
988.7374, 493.7462
989.2195, 494.8535
989.7016, 495.8213
990.1837, 495.8442
990.6658, 494.0420
991.1479, 492.4762
991.6301, 491.7332
992.1122, 491.8482
992.5944, 493.0191
993.0765, 495.5904
993.5586, 497.1973
994.0407, 497.7726
994.5228, 497.7106
995.0049, 496.9322
995.4871, 495.9451
995.9692, 495.2285
996.4513, 494.8648
996.9334, 495.1799
997.4155, 497.2857
997.8976, 498.8059
998.3798, 499.0171
998.8619, 498.4041
999.3440, 498.0023
999.8261, 497.8200
1000.308, 498.0202
1000.790, 498.7851
1001.272, 499.4605
1001.755, 499.2382
1002.237, 498.7838
1002.719, 498.8783
1003.201, 499.9347
1003.683, 500.4196
1004.165, 500.0202
1004.647, 499.8615
1005.129, 501.0773
1005.612, 503.0287
1006.094, 503.7716
1006.576, 503.5101
1007.058, 503.2256
1007.540, 503.9416
1008.022, 504.1636
1008.504, 502.8048
1008.986, 500.7310
1009.468, 499.3100
1009.951, 498.5694
1010.433, 498.3991
1010.915, 498.8593
1011.397, 499.4903
1011.879, 499.7016
1012.361, 499.8040
1012.843, 500.3627
1013.325, 501.5874
1013.807, 501.9955
1014.290, 500.9404
1014.772, 499.6309
1015.254, 498.4886
1015.736, 497.5357
1016.218, 496.6064
1016.700, 495.8282
1017.182, 495.9878
1017.664, 498.4542
1018.147, 500.6418
1018.629, 500.6932
1019.111, 499.4971
1019.593, 498.3929
1020.075, 497.3773
1020.557, 496.6479
1021.039, 496.2014
1021.521, 496.0900
1022.003, 496.5773
1022.486, 497.3466
1022.968, 498.0588
1023.450, 498.6226
1023.932, 498.3731
1024.414, 496.2108
1024.896, 494.1137
1025.378, 492.3846
1025.860, 491.3232
1026.343, 492.4498
1026.825, 495.5107
1027.307, 497.1093
1027.789, 496.0310
1028.271, 494.1684
1028.753, 492.6974
1029.235, 491.6487
1029.717, 491.0227
1030.199, 490.6850
1030.682, 491.5069
1031.164, 494.0010
1031.646, 496.2382
1032.128, 496.8370
1032.610, 496.3870
1033.092, 496.4966
1033.574, 496.9282
1034.056, 496.8014
1034.539, 494.6811
1035.021, 493.2040
1035.503, 493.1732
1035.985, 494.2324
1036.467, 496.4721
1036.949, 499.9427
1037.431, 501.6884
1037.913, 501.2885
1038.396, 500.0091
1038.878, 498.0404
1039.360, 496.4012
1039.842, 496.2324
1040.324, 497.6343
1040.806, 499.0005
1041.288, 500.7721
1041.770, 501.1136
1042.252, 498.7794
1042.734, 495.5891
1043.217, 495.7773
1043.699, 498.1404
1044.181, 499.4131
1044.663, 498.0381
1045.145, 496.8433
1045.627, 497.3103
1046.109, 498.0622
1046.591, 497.9267
1047.074, 496.8320
1047.556, 496.9131
1048.038, 498.1749
1048.520, 499.4670
1049.002, 500.1925
1049.484, 500.4574
1049.966, 500.1551
1050.448, 499.4691
1050.931, 498.8585
1051.413, 498.0143
1051.895, 498.1449
1052.377, 499.6985
1052.859, 501.4843
1053.341, 501.9253
1053.823, 501.5504
1054.305, 501.6181
1054.787, 502.2757
1055.270, 502.6604
1055.752, 501.7490
1056.234, 501.2139
1056.716, 502.0263
1057.198, 503.6793
1057.680, 503.9974
1058.162, 503.0803
1058.644, 502.5062
1059.126, 502.8011
1059.609, 503.5472
1060.091, 504.6770
1060.573, 505.8714
1061.055, 506.8329
1061.537, 507.7098
1062.019, 507.4286
1062.501, 505.5473
1062.983, 504.1609
1063.466, 505.3648
1063.948, 507.6226
1064.430, 507.7420
1064.912, 506.4452
1065.394, 505.8855
1065.876, 507.9352
1066.358, 509.3393
1066.840, 509.1532
1067.323, 508.5880
1067.805, 509.2905
1068.287, 511.0430
1068.769, 512.3257
1069.251, 513.0120
1069.733, 513.2879
1070.215, 512.9777
1070.697, 512.5522
1071.179, 512.1926
1071.661, 511.9655
1072.144, 512.1788
1072.626, 512.8658
1073.108, 513.8100
1073.590, 515.0611
1074.072, 516.2194
1074.554, 516.7531
1075.036, 516.8932
1075.518, 516.8980
1076.001, 516.7692
1076.483, 516.7483
1076.965, 516.7538
1077.447, 517.1154
1077.929, 518.2850
1078.411, 519.7681
1078.893, 519.7518
1079.375, 518.7574
1079.858, 518.5090
1080.340, 520.5515
1080.822, 522.2339
1081.304, 522.4527
1081.786, 522.0123
1082.268, 521.4650
1082.750, 520.8033
1083.232, 520.3873
1083.714, 520.2222
1084.197, 520.3704
1084.679, 521.3458
1085.161, 522.2276
1085.643, 522.3094
1086.125, 521.7145
1086.607, 520.9443
1087.089, 519.9603
1087.571, 518.8995
1088.054, 517.5920
1088.536, 516.9557
1089.018, 518.8780
1089.500, 521.7613
1089.982, 523.3218
1090.464, 523.2977
1090.946, 522.6025
1091.428, 520.7883
1091.911, 519.3386
1092.393, 518.6554
1092.875, 518.6776
1093.357, 519.8715
1093.839, 521.6602
1094.321, 522.1425
1094.803, 520.4182
1095.285, 518.5559
1095.767, 517.1873
1096.250, 516.3704
1096.732, 516.1902
1097.214, 516.6260
1097.696, 517.3844
1098.178, 518.4307
1098.660, 518.9641
1099.142, 518.0526
1099.624, 517.1025
1100.106, 517.5808
1100.589, 518.5641
1101.071, 518.5134
1101.553, 516.9122
1102.035, 515.8322
1102.517, 515.3381
1102.999, 515.2021
1103.481, 515.5111
1103.963, 515.8839
1104.446, 516.0193
1104.928, 515.7958
1105.410, 514.7333
1105.892, 511.3633
1106.374, 509.5953
1106.856, 510.3738
1107.338, 512.0782
1107.820, 512.5031
1108.302, 512.1349
1108.785, 512.3987
1109.267, 513.4476
1109.749, 513.7335
1110.231, 511.2669
1110.713, 509.5334
1111.195, 510.2313
1111.677, 512.2480
1112.159, 512.4012
1112.641, 510.9603
1113.124, 509.4889
1113.606, 508.2756
1114.088, 507.5197
1114.570, 507.9369
1115.052, 508.3892
1115.534, 507.7996
1116.016, 506.2442
1116.498, 505.5002
1116.981, 505.5840
1117.463, 505.8022
1117.945, 505.9850
1118.427, 505.9487
1118.909, 505.0969
1119.391, 504.0800
1119.873, 503.9192
1120.355, 505.1474
1120.838, 505.8839
1121.320, 506.1012
1121.802, 505.9184
1122.284, 504.9360
1122.766, 503.9114
1123.248, 504.4065
1123.730, 505.8024
1124.212, 506.4206
1124.694, 504.9152
1125.177, 503.8427
1125.659, 503.3577
1126.141, 503.4012
1126.623, 504.3290
1127.105, 505.6457
1127.587, 505.9616
1128.069, 505.3065
1128.551, 504.4726
1129.033, 503.8795
1129.516, 502.9922
1129.998, 501.3358
1130.480, 499.6484
1130.962, 499.4165
1131.444, 500.3207
1131.926, 500.6936
1132.408, 500.2891
1132.890, 499.6685
1133.373, 498.8002
1133.855, 498.2183
1134.337, 498.2312
1134.819, 498.7553
1135.301, 499.7963
1135.783, 501.3102
1136.265, 501.9669
1136.747, 501.2201
1137.229, 500.3786
1137.712, 500.9380
1138.194, 501.6342
1138.676, 500.9622
1139.158, 498.9105
1139.640, 498.3467
1140.122, 499.3694
1140.604, 501.0117
1141.086, 503.5172
1141.569, 505.3133
1142.051, 503.7657
1142.533, 500.8671
1143.015, 499.3805
1143.497, 500.2511
1143.979, 500.6580
1144.461, 500.4805
1144.943, 500.2926
1145.426, 500.4786
1145.908, 500.8307
1146.390, 501.0627
1146.872, 501.1909
1147.354, 501.2563
1147.836, 500.8804
1148.318, 501.2059
1148.800, 502.7087
1149.282, 503.8570
1149.765, 502.8343
1150.247, 500.7138
1150.729, 499.8874
1151.211, 500.1911
1151.693, 500.6707
1152.175, 501.2777
1152.657, 501.5878
1153.139, 501.4893
1153.621, 501.1794
1154.104, 500.6403
1154.586, 500.1006
1155.068, 500.7847
1155.550, 502.5731
1156.032, 503.3375
1156.514, 500.2661
1156.996, 498.2631
1157.478, 499.2388
1157.961, 501.6786
1158.443, 503.0861
1158.925, 503.5497
1159.407, 503.4380
1159.889, 502.7826
1160.371, 502.1499
1160.853, 501.6738
1161.335, 501.5439
1161.818, 501.8813
1162.300, 502.5941
1162.782, 503.8140
1163.264, 505.3985
1163.746, 505.4204
1164.228, 503.1508
1164.710, 501.2007
1165.192, 501.6864
1165.674, 503.0602
1166.156, 504.6271
1166.639, 506.1376
1167.121, 505.5931
1167.603, 503.0183
1168.085, 501.4273
1168.567, 502.0077
1169.049, 503.1542
1169.531, 503.8945
1170.013, 504.2410
1170.496, 504.0429
1170.978, 503.3060
1171.460, 503.1312
1171.942, 503.5545
1172.424, 503.7746
1172.906, 503.2690
1173.388, 502.6936
1173.870, 502.9439
1174.353, 503.4027
1174.835, 503.0703
1175.317, 501.5679
1175.799, 501.4555
1176.281, 502.9570
1176.763, 504.0656
1177.245, 503.2351
1177.727, 501.8965
1178.209, 501.6766
1178.692, 502.0910
1179.174, 502.3141
1179.656, 502.1548
1180.138, 502.0722
1180.620, 502.0994
1181.102, 502.0075
1181.584, 501.3273
1182.066, 500.6599
1182.548, 501.1278
1183.031, 502.1613
1183.513, 502.3394
1183.995, 500.5811
1184.477, 500.1935
1184.959, 501.6971
1185.441, 503.0734
1185.923, 502.0811
1186.405, 500.2005
1186.888, 499.2673
1187.370, 499.2448
1187.852, 499.8657
1188.334, 501.6460
1188.816, 502.8454
1189.298, 503.2776
1189.780, 503.1817
1190.262, 502.3491
1190.745, 501.3985
1191.227, 501.4925
1191.709, 502.4434
1192.191, 502.9328
1192.673, 502.3306
1193.155, 502.0064
1193.637, 502.2364
1194.119, 502.5364
1194.601, 502.3021
1195.084, 501.7693
1195.566, 501.1393
1196.048, 500.4950
1196.530, 500.4829
1197.012, 501.8618
1197.494, 502.4703
1197.976, 501.6191
1198.458, 500.5233
1198.941, 501.2661
1199.423, 502.7824
1199.905, 503.0252
1200.387, 501.8251
1200.869, 501.3363
1201.351, 502.4202
1201.833, 503.3255
1202.315, 503.6383
1202.797, 503.5645
1203.280, 503.0867
1203.762, 502.6001
1204.244, 503.0606
1204.726, 504.6844
1205.208, 505.3749
1205.690, 504.2216
1206.172, 503.2672
1206.654, 503.0342
1207.136, 503.4593
1207.619, 504.8934
1208.101, 506.7176
1208.583, 507.9020
1209.065, 508.2534
1209.547, 507.8888
1210.029, 506.1754
1210.511, 505.2661
1210.993, 506.1829
1211.476, 507.8970
1211.958, 508.4674
1212.440, 508.4916
1212.922, 509.3143
1213.404, 509.0962
1213.886, 512.0188
1214.368, 508.9937
1214.850, 506.5940
1215.333, 506.7104
1215.815, 508.0617
1216.297, 508.4810
1216.779, 508.3647
1217.261, 508.4773
1217.743, 509.1435
1218.225, 509.2863
1218.707, 508.4522
1219.189, 508.1159
1219.672, 509.1797
1220.154, 510.8666
1220.636, 511.9881
1221.118, 512.6144
1221.600, 512.8181
1222.082, 512.4174
1222.564, 512.2344
1223.046, 512.4569
1223.528, 512.3969
1224.011, 511.3090
1224.493, 510.1925
1224.975, 511.2310
1225.457, 513.3203
1225.939, 514.4980
1226.421, 513.8262
1226.903, 513.5634
1227.385, 513.7637
1227.868, 514.2899
1228.350, 515.5167
1228.832, 516.5148
1229.314, 515.1461
1229.796, 512.7744
1230.278, 511.8175
1230.760, 513.4174
1231.242, 514.5582
1231.724, 515.2739
1232.207, 515.3719
1232.689, 514.2226
1233.171, 512.9419
1233.653, 513.1965
1234.135, 514.2459
1234.617, 514.8476
1235.099, 514.7893
1235.581, 514.4830
1236.063, 513.9055
1236.546, 513.3013
1237.028, 512.6327
1237.510, 512.2286
1237.992, 512.9070
1238.474, 513.9053
1238.956, 513.8369
1239.438, 512.3036
1239.920, 511.1317
1240.403, 510.3165
1240.885, 510.1216
1241.367, 511.1153
1241.849, 512.3849
1242.331, 513.4286
1242.813, 514.0590
1243.295, 514.0163
1243.777, 513.2552
1244.260, 511.7422
1244.742, 509.4555
1245.224, 508.1094
1245.706, 509.7101
1246.188, 511.5841
1246.670, 511.8136
1247.152, 511.2935
1247.634, 511.3909
1248.116, 512.2139
1248.599, 512.0806
1249.081, 511.0462
1249.563, 509.9661
1250.045, 509.2733
1250.527, 508.7763
1251.009, 508.1817
1251.491, 507.8953
1251.973, 508.5436
1252.455, 510.0539
1252.938, 510.6511
1253.420, 510.4239
1253.902, 510.2599
1254.384, 510.8591
1254.866, 511.3440
1255.348, 511.7847
1255.830, 511.5897
1256.313, 509.5379
1256.795, 506.2080
1257.277, 505.7238
1257.759, 507.5545
1258.241, 508.8341
1258.723, 507.2655
1259.205, 506.4301
1259.687, 507.3003
1260.169, 508.6157
1260.651, 509.4250
1261.134, 509.7580
1261.616, 509.4798
1262.098, 508.7894
1262.580, 508.3730
1263.062, 509.5956
1263.544, 509.1070
1264.026, 505.8392
1264.508, 502.7308
1264.991, 502.6567
1265.473, 504.2261
1265.955, 504.7968
1266.437, 504.7555
1266.919, 505.2002
1267.401, 507.1153
1267.883, 508.2066
1268.365, 508.3351
1268.848, 508.0986
1269.330, 507.7824
1269.812, 507.5059
1270.294, 507.4761
1270.776, 507.5875
1271.258, 507.5768
1271.740, 507.7684
1272.222, 507.4112
1272.704, 508.1414
1273.187, 508.7686
1273.669, 508.9162
1274.151, 508.6665
1274.633, 507.6905
1275.115, 506.5486
1275.597, 506.1773
1276.079, 506.7628
1276.561, 506.7609
1277.043, 506.1990
1277.526, 506.0335
1278.008, 506.9809
1278.490, 508.3629
1278.972, 510.9184
1279.454, 512.8220
1279.936, 511.5616
1280.418, 507.3473
1280.900, 506.4037
1281.383, 508.2717
1281.865, 509.9689
1282.347, 509.7696
1282.829, 509.5285
1283.311, 510.2726
1283.793, 510.6646
1284.275, 509.0547
1284.757, 506.3066
1285.240, 506.5320
1285.722, 508.8503
1286.204, 510.3998
1286.686, 509.7662
1287.168, 508.7582
1287.650, 507.2277
1288.132, 506.3024
1288.614, 507.2028
1289.096, 508.9367
1289.578, 509.3445
1290.061, 509.0304
1290.543, 509.2984
1291.025, 511.1772
1291.507, 511.6825
1291.989, 510.5098
1292.471, 509.3623
1292.953, 509.4370
1293.435, 509.7483
1293.918, 508.7837
1294.400, 507.4477
1294.882, 507.1720
1295.364, 508.1119
1295.846, 509.0825
1296.328, 510.1061
1296.810, 510.4947
1297.292, 509.4974
1297.775, 508.4406
1298.257, 508.6751
1298.739, 507.9162
1299.221, 508.7906
1299.703, 507.7020
1300.185, 507.5218
1300.667, 508.0891
1301.149, 508.3517
1301.631, 507.6737
1302.114, 507.0727
1302.596, 507.4449
##END=



