##NAMES=Dussertite
##RRUFFID=R070486
##IDEAL CHEMISTRY=BaFe^3+^_3_(As^5+^O_4_)(As^5+^O_3_OH)(OH)_6_
##LOCALITY=Clara mine, Rankach Valley, Oberwolfach, Wolfach, Black Forest, Baden-WÃ¼rttemberg, Germany
##OWNER=RRUFF
##SOURCE=Bob Jenkins
##DESCRIPTION=Light green hexagonal plates lining vug associated with quartz and pharmacosiderite
##STATUS=The identification of this mineral has been confirmed by single-crystal X-ray diffraction.
##URL=rruff.info/R070486
119.9530, 2340.433
120.4351, 2481.205
120.9172, 2615.714
121.3994, 2751.038
121.8815, 2899.685
122.3636, 3054.310
122.8457, 3237.728
123.3278, 3468.182
123.8099, 3717.547
124.2921, 3951.472
124.7742, 4155.978
125.2563, 4349.231
125.7384, 4585.900
126.2205, 4868.848
126.7026, 5197.132
127.1848, 5567.448
127.6669, 5983.470
128.1490, 6447.554
128.6311, 6963.924
129.1132, 7527.741
129.5953, 8135.297
130.0775, 8753.619
130.5596, 9443.666
131.0417, 10266.00
131.5238, 11166.44
132.0059, 12072.38
132.4880, 12979.85
132.9702, 13830.73
133.4523, 14369.48
133.9344, 14622.50
134.4165, 14619.29
134.8986, 14311.11
135.3807, 13739.48
135.8629, 13020.27
136.3450, 12175.45
136.8271, 11242.01
137.3092, 10385.46
137.7913, 9583.780
138.2734, 8861.329
138.7556, 8237.402
139.2377, 7707.042
139.7198, 7257.927
140.2019, 6891.574
140.6840, 6606.868
141.1661, 6366.749
141.6483, 6172.459
142.1304, 6019.524
142.6125, 5910.309
143.0946, 5844.831
143.5767, 5803.225
144.0588, 5783.162
144.5410, 5779.377
145.0231, 5780.542
145.5052, 5781.782
145.9873, 5790.593
146.4694, 5821.987
146.9515, 5879.971
147.4337, 5929.748
147.9158, 5945.364
148.3979, 5942.101
148.8800, 5938.732
149.3621, 5942.612
149.8442, 5946.045
150.3264, 5935.112
150.8085, 5905.020
151.2906, 5878.261
151.7727, 5874.070
152.2548, 5877.491
152.7369, 5869.646
153.2191, 5839.063
153.7012, 5798.528
154.1833, 5770.826
154.6654, 5756.125
155.1475, 5754.774
155.6296, 5771.225
156.1118, 5798.311
156.5939, 5827.497
157.0760, 5853.681
157.5581, 5881.698
158.0402, 5923.042
158.5223, 5978.614
159.0045, 6047.410
159.4866, 6135.638
159.9687, 6233.057
160.4508, 6323.530
160.9329, 6381.031
161.4150, 6405.792
161.8972, 6437.842
162.3793, 6476.975
162.8614, 6525.005
163.3435, 6579.324
163.8256, 6641.854
164.3077, 6717.064
164.7899, 6809.941
165.2720, 6913.040
165.7541, 6996.461
166.2362, 7032.965
166.7183, 7094.002
167.2004, 7196.564
167.6826, 7327.926
168.1647, 7474.282
168.6468, 7628.796
169.1289, 7791.303
169.6110, 7957.797
170.0931, 8093.478
170.5753, 8285.541
171.0574, 8549.549
171.5395, 8872.448
172.0216, 9236.976
172.5037, 9635.621
172.9858, 10067.43
173.4680, 10535.27
173.9501, 11034.33
174.4322, 11576.77
174.9143, 12168.68
175.3964, 12798.50
175.8785, 13462.25
176.3607, 14151.55
176.8428, 14868.74
177.3249, 15611.95
177.8070, 16382.99
178.2891, 17179.22
178.7712, 17995.00
179.2534, 18834.21
179.7355, 19712.20
180.2176, 20634.02
180.6997, 21590.38
181.1818, 22546.75
181.6639, 23472.79
182.1461, 24442.16
182.6282, 25451.17
183.1103, 26508.93
183.5924, 27618.23
184.0745, 28777.01
184.5566, 30005.08
185.0388, 31336.64
185.5209, 32864.03
186.0030, 34408.59
186.4851, 35931.79
186.9672, 37472.58
187.4493, 39084.20
187.9315, 40784.91
188.4136, 42534.45
188.8957, 44198.23
189.3778, 45849.16
189.8599, 47325.04
190.3420, 48640.20
190.8242, 49766.88
191.3063, 50673.71
191.7884, 51350.25
192.2705, 51788.39
192.7526, 51966.51
193.2347, 51945.81
193.7169, 51548.45
194.1990, 50659.62
194.6811, 49441.23
195.1632, 48047.93
195.6453, 46525.78
196.1274, 44882.43
196.6096, 43107.84
197.0917, 41082.50
197.5738, 39093.78
198.0559, 37131.04
198.5380, 35213.61
199.0201, 33348.45
199.5023, 31546.72
199.9844, 29819.48
200.4665, 28191.09
200.9486, 26672.27
201.4307, 25252.77
201.9128, 23920.60
202.3950, 22688.82
202.8771, 21569.23
203.3592, 20561.45
203.8413, 19644.32
204.3234, 18785.59
204.8055, 17984.95
205.2877, 17270.44
205.7698, 16671.25
206.2519, 16131.84
206.7340, 15602.51
207.2161, 15073.66
207.6982, 14572.12
208.1804, 14129.45
208.6625, 13763.78
209.1446, 13398.14
209.6267, 13009.33
210.1088, 12635.61
210.5909, 12307.60
211.0731, 12026.94
211.5552, 11778.09
212.0373, 11547.27
212.5194, 11336.65
213.0015, 11138.24
213.4836, 10948.32
213.9658, 10772.17
214.4479, 10622.34
214.9300, 10494.58
215.4121, 10368.24
215.8942, 10223.73
216.3763, 10059.67
216.8584, 9914.743
217.3406, 9792.580
217.8227, 9683.130
218.3048, 9588.546
218.7869, 9504.040
219.2690, 9414.078
219.7511, 9304.129
220.2333, 9176.007
220.7154, 9074.634
221.1975, 9010.171
221.6796, 8955.647
222.1617, 8907.997
222.6438, 8862.507
223.1260, 8806.658
223.6081, 8730.347
224.0902, 8639.425
224.5723, 8570.415
225.0544, 8537.223
225.5365, 8505.445
226.0187, 8463.184
226.5008, 8416.273
226.9829, 8376.691
227.4650, 8350.784
227.9471, 8334.559
228.4292, 8314.902
228.9114, 8280.654
229.3935, 8256.779
229.8756, 8254.391
230.3577, 8262.173
230.8398, 8261.667
231.3219, 8245.065
231.8041, 8225.568
232.2862, 8232.278
232.7683, 8287.544
233.2504, 8336.801
233.7325, 8363.122
234.2146, 8388.792
234.6968, 8440.912
235.1789, 8525.961
235.6610, 8623.806
236.1431, 8704.437
236.6252, 8756.802
237.1073, 8811.914
237.5895, 8866.151
238.0716, 8924.996
238.5537, 8989.654
239.0358, 9061.418
239.5179, 9147.522
240.0000, 9259.397
240.4822, 9410.834
240.9643, 9533.259
241.4464, 9603.651
241.9285, 9669.401
242.4106, 9764.490
242.8927, 9884.695
243.3749, 9997.875
243.8570, 10071.60
244.3391, 10099.52
244.8212, 10165.17
245.3033, 10303.58
245.7854, 10437.89
246.2676, 10537.49
246.7497, 10608.82
247.2318, 10673.91
247.7139, 10747.38
248.1960, 10828.31
248.6781, 10910.20
249.1603, 10985.31
249.6424, 11070.20
250.1245, 11187.14
250.6066, 11311.74
251.0887, 11406.61
251.5708, 11450.69
252.0530, 11457.99
252.5351, 11476.45
253.0172, 11517.75
253.4993, 11555.84
253.9814, 11600.47
254.4635, 11635.82
254.9457, 11642.65
255.4278, 11614.62
255.9099, 11565.26
256.3920, 11521.13
256.8741, 11493.74
257.3563, 11448.86
257.8384, 11374.56
258.3205, 11293.00
258.8026, 11221.34
259.2847, 11162.22
259.7668, 11104.55
260.2490, 11035.94
260.7311, 10958.77
261.2132, 10862.96
261.6953, 10725.46
262.1774, 10590.98
262.6595, 10483.52
263.1417, 10399.75
263.6238, 10317.17
264.1059, 10212.65
264.5880, 10085.54
265.0701, 9976.309
265.5522, 9900.850
266.0344, 9827.621
266.5165, 9739.069
266.9986, 9645.938
267.4807, 9569.831
267.9628, 9526.340
268.4449, 9508.680
268.9271, 9486.407
269.4092, 9441.749
269.8913, 9423.982
270.3734, 9457.997
270.8555, 9517.968
271.3376, 9572.620
271.8198, 9607.423
272.3019, 9637.012
272.7840, 9689.064
273.2661, 9769.853
273.7482, 9852.510
274.2303, 9933.609
274.7125, 10011.53
275.1946, 10080.80
275.6767, 10140.13
276.1588, 10204.54
276.6409, 10297.42
277.1230, 10420.13
277.6052, 10523.99
278.0873, 10585.13
278.5694, 10638.08
279.0515, 10706.26
279.5336, 10789.84
280.0157, 10880.33
280.4979, 10970.98
280.9800, 11063.53
281.4621, 11162.37
281.9442, 11263.69
282.4263, 11381.42
282.9084, 11537.72
283.3906, 11718.59
283.8727, 11885.86
284.3548, 12010.68
284.8369, 12118.74
285.3190, 12255.72
285.8011, 12428.29
286.2833, 12592.31
286.7654, 12712.30
287.2475, 12807.95
287.7296, 12918.03
288.2117, 13052.38
288.6938, 13196.41
289.1760, 13348.22
289.6581, 13504.87
290.1402, 13640.61
290.6223, 13737.66
291.1044, 13813.77
291.5865, 13908.01
292.0687, 14031.84
292.5508, 14142.19
293.0329, 14217.07
293.5150, 14266.41
293.9971, 14309.12
294.4792, 14350.62
294.9614, 14384.90
295.4435, 14403.44
295.9256, 14406.27
296.4077, 14395.22
296.8898, 14374.66
297.3719, 14337.56
297.8541, 14269.64
298.3362, 14171.72
298.8183, 14071.19
299.3004, 13994.20
299.7825, 13942.69
300.2646, 13865.57
300.7468, 13754.80
301.2289, 13629.74
301.7110, 13497.02
302.1931, 13357.09
302.6752, 13209.52
303.1573, 13052.15
303.6395, 12888.14
304.1216, 12732.71
304.6037, 12598.38
305.0858, 12457.00
305.5679, 12308.94
306.0500, 12150.10
306.5322, 11974.95
307.0143, 11781.52
307.4964, 11575.60
307.9785, 11367.37
308.4606, 11146.36
308.9427, 10941.70
309.4249, 10760.35
309.9070, 10586.14
310.3891, 10413.03
310.8712, 10236.98
311.3533, 10055.90
311.8354, 9867.595
312.3176, 9671.250
312.7997, 9468.304
313.2818, 9241.104
313.7639, 9025.627
314.2460, 8835.951
314.7281, 8665.951
315.2103, 8504.460
315.6924, 8346.212
316.1745, 8190.882
316.6566, 8037.040
317.1387, 7889.527
317.6208, 7734.917
318.1030, 7553.202
318.5851, 7371.355
319.0672, 7218.188
319.5493, 7102.517
320.0314, 6998.664
320.5135, 6871.397
320.9957, 6719.981
321.4778, 6589.462
321.9599, 6501.807
322.4420, 6424.968
322.9241, 6330.673
323.4063, 6220.756
323.8884, 6116.872
324.3705, 6032.323
324.8526, 5962.585
325.3347, 5897.093
325.8168, 5835.804
326.2990, 5776.278
326.7811, 5717.773
327.2632, 5659.584
327.7453, 5600.627
328.2274, 5534.943
328.7095, 5472.771
329.1917, 5424.674
329.6738, 5389.011
330.1559, 5357.017
330.6380, 5324.975
331.1201, 5293.646
331.6022, 5263.710
332.0844, 5231.335
332.5665, 5207.354
333.0486, 5205.234
333.5307, 5210.667
334.0128, 5198.880
334.4949, 5163.276
334.9771, 5122.715
335.4592, 5101.776
335.9413, 5106.104
336.4234, 5113.957
336.9055, 5129.772
337.3876, 5145.354
337.8698, 5156.619
338.3519, 5162.938
338.8340, 5164.002
339.3161, 5158.917
339.7982, 5148.396
340.2803, 5140.427
340.7624, 5141.327
341.2445, 5137.376
341.7267, 5124.964
342.2088, 5106.847
342.6909, 5085.917
343.1730, 5063.352
343.6551, 5039.347
344.1372, 5013.101
344.6194, 4981.489
345.1015, 4956.083
345.5836, 4933.004
346.0657, 4919.514
346.5478, 4924.782
347.0299, 4946.142
347.5121, 4969.029
347.9942, 4980.896
348.4763, 4982.841
348.9584, 4985.770
349.4405, 4990.054
349.9226, 4994.934
350.4048, 4991.705
350.8869, 4990.348
351.3690, 5009.388
351.8511, 5063.022
352.3332, 5128.238
352.8153, 5174.924
353.2975, 5202.634
353.7796, 5224.251
354.2617, 5234.319
354.7438, 5249.245
355.2259, 5291.517
355.7080, 5365.633
356.1902, 5440.562
356.6723, 5500.210
357.1544, 5550.477
357.6365, 5606.793
358.1186, 5673.529
358.6007, 5731.580
359.0829, 5760.128
359.5650, 5758.216
360.0471, 5758.494
360.5292, 5760.715
361.0113, 5766.623
361.4934, 5777.392
361.9756, 5792.794
362.4577, 5812.458
362.9398, 5836.555
363.4219, 5863.943
363.9040, 5890.854
364.3861, 5914.359
364.8683, 5941.409
365.3504, 5971.268
365.8325, 6005.624
366.3146, 6046.951
366.7967, 6095.311
367.2788, 6147.409
367.7610, 6200.522
368.2431, 6255.910
368.7252, 6303.822
369.2073, 6347.528
369.6894, 6380.427
370.1715, 6403.780
370.6537, 6413.950
371.1358, 6404.207
371.6179, 6369.858
372.1000, 6315.014
372.5821, 6249.123
373.0642, 6168.967
373.5464, 6086.688
374.0285, 6010.620
374.5106, 5930.661
374.9927, 5837.711
375.4748, 5730.582
375.9569, 5617.061
376.4391, 5499.300
376.9212, 5379.438
377.4033, 5265.977
377.8854, 5156.618
378.3675, 5060.891
378.8496, 4989.387
379.3318, 4938.090
379.8139, 4901.015
380.2960, 4874.762
380.7781, 4863.701
381.2602, 4877.156
381.7423, 4911.798
382.2245, 4947.637
382.7066, 4973.598
383.1887, 4996.909
383.6708, 5037.093
384.1529, 5090.823
384.6350, 5163.316
385.1172, 5265.573
385.5993, 5382.038
386.0814, 5495.022
386.5635, 5602.417
387.0456, 5714.426
387.5277, 5840.499
388.0099, 5980.442
388.4920, 6143.105
388.9741, 6342.075
389.4562, 6546.373
389.9383, 6745.939
390.4204, 6944.602
390.9026, 7151.218
391.3847, 7369.397
391.8668, 7593.540
392.3489, 7804.264
392.8310, 7986.440
393.3131, 8200.719
393.7953, 8487.048
394.2774, 8783.071
394.7595, 9048.267
395.2416, 9283.493
395.7237, 9526.000
396.2058, 9809.282
396.6880, 10121.45
397.1701, 10421.17
397.6522, 10708.24
398.1343, 10981.49
398.6164, 11233.43
399.0985, 11473.13
399.5807, 11718.89
400.0628, 11980.19
400.5449, 12236.67
401.0270, 12477.98
401.5091, 12703.64
401.9912, 12913.68
402.4734, 13108.26
402.9555, 13283.30
403.4376, 13432.37
403.9197, 13555.74
404.4018, 13646.93
404.8839, 13698.33
405.3661, 13722.41
405.8482, 13729.14
406.3303, 13716.52
406.8124, 13675.64
407.2945, 13600.51
407.7766, 13493.27
408.2588, 13363.56
408.7409, 13213.75
409.2230, 13034.73
409.7051, 12813.91
410.1872, 12573.23
410.6693, 12327.75
411.1515, 12082.04
411.6336, 11837.37
412.1157, 11598.04
412.5978, 11364.03
413.0799, 11116.78
413.5620, 10847.31
414.0442, 10576.15
414.5263, 10310.39
415.0084, 10050.01
415.4905, 9791.199
415.9726, 9531.269
416.4547, 9278.343
416.9369, 9040.935
417.4190, 8819.341
417.9011, 8612.201
418.3832, 8421.086
418.8653, 8242.007
419.3474, 8069.585
419.8296, 7903.734
420.3117, 7743.357
420.7938, 7588.394
421.2759, 7438.985
421.7580, 7291.805
422.2401, 7148.589
422.7223, 7018.427
423.2044, 6908.816
423.6865, 6815.404
424.1686, 6715.766
424.6507, 6596.311
425.1328, 6488.104
425.6150, 6400.501
426.0971, 6321.831
426.5792, 6238.011
427.0613, 6147.633
427.5434, 6063.510
428.0255, 6002.154
428.5077, 5965.480
428.9898, 5913.586
429.4719, 5822.292
429.9540, 5747.125
430.4361, 5725.307
430.9182, 5724.670
431.4004, 5694.234
431.8825, 5610.157
432.3646, 5511.705
432.8467, 5449.111
433.3288, 5420.835
433.8109, 5391.049
434.2931, 5349.451
434.7752, 5307.854
435.2573, 5281.418
435.7394, 5267.981
436.2215, 5249.747
436.7036, 5221.145
437.1858, 5186.803
437.6679, 5146.960
438.1500, 5103.869
438.6321, 5066.948
439.1142, 5041.165
439.5963, 5024.569
440.0785, 5012.520
440.5606, 5013.803
441.0427, 5006.265
441.5248, 4978.886
442.0069, 4949.834
442.4890, 4932.337
442.9712, 4927.664
443.4533, 4931.164
443.9354, 4939.713
444.4175, 4952.814
444.8996, 4966.710
445.3817, 4984.535
445.8639, 4997.419
446.3460, 4996.684
446.8281, 4993.808
447.3102, 4998.847
447.7923, 5014.042
448.2744, 5039.789
448.7566, 5082.337
449.2387, 5137.136
449.7208, 5182.419
450.2029, 5212.169
450.6850, 5242.041
451.1671, 5280.121
451.6493, 5328.024
452.1314, 5391.667
452.6135, 5481.248
453.0956, 5577.434
453.5777, 5664.649
454.0598, 5751.138
454.5420, 5855.939
455.0241, 5985.591
455.5062, 6127.213
455.9883, 6263.851
456.4704, 6391.663
456.9525, 6525.159
457.4347, 6641.175
457.9168, 6784.668
458.3989, 6989.405
458.8810, 7234.503
459.3631, 7479.913
459.8452, 7703.868
460.3274, 7918.252
460.8095, 8142.994
461.2916, 8380.128
461.7737, 8626.567
462.2558, 8881.350
462.7379, 9146.700
463.2201, 9420.570
463.7022, 9704.686
464.1843, 10001.92
464.6664, 10327.68
465.1485, 10660.45
465.6306, 10963.44
466.1128, 11237.89
466.5949, 11514.74
467.0770, 11800.97
467.5591, 12102.46
468.0412, 12437.73
468.5233, 12826.14
469.0055, 13191.48
469.4876, 13521.51
469.9697, 13822.04
470.4518, 14098.24
470.9339, 14348.87
471.4160, 14572.68
471.8982, 14769.81
472.3803, 14937.29
472.8624, 15059.54
473.3445, 15148.34
473.8266, 15166.84
474.3087, 15122.29
474.7909, 15008.13
475.2730, 14809.74
475.7551, 14529.96
476.2372, 14198.99
476.7193, 13832.61
477.2014, 13432.98
477.6836, 13011.10
478.1657, 12565.20
478.6478, 12103.64
479.1299, 11616.95
479.6120, 11121.66
480.0941, 10659.38
480.5763, 10235.74
481.0584, 9829.387
481.5405, 9428.232
482.0226, 9042.573
482.5047, 8694.250
482.9868, 8385.535
483.4690, 8090.855
483.9511, 7787.878
484.4332, 7480.289
484.9153, 7206.541
485.3974, 6990.238
485.8795, 6784.145
486.3617, 6576.367
486.8438, 6378.959
487.3259, 6205.686
487.8080, 6058.487
488.2901, 5922.282
488.7722, 5784.635
489.2544, 5645.396
489.7365, 5500.842
490.2186, 5344.032
490.7007, 5196.172
491.1828, 5069.999
491.6649, 4959.938
492.1471, 4859.707
492.6292, 4772.901
493.1113, 4685.068
493.5934, 4582.049
494.0755, 4473.661
494.5576, 4379.939
495.0398, 4303.830
495.5219, 4230.914
496.0040, 4148.193
496.4861, 4055.974
496.9682, 3973.538
497.4503, 3909.394
497.9325, 3843.322
498.4146, 3762.782
498.8967, 3682.542
499.3788, 3621.503
499.8609, 3582.049
500.3430, 3547.800
500.8252, 3501.389
501.3073, 3443.339
501.7894, 3383.482
502.2715, 3316.864
502.7536, 3259.075
503.2357, 3223.574
503.7179, 3199.272
504.2000, 3173.134
504.6821, 3142.785
505.1642, 3111.390
505.6463, 3078.562
506.1284, 3046.678
506.6106, 3020.372
507.0927, 3000.383
507.5748, 2982.958
508.0569, 2965.583
508.5390, 2948.181
509.0211, 2929.414
509.5033, 2905.064
509.9854, 2884.752
510.4675, 2876.012
510.9496, 2868.351
511.4317, 2848.979
511.9138, 2817.446
512.3960, 2786.030
512.8781, 2766.023
513.3602, 2756.387
513.8423, 2751.416
514.3245, 2755.028
514.8066, 2753.536
515.2887, 2732.063
515.7708, 2707.094
516.2529, 2699.996
516.7350, 2716.378
517.2172, 2728.628
517.6993, 2715.415
518.1814, 2693.064
518.6635, 2687.282
519.1456, 2699.020
519.6277, 2710.561
520.1099, 2709.875
520.5920, 2700.139
521.0741, 2694.194
521.5562, 2688.187
522.0383, 2691.857
522.5204, 2718.392
523.0026, 2744.892
523.4847, 2751.443
523.9668, 2740.004
524.4489, 2727.302
524.9310, 2723.178
525.4131, 2728.333
525.8953, 2749.086
526.3774, 2790.207
526.8595, 2821.216
527.3416, 2826.801
527.8237, 2822.995
528.3058, 2827.409
528.7880, 2840.069
529.2701, 2857.411
529.7522, 2879.884
530.2343, 2905.304
530.7164, 2932.073
531.1985, 2960.096
531.6807, 2991.387
532.1628, 3027.457
532.6449, 3062.800
533.1270, 3084.518
533.6091, 3079.176
534.0912, 3092.591
534.5734, 3142.307
535.0555, 3191.731
535.5376, 3223.045
536.0197, 3241.788
536.5018, 3259.904
536.9839, 3281.563
537.4661, 3309.014
537.9482, 3347.722
538.4303, 3396.652
538.9124, 3444.611
539.3945, 3489.621
539.8766, 3532.945
540.3588, 3575.195
540.8409, 3616.499
541.3230, 3659.957
541.8051, 3707.993
542.2872, 3755.414
542.7693, 3795.035
543.2515, 3834.601
543.7336, 3885.239
544.2157, 3949.566
544.6978, 4023.313
545.1799, 4104.564
545.6620, 4193.268
546.1442, 4265.348
546.6263, 4302.142
547.1084, 4352.974
547.5905, 4442.554
548.0726, 4547.356
548.5547, 4645.664
549.0369, 4733.851
549.5190, 4812.097
550.0011, 4872.910
550.4832, 4926.574
550.9653, 4992.192
551.4474, 5070.242
551.9296, 5151.814
552.4117, 5231.264
552.8938, 5310.007
553.3759, 5393.014
553.8580, 5490.462
554.3401, 5574.984
554.8223, 5631.454
555.3044, 5687.519
555.7865, 5772.287
556.2686, 5872.215
556.7507, 5948.075
557.2328, 5974.044
557.7150, 5974.023
558.1971, 5993.361
558.6792, 6033.434
559.1613, 6071.281
559.6434, 6105.583
560.1255, 6132.293
560.6077, 6151.528
561.0898, 6161.668
561.5719, 6150.432
562.0540, 6093.252
562.5361, 6038.223
563.0182, 6018.570
563.5004, 6016.222
563.9825, 6001.561
564.4646, 5967.211
564.9467, 5923.714
565.4288, 5883.643
565.9109, 5846.906
566.3931, 5797.321
566.8752, 5733.476
567.3573, 5658.070
567.8394, 5561.104
568.3215, 5460.832
568.8036, 5378.946
569.2858, 5317.973
569.7679, 5251.488
570.2500, 5150.631
570.7321, 5040.045
571.2142, 4967.326
571.6964, 4930.306
572.1785, 4882.170
572.6606, 4798.583
573.1427, 4694.217
573.6248, 4597.353
574.1069, 4512.588
574.5891, 4426.029
575.0712, 4336.156
575.5533, 4246.017
576.0354, 4151.998
576.5175, 4059.863
576.9996, 3982.597
577.4818, 3927.313
577.9639, 3876.610
578.4460, 3803.373
578.9281, 3710.358
579.4102, 3630.040
579.8923, 3569.631
580.3745, 3510.742
580.8566, 3439.094
581.3387, 3358.609
581.8208, 3286.268
582.3029, 3226.714
582.7850, 3167.632
583.2672, 3100.345
583.7493, 3034.630
584.2314, 2985.125
584.7135, 2949.185
585.1956, 2909.259
585.6777, 2851.126
586.1598, 2782.138
586.6419, 2728.567
587.1240, 2695.033
587.6061, 2660.615
588.0883, 2622.647
588.5704, 2581.093
589.0525, 2532.351
589.5346, 2479.161
590.0167, 2433.775
590.4988, 2404.775
590.9810, 2380.453
591.4631, 2356.162
591.9452, 2329.662
592.4273, 2293.149
592.9094, 2245.047
593.3915, 2197.947
593.8737, 2165.906
594.3558, 2148.684
594.8379, 2131.403
595.3200, 2114.025
595.8021, 2096.348
596.2842, 2078.164
596.7664, 2059.719
597.2485, 2040.224
597.7306, 2019.927
598.2127, 2002.088
598.6948, 1992.508
599.1769, 1984.279
599.6591, 1966.799
600.1412, 1941.140
600.6233, 1912.729
601.1054, 1882.458
601.5875, 1856.320
602.0696, 1844.567
602.5518, 1852.121
603.0339, 1851.878
603.5160, 1839.660
603.9981, 1825.222
604.4802, 1808.973
604.9623, 1793.637
605.4445, 1783.037
605.9266, 1778.115
606.4087, 1774.126
606.8908, 1767.390
607.3729, 1758.210
607.8550, 1745.740
608.3372, 1729.564
608.8193, 1719.400
609.3014, 1723.304
609.7835, 1731.827
610.2656, 1725.031
610.7477, 1694.447
611.2299, 1670.777
611.7120, 1654.703
612.1941, 1645.935
612.6762, 1651.129
613.1583, 1661.874
613.6404, 1662.993
614.1226, 1648.466
614.6047, 1628.466
615.0868, 1615.859
615.5689, 1609.446
616.0510, 1598.646
616.5331, 1580.649
617.0153, 1567.727
617.4974, 1568.625
617.9795, 1578.669
618.4616, 1585.923
618.9437, 1590.492
619.4258, 1592.462
619.9080, 1586.035
620.3901, 1581.958
620.8722, 1594.094
621.3543, 1614.904
621.8364, 1623.732
622.3185, 1609.955
622.8007, 1587.883
623.2828, 1581.765
623.7649, 1591.619
624.2470, 1593.657
624.7291, 1583.277
625.2112, 1571.375
625.6934, 1563.659
626.1755, 1559.627
626.6576, 1557.882
627.1397, 1560.574
627.6218, 1560.885
628.1039, 1552.923
628.5861, 1544.933
629.0682, 1546.854
629.5503, 1555.693
630.0324, 1559.226
630.5145, 1550.221
630.9966, 1537.149
631.4788, 1539.139
631.9609, 1558.132
632.4430, 1563.792
632.9251, 1545.917
633.4072, 1528.142
633.8893, 1525.990
634.3715, 1535.261
634.8536, 1547.163
635.3357, 1563.883
635.8178, 1577.466
636.2999, 1584.299
636.7820, 1587.482
637.2642, 1589.214
637.7463, 1590.075
638.2284, 1590.524
638.7105, 1590.799
639.1926, 1590.892
639.6747, 1589.978
640.1569, 1587.520
640.6390, 1590.114
641.1211, 1603.041
641.6032, 1612.957
642.0853, 1604.730
642.5674, 1588.313
643.0496, 1586.542
643.5317, 1608.476
644.0138, 1629.403
644.4959, 1640.121
644.9780, 1646.520
645.4601, 1653.491
645.9423, 1661.527
646.4244, 1669.423
646.9065, 1676.436
647.3886, 1683.648
647.8707, 1694.301
648.3528, 1709.046
648.8350, 1718.765
649.3171, 1720.251
649.7992, 1721.388
650.2813, 1728.317
650.7634, 1738.073
651.2455, 1742.996
651.7277, 1737.213
652.2098, 1739.498
652.6919, 1768.350
653.1740, 1797.627
653.6561, 1798.461
654.1382, 1778.570
654.6204, 1766.087
655.1025, 1775.629
655.5846, 1795.461
656.0667, 1805.503
656.5488, 1805.480
657.0309, 1811.618
657.5131, 1827.337
657.9952, 1843.455
658.4773, 1856.306
658.9594, 1865.400
659.4415, 1868.923
659.9236, 1861.892
660.4058, 1862.995
660.8879, 1879.544
661.3700, 1902.564
661.8521, 1930.260
662.3342, 1958.373
662.8163, 1978.408
663.2985, 1986.825
663.7806, 1990.497
664.2627, 1998.520
664.7448, 2010.337
665.2269, 2020.953
665.7090, 2030.307
666.1912, 2037.577
666.6733, 2041.862
667.1554, 2044.093
667.6375, 2044.776
668.1196, 2040.645
668.6017, 2046.270
669.0839, 2072.834
669.5660, 2099.298
670.0481, 2113.726
670.5302, 2120.463
671.0123, 2126.689
671.4944, 2134.798
671.9766, 2144.541
672.4587, 2156.870
672.9408, 2170.574
673.4229, 2181.044
673.9050, 2188.145
674.3871, 2195.417
674.8693, 2205.088
675.3514, 2213.933
675.8335, 2216.339
676.3156, 2210.092
676.7977, 2208.735
677.2798, 2212.997
677.7620, 2220.872
678.2441, 2231.028
678.7262, 2244.853
679.2083, 2265.331
679.6904, 2292.187
680.1725, 2319.453
680.6547, 2344.690
681.1368, 2366.680
681.6189, 2377.190
682.1010, 2380.440
682.5831, 2403.508
683.0652, 2456.543
683.5474, 2514.166
684.0295, 2547.653
684.5116, 2557.304
684.9937, 2576.802
685.4758, 2611.821
685.9579, 2648.323
686.4401, 2679.816
686.9222, 2715.244
687.4043, 2759.746
687.8864, 2814.298
688.3685, 2880.440
688.8506, 2965.619
689.3328, 3054.428
689.8149, 3130.896
690.2970, 3202.415
690.7791, 3281.953
691.2612, 3371.906
691.7433, 3472.803
692.2255, 3584.762
692.7076, 3707.393
693.1897, 3842.410
693.6718, 3993.757
694.1539, 4143.828
694.6360, 4279.664
695.1182, 4426.795
695.6003, 4609.590
696.0824, 4813.765
696.5645, 5004.161
697.0466, 5160.740
697.5287, 5334.623
698.0109, 5556.591
698.4930, 5797.211
698.9751, 6028.752
699.4572, 6251.347
699.9393, 6475.035
700.4214, 6704.646
700.9036, 6938.978
701.3857, 7179.490
701.8678, 7424.543
702.3499, 7671.577
702.8320, 7925.294
703.3141, 8160.048
703.7963, 8356.004
704.2784, 8534.722
704.7605, 8745.238
705.2426, 9012.525
705.7247, 9218.451
706.2068, 9311.894
706.6890, 9394.135
707.1711, 9520.054
707.6532, 9657.590
708.1353, 9760.766
708.6174, 9820.021
709.0995, 9857.208
709.5817, 9892.501
710.0638, 9916.142
710.5459, 9905.574
711.0280, 9864.948
711.5101, 9821.084
711.9922, 9783.332
712.4744, 9734.833
712.9565, 9656.687
713.4386, 9550.078
713.9207, 9429.971
714.4028, 9273.332
714.8849, 9142.252
715.3671, 9066.741
715.8492, 9001.183
716.3313, 8913.919
716.8134, 8808.000
717.2955, 8701.779
717.7776, 8602.274
718.2598, 8501.182
718.7419, 8383.857
719.2240, 8266.050
719.7061, 8171.317
720.1882, 8099.416
720.6703, 8036.292
721.1525, 7974.787
721.6346, 7908.980
722.1167, 7825.009
722.5988, 7721.876
723.0809, 7623.543
723.5630, 7538.224
724.0452, 7440.079
724.5273, 7302.913
725.0094, 7150.295
725.4915, 7037.318
725.9736, 6980.345
726.4557, 6905.094
726.9379, 6796.844
727.4200, 6677.877
727.9021, 6556.029
728.3842, 6433.041
728.8663, 6308.331
729.3484, 6182.493
729.8306, 6056.158
730.3127, 5929.808
730.7948, 5803.295
731.2769, 5675.854
731.7590, 5547.542
732.2411, 5422.287
732.7233, 5301.425
733.2054, 5179.645
733.6875, 5049.665
734.1696, 4913.198
734.6517, 4782.139
735.1339, 4655.969
735.6160, 4536.168
736.0981, 4423.857
736.5802, 4316.004
737.0623, 4210.828
737.5444, 4108.922
738.0266, 4011.346
738.5087, 3916.645
738.9908, 3829.276
739.4729, 3757.656
739.9550, 3690.152
740.4371, 3616.365
740.9193, 3535.373
741.4014, 3448.344
741.8835, 3355.484
742.3656, 3263.130
742.8477, 3178.957
743.3298, 3103.037
743.8120, 3036.525
744.2941, 2980.571
744.7762, 2924.251
745.2583, 2862.802
745.7404, 2799.169
746.2225, 2737.590
746.7047, 2678.933
747.1868, 2619.393
747.6689, 2546.249
748.1510, 2488.590
748.6331, 2467.142
749.1152, 2454.099
749.5974, 2420.157
750.0795, 2366.446
750.5616, 2319.821
751.0437, 2296.154
751.5258, 2278.708
752.0079, 2257.577
752.4901, 2232.373
752.9722, 2200.361
753.4543, 2162.714
753.9364, 2125.788
754.4185, 2093.814
754.9006, 2066.983
755.3828, 2048.563
755.8649, 2039.079
756.3470, 2021.109
756.8291, 1991.981
757.3112, 1956.938
757.7933, 1913.316
758.2755, 1870.002
758.7576, 1847.618
759.2397, 1855.557
759.7218, 1857.238
760.2039, 1846.114
760.6860, 1835.816
761.1682, 1832.060
761.6503, 1831.695
762.1324, 1833.145
762.6145, 1834.995
763.0966, 1829.723
763.5787, 1799.053
764.0609, 1771.085
764.5430, 1783.979
765.0251, 1820.108
765.5072, 1839.512
765.9893, 1835.519
766.4714, 1827.848
766.9536, 1831.379
767.4357, 1843.179
767.9178, 1855.847
768.3999, 1869.581
768.8820, 1881.776
769.3641, 1890.234
769.8463, 1902.247
770.3284, 1924.080
770.8105, 1951.649
771.2926, 1974.418
771.7747, 1989.756
772.2568, 2007.478
772.7390, 2029.187
773.2211, 2051.938
773.7032, 2074.185
774.1853, 2096.637
774.6674, 2119.623
775.1495, 2143.337
775.6317, 2170.204
776.1138, 2203.950
776.5959, 2239.405
777.0780, 2267.645
777.5601, 2294.177
778.0422, 2333.781
778.5244, 2387.824
779.0065, 2442.402
779.4886, 2486.832
779.9707, 2524.363
780.4528, 2562.570
780.9349, 2601.563
781.4171, 2645.026
781.8992, 2694.737
782.3813, 2744.514
782.8634, 2790.105
783.3455, 2833.484
783.8276, 2878.767
784.3098, 2926.808
784.7919, 2974.494
785.2740, 3016.909
785.7561, 3064.653
786.2382, 3124.557
786.7203, 3189.799
787.2025, 3252.772
787.6846, 3312.530
788.1667, 3373.584
788.6488, 3439.398
789.1309, 3505.369
789.6130, 3569.833
790.0952, 3630.696
790.5773, 3678.500
791.0594, 3716.631
791.5415, 3766.604
792.0236, 3843.265
792.5057, 3935.918
792.9879, 4026.044
793.4700, 4114.068
793.9521, 4202.979
794.4342, 4294.479
794.9163, 4372.591
795.3984, 4424.917
795.8806, 4468.027
796.3627, 4532.367
796.8448, 4624.279
797.3269, 4702.657
797.8090, 4756.731
798.2911, 4811.702
798.7733, 4875.027
799.2554, 4940.276
799.7375, 5002.810
800.2196, 5062.391
800.7017, 5119.825
801.1838, 5172.599
801.6660, 5226.487
802.1481, 5286.870
802.6302, 5347.179
803.1123, 5395.690
803.5944, 5437.971
804.0765, 5495.257
804.5587, 5578.675
805.0408, 5660.519
805.5229, 5702.917
806.0050, 5722.813
806.4871, 5762.833
806.9692, 5821.608
807.4514, 5874.317
807.9335, 5911.724
808.4156, 5941.029
808.8977, 5968.700
809.3798, 5995.711
809.8619, 6033.173
810.3441, 6084.791
810.8262, 6134.398
811.3083, 6180.456
811.7904, 6220.934
812.2725, 6251.477
812.7546, 6274.894
813.2368, 6301.621
813.7189, 6321.905
814.2010, 6363.840
814.6831, 6455.513
815.1652, 6542.221
815.6473, 6590.669
816.1295, 6617.561
816.6116, 6643.580
817.0937, 6673.816
817.5758, 6723.073
818.0579, 6816.616
818.5400, 6916.552
819.0222, 6988.279
819.5043, 7041.785
819.9864, 7092.711
820.4685, 7145.117
820.9506, 7201.364
821.4327, 7263.539
821.9149, 7327.797
822.3970, 7384.352
822.8791, 7435.699
823.3612, 7499.522
823.8433, 7578.350
824.3254, 7642.385
824.8076, 7675.047
825.2897, 7691.030
825.7718, 7712.442
826.2539, 7738.468
826.7360, 7780.569
827.2181, 7849.133
827.7003, 7912.468
828.1824, 7965.464
828.6645, 8006.510
829.1466, 8031.707
829.6287, 8043.135
830.1108, 8051.482
830.5930, 8054.747
831.0751, 8058.625
831.5572, 8055.927
832.0393, 8061.802
832.5214, 8091.168
833.0035, 8135.191
833.4857, 8176.386
833.9678, 8209.793
834.4499, 8244.480
834.9320, 8297.171
835.4141, 8344.666
835.8962, 8348.428
836.3784, 8332.841
836.8605, 8350.586
837.3426, 8409.800
837.8247, 8478.405
838.3068, 8532.438
838.7889, 8580.986
839.2711, 8641.632
839.7532, 8712.780
840.2353, 8785.812
840.7174, 8859.718
841.1995, 8941.673
841.6816, 9037.384
842.1638, 9137.035
842.6459, 9223.251
843.1280, 9294.327
843.6101, 9370.046
844.0922, 9455.091
844.5743, 9531.665
845.0565, 9590.134
845.5386, 9644.596
846.0207, 9710.157
846.5028, 9784.466
846.9849, 9850.544
847.4670, 9899.064
847.9492, 9953.296
848.4313, 10012.01
848.9134, 10080.32
849.3955, 10170.73
849.8776, 10269.46
850.3597, 10353.37
850.8419, 10417.78
851.3240, 10478.36
851.8061, 10535.90
852.2882, 10599.23
852.7703, 10679.26
853.2524, 10767.08
853.7346, 10845.18
854.2167, 10915.34
854.6988, 10995.80
855.1809, 11096.20
855.6630, 11215.42
856.1451, 11374.78
856.6273, 11545.97
857.1094, 11649.01
857.5915, 11686.98
858.0736, 11719.50
858.5557, 11771.12
859.0378, 11839.79
859.5200, 11928.41
860.0021, 12031.14
860.4842, 12111.43
860.9663, 12169.58
861.4484, 12200.99
861.9305, 12201.93
862.4127, 12185.58
862.8948, 12160.06
863.3769, 12126.11
863.8590, 12085.10
864.3411, 12032.49
864.8232, 11984.69
865.3054, 11952.69
865.7875, 11910.22
866.2696, 11855.63
866.7517, 11780.17
867.2338, 11664.50
867.7159, 11509.96
868.1981, 11372.59
868.6802, 11279.76
869.1623, 11177.36
869.6444, 11059.63
870.1265, 10920.64
870.6086, 10746.97
871.0908, 10550.59
871.5729, 10357.16
872.0550, 10174.51
872.5371, 9990.703
873.0192, 9790.459
873.5013, 9595.016
873.9835, 9438.266
874.4656, 9294.063
874.9477, 9109.036
875.4298, 8881.274
875.9119, 8663.714
876.3940, 8498.673
876.8762, 8343.806
877.3583, 8130.460
877.8404, 7883.537
878.3225, 7665.804
878.8046, 7480.052
879.2867, 7298.976
879.7689, 7111.103
880.2510, 6925.010
880.7331, 6751.337
881.2152, 6589.742
881.6973, 6434.888
882.1794, 6287.204
882.6616, 6133.656
883.1437, 5969.218
883.6258, 5806.532
884.1079, 5650.298
884.5900, 5506.317
885.0721, 5393.482
885.5543, 5328.820
886.0364, 5229.996
886.5185, 5072.739
887.0006, 4929.856
887.4827, 4835.427
887.9648, 4760.214
888.4470, 4670.802
888.9291, 4567.575
889.4112, 4468.255
889.8933, 4357.564
890.3754, 4273.169
890.8575, 4247.790
891.3397, 4219.226
891.8218, 4140.742
892.3039, 4038.243
892.7860, 3962.462
893.2681, 3923.444
893.7502, 3877.863
894.2324, 3805.886
894.7145, 3732.600
895.1966, 3669.870
895.6787, 3612.453
896.1608, 3554.170
896.6429, 3495.219
897.1251, 3440.562
897.6072, 3393.238
898.0893, 3347.053
898.5714, 3301.177
899.0535, 3251.561
899.5356, 3193.061
900.0178, 3127.393
900.4999, 3054.584
900.9820, 2976.967
901.4641, 2907.242
901.9462, 2858.216
902.4283, 2818.472
902.9105, 2775.542
903.3926, 2727.587
903.8747, 2664.830
904.3568, 2590.183
904.8389, 2524.855
905.3210, 2479.474
905.8032, 2441.204
906.2853, 2393.193
906.7674, 2337.782
907.2495, 2282.968
907.7316, 2229.378
908.2137, 2187.371
908.6959, 2160.323
909.1780, 2134.065
909.6601, 2097.986
910.1422, 2055.908
910.6243, 2016.819
911.1064, 1980.689
911.5886, 1948.401
912.0707, 1921.199
912.5528, 1893.050
913.0349, 1861.985
913.5170, 1828.481
913.9991, 1791.638
914.4813, 1752.611
914.9634, 1723.187
915.4455, 1708.691
915.9276, 1691.033
916.4097, 1666.936
916.8918, 1642.565
917.3740, 1620.640
917.8561, 1600.496
918.3382, 1582.258
918.8203, 1566.595
919.3024, 1546.517
919.7845, 1515.225
920.2667, 1488.866
920.7488, 1473.579
921.2309, 1461.238
921.7130, 1447.507
922.1951, 1432.186
922.6772, 1414.959
923.1594, 1394.813
923.6415, 1377.108
924.1236, 1365.849
924.6057, 1354.305
925.0878, 1339.670
925.5699, 1322.887
926.0521, 1302.544
926.5342, 1281.024
927.0163, 1266.306
927.4984, 1263.101
927.9805, 1262.248
928.4626, 1263.234
928.9448, 1260.418
929.4269, 1245.003
929.9090, 1223.973
930.3911, 1209.987
930.8732, 1204.672
931.3553, 1198.770
931.8375, 1185.968
932.3196, 1171.820
932.8017, 1160.672
933.2838, 1151.707
933.7659, 1144.215
934.2480, 1137.839
934.7302, 1131.929
935.2123, 1126.337
935.6944, 1122.209
936.1765, 1121.906
936.6586, 1122.465
937.1407, 1119.833
937.6229, 1114.225
938.1050, 1104.885
938.5871, 1092.705
939.0692, 1081.914
939.5513, 1074.626
940.0334, 1069.851
940.5156, 1068.216
940.9977, 1067.589
941.4798, 1060.784
941.9619, 1048.707
942.4440, 1035.766
942.9261, 1023.189
943.4083, 1014.601
943.8904, 1013.048
944.3725, 1014.463
944.8546, 1011.109
945.3367, 1003.384
945.8188, 993.3635
946.3010, 981.1495
946.7831, 975.8536
947.2652, 980.7943
947.7473, 988.0602
948.2294, 990.9661
948.7115, 989.6400
949.1937, 983.2303
949.6758, 971.2219
950.1579, 962.7026
950.6400, 958.4465
951.1221, 956.6033
951.6042, 957.0533
952.0864, 957.6699
952.5685, 956.0856
953.0506, 952.4140
953.5327, 947.3896
954.0148, 940.9807
954.4969, 932.7924
954.9791, 921.4639
955.4612, 912.0638
955.9433, 907.6288
956.4254, 905.5081
956.9075, 901.5978
957.3896, 895.8312
957.8718, 892.4317
958.3539, 891.3572
958.8360, 893.0842
959.3181, 900.2422
959.8002, 905.8689
960.2823, 905.2926
960.7645, 900.9273
961.2466, 896.8309
961.7287, 892.6010
962.2108, 891.2966
962.6929, 893.7935
963.1750, 897.9453
963.6572, 908.7611
964.1393, 915.1042
964.6214, 905.5905
965.1035, 886.7258
965.5856, 875.3737
966.0677, 874.6791
966.5499, 871.2135
967.0320, 858.6250
967.5141, 851.6974
967.9962, 858.7682
968.4783, 868.4570
968.9604, 870.2545
969.4426, 867.2928
969.9247, 871.4526
970.4068, 890.6782
970.8889, 897.8722
971.3710, 878.1136
971.8531, 861.5074
972.3353, 861.7172
972.8174, 867.3419
973.2995, 867.1829
973.7816, 862.4146
974.2637, 860.8246
974.7458, 865.4152
975.2280, 868.9418
975.7101, 870.5595
976.1922, 870.2730
976.6743, 867.2845
977.1564, 862.9338
977.6385, 855.5567
978.1207, 847.2527
978.6028, 849.6422
979.0849, 874.6826
979.5670, 892.7055
980.0491, 892.4822
980.5313, 887.2852
981.0134, 882.7191
981.4955, 878.9208
981.9776, 875.2217
982.4597, 871.6926
982.9418, 869.4771
983.4240, 868.7346
983.9061, 869.5893
984.3882, 871.9684
984.8703, 876.0725
985.3524, 885.3433
985.8345, 894.6564
986.3167, 895.2388
986.7988, 886.9361
987.2809, 880.6100
987.7630, 881.3297
988.2451, 882.7955
988.7272, 882.2411
989.2094, 881.8326
989.6915, 884.1075
990.1736, 887.2572
990.6557, 888.3325
991.1378, 886.8674
991.6199, 884.1631
992.1021, 878.0572
992.5842, 874.3359
993.0663, 878.7951
993.5484, 883.6339
994.0305, 881.4482
994.5126, 875.3221
994.9948, 871.5246
995.4769, 871.1800
995.9590, 870.4263
996.4411, 864.9539
996.9232, 862.1337
997.4053, 868.1606
997.8875, 876.0354
998.3696, 879.9699
998.8517, 880.9108
999.3338, 880.7850
999.8159, 880.1827
1000.298, 882.1478
1000.780, 892.7081
1001.262, 900.2238
1001.744, 896.3601
1002.227, 888.8656
1002.709, 883.1389
1003.191, 879.8207
1003.673, 879.8122
1004.155, 883.1309
1004.637, 883.9051
1005.119, 873.2086
1005.601, 867.3024
1006.083, 879.3082
1006.566, 895.5192
1007.048, 905.7297
1007.530, 909.5182
1008.012, 907.3043
1008.494, 899.3517
1008.976, 892.5344
1009.458, 890.3311
1009.940, 889.3932
1010.422, 886.7690
1010.905, 885.8176
1011.387, 894.0886
1011.869, 904.8502
1012.351, 901.9508
1012.833, 882.2159
1013.315, 869.6342
1013.797, 882.1622
1014.279, 893.5620
1014.762, 889.1705
1015.244, 880.8195
1015.726, 881.6469
1016.208, 885.2043
1016.690, 874.6883
1017.172, 846.9617
1017.654, 827.3719
1018.136, 827.4253
1018.618, 834.0877
1019.101, 850.2292
1019.583, 863.0721
1020.065, 859.9714
1020.547, 847.1971
1021.029, 837.2614
1021.511, 832.2698
1021.993, 824.8243
1022.475, 805.4262
1022.958, 793.0773
1023.440, 799.8662
1023.922, 810.7448
1024.404, 815.3532
1024.886, 816.1586
1025.368, 819.5826
1025.850, 826.3691
1026.332, 827.9845
1026.814, 816.1484
1027.297, 807.7183
1027.779, 811.5490
1028.261, 815.5786
1028.743, 810.9666
1029.225, 801.9636
1029.707, 795.1414
1030.189, 791.1054
1030.671, 788.6432
1031.154, 789.3232
1031.636, 788.9585
1032.118, 786.2237
1032.600, 782.8546
1033.082, 778.9529
1033.564, 775.5010
1034.046, 774.3773
1034.528, 775.5452
1035.010, 775.0464
1035.493, 769.9183
1035.975, 767.1736
1036.457, 769.0038
1036.939, 771.5534
1037.421, 772.4609
1037.903, 773.5942
1038.385, 778.8556
1038.867, 787.5886
1039.349, 790.4913
1039.832, 780.8147
1040.314, 777.2661
1040.796, 787.2193
1041.278, 793.1262
1041.760, 784.2957
1042.242, 772.4352
1042.724, 769.3348
1043.206, 774.3009
1043.689, 783.5684
1044.171, 803.4293
1044.653, 812.1838
1045.135, 805.0209
1045.617, 795.8389
1046.099, 787.7365
1046.581, 781.8406
1047.063, 779.9164
1047.546, 780.7939
1048.028, 779.1028
1048.510, 772.0775
1048.992, 774.7112
1049.474, 791.4637
1049.956, 802.8486
1050.438, 802.3967
1050.920, 797.1392
1051.402, 791.6939
1051.885, 787.3276
1052.367, 788.1000
1052.849, 794.6611
1053.331, 797.5616
1053.813, 795.8339
1054.295, 799.0644
1054.777, 810.5435
1055.259, 820.4664
1055.741, 821.8506
1056.224, 818.5555
1056.706, 817.9542
1057.188, 819.6787
1057.670, 818.0048
1058.152, 813.2645
1058.634, 816.9043
1059.116, 830.9595
1059.598, 843.3301
1060.081, 847.1342
1060.563, 846.8277
1061.045, 847.8581
1061.527, 850.2589
1062.009, 855.0333
1062.491, 861.3976
1062.973, 865.1119
1063.455, 866.0489
1063.938, 867.6939
1064.420, 871.5545
1064.902, 875.2760
1065.384, 876.2051
1065.866, 875.6132
1066.348, 873.7654
1066.830, 872.9601
1067.312, 879.4819
1067.794, 892.2609
1068.276, 907.2783
1068.759, 922.3656
1069.241, 931.6094
1069.723, 928.4262
1070.205, 921.6949
1070.687, 920.8458
1071.169, 923.0017
1071.651, 923.6172
1072.133, 924.1622
1072.616, 930.9135
1073.098, 942.9531
1073.580, 947.3329
1074.062, 933.8509
1074.544, 921.5625
1075.026, 927.9285
1075.508, 936.9299
1075.990, 931.6133
1076.473, 922.0551
1076.955, 924.4953
1077.437, 937.5298
1077.919, 947.1870
1078.401, 948.5174
1078.883, 948.8203
1079.365, 947.6380
1079.847, 950.1691
1080.329, 964.8632
1080.812, 979.4969
1081.294, 981.2507
1081.776, 973.8572
1082.258, 968.7836
1082.740, 968.1879
1083.222, 965.6399
1083.704, 956.4736
1084.186, 950.6514
1084.668, 951.6349
1085.151, 955.3323
1085.633, 961.0375
1086.115, 966.8690
1086.597, 969.8946
1087.079, 970.0318
1087.561, 969.2902
1088.043, 967.3428
1088.525, 965.4590
1089.007, 965.1747
1089.490, 961.3441
1089.972, 949.5043
1090.454, 937.2136
1090.936, 933.1278
1091.418, 936.0308
1091.900, 941.0168
1092.382, 949.2314
1092.864, 948.1488
1093.347, 935.2309
1093.829, 932.0496
1094.311, 947.0247
1094.793, 959.0452
1095.275, 950.0446
1095.757, 930.7299
1096.239, 925.0276
1096.721, 929.8222
1097.203, 922.8741
1097.686, 906.2322
1098.168, 897.5817
1098.650, 899.4352
1099.132, 899.1931
1099.614, 889.6973
1100.096, 881.9741
1100.578, 893.2082
1101.060, 912.3397
1101.542, 921.9934
1102.025, 922.5299
1102.507, 910.1364
1102.989, 889.5575
1103.471, 875.6588
1103.953, 873.0216
1104.435, 872.2458
1104.917, 866.5548
1105.399, 860.6149
1105.882, 860.0183
1106.364, 859.7328
1106.846, 850.5847
1107.328, 839.8898
1107.810, 842.1088
1108.292, 856.9323
1108.774, 868.8290
1109.256, 871.7500
1109.739, 873.0369
1110.221, 879.6176
1110.703, 880.0762
1111.185, 861.3035
1111.667, 839.6764
1112.149, 829.6500
1112.631, 830.4540
1113.113, 839.8743
1113.595, 864.7471
1114.078, 868.8420
1114.560, 831.9615
1115.042, 806.2880
1115.524, 806.0989
1116.006, 809.2245
1116.488, 803.1866
1116.970, 793.6155
1117.452, 789.1249
1117.934, 789.2800
1118.417, 787.7628
1118.899, 784.3829
1119.381, 780.0974
1119.863, 774.6404
1120.345, 771.0802
1120.827, 770.7910
1121.309, 770.6613
1121.791, 767.3690
1122.274, 763.5609
1122.756, 767.0994
1123.238, 775.7545
1123.720, 779.0790
1124.202, 776.8105
1124.684, 766.5115
1125.166, 749.7391
1125.648, 740.8781
1126.130, 748.0236
1126.613, 757.8162
1127.095, 755.6210
1127.577, 747.6194
1128.059, 739.9943
1128.541, 733.8837
1129.023, 732.2557
1129.505, 733.4787
1129.987, 733.4387
1130.469, 730.9554
1130.952, 726.3770
1131.434, 716.6419
1131.916, 710.3134
1132.398, 713.7485
1132.880, 720.0295
1133.362, 727.8707
1133.844, 733.2299
1134.326, 730.0827
1134.809, 719.8966
1135.291, 710.9923
1135.773, 703.5601
1136.255, 699.7010
1136.737, 703.1990
1137.219, 705.1638
1137.701, 704.6487
1138.183, 700.7013
1138.666, 690.1660
1139.148, 678.5197
1139.630, 675.6437
1140.112, 681.1990
1140.594, 687.5672
1141.076, 695.3150
1141.558, 699.9387
1142.040, 701.0271
1142.522, 697.4263
1143.005, 688.0375
1143.487, 682.1266
1143.969, 689.6265
1144.451, 701.7682
1144.933, 697.2478
1145.415, 682.7956
1145.897, 682.1670
1146.379, 691.8595
1146.861, 698.3353
1147.344, 698.5654
1147.826, 691.6386
1148.308, 676.8508
1148.790, 665.2960
1149.272, 670.5810
1149.754, 679.0031
1150.236, 676.4891
1150.718, 671.0634
1151.201, 673.8268
1151.683, 680.2005
1152.165, 678.4464
1152.647, 667.8345
1153.129, 661.9637
1153.611, 670.0225
1154.093, 673.5398
1154.575, 661.5144
1155.057, 652.4670
1155.540, 656.5465
1156.022, 665.1059
1156.504, 672.3956
1156.986, 677.4559
1157.468, 676.9315
1157.950, 669.4882
1158.432, 668.9913
1158.914, 678.1230
1159.396, 683.7640
1159.879, 684.1066
1160.361, 679.2083
1160.843, 668.0499
1161.325, 658.1022
1161.807, 658.6982
1162.289, 664.8230
1162.771, 661.5272
1163.253, 652.1520
1163.736, 652.1941
1164.218, 659.2383
1164.700, 658.3407
1165.182, 648.2164
1165.664, 643.0893
1166.146, 651.1459
1166.628, 657.7340
1167.110, 643.3359
1167.593, 628.2888
1168.075, 635.0672
1168.557, 649.1020
1169.039, 654.5964
1169.521, 653.0905
1170.003, 645.3607
1170.485, 634.0816
1170.967, 644.5750
1171.449, 697.7924
1171.932, 747.8205
1172.414, 815.5576
1172.896, 840.1468
1173.378, 766.6235
1173.860, 679.0957
1174.342, 641.7737
1174.824, 638.8602
1175.306, 636.1327
1175.788, 633.7391
1176.271, 625.0261
1176.753, 607.9069
1177.235, 605.5165
1177.717, 621.7490
1178.199, 636.3285
1178.681, 640.8880
1179.163, 641.3817
1179.645, 643.2020
1180.128, 645.2034
1180.610, 645.2163
1181.092, 643.9219
1181.574, 644.3185
1182.056, 644.1054
1182.538, 635.3655
1183.020, 620.1531
1183.502, 609.6816
1183.984, 608.1113
1184.467, 611.8057
1184.949, 623.4803
1185.431, 633.3770
1185.913, 633.5393
1186.395, 632.9723
1186.877, 642.0068
1187.359, 652.1684
1187.841, 649.3446
1188.323, 635.2281
1188.806, 626.5552
1189.288, 624.9499
1189.770, 625.0599
1190.252, 628.1752
1190.734, 629.5678
1191.216, 628.3036
1191.698, 624.3176
1192.180, 616.6254
1192.663, 610.0815
1193.145, 611.7686
1193.627, 619.5317
1194.109, 628.3215
1194.591, 636.5881
1195.073, 636.8252
1195.555, 630.1247
1196.037, 620.4560
1196.520, 610.4852
1197.002, 608.6382
1197.484, 620.5327
1197.966, 631.9395
1198.448, 629.1196
1198.930, 623.4988
1199.412, 622.9818
1199.894, 625.1569
1200.376, 628.1975
1200.859, 631.6161
1201.341, 636.8867
1201.823, 643.4207
1202.305, 641.7585
1202.787, 623.7504
1203.269, 610.4214
1203.751, 601.2750
1204.233, 598.3818
1204.715, 604.4404
1205.198, 611.6701
1205.680, 615.0103
1206.162, 615.9940
1206.644, 617.0862
1207.126, 618.0327
1207.608, 617.1329
1208.090, 614.9088
1208.572, 614.3334
1209.055, 615.4133
1209.537, 616.7526
1210.019, 618.0231
1210.501, 620.3349
1210.983, 624.8793
1211.465, 627.1262
1211.947, 618.6641
1212.429, 611.4560
1212.911, 619.8761
1213.394, 630.6660
1213.876, 628.0703
1214.358, 618.2604
1214.840, 614.7386
1215.322, 618.6936
1215.804, 621.7046
1216.286, 620.8113
1216.768, 623.5865
1217.250, 633.0667
1217.733, 639.3701
1218.215, 639.8826
1218.697, 636.6198
1219.179, 629.9625
1219.661, 623.3814
1220.143, 622.2820
1220.625, 625.3990
1221.107, 628.8068
1221.590, 632.3358
1222.072, 636.4000
1222.554, 639.8689
1223.036, 637.0872
1223.518, 628.5128
1224.000, 624.6833
1224.482, 631.8543
1224.964, 637.0217
1225.447, 628.5522
1225.929, 618.7134
1226.411, 611.7495
1226.893, 610.1840
1227.375, 621.7165
1227.857, 636.6424
1228.339, 638.8569
1228.821, 629.4014
1229.303, 621.8652
1229.786, 615.1307
1230.268, 614.9954
1230.750, 623.5415
1231.232, 629.8813
1231.714, 631.8229
1232.196, 630.9254
1232.678, 627.8570
1233.160, 623.8658
1233.642, 619.7479
1234.125, 616.9277
1234.607, 620.3807
1235.089, 625.7504
1235.571, 623.8472
1236.053, 617.3181
1236.535, 610.1371
1237.017, 605.0062
1237.499, 609.3571
1237.982, 626.5364
1238.464, 636.8129
1238.946, 624.9820
1239.428, 616.7861
1239.910, 624.9399
1240.392, 631.5960
1240.874, 625.5273
1241.356, 618.3477
1241.839, 622.5316
1242.321, 631.6456
1242.803, 627.0341
1243.285, 609.5225
1243.767, 608.7588
1244.249, 623.2541
1244.731, 629.9006
1245.213, 626.3442
1245.695, 616.7807
1246.177, 603.6895
1246.660, 595.5635
1247.142, 599.4528
1247.624, 605.0240
1248.106, 602.3636
1248.588, 597.6664
1249.070, 594.9744
1249.552, 594.2516
1250.034, 596.8410
1250.517, 600.4824
1250.999, 601.0216
1251.481, 598.1262
1251.963, 594.4269
1252.445, 589.4195
1252.927, 584.7236
1253.409, 579.1781
1253.891, 579.0280
1254.374, 586.5797
1254.856, 593.8080
1255.338, 596.2979
1255.820, 595.2421
1256.302, 591.1446
1256.784, 586.1505
1257.266, 583.6830
1257.748, 583.5843
1258.230, 587.6883
1258.713, 592.8333
1259.195, 592.0596
1259.677, 586.5212
1260.159, 583.4837
1260.641, 585.1168
1261.123, 586.2133
1261.605, 581.6132
1262.087, 582.2228
1262.569, 598.5058
1263.052, 606.8782
1263.534, 595.1635
1264.016, 581.0784
1264.498, 579.7224
1264.980, 583.4047
1265.462, 574.8276
##END=



