##NAMES=Dyscrasite
##RRUFFID=R061043
##IDEAL CHEMISTRY=Ag_3.2_Sb_0.8_
##LOCALITY=Uranium mine no. 21, Pribram, Czech Republic
##OWNER=RRUFF
##SOURCE=Michael Scott
##DESCRIPTION=Metallic silver-white tarnished striated prismatic single crystals
##STATUS=The identification of this mineral has been confirmed by X-ray diffraction.
##URL=rruff.info/R061043
139.8434, 1102.252
140.3256, 1118.175
140.8077, 1131.365
141.2898, 1139.833
141.7719, 1141.036
142.2540, 1144.724
142.7361, 1152.956
143.2183, 1165.738
143.7004, 1177.860
144.1825, 1189.648
144.6646, 1200.423
145.1467, 1209.096
145.6288, 1214.057
146.1110, 1219.406
146.5931, 1225.951
147.0752, 1233.875
147.5573, 1242.333
148.0394, 1253.129
148.5215, 1263.708
149.0037, 1270.419
149.4858, 1271.096
149.9679, 1269.927
150.4500, 1267.630
150.9321, 1262.371
151.4142, 1259.711
151.8963, 1259.768
152.3785, 1262.523
152.8606, 1267.868
153.3427, 1280.327
153.8248, 1292.134
154.3069, 1300.053
154.7890, 1300.993
155.2712, 1302.090
155.7533, 1303.281
156.2354, 1305.113
156.7175, 1309.648
157.1996, 1321.070
157.6817, 1333.121
158.1639, 1341.957
158.6460, 1344.430
159.1281, 1345.774
159.6102, 1345.031
160.0923, 1342.804
160.5744, 1345.499
161.0566, 1359.714
161.5387, 1377.916
162.0208, 1393.313
162.5029, 1405.773
162.9850, 1413.178
163.4671, 1411.054
163.9493, 1398.892
164.4314, 1391.078
164.9135, 1399.679
165.3956, 1415.515
165.8777, 1426.681
166.3598, 1423.801
166.8419, 1417.823
167.3241, 1415.502
167.8062, 1417.519
168.2883, 1422.753
168.7704, 1433.706
169.2525, 1447.395
169.7346, 1458.163
170.2168, 1460.448
170.6989, 1459.859
171.1810, 1462.245
171.6631, 1469.624
172.1452, 1476.208
172.6273, 1477.024
173.1095, 1473.096
173.5916, 1467.474
174.0737, 1456.082
174.5558, 1445.678
175.0379, 1447.480
175.5201, 1468.367
176.0022, 1492.702
176.4843, 1501.251
176.9664, 1496.513
177.4485, 1491.593
177.9306, 1499.014
178.4128, 1512.366
178.8949, 1518.219
179.3770, 1508.170
179.8591, 1494.693
180.3412, 1499.186
180.8233, 1520.628
181.3054, 1542.108
181.7876, 1548.886
182.2697, 1544.505
182.7518, 1539.431
183.2339, 1535.104
183.7160, 1532.786
184.1981, 1536.941
184.6803, 1547.876
185.1624, 1558.796
185.6445, 1563.854
186.1266, 1563.374
186.6087, 1558.988
187.0908, 1547.059
187.5730, 1531.834
188.0551, 1528.384
188.5372, 1537.867
189.0193, 1552.750
189.5014, 1567.800
189.9835, 1582.621
190.4657, 1590.230
190.9478, 1581.699
191.4299, 1561.160
191.9120, 1556.390
192.3941, 1570.417
192.8762, 1590.903
193.3584, 1600.114
193.8405, 1597.907
194.3226, 1594.651
194.8047, 1596.472
195.2868, 1602.859
195.7689, 1602.668
196.2510, 1593.429
196.7332, 1581.655
197.2153, 1580.509
197.6974, 1591.169
198.1795, 1601.817
198.6616, 1605.792
199.1437, 1602.876
199.6259, 1601.193
200.1080, 1601.544
200.5901, 1602.867
201.0722, 1602.264
201.5543, 1599.114
202.0364, 1596.872
202.5186, 1598.017
203.0007, 1602.963
203.4828, 1607.095
203.9649, 1609.723
204.4470, 1611.436
204.9291, 1613.942
205.4113, 1617.266
205.8934, 1621.130
206.3755, 1625.901
206.8576, 1632.112
207.3397, 1636.296
207.8218, 1638.432
208.3040, 1638.214
208.7861, 1632.988
209.2682, 1620.093
209.7503, 1608.604
210.2324, 1606.372
210.7145, 1616.465
211.1967, 1623.784
211.6788, 1625.036
212.1609, 1621.763
212.6430, 1624.179
213.1251, 1635.244
213.6072, 1646.765
214.0893, 1651.747
214.5715, 1647.689
215.0536, 1644.702
215.5357, 1644.839
216.0178, 1647.684
216.4999, 1648.708
216.9820, 1647.206
217.4642, 1644.726
217.9463, 1641.844
218.4284, 1636.779
218.9105, 1636.008
219.3926, 1642.257
219.8747, 1655.184
220.3569, 1664.663
220.8390, 1670.981
221.3211, 1673.493
221.8032, 1670.232
222.2853, 1656.147
222.7674, 1648.072
223.2496, 1651.210
223.7317, 1666.106
224.2138, 1677.868
224.6959, 1688.067
225.1780, 1693.708
225.6601, 1690.291
226.1423, 1671.076
226.6244, 1656.535
227.1065, 1651.734
227.5886, 1657.319
228.0707, 1665.474
228.5528, 1679.250
229.0349, 1692.959
229.5171, 1699.207
229.9992, 1693.737
230.4813, 1688.805
230.9634, 1687.240
231.4455, 1689.367
231.9276, 1692.558
232.4098, 1698.091
232.8919, 1703.696
233.3740, 1706.169
233.8561, 1704.082
234.3382, 1701.499
234.8203, 1699.315
235.3025, 1697.583
235.7846, 1696.092
236.2667, 1694.660
236.7488, 1693.636
237.2309, 1693.785
237.7130, 1696.661
238.1952, 1698.116
238.6773, 1697.090
239.1594, 1693.468
239.6415, 1687.424
240.1236, 1674.824
240.6057, 1662.506
241.0879, 1661.573
241.5700, 1680.560
242.0521, 1696.417
242.5342, 1700.652
243.0163, 1688.930
243.4984, 1686.622
243.9805, 1699.163
244.4627, 1717.540
244.9448, 1728.307
245.4269, 1729.432
245.9090, 1725.961
246.3911, 1717.856
246.8732, 1702.840
247.3554, 1693.317
247.8375, 1691.308
248.3196, 1693.396
248.8017, 1694.417
249.2838, 1693.669
249.7659, 1693.150
250.2481, 1694.383
250.7302, 1699.002
251.2123, 1697.222
251.6944, 1683.990
252.1765, 1668.122
252.6586, 1664.261
253.1408, 1681.102
253.6229, 1694.048
254.1050, 1693.568
254.5871, 1675.272
255.0692, 1666.841
255.5513, 1674.098
256.0334, 1686.773
256.5156, 1688.084
256.9977, 1671.064
257.4798, 1656.369
257.9619, 1651.975
258.4440, 1660.901
258.9261, 1662.798
259.4083, 1654.810
259.8904, 1642.179
260.3725, 1632.720
260.8546, 1626.612
261.3367, 1622.971
261.8188, 1621.516
262.3010, 1622.206
262.7831, 1625.678
263.2652, 1633.905
263.7473, 1642.858
264.2294, 1645.979
264.7115, 1640.430
265.1937, 1636.335
265.6758, 1637.841
266.1579, 1645.723
266.6400, 1650.346
267.1221, 1650.850
267.6042, 1649.173
268.0864, 1648.328
268.5685, 1649.229
269.0506, 1648.071
269.5327, 1642.490
270.0148, 1632.051
270.4969, 1626.868
270.9791, 1629.089
271.4612, 1633.213
271.9433, 1631.506
272.4254, 1622.721
272.9075, 1613.486
273.3896, 1605.324
273.8718, 1598.314
274.3539, 1593.750
274.8360, 1591.907
275.3181, 1591.864
275.8002, 1593.827
276.2823, 1598.781
276.7645, 1599.306
277.2466, 1590.872
277.7287, 1574.404
278.2108, 1565.637
278.6929, 1565.993
279.1750, 1569.867
279.6572, 1571.470
280.1393, 1570.709
280.6214, 1568.319
281.1035, 1563.552
281.5856, 1557.091
282.0677, 1554.081
282.5498, 1555.294
283.0320, 1556.950
283.5141, 1555.285
283.9962, 1550.294
284.4783, 1543.144
284.9604, 1532.080
285.4425, 1519.306
285.9247, 1502.697
286.4068, 1513.942
286.8889, 1519.366
287.3710, 1519.283
287.8531, 1497.197
288.3352, 1503.523
288.8174, 1498.463
289.2995, 1492.936
289.7816, 1503.261
290.2637, 1484.375
290.7458, 1494.448
291.2279, 1492.962
291.7101, 1496.766
292.1922, 1489.114
292.6743, 1485.000
293.1564, 1492.346
293.6385, 1483.719
294.1206, 1498.031
294.6028, 1512.115
295.0849, 1514.298
295.5670, 1507.398
296.0491, 1500.003
296.5312, 1493.698
297.0133, 1488.279
297.4955, 1483.394
297.9776, 1479.182
298.4597, 1475.835
298.9418, 1472.641
299.4239, 1470.540
299.9060, 1472.613
300.3882, 1481.853
300.8703, 1490.806
301.3524, 1487.098
301.8345, 1473.309
302.3166, 1461.646
302.7987, 1462.750
303.2809, 1469.825
303.7630, 1472.003
304.2451, 1465.821
304.7272, 1458.928
305.2093, 1460.080
305.6914, 1467.046
306.1736, 1472.912
306.6557, 1471.534
307.1378, 1468.194
307.6199, 1470.162
308.1020, 1480.314
308.5841, 1488.193
309.0663, 1483.270
309.5484, 1470.075
310.0305, 1458.337
310.5126, 1451.386
310.9947, 1448.490
311.4768, 1450.997
311.9589, 1460.161
312.4410, 1467.028
312.9232, 1464.336
313.4053, 1456.119
313.8874, 1448.713
314.3695, 1440.144
314.8516, 1436.384
315.3337, 1445.423
315.8159, 1469.276
316.2980, 1484.623
316.7801, 1475.708
317.2622, 1454.755
317.7443, 1435.859
318.2264, 1422.660
318.7086, 1413.374
319.1907, 1406.727
319.6728, 1402.713
320.1549, 1404.386
320.6370, 1423.301
321.1191, 1443.121
321.6013, 1450.052
322.0834, 1424.704
322.5655, 1403.034
323.0476, 1393.989
323.5297, 1396.810
324.0118, 1401.479
324.4940, 1410.073
324.9761, 1417.711
325.4582, 1421.352
325.9403, 1411.745
326.4224, 1408.352
326.9045, 1417.875
327.3867, 1437.006
327.8688, 1448.217
328.3509, 1445.773
328.8330, 1439.552
329.3151, 1433.945
329.7972, 1432.707
330.2794, 1426.141
330.7615, 1407.597
331.2436, 1384.054
331.7257, 1375.361
332.2078, 1391.392
332.6899, 1409.533
333.1721, 1421.391
333.6542, 1425.486
334.1363, 1426.903
334.6184, 1423.858
335.1005, 1419.313
335.5826, 1418.809
336.0648, 1424.348
336.5469, 1429.643
337.0290, 1432.674
337.5111, 1433.253
337.9932, 1433.042
338.4753, 1431.946
338.9575, 1430.128
339.4396, 1427.803
339.9217, 1424.977
340.4038, 1421.274
340.8859, 1415.642
341.3680, 1408.659
341.8502, 1405.533
342.3323, 1406.780
342.8144, 1410.279
343.2965, 1414.907
343.7786, 1420.717
344.2607, 1424.833
344.7428, 1427.062
345.2249, 1427.016
345.7071, 1422.562
346.1892, 1413.424
346.6713, 1403.915
347.1534, 1396.866
347.6355, 1392.093
348.1176, 1388.212
348.5998, 1384.105
349.0819, 1382.114
349.5640, 1387.337
350.0461, 1399.069
350.5282, 1411.411
351.0103, 1424.105
351.4925, 1434.221
351.9746, 1434.366
352.4567, 1421.213
352.9388, 1406.456
353.4209, 1403.019
353.9030, 1408.019
354.3852, 1413.606
354.8673, 1416.378
355.3494, 1417.440
355.8315, 1417.579
356.3136, 1416.792
356.7957, 1416.275
357.2779, 1416.983
357.7600, 1418.561
358.2421, 1420.432
358.7242, 1426.250
359.2063, 1429.255
359.6884, 1422.305
360.1706, 1405.860
360.6527, 1393.262
361.1348, 1392.520
361.6169, 1397.693
362.0990, 1403.315
362.5811, 1408.676
363.0633, 1413.462
363.5454, 1418.691
364.0275, 1423.677
364.5096, 1425.131
364.9917, 1418.270
365.4738, 1410.368
365.9560, 1405.331
366.4381, 1403.529
366.9202, 1404.974
367.4023, 1413.047
367.8844, 1424.525
368.3665, 1431.344
368.8487, 1428.897
369.3308, 1425.572
369.8129, 1423.893
370.2950, 1424.207
370.7771, 1425.334
371.2592, 1429.113
371.7414, 1432.709
372.2235, 1431.363
372.7056, 1419.046
373.1877, 1412.528
373.6698, 1418.843
374.1519, 1438.413
374.6340, 1448.075
375.1161, 1444.602
375.5983, 1436.138
376.0804, 1429.787
376.5625, 1425.780
377.0446, 1423.153
377.5267, 1422.271
378.0089, 1422.537
378.4910, 1421.251
378.9731, 1418.117
379.4552, 1415.210
379.9373, 1413.422
380.4194, 1412.868
380.9016, 1415.870
381.3837, 1423.836
381.8658, 1433.414
382.3479, 1438.872
382.8300, 1440.431
383.3121, 1440.359
383.7943, 1437.820
384.2764, 1434.705
384.7585, 1437.148
385.2406, 1446.293
385.7227, 1455.009
386.2048, 1454.191
386.6870, 1446.727
387.1691, 1439.477
387.6512, 1435.846
388.1333, 1433.594
388.6154, 1429.419
389.0975, 1423.520
389.5797, 1419.639
390.0618, 1421.741
390.5439, 1426.791
391.0260, 1431.385
391.5081, 1434.618
391.9902, 1437.132
392.4724, 1440.536
392.9545, 1443.886
393.4366, 1443.918
393.9187, 1433.148
394.4008, 1423.019
394.8829, 1421.057
395.3651, 1432.175
395.8472, 1442.671
396.3293, 1450.497
396.8114, 1455.315
397.2935, 1456.565
397.7756, 1449.614
398.2578, 1443.324
398.7399, 1440.388
399.2220, 1441.486
399.7041, 1442.904
400.1862, 1447.509
400.6683, 1450.577
401.1505, 1447.157
401.6326, 1428.866
402.1147, 1418.049
402.5968, 1420.577
403.0789, 1434.107
403.5610, 1441.339
404.0432, 1439.612
404.5253, 1436.419
405.0074, 1436.281
405.4895, 1439.751
405.9716, 1444.430
406.4537, 1451.755
406.9358, 1458.317
407.4179, 1454.807
407.9001, 1439.746
408.3822, 1427.713
408.8643, 1427.846
409.3464, 1438.080
409.8285, 1441.938
410.3106, 1438.421
410.7928, 1433.692
411.2749, 1435.291
411.7570, 1441.856
412.2391, 1447.324
412.7212, 1449.378
413.2033, 1449.586
413.6855, 1448.839
414.1676, 1447.578
414.6497, 1449.671
415.1318, 1463.229
415.6139, 1480.139
416.0960, 1488.449
416.5782, 1483.438
417.0603, 1474.925
417.5424, 1469.719
418.0245, 1466.681
418.5066, 1463.272
418.9887, 1456.157
419.4709, 1449.917
419.9530, 1446.791
420.4351, 1446.916
420.9172, 1451.174
421.3993, 1467.408
421.8814, 1484.949
422.3636, 1492.686
422.8457, 1473.681
423.3278, 1460.264
423.8099, 1464.447
424.2920, 1484.587
424.7741, 1495.059
425.2563, 1484.684
425.7384, 1472.606
426.2205, 1469.054
426.7026, 1482.054
427.1847, 1488.870
427.6668, 1487.596
428.1490, 1480.680
428.6311, 1471.907
429.1132, 1457.672
429.5953, 1449.944
430.0774, 1455.527
430.5595, 1474.714
431.0417, 1487.484
431.5238, 1493.147
432.0059, 1493.846
432.4880, 1489.903
432.9701, 1481.390
433.4522, 1475.551
433.9344, 1473.236
434.4165, 1475.378
434.8986, 1488.238
435.3807, 1511.149
435.8628, 1529.177
436.3449, 1527.924
436.8270, 1514.612
437.3091, 1504.532
437.7913, 1499.828
438.2734, 1498.084
438.7555, 1499.121
439.2376, 1501.349
439.7197, 1501.255
440.2018, 1493.580
440.6840, 1485.442
441.1661, 1484.191
441.6482, 1489.789
442.1303, 1492.512
442.6124, 1481.155
443.0945, 1467.705
443.5767, 1463.346
444.0588, 1482.886
444.5409, 1497.074
445.0230, 1490.962
445.5051, 1472.403
445.9872, 1466.365
446.4694, 1494.458
446.9515, 1520.292
447.4336, 1528.408
447.9157, 1510.789
448.3978, 1499.981
448.8799, 1499.147
449.3621, 1503.127
449.8442, 1505.995
450.3263, 1507.296
450.8084, 1508.437
451.2905, 1509.358
451.7726, 1510.251
452.2548, 1512.769
452.7369, 1517.320
453.2190, 1522.175
453.7011, 1526.122
454.1832, 1529.145
454.6653, 1533.028
455.1475, 1539.060
455.6296, 1543.432
456.1117, 1537.066
456.5938, 1521.799
457.0759, 1510.369
457.5580, 1511.977
458.0402, 1520.575
458.5223, 1525.356
459.0044, 1526.343
459.4865, 1525.776
459.9686, 1523.190
460.4507, 1520.840
460.9329, 1522.358
461.4150, 1531.627
461.8971, 1540.608
462.3792, 1544.178
462.8613, 1543.405
463.3434, 1541.284
463.8256, 1536.667
464.3077, 1532.919
464.7898, 1531.859
465.2719, 1533.991
465.7540, 1537.523
466.2361, 1545.612
466.7182, 1553.411
467.2003, 1555.781
467.6825, 1543.878
468.1646, 1536.999
468.6467, 1541.000
469.1288, 1553.173
469.6109, 1555.797
470.0930, 1543.792
470.5752, 1530.459
471.0573, 1521.475
471.5394, 1516.277
472.0215, 1519.799
472.5036, 1535.414
472.9857, 1554.177
473.4679, 1561.768
473.9500, 1557.880
474.4321, 1553.575
474.9142, 1552.131
475.3963, 1553.068
475.8784, 1555.855
476.3606, 1560.483
476.8427, 1564.503
477.3248, 1565.031
477.8069, 1563.795
478.2890, 1564.712
478.7711, 1569.702
479.2533, 1573.304
479.7354, 1567.345
480.2175, 1556.381
480.6996, 1549.908
481.1817, 1560.393
481.6638, 1570.262
482.1460, 1564.120
482.6281, 1541.655
483.1102, 1528.935
483.5923, 1548.547
484.0744, 1573.275
484.5565, 1583.110
485.0387, 1553.121
485.5208, 1535.141
486.0029, 1539.648
486.4850, 1558.377
486.9671, 1574.481
487.4492, 1591.249
487.9314, 1600.240
488.4135, 1596.151
488.8956, 1577.571
489.3777, 1566.928
489.8598, 1565.710
490.3419, 1569.426
490.8241, 1575.356
491.3062, 1583.884
491.7883, 1590.020
492.2704, 1593.975
492.7525, 1593.908
493.2346, 1580.083
493.7168, 1554.600
494.1989, 1538.592
494.6810, 1554.297
495.1631, 1584.794
495.6452, 1596.587
496.1273, 1587.600
496.6095, 1574.155
497.0916, 1566.507
497.5737, 1563.974
498.0558, 1566.149
498.5379, 1577.892
499.0200, 1587.994
499.5021, 1588.547
499.9843, 1582.308
500.4664, 1576.972
500.9485, 1578.755
501.4306, 1579.137
501.9127, 1571.705
502.3948, 1551.612
502.8770, 1542.653
503.3591, 1559.216
503.8412, 1580.244
504.3233, 1586.729
504.8054, 1565.515
505.2875, 1554.251
505.7697, 1561.248
506.2518, 1580.095
506.7339, 1586.850
507.2160, 1577.873
507.6981, 1569.693
508.1802, 1554.413
508.6624, 1577.418
509.1445, 1590.557
509.6266, 1594.361
510.1087, 1560.868
510.5908, 1575.536
511.0729, 1570.904
511.5551, 1565.479
512.0372, 1586.926
512.5193, 1558.858
513.0014, 1579.878
513.4835, 1581.303
513.9656, 1591.697
514.4478, 1582.670
514.9299, 1579.642
515.4120, 1596.040
515.8941, 1601.681
516.3762, 1590.419
516.8583, 1601.382
517.3405, 1572.636
517.8226, 1578.735
518.3047, 1599.869
518.7868, 1589.583
519.2689, 1600.902
519.7510, 1603.992
520.2332, 1569.690
520.7153, 1600.417
521.1974, 1603.022
521.6795, 1576.749
522.1616, 1605.249
522.6437, 1582.957
523.1259, 1578.795
523.6080, 1588.276
524.0901, 1583.535
524.5722, 1601.217
525.0543, 1597.297
525.5364, 1591.446
526.0186, 1594.019
526.5007, 1572.723
526.9828, 1595.708
527.4649, 1588.446
527.9470, 1596.219
528.4291, 1607.399
528.9113, 1592.486
529.3934, 1605.198
529.8755, 1575.068
530.3576, 1580.786
530.8397, 1582.644
531.3218, 1607.414
531.8040, 1577.494
532.2861, 1582.215
532.7682, 1601.687
533.2503, 1600.520
533.7324, 1607.982
534.2145, 1589.898
534.6967, 1595.813
535.1788, 1595.113
535.6609, 1617.270
536.1430, 1621.383
536.6251, 1603.733
537.1072, 1586.175
537.5894, 1609.978
538.0715, 1594.578
538.5536, 1600.328
539.0357, 1584.235
539.5178, 1587.002
539.9999, 1589.469
540.4821, 1601.605
540.9642, 1584.424
541.4463, 1605.271
541.9284, 1604.139
542.4105, 1609.482
542.8926, 1614.104
543.3748, 1589.233
543.8568, 1588.540
544.3389, 1622.441
544.8210, 1603.583
545.3032, 1595.374
545.7853, 1594.735
546.2674, 1629.821
546.7495, 1631.701
547.2316, 1593.889
547.7137, 1627.401
548.1959, 1617.032
548.6780, 1619.704
549.1601, 1617.618
549.6422, 1616.941
550.1243, 1598.350
550.6064, 1603.365
551.0886, 1627.575
551.5707, 1619.062
552.0528, 1632.784
552.5349, 1605.983
553.0170, 1603.235
553.4991, 1606.872
553.9813, 1612.838
554.4634, 1600.199
554.9455, 1624.768
555.4276, 1624.562
555.9097, 1602.887
556.3918, 1604.502
556.8740, 1602.250
557.3561, 1640.254
557.8382, 1622.910
558.3203, 1601.647
558.8024, 1624.262
559.2845, 1632.812
559.7667, 1622.350
560.2488, 1621.991
560.7309, 1602.464
561.2130, 1612.332
561.6951, 1612.090
562.1772, 1628.504
562.6594, 1609.055
563.1415, 1630.892
563.6236, 1612.405
564.1057, 1635.914
564.5878, 1616.574
565.0699, 1635.404
565.5521, 1608.672
566.0342, 1614.918
566.5163, 1623.778
566.9984, 1641.080
567.4805, 1625.923
567.9626, 1645.228
568.4448, 1634.291
568.9269, 1643.038
569.4090, 1640.870
569.8911, 1625.039
570.3732, 1647.742
570.8553, 1635.301
571.3375, 1646.590
571.8196, 1619.443
572.3017, 1639.021
572.7838, 1648.539
573.2659, 1655.985
573.7480, 1654.716
574.2302, 1649.563
574.7123, 1650.504
575.1944, 1641.273
575.6765, 1617.190
576.1586, 1623.925
576.6407, 1639.983
577.1229, 1651.419
577.6050, 1631.567
578.0871, 1645.387
578.5692, 1644.047
579.0513, 1657.053
579.5334, 1642.558
580.0156, 1660.804
580.4977, 1635.029
580.9798, 1656.600
581.4619, 1665.325
581.9440, 1625.692
582.4261, 1665.478
582.9083, 1633.557
583.3904, 1643.907
583.8725, 1651.590
584.3546, 1638.521
584.8367, 1665.786
585.3188, 1628.672
585.8010, 1636.991
586.2831, 1662.160
586.7652, 1646.678
587.2473, 1671.042
587.7294, 1655.366
588.2115, 1631.279
588.6937, 1666.252
589.1758, 1640.460
589.6579, 1654.568
590.1400, 1635.508
590.6221, 1672.831
591.1042, 1655.222
591.5864, 1640.157
592.0685, 1655.582
592.5506, 1669.749
593.0327, 1648.172
593.5148, 1653.449
593.9969, 1648.577
594.4791, 1666.053
594.9612, 1678.334
595.4433, 1644.996
595.9254, 1668.683
596.4075, 1652.874
596.8896, 1679.164
597.3718, 1639.511
597.8539, 1640.649
598.3360, 1677.352
598.8181, 1664.421
599.3002, 1682.753
599.7823, 1643.034
600.2645, 1643.845
600.7466, 1676.743
601.2287, 1646.994
601.7108, 1685.000
602.1929, 1656.149
602.6750, 1653.066
603.1572, 1679.318
603.6393, 1661.889
604.1214, 1682.245
604.6035, 1672.115
605.0856, 1688.484
605.5677, 1678.972
606.0498, 1654.712
606.5319, 1686.961
607.0140, 1676.547
607.4962, 1649.523
607.9783, 1670.965
608.4604, 1685.122
608.9425, 1681.429
609.4246, 1689.255
609.9067, 1682.703
610.3889, 1658.443
610.8710, 1665.190
611.3531, 1676.441
611.8352, 1659.790
612.3173, 1666.972
612.7994, 1682.157
613.2816, 1670.814
613.7637, 1665.044
614.2458, 1674.812
614.7279, 1671.993
615.2100, 1663.480
615.6921, 1679.801
616.1743, 1667.663
616.6564, 1690.420
617.1385, 1684.015
617.6206, 1693.586
618.1027, 1666.889
618.5848, 1677.752
619.0670, 1665.424
619.5491, 1674.357
620.0312, 1689.413
620.5133, 1700.323
620.9954, 1696.139
621.4775, 1674.810
621.9597, 1668.893
622.4418, 1673.387
622.9239, 1683.607
623.4060, 1676.630
623.8881, 1675.138
624.3702, 1675.734
624.8524, 1708.300
625.3345, 1678.432
625.8166, 1696.360
626.2987, 1706.102
626.7808, 1703.789
627.2629, 1688.176
627.7451, 1670.781
628.2272, 1672.794
628.7093, 1677.067
629.1914, 1700.004
629.6735, 1669.997
630.1556, 1680.843
630.6378, 1689.772
631.1199, 1692.524
631.6020, 1688.532
632.0841, 1672.744
632.5662, 1678.393
633.0483, 1686.031
633.5305, 1684.294
634.0126, 1701.733
634.4947, 1694.497
634.9768, 1711.645
635.4589, 1705.784
635.9410, 1716.881
636.4232, 1685.277
636.9053, 1684.534
637.3874, 1685.147
637.8695, 1719.448
638.3516, 1695.349
638.8337, 1710.607
639.3159, 1685.298
639.7980, 1714.426
640.2801, 1711.257
640.7622, 1689.829
641.2443, 1701.617
641.7264, 1723.115
642.2086, 1697.699
642.6907, 1707.874
643.1728, 1682.870
643.6549, 1725.402
644.1370, 1726.225
644.6191, 1713.038
645.1013, 1695.332
645.5834, 1702.928
646.0655, 1714.243
646.5476, 1718.264
647.0297, 1727.665
647.5118, 1705.359
647.9940, 1713.598
648.4761, 1728.213
648.9582, 1727.966
649.4403, 1694.075
649.9224, 1703.933
650.4045, 1705.559
650.8867, 1703.677
651.3688, 1711.589
651.8509, 1720.828
652.3330, 1697.409
652.8151, 1711.926
653.2972, 1716.778
653.7794, 1711.091
654.2615, 1711.223
654.7436, 1721.168
655.2257, 1703.740
655.7078, 1727.620
656.1899, 1696.611
656.6721, 1698.138
657.1542, 1713.036
657.6363, 1726.520
658.1184, 1739.363
658.6005, 1698.754
659.0826, 1717.298
659.5648, 1722.238
660.0469, 1711.966
660.5290, 1740.792
661.0111, 1725.968
661.4932, 1717.291
661.9753, 1726.765
662.4575, 1723.221
662.9396, 1716.283
663.4217, 1732.171
663.9038, 1710.497
664.3859, 1737.847
664.8680, 1728.015
665.3502, 1743.570
665.8323, 1744.636
666.3144, 1737.245
666.7965, 1738.525
667.2786, 1720.487
667.7607, 1742.759
668.2428, 1713.738
668.7249, 1739.999
669.2070, 1718.695
669.6891, 1711.024
670.1713, 1718.536
670.6534, 1741.906
671.1355, 1719.637
671.6176, 1735.138
672.0997, 1736.408
672.5818, 1718.950
673.0640, 1744.974
673.5461, 1720.385
674.0282, 1747.551
674.5103, 1732.122
674.9924, 1719.831
675.4745, 1723.073
675.9567, 1731.555
676.4388, 1756.453
676.9209, 1732.198
677.4030, 1743.028
677.8851, 1730.129
678.3672, 1743.057
678.8494, 1745.924
679.3315, 1722.322
679.8136, 1754.630
680.2957, 1739.965
680.7778, 1753.833
681.2599, 1761.157
681.7421, 1743.500
682.2242, 1738.214
682.7063, 1730.687
683.1884, 1738.073
683.6705, 1750.173
684.1526, 1727.609
684.6348, 1751.359
685.1169, 1748.453
685.5990, 1756.640
686.0811, 1754.181
686.5632, 1755.027
687.0453, 1742.707
687.5275, 1743.710
688.0096, 1758.552
688.4917, 1727.532
688.9738, 1728.956
689.4559, 1739.638
689.9380, 1733.926
690.4202, 1766.813
690.9023, 1745.296
691.3844, 1758.169
691.8665, 1740.370
692.3486, 1758.248
692.8307, 1747.713
693.3129, 1759.264
693.7950, 1745.952
694.2771, 1758.616
694.7592, 1775.500
695.2413, 1776.011
695.7234, 1742.202
696.2056, 1761.635
696.6877, 1736.982
697.1698, 1756.155
697.6519, 1751.203
698.1340, 1763.765
698.6161, 1741.161
699.0983, 1744.537
699.5804, 1744.584
700.0625, 1744.769
700.5446, 1757.183
701.0267, 1777.245
701.5089, 1780.070
701.9910, 1744.662
702.4731, 1772.340
702.9552, 1761.205
703.4373, 1760.615
703.9194, 1756.542
704.4016, 1750.248
704.8837, 1765.718
705.3658, 1771.504
705.8479, 1750.047
706.3300, 1763.356
706.8121, 1748.202
707.2943, 1779.721
707.7764, 1747.391
708.2585, 1772.085
708.7406, 1789.970
709.2227, 1785.323
709.7048, 1789.829
710.1870, 1764.182
710.6691, 1749.022
711.1512, 1763.472
711.6333, 1766.438
712.1154, 1791.790
712.5975, 1768.529
713.0797, 1769.260
713.5618, 1760.537
714.0439, 1754.043
714.5260, 1768.254
715.0081, 1789.376
715.4902, 1785.715
715.9724, 1766.213
716.4545, 1781.884
716.9366, 1791.922
717.4187, 1771.113
717.9008, 1778.739
718.3829, 1761.597
718.8651, 1763.484
719.3472, 1786.253
719.8293, 1764.301
720.3114, 1795.586
720.7935, 1770.479
721.2756, 1766.875
721.7578, 1762.337
722.2399, 1768.109
722.7220, 1798.709
723.2041, 1788.860
723.6862, 1781.593
724.1683, 1783.108
724.6505, 1792.544
725.1326, 1781.916
725.6147, 1768.408
726.0968, 1796.943
726.5789, 1775.433
727.0610, 1766.244
727.5432, 1796.191
728.0253, 1769.506
728.5073, 1784.019
728.9894, 1793.404
729.4716, 1798.216
729.9537, 1796.235
730.4358, 1811.667
730.9179, 1806.031
731.4000, 1781.127
731.8821, 1781.776
732.3643, 1774.928
732.8464, 1799.053
733.3285, 1779.511
733.8106, 1774.703
734.2927, 1780.063
734.7748, 1778.745
735.2570, 1783.791
735.7391, 1778.971
736.2212, 1779.496
736.7033, 1815.695
737.1854, 1807.027
737.6675, 1816.237
738.1497, 1781.527
738.6318, 1816.393
739.1139, 1796.670
739.5960, 1782.234
740.0781, 1812.977
740.5602, 1810.154
741.0424, 1804.091
741.5245, 1811.382
742.0066, 1812.567
742.4887, 1801.829
742.9708, 1790.492
743.4529, 1811.070
743.9351, 1792.546
744.4172, 1813.843
744.8993, 1796.808
745.3814, 1822.516
745.8635, 1823.801
746.3456, 1822.421
746.8278, 1784.921
747.3099, 1819.941
747.7920, 1822.682
748.2741, 1823.585
748.7562, 1807.024
749.2383, 1805.037
749.7205, 1827.059
750.2026, 1808.611
750.6847, 1829.032
751.1668, 1822.245
751.6489, 1826.166
752.1310, 1798.989
752.6132, 1829.234
753.0953, 1791.141
753.5774, 1804.648
754.0595, 1830.606
754.5416, 1825.826
755.0237, 1818.245
755.5059, 1819.263
755.9880, 1797.032
756.4701, 1823.834
756.9522, 1801.475
757.4343, 1814.437
757.9164, 1807.834
758.3986, 1807.519
758.8807, 1839.223
759.3628, 1826.564
759.8449, 1837.452
760.3270, 1818.561
760.8091, 1834.639
761.2913, 1825.497
761.7734, 1835.255
762.2555, 1826.001
762.7376, 1807.934
763.2197, 1831.986
763.7018, 1829.530
764.1840, 1814.843
764.6661, 1811.493
765.1482, 1833.458
765.6303, 1819.732
766.1124, 1835.608
766.5945, 1834.271
767.0767, 1815.961
767.5588, 1807.013
768.0409, 1820.647
768.5230, 1843.125
769.0051, 1821.773
769.4872, 1836.008
769.9694, 1824.703
770.4515, 1836.736
770.9336, 1808.915
771.4157, 1808.866
771.8978, 1832.803
772.3799, 1811.353
772.8621, 1823.547
773.3442, 1839.242
773.8263, 1829.726
774.3084, 1852.295
774.7905, 1822.023
775.2726, 1825.562
775.7548, 1839.603
776.2369, 1854.664
776.7190, 1847.852
777.2011, 1818.810
777.6832, 1815.523
778.1653, 1855.746
778.6475, 1832.303
779.1296, 1832.298
779.6117, 1844.022
780.0938, 1823.393
780.5759, 1850.919
781.0580, 1828.463
781.5402, 1847.762
782.0223, 1835.958
782.5044, 1820.753
782.9865, 1826.559
783.4686, 1840.832
783.9507, 1837.447
784.4329, 1828.233
784.9150, 1864.183
785.3971, 1853.549
785.8792, 1858.613
786.3613, 1859.617
786.8434, 1837.434
787.3256, 1826.816
787.8077, 1832.518
788.2898, 1839.733
788.7719, 1845.999
789.2540, 1851.657
789.7361, 1863.151
790.2183, 1839.529
790.7003, 1842.310
791.1824, 1832.843
791.6646, 1857.260
792.1467, 1845.122
792.6288, 1848.129
793.1109, 1840.210
793.5930, 1847.280
794.0751, 1872.633
794.5573, 1864.342
795.0394, 1847.405
795.5215, 1866.646
796.0036, 1859.632
796.4857, 1874.018
796.9678, 1836.918
797.4500, 1856.435
797.9321, 1863.467
798.4142, 1876.872
798.8963, 1843.269
799.3784, 1844.236
799.8605, 1875.878
800.3427, 1851.105
800.8248, 1852.430
801.3069, 1861.263
801.7890, 1871.324
802.2711, 1877.880
802.7532, 1852.345
803.2354, 1848.351
803.7175, 1865.171
804.1996, 1861.403
804.6817, 1871.737
805.1638, 1876.497
805.6459, 1858.780
806.1281, 1878.329
806.6102, 1843.916
807.0923, 1855.953
807.5744, 1881.146
808.0565, 1885.595
808.5386, 1857.059
809.0208, 1851.244
809.5029, 1858.334
809.9850, 1877.461
810.4671, 1859.929
810.9492, 1880.578
811.4313, 1890.276
811.9135, 1857.644
812.3956, 1855.748
812.8777, 1856.033
813.3598, 1865.713
813.8419, 1854.813
814.3240, 1860.200
814.8062, 1889.673
815.2883, 1852.356
815.7704, 1880.268
816.2525, 1869.788
816.7346, 1892.939
817.2167, 1887.845
817.6989, 1894.268
818.1810, 1868.468
818.6631, 1875.849
819.1452, 1880.141
819.6273, 1880.433
820.1094, 1876.240
820.5916, 1862.937
821.0737, 1871.398
821.5558, 1889.737
822.0379, 1871.822
822.5200, 1897.355
823.0021, 1873.023
823.4843, 1876.133
823.9664, 1897.215
824.4485, 1862.003
824.9306, 1884.838
825.4127, 1872.278
825.8948, 1901.313
826.3770, 1898.468
826.8591, 1891.657
827.3412, 1896.559
827.8233, 1906.428
828.3054, 1884.632
828.7875, 1879.846
829.2697, 1905.347
829.7518, 1906.323
830.2339, 1883.640
830.7160, 1905.991
831.1981, 1905.859
831.6802, 1887.770
832.1624, 1894.412
832.6445, 1870.471
833.1266, 1881.895
833.6087, 1871.561
834.0908, 1887.758
834.5729, 1872.325
835.0551, 1901.814
835.5372, 1901.304
836.0193, 1898.175
836.5014, 1910.495
836.9835, 1893.529
837.4656, 1873.571
837.9478, 1886.771
838.4299, 1908.052
838.9120, 1881.510
839.3941, 1914.014
839.8762, 1895.420
840.3583, 1918.784
840.8405, 1888.552
841.3226, 1914.965
841.8047, 1915.042
842.2868, 1887.821
842.7689, 1897.434
843.2510, 1906.742
843.7332, 1910.971
844.2153, 1886.067
844.6974, 1916.271
845.1795, 1902.832
845.6616, 1882.235
846.1437, 1887.588
846.6259, 1890.992
847.1080, 1890.469
847.5901, 1908.012
848.0722, 1921.854
848.5543, 1891.047
849.0364, 1909.800
849.5186, 1902.553
850.0007, 1904.370
850.4828, 1896.095
850.9649, 1896.878
851.4470, 1907.930
851.9291, 1901.126
852.4112, 1915.518
852.8933, 1928.402
853.3754, 1920.049
853.8575, 1891.913
854.3397, 1912.890
854.8218, 1891.559
855.3039, 1894.510
855.7860, 1895.623
856.2681, 1919.086
856.7502, 1919.024
857.2324, 1921.012
857.7145, 1923.347
858.1966, 1896.912
858.6787, 1919.601
859.1608, 1901.014
859.6429, 1919.777
860.1251, 1922.191
860.6072, 1908.479
861.0893, 1919.562
861.5714, 1898.826
862.0535, 1907.332
862.5356, 1916.187
863.0178, 1916.876
863.4999, 1910.275
863.9820, 1911.838
864.4641, 1929.766
864.9462, 1940.659
865.4283, 1927.133
865.9105, 1928.392
866.3926, 1904.888
866.8747, 1924.883
867.3568, 1907.602
867.8389, 1933.447
868.3210, 1941.139
868.8032, 1925.318
869.2853, 1940.361
869.7674, 1944.838
870.2495, 1911.929
870.7316, 1937.838
871.2137, 1926.976
871.6959, 1948.612
872.1780, 1913.655
872.6601, 1943.819
873.1422, 1946.802
873.6243, 1913.604
874.1064, 1944.189
874.5886, 1933.510
875.0707, 1934.969
875.5528, 1939.062
876.0349, 1938.257
876.5170, 1950.725
876.9991, 1921.316
877.4813, 1945.663
877.9634, 1938.647
878.4455, 1955.934
878.9276, 1948.081
879.4097, 1935.981
879.8918, 1920.627
880.3740, 1934.260
880.8561, 1951.148
881.3382, 1954.302
881.8203, 1947.508
882.3024, 1918.591
882.7845, 1938.268
883.2667, 1920.445
883.7488, 1938.870
884.2309, 1943.212
884.7130, 1956.291
885.1951, 1928.513
885.6772, 1942.273
886.1594, 1944.586
886.6415, 1933.139
887.1236, 1950.347
887.6057, 1952.306
888.0878, 1931.164
888.5699, 1957.179
889.0521, 1936.702
889.5342, 1966.049
890.0163, 1947.145
890.4984, 1927.273
890.9805, 1956.775
891.4626, 1948.431
891.9448, 1942.956
892.4269, 1948.526
892.9090, 1954.204
893.3911, 1963.028
893.8732, 1940.753
894.3553, 1933.254
894.8375, 1961.852
895.3196, 1953.643
895.8017, 1952.518
896.2838, 1939.988
896.7659, 1956.290
897.2480, 1946.950
897.7302, 1974.437
898.2123, 1968.588
898.6944, 1975.055
899.1765, 1972.352
899.6586, 1965.627
900.1407, 1945.349
900.6229, 1936.131
901.1050, 1943.189
901.5871, 1969.428
902.0692, 1951.051
902.5513, 1967.901
903.0334, 1952.160
903.5156, 1958.688
903.9977, 1939.915
904.4798, 1950.196
904.9619, 1954.139
905.4440, 1951.068
905.9261, 1977.610
906.4083, 1968.255
906.8904, 1955.775
907.3725, 1982.456
907.8546, 1966.906
908.3367, 1966.028
908.8188, 1957.930
909.3010, 1971.366
909.7831, 1980.851
910.2652, 1961.264
910.7473, 1974.509
911.2294, 1954.435
911.7115, 1959.780
912.1937, 1987.640
912.6758, 1970.663
913.1579, 1987.046
913.6400, 1950.445
914.1221, 1963.409
914.6042, 1972.576
915.0863, 1961.080
915.5684, 1979.366
916.0505, 1951.706
916.5327, 1993.774
917.0148, 1979.257
917.4969, 1983.346
917.9790, 1959.868
918.4611, 1953.878
918.9432, 1958.739
919.4254, 1978.262
919.9075, 1982.479
920.3896, 1984.023
920.8717, 1980.895
921.3538, 1977.703
921.8359, 1978.724
922.3181, 1985.457
922.8002, 1985.548
923.2823, 1977.305
923.7644, 1971.965
924.2465, 1982.979
924.7286, 2001.753
925.2108, 2018.105
925.6929, 2030.908
926.1750, 2033.120
926.6571, 2011.401
927.1392, 1988.405
927.6213, 1974.851
928.1035, 1970.388
928.5856, 1965.996
929.0677, 1960.916
929.5498, 1962.107
930.0319, 1978.636
930.5140, 1999.615
930.9962, 2006.970
931.4783, 2003.194
931.9604, 1996.419
932.4425, 1983.365
932.9246, 1975.537
933.4067, 1982.461
933.8889, 1995.288
934.3710, 1994.546
934.8531, 1977.106
935.3352, 1967.149
935.8173, 1971.255
936.2994, 1981.623
936.7816, 1988.712
937.2637, 1993.895
937.7458, 2000.023
938.2279, 2010.115
938.7100, 2016.176
939.1921, 2014.471
939.6743, 2008.026
940.1564, 1998.303
940.6385, 1983.954
941.1206, 1974.190
941.6027, 1969.346
942.0848, 1968.134
942.5670, 1972.261
943.0491, 1977.849
943.5312, 1977.542
944.0133, 1970.736
944.4954, 1967.865
944.9775, 1979.865
945.4597, 1989.738
945.9418, 1987.791
946.4239, 1975.566
946.9060, 1973.557
947.3881, 1982.739
947.8702, 1988.087
948.3524, 1976.761
948.8345, 1961.805
949.3166, 1963.577
949.7987, 1977.024
950.2808, 1988.360
950.7629, 1990.844
951.2451, 1992.287
951.7272, 1994.311
952.2093, 1996.530
952.6914, 1998.198
953.1735, 1999.259
953.6556, 1999.224
954.1378, 1996.414
954.6199, 1998.169
955.1020, 2021.753
955.5841, 2051.305
956.0662, 2064.519
956.5483, 2052.134
957.0305, 2035.553
957.5126, 2011.871
957.9947, 1992.497
958.4768, 1986.400
958.9589, 1993.638
959.4410, 2001.433
959.9232, 2009.773
960.4053, 2018.232
960.8874, 2033.148
961.3695, 2043.346
961.8516, 2030.652
962.3337, 1998.179
962.8159, 1980.777
963.2980, 1996.644
963.7801, 2011.283
964.2622, 2015.851
964.7443, 2012.530
965.2264, 2005.713
965.7086, 1996.313
966.1907, 1991.134
966.6728, 1993.727
967.1549, 1999.761
967.6370, 2009.083
968.1191, 2018.446
968.6013, 2022.447
969.0834, 2014.846
969.5655, 2011.411
970.0476, 2013.483
970.5297, 2018.155
971.0118, 2024.988
971.4940, 2031.918
971.9761, 2028.336
972.4582, 2012.517
972.9403, 1999.403
973.4224, 2000.175
973.9045, 2006.314
974.3867, 2013.096
974.8688, 2020.385
975.3508, 2021.542
975.8329, 2013.622
976.3151, 2009.278
976.7972, 2018.754
977.2793, 2033.502
977.7614, 2029.831
978.2435, 2013.274
978.7256, 2003.570
979.2078, 2021.890
979.6899, 2035.453
980.1720, 2021.505
980.6541, 1997.919
981.1362, 1998.892
981.6183, 2031.282
982.1005, 2048.610
982.5826, 2042.467
983.0647, 2026.579
983.5468, 2013.231
984.0289, 2003.115
984.5110, 1997.797
984.9932, 1998.005
985.4753, 2000.505
985.9574, 2005.914
986.4395, 2012.076
986.9216, 2019.857
987.4037, 2029.010
987.8859, 2021.662
988.3680, 1997.856
988.8501, 1982.843
989.3322, 2005.130
989.8143, 2034.295
990.2964, 2034.807
990.7786, 2015.258
991.2607, 2008.646
991.7428, 2034.982
992.2249, 2055.163
992.7070, 2063.593
993.1891, 2062.402
993.6713, 2049.796
994.1534, 2029.617
994.6355, 2023.197
995.1176, 2039.660
995.5997, 2053.850
996.0818, 2040.099
996.5640, 2019.677
997.0461, 2014.150
997.5282, 2029.262
998.0103, 2040.843
998.4924, 2048.563
998.9745, 2053.755
999.4567, 2059.648
999.9388, 2063.048
1000.421, 2049.316
1000.903, 2023.172
1001.385, 2010.386
1001.867, 2039.586
1002.349, 2067.729
1002.831, 2076.254
1003.314, 2071.463
1003.796, 2066.820
1004.278, 2062.369
1004.760, 2056.518
1005.242, 2047.814
1005.724, 2040.912
1006.206, 2042.344
1006.688, 2048.687
1007.171, 2055.258
1007.653, 2061.432
1008.135, 2067.124
1008.617, 2073.594
1009.099, 2078.105
1009.581, 2077.294
1010.063, 2072.034
1010.545, 2074.285
1011.027, 2083.167
1011.510, 2088.195
1011.992, 2082.003
1012.474, 2069.904
1012.956, 2048.140
1013.438, 2022.633
1013.920, 2017.898
1014.402, 2043.941
1014.884, 2063.032
1015.367, 2066.053
1015.849, 2062.672
1016.331, 2072.028
1016.813, 2086.415
1017.295, 2086.248
1017.777, 2061.844
1018.259, 2042.379
1018.741, 2042.387
1019.223, 2049.412
1019.706, 2055.835
1020.188, 2061.652
1020.670, 2067.702
1021.152, 2074.185
1021.634, 2076.604
1022.116, 2063.195
1022.598, 2050.835
1023.080, 2064.089
1023.563, 2094.817
1024.045, 2113.182
1024.527, 2103.558
1025.009, 2095.889
1025.491, 2095.563
1025.973, 2097.462
1026.455, 2090.635
1026.937, 2078.469
1027.419, 2076.002
1027.901, 2088.064
1028.384, 2098.264
1028.866, 2092.147
1029.348, 2083.058
1029.830, 2082.845
1030.312, 2092.498
1030.794, 2095.487
1031.276, 2091.122
1031.758, 2084.635
1032.241, 2076.658
1032.723, 2070.249
1033.205, 2071.570
1033.687, 2078.284
1034.169, 2084.082
1034.651, 2087.575
1035.133, 2088.447
1035.615, 2084.974
1036.098, 2080.746
1036.580, 2082.183
1037.062, 2088.052
1037.544, 2088.090
1038.026, 2080.319
1038.508, 2074.355
1038.990, 2080.271
1039.472, 2088.819
1039.954, 2092.121
1040.437, 2089.626
1040.919, 2089.614
1041.401, 2092.790
1041.883, 2096.018
1042.365, 2098.373
1042.847, 2099.751
1043.329, 2099.540
1043.811, 2098.292
1044.293, 2097.199
1044.776, 2097.516
1045.258, 2096.844
1045.740, 2093.265
1046.222, 2090.061
1046.704, 2091.639
1047.186, 2097.636
1047.668, 2097.860
1048.150, 2091.815
1048.633, 2087.340
1049.115, 2093.289
1049.597, 2100.713
1050.079, 2102.681
1050.561, 2099.288
1051.043, 2095.479
1051.525, 2089.945
1052.007, 2088.909
1052.490, 2095.052
1052.972, 2104.598
1053.454, 2113.031
1053.936, 2119.771
1054.418, 2123.302
1054.900, 2121.610
1055.382, 2120.798
1055.864, 2122.619
1056.346, 2125.564
1056.828, 2128.759
1057.311, 2132.203
1057.793, 2138.931
1058.275, 2148.310
1058.757, 2149.886
1059.239, 2125.161
1059.721, 2102.052
1060.203, 2103.506
1060.685, 2121.773
1061.168, 2134.362
1061.650, 2140.104
1062.132, 2140.687
1062.614, 2134.897
1063.096, 2128.882
1063.578, 2134.372
1064.060, 2143.134
1064.542, 2138.897
1065.025, 2117.800
1065.507, 2104.303
1065.989, 2114.224
1066.471, 2123.011
1066.953, 2118.858
1067.435, 2106.989
1067.917, 2113.754
1068.399, 2135.469
1068.881, 2148.810
1069.364, 2140.183
1069.846, 2126.801
1070.328, 2113.889
1070.810, 2105.405
1071.292, 2107.239
1071.774, 2123.271
1072.256, 2134.305
1072.738, 2139.722
1073.220, 2141.195
1073.703, 2137.787
1074.185, 2132.605
1074.667, 2129.587
1075.149, 2128.625
1075.631, 2128.163
1076.113, 2130.622
1076.595, 2128.852
1077.077, 2119.624
1077.559, 2108.162
1078.042, 2103.489
1078.524, 2104.640
1079.006, 2109.939
1079.488, 2120.600
1079.970, 2126.792
1080.452, 2117.932
1080.934, 2107.527
1081.416, 2103.546
1081.899, 2105.949
1082.381, 2117.258
1082.863, 2137.545
1083.345, 2152.793
1083.827, 2151.704
1084.309, 2147.421
1084.791, 2152.210
1085.273, 2162.427
1085.755, 2172.003
1086.238, 2184.394
1086.720, 2185.468
1087.202, 2171.977
1087.684, 2155.590
1088.166, 2146.435
1088.648, 2142.729
1089.130, 2141.950
1089.612, 2143.534
1090.094, 2144.222
1090.577, 2140.640
1091.059, 2138.948
1091.541, 2142.080
1092.023, 2147.065
1092.505, 2146.672
1092.987, 2141.977
1093.469, 2138.457
1093.951, 2136.916
1094.434, 2138.624
1094.916, 2149.522
1095.398, 2159.941
1095.880, 2160.505
1096.362, 2151.113
1096.844, 2147.252
1097.326, 2149.091
1097.808, 2153.786
1098.291, 2163.159
1098.773, 2170.996
1099.255, 2166.115
1099.737, 2155.508
1100.219, 2151.642
1100.701, 2161.662
1101.183, 2170.762
1101.665, 2179.848
1102.147, 2185.196
1102.630, 2181.145
1103.112, 2171.497
1103.594, 2163.807
1104.076, 2158.297
1104.558, 2153.318
1105.040, 2146.599
1105.522, 2142.312
1106.004, 2140.545
1106.486, 2142.533
1106.969, 2153.580
1107.451, 2171.446
1107.933, 2183.158
1108.415, 2185.528
1108.897, 2186.328
1109.379, 2195.993
1109.861, 2201.341
1110.343, 2188.400
1110.826, 2159.946
1111.308, 2149.279
1111.790, 2157.186
1112.272, 2169.528
1112.754, 2184.494
1113.236, 2194.917
1113.718, 2187.500
1114.200, 2173.001
1114.682, 2167.711
1115.165, 2180.340
1115.647, 2185.117
1116.129, 2179.967
1116.611, 2173.574
1117.093, 2171.888
1117.575, 2173.706
1118.057, 2179.389
1118.539, 2187.089
1119.021, 2190.096
1119.504, 2177.265
1119.986, 2172.726
1120.468, 2183.476
1120.950, 2198.717
1121.432, 2204.917
1121.914, 2202.994
1122.396, 2192.882
1122.878, 2174.585
1123.361, 2163.284
1123.843, 2174.210
1124.325, 2186.770
1124.807, 2192.633
1125.289, 2192.398
1125.771, 2184.790
1126.253, 2170.959
1126.735, 2166.878
1127.218, 2180.179
1127.700, 2193.532
1128.182, 2189.665
1128.664, 2181.741
1129.146, 2182.268
1129.628, 2191.646
1130.110, 2206.013
1130.592, 2226.353
1131.074, 2240.554
1131.557, 2238.305
1132.039, 2230.927
1132.521, 2232.721
1133.003, 2238.545
1133.485, 2238.942
1133.967, 2229.006
1134.449, 2220.832
1134.931, 2214.664
1135.413, 2210.254
1135.896, 2205.789
1136.378, 2203.890
1136.860, 2211.688
1137.342, 2227.006
1137.824, 2238.859
1138.306, 2245.502
1138.788, 2244.251
1139.270, 2230.231
1139.752, 2215.031
1140.235, 2220.648
1140.717, 2238.282
1141.199, 2240.933
1141.681, 2224.652
1142.163, 2212.731
1142.645, 2220.953
1143.127, 2230.499
1143.609, 2233.704
1144.092, 2232.617
1144.574, 2232.349
1145.056, 2233.143
1145.538, 2237.603
1146.020, 2249.319
1146.502, 2254.931
1146.984, 2240.363
1147.466, 2220.897
1147.948, 2207.284
1148.431, 2199.632
1148.913, 2196.470
1149.395, 2197.770
1149.877, 2203.720
1150.359, 2217.005
1150.841, 2231.305
1151.323, 2244.811
1151.805, 2254.798
1152.287, 2256.971
1152.770, 2248.885
1153.252, 2242.023
1153.734, 2236.215
1154.216, 2232.788
1154.698, 2236.525
1155.180, 2240.164
1155.662, 2232.562
1156.144, 2218.356
1156.627, 2213.707
1157.109, 2224.299
1157.591, 2231.489
1158.073, 2232.655
1158.555, 2232.944
1159.037, 2237.939
1159.519, 2245.576
1160.001, 2255.479
1160.484, 2266.724
1160.966, 2268.600
1161.448, 2253.665
1161.930, 2240.126
1162.412, 2231.147
1162.894, 2226.883
1163.376, 2231.319
1163.858, 2239.661
1164.340, 2240.423
1164.823, 2230.078
1165.305, 2225.636
1165.787, 2236.055
1166.269, 2246.701
1166.751, 2252.731
1167.233, 2254.661
1167.715, 2251.307
1168.197, 2244.840
1168.679, 2242.281
1169.162, 2247.779
1169.644, 2252.343
1170.126, 2251.209
1170.608, 2249.853
1171.090, 2251.964
1171.572, 2256.657
1172.054, 2257.530
1172.536, 2255.552
1173.019, 2256.193
1173.501, 2265.301
1173.983, 2273.476
1174.465, 2278.065
1174.947, 2279.035
1175.429, 2274.622
1175.911, 2265.143
1176.393, 2261.494
1176.875, 2263.602
1177.358, 2265.144
1177.840, 2259.461
1178.322, 2255.037
1178.804, 2257.434
1179.286, 2263.913
1179.768, 2271.146
1180.250, 2279.160
1180.732, 2282.843
1181.214, 2281.607
1181.697, 2277.213
1182.179, 2261.594
1182.661, 2251.848
1183.143, 2271.272
1183.625, 2306.238
1184.107, 2306.665
1184.589, 2269.322
1185.071, 2245.172
1185.554, 2244.450
1186.036, 2255.292
1186.518, 2278.192
1187.000, 2298.950
1187.482, 2302.206
1187.964, 2288.961
1188.446, 2275.855
1188.928, 2261.804
1189.411, 2258.447
1189.893, 2272.962
1190.375, 2289.561
1190.857, 2291.007
1191.339, 2285.147
1191.821, 2280.189
1192.303, 2277.104
1192.785, 2272.734
1193.267, 2266.208
1193.750, 2264.718
1194.232, 2276.381
1194.714, 2287.352
1195.196, 2276.040
1195.678, 2255.445
1196.160, 2245.574
1196.642, 2252.982
1197.124, 2257.538
1197.606, 2258.582
1198.089, 2260.304
1198.571, 2267.608
1199.053, 2275.292
1199.535, 2274.992
1200.017, 2270.375
1200.499, 2269.441
1200.981, 2276.223
1201.463, 2279.645
1201.945, 2278.692
1202.428, 2277.592
1202.910, 2277.804
1203.392, 2281.287
1203.874, 2297.219
1204.356, 2319.203
1204.838, 2323.125
1205.320, 2293.430
1205.802, 2276.407
1206.285, 2277.532
1206.767, 2286.579
1207.249, 2298.407
1207.731, 2308.328
1208.213, 2307.021
1208.695, 2296.198
1209.177, 2290.965
1209.659, 2293.514
1210.141, 2301.399
1210.624, 2316.526
1211.106, 2329.461
1211.588, 2326.031
1212.070, 2314.625
1212.552, 2305.063
1213.034, 2298.739
1213.516, 2299.780
1213.998, 2312.283
1214.480, 2321.015
1214.963, 2321.983
1215.445, 2318.361
1215.927, 2313.983
1216.409, 2308.484
1216.891, 2299.081
1217.373, 2284.457
1217.855, 2282.309
1218.337, 2298.856
1218.820, 2312.821
1219.302, 2316.921
1219.784, 2314.909
1220.266, 2308.885
1220.748, 2302.358
1221.230, 2301.704
1221.712, 2310.182
1222.194, 2314.223
1222.677, 2312.827
1223.159, 2308.058
1223.641, 2299.080
1224.123, 2289.682
1224.605, 2283.291
1225.087, 2281.428
1225.569, 2287.872
1226.051, 2309.362
1226.533, 2321.776
1227.016, 2322.559
1227.498, 2322.085
1227.980, 2328.312
1228.462, 2334.676
1228.944, 2326.673
1229.426, 2312.708
1229.908, 2308.757
1230.390, 2324.845
1230.872, 2336.055
1231.355, 2341.666
1231.837, 2345.127
1232.319, 2352.150
1232.801, 2355.942
1233.283, 2339.672
1233.765, 2314.284
1234.247, 2305.450
1234.729, 2324.781
1235.212, 2340.946
1235.694, 2353.675
1236.176, 2360.628
1236.658, 2353.585
1237.140, 2344.501
1237.622, 2350.402
1238.104, 2365.582
1238.586, 2372.650
1239.068, 2367.222
1239.551, 2365.453
1240.033, 2369.151
1240.515, 2372.165
1240.997, 2367.151
1241.479, 2360.532
1241.961, 2361.927
1242.443, 2367.280
1242.925, 2359.787
1243.407, 2332.324
1243.890, 2327.518
1244.372, 2352.390
1244.854, 2379.865
1245.336, 2385.216
1245.818, 2381.208
1246.300, 2374.884
1246.782, 2368.665
1247.264, 2370.874
1247.747, 2383.442
1248.229, 2386.844
1248.711, 2377.421
1249.193, 2365.098
1249.675, 2352.591
1250.157, 2345.741
1250.639, 2353.248
1251.121, 2370.351
1251.604, 2383.147
1252.086, 2391.852
1252.568, 2385.782
1253.050, 2360.887
1253.532, 2340.934
1254.014, 2349.957
1254.496, 2366.734
1254.978, 2378.907
1255.460, 2385.882
1255.943, 2386.488
1256.425, 2380.626
1256.907, 2364.518
1257.389, 2333.853
1257.871, 2315.522
1258.353, 2342.565
1258.835, 2372.636
1259.317, 2380.016
1259.799, 2370.963
1260.281, 2365.314
1260.764, 2363.231
1261.246, 2368.573
1261.728, 2385.788
1262.210, 2391.975
1262.692, 2354.875
1263.174, 2327.704
1263.656, 2340.409
1264.138, 2378.184
1264.621, 2402.463
1265.103, 2412.895
1265.585, 2404.994
1266.067, 2372.421
1266.549, 2344.479
1267.031, 2325.833
1267.513, 2322.562
1267.995, 2343.224
1268.478, 2375.698
1268.960, 2391.576
1269.442, 2394.484
1269.924, 2391.625
1270.406, 2381.093
1270.888, 2378.263
1271.370, 2385.497
1271.852, 2399.303
1272.334, 2422.804
##END=



