##NAMES=Eclarite
##RRUFFID=R110124
##IDEAL CHEMISTRY=(Cu,Fe)Pb_9_Bi_12_S_28_
##LOCALITY=Crabtree quarry, Wake County, North Carolina, USA
##OWNER=RRUFF
##SOURCE=Mark Feinglos 
##DESCRIPTION=Mass of tin-white metallic elongated crystals associated with quartz
##STATUS=The identification of this mineral has been confirmed only by single crystal X-ray diffraction.
##URL=rruff.info/R110124
90.49219, 103.8192
90.97430, 103.6796
91.45642, 103.8836
91.93854, 104.3625
92.42065, 104.5435
92.90277, 104.0186
93.38489, 102.8596
93.86700, 101.1949
94.34912, 98.67296
94.83124, 95.80336
95.31335, 93.69505
95.79547, 92.38741
96.27759, 91.52064
96.75970, 90.84464
97.24182, 90.33512
97.72394, 89.62834
98.20605, 88.30259
98.68817, 86.44895
99.17029, 85.35873
99.65240, 85.22663
100.1345, 85.55016
100.6166, 85.34536
101.0988, 84.50838
101.5809, 83.58679
102.0630, 82.96378
102.5451, 82.77858
103.0272, 82.13207
103.5093, 80.80569
103.9915, 78.99342
104.4736, 77.43810
104.9557, 76.17612
105.4378, 75.13783
105.9199, 74.29977
106.4020, 73.75333
106.8842, 73.22199
107.3663, 72.63656
107.8484, 71.99927
108.3305, 71.52202
108.8126, 71.47261
109.2947, 71.43420
109.7769, 71.02200
110.2590, 69.76162
110.7411, 68.60767
111.2232, 67.69033
111.7053, 67.00057
112.1874, 66.60178
112.6696, 66.94108
113.1517, 67.46938
113.6338, 67.47512
114.1159, 66.24065
114.5980, 64.97095
115.0801, 64.20496
115.5623, 64.42948
116.0444, 64.13339
116.5265, 62.29627
117.0086, 59.63170
117.4907, 57.68982
117.9728, 57.68903
118.4550, 58.15191
118.9371, 58.11919
119.4192, 57.08887
119.9013, 55.99937
120.3834, 55.35866
120.8655, 55.07810
121.3477, 54.80956
121.8298, 54.34269
122.3119, 53.79758
122.7940, 53.30925
123.2761, 53.01833
123.7582, 52.70966
124.2404, 52.09323
124.7225, 51.20198
125.2046, 50.44052
125.6867, 50.34027
126.1688, 50.58077
126.6509, 50.58129
127.1331, 49.98793
127.6152, 49.06895
128.0973, 48.11731
128.5794, 47.11475
129.0615, 46.30138
129.5436, 46.13359
130.0258, 46.45440
130.5079, 46.58186
130.9900, 45.96122
131.4721, 44.88515
131.9542, 44.27920
132.4363, 44.23854
132.9185, 44.46591
133.4006, 44.57398
133.8827, 44.56244
134.3648, 44.46500
134.8469, 44.40647
135.3290, 44.35673
135.8112, 43.76126
136.2933, 42.37365
136.7754, 40.68116
137.2575, 39.93620
137.7396, 40.32548
138.2217, 40.80917
138.7039, 40.53332
139.1860, 39.28688
139.6681, 38.89161
140.1502, 39.94307
140.6323, 41.93076
141.1144, 42.51946
141.5966, 41.18789
142.0787, 39.44639
142.5608, 38.48246
143.0429, 38.61579
143.5250, 38.61980
144.0071, 38.23152
144.4893, 37.47973
144.9714, 37.04560
145.4535, 37.13139
145.9356, 37.34119
146.4177, 37.31213
146.8998, 36.98273
147.3820, 36.50751
147.8641, 35.84013
148.3462, 34.92737
148.8283, 34.20858
149.3104, 33.47459
149.7925, 33.02729
150.2747, 33.22627
150.7568, 34.70480
151.2389, 36.16845
151.7210, 37.33973
152.2031, 38.11633
152.6852, 38.90593
153.1674, 39.12493
153.6495, 39.49111
154.1316, 41.03777
154.6137, 44.34309
155.0958, 48.40931
155.5779, 53.05336
156.0601, 58.57570
156.5422, 63.90311
157.0243, 68.15942
157.5064, 72.12217
157.9885, 77.29705
158.4706, 84.21323
158.9528, 92.26393
159.4349, 101.2013
159.9170, 111.0911
160.3991, 121.6806
160.8812, 132.6231
161.3633, 144.1758
161.8455, 157.0139
162.3276, 171.9659
162.8097, 187.8308
163.2918, 204.2041
163.7739, 221.0906
164.2560, 238.1195
164.7382, 255.1768
165.2203, 272.2584
165.7024, 289.3491
166.1845, 307.5568
166.6666, 325.3432
167.1487, 341.1206
167.6309, 354.1996
168.1130, 365.6791
168.5951, 375.8019
169.0772, 384.6963
169.5593, 392.8360
170.0414, 400.0463
170.5236, 406.8227
171.0057, 413.6474
171.4878, 420.3910
171.9699, 427.5732
172.4520, 435.4632
172.9341, 444.0921
173.4163, 453.4928
173.8984, 463.5073
174.3805, 474.4278
174.8626, 486.3914
175.3447, 500.1862
175.8268, 514.8732
176.3090, 529.1767
176.7911, 542.9623
177.2732, 557.6557
177.7553, 572.7539
178.2374, 587.0036
178.7195, 600.2379
179.2017, 612.4171
179.6838, 623.8094
180.1659, 634.2736
180.6480, 643.8704
181.1301, 653.4496
181.6122, 664.8168
182.0944, 677.2625
182.5765, 688.1152
183.0586, 695.8714
183.5407, 701.3818
184.0228, 706.5362
184.5049, 711.2545
184.9871, 716.1158
185.4692, 722.2618
185.9513, 729.3889
186.4334, 735.5191
186.9155, 739.1656
187.3976, 741.0563
187.8798, 743.6835
188.3619, 747.1736
188.8440, 751.1441
189.3261, 755.1456
189.8082, 759.1945
190.2903, 763.0803
190.7725, 766.6548
191.2546, 769.9990
191.7367, 773.2715
192.2188, 776.4900
192.7009, 779.6603
193.1830, 782.7292
193.6652, 785.6852
194.1473, 788.5771
194.6294, 791.2172
195.1115, 793.6578
195.5936, 796.7317
196.0757, 800.6364
196.5579, 804.9182
197.0400, 808.7463
197.5221, 812.1028
198.0042, 815.2217
198.4863, 818.1902
198.9684, 820.9954
199.4506, 823.9851
199.9327, 827.2733
200.4148, 830.6119
200.8969, 833.3821
201.3790, 835.5546
201.8611, 837.5070
202.3433, 839.2165
202.8254, 840.5886
203.3075, 843.0582
203.7896, 847.1854
204.2717, 852.0371
204.7538, 855.0247
205.2360, 855.7656
205.7181, 856.0244
206.2002, 856.7625
206.6823, 858.0095
207.1644, 859.4349
207.6465, 861.0233
208.1287, 862.7413
208.6108, 864.6299
209.0929, 866.8035
209.5750, 868.8174
210.0571, 870.4475
210.5392, 871.7561
211.0214, 872.3547
211.5035, 871.8160
211.9856, 870.6877
212.4677, 870.9781
212.9498, 873.1622
213.4319, 875.7540
213.9141, 878.0226
214.3962, 880.1076
214.8783, 881.3710
215.3604, 881.3928
215.8425, 880.6110
216.3246, 880.7978
216.8067, 882.2031
217.2889, 884.0742
217.7710, 886.0620
218.2531, 888.3334
218.7352, 890.1772
219.2173, 891.4198
219.6994, 892.1824
220.1816, 892.9960
220.6637, 893.8126
221.1458, 894.7333
221.6279, 895.8655
222.1100, 897.4062
222.5921, 898.6281
223.0743, 899.4061
223.5564, 899.8256
224.0385, 900.3090
224.5206, 900.8898
225.0027, 901.5014
225.4848, 902.0604
225.9670, 902.3882
226.4491, 903.2087
226.9312, 905.0175
227.4133, 907.4227
227.8954, 908.4466
228.3775, 907.3743
228.8597, 905.9557
229.3418, 905.2924
229.8239, 905.8213
230.3060, 906.0447
230.7881, 905.6472
231.2702, 904.8133
231.7524, 904.5119
232.2345, 904.9856
232.7166, 905.6000
233.1987, 906.0134
233.6808, 906.2684
234.1629, 906.1864
234.6451, 905.7927
235.1272, 905.0402
235.6093, 903.6866
236.0914, 901.3736
236.5735, 898.9548
237.0556, 896.9152
237.5378, 895.4394
238.0199, 893.9990
238.5020, 892.7112
238.9841, 891.4644
239.4662, 889.7706
239.9483, 887.3527
240.4305, 884.9207
240.9126, 882.9368
241.3947, 882.0002
241.8768, 880.1855
242.3589, 876.9684
242.8410, 872.8633
243.3232, 869.6292
243.8053, 867.6007
244.2874, 865.9936
244.7695, 864.5412
245.2516, 863.6518
245.7337, 861.9189
246.2159, 859.1139
246.6980, 855.4184
247.1801, 851.4579
247.6622, 846.9634
248.1443, 842.5169
248.6264, 838.4738
249.1086, 835.0533
249.5907, 831.4346
250.0728, 827.5399
250.5549, 823.4670
251.0370, 819.5034
251.5191, 815.8307
252.0013, 812.0016
252.4834, 807.7864
252.9655, 803.2103
253.4476, 798.3354
253.9297, 793.1097
254.4118, 787.6340
254.8940, 781.9068
255.3761, 775.5617
255.8582, 769.5834
256.3403, 764.5497
256.8224, 760.9247
257.3046, 756.6541
257.7867, 751.4408
258.2688, 745.7882
258.7509, 740.8255
259.2330, 737.1259
259.7151, 733.0203
260.1973, 727.6619
260.6794, 720.7432
261.1615, 714.3232
261.6436, 708.3712
262.1257, 703.0222
262.6078, 698.8174
263.0900, 696.5831
263.5721, 693.6381
264.0542, 688.8987
264.5363, 681.9631
265.0184, 675.6072
265.5005, 669.8233
265.9827, 664.5222
266.4648, 659.4383
266.9469, 654.5349
267.4290, 650.0877
267.9111, 646.3282
268.3932, 643.3464
268.8754, 639.5826
269.3575, 634.6329
269.8396, 629.5013
270.3217, 625.7330
270.8038, 623.7755
271.2859, 621.4281
271.7681, 618.0608
272.2502, 613.7117
272.7323, 609.0685
273.2144, 604.0634
273.6965, 599.0537
274.1786, 594.4608
274.6608, 590.2831
275.1429, 586.3170
275.6250, 582.5101
276.1071, 578.8865
276.5892, 575.5358
277.0714, 572.6050
277.5535, 569.6806
278.0356, 566.3171
278.5177, 562.4578
278.9998, 558.7537
279.4819, 555.4752
279.9641, 552.4111
280.4462, 548.7236
280.9283, 544.3006
281.4104, 539.6765
281.8925, 535.0987
282.3746, 530.5646
282.8568, 526.5113
283.3389, 523.1581
283.8210, 520.2346
284.3031, 516.9425
284.7852, 513.2379
285.2673, 509.5486
285.7495, 506.1064
286.2316, 502.9149
286.7137, 500.0132
287.1958, 497.5585
287.6779, 495.1810
288.1600, 491.8871
288.6422, 487.6551
289.1243, 483.6237
289.6064, 480.7655
290.0885, 478.8282
290.5706, 476.5777
291.0527, 473.7422
291.5349, 470.9203
292.0170, 469.3446
292.4991, 468.8989
292.9812, 468.1993
293.4633, 466.4653
293.9454, 463.8872
294.4276, 460.9670
294.9097, 457.6929
295.3918, 454.3856
295.8739, 451.3067
296.3560, 448.5225
296.8381, 446.1929
297.3203, 444.6667
297.8024, 443.6307
298.2845, 442.4903
298.7666, 441.2396
299.2487, 439.7940
299.7308, 438.1328
300.2130, 436.1976
300.6951, 433.8439
301.1772, 430.6797
301.6593, 427.2367
302.1414, 424.0619
302.6235, 421.1874
303.1057, 418.8904
303.5878, 417.8081
304.0699, 417.4499
304.5520, 416.9712
305.0341, 416.3941
305.5162, 415.3110
305.9984, 412.8164
306.4805, 409.1542
306.9626, 405.8239
307.4447, 404.2758
307.9268, 403.5630
308.4089, 402.4703
308.8911, 400.5092
309.3732, 398.3576
309.8553, 396.5210
310.3374, 394.9467
310.8195, 393.4164
311.3016, 391.7945
311.7838, 390.1907
312.2659, 388.6950
312.7480, 387.3640
313.2301, 386.0630
313.7122, 384.6163
314.1943, 383.1216
314.6765, 381.8181
315.1586, 381.1064
315.6407, 380.4175
316.1228, 379.3261
316.6049, 377.6820
317.0870, 376.0814
317.5692, 375.0890
318.0513, 374.2469
318.5334, 372.9185
319.0155, 370.1747
319.4976, 367.5231
319.9797, 365.6731
320.4619, 364.7192
320.9440, 363.9561
321.4261, 363.6207
321.9082, 363.1906
322.3903, 362.1700
322.8724, 359.7552
323.3546, 357.4355
323.8367, 355.6735
324.3188, 354.4534
324.8009, 353.1113
325.2830, 351.2684
325.7651, 349.4579
326.2473, 348.0324
326.7294, 347.2738
327.2115, 346.6273
327.6936, 346.2793
328.1757, 346.1026
328.6578, 345.4204
329.1400, 343.5061
329.6221, 341.7016
330.1042, 340.6182
330.5863, 341.2094
331.0684, 340.9149
331.5505, 339.0874
332.0327, 336.4896
332.5148, 334.8813
332.9969, 335.0422
333.4790, 335.1187
333.9611, 334.3712
334.4432, 332.4468
334.9254, 331.0848
335.4075, 330.5161
335.8896, 330.3117
336.3717, 329.8960
336.8538, 329.2079
337.3359, 328.4496
337.8180, 327.6627
338.3001, 326.8528
338.7823, 326.1276
339.2644, 325.6277
339.7465, 324.9701
340.2286, 323.6134
340.7107, 321.3881
341.1928, 319.6191
341.6750, 318.7487
342.1571, 318.4909
342.6392, 317.7320
343.1213, 316.3882
343.6034, 314.9735
344.0855, 313.6234
344.5677, 312.3757
345.0498, 312.1710
345.5319, 313.5854
346.0140, 315.3328
346.4961, 314.5830
346.9782, 311.4370
347.4604, 308.2596
347.9425, 306.4583
348.4246, 305.7279
348.9067, 305.0456
349.3888, 304.3474
349.8709, 303.7455
350.3531, 303.5241
350.8352, 303.5567
351.3173, 303.3752
351.7994, 302.5562
352.2815, 301.4652
352.7636, 300.7682
353.2458, 300.4619
353.7279, 300.1381
354.2100, 299.2456
354.6921, 298.1262
355.1742, 297.4273
355.6563, 297.8288
356.1385, 298.2023
356.6206, 297.1309
357.1027, 294.9144
357.5848, 293.0819
358.0669, 292.8783
358.5490, 293.3093
359.0312, 293.3778
359.5133, 292.6527
359.9954, 292.0892
360.4775, 292.7778
360.9596, 294.0352
361.4417, 294.4035
361.9239, 292.5627
362.4060, 290.2488
362.8881, 288.3716
363.3702, 287.0750
363.8523, 285.9664
364.3344, 284.8619
364.8166, 283.8979
365.2987, 283.2244
365.7808, 282.9870
366.2629, 282.9525
366.7450, 283.2286
367.2271, 283.8055
367.7093, 284.0197
368.1914, 283.7032
368.6735, 283.0542
369.1556, 282.1878
369.6377, 280.7111
370.1198, 279.5392
370.6020, 278.8545
371.0841, 278.5163
371.5662, 278.0105
372.0483, 277.1837
372.5304, 276.3772
373.0125, 275.7238
373.4947, 275.2448
373.9768, 274.8732
374.4589, 274.6358
374.9410, 274.4799
375.4231, 274.3620
375.9052, 274.3598
376.3874, 274.1886
376.8695, 273.7528
377.3516, 273.0549
377.8337, 272.2686
378.3158, 271.3478
378.7979, 270.4557
379.2801, 269.7098
379.7622, 269.0994
380.2443, 268.8678
380.7264, 269.2867
381.2085, 269.9248
381.6906, 269.3722
382.1728, 267.6024
382.6549, 265.9897
383.1370, 265.5499
383.6191, 266.0618
384.1012, 266.7336
384.5833, 267.5213
385.0655, 268.3316
385.5476, 269.3905
386.0297, 270.4703
386.5118, 270.6869
386.9939, 268.7963
387.4760, 266.1228
387.9582, 264.6538
388.4403, 264.4286
388.9224, 264.5318
389.4045, 264.4156
389.8866, 264.1172
390.3687, 263.6664
390.8509, 262.8561
391.3330, 262.1469
391.8151, 262.1657
392.2972, 262.6656
392.7793, 262.6386
393.2614, 260.8999
393.7436, 258.8869
394.2257, 257.6177
394.7078, 257.4913
395.1899, 257.5976
395.6720, 257.7585
396.1541, 257.9197
396.6363, 257.9956
397.1184, 257.9667
397.6005, 257.8446
398.0826, 257.6221
398.5647, 257.2926
399.0468, 256.9139
399.5290, 256.2940
400.0111, 255.7382
400.4932, 255.4958
400.9753, 255.8844
401.4574, 256.1562
401.9395, 256.1240
402.4217, 255.8999
402.9038, 256.0645
403.3859, 256.9906
403.8680, 257.7608
404.3501, 257.8188
404.8322, 256.8008
405.3144, 256.3930
405.7965, 256.7971
406.2786, 257.5750
406.7607, 257.9661
407.2428, 257.8594
407.7249, 257.9934
408.2071, 258.7922
408.6892, 260.0781
409.1713, 260.6227
409.6534, 260.3432
410.1355, 259.7963
410.6176, 259.3506
411.0998, 259.0310
411.5819, 259.0462
412.0640, 259.5276
412.5461, 260.2058
413.0282, 260.6518
413.5103, 260.8968
413.9925, 261.1389
414.4746, 261.4983
414.9567, 261.9293
415.4388, 262.3412
415.9209, 262.7224
416.4030, 263.1581
416.8852, 263.5971
417.3673, 264.1654
417.8494, 265.0645
418.3315, 267.0159
418.8136, 268.8033
419.2957, 269.4090
419.7779, 269.0193
420.2600, 268.8970
420.7421, 269.5778
421.2242, 270.7767
421.7063, 272.3115
422.1884, 274.3769
422.6706, 276.3887
423.1527, 278.4371
423.6348, 280.3257
424.1169, 281.6981
424.5990, 281.4367
425.0811, 281.6862
425.5633, 283.3889
426.0454, 286.8618
426.5275, 289.5082
427.0096, 290.8709
427.4917, 291.7841
427.9738, 292.9089
428.4560, 294.2519
428.9381, 295.7845
429.4202, 297.5687
429.9023, 299.5016
430.3844, 301.3430
430.8665, 303.0807
431.3487, 304.7285
431.8308, 306.2827
432.3129, 307.7358
432.7950, 309.1551
433.2771, 310.5355
433.7592, 311.8935
434.2414, 313.4576
434.7235, 315.1717
435.2056, 316.3023
435.6877, 316.4724
436.1698, 316.0230
436.6519, 315.6237
437.1341, 315.2708
437.6162, 314.8736
438.0983, 314.2778
438.5804, 313.6104
439.0625, 313.1844
439.5446, 313.1872
440.0268, 312.9752
440.5089, 311.8453
440.9910, 310.0737
441.4731, 308.2495
441.9552, 306.7852
442.4373, 305.2173
442.9195, 303.1136
443.4016, 300.4777
443.8837, 297.9526
444.3658, 296.0951
444.8479, 294.2753
445.3300, 291.9996
445.8122, 288.3470
446.2943, 285.2770
446.7764, 283.5689
447.2585, 282.6792
447.7406, 281.2185
448.2227, 278.3890
448.7049, 275.6801
449.1870, 273.5874
449.6691, 272.3007
450.1512, 270.5840
450.6333, 268.2184
451.1154, 265.6927
451.5976, 263.5078
452.0797, 261.8376
452.5618, 259.9960
453.0439, 257.7919
453.5260, 255.4096
454.0081, 253.3337
454.4903, 251.6098
454.9724, 249.8562
455.4545, 247.5395
455.9366, 244.8627
456.4187, 243.3511
456.9008, 243.2247
457.3830, 243.3631
457.8651, 242.3351
458.3472, 240.4689
458.8293, 238.8845
459.3114, 238.0245
459.7935, 237.5173
460.2757, 237.0601
460.7578, 236.5947
461.2399, 235.8329
461.7220, 234.1272
462.2041, 232.2962
462.6862, 231.3110
463.1684, 231.5609
463.6505, 231.5342
464.1326, 229.9272
464.6147, 227.7568
465.0968, 226.3141
465.5789, 226.8595
466.0611, 227.3411
466.5432, 227.0023
467.0253, 225.9278
467.5074, 225.1829
467.9895, 225.5021
468.4716, 225.6850
468.9538, 225.1124
469.4359, 223.2831
469.9180, 221.8066
470.4001, 220.7058
470.8822, 219.9234
471.3643, 219.4063
471.8465, 219.2401
472.3286, 219.0924
472.8107, 218.9302
473.2928, 218.7206
473.7749, 218.1722
474.2570, 217.2145
474.7392, 216.2954
475.2213, 215.9128
475.7034, 215.9438
476.1855, 215.4718
476.6676, 214.3093
477.1497, 212.9491
477.6319, 211.9194
478.1140, 211.2261
478.5961, 210.9118
479.0782, 211.4676
479.5603, 212.1226
480.0424, 211.9106
480.5246, 210.9057
481.0067, 209.7312
481.4888, 208.4915
481.9709, 207.4140
482.4530, 206.7669
482.9352, 206.7969
483.4173, 206.7624
483.8994, 206.3680
484.3815, 205.7214
484.8636, 204.9921
485.3457, 203.9167
485.8279, 203.0727
486.3100, 202.7238
486.7921, 202.8740
487.2742, 202.8652
487.7563, 202.7034
488.2384, 202.3827
488.7206, 201.8676
489.2027, 201.0280
489.6848, 200.3915
490.1669, 200.0875
490.6490, 199.8597
491.1311, 199.2399
491.6133, 198.1710
492.0954, 197.1283
492.5775, 196.1750
493.0596, 195.3802
493.5417, 195.1399
494.0238, 195.4627
494.5060, 195.6989
494.9881, 195.1811
495.4702, 194.2131
495.9523, 193.5520
496.4344, 193.3232
496.9165, 193.2847
497.3987, 193.3717
497.8808, 193.4597
498.3629, 193.3126
498.8450, 192.6552
499.3271, 191.8833
499.8092, 191.2382
500.2914, 190.7003
500.7735, 190.1985
501.2556, 189.6436
501.7377, 189.1529
502.2198, 188.8697
502.7019, 189.0552
503.1841, 188.8033
503.6662, 187.5312
504.1483, 185.9617
504.6304, 184.9510
505.1125, 184.8179
505.5946, 184.7608
506.0768, 184.7715
506.5589, 184.7726
507.0410, 184.3063
507.5231, 183.1982
508.0052, 182.1102
508.4873, 181.3562
508.9695, 180.9464
509.4516, 180.7656
509.9337, 180.8601
510.4158, 180.9787
510.8979, 180.8092
511.3800, 180.4029
511.8622, 180.0197
512.3443, 179.8020
512.8264, 179.5281
513.3085, 178.6328
513.7906, 177.3508
514.2728, 176.5233
514.7549, 177.1389
515.2370, 178.0808
515.7191, 178.4469
516.2012, 178.1584
516.6833, 177.4848
517.1655, 176.2075
517.6476, 174.7859
518.1297, 173.6106
518.6118, 172.7287
519.0939, 172.1411
519.5760, 171.8512
520.0582, 171.8657
520.5403, 172.2124
521.0224, 173.4927
521.5045, 174.2463
521.9866, 173.9115
522.4688, 172.4864
522.9509, 171.4340
523.4330, 170.8062
523.9151, 170.4067
524.3972, 170.1262
524.8793, 169.9672
525.3615, 169.7854
525.8436, 169.5353
526.3257, 169.3397
526.8078, 169.5769
527.2899, 170.1043
527.7720, 170.2263
528.2542, 169.5026
528.7363, 168.3563
529.2184, 167.1159
529.7005, 165.8679
530.1826, 165.0219
530.6647, 165.1594
531.1469, 165.6142
531.6290, 165.8203
532.1111, 165.6650
532.5932, 165.4336
533.0753, 165.4438
533.5574, 165.3499
534.0396, 164.7935
534.5217, 162.9637
535.0038, 161.5482
535.4859, 160.8996
535.9680, 160.8344
536.4501, 160.7977
536.9323, 160.8751
537.4144, 160.8268
537.8965, 160.4567
538.3786, 159.7460
538.8607, 159.6772
539.3428, 160.4983
539.8250, 161.1916
540.3071, 160.5146
540.7892, 158.6585
541.2713, 157.4040
541.7534, 157.0910
542.2355, 157.2766
542.7177, 157.5267
543.1998, 157.7927
543.6819, 157.9120
544.1640, 157.7665
544.6461, 157.4721
545.1282, 157.1047
545.6104, 156.6722
546.0925, 156.2127
546.5746, 155.6415
547.0567, 155.1265
547.5388, 154.8009
548.0209, 154.7497
548.5031, 154.6687
548.9852, 154.4060
549.4673, 154.1239
549.9494, 154.0116
550.4315, 154.4298
550.9136, 154.4188
551.3958, 153.5603
551.8779, 152.2846
552.3600, 152.0410
552.8421, 153.1862
553.3242, 154.1003
553.8063, 154.0007
554.2885, 153.0303
554.7706, 152.2632
555.2527, 151.6973
555.7348, 151.3602
556.2169, 151.5520
556.6990, 151.9843
557.1812, 151.8157
557.6633, 150.7845
558.1454, 149.6503
558.6275, 149.1343
559.1096, 149.0329
559.5917, 148.9756
560.0739, 148.8421
560.5560, 148.6933
561.0381, 148.5246
561.5202, 148.3563
562.0023, 148.2683
562.4844, 148.5043
562.9666, 148.6304
563.4487, 148.3953
563.9308, 147.6981
564.4129, 147.1504
564.8950, 146.8188
565.3771, 146.5610
565.8593, 146.2651
566.3414, 145.9304
566.8235, 145.5325
567.3056, 145.0208
567.7877, 144.5113
568.2698, 144.2941
568.7520, 144.3438
569.2341, 144.2265
569.7162, 143.5452
570.1983, 142.7528
570.6804, 142.8262
571.1625, 143.6508
571.6447, 144.4154
572.1268, 144.7027
572.6089, 144.6130
573.0910, 144.1018
573.5731, 143.0840
574.0552, 142.2845
574.5374, 142.2867
575.0195, 142.5287
575.5016, 142.4842
575.9837, 141.5639
576.4658, 140.9578
576.9479, 140.9556
577.4301, 141.2829
577.9122, 141.4180
578.3943, 141.3361
578.8764, 141.0913
579.3585, 140.6370
579.8406, 140.0163
580.3228, 139.5195
580.8049, 139.1414
581.2870, 138.9199
581.7691, 139.0090
582.2512, 139.2976
582.7333, 139.2480
583.2155, 138.7922
583.6976, 138.3957
584.1797, 138.6233
584.6617, 139.1764
585.1439, 139.5393
585.6260, 139.4463
586.1081, 139.3644
586.5902, 139.7593
587.0723, 140.3504
587.5544, 140.5904
588.0366, 139.7410
588.5187, 139.1092
589.0008, 139.3385
589.4829, 140.3639
589.9650, 140.7826
590.4471, 140.0987
590.9293, 139.4434
591.4114, 139.4072
591.8935, 140.1046
592.3756, 140.5836
592.8577, 140.8251
593.3398, 140.8971
593.8220, 140.8328
594.3041, 140.6477
594.7862, 140.4098
595.2683, 140.0576
595.7504, 139.8594
596.2325, 140.2883
596.7147, 141.1602
597.1968, 141.9835
597.6789, 142.6331
598.1610, 143.0904
598.6431, 143.2276
599.1252, 143.1213
599.6074, 143.1226
600.0895, 143.6788
600.5716, 144.0998
601.0537, 143.9395
601.5358, 142.9650
602.0179, 142.3909
602.5001, 142.2568
602.9822, 142.5002
603.4643, 143.2241
603.9464, 144.7384
604.4285, 145.5049
604.9106, 145.3366
605.3928, 144.5843
605.8749, 143.5265
606.3570, 142.2162
606.8391, 141.4457
607.3212, 141.7025
607.8033, 142.3049
608.2855, 142.1979
608.7676, 141.5246
609.2497, 140.8108
609.7318, 140.3213
610.2139, 139.9275
610.6960, 139.6525
611.1782, 139.4770
611.6603, 138.9832
612.1424, 137.4986
612.6245, 136.0267
613.1066, 135.2418
613.5887, 135.6114
614.0709, 135.6844
614.5530, 135.3411
615.0351, 134.8125
615.5172, 134.3949
615.9993, 134.1987
616.4814, 133.5216
616.9636, 132.0779
617.4457, 130.3894
617.9278, 129.4912
618.4099, 129.3241
618.8920, 129.2735
619.3741, 129.2734
619.8563, 129.1006
620.3384, 128.0988
620.8205, 126.4891
621.3026, 125.3829
621.7847, 125.9326
622.2668, 126.8614
622.7490, 127.2420
623.2311, 126.9599
623.7132, 126.5100
624.1953, 125.7941
624.6774, 125.1156
625.1595, 124.7160
625.6417, 124.9734
626.1238, 124.7268
626.6059, 123.6743
627.0880, 122.4569
627.5701, 122.0419
628.0522, 122.5382
628.5344, 122.7667
629.0165, 122.4055
629.4986, 121.7567
629.9807, 121.3845
630.4628, 121.2508
630.9449, 121.1616
631.4271, 121.1109
631.9092, 120.9928
632.3913, 120.6144
632.8734, 120.0202
633.3555, 119.5115
633.8376, 119.3087
634.3198, 119.1746
634.8019, 118.9373
635.2840, 118.5336
635.7661, 118.2764
636.2482, 118.4364
636.7303, 118.5532
637.2125, 118.2708
637.6946, 117.3697
638.1767, 116.7108
638.6588, 116.3586
639.1409, 116.2023
639.6230, 116.1976
640.1052, 116.3219
640.5873, 116.1737
641.0694, 115.5570
641.5515, 114.7895
642.0336, 114.3956
642.5157, 114.2625
642.9979, 114.0528
643.4800, 113.3643
643.9621, 112.7387
644.4442, 112.6504
644.9263, 113.0128
645.4084, 113.2957
645.8906, 113.4692
646.3727, 113.4014
646.8548, 112.8915
647.3369, 111.8309
647.8190, 111.2631
648.3011, 111.4697
648.7833, 111.7544
649.2654, 111.5513
649.7475, 110.8042
650.2296, 110.1801
650.7117, 109.6781
651.1938, 109.4360
651.6760, 109.8606
652.1581, 110.7141
652.6402, 111.2335
653.1223, 111.1466
653.6044, 110.8202
654.0865, 110.5892
654.5687, 110.3553
655.0508, 109.9318
655.5329, 108.9864
656.0150, 108.1022
656.4971, 107.4640
656.9792, 107.0643
657.4614, 106.8399
657.9435, 106.8974
658.4256, 106.9654
658.9077, 106.9385
659.3898, 106.8241
659.8719, 106.8902
660.3541, 107.2131
660.8362, 107.3584
661.3183, 106.7827
661.8004, 105.7462
662.2825, 105.3452
662.7646, 105.6694
663.2468, 106.0992
663.7289, 106.2249
664.2110, 106.0747
664.6931, 105.6020
665.1752, 104.5745
665.6573, 103.8214
666.1395, 103.8771
666.6216, 104.3383
667.1037, 104.7083
667.5858, 105.0695
668.0679, 105.1201
668.5500, 104.7211
669.0322, 104.0482
669.5143, 103.4363
669.9964, 102.8364
670.4785, 102.5420
670.9606, 102.7691
671.4427, 103.2727
671.9249, 103.3889
672.4070, 103.1431
672.8891, 102.7293
673.3712, 102.0131
673.8533, 101.3394
674.3354, 101.3319
674.8176, 101.9087
675.2997, 102.1214
675.7818, 100.9047
676.2639, 99.62304
676.7460, 99.18761
677.2281, 99.96499
677.7103, 100.5770
678.1924, 100.9694
678.6745, 101.1822
679.1566, 101.2151
679.6387, 101.0184
680.1208, 100.8639
680.6030, 100.7487
681.0851, 100.7171
681.5672, 100.8755
682.0493, 101.1760
682.5314, 101.4576
683.0135, 101.7539
683.4957, 101.8356
683.9778, 101.2512
684.4599, 100.2984
684.9420, 99.55999
685.4241, 99.58504
685.9063, 99.49847
686.3884, 98.80048
686.8705, 97.70455
687.3526, 96.95865
687.8347, 96.75834
688.3168, 96.66714
688.7990, 96.57796
689.2811, 96.50192
689.7632, 96.53776
690.2453, 96.70195
690.7274, 96.86669
691.2095, 96.92056
691.6917, 96.91875
692.1738, 97.15113
692.6559, 97.59449
693.1380, 97.75797
693.6201, 96.81518
694.1022, 95.69408
694.5844, 95.47053
695.0665, 96.47141
695.5486, 97.05590
696.0307, 96.14224
696.5128, 94.92191
696.9949, 94.34205
697.4771, 94.74390
697.9592, 95.15672
698.4413, 95.76122
698.9234, 96.14056
699.4055, 95.51233
699.8876, 93.84702
700.3698, 93.01151
700.8519, 93.54237
701.3340, 94.45101
701.8161, 94.31841
702.2982, 93.46288
702.7803, 92.66713
703.2625, 92.11190
703.7446, 91.84666
704.2267, 92.18181
704.7088, 92.81928
705.1909, 93.10044
705.6730, 92.26660
706.1552, 91.71636
706.6373, 91.90554
707.1194, 92.65829
707.6015, 93.20065
708.0836, 93.54269
708.5657, 93.61154
709.0479, 93.27971
709.5300, 92.66049
710.0121, 92.25894
710.4942, 92.06483
710.9763, 91.87943
711.4584, 91.48143
711.9406, 91.05826
712.4227, 90.88738
712.9048, 90.97388
713.3869, 91.03055
713.8690, 90.91074
714.3511, 90.72079
714.8333, 90.54874
715.3154, 90.46366
715.7975, 90.17027
716.2796, 89.45679
716.7617, 88.79382
717.2438, 88.60882
717.7260, 88.96301
718.2081, 89.17497
718.6902, 89.21037
719.1723, 89.07758
719.6544, 88.58022
720.1365, 87.93127
720.6187, 87.73681
721.1008, 88.27926
721.5829, 88.83404
722.0650, 88.81120
722.5471, 88.48476
723.0292, 88.22124
723.5114, 88.15607
723.9935, 88.12349
724.4756, 88.04214
724.9577, 87.99516
725.4398, 88.16562
725.9219, 88.66968
726.4041, 89.03392
726.8862, 89.16479
727.3683, 89.08450
727.8504, 88.72719
728.3325, 88.14892
728.8146, 87.74133
729.2968, 87.88701
729.7789, 88.12063
730.2610, 87.77261
730.7431, 87.03941
731.2252, 86.57243
731.7073, 86.99582
732.1895, 87.41237
732.6716, 87.32286
733.1537, 86.77164
733.6358, 86.61052
734.1179, 87.11863
734.6000, 87.54183
735.0822, 87.55418
735.5643, 87.19320
736.0464, 86.79784
736.5285, 86.36845
737.0106, 85.90813
737.4927, 85.29053
737.9749, 84.69180
738.4570, 84.46455
738.9391, 84.61867
739.4212, 84.82500
739.9033, 85.03609
740.3854, 85.12170
740.8676, 84.92336
741.3497, 84.29366
741.8318, 83.91221
742.3139, 83.88820
742.7960, 84.03181
743.2781, 84.24839
743.7603, 84.55927
744.2424, 84.87712
744.7245, 85.28339
745.2066, 85.35087
745.6887, 84.10139
746.1708, 82.19352
746.6530, 81.51551
747.1351, 82.57864
747.6172, 83.85923
748.0993, 84.22910
748.5814, 84.20583
749.0635, 84.38032
749.5457, 85.26314
750.0278, 85.74229
750.5099, 85.53030
750.9920, 84.94432
751.4741, 84.26908
751.9562, 83.43169
752.4384, 82.85459
752.9205, 82.65164
753.4026, 82.61517
753.8847, 82.29544
754.3668, 81.83021
754.8489, 81.82528
755.3311, 82.72742
755.8132, 83.65300
756.2953, 83.83531
756.7774, 83.49129
757.2595, 82.99861
757.7416, 82.01707
758.2238, 81.43754
758.7059, 81.76341
759.1880, 82.54646
759.6701, 82.86501
760.1522, 82.63387
760.6343, 82.19341
761.1165, 81.51331
761.5986, 80.79152
762.0807, 80.50903
762.5628, 80.62914
763.0449, 80.94240
763.5270, 81.55910
764.0092, 82.13892
764.4913, 82.35958
764.9734, 82.27903
765.4555, 82.08427
765.9376, 81.68468
766.4197, 81.34786
766.9019, 81.19887
767.3840, 81.19724
767.8661, 81.17955
768.3482, 81.16805
768.8303, 81.05318
769.3124, 80.64701
769.7946, 80.15425
770.2767, 80.50500
770.7588, 81.59245
771.2409, 82.42059
771.7230, 82.28345
772.2051, 81.66750
772.6873, 80.78936
773.1694, 79.75632
773.6515, 79.22364
774.1336, 79.97241
774.6157, 80.73194
775.0978, 80.91615
775.5800, 80.54800
776.0621, 80.29246
776.5442, 80.16736
777.0263, 80.10393
777.5084, 80.03204
777.9905, 79.98654
778.4727, 80.24780
778.9548, 80.78996
779.4369, 81.15996
779.9190, 80.92640
780.4011, 80.43237
780.8832, 79.94543
781.3654, 79.49406
781.8475, 79.18061
782.3296, 79.08153
782.8117, 79.09635
783.2938, 79.18797
783.7759, 79.36638
784.2581, 79.53085
784.7402, 79.71230
785.2223, 79.78286
785.7044, 79.59694
786.1865, 79.22430
786.6686, 78.90821
787.1508, 78.65662
787.6329, 78.49322
788.1150, 78.47867
788.5971, 78.53045
789.0792, 78.56921
789.5613, 78.58203
790.0435, 78.61909
790.5256, 78.62746
791.0077, 78.72219
791.4898, 78.99754
791.9719, 79.49452
792.4540, 79.89294
792.9362, 80.21678
793.4183, 80.31007
793.9004, 79.89892
794.3825, 79.16037
794.8646, 78.53433
795.3467, 78.04526
795.8289, 77.84456
796.3110, 78.32166
796.7931, 78.94993
797.2752, 79.32647
797.7573, 79.41776
798.2394, 79.15654
798.7216, 78.11166
799.2037, 77.19021
799.6858, 77.05964
800.1679, 77.86647
800.6500, 78.32565
801.1321, 78.41611
801.6143, 78.33791
802.0964, 78.24196
802.5785, 78.11706
803.0606, 77.90727
803.5427, 77.59750
804.0248, 77.35538
804.5070, 77.34897
804.9891, 77.39776
805.4712, 77.32906
805.9533, 77.00391
806.4354, 76.98709
806.9175, 77.45000
807.3997, 77.97262
807.8818, 78.15197
808.3639, 78.00193
808.8460, 78.46177
809.3281, 79.63538
809.8102, 80.51682
810.2924, 79.76922
810.7745, 78.36942
811.2566, 77.69962
811.7387, 78.01574
812.2208, 78.35908
812.7029, 78.32144
813.1851, 78.18593
813.6672, 78.17912
814.1493, 78.39352
814.6314, 78.29625
815.1135, 77.73666
815.5956, 77.24362
816.0778, 77.47082
816.5599, 78.17566
817.0420, 78.04600
817.5241, 76.99207
818.0062, 76.08047
818.4883, 76.40089
818.9705, 77.10437
819.4526, 77.36341
819.9347, 77.02393
820.4168, 76.62702
820.8989, 75.95468
821.3810, 75.56927
821.8632, 75.90945
822.3453, 77.11516
822.8274, 77.55946
823.3095, 77.12572
823.7916, 76.61034
824.2737, 76.71655
824.7559, 77.17537
825.2380, 77.50159
825.7201, 77.65905
826.2022, 77.62151
826.6843, 77.07043
827.1664, 76.55358
827.6486, 76.51042
828.1307, 77.07447
828.6128, 77.39974
829.0949, 77.38692
829.5770, 77.30424
830.0591, 77.32458
830.5413, 77.42429
831.0234, 77.21650
831.5055, 76.70824
831.9876, 76.47195
832.4697, 77.29409
832.9518, 78.36163
833.4340, 78.74653
833.9161, 78.43452
834.3982, 78.09167
834.8803, 77.63947
835.3624, 77.53661
835.8445, 78.19614
836.3267, 79.55083
836.8088, 79.89651
837.2909, 79.01253
837.7730, 78.12429
838.2551, 78.02823
838.7372, 78.38531
839.2194, 78.22843
839.7015, 77.67034
840.1836, 77.36258
840.6657, 78.07482
841.1478, 78.80154
841.6299, 78.78575
842.1121, 78.11330
842.5942, 77.78542
843.0763, 77.99982
843.5584, 78.31161
844.0405, 78.63548
844.5226, 78.93283
845.0048, 78.99361
845.4869, 78.83564
845.9690, 78.74382
846.4511, 79.00298
846.9332, 79.28095
847.4153, 79.15208
847.8975, 78.74152
848.3796, 78.40230
848.8617, 78.28191
849.3438, 78.22170
849.8259, 78.10635
850.3080, 78.03444
850.7902, 78.34294
851.2723, 79.11815
851.7544, 79.75746
852.2365, 80.13156
852.7186, 80.21481
853.2007, 79.72580
853.6829, 78.89948
854.1650, 78.38006
854.6471, 78.64022
855.1292, 78.97346
855.6113, 79.12777
856.0934, 79.10542
856.5756, 78.88345
857.0577, 78.19705
857.5398, 77.88484
858.0219, 78.10856
858.5040, 78.62337
858.9861, 79.12528
859.4683, 79.58977
859.9504, 79.86007
860.4325, 79.87378
860.9146, 79.76019
861.3967, 79.54346
861.8788, 79.30791
862.3610, 79.14726
862.8431, 79.00330
863.3252, 79.11164
863.8073, 79.73378
864.2894, 80.35298
864.7715, 80.34072
865.2537, 79.64674
865.7358, 79.46171
866.2179, 79.94398
866.7000, 80.45707
867.1821, 80.19798
867.6642, 79.62697
868.1464, 79.50932
868.6285, 80.06017
869.1106, 80.33652
869.5927, 79.54227
870.0748, 78.70915
870.5569, 78.53938
871.0391, 79.13894
871.5212, 79.66576
872.0033, 80.10269
872.4854, 80.51432
872.9675, 81.02271
873.4496, 81.52012
873.9318, 81.65447
874.4139, 81.44743
874.8960, 81.28814
875.3781, 81.69661
875.8602, 81.97350
876.3423, 81.45863
876.8245, 80.15650
877.3066, 79.61654
877.7887, 80.11213
878.2708, 80.78395
878.7529, 81.44481
879.2350, 81.95751
879.7172, 81.62997
880.1993, 80.60820
880.6814, 79.80344
881.1635, 79.81086
881.6456, 80.13027
882.1277, 80.55554
882.6099, 81.00072
883.0920, 81.21910
883.5741, 80.95396
884.0562, 80.74390
884.5383, 80.67265
885.0204, 80.59842
885.5026, 80.71114
885.9847, 80.71837
886.4668, 80.84037
886.9489, 81.11189
887.4310, 81.50951
887.9131, 82.16685
888.3953, 82.87890
888.8774, 83.34100
889.3595, 83.37453
889.8416, 83.27923
890.3237, 82.87495
890.8058, 82.55382
891.2880, 82.86058
891.7701, 83.87991
892.2522, 84.38062
892.7343, 84.21950
893.2164, 83.80730
893.6985, 83.42184
894.1807, 83.12298
894.6628, 83.02201
895.1449, 83.16243
895.6270, 83.30661
896.1091, 83.32370
896.5912, 83.36075
897.0734, 83.51531
897.5555, 83.79841
898.0376, 84.06001
898.5197, 84.30004
899.0018, 84.51505
899.4839, 84.61989
899.9661, 84.73052
900.4482, 85.18475
900.9303, 85.91063
901.4124, 86.40318
901.8945, 86.18306
902.3766, 85.90506
902.8588, 85.81751
903.3409, 85.92766
903.8230, 86.28609
904.3051, 86.95444
904.7872, 87.66458
905.2693, 88.44552
905.7515, 89.07942
906.2336, 88.85728
906.7157, 88.10464
907.1978, 87.78085
907.6799, 88.79930
908.1620, 89.67603
908.6442, 89.55819
909.1263, 88.93248
909.6084, 88.61287
910.0905, 88.68291
910.5726, 88.89291
911.0547, 89.24302
911.5369, 89.68202
912.0190, 90.19748
912.5011, 90.74609
912.9832, 91.20368
913.4653, 91.54628
913.9474, 91.81627
914.4296, 91.84249
914.9117, 91.93943
915.3938, 92.51213
915.8759, 93.86669
916.3580, 94.26433
916.8401, 93.23865
917.3223, 92.40604
917.8044, 93.29581
918.2865, 95.28787
918.7686, 95.90772
919.2507, 95.28036
919.7328, 94.75520
920.2150, 95.12316
920.6971, 95.90915
921.1792, 96.99586
921.6613, 98.30514
922.1434, 99.35496
922.6255, 100.1409
923.1077, 100.6454
923.5898, 100.7351
924.0719, 100.6777
924.5540, 101.1988
925.0361, 102.1573
925.5182, 102.9524
926.0004, 103.2156
926.4825, 103.5002
926.9646, 104.0675
927.4467, 104.9108
927.9288, 106.0543
928.4109, 107.8156
928.8931, 109.1703
929.3752, 109.9522
929.8573, 110.5419
930.3394, 111.3112
930.8215, 112.2518
931.3036, 113.4714
931.7858, 115.0197
932.2679, 116.3197
932.7500, 116.7046
933.2321, 116.8981
933.7142, 117.3729
934.1964, 118.1524
934.6785, 119.5993
935.1606, 121.9428
935.6427, 124.3771
936.1248, 126.5336
936.6069, 128.4377
937.0891, 129.9273
937.5712, 131.1068
938.0533, 132.4070
938.5354, 134.3167
939.0175, 136.1613
939.4996, 137.1448
939.9818, 137.7738
940.4639, 139.5369
940.9460, 142.9778
941.4281, 146.1104
941.9102, 148.5220
942.3923, 150.5551
942.8745, 152.6688
943.3566, 154.8719
943.8387, 157.0801
944.3208, 159.1472
944.8029, 161.6065
945.2850, 165.1899
945.7672, 169.0625
946.2493, 172.4306
946.7314, 175.1301
947.2135, 177.9023
947.6956, 180.7247
948.1777, 183.6874
948.6599, 186.6855
949.1420, 189.8613
949.6241, 193.6999
950.1062, 198.1196
950.5883, 202.4146
951.0704, 206.3563
951.5526, 209.9420
952.0347, 212.7616
952.5168, 215.1666
952.9989, 218.5036
953.4810, 222.9994
953.9631, 227.3342
954.4453, 231.0699
954.9274, 234.5641
955.4095, 238.4725
955.8916, 242.5736
956.3737, 246.4842
956.8558, 250.1429
957.3380, 253.4902
957.8201, 256.3178
958.3022, 258.9851
958.7843, 261.9127
959.2664, 265.2813
959.7485, 267.9117
960.2307, 269.7208
960.7128, 271.1100
961.1949, 272.4761
961.6770, 273.6155
962.1591, 274.1974
962.6412, 274.2182
963.1234, 273.9379
963.6055, 273.5137
964.0876, 272.7076
964.5697, 271.5074
965.0518, 269.8640
965.5339, 267.3832
966.0161, 264.0509
966.4982, 260.5812
966.9803, 257.1306
967.4624, 253.8506
967.9445, 251.5268
968.4266, 249.3675
968.9088, 246.1166
969.3909, 240.2287
969.8730, 234.9240
970.3551, 230.6529
970.8372, 226.6698
971.3193, 221.9419
971.8015, 216.6273
972.2836, 211.9023
972.7657, 207.8954
973.2478, 203.9924
973.7299, 199.7100
974.2120, 195.2751
974.6942, 190.7981
975.1763, 186.2965
975.6584, 181.9840
976.1405, 177.7184
976.6226, 173.8664
977.1047, 170.6059
977.5869, 167.7969
978.0690, 165.2284
978.5511, 162.8747
979.0332, 160.5760
979.5153, 158.3486
979.9974, 156.0038
980.4796, 153.1360
980.9617, 150.2261
981.4438, 147.9763
981.9259, 146.6229
982.4080, 145.1771
982.8901, 143.6003
983.3723, 141.8737
983.8544, 139.8292
984.3365, 137.6765
984.8186, 135.8665
985.3007, 134.4205
985.7828, 132.9315
986.2650, 130.9347
986.7471, 129.1469
987.2292, 127.8886
987.7113, 127.0874
988.1934, 126.4393
988.6755, 125.9551
989.1577, 125.3199
989.6398, 124.3388
990.1219, 123.2859
990.6040, 122.5225
991.0861, 121.9131
991.5682, 121.2337
992.0504, 120.5554
992.5325, 119.5567
993.0146, 118.0045
993.4967, 116.4217
993.9788, 115.1318
994.4609, 114.1754
994.9431, 114.1809
995.4252, 115.1742
995.9073, 115.8771
996.3894, 115.0650
996.8715, 113.8529
997.3536, 113.0182
997.8358, 112.5939
998.3179, 112.1648
998.8000, 111.7095
999.2821, 111.2853
999.7642, 110.9305
1000.246, 110.5761
1000.728, 109.9879
1001.211, 109.2985
1001.693, 108.9163
1002.175, 109.1980
1002.657, 109.2806
1003.139, 108.4631
1003.621, 107.5099
1004.103, 107.1639
1004.585, 107.5786
1005.068, 107.7736
1005.550, 107.7660
1006.032, 107.3726
1006.514, 105.8977
1006.996, 104.3139
1007.478, 104.0589
1007.960, 104.9167
1008.442, 105.4173
1008.924, 104.6909
1009.407, 104.1881
1009.889, 104.3678
1010.371, 104.7668
1010.853, 104.2126
1011.335, 102.8961
1011.817, 102.1430
1012.299, 102.3187
1012.781, 102.8212
1013.263, 103.7879
1013.746, 104.4931
1014.228, 104.0016
1014.710, 101.8947
1015.192, 100.7678
1015.674, 100.8503
1016.156, 101.1905
1016.638, 101.2649
1017.120, 101.1661
1017.603, 101.0545
1018.085, 100.9398
1018.567, 100.8624
1019.049, 100.9377
1019.531, 100.9245
1020.013, 100.6696
1020.495, 100.3358
1020.977, 100.1977
1021.459, 100.2618
1021.942, 100.1146
1022.424, 99.66938
1022.906, 99.27677
1023.388, 99.35285
1023.870, 99.58311
1024.352, 99.64686
1024.834, 99.49767
1025.316, 99.40044
1025.799, 99.46087
1026.281, 99.37839
1026.763, 98.88350
1027.245, 98.29485
1027.727, 98.73209
1028.209, 99.81675
1028.691, 100.2374
1029.173, 98.89819
1029.656, 97.72563
1030.138, 97.99019
1030.620, 98.63313
1031.102, 98.42391
1031.584, 97.07602
1032.066, 96.58143
1032.548, 97.04864
1033.030, 97.67556
1033.512, 97.80168
1033.995, 97.70883
1034.477, 97.75993
1034.959, 97.92372
1035.441, 97.89342
1035.923, 97.37645
1036.405, 96.98511
1036.887, 96.81250
1037.369, 96.86063
1037.851, 97.29928
1038.334, 97.97817
1038.816, 98.35381
1039.298, 98.29661
1039.780, 97.95872
1040.262, 96.94833
1040.744, 96.07814
1041.226, 96.17945
1041.708, 97.34701
1042.191, 97.54800
1042.673, 96.66060
1043.155, 95.89377
1043.637, 96.05068
1044.119, 96.56673
1044.601, 96.63030
1045.083, 96.43955
1045.565, 96.44503
1046.047, 97.20216
1046.530, 97.51269
1047.012, 97.09055
1047.494, 96.47571
1047.976, 96.22203
1048.458, 96.29672
1048.940, 96.64335
1049.422, 97.24597
1049.904, 97.74200
1050.386, 97.84806
1050.869, 97.83411
1051.351, 97.94244
1051.833, 98.07983
1052.315, 97.69032
1052.797, 96.63808
1053.279, 96.15337
1053.761, 96.72208
1054.243, 97.54859
1054.726, 97.67651
1055.208, 97.39833
1055.690, 97.08781
1056.172, 96.75501
1056.654, 96.62901
1057.136, 96.81035
1057.618, 97.03246
1058.100, 97.20239
1058.583, 97.27406
1059.065, 96.90097
1059.547, 96.21131
1060.029, 95.79540
1060.511, 96.31909
1060.993, 96.77335
1061.475, 96.69456
1061.957, 96.31778
1062.439, 95.90212
1062.922, 95.41472
1063.404, 95.24136
1063.886, 95.44305
1064.368, 95.67282
1064.850, 95.55392
1065.332, 95.35861
1065.814, 95.48384
1066.296, 95.89577
1066.778, 95.78498
1067.261, 94.61136
1067.743, 94.05525
1068.225, 94.78178
1068.707, 95.94390
1069.189, 95.70847
1069.671, 94.70457
1070.153, 94.56573
1070.635, 96.05412
1071.118, 97.02770
1071.600, 95.92941
1072.082, 94.70641
1072.564, 94.54453
1073.046, 95.33318
1073.528, 95.69182
1074.010, 95.63432
1074.492, 95.36599
1074.974, 94.65559
1075.457, 94.16299
1075.939, 94.75016
1076.421, 95.75984
1076.903, 96.00977
1077.385, 95.06251
1077.867, 94.57324
1078.349, 94.67566
1078.831, 94.97553
1079.313, 95.33220
1079.796, 95.53066
1080.278, 94.95909
1080.760, 93.77274
1081.242, 93.19956
1081.724, 94.40488
1082.206, 95.21532
1082.688, 95.07691
1083.170, 94.47294
1083.652, 94.26094
1084.135, 94.34960
1084.617, 94.35625
1085.099, 94.17329
1085.581, 94.19038
1086.063, 95.07779
1086.545, 95.81813
1087.027, 95.63624
1087.509, 94.66671
1087.992, 94.41801
1088.474, 94.90157
1088.956, 95.10375
1089.438, 94.42407
1089.920, 93.62598
1090.402, 93.44406
1090.884, 93.61246
1091.366, 93.78598
1091.849, 93.96058
1092.331, 94.01858
1092.813, 93.95040
1093.295, 93.79774
1093.777, 93.50651
1094.259, 93.19233
1094.741, 93.04138
1095.223, 93.05186
1095.705, 93.20921
1096.188, 93.54569
1096.670, 94.01332
1097.152, 94.77192
1097.634, 95.42635
1098.116, 95.08253
1098.598, 94.12856
1099.080, 94.83824
1099.562, 97.38206
1100.044, 99.11819
1100.527, 97.61610
1101.009, 95.66776
1101.491, 94.82294
1101.973, 94.73750
1102.455, 94.26106
1102.937, 93.38564
1103.419, 92.85772
1103.901, 92.91196
1104.384, 93.17580
1104.866, 93.43294
1105.348, 93.62598
1105.830, 93.65514
1106.312, 93.47733
1106.794, 93.48846
1107.276, 93.74319
1107.758, 93.96741
1108.240, 94.02621
1108.723, 93.99610
1109.205, 94.08309
1109.687, 94.15572
1110.169, 93.93919
1110.651, 92.92321
1111.133, 92.46227
1111.615, 92.86745
1112.097, 93.41225
1112.579, 93.46224
1113.062, 93.20277
1113.544, 93.41983
1114.026, 93.98406
1114.508, 94.23728
1114.990, 93.50103
1115.472, 92.83974
1115.954, 92.47813
1116.436, 92.46124
1116.919, 93.08473
1117.401, 94.26968
1117.883, 94.72324
1118.365, 94.33321
1118.847, 93.84244
1119.329, 93.95668
1119.811, 93.98727
1120.293, 93.17970
1120.776, 91.91283
1121.258, 91.58777
1121.740, 92.31539
1122.222, 92.86973
1122.704, 92.96045
1123.186, 92.96258
1123.668, 93.34151
1124.150, 93.78963
1124.632, 93.94263
1125.115, 93.72084
1125.597, 93.67885
1126.079, 93.93281
1126.561, 93.98381
1127.043, 93.56887
1127.525, 92.97215
1128.007, 92.51889
1128.489, 92.26427
1128.971, 92.35244
1129.454, 93.02687
1129.936, 93.49922
1130.418, 93.78221
1130.900, 93.70829
1131.382, 92.97118
1131.864, 91.88404
1132.346, 91.35326
1132.828, 91.29222
1133.311, 91.41602
1133.793, 91.96651
1134.275, 92.17091
1134.757, 91.51285
1135.239, 90.82640
1135.721, 91.02451
1136.203, 91.96915
1136.685, 92.56111
1137.167, 92.77026
1137.650, 92.64663
1138.132, 91.86297
1138.614, 91.14779
1139.096, 90.85887
1139.578, 90.86793
1140.060, 91.02155
1140.542, 91.32456
1141.024, 91.74929
1141.506, 92.31599
1141.989, 92.59387
1142.471, 91.92032
1142.953, 91.11179
1143.435, 90.77776
1143.917, 90.87460
1144.399, 91.01132
1144.881, 91.18608
1145.363, 91.45051
1145.846, 91.86259
1146.328, 92.14106
1146.810, 91.85339
1147.292, 91.33965
1147.774, 90.92738
1148.256, 90.66487
1148.738, 90.50560
1149.220, 90.46960
1149.703, 90.46340
1150.185, 90.48200
1150.667, 90.45924
1151.149, 90.28556
1151.631, 90.00680
1152.113, 89.67179
1152.595, 89.23516
1153.077, 88.97427
1153.559, 88.99023
1154.042, 88.96821
1154.524, 88.66954
1155.006, 88.28577
1155.488, 88.28651
1155.970, 88.54577
1156.452, 88.77657
1156.934, 89.12354
1157.416, 88.92532
1157.898, 87.72840
1158.381, 86.64936
1158.863, 86.80183
1159.345, 87.75786
1159.827, 87.61697
1160.309, 86.66228
1160.791, 86.04399
1161.273, 86.84146
1161.755, 87.29077
1162.238, 86.71286
1162.720, 85.88314
1163.202, 85.65416
1163.684, 85.92622
1164.166, 86.04078
1164.648, 85.98540
1165.130, 85.94646
1165.612, 86.34595
1166.094, 86.40164
1166.577, 85.46172
1167.059, 84.20488
1167.541, 83.70834
1168.023, 83.91899
1168.505, 84.26858
1168.987, 84.70136
1169.469, 85.02596
1169.951, 84.96958
1170.433, 84.90388
1170.916, 85.19971
1171.398, 85.62045
1171.880, 85.41814
1172.362, 84.60537
1172.844, 84.34222
1173.326, 84.90791
1173.808, 85.55684
1174.290, 86.00716
1174.773, 86.00497
1175.255, 85.00478
1175.737, 83.29411
1176.219, 82.35340
1176.701, 82.20171
1177.183, 82.32462
1177.665, 82.65218
1178.147, 82.95997
1178.630, 82.92397
1179.112, 82.84079
1179.594, 83.09949
1180.076, 83.71183
1180.558, 83.88313
1181.040, 83.58064
1181.522, 83.15212
1182.004, 82.67202
1182.486, 82.24754
1182.969, 81.94849
1183.451, 81.79707
1183.933, 81.85963
1184.415, 82.18249
1184.897, 82.41893
1185.379, 82.56608
1185.861, 82.65154
1186.343, 82.70263
1186.825, 82.67984
1187.308, 82.43470
1187.790, 82.12146
1188.272, 82.01053
1188.754, 82.26665
1189.236, 82.31813
1189.718, 82.14037
1190.200, 81.88520
1190.682, 81.49110
1191.165, 81.20808
1191.647, 81.62476
1192.129, 82.33929
1192.611, 82.50620
1193.093, 81.61637
1193.575, 81.05326
1194.057, 80.93118
1194.539, 80.73830
1195.021, 79.68542
1195.504, 78.58533
1195.986, 78.85812
1196.468, 80.01701
1196.950, 80.57691
1197.432, 79.97123
1197.914, 79.46787
1198.396, 79.13289
1198.878, 78.93652
1199.360, 78.76961
1199.843, 78.77747
1200.325, 79.34383
1200.807, 80.30765
1201.289, 80.98800
1201.771, 81.33973
1202.253, 81.16895
1202.735, 80.28564
1203.217, 79.42847
1203.700, 79.57252
1204.182, 80.17274
1204.664, 80.56662
1205.146, 80.68641
1205.628, 80.40072
1206.110, 79.26785
1206.592, 78.78115
1207.074, 79.35148
1207.557, 80.10230
1208.039, 79.69141
1208.521, 80.19789
1209.003, 79.01610
1209.485, 80.08865
1209.967, 80.49588
1210.449, 79.77930
1210.931, 79.01376
1211.413, 78.32034
1211.896, 77.92234
1212.378, 78.47412
1212.860, 79.31436
1213.342, 79.31172
1213.824, 78.34551
1214.306, 77.93601
1214.788, 78.49397
1215.270, 78.87568
1215.752, 78.75776
1216.235, 78.39720
1216.717, 78.03498
1217.199, 77.73076
1217.681, 77.53403
1218.163, 77.44651
1218.645, 77.71629
1219.127, 78.54278
1219.609, 79.12210
1220.092, 79.15679
1220.574, 78.93424
1221.056, 78.92487
1221.538, 78.91685
1222.020, 78.48106
1222.502, 77.44388
1222.984, 77.06585
1223.466, 77.60140
1223.948, 78.08900
1224.431, 78.18786
1224.913, 78.04713
1225.395, 77.70903
1225.877, 77.35631
1226.359, 77.29919
1226.841, 77.70317
1227.323, 77.71876
1227.805, 77.22659
1228.287, 76.82962
1228.770, 76.84836
1229.252, 76.95792
1229.734, 76.42814
1230.216, 75.85133
1230.698, 76.20476
1231.180, 77.96085
1231.662, 78.76641
1232.144, 78.49421
1232.627, 78.04130
1233.109, 77.83684
1233.591, 77.26435
1234.073, 76.96994
1234.555, 76.14949
1235.037, 75.44929
1235.519, 74.87302
1236.001, 74.56721
1236.484, 74.53465
1236.966, 74.79511
1237.448, 75.52292
1237.930, 76.29295
1238.412, 76.80466
1238.894, 77.03220
1239.376, 76.86486
1239.858, 76.25194
1240.340, 75.70631
1240.823, 75.22322
1241.305, 75.07768
1241.787, 75.61922
1242.269, 76.27063
1242.751, 76.64009
1243.233, 76.76228
1243.715, 76.66505
1244.197, 76.33618
1244.679, 75.98168
1245.162, 75.60159
1245.644, 75.31161
1246.126, 75.17250
1246.608, 75.14346
1247.090, 75.42643
1247.572, 75.63913
1248.054, 75.24366
1248.536, 74.18977
1249.019, 73.99850
1249.501, 74.60441
1249.983, 75.29993
1250.465, 75.82594
1250.947, 76.17392
1251.429, 76.28950
1251.911, 76.25069
1252.393, 76.15113
1252.875, 75.98148
1253.358, 75.38156
1253.840, 74.45695
1254.322, 73.90160
1254.804, 74.50609
1255.286, 74.97839
1255.768, 74.66161
1256.250, 74.25801
1256.732, 74.45263
1257.214, 75.10110
1257.697, 75.25562
1258.179, 75.01774
1258.661, 74.86546
1259.143, 75.05781
1259.625, 75.32108
1260.107, 75.72459
1260.589, 75.99074
1261.071, 75.77898
1261.554, 75.26258
1262.036, 75.06594
1262.518, 75.06492
1263.000, 74.81899
1263.482, 73.47520
1263.964, 72.99838
1264.446, 73.69397
1264.928, 74.88844
1265.411, 76.40308
1265.893, 77.81250
1266.375, 78.36437
1266.857, 78.12688
1267.339, 77.27785
1267.821, 75.00514
1268.303, 73.75985
1268.785, 73.75101
1269.267, 74.16073
1269.750, 74.49374
1270.232, 74.75504
1270.714, 74.97778
1271.196, 75.13219
1271.678, 75.11815
1272.160, 74.83089
1272.642, 74.75162
1273.124, 74.92214
1273.606, 75.02888
1274.089, 74.67048
1274.571, 74.31384
1275.053, 74.52683
1275.535, 74.32080
1276.017, 74.31186
1276.499, 74.50032
1276.981, 74.42154
1277.463, 74.78226
1277.946, 75.11194
1278.428, 75.23454
1278.910, 75.08390
1279.392, 74.21956
1279.874, 73.33219
1280.356, 73.31979
1280.838, 74.15588
1281.320, 74.64211
1281.802, 74.77923
1282.285, 74.76860
1282.767, 74.68459
1283.249, 74.50765
1283.731, 74.03867
1284.213, 73.68209
1284.695, 73.92777
1285.177, 74.60391
1285.659, 74.92314
1286.141, 74.91717
1286.624, 74.74130
1287.106, 74.14395
1287.588, 73.88624
1288.070, 74.15293
1288.552, 74.55246
1289.034, 74.86486
1289.516, 75.02866
1289.998, 74.72982
1290.481, 74.18099
1290.963, 73.93044
1291.445, 74.49601
1291.927, 74.64587
1292.409, 74.21883
1292.891, 73.99461
1293.373, 74.97078
1293.855, 76.11044
1294.338, 75.88121
1294.820, 74.91132
1295.302, 74.41136
1295.784, 74.57748
1296.266, 74.72817
1296.748, 74.86182
1297.230, 75.00994
1297.712, 75.32223
1298.194, 75.50225
1298.677, 75.19798
1299.159, 74.69072
1299.641, 74.30849
1300.123, 74.04805
1300.605, 74.04153
1301.087, 74.24251
1301.569, 74.22082
1302.051, 73.48386
1302.533, 72.90446
1303.016, 72.77638
##END=



