##NAMES=Eddavidite
##RRUFFID=R050381
##IDEAL CHEMISTRY=Cu^2+^_12_Pb^4+^_2_O_15_Br_2_
##LOCALITY=Southwest mine, Bisbee, Arizona, USA
##OWNER=RRUFF
##SOURCE=University of Arizona Mineral Museum
##DESCRIPTION=Black cubes, associated with malachite and cuprite. Type sample
##STATUS=The identification of this mineral is confirmed by single-crystal X-ray diffraction and chemical analysis.
##URL=rruff.info/R050381
##MEASURED CHEMISTRY=Pb_1.95_Cu_12.14_O_15.09_(Br_1.16_Cl_0.75_)_Î£1.91_
8.758203e+001, 1.302761e+003
8.806415e+001, 1.286155e+003
8.854626e+001, 1.283273e+003
8.902838e+001, 1.298774e+003
8.951050e+001, 1.319783e+003
8.999261e+001, 1.343174e+003
9.047473e+001, 1.368100e+003
9.095685e+001, 1.392446e+003
9.143896e+001, 1.414101e+003
9.192108e+001, 1.433008e+003
9.240320e+001, 1.451982e+003
9.288531e+001, 1.454824e+003
9.336743e+001, 1.431281e+003
9.384955e+001, 1.387391e+003
9.433167e+001, 1.344454e+003
9.481378e+001, 1.299827e+003
9.529590e+001, 1.260161e+003
9.577802e+001, 1.225186e+003
9.626013e+001, 1.194993e+003
9.674225e+001, 1.170173e+003
9.722437e+001, 1.149879e+003
9.770648e+001, 1.130159e+003
9.818860e+001, 1.109995e+003
9.867072e+001, 1.090061e+003
9.915283e+001, 1.070336e+003
9.963495e+001, 1.050756e+003
1.001171e+002, 1.031805e+003
1.005992e+002, 1.014182e+003
1.010813e+002, 9.972787e+002
1.015634e+002, 9.823588e+002
1.020455e+002, 9.690529e+002
1.025277e+002, 9.567551e+002
1.030098e+002, 9.448806e+002
1.034919e+002, 9.331293e+002
1.039740e+002, 9.217262e+002
1.044561e+002, 9.116888e+002
1.049382e+002, 9.045966e+002
1.054204e+002, 8.968822e+002
1.059025e+002, 8.878259e+002
1.063846e+002, 8.778361e+002
1.068667e+002, 8.675820e+002
1.073488e+002, 8.572830e+002
1.078309e+002, 8.471082e+002
1.083131e+002, 8.382727e+002
1.087952e+002, 8.309131e+002
1.092773e+002, 8.244300e+002
1.097594e+002, 8.184486e+002
1.102415e+002, 8.129514e+002
1.107236e+002, 8.084500e+002
1.112058e+002, 8.061956e+002
1.116879e+002, 8.053622e+002
1.121700e+002, 8.032764e+002
1.126521e+002, 7.984303e+002
1.131342e+002, 7.922899e+002
1.136163e+002, 7.872985e+002
1.140985e+002, 7.838743e+002
1.145806e+002, 7.810546e+002
1.150627e+002, 7.782648e+002
1.155448e+002, 7.755219e+002
1.160269e+002, 7.728318e+002
1.165090e+002, 7.703141e+002
1.169912e+002, 7.679650e+002
1.174733e+002, 7.653141e+002
1.179554e+002, 7.619095e+002
1.184375e+002, 7.585356e+002
1.189196e+002, 7.552748e+002
1.194017e+002, 7.522444e+002
1.198839e+002, 7.497169e+002
1.203660e+002, 7.481474e+002
1.208481e+002, 7.481783e+002
1.213302e+002, 7.475301e+002
1.218123e+002, 7.459693e+002
1.222944e+002, 7.440233e+002
1.227766e+002, 7.420402e+002
1.232587e+002, 7.401052e+002
1.237408e+002, 7.380047e+002
1.242229e+002, 7.353503e+002
1.247050e+002, 7.312059e+002
1.251871e+002, 7.276987e+002
1.256693e+002, 7.247496e+002
1.261514e+002, 7.224745e+002
1.266335e+002, 7.213702e+002
1.271156e+002, 7.218588e+002
1.275977e+002, 7.230561e+002
1.280798e+002, 7.221622e+002
1.285620e+002, 7.183511e+002
1.290441e+002, 7.143801e+002
1.295262e+002, 7.113873e+002
1.300083e+002, 7.091776e+002
1.304904e+002, 7.069908e+002
1.309725e+002, 7.045505e+002
1.314547e+002, 7.018131e+002
1.319368e+002, 6.986757e+002
1.324189e+002, 6.944314e+002
1.329010e+002, 6.906390e+002
1.333831e+002, 6.893580e+002
1.338652e+002, 6.911256e+002
1.343474e+002, 6.925298e+002
1.348295e+002, 6.917346e+002
1.353116e+002, 6.896324e+002
1.357937e+002, 6.869063e+002
1.362758e+002, 6.835457e+002
1.367579e+002, 6.799163e+002
1.372401e+002, 6.770215e+002
1.377222e+002, 6.752684e+002
1.382043e+002, 6.736802e+002
1.386864e+002, 6.720036e+002
1.391685e+002, 6.702316e+002
1.396507e+002, 6.684141e+002
1.401328e+002, 6.666846e+002
1.406149e+002, 6.650057e+002
1.410970e+002, 6.624562e+002
1.415791e+002, 6.578945e+002
1.420612e+002, 6.534873e+002
1.425434e+002, 6.495251e+002
1.430255e+002, 6.461730e+002
1.435076e+002, 6.436219e+002
1.439897e+002, 6.421362e+002
1.444718e+002, 6.419773e+002
1.449539e+002, 6.414500e+002
1.454361e+002, 6.407503e+002
1.459182e+002, 6.396297e+002
1.464003e+002, 6.378253e+002
1.468824e+002, 6.353659e+002
1.473645e+002, 6.325833e+002
1.478466e+002, 6.297695e+002
1.483288e+002, 6.267742e+002
1.488109e+002, 6.244470e+002
1.492930e+002, 6.231730e+002
1.497751e+002, 6.223922e+002
1.502572e+002, 6.216293e+002
1.507393e+002, 6.208046e+002
1.512215e+002, 6.198002e+002
1.517036e+002, 6.182606e+002
1.521857e+002, 6.162003e+002
1.526678e+002, 6.143665e+002
1.531499e+002, 6.135306e+002
1.536320e+002, 6.131259e+002
1.541142e+002, 6.114995e+002
1.545963e+002, 6.074518e+002
1.550784e+002, 6.032668e+002
1.555605e+002, 6.015080e+002
1.560426e+002, 6.021596e+002
1.565247e+002, 6.030456e+002
1.570069e+002, 6.028250e+002
1.574890e+002, 6.015085e+002
1.579711e+002, 5.994562e+002
1.584532e+002, 5.953355e+002
1.589353e+002, 5.915718e+002
1.594174e+002, 5.900582e+002
1.598996e+002, 5.909987e+002
1.603817e+002, 5.927257e+002
1.608638e+002, 5.932810e+002
1.613459e+002, 5.923421e+002
1.618280e+002, 5.912754e+002
1.623102e+002, 5.902114e+002
1.627923e+002, 5.891363e+002
1.632744e+002, 5.880111e+002
1.637565e+002, 5.868261e+002
1.642386e+002, 5.856696e+002
1.647207e+002, 5.847462e+002
1.652029e+002, 5.845618e+002
1.656850e+002, 5.837440e+002
1.661671e+002, 5.814384e+002
1.666492e+002, 5.788966e+002
1.671313e+002, 5.773109e+002
1.676134e+002, 5.772053e+002
1.680956e+002, 5.780990e+002
1.685777e+002, 5.786000e+002
1.690598e+002, 5.794140e+002
1.695419e+002, 5.789421e+002
1.700240e+002, 5.760596e+002
1.705061e+002, 5.720189e+002
1.709883e+002, 5.684039e+002
1.714704e+002, 5.659516e+002
1.719525e+002, 5.646312e+002
1.724346e+002, 5.644903e+002
1.729167e+002, 5.668980e+002
1.733988e+002, 5.687108e+002
1.738810e+002, 5.687648e+002
1.743631e+002, 5.674696e+002
1.748452e+002, 5.657797e+002
1.753273e+002, 5.640244e+002
1.758094e+002, 5.623966e+002
1.762915e+002, 5.614814e+002
1.767737e+002, 5.616949e+002
1.772558e+002, 5.620898e+002
1.777379e+002, 5.622455e+002
1.782200e+002, 5.621501e+002
1.787021e+002, 5.616072e+002
1.791842e+002, 5.599862e+002
1.796664e+002, 5.580341e+002
1.801485e+002, 5.572184e+002
1.806306e+002, 5.583337e+002
1.811127e+002, 5.599392e+002
1.815948e+002, 5.604636e+002
1.820769e+002, 5.597638e+002
1.825591e+002, 5.587722e+002
1.830412e+002, 5.579293e+002
1.835233e+002, 5.570697e+002
1.840054e+002, 5.559260e+002
1.844875e+002, 5.542297e+002
1.849696e+002, 5.524268e+002
1.854518e+002, 5.514415e+002
1.859339e+002, 5.516673e+002
1.864160e+002, 5.518348e+002
1.868981e+002, 5.514355e+002
1.873802e+002, 5.507370e+002
1.878623e+002, 5.500087e+002
1.883445e+002, 5.493580e+002
1.888266e+002, 5.488007e+002
1.893087e+002, 5.484127e+002
1.897908e+002, 5.483284e+002
1.902729e+002, 5.482396e+002
1.907550e+002, 5.483010e+002
1.912372e+002, 5.482706e+002
1.917193e+002, 5.477493e+002
1.922014e+002, 5.464305e+002
1.926835e+002, 5.444989e+002
1.931656e+002, 5.432142e+002
1.936477e+002, 5.436365e+002
1.941299e+002, 5.436780e+002
1.946120e+002, 5.426368e+002
1.950941e+002, 5.410069e+002
1.955762e+002, 5.395677e+002
1.960583e+002, 5.388142e+002
1.965404e+002, 5.387388e+002
1.970226e+002, 5.392791e+002
1.975047e+002, 5.412998e+002
1.979868e+002, 5.429823e+002
1.984689e+002, 5.436130e+002
1.989510e+002, 5.434763e+002
1.994331e+002, 5.432995e+002
1.999153e+002, 5.436176e+002
2.003974e+002, 5.444048e+002
2.008795e+002, 5.447591e+002
2.013616e+002, 5.443499e+002
2.018437e+002, 5.439228e+002
2.023258e+002, 5.440494e+002
2.028080e+002, 5.445226e+002
2.032901e+002, 5.444952e+002
2.037722e+002, 5.431962e+002
2.042543e+002, 5.407509e+002
2.047364e+002, 5.390936e+002
2.052185e+002, 5.388130e+002
2.057007e+002, 5.387582e+002
2.061828e+002, 5.380825e+002
2.066649e+002, 5.368517e+002
2.071470e+002, 5.359247e+002
2.076291e+002, 5.360722e+002
2.081112e+002, 5.370724e+002
2.085934e+002, 5.376516e+002
2.090755e+002, 5.376473e+002
2.095576e+002, 5.372798e+002
2.100397e+002, 5.365060e+002
2.105218e+002, 5.352987e+002
2.110039e+002, 5.344352e+002
2.114861e+002, 5.346110e+002
2.119682e+002, 5.354947e+002
2.124503e+002, 5.364370e+002
2.129324e+002, 5.375950e+002
2.134145e+002, 5.385668e+002
2.138967e+002, 5.387150e+002
2.143788e+002, 5.378687e+002
2.148609e+002, 5.369847e+002
2.153430e+002, 5.364857e+002
2.158251e+002, 5.363068e+002
2.163072e+002, 5.364590e+002
2.167894e+002, 5.370561e+002
2.172715e+002, 5.378793e+002
2.177536e+002, 5.386039e+002
2.182357e+002, 5.392716e+002
2.187178e+002, 5.396993e+002
2.191999e+002, 5.398010e+002
2.196821e+002, 5.396484e+002
2.201642e+002, 5.391628e+002
2.206463e+002, 5.380689e+002
2.211284e+002, 5.369719e+002
2.216105e+002, 5.374802e+002
2.220926e+002, 5.407566e+002
2.225748e+002, 5.433055e+002
2.230569e+002, 5.437359e+002
2.235390e+002, 5.431073e+002
2.240211e+002, 5.425341e+002
2.245032e+002, 5.425135e+002
2.249853e+002, 5.428950e+002
2.254675e+002, 5.432766e+002
2.259496e+002, 5.437201e+002
2.264317e+002, 5.440565e+002
2.269138e+002, 5.438787e+002
2.273959e+002, 5.437200e+002
2.278780e+002, 5.443448e+002
2.283602e+002, 5.461900e+002
2.288423e+002, 5.486664e+002
2.293244e+002, 5.498322e+002
2.298065e+002, 5.484356e+002
2.302886e+002, 5.473406e+002
2.307707e+002, 5.463900e+002
2.312529e+002, 5.460855e+002
2.317350e+002, 5.471424e+002
2.322171e+002, 5.499218e+002
2.326992e+002, 5.538783e+002
2.331813e+002, 5.572747e+002
2.336634e+002, 5.600861e+002
2.341456e+002, 5.622543e+002
2.346277e+002, 5.640196e+002
2.351098e+002, 5.650792e+002
2.355919e+002, 5.648187e+002
2.360740e+002, 5.629453e+002
2.365561e+002, 5.601298e+002
2.370383e+002, 5.583497e+002
2.375204e+002, 5.579113e+002
2.380025e+002, 5.583010e+002
2.384846e+002, 5.602429e+002
2.389667e+002, 5.627766e+002
2.394488e+002, 5.647081e+002
2.399310e+002, 5.655411e+002
2.404131e+002, 5.656741e+002
2.408952e+002, 5.661009e+002
2.413773e+002, 5.668486e+002
2.418594e+002, 5.678694e+002
2.423415e+002, 5.692817e+002
2.428237e+002, 5.709291e+002
2.433058e+002, 5.726680e+002
2.437879e+002, 5.744650e+002
2.442700e+002, 5.762099e+002
2.447521e+002, 5.776566e+002
2.452342e+002, 5.786349e+002
2.457164e+002, 5.796606e+002
2.461985e+002, 5.812852e+002
2.466806e+002, 5.828580e+002
2.471627e+002, 5.832385e+002
2.476448e+002, 5.819285e+002
2.481269e+002, 5.800300e+002
2.486091e+002, 5.795325e+002
2.490912e+002, 5.806874e+002
2.495733e+002, 5.820118e+002
2.500554e+002, 5.833848e+002
2.505375e+002, 5.847215e+002
2.510196e+002, 5.858499e+002
2.515018e+002, 5.866964e+002
2.519839e+002, 5.874705e+002
2.524660e+002, 5.884493e+002
2.529481e+002, 5.896174e+002
2.534302e+002, 5.909928e+002
2.539123e+002, 5.925717e+002
2.543945e+002, 5.943696e+002
2.548766e+002, 5.966371e+002
2.553587e+002, 5.996188e+002
2.558408e+002, 6.023690e+002
2.563229e+002, 6.031803e+002
2.568051e+002, 6.023447e+002
2.572872e+002, 6.023146e+002
2.577693e+002, 6.041191e+002
2.582514e+002, 6.070541e+002
2.587335e+002, 6.101229e+002
2.592156e+002, 6.132552e+002
2.596978e+002, 6.162244e+002
2.601799e+002, 6.189265e+002
2.606620e+002, 6.213459e+002
2.611441e+002, 6.231049e+002
2.616262e+002, 6.234097e+002
2.621083e+002, 6.231887e+002
2.625905e+002, 6.240446e+002
2.630726e+002, 6.262684e+002
2.635547e+002, 6.288265e+002
2.640368e+002, 6.307809e+002
2.645189e+002, 6.324581e+002
2.650010e+002, 6.345463e+002
2.654832e+002, 6.380618e+002
2.659653e+002, 6.418165e+002
2.664474e+002, 6.436487e+002
2.669295e+002, 6.430743e+002
2.674116e+002, 6.423710e+002
2.678937e+002, 6.431917e+002
2.683759e+002, 6.447420e+002
2.688580e+002, 6.459688e+002
2.693401e+002, 6.465263e+002
2.698222e+002, 6.466371e+002
2.703043e+002, 6.464219e+002
2.707864e+002, 6.456960e+002
2.712686e+002, 6.454528e+002
2.717507e+002, 6.469228e+002
2.722328e+002, 6.488903e+002
2.727149e+002, 6.500505e+002
2.731970e+002, 6.499407e+002
2.736791e+002, 6.491555e+002
2.741613e+002, 6.484764e+002
2.746434e+002, 6.479583e+002
2.751255e+002, 6.472197e+002
2.756076e+002, 6.461234e+002
2.760897e+002, 6.447169e+002
2.765718e+002, 6.429730e+002
2.770540e+002, 6.408713e+002
2.775361e+002, 6.385070e+002
2.780182e+002, 6.358742e+002
2.785003e+002, 6.329192e+002
2.789824e+002, 6.301317e+002
2.794645e+002, 6.279438e+002
2.799467e+002, 6.257740e+002
2.804288e+002, 6.231451e+002
2.809109e+002, 6.199978e+002
2.813930e+002, 6.168549e+002
2.818751e+002, 6.144657e+002
2.823572e+002, 6.129515e+002
2.828394e+002, 6.107555e+002
2.833215e+002, 6.069807e+002
2.838036e+002, 6.029622e+002
2.842857e+002, 5.992493e+002
2.847678e+002, 5.959598e+002
2.852499e+002, 5.931630e+002
2.857321e+002, 5.910876e+002
2.862142e+002, 5.897561e+002
2.866963e+002, 5.884046e+002
2.871784e+002, 5.873698e+002
2.876605e+002, 5.858842e+002
2.881426e+002, 5.835169e+002
2.886248e+002, 5.803741e+002
2.891069e+002, 5.768499e+002
2.895890e+002, 5.730261e+002
2.900711e+002, 5.689496e+002
2.905532e+002, 5.654824e+002
2.910353e+002, 5.629113e+002
2.915175e+002, 5.606321e+002
2.919996e+002, 5.584502e+002
2.924817e+002, 5.563519e+002
2.929638e+002, 5.543648e+002
2.934459e+002, 5.525404e+002
2.939280e+002, 5.508235e+002
2.944102e+002, 5.490323e+002
2.948923e+002, 5.472354e+002
2.953744e+002, 5.452408e+002
2.958565e+002, 5.425770e+002
2.963386e+002, 5.398400e+002
2.968207e+002, 5.379373e+002
2.973029e+002, 5.374449e+002
2.977850e+002, 5.376768e+002
2.982671e+002, 5.368011e+002
2.987492e+002, 5.339888e+002
2.992313e+002, 5.317557e+002
2.997134e+002, 5.308585e+002
3.001956e+002, 5.306190e+002
3.006777e+002, 5.304345e+002
3.011598e+002, 5.300955e+002
3.016419e+002, 5.298287e+002
3.021240e+002, 5.301086e+002
3.026061e+002, 5.312286e+002
3.030883e+002, 5.320524e+002
3.035704e+002, 5.326110e+002
3.040525e+002, 5.327062e+002
3.045346e+002, 5.320536e+002
3.050167e+002, 5.306440e+002
3.054988e+002, 5.288790e+002
3.059810e+002, 5.270305e+002
3.064631e+002, 5.248776e+002
3.069452e+002, 5.236635e+002
3.074273e+002, 5.241702e+002
3.079094e+002, 5.250932e+002
3.083915e+002, 5.262242e+002
3.088737e+002, 5.273292e+002
3.093558e+002, 5.278664e+002
3.098379e+002, 5.268574e+002
3.103200e+002, 5.241364e+002
3.108021e+002, 5.232496e+002
3.112842e+002, 5.263449e+002
3.117664e+002, 5.291981e+002
3.122485e+002, 5.302111e+002
3.127306e+002, 5.298088e+002
3.132127e+002, 5.291228e+002
3.136948e+002, 5.289119e+002
3.141769e+002, 5.290688e+002
3.146591e+002, 5.289163e+002
3.151412e+002, 5.282709e+002
3.156233e+002, 5.275475e+002
3.161054e+002, 5.267222e+002
3.165875e+002, 5.259447e+002
3.170696e+002, 5.254670e+002
3.175518e+002, 5.254612e+002
3.180339e+002, 5.256707e+002
3.185160e+002, 5.253785e+002
3.189981e+002, 5.241942e+002
3.194802e+002, 5.233303e+002
3.199623e+002, 5.233508e+002
3.204445e+002, 5.235998e+002
3.209266e+002, 5.234732e+002
3.214087e+002, 5.227892e+002
3.218908e+002, 5.218762e+002
3.223729e+002, 5.211926e+002
3.228550e+002, 5.207426e+002
3.233372e+002, 5.205090e+002
3.238193e+002, 5.207015e+002
3.243014e+002, 5.209468e+002
3.247835e+002, 5.211145e+002
3.252656e+002, 5.211477e+002
3.257477e+002, 5.209427e+002
3.262299e+002, 5.203378e+002
3.267120e+002, 5.192938e+002
3.271941e+002, 5.181969e+002
3.276762e+002, 5.168214e+002
3.281583e+002, 5.156097e+002
3.286404e+002, 5.148988e+002
3.291226e+002, 5.145256e+002
3.296047e+002, 5.140217e+002
3.300868e+002, 5.129783e+002
3.305689e+002, 5.114980e+002
3.310510e+002, 5.102843e+002
3.315331e+002, 5.094534e+002
3.320153e+002, 5.087460e+002
3.324974e+002, 5.079812e+002
3.329795e+002, 5.072855e+002
3.334616e+002, 5.069300e+002
3.339437e+002, 5.071831e+002
3.344258e+002, 5.076074e+002
3.349080e+002, 5.071202e+002
3.353901e+002, 5.053572e+002
3.358722e+002, 5.036473e+002
3.363543e+002, 5.025566e+002
3.368365e+002, 5.016055e+002
3.373186e+002, 5.002690e+002
3.378007e+002, 4.983830e+002
3.382828e+002, 4.965320e+002
3.387649e+002, 4.955634e+002
3.392470e+002, 4.956284e+002
3.397292e+002, 4.954507e+002
3.402113e+002, 4.943539e+002
3.406934e+002, 4.932732e+002
3.411755e+002, 4.928756e+002
3.416576e+002, 4.931454e+002
3.421397e+002, 4.935071e+002
3.426219e+002, 4.935259e+002
3.431040e+002, 4.932162e+002
3.435861e+002, 4.927817e+002
3.440682e+002, 4.921662e+002
3.445503e+002, 4.914919e+002
3.450324e+002, 4.908911e+002
3.455146e+002, 4.902971e+002
3.459967e+002, 4.895338e+002
3.464788e+002, 4.883469e+002
3.469609e+002, 4.869820e+002
3.474430e+002, 4.861322e+002
3.479251e+002, 4.860248e+002
3.484073e+002, 4.858039e+002
3.488894e+002, 4.847739e+002
3.493715e+002, 4.834775e+002
3.498536e+002, 4.826295e+002
3.503357e+002, 4.826171e+002
3.508178e+002, 4.827298e+002
3.513000e+002, 4.819994e+002
3.517821e+002, 4.803798e+002
3.522642e+002, 4.789574e+002
3.527463e+002, 4.782723e+002
3.532284e+002, 4.778220e+002
3.537105e+002, 4.769629e+002
3.541927e+002, 4.755968e+002
3.546748e+002, 4.744992e+002
3.551569e+002, 4.743325e+002
3.556390e+002, 4.749217e+002
3.561211e+002, 4.756006e+002
3.566032e+002, 4.765703e+002
3.570854e+002, 4.770309e+002
3.575675e+002, 4.758695e+002
3.580496e+002, 4.734235e+002
3.585317e+002, 4.713623e+002
3.590138e+002, 4.706524e+002
3.594959e+002, 4.705974e+002
3.599781e+002, 4.699075e+002
3.604602e+002, 4.683716e+002
3.609423e+002, 4.671947e+002
3.614244e+002, 4.676992e+002
3.619065e+002, 4.691641e+002
3.623886e+002, 4.697482e+002
3.628708e+002, 4.684432e+002
3.633529e+002, 4.669701e+002
3.638350e+002, 4.668636e+002
3.643171e+002, 4.679387e+002
3.647992e+002, 4.689739e+002
3.652813e+002, 4.694964e+002
3.657635e+002, 4.695975e+002
3.662456e+002, 4.695146e+002
3.667277e+002, 4.692809e+002
3.672098e+002, 4.688006e+002
3.676919e+002, 4.676244e+002
3.681740e+002, 4.662409e+002
3.686562e+002, 4.657230e+002
3.691383e+002, 4.664453e+002
3.696204e+002, 4.675073e+002
3.701025e+002, 4.678565e+002
3.705846e+002, 4.674746e+002
3.710667e+002, 4.667734e+002
3.715489e+002, 4.651698e+002
3.720310e+002, 4.636786e+002
3.725131e+002, 4.635860e+002
3.729952e+002, 4.648126e+002
3.734773e+002, 4.657562e+002
3.739594e+002, 4.651495e+002
3.744416e+002, 4.631381e+002
3.749237e+002, 4.616283e+002
3.754058e+002, 4.607161e+002
3.758879e+002, 4.601379e+002
3.763700e+002, 4.598490e+002
3.768521e+002, 4.598132e+002
3.773343e+002, 4.599620e+002
3.778164e+002, 4.602607e+002
3.782985e+002, 4.607455e+002
3.787806e+002, 4.615464e+002
3.792627e+002, 4.632869e+002
3.797448e+002, 4.642710e+002
3.802270e+002, 4.640263e+002
3.807091e+002, 4.631671e+002
3.811912e+002, 4.619918e+002
3.816733e+002, 4.606689e+002
3.821554e+002, 4.597361e+002
3.826375e+002, 4.598780e+002
3.831197e+002, 4.614186e+002
3.836018e+002, 4.624028e+002
3.840839e+002, 4.627587e+002
3.845660e+002, 4.627416e+002
3.850481e+002, 4.622474e+002
3.855302e+002, 4.614642e+002
3.860124e+002, 4.607472e+002
3.864945e+002, 4.603114e+002
3.869766e+002, 4.601600e+002
3.874587e+002, 4.603150e+002
3.879408e+002, 4.612693e+002
3.884229e+002, 4.619430e+002
3.889051e+002, 4.620588e+002
3.893872e+002, 4.619270e+002
3.898693e+002, 4.618451e+002
3.903514e+002, 4.619178e+002
3.908335e+002, 4.620924e+002
3.913156e+002, 4.623216e+002
3.917978e+002, 4.627135e+002
3.922799e+002, 4.628600e+002
3.927620e+002, 4.627243e+002
3.932441e+002, 4.623916e+002
3.937262e+002, 4.617754e+002
3.942083e+002, 4.609675e+002
3.946905e+002, 4.602312e+002
3.951726e+002, 4.597880e+002
3.956547e+002, 4.596103e+002
3.961368e+002, 4.594139e+002
3.966189e+002, 4.591830e+002
3.971010e+002, 4.589567e+002
3.975832e+002, 4.588405e+002
3.980653e+002, 4.587046e+002
3.985474e+002, 4.583280e+002
3.990295e+002, 4.575805e+002
3.995116e+002, 4.567566e+002
3.999937e+002, 4.563305e+002
4.004759e+002, 4.563462e+002
4.009580e+002, 4.565349e+002
4.014401e+002, 4.569352e+002
4.019222e+002, 4.574271e+002
4.024043e+002, 4.579633e+002
4.028864e+002, 4.585313e+002
4.033686e+002, 4.590669e+002
4.038507e+002, 4.596982e+002
4.043328e+002, 4.602992e+002
4.048149e+002, 4.601914e+002
4.052970e+002, 4.589838e+002
4.057791e+002, 4.577976e+002
4.062613e+002, 4.573990e+002
4.067434e+002, 4.575680e+002
4.072255e+002, 4.579261e+002
4.077076e+002, 4.584899e+002
4.081897e+002, 4.590723e+002
4.086718e+002, 4.596456e+002
4.091540e+002, 4.601886e+002
4.096361e+002, 4.599421e+002
4.101182e+002, 4.579027e+002
4.106003e+002, 4.554801e+002
4.110824e+002, 4.552844e+002
4.115645e+002, 4.579380e+002
4.120467e+002, 4.602322e+002
4.125288e+002, 4.604216e+002
4.130109e+002, 4.594176e+002
4.134930e+002, 4.587647e+002
4.139751e+002, 4.587650e+002
4.144572e+002, 4.591592e+002
4.149394e+002, 4.598540e+002
4.154215e+002, 4.608584e+002
4.159036e+002, 4.613117e+002
4.163857e+002, 4.608098e+002
4.168678e+002, 4.600664e+002
4.173499e+002, 4.594310e+002
4.178321e+002, 4.589402e+002
4.183142e+002, 4.586645e+002
4.187963e+002, 4.587047e+002
4.192784e+002, 4.588877e+002
4.197605e+002, 4.585932e+002
4.202426e+002, 4.568129e+002
4.207248e+002, 4.559480e+002
4.212069e+002, 4.570038e+002
4.216890e+002, 4.587141e+002
4.221711e+002, 4.598293e+002
4.226532e+002, 4.600516e+002
4.231353e+002, 4.598171e+002
4.236175e+002, 4.596676e+002
4.240996e+002, 4.597342e+002
4.245817e+002, 4.591968e+002
4.250638e+002, 4.568599e+002
4.255459e+002, 4.552030e+002
4.260280e+002, 4.558904e+002
4.265102e+002, 4.579606e+002
4.269923e+002, 4.592805e+002
4.274744e+002, 4.585085e+002
4.279565e+002, 4.565010e+002
4.284386e+002, 4.562841e+002
4.289207e+002, 4.594521e+002
4.294029e+002, 4.615220e+002
4.298850e+002, 4.612232e+002
4.303671e+002, 4.602173e+002
4.308492e+002, 4.597690e+002
4.313313e+002, 4.601049e+002
4.318134e+002, 4.606777e+002
4.322956e+002, 4.609593e+002
4.327777e+002, 4.609453e+002
4.332598e+002, 4.608316e+002
4.337419e+002, 4.606897e+002
4.342241e+002, 4.603345e+002
4.347062e+002, 4.594610e+002
4.351883e+002, 4.583606e+002
4.356704e+002, 4.575922e+002
4.361525e+002, 4.574341e+002
4.366346e+002, 4.576773e+002
4.371168e+002, 4.580338e+002
4.375989e+002, 4.585075e+002
4.380810e+002, 4.590591e+002
4.385631e+002, 4.597357e+002
4.390452e+002, 4.604381e+002
4.395273e+002, 4.611990e+002
4.400095e+002, 4.620650e+002
4.404916e+002, 4.624198e+002
4.409737e+002, 4.613657e+002
4.414558e+002, 4.596739e+002
4.419379e+002, 4.591094e+002
4.424200e+002, 4.600369e+002
4.429022e+002, 4.611650e+002
4.433843e+002, 4.615168e+002
4.438664e+002, 4.611481e+002
4.443485e+002, 4.606182e+002
4.448306e+002, 4.595026e+002
4.453127e+002, 4.586630e+002
4.457949e+002, 4.588159e+002
4.462770e+002, 4.596453e+002
4.467591e+002, 4.603285e+002
4.472412e+002, 4.605394e+002
4.477233e+002, 4.604272e+002
4.482054e+002, 4.602733e+002
4.486876e+002, 4.601550e+002
4.491697e+002, 4.598027e+002
4.496518e+002, 4.589168e+002
4.501339e+002, 4.580090e+002
4.506160e+002, 4.574339e+002
4.510981e+002, 4.572235e+002
4.515803e+002, 4.573347e+002
4.520624e+002, 4.578328e+002
4.525445e+002, 4.586294e+002
4.530266e+002, 4.585200e+002
4.535087e+002, 4.558444e+002
4.539908e+002, 4.541607e+002
4.544730e+002, 4.544091e+002
4.549551e+002, 4.557115e+002
4.554372e+002, 4.573345e+002
4.559193e+002, 4.589669e+002
4.564014e+002, 4.602559e+002
4.568835e+002, 4.605189e+002
4.573657e+002, 4.594189e+002
4.578478e+002, 4.588141e+002
4.583299e+002, 4.593373e+002
4.588120e+002, 4.598110e+002
4.592941e+002, 4.596364e+002
4.597762e+002, 4.590239e+002
4.602584e+002, 4.585448e+002
4.607405e+002, 4.585810e+002
4.612226e+002, 4.588622e+002
4.617047e+002, 4.588169e+002
4.621868e+002, 4.584010e+002
4.626689e+002, 4.578531e+002
4.631511e+002, 4.568729e+002
4.636332e+002, 4.560738e+002
4.641153e+002, 4.562674e+002
4.645974e+002, 4.575833e+002
4.650795e+002, 4.586682e+002
4.655616e+002, 4.583750e+002
4.660438e+002, 4.573201e+002
4.665259e+002, 4.570109e+002
4.670080e+002, 4.577423e+002
4.674901e+002, 4.584780e+002
4.679722e+002, 4.582677e+002
4.684543e+002, 4.573541e+002
4.689365e+002, 4.569826e+002
4.694186e+002, 4.576719e+002
4.699007e+002, 4.584372e+002
4.703828e+002, 4.588006e+002
4.708649e+002, 4.588598e+002
4.713470e+002, 4.588340e+002
4.718292e+002, 4.588021e+002
4.723113e+002, 4.586756e+002
4.727934e+002, 4.582951e+002
4.732755e+002, 4.575262e+002
4.737576e+002, 4.568803e+002
4.742397e+002, 4.563085e+002
4.747219e+002, 4.558920e+002
4.752040e+002, 4.557618e+002
4.756861e+002, 4.558350e+002
4.761682e+002, 4.558747e+002
4.766503e+002, 4.557167e+002
4.771324e+002, 4.554486e+002
4.776146e+002, 4.554313e+002
4.780967e+002, 4.559234e+002
4.785788e+002, 4.562525e+002
4.790609e+002, 4.562426e+002
4.795430e+002, 4.561456e+002
4.800251e+002, 4.562383e+002
4.805073e+002, 4.565103e+002
4.809894e+002, 4.566382e+002
4.814715e+002, 4.561563e+002
4.819536e+002, 4.551456e+002
4.824357e+002, 4.547466e+002
4.829178e+002, 4.553361e+002
4.834000e+002, 4.558962e+002
4.838821e+002, 4.559366e+002
4.843642e+002, 4.557018e+002
4.848463e+002, 4.555194e+002
4.853284e+002, 4.555063e+002
4.858105e+002, 4.554498e+002
4.862927e+002, 4.550788e+002
4.867748e+002, 4.544482e+002
4.872569e+002, 4.538880e+002
4.877390e+002, 4.534211e+002
4.882211e+002, 4.531277e+002
4.887032e+002, 4.531790e+002
4.891854e+002, 4.535169e+002
4.896675e+002, 4.538702e+002
4.901496e+002, 4.543148e+002
4.906317e+002, 4.546548e+002
4.911138e+002, 4.546006e+002
4.915959e+002, 4.542726e+002
4.920781e+002, 4.541465e+002
4.925602e+002, 4.544762e+002
4.930423e+002, 4.550593e+002
4.935244e+002, 4.554440e+002
4.940065e+002, 4.554350e+002
4.944886e+002, 4.556047e+002
4.949708e+002, 4.566055e+002
4.954529e+002, 4.573066e+002
4.959350e+002, 4.564513e+002
4.964171e+002, 4.543421e+002
4.968992e+002, 4.524326e+002
4.973813e+002, 4.517969e+002
4.978635e+002, 4.523280e+002
4.983456e+002, 4.534249e+002
4.988277e+002, 4.558278e+002
4.993098e+002, 4.576737e+002
4.997919e+002, 4.586618e+002
5.002740e+002, 4.590509e+002
5.007562e+002, 4.590858e+002
5.012383e+002, 4.588066e+002
5.017204e+002, 4.580762e+002
5.022025e+002, 4.562261e+002
5.026846e+002, 4.534739e+002
5.031667e+002, 4.525289e+002
5.036489e+002, 4.543387e+002
5.041310e+002, 4.562437e+002
5.046131e+002, 4.570080e+002
5.050952e+002, 4.569313e+002
5.055773e+002, 4.562362e+002
5.060594e+002, 4.546705e+002
5.065416e+002, 4.532651e+002
5.070237e+002, 4.530506e+002
5.075058e+002, 4.537232e+002
5.079879e+002, 4.542521e+002
5.084700e+002, 4.544081e+002
5.089521e+002, 4.543382e+002
5.094343e+002, 4.541190e+002
5.099164e+002, 4.537525e+002
5.103985e+002, 4.535422e+002
5.108806e+002, 4.531880e+002
5.113627e+002, 4.532985e+002
5.118448e+002, 4.547287e+002
5.123270e+002, 4.568596e+002
5.128091e+002, 4.583738e+002
5.132912e+002, 4.587064e+002
5.137733e+002, 4.581136e+002
5.142554e+002, 4.569510e+002
5.147375e+002, 4.545370e+002
5.152197e+002, 4.532116e+002
5.157018e+002, 4.536318e+002
5.161839e+002, 4.543651e+002
5.166660e+002, 4.547123e+002
5.171481e+002, 4.547503e+002
5.176302e+002, 4.548161e+002
5.181124e+002, 4.550815e+002
5.185945e+002, 4.555784e+002
5.190766e+002, 4.564747e+002
5.195587e+002, 4.579540e+002
5.200408e+002, 4.592054e+002
5.205229e+002, 4.603581e+002
5.210051e+002, 4.609426e+002
5.214872e+002, 4.602611e+002
5.219693e+002, 4.585067e+002
5.224514e+002, 4.569796e+002
5.229335e+002, 4.563826e+002
5.234156e+002, 4.565397e+002
5.238978e+002, 4.574410e+002
5.243799e+002, 4.591548e+002
5.248620e+002, 4.603273e+002
5.253441e+002, 4.600931e+002
5.258262e+002, 4.590664e+002
5.263083e+002, 4.586125e+002
5.267905e+002, 4.590099e+002
5.272726e+002, 4.590625e+002
5.277547e+002, 4.579154e+002
5.282368e+002, 4.565548e+002
5.287189e+002, 4.561989e+002
5.292010e+002, 4.568687e+002
5.296832e+002, 4.576448e+002
5.301653e+002, 4.578341e+002
5.306474e+002, 4.575349e+002
5.311295e+002, 4.574399e+002
5.316116e+002, 4.574727e+002
5.320938e+002, 4.578116e+002
5.325759e+002, 4.589297e+002
5.330580e+002, 4.600589e+002
5.335401e+002, 4.604522e+002
5.340222e+002, 4.600434e+002
5.345043e+002, 4.593347e+002
5.349865e+002, 4.586735e+002
5.354686e+002, 4.580960e+002
5.359507e+002, 4.581674e+002
5.364328e+002, 4.594666e+002
5.369149e+002, 4.603204e+002
5.373970e+002, 4.596830e+002
5.378792e+002, 4.585415e+002
5.383613e+002, 4.579978e+002
5.388434e+002, 4.583198e+002
5.393255e+002, 4.586403e+002
5.398076e+002, 4.582892e+002
5.402897e+002, 4.574486e+002
5.407719e+002, 4.564756e+002
5.412540e+002, 4.553561e+002
5.417361e+002, 4.545068e+002
5.422182e+002, 4.541339e+002
5.427003e+002, 4.543225e+002
5.431824e+002, 4.552379e+002
5.436646e+002, 4.580999e+002
5.441467e+002, 4.600803e+002
5.446288e+002, 4.595306e+002
5.451109e+002, 4.578308e+002
5.455930e+002, 4.567839e+002
5.460751e+002, 4.567730e+002
5.465573e+002, 4.571137e+002
5.470394e+002, 4.570947e+002
5.475215e+002, 4.566961e+002
5.480036e+002, 4.566037e+002
5.484857e+002, 4.568754e+002
5.489678e+002, 4.574097e+002
5.494500e+002, 4.584222e+002
5.499321e+002, 4.595701e+002
5.504142e+002, 4.605342e+002
5.508963e+002, 4.612185e+002
5.513784e+002, 4.616463e+002
5.518605e+002, 4.618871e+002
5.523427e+002, 4.619258e+002
5.528248e+002, 4.614204e+002
5.533069e+002, 4.599344e+002
5.537890e+002, 4.587803e+002
5.542711e+002, 4.590045e+002
5.547532e+002, 4.599514e+002
5.552354e+002, 4.606986e+002
5.557175e+002, 4.609887e+002
5.561996e+002, 4.613598e+002
5.566817e+002, 4.623839e+002
5.571638e+002, 4.636866e+002
5.576459e+002, 4.646571e+002
5.581281e+002, 4.651889e+002
5.586102e+002, 4.648723e+002
5.590923e+002, 4.629664e+002
5.595744e+002, 4.596324e+002
5.600565e+002, 4.583373e+002
5.605386e+002, 4.609558e+002
5.610208e+002, 4.629434e+002
5.615029e+002, 4.627769e+002
5.619850e+002, 4.616683e+002
5.624671e+002, 4.610511e+002
5.629492e+002, 4.612084e+002
5.634313e+002, 4.614097e+002
5.639135e+002, 4.607409e+002
5.643956e+002, 4.592347e+002
5.648777e+002, 4.588306e+002
5.653598e+002, 4.602384e+002
5.658419e+002, 4.616508e+002
5.663240e+002, 4.628753e+002
5.668062e+002, 4.636419e+002
5.672883e+002, 4.634962e+002
5.677704e+002, 4.623307e+002
5.682525e+002, 4.609686e+002
5.687346e+002, 4.597538e+002
5.692167e+002, 4.588568e+002
5.696989e+002, 4.589440e+002
5.701810e+002, 4.601925e+002
5.706631e+002, 4.614923e+002
5.711452e+002, 4.622227e+002
5.716273e+002, 4.624406e+002
5.721094e+002, 4.623428e+002
5.725916e+002, 4.614897e+002
5.730737e+002, 4.611307e+002
5.735558e+002, 4.619652e+002
5.740379e+002, 4.632471e+002
5.745200e+002, 4.642936e+002
5.750021e+002, 4.649659e+002
5.754843e+002, 4.652285e+002
5.759664e+002, 4.649513e+002
5.764485e+002, 4.643228e+002
5.769306e+002, 4.646309e+002
5.774127e+002, 4.672069e+002
5.778948e+002, 4.685289e+002
5.783770e+002, 4.672539e+002
5.788591e+002, 4.653368e+002
5.793412e+002, 4.641082e+002
5.798233e+002, 4.637326e+002
5.803054e+002, 4.637831e+002
5.807875e+002, 4.641635e+002
5.812697e+002, 4.646750e+002
5.817518e+002, 4.649017e+002
5.822339e+002, 4.648734e+002
5.827161e+002, 4.641582e+002
5.831982e+002, 4.618235e+002
5.836803e+002, 4.594326e+002
5.841624e+002, 4.597655e+002
5.846445e+002, 4.631981e+002
5.851266e+002, 4.655000e+002
5.856088e+002, 4.649186e+002
5.860909e+002, 4.632587e+002
5.865730e+002, 4.616104e+002
5.870551e+002, 4.602552e+002
5.875372e+002, 4.597142e+002
5.880193e+002, 4.603055e+002
5.885015e+002, 4.616164e+002
5.889836e+002, 4.627742e+002
5.894657e+002, 4.638974e+002
5.899478e+002, 4.645967e+002
5.904299e+002, 4.645387e+002
5.909120e+002, 4.644328e+002
5.913942e+002, 4.646661e+002
5.918763e+002, 4.651093e+002
5.923584e+002, 4.654537e+002
5.928405e+002, 4.655561e+002
5.933226e+002, 4.654718e+002
5.938047e+002, 4.652953e+002
5.942869e+002, 4.650205e+002
5.947690e+002, 4.644933e+002
5.952511e+002, 4.634868e+002
5.957332e+002, 4.625582e+002
5.962153e+002, 4.621530e+002
5.966974e+002, 4.622110e+002
5.971796e+002, 4.626414e+002
5.976617e+002, 4.633866e+002
5.981438e+002, 4.645464e+002
5.986259e+002, 4.669196e+002
5.991080e+002, 4.695423e+002
5.995901e+002, 4.705020e+002
6.000723e+002, 4.693892e+002
6.005544e+002, 4.676336e+002
6.010365e+002, 4.667173e+002
6.015186e+002, 4.666601e+002
6.020007e+002, 4.667081e+002
6.024828e+002, 4.670977e+002
6.029650e+002, 4.673151e+002
6.034471e+002, 4.673798e+002
6.039292e+002, 4.671810e+002
6.044113e+002, 4.664154e+002
6.048934e+002, 4.651279e+002
6.053755e+002, 4.640143e+002
6.058577e+002, 4.636944e+002
6.063398e+002, 4.640426e+002
6.068219e+002, 4.647298e+002
6.073040e+002, 4.658639e+002
6.077861e+002, 4.666795e+002
6.082682e+002, 4.666871e+002
6.087504e+002, 4.662704e+002
6.092325e+002, 4.662172e+002
6.097146e+002, 4.667011e+002
6.101967e+002, 4.666007e+002
6.106788e+002, 4.648353e+002
6.111609e+002, 4.629513e+002
6.116431e+002, 4.625837e+002
6.121252e+002, 4.633932e+002
6.126073e+002, 4.638948e+002
6.130894e+002, 4.632875e+002
6.135715e+002, 4.621336e+002
6.140536e+002, 4.616875e+002
6.145358e+002, 4.623175e+002
6.150179e+002, 4.627619e+002
6.155000e+002, 4.628442e+002
6.159821e+002, 4.629214e+002
6.164642e+002, 4.629953e+002
6.169464e+002, 4.632065e+002
6.174285e+002, 4.639129e+002
6.179106e+002, 4.654154e+002
6.183927e+002, 4.668256e+002
6.188748e+002, 4.669163e+002
6.193569e+002, 4.659521e+002
6.198391e+002, 4.653765e+002
6.203212e+002, 4.654797e+002
6.208033e+002, 4.657468e+002
6.212854e+002, 4.659111e+002
6.217675e+002, 4.658944e+002
6.222496e+002, 4.653634e+002
6.227318e+002, 4.635145e+002
6.232139e+002, 4.622018e+002
6.236960e+002, 4.620392e+002
6.241781e+002, 4.625985e+002
6.246602e+002, 4.637726e+002
6.251423e+002, 4.653109e+002
6.256245e+002, 4.664608e+002
6.261066e+002, 4.666104e+002
6.265887e+002, 4.658907e+002
6.270708e+002, 4.647337e+002
6.275529e+002, 4.625929e+002
6.280350e+002, 4.613576e+002
6.285172e+002, 4.619897e+002
6.289993e+002, 4.632339e+002
6.294814e+002, 4.645560e+002
6.299635e+002, 4.658398e+002
6.304456e+002, 4.668152e+002
6.309277e+002, 4.676053e+002
6.314099e+002, 4.678338e+002
6.318920e+002, 4.666091e+002
6.323741e+002, 4.643563e+002
6.328562e+002, 4.628066e+002
6.333383e+002, 4.625136e+002
6.338204e+002, 4.630081e+002
6.343026e+002, 4.639088e+002
6.347847e+002, 4.653526e+002
6.352668e+002, 4.658667e+002
6.357489e+002, 4.646118e+002
6.362310e+002, 4.635652e+002
6.367131e+002, 4.634076e+002
6.371953e+002, 4.637052e+002
6.376774e+002, 4.640448e+002
6.381595e+002, 4.642773e+002
6.386416e+002, 4.642853e+002
6.391237e+002, 4.638531e+002
6.396058e+002, 4.630880e+002
6.400880e+002, 4.625522e+002
6.405701e+002, 4.622842e+002
6.410522e+002, 4.621090e+002
6.415343e+002, 4.621319e+002
6.420164e+002, 4.620739e+002
6.424985e+002, 4.613316e+002
6.429807e+002, 4.598031e+002
6.434628e+002, 4.591312e+002
6.439449e+002, 4.604625e+002
6.444270e+002, 4.622508e+002
6.449091e+002, 4.634024e+002
6.453912e+002, 4.639590e+002
6.458734e+002, 4.642601e+002
6.463555e+002, 4.644437e+002
6.468376e+002, 4.642824e+002
6.473197e+002, 4.632918e+002
6.478018e+002, 4.611852e+002
6.482839e+002, 4.598609e+002
6.487661e+002, 4.598626e+002
6.492482e+002, 4.600037e+002
6.497303e+002, 4.598785e+002
6.502124e+002, 4.597058e+002
6.506945e+002, 4.598935e+002
6.511766e+002, 4.605412e+002
6.516588e+002, 4.609290e+002
6.521409e+002, 4.601851e+002
6.526230e+002, 4.588916e+002
6.531051e+002, 4.582241e+002
6.535872e+002, 4.582446e+002
6.540693e+002, 4.585965e+002
6.545515e+002, 4.591209e+002
6.550336e+002, 4.598356e+002
6.555157e+002, 4.608352e+002
6.559978e+002, 4.624714e+002
6.564799e+002, 4.635273e+002
6.569620e+002, 4.639581e+002
6.574442e+002, 4.638371e+002
6.579263e+002, 4.626663e+002
6.584084e+002, 4.611022e+002
6.588905e+002, 4.603603e+002
6.593726e+002, 4.609316e+002
6.598547e+002, 4.618524e+002
6.603369e+002, 4.617244e+002
6.608190e+002, 4.606448e+002
6.613011e+002, 4.600814e+002
6.617832e+002, 4.602194e+002
6.622653e+002, 4.605709e+002
6.627474e+002, 4.609425e+002
6.632296e+002, 4.613281e+002
6.637117e+002, 4.617629e+002
6.641938e+002, 4.623628e+002
6.646759e+002, 4.626306e+002
6.651580e+002, 4.619952e+002
6.656401e+002, 4.612767e+002
6.661223e+002, 4.615456e+002
6.666044e+002, 4.624500e+002
6.670865e+002, 4.625860e+002
6.675686e+002, 4.611932e+002
6.680507e+002, 4.592306e+002
6.685328e+002, 4.585732e+002
6.690150e+002, 4.595391e+002
6.694971e+002, 4.604813e+002
6.699792e+002, 4.617909e+002
6.704613e+002, 4.625128e+002
6.709434e+002, 4.619189e+002
6.714255e+002, 4.606519e+002
6.719077e+002, 4.595493e+002
6.723898e+002, 4.586925e+002
6.728719e+002, 4.585122e+002
6.733540e+002, 4.599600e+002
6.738361e+002, 4.619468e+002
6.743182e+002, 4.625779e+002
6.748004e+002, 4.618755e+002
6.752825e+002, 4.613458e+002
6.757646e+002, 4.619018e+002
6.762467e+002, 4.629697e+002
6.767288e+002, 4.631778e+002
6.772109e+002, 4.618754e+002
6.776931e+002, 4.612373e+002
6.781752e+002, 4.614710e+002
6.786573e+002, 4.620852e+002
6.791394e+002, 4.633145e+002
6.796215e+002, 4.646436e+002
6.801036e+002, 4.652100e+002
6.805858e+002, 4.646889e+002
6.810679e+002, 4.638366e+002
6.815500e+002, 4.632796e+002
6.820321e+002, 4.629680e+002
6.825142e+002, 4.626642e+002
6.829963e+002, 4.623281e+002
6.834785e+002, 4.625695e+002
6.839606e+002, 4.639935e+002
6.844427e+002, 4.658999e+002
6.849248e+002, 4.666203e+002
6.854069e+002, 4.655358e+002
6.858890e+002, 4.646915e+002
6.863712e+002, 4.641818e+002
6.868533e+002, 4.638806e+002
6.873354e+002, 4.637873e+002
6.878175e+002, 4.638416e+002
6.882996e+002, 4.640759e+002
6.887817e+002, 4.644969e+002
6.892639e+002, 4.646599e+002
6.897460e+002, 4.636979e+002
6.902281e+002, 4.618683e+002
6.907102e+002, 4.611315e+002
6.911923e+002, 4.618441e+002
6.916744e+002, 4.623857e+002
6.921566e+002, 4.618216e+002
6.926387e+002, 4.606861e+002
6.931208e+002, 4.599776e+002
6.936029e+002, 4.596702e+002
6.940850e+002, 4.597712e+002
6.945671e+002, 4.605380e+002
6.950493e+002, 4.614612e+002
6.955314e+002, 4.622545e+002
6.960135e+002, 4.629431e+002
6.964956e+002, 4.635800e+002
6.969777e+002, 4.641944e+002
6.974598e+002, 4.649339e+002
6.979420e+002, 4.663156e+002
6.984241e+002, 4.682588e+002
6.989062e+002, 4.684669e+002
6.993883e+002, 4.662491e+002
6.998704e+002, 4.642251e+002
7.003525e+002, 4.635549e+002
7.008347e+002, 4.636416e+002
7.013168e+002, 4.636772e+002
7.017989e+002, 4.636450e+002
7.022810e+002, 4.637163e+002
7.027631e+002, 4.642123e+002
7.032452e+002, 4.645721e+002
7.037274e+002, 4.641779e+002
7.042095e+002, 4.633911e+002
7.046916e+002, 4.629217e+002
7.051737e+002, 4.630014e+002
7.056558e+002, 4.634126e+002
7.061379e+002, 4.639203e+002
7.066201e+002, 4.645243e+002
7.071022e+002, 4.653489e+002
7.075843e+002, 4.667500e+002
7.080664e+002, 4.675251e+002
7.085485e+002, 4.669570e+002
7.090306e+002, 4.658242e+002
7.095128e+002, 4.647095e+002
7.099949e+002, 4.636440e+002
7.104770e+002, 4.627964e+002
7.109591e+002, 4.621960e+002
7.114412e+002, 4.618577e+002
7.119233e+002, 4.618806e+002
7.124055e+002, 4.621564e+002
7.128876e+002, 4.624562e+002
7.133697e+002, 4.627366e+002
7.138518e+002, 4.632253e+002
7.143339e+002, 4.642497e+002
7.148160e+002, 4.656441e+002
7.152982e+002, 4.660558e+002
7.157803e+002, 4.649785e+002
7.162624e+002, 4.641054e+002
7.167445e+002, 4.637189e+002
7.172266e+002, 4.637119e+002
7.177087e+002, 4.642639e+002
7.181909e+002, 4.651804e+002
7.186730e+002, 4.656828e+002
7.191551e+002, 4.651057e+002
7.196372e+002, 4.646054e+002
7.201193e+002, 4.654841e+002
7.206014e+002, 4.667756e+002
7.210836e+002, 4.665272e+002
7.215657e+002, 4.646194e+002
7.220478e+002, 4.628121e+002
7.225299e+002, 4.624518e+002
7.230120e+002, 4.631603e+002
7.234941e+002, 4.636375e+002
7.239763e+002, 4.639184e+002
7.244584e+002, 4.638620e+002
7.249405e+002, 4.630401e+002
7.254226e+002, 4.623248e+002
7.259047e+002, 4.621552e+002
7.263868e+002, 4.624374e+002
7.268690e+002, 4.630302e+002
7.273511e+002, 4.640916e+002
7.278332e+002, 4.649066e+002
7.283153e+002, 4.647722e+002
7.287974e+002, 4.642911e+002
7.292795e+002, 4.643517e+002
7.297617e+002, 4.649215e+002
7.302438e+002, 4.653366e+002
7.307259e+002, 4.652163e+002
7.312080e+002, 4.648853e+002
7.316901e+002, 4.650155e+002
7.321722e+002, 4.657096e+002
7.326544e+002, 4.664725e+002
7.331365e+002, 4.679097e+002
7.336186e+002, 4.685498e+002
7.341007e+002, 4.668801e+002
7.345828e+002, 4.645770e+002
7.350649e+002, 4.641450e+002
7.355471e+002, 4.661205e+002
7.360292e+002, 4.672186e+002
7.365113e+002, 4.646568e+002
7.369934e+002, 4.614970e+002
7.374755e+002, 4.609973e+002
7.379576e+002, 4.624984e+002
7.384398e+002, 4.638732e+002
7.389219e+002, 4.643545e+002
7.394040e+002, 4.642663e+002
7.398861e+002, 4.639023e+002
7.403682e+002, 4.632723e+002
7.408503e+002, 4.632022e+002
7.413325e+002, 4.640258e+002
7.418146e+002, 4.646972e+002
7.422967e+002, 4.647886e+002
7.427788e+002, 4.647011e+002
7.432609e+002, 4.648618e+002
7.437430e+002, 4.652081e+002
7.442252e+002, 4.651744e+002
7.447073e+002, 4.642728e+002
7.451894e+002, 4.632737e+002
7.456715e+002, 4.625761e+002
7.461536e+002, 4.621512e+002
7.466357e+002, 4.620625e+002
7.471179e+002, 4.622565e+002
7.476000e+002, 4.623683e+002
7.480821e+002, 4.620608e+002
7.485642e+002, 4.615882e+002
7.490463e+002, 4.619940e+002
7.495284e+002, 4.637263e+002
7.500106e+002, 4.642226e+002
7.504927e+002, 4.621740e+002
7.509748e+002, 4.601739e+002
7.514569e+002, 4.603348e+002
7.519390e+002, 4.617772e+002
7.524211e+002, 4.626528e+002
7.529033e+002, 4.626277e+002
7.533854e+002, 4.623468e+002
7.538675e+002, 4.619926e+002
7.543496e+002, 4.615177e+002
7.548317e+002, 4.607952e+002
7.553138e+002, 4.599098e+002
7.557960e+002, 4.590534e+002
7.562781e+002, 4.583115e+002
7.567602e+002, 4.577500e+002
7.572423e+002, 4.573272e+002
7.577244e+002, 4.570617e+002
7.582065e+002, 4.577367e+002
7.586887e+002, 4.595762e+002
7.591708e+002, 4.616870e+002
7.596529e+002, 4.642057e+002
7.601350e+002, 4.663510e+002
7.606171e+002, 4.666422e+002
7.610992e+002, 4.649484e+002
7.615814e+002, 4.637934e+002
7.620635e+002, 4.637698e+002
7.625456e+002, 4.640312e+002
7.630277e+002, 4.642279e+002
7.635098e+002, 4.644653e+002
7.639919e+002, 4.650341e+002
7.644741e+002, 4.658888e+002
7.649562e+002, 4.665122e+002
7.654383e+002, 4.664137e+002
7.659204e+002, 4.659262e+002
7.664025e+002, 4.658623e+002
7.668846e+002, 4.662003e+002
7.673668e+002, 4.663060e+002
7.678489e+002, 4.660624e+002
7.683310e+002, 4.654567e+002
7.688131e+002, 4.642359e+002
7.692952e+002, 4.626320e+002
7.697773e+002, 4.619857e+002
7.702595e+002, 4.629031e+002
7.707416e+002, 4.638346e+002
7.712237e+002, 4.650575e+002
7.717058e+002, 4.659244e+002
7.721879e+002, 4.658643e+002
7.726700e+002, 4.651578e+002
7.731522e+002, 4.643163e+002
7.736343e+002, 4.635004e+002
7.741164e+002, 4.629551e+002
7.745985e+002, 4.629073e+002
7.750806e+002, 4.633058e+002
7.755627e+002, 4.642202e+002
7.760449e+002, 4.655880e+002
7.765270e+002, 4.667003e+002
7.770091e+002, 4.672424e+002
7.774912e+002, 4.674360e+002
7.779733e+002, 4.676183e+002
7.784554e+002, 4.678306e+002
7.789376e+002, 4.677335e+002
7.794197e+002, 4.674182e+002
7.799019e+002, 4.666489e+002
7.803840e+002, 4.644074e+002
7.808661e+002, 4.624144e+002
7.813482e+002, 4.626259e+002
7.818303e+002, 4.647489e+002
7.823124e+002, 4.663617e+002
7.827946e+002, 4.660391e+002
7.832767e+002, 4.653548e+002
7.837588e+002, 4.657657e+002
7.842409e+002, 4.666386e+002
7.847230e+002, 4.666878e+002
7.852051e+002, 4.658403e+002
7.856873e+002, 4.650743e+002
7.861694e+002, 4.650536e+002
7.866515e+002, 4.656363e+002
7.871336e+002, 4.666747e+002
7.876157e+002, 4.684339e+002
7.880978e+002, 4.691260e+002
7.885800e+002, 4.682253e+002
7.890621e+002, 4.669458e+002
7.895442e+002, 4.653828e+002
7.900263e+002, 4.640969e+002
7.905084e+002, 4.641060e+002
7.909905e+002, 4.657125e+002
7.914727e+002, 4.672904e+002
7.919548e+002, 4.687553e+002
7.924369e+002, 4.697500e+002
7.929190e+002, 4.701009e+002
7.934011e+002, 4.698091e+002
7.938832e+002, 4.684610e+002
7.943654e+002, 4.662023e+002
7.948475e+002, 4.645989e+002
7.953296e+002, 4.653978e+002
7.958117e+002, 4.675758e+002
7.962938e+002, 4.680887e+002
7.967759e+002, 4.669793e+002
7.972581e+002, 4.672567e+002
7.977402e+002, 4.701051e+002
7.982223e+002, 4.724710e+002
7.987044e+002, 4.712328e+002
7.991865e+002, 4.672274e+002
7.996686e+002, 4.654550e+002
8.001508e+002, 4.680859e+002
8.006329e+002, 4.698614e+002
8.011150e+002, 4.702894e+002
8.015971e+002, 4.702589e+002
8.020792e+002, 4.699002e+002
8.025613e+002, 4.695706e+002
8.030435e+002, 4.700001e+002
8.035256e+002, 4.714851e+002
8.040077e+002, 4.726687e+002
8.044898e+002, 4.720915e+002
8.049719e+002, 4.708891e+002
8.054540e+002, 4.708365e+002
8.059362e+002, 4.717120e+002
8.064183e+002, 4.723024e+002
8.069004e+002, 4.721802e+002
8.073825e+002, 4.717788e+002
8.078646e+002, 4.716914e+002
8.083467e+002, 4.718225e+002
8.088289e+002, 4.706815e+002
8.093110e+002, 4.673249e+002
8.097931e+002, 4.652896e+002
8.102752e+002, 4.660228e+002
8.107573e+002, 4.675579e+002
8.112394e+002, 4.685020e+002
8.117216e+002, 4.689615e+002
8.122037e+002, 4.692089e+002
8.126858e+002, 4.688237e+002
8.131679e+002, 4.690550e+002
8.136500e+002, 4.709081e+002
8.141321e+002, 4.730592e+002
8.146143e+002, 4.745715e+002
8.150964e+002, 4.753597e+002
8.155785e+002, 4.753164e+002
8.160606e+002, 4.744125e+002
8.165427e+002, 4.736061e+002
8.170248e+002, 4.741238e+002
8.175070e+002, 4.756305e+002
8.179891e+002, 4.770911e+002
8.184712e+002, 4.784874e+002
8.189533e+002, 4.795618e+002
8.194354e+002, 4.803237e+002
8.199175e+002, 4.802952e+002
8.203997e+002, 4.786985e+002
8.208818e+002, 4.755738e+002
8.213639e+002, 4.733333e+002
8.218460e+002, 4.722992e+002
8.223281e+002, 4.717088e+002
8.228102e+002, 4.715379e+002
8.232924e+002, 4.717121e+002
8.237745e+002, 4.723059e+002
8.242566e+002, 4.732001e+002
8.247387e+002, 4.742758e+002
8.252208e+002, 4.758451e+002
8.257029e+002, 4.764612e+002
8.261851e+002, 4.742709e+002
8.266672e+002, 4.713415e+002
8.271493e+002, 4.700672e+002
8.276314e+002, 4.702612e+002
8.281135e+002, 4.708738e+002
8.285956e+002, 4.714637e+002
8.290778e+002, 4.718283e+002
8.295599e+002, 4.715733e+002
8.300420e+002, 4.708595e+002
8.305241e+002, 4.708141e+002
8.310062e+002, 4.715050e+002
8.314883e+002, 4.725003e+002
8.319705e+002, 4.739545e+002
8.324526e+002, 4.751055e+002
8.329347e+002, 4.750078e+002
8.334168e+002, 4.738418e+002
8.338989e+002, 4.733737e+002
8.343810e+002, 4.739126e+002
8.348632e+002, 4.746258e+002
8.353453e+002, 4.759146e+002
8.358274e+002, 4.768994e+002
8.363095e+002, 4.768476e+002
8.367916e+002, 4.761371e+002
8.372737e+002, 4.754233e+002
8.377559e+002, 4.748755e+002
8.382380e+002, 4.747666e+002
8.387201e+002, 4.758902e+002
8.392022e+002, 4.771752e+002
8.396843e+002, 4.768874e+002
8.401664e+002, 4.754694e+002
8.406486e+002, 4.743992e+002
8.411307e+002, 4.741364e+002
8.416128e+002, 4.744159e+002
8.420949e+002, 4.750691e+002
8.425770e+002, 4.759458e+002
8.430591e+002, 4.763483e+002
8.435413e+002, 4.762285e+002
8.440234e+002, 4.757734e+002
8.445055e+002, 4.746137e+002
8.449876e+002, 4.738817e+002
8.454697e+002, 4.746500e+002
8.459518e+002, 4.763630e+002
8.464340e+002, 4.773843e+002
8.469161e+002, 4.774577e+002
8.473982e+002, 4.775680e+002
8.478803e+002, 4.778658e+002
8.483624e+002, 4.781817e+002
8.488445e+002, 4.786664e+002
8.493267e+002, 4.790029e+002
8.498088e+002, 4.785797e+002
8.502909e+002, 4.774111e+002
8.507730e+002, 4.764872e+002
8.512551e+002, 4.764817e+002
8.517372e+002, 4.770168e+002
8.522194e+002, 4.779756e+002
8.527015e+002, 4.790565e+002
8.531836e+002, 4.793376e+002
8.536657e+002, 4.787552e+002
8.541478e+002, 4.782837e+002
8.546299e+002, 4.785963e+002
8.551121e+002, 4.793468e+002
8.555942e+002, 4.798652e+002
8.560763e+002, 4.801937e+002
8.565584e+002, 4.797184e+002
8.570405e+002, 4.779100e+002
8.575226e+002, 4.766562e+002
8.580048e+002, 4.770278e+002
8.584869e+002, 4.781476e+002
8.589690e+002, 4.787553e+002
8.594511e+002, 4.788118e+002
8.599332e+002, 4.790662e+002
8.604153e+002, 4.798853e+002
8.608975e+002, 4.804695e+002
8.613796e+002, 4.803657e+002
8.618617e+002, 4.801260e+002
8.623438e+002, 4.800648e+002
8.628259e+002, 4.803086e+002
8.633080e+002, 4.812708e+002
8.637902e+002, 4.835046e+002
8.642723e+002, 4.849291e+002
8.647544e+002, 4.827943e+002
8.652365e+002, 4.793097e+002
8.657186e+002, 4.778434e+002
8.662007e+002, 4.782844e+002
8.666829e+002, 4.793534e+002
8.671650e+002, 4.805338e+002
8.676471e+002, 4.816748e+002
8.681292e+002, 4.826538e+002
8.686113e+002, 4.834072e+002
8.690934e+002, 4.833587e+002
8.695756e+002, 4.823129e+002
8.700577e+002, 4.820041e+002
8.705398e+002, 4.831854e+002
8.710219e+002, 4.842481e+002
8.715040e+002, 4.837338e+002
8.719861e+002, 4.821488e+002
8.724683e+002, 4.813868e+002
8.729504e+002, 4.821653e+002
8.734325e+002, 4.824344e+002
8.739146e+002, 4.818860e+002
8.743967e+002, 4.811674e+002
8.748788e+002, 4.805107e+002
8.753610e+002, 4.798649e+002
8.758431e+002, 4.788609e+002
8.763252e+002, 4.775609e+002
8.768073e+002, 4.772310e+002
8.772894e+002, 4.795420e+002
8.777715e+002, 4.819321e+002
8.782537e+002, 4.822562e+002
8.787358e+002, 4.814562e+002
8.792179e+002, 4.806384e+002
8.797000e+002, 4.801341e+002
8.801821e+002, 4.803382e+002
8.806642e+002, 4.815132e+002
8.811464e+002, 4.830918e+002
8.816285e+002, 4.843947e+002
8.821106e+002, 4.853672e+002
8.825927e+002, 4.856307e+002
8.830748e+002, 4.851519e+002
8.835569e+002, 4.843612e+002
8.840391e+002, 4.833071e+002
8.845212e+002, 4.824612e+002
8.850033e+002, 4.825128e+002
8.854854e+002, 4.833771e+002
8.859675e+002, 4.832679e+002
8.864496e+002, 4.812543e+002
8.869318e+002, 4.801277e+002
8.874139e+002, 4.811534e+002
8.878960e+002, 4.821879e+002
8.883781e+002, 4.817594e+002
8.888602e+002, 4.805744e+002
8.893423e+002, 4.800504e+002
8.898245e+002, 4.804454e+002
8.903066e+002, 4.810195e+002
8.907887e+002, 4.817632e+002
8.912708e+002, 4.824293e+002
8.917529e+002, 4.832460e+002
8.922350e+002, 4.836979e+002
8.927172e+002, 4.826704e+002
8.931993e+002, 4.803774e+002
8.936814e+002, 4.786647e+002
8.941635e+002, 4.787646e+002
8.946456e+002, 4.796910e+002
8.951277e+002, 4.801631e+002
8.956099e+002, 4.805862e+002
8.960920e+002, 4.824431e+002
8.965741e+002, 4.854626e+002
8.970562e+002, 4.869922e+002
8.975383e+002, 4.857290e+002
8.980204e+002, 4.832452e+002
8.985026e+002, 4.816659e+002
8.989847e+002, 4.809607e+002
8.994668e+002, 4.809371e+002
8.999489e+002, 4.817750e+002
9.004310e+002, 4.821671e+002
9.009131e+002, 4.814505e+002
9.013953e+002, 4.809798e+002
9.018774e+002, 4.820609e+002
9.023595e+002, 4.843408e+002
9.028416e+002, 4.862018e+002
9.033237e+002, 4.882242e+002
9.038058e+002, 4.887700e+002
9.042880e+002, 4.863208e+002
9.047701e+002, 4.842228e+002
9.052522e+002, 4.843305e+002
9.057343e+002, 4.852379e+002
9.062164e+002, 4.850806e+002
9.066985e+002, 4.837313e+002
9.071807e+002, 4.825985e+002
9.076628e+002, 4.822277e+002
9.081449e+002, 4.821417e+002
9.086270e+002, 4.819877e+002
9.091091e+002, 4.820322e+002
9.095912e+002, 4.828221e+002
9.100734e+002, 4.840915e+002
9.105555e+002, 4.850085e+002
9.110376e+002, 4.852038e+002
9.115197e+002, 4.849553e+002
9.120018e+002, 4.843343e+002
9.124839e+002, 4.835704e+002
9.129661e+002, 4.829979e+002
9.134482e+002, 4.827047e+002
9.139303e+002, 4.830882e+002
9.144124e+002, 4.842492e+002
9.148945e+002, 4.858808e+002
9.153766e+002, 4.878561e+002
9.158588e+002, 4.897991e+002
9.163409e+002, 4.904496e+002
9.168230e+002, 4.896964e+002
9.173051e+002, 4.886755e+002
9.177872e+002, 4.873779e+002
9.182693e+002, 4.861459e+002
9.187515e+002, 4.850815e+002
9.192336e+002, 4.842643e+002
9.197157e+002, 4.838571e+002
9.201978e+002, 4.838941e+002
9.206799e+002, 4.839721e+002
9.211620e+002, 4.836284e+002
9.216442e+002, 4.839764e+002
9.221263e+002, 4.858365e+002
9.226084e+002, 4.878014e+002
9.230905e+002, 4.889583e+002
9.235726e+002, 4.894819e+002
9.240547e+002, 4.898980e+002
9.245369e+002, 4.903381e+002
9.250190e+002, 4.905088e+002
9.255011e+002, 4.899013e+002
9.259832e+002, 4.894196e+002
9.264653e+002, 4.897906e+002
9.269474e+002, 4.906059e+002
9.274296e+002, 4.914229e+002
9.279117e+002, 4.920568e+002
9.283938e+002, 4.922032e+002
9.288759e+002, 4.915187e+002
9.293580e+002, 4.906724e+002
9.298401e+002, 4.902845e+002
9.303223e+002, 4.903119e+002
9.308044e+002, 4.908388e+002
9.312865e+002, 4.917282e+002
9.317686e+002, 4.924766e+002
9.322507e+002, 4.928773e+002
9.327328e+002, 4.930973e+002
9.332150e+002, 4.933735e+002
9.336971e+002, 4.935949e+002
9.341792e+002, 4.930746e+002
9.346613e+002, 4.918159e+002
9.351434e+002, 4.916487e+002
9.356255e+002, 4.930773e+002
9.361077e+002, 4.944482e+002
9.365898e+002, 4.946638e+002
9.370719e+002, 4.941435e+002
9.375540e+002, 4.937766e+002
9.380361e+002, 4.935318e+002
9.385182e+002, 4.937057e+002
9.390004e+002, 4.949431e+002
9.394825e+002, 4.952964e+002
9.399646e+002, 4.933075e+002
9.404467e+002, 4.911315e+002
9.409288e+002, 4.910107e+002
9.414109e+002, 4.924530e+002
9.418931e+002, 4.932885e+002
9.423752e+002, 4.928220e+002
9.428573e+002, 4.929005e+002
9.433394e+002, 4.943372e+002
9.438215e+002, 4.957095e+002
9.443036e+002, 4.957897e+002
9.447858e+002, 4.956543e+002
9.452679e+002, 4.972789e+002
9.457500e+002, 5.005943e+002
9.462321e+002, 5.025463e+002
9.467142e+002, 5.011302e+002
9.471964e+002, 4.989300e+002
9.476785e+002, 4.969204e+002
9.481606e+002, 4.953788e+002
9.486427e+002, 4.947352e+002
9.491248e+002, 4.948241e+002
9.496069e+002, 4.953010e+002
9.500891e+002, 4.960099e+002
9.505712e+002, 4.964756e+002
9.510533e+002, 4.956373e+002
9.515354e+002, 4.946762e+002
9.520175e+002, 4.962891e+002
9.524996e+002, 4.993306e+002
9.529818e+002, 5.002742e+002
9.534639e+002, 4.986988e+002
9.539460e+002, 4.966009e+002
9.544281e+002, 4.951367e+002
9.549102e+002, 4.946452e+002
9.553923e+002, 4.962882e+002
9.558745e+002, 4.997220e+002
9.563566e+002, 5.016061e+002
9.568387e+002, 5.018643e+002
9.573208e+002, 5.010595e+002
9.578029e+002, 4.991831e+002
9.582850e+002, 4.972045e+002
9.587672e+002, 4.959216e+002
9.592493e+002, 4.953558e+002
9.597314e+002, 4.957375e+002
9.602135e+002, 4.975416e+002
9.606956e+002, 4.985142e+002
9.611777e+002, 4.982225e+002
9.616599e+002, 4.977939e+002
9.621420e+002, 4.976302e+002
9.626241e+002, 4.976063e+002
9.631062e+002, 4.973802e+002
9.635883e+002, 4.969550e+002
9.640704e+002, 4.976093e+002
9.645526e+002, 5.007072e+002
9.650347e+002, 5.028060e+002
9.655168e+002, 5.034081e+002
9.659989e+002, 5.031570e+002
9.664810e+002, 5.018133e+002
9.669631e+002, 5.001098e+002
9.674453e+002, 4.992011e+002
9.679274e+002, 4.992465e+002
9.684095e+002, 4.992251e+002
9.688916e+002, 4.983560e+002
9.693737e+002, 4.979831e+002
9.698558e+002, 4.996748e+002
9.703380e+002, 5.013553e+002
9.708201e+002, 5.003845e+002
9.713022e+002, 4.978031e+002
9.717843e+002, 4.967408e+002
9.722664e+002, 4.983241e+002
9.727485e+002, 4.998568e+002
9.732307e+002, 4.990254e+002
9.737128e+002, 4.977658e+002
9.741949e+002, 4.980331e+002
9.746770e+002, 4.992089e+002
9.751591e+002, 5.003517e+002
9.756412e+002, 5.012094e+002
9.761234e+002, 5.015467e+002
9.766055e+002, 5.011297e+002
9.770876e+002, 5.009876e+002
9.775698e+002, 5.030560e+002
9.780519e+002, 5.060209e+002
9.785340e+002, 5.068142e+002
9.790161e+002, 5.057808e+002
9.794982e+002, 5.046484e+002
9.799803e+002, 5.039422e+002
9.804625e+002, 5.040114e+002
9.809446e+002, 5.052862e+002
9.814267e+002, 5.069771e+002
9.819088e+002, 5.072463e+002
9.823909e+002, 5.062463e+002
9.828730e+002, 5.053727e+002
9.833552e+002, 5.047066e+002
9.838373e+002, 5.045101e+002
9.843194e+002, 5.049348e+002
9.848015e+002, 5.054999e+002
9.852836e+002, 5.056400e+002
9.857657e+002, 5.055417e+002
9.862479e+002, 5.062940e+002
9.867300e+002, 5.082381e+002
9.872121e+002, 5.092387e+002
9.876942e+002, 5.090505e+002
9.881763e+002, 5.080641e+002
9.886584e+002, 5.060106e+002
9.891406e+002, 5.039306e+002
9.896227e+002, 5.032095e+002
9.901048e+002, 5.038388e+002
9.905869e+002, 5.051832e+002
9.910690e+002, 5.082140e+002
9.915511e+002, 5.100242e+002
9.920333e+002, 5.092100e+002
9.925154e+002, 5.085178e+002
9.929975e+002, 5.099872e+002
9.934796e+002, 5.121906e+002
9.939617e+002, 5.126868e+002
9.944438e+002, 5.112489e+002
9.949260e+002, 5.105203e+002
9.954081e+002, 5.109806e+002
9.958902e+002, 5.117229e+002
9.963723e+002, 5.128929e+002
9.968544e+002, 5.139601e+002
9.973365e+002, 5.147363e+002
9.978187e+002, 5.150960e+002
9.983008e+002, 5.146400e+002
9.987829e+002, 5.131912e+002
9.992650e+002, 5.122885e+002
9.997471e+002, 5.129283e+002
1.000229e+003, 5.135547e+002
1.000711e+003, 5.132084e+002
1.001193e+003, 5.127034e+002
1.001676e+003, 5.129753e+002
1.002158e+003, 5.137620e+002
1.002640e+003, 5.141544e+002
1.003122e+003, 5.138381e+002
1.003604e+003, 5.135837e+002
1.004086e+003, 5.139399e+002
1.004568e+003, 5.144116e+002
1.005050e+003, 5.145544e+002
1.005533e+003, 5.145905e+002
1.006015e+003, 5.149485e+002
1.006497e+003, 5.155289e+002
1.006979e+003, 5.158349e+002
1.007461e+003, 5.156454e+002
1.007943e+003, 5.151605e+002
1.008425e+003, 5.142592e+002
1.008907e+003, 5.133961e+002
1.009389e+003, 5.132155e+002
1.009872e+003, 5.135316e+002
1.010354e+003, 5.138919e+002
1.010836e+003, 5.142582e+002
1.011318e+003, 5.149631e+002
1.011800e+003, 5.162276e+002
1.012282e+003, 5.176406e+002
1.012764e+003, 5.187864e+002
1.013246e+003, 5.196710e+002
1.013729e+003, 5.204400e+002
1.014211e+003, 5.209715e+002
1.014693e+003, 5.204813e+002
1.015175e+003, 5.189692e+002
1.015657e+003, 5.180154e+002
1.016139e+003, 5.187761e+002
1.016621e+003, 5.203583e+002
1.017103e+003, 5.213881e+002
1.017585e+003, 5.219090e+002
1.018068e+003, 5.221558e+002
1.018550e+003, 5.221117e+002
1.019032e+003, 5.213354e+002
1.019514e+003, 5.197112e+002
1.019996e+003, 5.182020e+002
1.020478e+003, 5.175552e+002
1.020960e+003, 5.176824e+002
1.021442e+003, 5.186847e+002
1.021924e+003, 5.204947e+002
1.022407e+003, 5.213705e+002
1.022889e+003, 5.212231e+002
1.023371e+003, 5.205386e+002
1.023853e+003, 5.193615e+002
1.024335e+003, 5.183885e+002
1.024817e+003, 5.183036e+002
1.025299e+003, 5.187816e+002
1.025781e+003, 5.185471e+002
1.026264e+003, 5.172952e+002
1.026746e+003, 5.182631e+002
1.027228e+003, 5.222420e+002
1.027710e+003, 5.251519e+002
1.028192e+003, 5.254791e+002
1.028674e+003, 5.246674e+002
1.029156e+003, 5.239680e+002
1.029638e+003, 5.233636e+002
1.030120e+003, 5.226693e+002
1.030603e+003, 5.215719e+002
1.031085e+003, 5.216487e+002
1.031567e+003, 5.233671e+002
1.032049e+003, 5.252751e+002
1.032531e+003, 5.274344e+002
1.033013e+003, 5.286476e+002
1.033495e+003, 5.271563e+002
1.033977e+003, 5.237479e+002
1.034459e+003, 5.224669e+002
1.034942e+003, 5.243307e+002
1.035424e+003, 5.259355e+002
1.035906e+003, 5.274839e+002
1.036388e+003, 5.283920e+002
1.036870e+003, 5.280464e+002
1.037352e+003, 5.274100e+002
1.037834e+003, 5.275435e+002
1.038316e+003, 5.282554e+002
1.038799e+003, 5.283541e+002
1.039281e+003, 5.267479e+002
1.039763e+003, 5.266625e+002
1.040245e+003, 5.297840e+002
1.040727e+003, 5.322638e+002
1.041209e+003, 5.327232e+002
1.041691e+003, 5.321254e+002
1.042173e+003, 5.310332e+002
1.042656e+003, 5.296042e+002
1.043138e+003, 5.286113e+002
1.043620e+003, 5.277412e+002
1.044102e+003, 5.279918e+002
1.044584e+003, 5.310048e+002
1.045066e+003, 5.331819e+002
1.045548e+003, 5.326525e+002
1.046030e+003, 5.311140e+002
1.046512e+003, 5.299847e+002
1.046995e+003, 5.293240e+002
1.047477e+003, 5.290380e+002
1.047959e+003, 5.292169e+002
1.048441e+003, 5.295523e+002
1.048923e+003, 5.303124e+002
1.049405e+003, 5.308492e+002
1.049887e+003, 5.305626e+002
1.050369e+003, 5.301898e+002
1.050851e+003, 5.307192e+002
1.051334e+003, 5.318621e+002
1.051816e+003, 5.322102e+002
1.052298e+003, 5.310038e+002
1.052780e+003, 5.304622e+002
1.053262e+003, 5.313890e+002
1.053744e+003, 5.327150e+002
1.054226e+003, 5.342443e+002
1.054708e+003, 5.356967e+002
1.055191e+003, 5.368160e+002
1.055673e+003, 5.376160e+002
1.056155e+003, 5.381787e+002
1.056637e+003, 5.383715e+002
1.057119e+003, 5.388321e+002
1.057601e+003, 5.403904e+002
1.058083e+003, 5.414886e+002
1.058565e+003, 5.411358e+002
1.059047e+003, 5.401102e+002
1.059530e+003, 5.390082e+002
1.060012e+003, 5.379800e+002
1.060494e+003, 5.371036e+002
1.060976e+003, 5.363229e+002
1.061458e+003, 5.360770e+002
1.061940e+003, 5.365992e+002
1.062422e+003, 5.375992e+002
1.062904e+003, 5.396995e+002
1.063386e+003, 5.415800e+002
1.063869e+003, 5.415275e+002
1.064351e+003, 5.401965e+002
1.064833e+003, 5.397103e+002
1.065315e+003, 5.407433e+002
1.065797e+003, 5.415194e+002
1.066279e+003, 5.408165e+002
1.066761e+003, 5.402932e+002
1.067243e+003, 5.412021e+002
1.067726e+003, 5.424203e+002
1.068208e+003, 5.430593e+002
1.068690e+003, 5.430116e+002
1.069172e+003, 5.421207e+002
1.069654e+003, 5.402824e+002
1.070136e+003, 5.389216e+002
1.070618e+003, 5.388132e+002
1.071100e+003, 5.391451e+002
1.071583e+003, 5.398713e+002
1.072065e+003, 5.405062e+002
1.072547e+003, 5.406459e+002
1.073029e+003, 5.403198e+002
1.073511e+003, 5.394310e+002
1.073993e+003, 5.379778e+002
1.074475e+003, 5.372769e+002
1.074957e+003, 5.387607e+002
1.075439e+003, 5.400330e+002
1.075922e+003, 5.392006e+002
1.076404e+003, 5.382385e+002
1.076886e+003, 5.391135e+002
1.077368e+003, 5.411091e+002
1.077850e+003, 5.427458e+002
1.078332e+003, 5.437399e+002
1.078814e+003, 5.444916e+002
1.079296e+003, 5.450398e+002
1.079779e+003, 5.455717e+002
1.080261e+003, 5.463079e+002
1.080743e+003, 5.469401e+002
1.081225e+003, 5.472779e+002
1.081707e+003, 5.473016e+002
1.082189e+003, 5.469208e+002
1.082671e+003, 5.461866e+002
1.083153e+003, 5.454500e+002
1.083635e+003, 5.444498e+002
1.084118e+003, 5.442229e+002
1.084600e+003, 5.457727e+002
1.085082e+003, 5.477128e+002
1.085564e+003, 5.498686e+002
1.086046e+003, 5.512758e+002
1.086528e+003, 5.499633e+002
1.087010e+003, 5.464943e+002
1.087492e+003, 5.445479e+002
1.087974e+003, 5.458046e+002
1.088457e+003, 5.473983e+002
1.088939e+003, 5.483502e+002
1.089421e+003, 5.490294e+002
1.089903e+003, 5.501188e+002
1.090385e+003, 5.507499e+002
1.090867e+003, 5.493668e+002
1.091349e+003, 5.465637e+002
1.091831e+003, 5.448114e+002
1.092314e+003, 5.450699e+002
1.092796e+003, 5.451359e+002
1.093278e+003, 5.436261e+002
1.093760e+003, 5.424188e+002
1.094242e+003, 5.431848e+002
1.094724e+003, 5.441157e+002
1.095206e+003, 5.428071e+002
1.095688e+003, 5.402816e+002
1.096171e+003, 5.396443e+002
1.096653e+003, 5.417820e+002
1.097135e+003, 5.435471e+002
1.097617e+003, 5.438297e+002
1.098099e+003, 5.438027e+002
1.098581e+003, 5.431317e+002
1.099063e+003, 5.430899e+002
1.099545e+003, 5.456732e+002
1.100027e+003, 5.492451e+002
1.100510e+003, 5.505410e+002
1.100992e+003, 5.490861e+002
1.101474e+003, 5.474700e+002
1.101956e+003, 5.463135e+002
1.102438e+003, 5.450388e+002
1.102920e+003, 5.421575e+002
1.103402e+003, 5.405535e+002
1.103884e+003, 5.434197e+002
1.104366e+003, 5.478589e+002
1.104849e+003, 5.497057e+002
1.105331e+003, 5.488068e+002
1.105813e+003, 5.478992e+002
1.106295e+003, 5.474440e+002
1.106777e+003, 5.469015e+002
1.107259e+003, 5.464487e+002
1.107741e+003, 5.455856e+002
1.108223e+003, 5.435607e+002
1.108706e+003, 5.413965e+002
1.109188e+003, 5.401761e+002
1.109670e+003, 5.397974e+002
1.110152e+003, 5.395897e+002
1.110634e+003, 5.395190e+002
1.111116e+003, 5.395952e+002
1.111598e+003, 5.401390e+002
1.112080e+003, 5.404061e+002
1.112563e+003, 5.398922e+002
1.113045e+003, 5.392944e+002
1.113527e+003, 5.390657e+002
1.114009e+003, 5.392008e+002
1.114491e+003, 5.397872e+002
1.114973e+003, 5.410949e+002
1.115455e+003, 5.417001e+002
1.115937e+003, 5.410783e+002
1.116419e+003, 5.406570e+002
1.116901e+003, 5.404248e+002
1.117384e+003, 5.408421e+002
1.117866e+003, 5.425490e+002
1.118348e+003, 5.447840e+002
1.118830e+003, 5.464125e+002
1.119312e+003, 5.474428e+002
1.119794e+003, 5.470848e+002
1.120276e+003, 5.441292e+002
1.120758e+003, 5.431597e+002
1.121241e+003, 5.461324e+002
1.121723e+003, 5.475560e+002
1.122205e+003, 5.440520e+002
1.122687e+003, 5.394545e+002
1.123169e+003, 5.383871e+002
1.123651e+003, 5.402475e+002
1.124133e+003, 5.416041e+002
1.124615e+003, 5.423548e+002
1.125098e+003, 5.432646e+002
1.125580e+003, 5.446328e+002
1.126062e+003, 5.449423e+002
1.126544e+003, 5.434457e+002
1.127026e+003, 5.417360e+002
1.127508e+003, 5.411912e+002
1.127990e+003, 5.413097e+002
1.128472e+003, 5.407225e+002
1.128954e+003, 5.393932e+002
1.129437e+003, 5.389784e+002
1.129919e+003, 5.395377e+002
1.130401e+003, 5.400605e+002
1.130883e+003, 5.403385e+002
1.131365e+003, 5.404890e+002
1.131847e+003, 5.405540e+002
1.132329e+003, 5.406644e+002
1.132811e+003, 5.409688e+002
1.133293e+003, 5.415033e+002
1.133776e+003, 5.427792e+002
1.134258e+003, 5.446073e+002
1.134740e+003, 5.450258e+002
1.135222e+003, 5.439340e+002
1.135704e+003, 5.431649e+002
1.136186e+003, 5.434687e+002
1.136668e+003, 5.445612e+002
1.137150e+003, 5.464332e+002
1.137633e+003, 5.482355e+002
1.138115e+003, 5.478583e+002
1.138597e+003, 5.460711e+002
1.139079e+003, 5.451807e+002
1.139561e+003, 5.451752e+002
1.140043e+003, 5.454135e+002
1.140525e+003, 5.456846e+002
1.141007e+003, 5.457697e+002
1.141490e+003, 5.454603e+002
1.141972e+003, 5.454488e+002
1.142454e+003, 5.469063e+002
1.142936e+003, 5.489678e+002
1.143418e+003, 5.507404e+002
1.143900e+003, 5.517944e+002
1.144382e+003, 5.510098e+002
1.144864e+003, 5.486896e+002
1.145346e+003, 5.463034e+002
1.145828e+003, 5.444383e+002
1.146311e+003, 5.426129e+002
1.146793e+003, 5.395755e+002
1.147275e+003, 5.374225e+002
1.147757e+003, 5.385750e+002
1.148239e+003, 5.413352e+002
1.148721e+003, 5.443589e+002
1.149203e+003, 5.471086e+002
1.149685e+003, 5.491209e+002
1.150168e+003, 5.502596e+002
1.150650e+003, 5.504904e+002
1.151132e+003, 5.494551e+002
1.151614e+003, 5.483055e+002
1.152096e+003, 5.477818e+002
1.152578e+003, 5.471709e+002
1.153060e+003, 5.458253e+002
1.153542e+003, 5.442243e+002
1.154025e+003, 5.425834e+002
1.154507e+003, 5.412341e+002
1.154989e+003, 5.411595e+002
1.155471e+003, 5.429174e+002
1.155953e+003, 5.440914e+002
1.156435e+003, 5.438951e+002
1.156917e+003, 5.433500e+002
1.157399e+003, 5.426229e+002
1.157881e+003, 5.418263e+002
1.158364e+003, 5.407589e+002
1.158846e+003, 5.398002e+002
1.159328e+003, 5.398183e+002
1.159810e+003, 5.408738e+002
1.160292e+003, 5.410047e+002
1.160774e+003, 5.392808e+002
1.161256e+003, 5.383023e+002
1.161738e+003, 5.382907e+002
1.162220e+003, 5.389454e+002
1.162703e+003, 5.409784e+002
1.163185e+003, 5.424310e+002
1.163667e+003, 5.409426e+002
1.164149e+003, 5.376843e+002
1.164631e+003, 5.365998e+002
1.165113e+003, 5.379921e+002
1.165595e+003, 5.399216e+002
1.166077e+003, 5.427985e+002
1.166560e+003, 5.442892e+002
1.167042e+003, 5.436594e+002
1.167524e+003, 5.427083e+002
1.168006e+003, 5.424391e+002
1.168488e+003, 5.426604e+002
1.168970e+003, 5.431738e+002
1.169452e+003, 5.438759e+002
1.169934e+003, 5.443196e+002
1.170417e+003, 5.444872e+002
1.170899e+003, 5.440399e+002
1.171381e+003, 5.429857e+002
1.171863e+003, 5.417859e+002
1.172345e+003, 5.406334e+002
1.172827e+003, 5.404020e+002
1.173309e+003, 5.420099e+002
1.173791e+003, 5.440164e+002
1.174273e+003, 5.436141e+002
1.174755e+003, 5.419696e+002
1.175238e+003, 5.419413e+002
1.175720e+003, 5.430771e+002
1.176202e+003, 5.438853e+002
1.176684e+003, 5.441950e+002
1.177166e+003, 5.447576e+002
1.177648e+003, 5.458895e+002
1.178130e+003, 5.464448e+002
1.178612e+003, 5.453741e+002
1.179095e+003, 5.433679e+002
1.179577e+003, 5.402601e+002
1.180059e+003, 5.372924e+002
1.180541e+003, 5.358325e+002
1.181023e+003, 5.357866e+002
1.181505e+003, 5.371986e+002
1.181987e+003, 5.396647e+002
1.182469e+003, 5.413503e+002
1.182952e+003, 5.414250e+002
1.183434e+003, 5.408899e+002
1.183916e+003, 5.395435e+002
1.184398e+003, 5.384780e+002
1.184880e+003, 5.383340e+002
1.185362e+003, 5.387169e+002
1.185844e+003, 5.395087e+002
1.186326e+003, 5.404224e+002
1.186808e+003, 5.408127e+002
1.187291e+003, 5.405336e+002
1.187773e+003, 5.405086e+002
1.188255e+003, 5.408155e+002
1.188737e+003, 5.414157e+002
1.189219e+003, 5.427687e+002
1.189701e+003, 5.437777e+002
1.190183e+003, 5.440154e+002
1.190665e+003, 5.435922e+002
1.191147e+003, 5.420787e+002
1.191630e+003, 5.401857e+002
1.192112e+003, 5.413123e+002
1.192594e+003, 5.465577e+002
1.193076e+003, 5.492189e+002
1.193558e+003, 5.489633e+002
1.194040e+003, 5.475959e+002
1.194522e+003, 5.452643e+002
1.195004e+003, 5.434554e+002
1.195487e+003, 5.431502e+002
1.195969e+003, 5.433687e+002
1.196451e+003, 5.428429e+002
1.196933e+003, 5.415719e+002
1.197415e+003, 5.391011e+002
1.197897e+003, 5.358137e+002
1.198379e+003, 5.339120e+002
1.198861e+003, 5.334893e+002
1.199344e+003, 5.343055e+002
1.199826e+003, 5.360596e+002
1.200308e+003, 5.368659e+002
1.200790e+003, 5.352939e+002
1.201272e+003, 5.332182e+002
1.201754e+003, 5.326459e+002
1.202236e+003, 5.331696e+002
1.202718e+003, 5.347715e+002
1.203200e+003, 5.367280e+002
1.203682e+003, 5.379083e+002
1.204165e+003, 5.383102e+002
1.204647e+003, 5.383355e+002
1.205129e+003, 5.381230e+002
1.205611e+003, 5.378295e+002
1.206093e+003, 5.376635e+002
1.206575e+003, 5.372271e+002
1.207057e+003, 5.357321e+002
1.207539e+003, 5.345452e+002
1.208022e+003, 5.352299e+002
1.208504e+003, 5.362807e+002
1.208986e+003, 5.354789e+002
1.209468e+003, 5.334073e+002
1.209950e+003, 5.326664e+002
1.210432e+003, 5.339141e+002
1.210914e+003, 5.349257e+002
1.211396e+003, 5.361046e+002
1.211879e+003, 5.360802e+002
1.212361e+003, 5.333535e+002
1.212843e+003, 5.315206e+002
1.213325e+003, 5.331880e+002
1.213807e+003, 5.354675e+002
1.214289e+003, 5.345360e+002
1.214771e+003, 5.313362e+002
1.215253e+003, 5.305343e+002
1.215735e+003, 5.324047e+002
1.216218e+003, 5.344144e+002
1.216700e+003, 5.365895e+002
1.217182e+003, 5.377077e+002
1.217664e+003, 5.374613e+002
1.218146e+003, 5.367863e+002
1.218628e+003, 5.361843e+002
1.219110e+003, 5.360814e+002
1.219592e+003, 5.373723e+002
1.220074e+003, 5.391594e+002
1.220557e+003, 5.390757e+002
1.221039e+003, 5.378207e+002
1.221521e+003, 5.372355e+002
1.222003e+003, 5.372301e+002
1.222485e+003, 5.371100e+002
1.222967e+003, 5.366151e+002
1.223449e+003, 5.354172e+002
1.223931e+003, 5.332036e+002
1.224414e+003, 5.311522e+002
1.224896e+003, 5.305677e+002
1.225378e+003, 5.300972e+002
1.225860e+003, 5.282186e+002
1.226342e+003, 5.262518e+002
1.226824e+003, 5.255452e+002
1.227306e+003, 5.258994e+002
1.227788e+003, 5.270551e+002
1.228271e+003, 5.288265e+002
1.228753e+003, 5.295540e+002
1.229235e+003, 5.280936e+002
1.229717e+003, 5.270473e+002
1.230199e+003, 5.272686e+002
1.230681e+003, 5.272610e+002
1.231163e+003, 5.261608e+002
1.231645e+003, 5.251651e+002
1.232127e+003, 5.250372e+002
1.232609e+003, 5.257244e+002
1.233092e+003, 5.273528e+002
1.233574e+003, 5.298715e+002
1.234056e+003, 5.307320e+002
1.234538e+003, 5.296155e+002
1.235020e+003, 5.297388e+002
1.235502e+003, 5.315374e+002
1.235984e+003, 5.319357e+002
1.236466e+003, 5.298184e+002
1.236949e+003, 5.278846e+002
1.237431e+003, 5.283250e+002
1.237913e+003, 5.295980e+002
1.238395e+003, 5.290070e+002
1.238877e+003, 5.274794e+002
1.239359e+003, 5.272094e+002
1.239841e+003, 5.278321e+002
1.240323e+003, 5.286975e+002
1.240806e+003, 5.295361e+002
1.241288e+003, 5.299393e+002
1.241770e+003, 5.298056e+002
1.242252e+003, 5.292912e+002
1.242734e+003, 5.282063e+002
1.243216e+003, 5.275126e+002
1.243698e+003, 5.281423e+002
1.244180e+003, 5.290203e+002
1.244662e+003, 5.297487e+002
1.245145e+003, 5.300451e+002
1.245627e+003, 5.295987e+002
1.246109e+003, 5.285423e+002
1.246591e+003, 5.269455e+002
1.247073e+003, 5.247468e+002
1.247555e+003, 5.236208e+002
1.248037e+003, 5.243348e+002
1.248519e+003, 5.248643e+002
1.249001e+003, 5.253017e+002
1.249484e+003, 5.250754e+002
1.249966e+003, 5.235483e+002
1.250448e+003, 5.223887e+002
1.250930e+003, 5.229911e+002
1.251412e+003, 5.246292e+002
1.251894e+003, 5.259755e+002
1.252376e+003, 5.270493e+002
1.252858e+003, 5.280138e+002
1.253341e+003, 5.288297e+002
1.253823e+003, 5.290399e+002
1.254305e+003, 5.287067e+002
1.254787e+003, 5.285308e+002
1.255269e+003, 5.287443e+002
1.255751e+003, 5.292667e+002
1.256233e+003, 5.300594e+002
1.256715e+003, 5.310591e+002
1.257198e+003, 5.326000e+002
1.257680e+003, 5.339199e+002
1.258162e+003, 5.339254e+002
1.258644e+003, 5.333756e+002
1.259126e+003, 5.332202e+002
1.259608e+003, 5.333393e+002
1.260090e+003, 5.333365e+002
1.260572e+003, 5.331099e+002
1.261054e+003, 5.325299e+002
1.261536e+003, 5.313943e+002
1.262019e+003, 5.302552e+002
1.262501e+003, 5.285335e+002
1.262983e+003, 5.277754e+002
1.263465e+003, 5.291320e+002
1.263947e+003, 5.306838e+002
1.264429e+003, 5.312828e+002
1.264911e+003, 5.313257e+002
1.265393e+003, 5.313660e+002
1.265876e+003, 5.314114e+002
1.266358e+003, 5.317183e+002
1.266840e+003, 5.323598e+002
1.267322e+003, 5.314820e+002
1.267804e+003, 5.290341e+002
1.268286e+003, 5.274437e+002
1.268768e+003, 5.272845e+002
1.269250e+003, 5.282113e+002
1.269733e+003, 5.300572e+002
1.270215e+003, 5.314584e+002
1.270697e+003, 5.305153e+002
1.271179e+003, 5.289108e+002
1.271661e+003, 5.291780e+002
1.272143e+003, 5.302233e+002
1.272625e+003, 5.305302e+002
1.273107e+003, 5.303870e+002
1.273589e+003, 5.305817e+002
1.274072e+003, 5.310744e+002
1.274554e+003, 5.311461e+002
1.275036e+003, 5.304857e+002
1.275518e+003, 5.302878e+002
1.276000e+003, 5.315327e+002
1.276482e+003, 5.323414e+002
1.276964e+003, 5.320063e+002
1.277446e+003, 5.314769e+002
1.277929e+003, 5.308220e+002
1.278411e+003, 5.303845e+002
1.278893e+003, 5.304886e+002
1.279375e+003, 5.310923e+002
1.279857e+003, 5.321089e+002
1.280339e+003, 5.335523e+002
1.280821e+003, 5.352368e+002
1.281303e+003, 5.372632e+002
1.281786e+003, 5.377040e+002
1.282268e+003, 5.362718e+002
##END=



