##NAMES=Edenite
##RRUFFID=R060029
##IDEAL CHEMISTRY=NaCa_2_Mg_5_(Si_7_Al)O_22_(OH)_2_
##LOCALITY=Renfrew County, Ontario, Canada
##OWNER=RRUFF
##SOURCE=University of Arizona Mineral Museum
##DESCRIPTION=Black prismatic
##STATUS=The identification of this mineral has been confirmed by X-ray diffraction and chemical analysis
##URL=rruff.info/R060029
##MEASURED CHEMISTRY=(Na_0.62_K_0.34_[box]_0.04_)(Ca_0.86_Na_0.14_)_2_(Mg_0.57_Fe^2+^_0.30_Fe^3+^_0.07_Al_0.05_Ti_0.01_Mn_0.01_)_5_(Si_6.61_Al_1.39_)O_22_((OH)_0.69_F_0.31_)_2_
164.8412, 65.73288
165.3233, 65.21880
165.8054, 64.82377
166.2875, 64.88519
166.7696, 65.33207
167.2517, 65.62157
167.7339, 65.43532
168.2160, 65.12825
168.6981, 65.09315
169.1802, 65.39758
169.6623, 65.75919
170.1444, 65.88609
170.6266, 65.74525
171.1087, 65.57519
171.5908, 65.40066
172.0729, 65.24515
172.5550, 65.13421
173.0371, 65.07687
173.5193, 65.04270
174.0014, 64.96618
174.4835, 64.78391
174.9656, 64.70486
175.4477, 64.84024
175.9298, 65.03581
176.4120, 65.18077
176.8941, 65.22948
177.3762, 65.17397
177.8583, 64.98026
178.3404, 64.42289
178.8225, 64.02621
179.3047, 63.88393
179.7868, 63.90369
180.2689, 64.00891
180.7510, 64.16568
181.2331, 64.33647
181.7152, 64.34328
182.1973, 64.11407
182.6795, 63.80433
183.1616, 63.33635
183.6437, 62.81056
184.1258, 62.40484
184.6079, 62.23456
185.0900, 62.25347
185.5722, 62.16804
186.0543, 61.92532
186.5364, 61.66111
187.0185, 61.38219
187.5006, 61.11296
187.9827, 60.93408
188.4649, 60.93573
188.9470, 61.05577
189.4291, 61.01304
189.9112, 60.67693
190.3933, 60.30278
190.8754, 60.04990
191.3576, 59.91163
191.8397, 59.82058
192.3218, 59.80585
192.8039, 59.78693
193.2860, 59.57740
193.7681, 58.93221
194.2503, 58.28674
194.7324, 58.19115
195.2145, 58.73338
195.6966, 59.23500
196.1787, 59.30905
196.6608, 59.11040
197.1430, 58.73313
197.6251, 58.04018
198.1072, 57.34410
198.5893, 57.26965
199.0714, 58.10604
199.5535, 58.81060
200.0357, 58.88659
200.5178, 58.61827
200.9999, 58.31430
201.4820, 58.11466
201.9641, 57.95359
202.4462, 57.60733
202.9284, 56.81489
203.4105, 56.28896
203.8926, 56.32500
204.3747, 56.66826
204.8568, 57.02705
205.3389, 57.25568
205.8211, 57.36029
206.3032, 57.35595
206.7853, 57.10384
207.2674, 56.90872
207.7495, 56.88542
208.2316, 56.94197
208.7138, 56.92451
209.1959, 56.72601
209.6780, 56.39647
210.1601, 56.30754
210.6422, 56.78901
211.1243, 57.17615
211.6065, 57.31118
212.0886, 57.27948
212.5707, 57.22636
213.0528, 57.24223
213.5349, 57.32054
214.0170, 57.40078
214.4992, 57.52071
214.9813, 57.60213
215.4634, 57.58906
215.9455, 57.52022
216.4276, 57.47230
216.9097, 57.49178
217.3918, 57.57583
217.8740, 57.70154
218.3561, 57.98843
218.8382, 58.18638
219.3203, 58.13963
219.8024, 57.91508
220.2845, 57.72389
220.7667, 57.72228
221.2488, 57.84435
221.7309, 57.73931
222.2130, 57.20475
222.6951, 56.66805
223.1772, 56.32865
223.6594, 56.16653
224.1415, 56.08780
224.6236, 56.07103
225.1057, 56.08721
225.5878, 56.03989
226.0699, 55.86930
226.5521, 55.70328
227.0342, 55.65806
227.5163, 55.71883
227.9984, 55.73203
228.4805, 55.61417
228.9626, 55.39414
229.4448, 55.12795
229.9269, 54.74402
230.4090, 54.43019
230.8911, 54.44595
231.3732, 54.79424
231.8553, 54.97673
232.3375, 54.66768
232.8196, 54.11711
233.3017, 53.60294
233.7838, 53.13169
234.2659, 52.78028
234.7480, 52.71095
235.2302, 52.96436
235.7123, 53.10612
236.1944, 52.87550
236.6765, 52.51335
237.1586, 52.19532
237.6407, 51.95135
238.1229, 51.77989
238.6050, 51.73053
239.0871, 51.85123
239.5692, 51.83812
240.0513, 51.43068
240.5334, 50.96002
241.0156, 50.65840
241.4977, 50.58061
241.9798, 50.58129
242.4619, 50.46564
242.9440, 50.19333
243.4261, 49.95722
243.9083, 49.75998
244.3904, 49.62780
244.8725, 49.62160
245.3546, 49.74085
245.8367, 49.87313
246.3188, 49.84961
246.8010, 49.60303
247.2831, 49.40865
247.7652, 49.28165
248.2473, 49.21178
248.7294, 49.24324
249.2115, 49.36066
249.6937, 49.45851
250.1758, 49.38945
250.6579, 49.08769
251.1400, 48.78807
251.6221, 48.48247
252.1042, 48.18475
252.5863, 47.85590
253.0685, 47.51682
253.5506, 47.27450
254.0327, 47.27276
254.5148, 47.60027
254.9969, 47.89440
255.4790, 48.29097
255.9612, 48.55565
256.4433, 48.44745
256.9254, 48.02632
257.4075, 47.61510
257.8896, 47.59613
258.3718, 48.12870
258.8539, 48.33623
259.3360, 47.99303
259.8181, 47.59573
260.3002, 47.41392
260.7823, 47.43139
261.2645, 47.44799
261.7466, 47.25465
262.2287, 46.79073
262.7108, 46.58821
263.1929, 46.84424
263.6750, 47.11703
264.1572, 47.15021
264.6393, 46.99792
265.1214, 46.92299
265.6035, 47.16879
266.0856, 47.75263
266.5677, 48.00632
267.0499, 47.77137
267.5320, 47.44656
268.0141, 47.13639
268.4962, 46.86885
268.9783, 46.67272
269.4604, 46.56703
269.9425, 46.55128
270.4247, 46.62100
270.9068, 46.84460
271.3889, 47.06178
271.8710, 47.25240
272.3531, 47.39352
272.8352, 47.42279
273.3174, 47.28654
273.7995, 47.02807
274.2816, 46.86087
274.7637, 46.74019
275.2458, 46.73363
275.7279, 46.98108
276.2101, 47.35617
276.6922, 47.57173
277.1743, 47.47157
277.6564, 47.18245
278.1385, 47.07549
278.6206, 47.24407
279.1028, 47.37685
279.5849, 47.35864
280.0670, 47.25113
280.5491, 47.15599
281.0312, 47.10559
281.5133, 47.09481
281.9955, 47.13020
282.4776, 47.23395
282.9597, 47.29821
283.4418, 47.23854
283.9239, 47.13804
284.4060, 47.13575
284.8882, 47.27525
285.3703, 47.47953
285.8524, 47.64157
286.3345, 47.75642
286.8166, 47.89775
287.2987, 48.16465
287.7809, 48.43283
288.2630, 48.54658
288.7451, 48.47755
289.2272, 48.26452
289.7093, 47.85242
290.1914, 47.25990
290.6736, 46.88714
291.1557, 46.87363
291.6378, 47.06464
292.1199, 47.38060
292.6020, 47.82165
293.0841, 48.14556
293.5663, 48.08914
294.0484, 47.72266
294.5305, 47.44888
295.0126, 47.33916
295.4947, 47.31540
295.9768, 47.33778
296.4590, 47.40213
296.9411, 47.44518
297.4232, 47.41327
297.9053, 47.33171
298.3874, 47.28791
298.8695, 47.34222
299.3517, 47.36967
299.8338, 47.27394
300.3159, 47.06617
300.7980, 46.81386
301.2801, 46.51720
301.7622, 46.22042
302.2444, 45.98787
302.7265, 45.78803
303.2086, 45.71999
303.6907, 45.96319
304.1728, 46.41425
304.6549, 46.67611
305.1371, 46.56997
305.6192, 46.29270
306.1013, 46.15865
306.5834, 46.19182
307.0655, 46.15194
307.5476, 45.83593
308.0298, 45.37635
308.5119, 45.10588
308.9940, 45.14434
309.4761, 45.25503
309.9582, 45.11861
310.4403, 44.77502
310.9225, 44.54926
311.4046, 44.72336
311.8867, 45.01809
312.3688, 44.93242
312.8509, 44.35252
313.3330, 43.74127
313.8152, 43.53182
314.2973, 43.62168
314.7794, 43.70300
315.2615, 43.68265
315.7436, 43.64565
316.2257, 43.70302
316.7079, 43.86087
317.1900, 44.00695
317.6721, 44.12279
318.1542, 44.15645
318.6363, 43.98967
319.1184, 43.42479
319.6006, 42.89049
320.0827, 42.78688
320.5648, 43.05563
321.0469, 43.25832
321.5290, 43.19936
322.0111, 42.97125
322.4933, 42.75457
322.9754, 42.53479
323.4575, 42.36647
323.9396, 42.31677
324.4217, 42.34635
324.9038, 42.31773
325.3860, 42.15617
325.8681, 41.99340
326.3502, 42.07372
326.8323, 42.40448
327.3144, 42.58381
327.7965, 42.34578
328.2787, 41.89849
328.7608, 41.58369
329.2429, 41.45830
329.7250, 41.44416
330.2071, 41.48645
330.6892, 41.58187
331.1714, 41.72979
331.6535, 42.02934
332.1356, 42.32355
332.6177, 42.43101
333.0998, 42.34311
333.5819, 42.18995
334.0641, 42.01437
334.5462, 41.84882
335.0283, 41.79194
335.5104, 41.98881
335.9925, 42.15594
336.4746, 42.05411
336.9568, 41.74032
337.4389, 41.47023
337.9210, 41.34221
338.4031, 41.34735
338.8852, 41.49494
339.3673, 41.93000
339.8495, 42.15366
340.3315, 41.74026
340.8137, 41.00078
341.2958, 40.58418
341.7779, 40.71827
342.2600, 41.09193
342.7421, 41.22693
343.2242, 41.07394
343.7064, 41.12583
344.1885, 41.81984
344.6706, 42.59144
345.1527, 42.67440
345.6348, 41.96612
346.1169, 41.20201
346.5991, 41.08091
347.0812, 41.64964
347.5633, 42.03726
348.0454, 42.19270
348.5275, 42.21114
349.0096, 42.08558
349.4918, 41.85450
349.9739, 41.67426
350.4560, 41.65074
350.9381, 41.74833
351.4202, 41.78555
351.9023, 41.68721
352.3845, 41.62481
352.8666, 41.65747
353.3487, 41.76041
353.8308, 41.92263
354.3129, 42.15415
354.7950, 42.35885
355.2772, 42.32267
355.7593, 41.86372
356.2414, 41.56638
356.7235, 41.63659
357.2056, 41.80845
357.6877, 41.80986
358.1699, 41.59644
358.6520, 41.30891
359.1341, 41.08804
359.6162, 40.93761
360.0983, 40.87122
360.5804, 40.91334
361.0626, 41.00673
361.5447, 41.14405
362.0268, 41.31002
362.5089, 41.46782
362.9910, 41.58890
363.4731, 41.68053
363.9553, 41.80589
364.4374, 42.05319
364.9195, 42.23048
365.4016, 42.33801
365.8837, 42.33988
366.3658, 42.14569
366.8480, 41.71875
367.3301, 41.18983
367.8122, 40.83850
368.2943, 40.70075
368.7764, 40.71418
369.2585, 41.02691
369.7407, 41.37714
370.2228, 41.56902
370.7049, 41.57621
371.1870, 41.49377
371.6691, 41.42047
372.1512, 41.35828
372.6334, 41.29616
373.1155, 41.22872
373.5976, 41.16722
374.0797, 41.09460
374.5618, 41.03187
375.0439, 41.04124
375.5261, 41.18476
376.0082, 41.40191
376.4903, 41.37578
376.9724, 40.88879
377.4545, 40.45495
377.9366, 40.11932
378.4188, 39.88992
378.9009, 39.77843
379.3830, 39.78740
379.8651, 39.89256
380.3472, 40.09937
380.8293, 40.50189
381.3115, 40.69585
381.7936, 40.42755
382.2757, 40.12099
382.7578, 40.01899
383.2399, 40.10757
383.7220, 40.19678
384.2042, 40.10486
384.6863, 39.84818
385.1684, 39.68355
385.6505, 39.68856
386.1326, 39.67567
386.6147, 39.53314
387.0969, 39.33147
387.5790, 39.18501
388.0611, 39.14835
388.5432, 39.17973
389.0253, 39.22498
389.5074, 39.30402
389.9896, 39.30780
390.4717, 39.11409
390.9538, 38.87816
391.4359, 38.73039
391.9180, 38.69094
392.4001, 38.68546
392.8823, 38.68970
393.3644, 38.68989
393.8465, 38.56985
394.3286, 38.21236
394.8107, 37.89986
395.2928, 37.93612
395.7750, 38.22697
396.2571, 38.43336
396.7392, 38.40228
397.2213, 38.22535
397.7034, 37.98558
398.1855, 37.67519
398.6677, 37.45176
399.1498, 37.44064
399.6319, 37.57377
400.1140, 37.69187
400.5961, 37.84219
401.0782, 37.88408
401.5604, 37.63060
402.0425, 37.19360
402.5246, 36.92222
403.0067, 36.95925
403.4888, 37.10797
403.9709, 37.03255
404.4531, 36.68603
404.9352, 36.52759
405.4173, 36.83186
405.8994, 37.24475
406.3815, 37.42675
406.8636, 37.34948
407.3458, 37.11546
407.8279, 36.73905
408.3100, 36.25336
408.7921, 36.14881
409.2742, 36.85089
409.7563, 37.41262
410.2385, 37.36957
410.7206, 36.96581
411.2027, 36.63734
411.6848, 36.56758
412.1669, 36.66840
412.6490, 36.76838
413.1311, 36.93596
413.6133, 36.97050
414.0954, 36.73147
414.5775, 36.46708
415.0596, 36.36137
415.5417, 36.42546
416.0238, 36.56258
416.5060, 36.69767
416.9881, 36.83287
417.4702, 36.86432
417.9523, 36.71245
418.4344, 36.53815
418.9165, 36.28755
419.3987, 36.06237
419.8808, 36.02002
420.3629, 36.23618
420.8450, 36.59545
421.3271, 36.88379
421.8092, 37.16267
422.2914, 37.20098
422.7735, 36.60369
423.2556, 36.05626
423.7377, 36.05589
424.2198, 36.58411
424.7019, 37.20476
425.1841, 37.60984
425.6662, 37.79921
426.1483, 37.70640
426.6304, 37.08756
427.1125, 36.58757
427.5946, 36.58856
428.0768, 36.85658
428.5589, 37.04103
429.0410, 36.99088
429.5231, 36.87971
430.0052, 36.96961
430.4873, 37.26756
430.9695, 37.45022
431.4516, 37.34846
431.9337, 37.16073
432.4158, 37.13110
432.8979, 37.26174
433.3800, 37.34955
433.8622, 37.22086
434.3443, 37.00812
434.8264, 36.99097
435.3085, 37.22226
435.7906, 37.41795
436.2727, 37.33822
436.7549, 37.03659
437.2370, 36.80974
437.7191, 36.69574
438.2012, 36.62937
438.6833, 36.56814
439.1654, 36.52742
439.6476, 36.58225
440.1297, 36.78495
440.6118, 36.98046
441.0939, 36.85646
441.5760, 36.16677
442.0581, 35.85565
442.5403, 36.35563
443.0224, 36.96471
443.5045, 37.13819
443.9866, 36.87595
444.4687, 36.46131
444.9508, 36.08827
445.4330, 35.76593
445.9151, 35.58431
446.3972, 35.63074
446.8793, 35.71922
447.3614, 35.88322
447.8435, 36.04925
448.3257, 36.12233
448.8078, 36.07814
449.2899, 35.99157
449.7720, 35.99736
450.2541, 36.17278
450.7362, 36.16934
451.2184, 35.79731
451.7005, 35.41958
452.1826, 35.16375
452.6647, 35.02010
453.1468, 34.93805
453.6289, 34.90836
454.1111, 34.89540
454.5932, 34.78345
455.0753, 34.51994
455.5574, 34.31293
456.0395, 34.27501
456.5216, 34.29857
457.0038, 34.31426
457.4859, 34.31195
457.9680, 34.28535
458.4501, 34.24266
458.9322, 34.17358
459.4143, 34.01663
459.8965, 33.72404
460.3786, 33.45826
460.8607, 33.33058
461.3428, 33.32908
461.8249, 33.45225
462.3070, 33.86771
462.7892, 34.24360
463.2713, 34.29858
463.7534, 34.09235
464.2355, 33.82774
464.7176, 33.55634
465.1997, 33.32249
465.6819, 33.21561
466.1640, 33.26473
466.6461, 33.32060
467.1282, 33.35926
467.6103, 33.40418
468.0924, 33.52515
468.5746, 33.69064
469.0567, 33.72474
469.5388, 33.45968
470.0209, 32.97735
470.5030, 32.84880
470.9851, 33.61158
471.4673, 34.07441
471.9494, 33.88650
472.4315, 33.45108
472.9136, 33.17672
473.3957, 33.16106
473.8778, 33.21529
474.3600, 33.07878
474.8421, 32.69714
475.3242, 32.53278
475.8063, 32.85782
476.2884, 33.11800
476.7705, 33.07842
477.2527, 32.86176
477.7348, 32.66220
478.2169, 32.54944
478.6990, 32.55057
479.1811, 32.78090
479.6632, 33.28797
480.1454, 33.61930
480.6275, 33.56810
481.1096, 33.39893
481.5917, 33.32784
482.0738, 33.35045
482.5559, 33.38002
483.0380, 33.37079
483.5201, 33.34512
484.0023, 33.32710
484.4844, 33.31671
484.9665, 33.35530
485.4486, 33.49044
485.9307, 33.67817
486.4128, 33.79747
486.8950, 33.81280
487.3771, 33.83934
487.8592, 33.90780
488.3413, 34.01411
488.8234, 34.18739
489.3055, 34.42537
489.7877, 34.61026
490.2698, 34.60370
490.7519, 34.38852
491.2340, 34.32504
491.7161, 34.56858
492.1982, 34.75872
492.6804, 34.69391
493.1625, 34.53519
493.6446, 34.53473
494.1267, 34.78266
494.6088, 35.14496
495.0909, 35.39693
495.5731, 35.49104
496.0552, 35.62591
496.5373, 35.86674
497.0194, 36.08757
497.5015, 36.23615
497.9836, 36.32375
498.4658, 36.38013
498.9479, 36.41466
499.4300, 36.43880
499.9121, 36.46629
500.3942, 36.49058
500.8763, 36.55919
501.3585, 36.70447
501.8406, 36.88578
502.3227, 37.07652
502.8048, 37.27446
503.2869, 37.45314
503.7690, 37.60912
504.2512, 37.73446
504.7333, 37.79863
505.2154, 37.80084
505.6975, 37.80856
506.1796, 37.84071
506.6617, 37.91915
507.1439, 38.11825
507.6260, 38.52144
508.1081, 38.87455
508.5902, 39.12920
509.0723, 39.28867
509.5544, 39.32107
510.0366, 39.23744
510.5187, 39.13800
511.0008, 39.10616
511.4829, 39.14208
511.9650, 39.28439
512.4471, 39.78120
512.9293, 40.08985
513.4114, 39.87025
513.8935, 39.51798
514.3756, 39.53440
514.8577, 40.04523
515.3398, 40.70558
515.8220, 41.08098
516.3041, 41.14840
516.7862, 41.17177
517.2683, 41.09516
517.7504, 41.05120
518.2325, 41.17414
518.7147, 41.35066
519.1968, 41.34637
519.6789, 40.99099
520.1610, 40.65894
520.6431, 40.92176
521.1252, 41.67839
521.6074, 42.04878
522.0895, 41.67912
522.5716, 41.15759
523.0537, 41.18203
523.5358, 41.67206
524.0179, 42.06140
524.5001, 42.25712
524.9822, 42.32330
525.4643, 42.27242
525.9464, 42.12706
526.4285, 41.92139
526.9106, 41.65796
527.3928, 41.40931
527.8749, 41.30819
528.3570, 41.38350
528.8391, 41.55927
529.3212, 41.99049
529.8033, 42.37206
530.2855, 42.53155
530.7676, 42.49864
531.2497, 42.38514
531.7318, 42.25744
532.2139, 42.09052
532.6960, 41.77258
533.1782, 41.16657
533.6603, 40.80088
534.1424, 41.00439
534.6245, 41.28613
535.1066, 41.37141
535.5887, 41.27069
536.0709, 41.14267
536.5530, 41.10887
537.0351, 41.09164
537.5172, 40.91315
537.9993, 40.56462
538.4814, 40.26417
538.9636, 40.13341
539.4457, 40.06994
539.9278, 39.87645
540.4099, 39.51614
540.8920, 39.25914
541.3741, 39.21785
541.8563, 39.28788
542.3384, 39.45943
542.8205, 39.67579
543.3026, 39.66289
543.7847, 39.19686
544.2668, 38.47282
544.7490, 38.21461
545.2311, 38.97968
545.7132, 39.45363
546.1953, 39.46947
546.6774, 39.30056
547.1595, 39.14453
547.6417, 39.00587
548.1238, 38.75494
548.6059, 38.23548
549.0880, 37.57197
549.5701, 37.29250
550.0522, 37.55666
550.5344, 37.79710
551.0165, 37.79912
551.4986, 37.73928
551.9807, 37.76062
552.4628, 37.87083
552.9449, 37.95370
553.4271, 38.00351
553.9092, 37.95955
554.3913, 37.61187
554.8734, 36.94978
555.3555, 36.48507
555.8376, 36.60513
556.3198, 37.01221
556.8019, 36.88057
557.2840, 35.94278
557.7661, 35.23517
558.2482, 35.14289
558.7303, 35.23257
559.2125, 35.06044
559.6946, 34.65681
560.1767, 34.41437
560.6588, 34.64460
561.1409, 35.18012
561.6230, 35.27084
562.1052, 34.48893
562.5873, 33.99492
563.0694, 34.09188
563.5515, 34.32732
564.0336, 34.40669
564.5157, 34.31336
564.9979, 34.17660
565.4800, 34.11397
565.9621, 34.05624
566.4442, 33.75433
566.9263, 33.14538
567.4084, 32.73801
567.8906, 32.86066
568.3727, 33.16181
568.8548, 33.16085
569.3369, 32.84063
569.8190, 32.53348
570.3011, 32.35757
570.7833, 32.24388
571.2654, 32.12697
571.7475, 32.00700
572.2296, 31.94071
572.7117, 31.98245
573.1938, 32.01539
573.6760, 31.73620
574.1581, 30.77978
574.6402, 30.19239
575.1223, 30.23679
575.6044, 30.38540
576.0865, 30.30501
576.5687, 30.06311
577.0508, 29.93241
577.5329, 30.09293
578.0150, 30.35531
578.4971, 30.25576
578.9792, 29.70379
579.4614, 29.30848
579.9435, 29.28134
580.4256, 29.33113
580.9077, 29.24053
581.3898, 29.04054
581.8719, 28.85707
582.3541, 28.73015
582.8362, 28.64341
583.3183, 28.61646
583.8004, 28.62425
584.2825, 28.55723
584.7646, 28.36759
585.2468, 28.15400
585.7289, 28.04335
586.2110, 28.05612
586.6931, 28.06785
587.1752, 28.04658
587.6573, 28.05888
588.1394, 28.20096
588.6215, 28.37208
589.1036, 28.37578
589.5858, 28.15652
590.0679, 27.92089
590.5500, 28.00646
591.0321, 28.46498
591.5142, 28.69324
591.9963, 28.63843
592.4785, 28.41809
592.9606, 27.94520
593.4427, 27.40323
593.9248, 27.06969
594.4069, 27.03565
594.8890, 27.06642
595.3712, 26.97412
595.8533, 26.81929
596.3354, 26.72670
596.8175, 26.71121
597.2996, 26.81003
597.7817, 27.10051
598.2639, 27.52075
598.7460, 27.72170
599.2281, 27.52780
599.7102, 27.38807
600.1923, 27.44329
600.6744, 27.52826
601.1566, 27.45085
601.6387, 27.23532
602.1208, 27.08901
602.6029, 27.18708
603.0850, 27.45316
603.5671, 27.57735
604.0493, 27.50398
604.5314, 27.43815
605.0135, 27.49075
605.4956, 27.51130
605.9777, 27.32023
606.4598, 26.96705
606.9420, 26.75587
607.4241, 26.92875
607.9062, 27.25235
608.3883, 27.48475
608.8704, 27.62720
609.3525, 27.66794
609.8347, 27.58909
610.3168, 27.45710
610.7989, 27.36519
611.2810, 27.32875
611.7631, 27.25101
612.2452, 27.00114
612.7274, 26.85290
613.2095, 27.00443
613.6916, 27.30481
614.1737, 27.54339
614.6558, 27.64316
615.1379, 27.63140
615.6201, 27.48870
616.1022, 27.20735
616.5843, 27.10149
617.0664, 27.23365
617.5485, 27.43338
618.0306, 27.71811
618.5128, 27.98173
618.9949, 28.08278
619.4770, 27.98445
619.9591, 27.81067
620.4412, 27.58527
620.9233, 27.34833
621.4055, 27.15072
621.8876, 26.99942
622.3697, 26.91742
622.8518, 26.92838
623.3339, 27.00168
623.8160, 27.04709
624.2982, 27.03853
624.7803, 27.04407
625.2624, 27.08483
625.7445, 27.12034
626.2266, 27.08747
626.7087, 27.03097
627.1909, 27.06878
627.6730, 27.27512
628.1551, 27.54364
628.6372, 27.67401
629.1193, 27.66113
629.6014, 27.72884
630.0836, 28.00835
630.5657, 28.20673
631.0478, 27.89815
631.5299, 27.32503
632.0120, 27.13227
632.4941, 27.73858
632.9763, 28.26537
633.4584, 28.14522
633.9405, 27.72500
634.4226, 27.50607
634.9047, 27.57354
635.3868, 27.75699
635.8690, 27.93268
636.3511, 28.08603
636.8332, 28.09662
637.3153, 27.72211
637.7974, 27.61470
638.2795, 28.10408
638.7617, 28.65155
639.2438, 28.85569
639.7259, 28.74827
640.2080, 28.62494
640.6901, 28.66563
641.1722, 28.76775
641.6544, 28.73103
642.1365, 28.57994
642.6186, 28.58774
643.1007, 28.87278
643.5828, 29.22325
644.0649, 29.41295
644.5471, 29.43103
645.0292, 29.44656
645.5113, 29.50103
645.9934, 29.50490
646.4755, 29.36585
646.9576, 29.18682
647.4398, 29.06419
647.9219, 29.03556
648.4040, 29.15750
648.8861, 29.53966
649.3682, 30.11133
649.8503, 30.39695
650.3325, 30.28726
650.8146, 30.18296
651.2967, 30.15967
651.7788, 30.22815
652.2609, 30.47099
652.7430, 30.86680
653.2252, 31.10994
653.7073, 30.87903
654.1894, 30.61915
654.6715, 30.76529
655.1536, 31.22194
655.6357, 31.75181
656.1179, 32.27977
656.6000, 32.63118
657.0821, 32.52205
657.5642, 31.86670
658.0463, 31.61382
658.5284, 32.26299
659.0106, 32.73182
659.4927, 32.64277
659.9748, 32.37213
660.4569, 32.29177
660.9390, 32.46822
661.4211, 32.76138
661.9033, 33.16383
662.3854, 33.57715
662.8675, 33.76947
663.3496, 33.74060
663.8317, 33.61092
664.3138, 33.37173
664.7960, 33.15940
665.2781, 33.22742
665.7602, 33.67417
666.2423, 33.82098
666.7244, 33.31091
667.2065, 32.86936
667.6887, 32.94404
668.1708, 33.24273
668.6529, 33.29855
669.1350, 32.99634
669.6171, 32.61689
670.0992, 32.47887
670.5814, 32.54422
671.0635, 32.46243
671.5456, 32.14971
672.0277, 31.96799
672.5098, 32.19555
672.9919, 32.50989
673.4741, 32.50732
673.9562, 32.17573
674.4383, 31.82048
674.9204, 31.47734
675.4025, 31.18362
675.8846, 30.94312
676.3668, 30.77716
676.8489, 30.78829
677.3310, 30.99963
677.8131, 31.17883
678.2952, 31.00361
678.7773, 30.45610
679.2595, 30.04767
679.7416, 29.80161
680.2237, 29.66644
680.7058, 29.71851
681.1879, 29.80728
681.6700, 29.79664
682.1522, 29.67465
682.6343, 29.50508
683.1164, 29.24703
683.5985, 29.01117
684.0806, 28.97870
684.5627, 29.09981
685.0449, 29.14573
685.5270, 29.03004
686.0091, 28.89847
686.4912, 28.96943
686.9733, 29.28520
687.4554, 29.31357
687.9376, 28.72543
688.4197, 28.24932
688.9018, 28.01629
689.3839, 27.96057
689.8660, 28.09228
690.3481, 28.36561
690.8303, 28.55891
691.3124, 28.46092
691.7945, 28.22312
692.2766, 28.14627
692.7587, 28.21059
693.2408, 28.16871
693.7230, 27.91730
694.2051, 27.62778
694.6872, 27.23154
695.1693, 27.52163
695.6514, 27.68026
696.1335, 27.71450
696.6157, 27.25180
697.0978, 27.43080
697.5799, 27.35263
698.0620, 27.26392
698.5441, 27.53324
699.0262, 27.14282
699.5084, 27.40646
699.9905, 27.40901
700.4726, 27.53105
700.9547, 27.39434
701.4368, 27.33755
701.9189, 27.53960
702.4011, 27.59833
702.8832, 27.43183
703.3653, 27.56147
703.8474, 27.16201
704.3295, 27.22684
704.8116, 27.49200
705.2938, 27.33851
705.7759, 27.47288
706.2580, 27.35791
706.7401, 27.30382
707.2222, 27.19095
707.7043, 27.05868
708.1865, 26.93355
708.6686, 26.87024
709.1507, 26.86912
709.6328, 26.94884
710.1149, 27.19019
710.5970, 27.37083
711.0792, 27.25737
711.5613, 26.95098
712.0434, 26.74970
712.5255, 26.68413
713.0076, 26.70492
713.4897, 26.86701
713.9719, 27.05807
714.4540, 27.17778
714.9361, 27.22170
715.4182, 27.21821
715.9003, 27.18039
716.3824, 27.12940
716.8646, 27.10175
717.3467, 27.09678
717.8288, 27.13140
718.3109, 27.25082
718.7930, 27.32832
719.2751, 27.27478
719.7573, 27.13840
720.2394, 26.97503
720.7215, 26.75444
721.2036, 26.63654
721.6857, 26.78328
722.1678, 26.96653
722.6500, 26.96578
723.1321, 26.83177
723.6142, 26.71613
724.0963, 26.68437
724.5784, 26.73412
725.0605, 26.91841
725.5427, 27.24722
726.0248, 27.26891
726.5069, 26.79146
726.9890, 26.44063
727.4711, 26.60085
727.9532, 26.92360
728.4353, 26.72033
728.9174, 27.02171
729.3995, 27.17982
729.8817, 27.20233
730.3638, 26.68318
730.8459, 26.86348
731.3280, 26.76347
731.8101, 26.65197
732.2922, 26.93072
732.7744, 26.49035
733.2565, 26.76291
733.7386, 26.75088
734.2207, 26.86910
734.7028, 26.70528
735.1849, 26.62857
735.6671, 26.83399
736.1492, 26.88320
736.6313, 26.68691
737.1134, 26.81341
737.5955, 26.36319
738.0776, 26.41905
738.5598, 26.69326
739.0419, 26.51115
739.5240, 26.64281
740.0061, 26.65497
740.4882, 26.12405
740.9703, 26.53760
741.4525, 26.54269
741.9346, 26.12840
742.4167, 26.50958
742.8988, 26.15311
743.3809, 26.05993
743.8630, 26.16491
744.3452, 26.06331
744.8273, 26.28740
745.3094, 26.19774
745.7915, 26.08004
746.2736, 26.08468
746.7557, 25.75205
747.2379, 25.79626
747.7200, 25.97284
748.2021, 26.23599
748.6842, 26.49351
749.1663, 26.51780
749.6484, 26.22928
750.1306, 25.90715
750.6127, 25.98265
751.0948, 26.41339
751.5769, 26.56347
752.0590, 26.36843
752.5411, 26.10831
753.0233, 25.80508
753.5054, 25.56528
753.9875, 25.59432
754.4696, 25.88860
754.9517, 26.03446
755.4338, 25.81354
755.9160, 25.62668
756.3981, 25.67911
756.8802, 25.84996
757.3623, 25.99663
757.8444, 26.09162
758.3265, 26.17829
758.8087, 26.29687
759.2908, 26.41267
759.7729, 26.42853
760.2550, 26.34399
760.7371, 26.30381
761.2192, 26.34942
761.7014, 26.39816
762.1835, 26.37977
762.6656, 26.31270
763.1477, 26.27948
763.6298, 26.30570
764.1119, 26.31695
764.5941, 26.25759
765.0762, 26.22404
765.5583, 26.33416
766.0404, 26.50776
766.5225, 26.55536
767.0046, 26.40406
767.4868, 26.24590
767.9689, 26.36169
768.4510, 26.62710
768.9331, 26.61990
769.4152, 26.32183
769.8973, 26.05362
770.3795, 25.94352
770.8616, 25.93486
771.3437, 25.94592
771.8258, 25.96982
772.3079, 26.06549
772.7900, 26.32479
773.2722, 26.53483
773.7543, 26.63182
774.2364, 26.67435
774.7185, 26.74627
775.2006, 26.82768
775.6827, 26.77991
776.1649, 26.41969
776.6470, 26.06398
777.1291, 26.12170
777.6112, 26.45751
778.0933, 26.77479
778.5754, 27.00982
779.0576, 27.00946
779.5397, 26.61684
780.0218, 26.01629
780.5039, 25.78881
780.9860, 26.09517
781.4681, 26.34888
781.9503, 26.59475
782.4324, 26.71183
782.9145, 26.58145
783.3966, 26.32816
783.8787, 26.09794
784.3608, 25.90597
784.8430, 25.83607
785.3251, 26.10218
785.8072, 26.35838
786.2893, 26.15104
786.7714, 25.69888
787.2535, 25.55787
787.7357, 25.87611
788.2178, 26.32593
788.6999, 26.59016
789.1820, 26.68751
789.6641, 26.69047
790.1462, 26.56582
790.6284, 26.50603
791.1105, 26.59602
791.5926, 26.69850
792.0747, 26.68241
792.5568, 26.57837
793.0389, 26.51075
793.5211, 26.52807
794.0032, 26.51200
794.4853, 26.38327
794.9674, 26.25329
795.4495, 26.21846
795.9316, 26.25543
796.4138, 26.29842
796.8959, 26.32045
797.3780, 26.32056
797.8601, 26.25377
798.3422, 26.16566
798.8243, 26.28168
799.3065, 26.61066
799.7886, 26.72564
800.2707, 26.39136
800.7528, 25.99095
801.2349, 26.05999
801.7170, 26.64432
802.1992, 26.95316
802.6813, 26.83483
803.1634, 26.63169
803.6455, 26.21286
804.1276, 25.86765
804.6097, 25.88185
805.0919, 26.17315
805.5740, 26.41262
806.0561, 26.46035
806.5382, 26.46201
807.0203, 26.55082
807.5024, 26.66312
807.9846, 26.66972
808.4667, 26.58513
808.9488, 26.57320
809.4309, 26.72733
809.9130, 26.87335
810.3951, 26.66773
810.8773, 26.07127
811.3594, 25.69174
811.8415, 25.52904
812.3236, 25.59567
812.8057, 26.05839
813.2878, 26.61449
813.7700, 26.94402
814.2521, 27.05140
814.7342, 27.02011
815.2163, 26.66059
815.6984, 26.41396
816.1805, 26.54490
816.6627, 26.79853
817.1448, 26.93856
817.6269, 26.94354
818.1090, 26.86898
818.5911, 26.73011
819.0732, 26.59911
819.5554, 26.64525
820.0375, 26.78609
820.5196, 26.60532
821.0017, 26.06794
821.4838, 25.76938
821.9659, 26.05436
822.4481, 26.58353
822.9302, 26.79900
823.4123, 26.64639
823.8944, 26.54840
824.3765, 26.56485
824.8586, 26.55325
825.3408, 26.44154
825.8229, 26.32371
826.3050, 26.30902
826.7871, 26.37055
827.2692, 26.34854
827.7513, 26.07966
828.2335, 25.88829
828.7156, 26.10408
829.1977, 26.43759
829.6798, 26.46393
830.1619, 26.22270
830.6440, 26.03686
831.1262, 26.07102
831.6083, 26.23170
832.0904, 26.40441
832.5725, 26.58534
833.0546, 26.73995
833.5367, 26.88329
834.0189, 26.88163
834.5010, 26.61534
834.9831, 26.30301
835.4652, 26.25263
835.9473, 26.47973
836.4294, 26.46679
836.9116, 25.88409
837.3937, 25.53357
837.8758, 25.69938
838.3579, 26.00445
838.8400, 26.21531
839.3221, 26.32115
839.8043, 26.37460
840.2864, 26.39659
840.7685, 26.35868
841.2506, 26.13739
841.7327, 25.90280
842.2148, 25.96937
842.6970, 26.26177
843.1791, 26.44722
843.6612, 26.40195
844.1433, 26.22803
844.6254, 26.01625
845.1075, 25.78868
845.5897, 25.73669
846.0718, 25.89988
846.5539, 26.06153
847.0360, 26.21966
847.5181, 26.28142
848.0002, 26.10800
848.4824, 25.76825
848.9645, 25.58484
849.4466, 25.62454
849.9287, 25.68974
850.4108, 25.79308
850.8929, 25.88214
851.3751, 25.94573
851.8572, 25.96707
852.3393, 25.86845
852.8214, 25.64933
853.3035, 25.56025
853.7856, 25.66541
854.2678, 25.98014
854.7499, 26.15159
855.2320, 26.18746
855.7141, 25.68166
856.1962, 25.87531
856.6783, 25.78865
857.1605, 25.69050
857.6426, 25.98260
858.1247, 25.55558
858.6068, 25.84150
859.0889, 25.84282
859.5710, 25.97439
860.0532, 25.82392
860.5353, 25.86848
861.0174, 26.17757
861.4995, 26.19144
861.9816, 25.84889
862.4637, 25.67253
862.9459, 25.83735
863.4280, 25.97672
863.9101, 25.93754
864.3922, 25.85241
864.8743, 25.87621
865.3564, 25.97752
865.8386, 25.98683
866.3207, 25.80099
866.8028, 25.59150
867.2849, 25.50962
867.7670, 25.49536
868.2491, 25.42902
868.7313, 25.33322
869.2134, 25.37429
869.6954, 25.61639
870.1776, 25.82963
870.6597, 25.67802
871.1418, 25.24212
871.6239, 25.13205
872.1060, 25.40743
872.5881, 25.58579
873.0703, 25.53382
873.5524, 25.40623
874.0345, 25.31022
874.5166, 25.24657
874.9987, 25.21921
875.4808, 25.23998
875.9630, 25.27793
876.4451, 25.34412
876.9272, 25.41521
877.4093, 25.56109
877.8914, 25.66365
878.3735, 25.48231
878.8557, 25.01395
879.3378, 24.72943
879.8199, 25.06182
880.3020, 25.44579
880.7841, 25.46598
881.2662, 25.24001
881.7484, 24.80927
882.2305, 24.29405
882.7126, 24.09747
883.1947, 24.47660
883.6768, 25.03185
884.1589, 25.09022
884.6411, 24.76377
885.1232, 24.74987
885.6053, 25.08883
886.0874, 25.27061
886.5695, 25.07735
887.0516, 24.75826
887.5338, 24.59156
888.0159, 24.57040
888.4980, 24.59195
888.9801, 24.71022
889.4622, 24.76195
889.9443, 24.66113
890.4265, 24.56159
890.9086, 24.55425
891.3907, 24.60292
891.8728, 24.64804
892.3549, 24.69080
892.8370, 24.69042
893.3192, 24.60186
893.8013, 24.50356
894.2834, 24.39112
894.7655, 24.32418
895.2476, 24.46461
895.7297, 24.75445
896.2119, 24.83615
896.6940, 24.42833
897.1761, 23.92596
897.6582, 23.79091
898.1403, 23.90484
898.6224, 24.04855
899.1046, 24.18587
899.5867, 24.25134
900.0688, 24.21482
900.5509, 24.17658
901.0330, 24.28865
901.5151, 24.52303
901.9973, 24.62533
902.4794, 24.57541
902.9615, 24.51712
903.4436, 24.49637
903.9257, 24.43527
904.4078, 24.24991
904.8900, 23.98664
905.3721, 23.79451
905.8542, 23.66387
906.3363, 23.63212
906.8184, 23.77973
907.3005, 23.92533
907.7827, 24.04840
908.2648, 24.10953
908.7469, 24.03970
909.2290, 23.85279
909.7111, 23.68570
910.1932, 23.59574
910.6754, 23.51779
911.1575, 23.35504
911.6396, 23.23329
912.1217, 23.33814
912.6038, 23.59651
913.0859, 23.80067
913.5681, 23.87143
914.0502, 23.87746
914.5323, 23.91537
915.0144, 23.92114
915.4965, 23.67522
915.9786, 23.26833
916.4608, 23.11941
916.9429, 23.31240
917.4250, 23.58881
917.9071, 23.77429
918.3892, 23.84661
918.8713, 23.68619
919.3535, 23.24886
919.8356, 23.10864
920.3177, 23.35629
920.7998, 23.66283
921.2819, 23.94343
921.7640, 24.16080
922.2462, 24.29668
922.7283, 24.34743
923.2104, 24.17150
923.6925, 23.35970
924.1746, 22.92560
924.6567, 23.25512
925.1389, 23.63837
925.6210, 23.68702
926.1031, 23.52768
926.5852, 23.37138
927.0673, 23.24456
927.5494, 23.19584
928.0316, 23.33240
928.5137, 23.45031
928.9958, 23.45045
929.4779, 23.34981
929.9600, 23.09053
930.4421, 22.74871
930.9243, 22.56104
931.4064, 22.64737
931.8885, 22.87540
932.3706, 23.24862
932.8527, 23.60101
933.3348, 23.55007
933.8170, 23.20357
934.2991, 23.01253
934.7812, 23.10090
935.2633, 23.23596
935.7454, 23.20478
936.2275, 23.07852
936.7097, 23.06421
937.1918, 23.15788
937.6739, 23.17843
938.1560, 23.10421
938.6381, 22.96784
939.1202, 22.75696
939.6024, 22.56688
940.0845, 22.55887
940.5666, 22.73842
941.0487, 22.78921
941.5308, 22.62461
942.0129, 22.51554
942.4951, 22.50278
942.9772, 22.56131
943.4593, 22.77234
943.9414, 23.01733
944.4235, 22.99442
944.9056, 22.55234
945.3878, 22.41478
945.8699, 23.04232
946.3520, 23.53005
946.8341, 23.36583
947.3162, 23.02621
947.7983, 23.00829
948.2805, 23.26576
948.7626, 23.44873
949.2447, 23.44535
949.7268, 23.33543
950.2089, 22.98637
950.6910, 22.70883
951.1732, 22.94704
951.6553, 23.43781
952.1374, 23.62217
952.6195, 23.41069
953.1016, 23.19419
953.5837, 23.27229
954.0659, 23.43138
954.5480, 23.36358
955.0301, 23.14437
955.5122, 22.91496
955.9943, 22.71258
956.4764, 22.66233
956.9586, 22.81638
957.4407, 22.98605
957.9228, 22.94504
958.4049, 22.73598
958.8870, 22.48550
959.3691, 22.19022
959.8513, 22.14577
960.3334, 22.44195
960.8155, 22.71325
961.2976, 22.73740
961.7797, 22.61152
962.2618, 22.50226
962.7440, 22.39856
963.2261, 22.43850
963.7082, 22.69442
964.1903, 22.92388
964.6724, 23.06234
965.1545, 23.17184
965.6367, 23.33823
966.1188, 23.50964
966.6009, 23.49358
967.0830, 23.17920
967.5651, 22.98114
968.0472, 22.98780
968.5294, 23.02065
969.0115, 23.04739
969.4936, 23.05437
969.9757, 23.02266
970.4578, 22.96020
970.9399, 22.90011
971.4221, 22.84706
971.9042, 22.80497
972.3863, 22.72116
972.8684, 22.70336
973.3505, 22.97847
973.8326, 23.29546
974.3148, 23.19910
974.7969, 22.69091
975.2790, 22.28677
975.7611, 22.28325
976.2432, 22.43268
976.7253, 22.53604
977.2075, 22.65376
977.6896, 22.95794
978.1717, 23.34038
978.6538, 23.47064
979.1359, 23.26082
979.6180, 22.94403
980.1002, 22.66199
980.5823, 22.48346
981.0644, 22.59943
981.5465, 22.90942
982.0286, 23.11500
982.5107, 23.18125
982.9929, 23.16605
983.4750, 23.09575
983.9571, 22.95933
984.4392, 22.69129
984.9213, 22.36899
985.4034, 22.37633
985.8856, 22.71137
986.3677, 23.10236
986.8498, 23.52526
987.3319, 23.78297
987.8140, 23.74403
988.2961, 23.50765
988.7783, 23.21821
989.2604, 22.86816
989.7425, 22.71719
990.2246, 22.82594
990.7067, 22.91890
991.1888, 22.93981
991.6710, 22.92347
992.1531, 22.85767
992.6352, 22.79943
993.1173, 22.91640
993.5994, 23.30813
994.0815, 23.46863
994.5637, 23.26960
995.0458, 23.03357
995.5279, 22.74323
996.0100, 22.52729
996.4921, 22.52401
996.9742, 22.66716
997.4564, 22.77182
997.9385, 22.82890
998.4206, 22.84732
998.9027, 22.81426
999.3848, 22.76022
999.8669, 22.68706
1000.349, 22.60554
1000.831, 22.48672
1001.313, 22.36698
1001.795, 22.37325
1002.278, 22.57348
1002.760, 22.78371
1003.242, 23.02214
1003.724, 23.15802
1004.206, 23.00249
1004.688, 22.76093
1005.170, 22.72304
1005.652, 22.87365
1006.134, 22.95830
1006.617, 22.84237
1007.099, 22.73427
1007.581, 22.84055
1008.063, 22.96128
1008.545, 22.85155
1009.027, 22.62832
1009.509, 22.53325
1009.991, 22.58706
1010.473, 22.60184
1010.956, 22.44255
1011.438, 22.28826
1011.920, 22.38835
1012.402, 22.57308
1012.884, 22.53556
1013.366, 22.35496
1013.848, 22.29757
1014.330, 22.42144
1014.813, 22.59319
1015.295, 22.72985
1015.777, 22.80824
1016.259, 22.75747
1016.741, 22.62993
1017.223, 22.55313
1017.705, 22.53417
1018.187, 22.58612
1018.669, 22.70281
1019.152, 22.73910
1019.634, 22.54471
1020.116, 22.25312
1020.598, 22.20405
1021.080, 22.33905
1021.562, 22.23895
1022.044, 21.89544
1022.526, 21.76484
1023.008, 22.01609
1023.491, 22.35629
1023.973, 22.50296
1024.455, 22.50578
1024.937, 22.51904
1025.419, 22.54317
1025.901, 22.50712
1026.383, 22.40167
1026.865, 22.28905
1027.348, 22.19800
1027.830, 22.07519
1028.312, 21.83677
1028.794, 21.54609
1029.276, 21.53248
1029.758, 21.87363
1030.240, 21.97635
1030.722, 21.72896
1031.204, 21.53185
1031.687, 21.54651
1032.169, 21.66231
1032.651, 21.77495
1033.133, 21.87629
1033.615, 21.91583
1034.097, 21.87172
1034.579, 21.83098
1035.061, 21.78476
1035.544, 21.77736
1036.026, 21.88168
1036.508, 21.95224
1036.990, 21.79280
1037.472, 21.44914
1037.954, 21.25476
1038.436, 21.29996
1038.918, 21.29639
1039.401, 21.17307
1039.883, 21.10438
1040.365, 21.18543
1040.847, 21.32281
1041.329, 21.47191
1041.811, 21.60675
1042.293, 21.52523
1042.775, 20.96741
1043.257, 20.64748
1043.740, 20.69960
1044.222, 20.82094
1044.704, 20.97449
1045.186, 21.10114
1045.668, 21.09893
1046.150, 21.00507
1046.632, 21.03746
1047.114, 21.33609
1047.596, 21.50317
1048.079, 21.37159
1048.561, 21.27350
1049.043, 21.43113
1049.525, 21.60650
1050.007, 21.53142
1050.489, 21.25525
1050.971, 21.02963
1051.453, 20.88477
1051.936, 20.79544
1052.418, 20.81585
1052.900, 20.81983
1053.382, 20.69719
1053.864, 20.57807
1054.346, 20.60453
1054.828, 20.74952
1055.310, 20.90606
1055.792, 21.09763
1056.275, 21.16061
1056.757, 20.97360
1057.239, 20.74981
1057.721, 20.51015
1058.203, 20.33748
1058.685, 20.33435
1059.167, 20.46079
1059.649, 20.59196
1060.131, 20.70476
1060.614, 20.80853
1061.096, 20.98433
1061.578, 21.05561
1062.060, 20.85808
1062.542, 20.58512
1063.024, 20.38818
1063.506, 20.27931
1063.988, 20.25459
1064.471, 20.32787
1064.953, 20.36227
1065.435, 20.25333
1065.917, 20.16147
1066.399, 20.20323
1066.881, 20.26593
1067.363, 20.22330
1067.845, 20.12165
1068.328, 20.13325
1068.810, 20.30543
1069.292, 20.25878
1069.774, 19.47629
1070.256, 18.90425
1070.738, 19.18686
1071.220, 19.72296
1071.702, 20.05242
1072.184, 20.19340
1072.667, 20.29641
1073.149, 20.38649
1073.631, 20.30958
1074.113, 19.73280
1074.595, 19.32421
1075.077, 19.62593
1075.559, 20.02065
1076.041, 19.91587
1076.523, 19.56820
1077.006, 19.51715
1077.488, 19.80853
1077.970, 19.93985
1078.452, 19.54715
1078.934, 19.23442
1079.416, 19.42258
1079.898, 19.67017
1080.380, 19.58058
1080.863, 19.35464
1081.345, 19.35746
1081.827, 19.57976
1082.309, 19.64517
1082.791, 19.32500
1083.273, 19.05927
1083.755, 19.13734
1084.237, 19.24840
1084.719, 19.17776
1085.202, 19.00898
1085.684, 18.77044
1086.166, 18.54569
1086.648, 18.61062
1087.130, 19.15466
1087.612, 19.57135
1088.094, 19.52869
1088.576, 19.35637
1089.058, 19.21758
1089.541, 19.08134
1090.023, 18.87239
1090.505, 18.63249
1090.987, 18.48999
1091.469, 18.48670
1091.951, 18.49729
1092.433, 18.48809
1092.915, 18.46121
1093.397, 18.38904
1093.880, 18.32512
1094.362, 18.27836
1094.844, 18.29010
1095.326, 18.49316
1095.808, 18.91223
1096.290, 19.14329
1096.772, 18.87879
1097.254, 18.63636
1097.737, 18.71728
1098.219, 18.78638
1098.701, 18.50963
1099.183, 18.09925
1099.665, 17.90030
1100.147, 17.94205
1100.629, 18.02191
1101.111, 18.11626
1101.594, 18.19222
1102.076, 18.23067
1102.558, 18.25908
1103.040, 18.32455
1103.522, 18.36684
1104.004, 18.30893
1104.486, 18.15807
1104.968, 17.96186
1105.450, 17.63824
1105.932, 17.50000
1106.415, 17.86740
1106.897, 18.10641
1107.379, 17.77516
1107.861, 17.36604
1108.343, 17.35319
1108.825, 17.62631
1109.307, 17.83986
1109.789, 17.97840
1110.272, 17.97502
1110.754, 17.64648
1111.236, 17.41943
1111.718, 17.50464
1112.200, 17.61532
1112.682, 17.53640
1113.164, 17.36566
1113.646, 17.27681
1114.129, 17.27823
1114.611, 17.31935
1115.093, 17.43900
1115.575, 17.53758
1116.057, 17.65866
1116.539, 17.69353
1117.021, 17.58164
1117.503, 17.36637
1117.985, 17.03409
1118.468, 16.62002
1118.950, 16.44252
1119.432, 16.65137
1119.914, 16.77442
1120.396, 16.72370
1120.878, 16.75294
1121.360, 17.05504
1121.842, 17.29758
1122.324, 17.13713
1122.807, 16.72384
1123.289, 16.49730
1123.771, 16.47637
1124.253, 16.56461
1124.735, 16.83601
1125.217, 16.97806
1125.699, 16.84373
1126.181, 16.80116
1126.664, 17.15489
1127.146, 17.59722
1127.628, 17.58224
1128.110, 17.13850
1128.592, 16.85041
1129.074, 16.74430
1129.556, 16.60021
1130.038, 16.36010
1130.521, 16.28645
1131.003, 16.52416
1131.485, 16.83548
1131.967, 16.96647
1132.449, 16.95150
1132.931, 16.88746
1133.413, 16.77573
1133.895, 16.71756
1134.377, 16.71738
1134.859, 16.82494
1135.342, 17.05840
1135.824, 17.26416
1136.306, 17.33444
1136.788, 17.29233
1137.270, 17.15057
1137.752, 16.93331
1138.234, 16.73863
1138.716, 16.57342
1139.199, 16.47451
1139.681, 16.45186
1140.163, 16.55815
1140.645, 16.81599
1141.127, 17.06060
1141.609, 17.09992
1142.091, 17.02773
1142.573, 17.02751
1143.056, 17.06318
1143.538, 17.04930
1144.020, 16.98507
1144.502, 16.88488
1144.984, 16.76239
1145.466, 16.67288
1145.948, 16.66080
1146.430, 16.66803
1146.912, 16.62662
1147.395, 16.56800
1147.877, 16.50139
1148.359, 16.46583
1148.841, 16.55796
1149.323, 16.74968
1149.805, 16.93414
1150.287, 17.07296
1150.769, 17.06777
1151.251, 16.64297
1151.734, 16.29156
1152.216, 16.37746
1152.698, 16.70690
1153.180, 16.89306
1153.662, 16.94363
1154.144, 16.45253
1154.626, 16.66088
1155.108, 16.58893
1155.591, 16.50549
1156.073, 16.81229
1156.555, 16.39997
1157.037, 16.70059
1157.519, 16.71661
1158.001, 16.86289
1158.483, 16.72712
1158.965, 16.67846
1159.448, 16.91195
1159.930, 16.98921
1160.412, 16.82097
1160.894, 16.97553
1161.376, 16.55336
1161.858, 16.63728
1162.340, 16.93954
1162.822, 16.60353
1163.304, 16.59591
1163.786, 16.54653
1164.269, 16.46010
1164.751, 16.50570
1165.233, 16.84022
1165.715, 16.89806
1166.197, 16.48464
1166.679, 16.19585
1167.161, 16.25435
1167.643, 16.48371
1168.126, 16.78725
1168.608, 17.07092
1169.090, 17.06597
1169.572, 16.75722
1170.054, 16.48619
1170.536, 16.24024
1171.018, 16.23587
1171.500, 16.54032
1171.983, 16.69273
1172.465, 16.43581
1172.947, 16.12544
1173.429, 16.21260
1173.911, 16.54622
1174.393, 16.72122
1174.875, 16.74351
1175.357, 16.55209
1175.839, 16.03002
1176.322, 16.37150
1176.804, 16.56966
1177.286, 16.63224
1177.768, 16.15315
1178.250, 16.37352
1178.732, 16.31357
1179.214, 16.24213
1179.696, 16.56094
1180.178, 16.16063
1180.661, 16.47329
1181.143, 16.50132
1181.625, 16.65961
1182.107, 16.53585
1182.589, 16.49920
1183.071, 16.74469
1183.553, 16.83396
1184.035, 16.39627
1184.518, 16.36645
1185.000, 16.61374
1185.482, 16.93904
1185.964, 17.07750
1186.446, 17.01754
1186.928, 16.82468
1187.410, 16.45466
1187.892, 16.26467
1188.375, 16.53510
1188.857, 16.74766
1189.339, 16.66077
1189.821, 16.53706
1190.303, 16.57841
1190.785, 16.67913
1191.267, 16.62420
1191.749, 16.43583
1192.231, 16.45252
1192.714, 16.87199
1193.196, 17.03830
1193.678, 16.81809
1194.160, 16.63416
1194.642, 16.63083
1195.124, 16.63663
1195.606, 16.50324
1196.088, 16.33555
1196.570, 16.36554
1197.053, 16.56977
1197.535, 16.55835
1198.017, 16.32437
1198.499, 16.21452
1198.981, 16.26950
1199.463, 16.29918
1199.945, 16.23005
1200.427, 16.16592
1200.910, 16.20611
1201.392, 16.27308
1201.874, 16.19783
1202.356, 16.05438
1202.838, 16.06314
1203.320, 16.16195
1203.802, 16.15126
1204.284, 16.02690
1204.766, 15.89357
1205.249, 15.79944
1205.731, 15.83127
1206.213, 16.16822
1206.695, 16.48599
1207.177, 16.45047
1207.659, 16.30417
1208.141, 16.27695
1208.623, 16.32128
1209.105, 16.37761
1209.588, 16.40624
1210.070, 16.27007
1210.552, 15.83994
1211.034, 15.68899
1211.516, 16.34354
1211.998, 16.80187
1212.480, 16.49897
1212.962, 16.14585
1213.445, 16.27559
1213.927, 16.59630
1214.409, 16.68079
1214.891, 16.54936
1215.373, 16.36638
1215.855, 16.03994
1216.337, 15.94470
1216.819, 16.17993
1217.302, 16.33918
1217.784, 16.31475
1218.266, 16.19326
1218.748, 16.00261
1219.230, 15.85706
1219.712, 15.97023
1220.194, 16.25465
1220.676, 16.27691
1221.158, 16.08333
1221.641, 16.06077
1222.123, 16.19934
1222.605, 16.18378
1223.087, 15.94007
1223.569, 15.66410
1224.051, 15.47392
1224.533, 15.37608
1225.015, 15.36615
1225.497, 15.46570
1225.979, 15.84090
1226.462, 16.25261
1226.944, 16.31251
1227.426, 16.10703
1227.908, 15.89373
1228.390, 15.73983
1228.872, 15.61832
1229.354, 15.49460
1229.836, 15.45860
1230.319, 15.69381
1230.801, 15.83973
1231.283, 15.57973
1231.765, 15.27760
1232.247, 15.29882
1232.729, 15.49904
1233.211, 15.49513
1233.693, 15.27384
1234.176, 15.36867
1234.658, 16.01748
1235.140, 16.34615
1235.622, 16.17284
1236.104, 16.09132
1236.586, 16.32207
1237.068, 16.59355
1237.550, 16.71660
1238.032, 16.68859
1238.515, 16.46548
1238.997, 16.09847
1239.479, 15.87121
1239.961, 15.76754
1240.443, 15.69705
1240.925, 15.65460
1241.407, 15.69403
1241.889, 15.81838
1242.371, 15.91645
1242.854, 15.91491
1243.336, 15.86419
1243.818, 15.75339
1244.300, 15.68387
1244.782, 15.83575
1245.264, 16.04381
1245.746, 16.07013
1246.228, 15.98442
1246.711, 16.00546
1247.193, 16.15079
1247.675, 16.18574
1248.157, 15.94606
1248.639, 15.79949
1249.121, 15.93459
1249.603, 16.03654
1250.085, 15.99985
1250.568, 15.87584
1251.050, 15.60314
1251.532, 15.16112
1252.014, 15.49959
1252.496, 15.69478
1252.978, 15.75438
1253.460, 15.27232
1253.942, 15.48971
1254.424, 15.42679
1254.906, 15.35237
1255.389, 15.66823
1255.871, 15.26495
1256.353, 15.57460
1256.835, 15.59966
1257.317, 15.75497
1257.799, 15.62823
1258.281, 15.58861
1258.763, 15.83113
1259.246, 15.91744
1259.728, 15.75824
1260.210, 15.92183
1260.692, 15.50870
1261.174, 15.60164
1261.656, 15.91294
1262.138, 15.76792
1262.620, 15.93667
1263.103, 15.98594
1263.585, 15.49211
1264.067, 15.57763
1264.549, 15.59479
1265.031, 15.65728
1265.513, 15.75772
1265.995, 15.86625
1266.477, 15.84296
1266.959, 15.61661
1267.442, 15.64598
1267.924, 16.08595
1268.406, 16.15290
1268.888, 15.63173
1269.370, 15.22493
1269.852, 15.24057
##END=



