##NAMES=Edingtonite
##RRUFFID=R040110
##IDEAL CHEMISTRY=Ba(Si_3_Al_2_)O_10_&#183;4H_2_O
##LOCALITY=2350 level, Brunswick 12 mine, Bathhurst, New Brunswick, Canada
##OWNER=RRUFF
##SOURCE=National Museums of Canada
##DESCRIPTION=Colorless rectangular prism
##STATUS=The identification of this mineral has been confirmed by X-ray diffraction and chemical analysis
##URL=rruff.info/R040110
##MEASURED CHEMISTRY=Ba_1.00_(Si_3.00_Al_2.00_)O_10_Â·4H_2_O
120.7725, 892.3989
121.2546, 953.6155
121.7368, 1024.851
122.2189, 1118.292
122.7010, 1225.073
123.1831, 1334.589
123.6652, 1444.704
124.1473, 1554.898
124.6295, 1662.035
125.1116, 1766.012
125.5937, 1875.330
126.0758, 1998.524
126.5579, 2134.001
127.0400, 2274.354
127.5222, 2418.367
128.0043, 2565.816
128.4864, 2715.075
128.9685, 2865.157
129.4506, 3021.253
129.9327, 3189.706
130.4149, 3370.474
130.8970, 3556.364
131.3791, 3747.735
131.8612, 3942.354
132.3433, 4122.434
132.8254, 4284.590
133.3076, 4430.340
133.7897, 4565.786
134.2718, 4693.820
134.7539, 4795.062
135.2360, 4851.888
135.7181, 4863.335
136.2003, 4852.958
136.6824, 4819.435
137.1645, 4766.784
137.6466, 4722.429
138.1287, 4691.419
138.6108, 4658.848
139.0930, 4606.504
139.5751, 4527.441
140.0572, 4453.089
140.5393, 4391.461
141.0214, 4342.388
141.5035, 4301.913
141.9857, 4268.349
142.4678, 4244.315
142.9499, 4234.457
143.4320, 4241.196
143.9141, 4257.964
144.3962, 4282.556
144.8784, 4313.135
145.3605, 4356.097
145.8426, 4416.196
146.3247, 4488.399
146.8068, 4556.982
147.2889, 4613.416
147.7711, 4674.386
148.2532, 4746.892
148.7353, 4842.179
149.2174, 4935.952
149.6995, 5030.968
150.1816, 5126.344
150.6638, 5210.112
151.1459, 5286.334
151.6280, 5348.362
152.1101, 5392.302
152.5922, 5412.484
153.0743, 5420.315
153.5565, 5422.312
154.0386, 5418.872
154.5207, 5386.817
155.0028, 5310.941
155.4849, 5209.877
155.9670, 5099.813
156.4492, 4976.800
156.9313, 4852.028
157.4134, 4725.916
157.8955, 4598.183
158.3776, 4475.786
158.8597, 4364.542
159.3419, 4258.540
159.8240, 4151.153
160.3061, 4030.663
160.7882, 3914.385
161.2703, 3812.434
161.7524, 3728.493
162.2346, 3648.291
162.7167, 3568.161
163.1988, 3487.018
163.6809, 3403.979
164.1630, 3309.980
164.6451, 3218.012
165.1273, 3137.437
165.6094, 3070.996
166.0915, 3014.775
166.5736, 2970.276
167.0557, 2935.542
167.5379, 2901.829
168.0200, 2861.159
168.5021, 2820.636
168.9842, 2788.509
169.4663, 2774.795
169.9484, 2762.255
170.4306, 2733.812
170.9127, 2691.635
171.3948, 2651.525
171.8769, 2626.406
172.3590, 2610.417
172.8411, 2595.010
173.3233, 2576.276
173.8054, 2557.271
174.2875, 2542.473
174.7696, 2531.893
175.2517, 2520.547
175.7338, 2502.558
176.2160, 2480.463
176.6981, 2459.921
177.1802, 2444.240
177.6623, 2431.485
178.1444, 2419.985
178.6265, 2410.252
179.1087, 2398.465
179.5908, 2375.006
180.0729, 2344.401
180.5550, 2322.600
181.0371, 2325.384
181.5192, 2342.493
182.0014, 2351.436
182.4835, 2350.630
182.9656, 2341.749
183.4477, 2323.287
183.9298, 2296.503
184.4119, 2270.947
184.8941, 2250.719
185.3762, 2235.891
185.8583, 2228.238
186.3404, 2229.205
186.8225, 2234.960
187.3046, 2241.189
187.7868, 2247.778
188.2689, 2249.821
188.7510, 2240.825
189.2331, 2222.793
189.7152, 2208.293
190.1973, 2200.467
190.6795, 2196.423
191.1616, 2188.063
191.6437, 2174.817
192.1258, 2163.270
192.6079, 2161.932
193.0900, 2170.102
193.5722, 2171.112
194.0543, 2158.925
194.5364, 2137.941
195.0185, 2124.954
195.5006, 2120.854
195.9827, 2120.622
196.4649, 2121.054
196.9470, 2122.326
197.4291, 2120.408
197.9112, 2113.567
198.3933, 2102.483
198.8754, 2091.053
199.3576, 2078.604
199.8397, 2067.781
200.3218, 2062.087
200.8039, 2062.007
201.2860, 2064.142
201.7681, 2069.531
202.2503, 2077.851
202.7324, 2077.585
203.2145, 2066.535
203.6966, 2050.939
204.1787, 2037.472
204.6608, 2025.255
205.1430, 2019.787
205.6251, 2025.926
206.1072, 2045.163
206.5893, 2055.577
207.0714, 2054.748
207.5535, 2048.092
208.0357, 2043.753
208.5178, 2041.594
208.9999, 2042.347
209.4820, 2047.925
209.9641, 2060.291
210.4462, 2065.376
210.9284, 2059.192
211.4105, 2048.984
211.8926, 2050.780
212.3747, 2069.525
212.8568, 2088.352
213.3389, 2098.620
213.8211, 2095.938
214.3032, 2101.048
214.7853, 2117.042
215.2674, 2139.547
215.7495, 2156.360
216.2316, 2163.976
216.7138, 2173.186
217.1959, 2189.490
217.6780, 2215.026
218.1601, 2241.783
218.6422, 2270.150
219.1243, 2299.224
219.6065, 2324.873
220.0886, 2342.921
220.5707, 2364.275
221.0528, 2394.324
221.5349, 2434.851
222.0170, 2480.832
222.4992, 2534.433
222.9813, 2593.237
223.4634, 2648.255
223.9455, 2693.682
224.4276, 2744.265
224.9097, 2809.946
225.3919, 2900.714
225.8740, 2983.976
226.3561, 3048.782
226.8382, 3101.927
227.3203, 3188.930
227.8024, 3324.735
228.2846, 3473.668
228.7667, 3613.422
229.2488, 3731.191
229.7309, 3862.249
230.2130, 4014.311
230.6951, 4183.448
231.1773, 4345.255
231.6594, 4498.818
232.1415, 4644.545
232.6236, 4784.567
233.1057, 4927.781
233.5878, 5048.573
234.0700, 5151.995
234.5521, 5234.986
235.0342, 5261.810
235.5163, 5235.084
235.9984, 5148.450
236.4805, 4989.230
236.9627, 4725.999
237.4448, 4456.386
237.9269, 4190.907
238.4090, 3929.898
238.8911, 3682.020
239.3732, 3441.488
239.8554, 3220.209
240.3375, 3029.081
240.8196, 2874.093
241.3017, 2738.091
241.7838, 2617.194
242.2659, 2511.985
242.7481, 2421.320
243.2302, 2346.417
243.7123, 2284.833
244.1944, 2236.508
244.6765, 2211.777
245.1586, 2180.128
245.6408, 2132.424
246.1229, 2068.273
246.6050, 2018.478
247.0871, 1986.549
247.5692, 1965.330
248.0513, 1948.478
248.5335, 1936.204
249.0156, 1928.124
249.4977, 1926.120
249.9798, 1930.388
250.4619, 1928.941
250.9440, 1919.109
251.4262, 1906.463
251.9083, 1896.577
252.3904, 1891.222
252.8725, 1884.767
253.3546, 1874.727
253.8367, 1860.871
254.3189, 1853.868
254.8010, 1856.821
255.2831, 1863.165
255.7652, 1866.872
256.2473, 1868.461
256.7295, 1865.775
257.2116, 1855.652
257.6937, 1837.950
258.1758, 1831.297
258.6579, 1841.561
259.1400, 1855.724
259.6222, 1860.024
260.1043, 1850.642
260.5864, 1840.622
261.0685, 1830.632
261.5506, 1820.858
262.0327, 1822.212
262.5149, 1839.341
262.9970, 1861.109
263.4791, 1875.573
263.9612, 1880.604
264.4433, 1884.890
264.9254, 1890.988
265.4076, 1898.667
265.8897, 1901.387
266.3718, 1896.218
266.8539, 1890.950
267.3360, 1895.178
267.8181, 1912.668
268.3003, 1925.820
268.7824, 1928.706
269.2645, 1922.304
269.7466, 1922.921
270.2287, 1932.849
270.7108, 1945.204
271.1930, 1952.739
271.6751, 1954.037
272.1572, 1956.980
272.6393, 1964.221
273.1214, 1975.117
273.6035, 1982.476
274.0857, 1985.976
274.5678, 1986.928
275.0499, 1985.796
275.5320, 1982.092
276.0141, 1979.913
276.4962, 1981.281
276.9784, 1985.062
277.4605, 1984.350
277.9426, 1978.904
278.4247, 1969.992
278.9068, 1956.392
279.3889, 1937.404
279.8711, 1924.996
280.3532, 1924.078
280.8353, 1931.304
281.3174, 1932.800
281.7995, 1928.198
282.2816, 1919.716
282.7638, 1907.269
283.2459, 1890.972
283.7280, 1878.418
284.2101, 1872.412
284.6922, 1870.624
285.1743, 1863.981
285.6565, 1851.657
286.1386, 1842.657
286.6207, 1847.785
287.1028, 1865.330
287.5849, 1878.169
288.0670, 1881.695
288.5492, 1879.511
289.0313, 1879.049
289.5134, 1880.310
289.9955, 1883.443
290.4776, 1889.735
290.9597, 1898.367
291.4419, 1906.448
291.9240, 1914.974
292.4061, 1920.666
292.8882, 1914.385
293.3703, 1896.767
293.8524, 1880.024
294.3346, 1869.874
294.8167, 1867.106
295.2988, 1875.585
295.7809, 1899.873
296.2630, 1928.658
296.7451, 1945.547
297.2273, 1951.615
297.7094, 1955.030
298.1915, 1957.959
298.6736, 1962.407
299.1557, 1973.115
299.6378, 1992.251
300.1200, 2014.359
300.6021, 2034.262
301.0842, 2052.066
301.5663, 2068.583
302.0484, 2085.903
302.5305, 2101.780
303.0127, 2111.659
303.4948, 2113.708
303.9769, 2114.433
304.4590, 2118.946
304.9411, 2126.951
305.4232, 2137.641
305.9054, 2153.142
306.3875, 2169.903
306.8696, 2183.994
307.3517, 2194.757
307.8338, 2203.913
308.3159, 2213.552
308.7981, 2222.397
309.2802, 2227.982
309.7623, 2224.832
310.2444, 2220.767
310.7265, 2222.411
311.2086, 2230.978
311.6908, 2240.112
312.1729, 2246.839
312.6550, 2251.681
313.1371, 2255.278
313.6192, 2260.264
314.1013, 2262.173
314.5835, 2258.042
315.0656, 2247.485
315.5477, 2234.433
316.0298, 2218.057
316.5119, 2200.979
316.9940, 2186.018
317.4762, 2174.896
317.9583, 2165.456
318.4404, 2158.152
318.9225, 2152.908
319.4046, 2145.704
319.8867, 2131.330
320.3689, 2116.473
320.8510, 2106.684
321.3331, 2105.512
321.8152, 2107.080
322.2973, 2113.360
322.7794, 2123.334
323.2616, 2126.156
323.7437, 2114.724
324.2258, 2098.978
324.7079, 2085.097
325.1900, 2070.885
325.6721, 2061.782
326.1543, 2061.739
326.6364, 2068.697
327.1185, 2070.696
327.6006, 2061.678
328.0827, 2052.403
328.5648, 2047.714
329.0470, 2050.428
329.5291, 2053.649
330.0112, 2055.323
330.4933, 2057.537
330.9754, 2066.716
331.4576, 2087.905
331.9397, 2109.789
332.4218, 2128.125
332.9039, 2141.992
333.3860, 2154.781
333.8681, 2166.608
334.3503, 2177.076
334.8324, 2184.735
335.3145, 2187.826
335.7966, 2191.761
336.2787, 2198.518
336.7608, 2208.294
337.2430, 2220.265
337.7251, 2237.007
338.2072, 2251.874
338.6893, 2250.559
339.1714, 2227.019
339.6535, 2217.334
340.1357, 2238.777
340.6178, 2288.284
341.0999, 2319.656
341.5820, 2329.691
342.0641, 2332.646
342.5462, 2344.094
343.0284, 2363.914
343.5105, 2382.573
343.9926, 2395.994
344.4747, 2406.956
344.9568, 2426.272
345.4389, 2454.712
345.9211, 2481.327
346.4032, 2496.222
346.8853, 2501.054
347.3674, 2502.044
347.8495, 2498.375
348.3316, 2494.333
348.8138, 2499.414
349.2959, 2512.694
349.7780, 2524.768
350.2601, 2523.024
350.7422, 2516.535
351.2243, 2525.521
351.7065, 2557.437
352.1886, 2594.626
352.6707, 2616.310
353.1528, 2626.665
353.6349, 2638.767
354.1170, 2668.331
354.5992, 2699.630
355.0813, 2711.633
355.5634, 2698.621
356.0455, 2686.885
356.5276, 2702.802
357.0097, 2732.470
357.4919, 2751.493
357.9740, 2741.450
358.4561, 2723.902
358.9382, 2712.799
359.4203, 2709.175
359.9024, 2705.049
360.3846, 2695.052
360.8667, 2683.223
361.3488, 2673.775
361.8309, 2675.946
362.3130, 2673.157
362.7951, 2657.017
363.2773, 2628.639
363.7594, 2601.594
364.2415, 2580.793
364.7236, 2561.873
365.2057, 2541.982
365.6878, 2523.547
366.1700, 2501.138
366.6521, 2467.117
367.1342, 2426.650
367.6163, 2400.793
368.0984, 2409.480
368.5805, 2417.153
369.0627, 2408.533
369.5448, 2369.021
370.0269, 2342.000
370.5090, 2332.518
370.9911, 2333.965
371.4732, 2334.425
371.9554, 2335.076
372.4375, 2332.603
372.9196, 2323.726
373.4017, 2305.807
373.8838, 2299.320
374.3659, 2307.439
374.8481, 2322.493
375.3302, 2336.537
375.8123, 2350.877
376.2944, 2358.457
376.7765, 2353.783
377.2586, 2339.784
377.7408, 2340.758
378.2229, 2359.009
378.7050, 2382.403
379.1871, 2403.571
379.6692, 2422.055
380.1513, 2430.278
380.6335, 2422.883
381.1156, 2408.852
381.5977, 2410.726
382.0798, 2427.780
382.5619, 2442.111
383.0440, 2437.151
383.5262, 2420.300
384.0083, 2413.215
384.4904, 2420.535
384.9725, 2430.625
385.4546, 2427.007
385.9367, 2414.029
386.4189, 2405.275
386.9010, 2413.882
387.3831, 2427.346
387.8652, 2430.339
388.3473, 2421.643
388.8294, 2409.616
389.3116, 2395.165
389.7937, 2382.663
390.2758, 2378.076
390.7579, 2392.066
391.2400, 2407.734
391.7221, 2414.112
392.2043, 2412.267
392.6864, 2412.192
393.1685, 2418.002
393.6506, 2427.405
394.1327, 2439.067
394.6148, 2458.600
395.0970, 2472.518
395.5791, 2472.113
396.0612, 2462.945
396.5433, 2461.220
397.0254, 2472.258
397.5075, 2489.173
397.9897, 2510.222
398.4718, 2538.858
398.9539, 2563.637
399.4360, 2584.490
399.9181, 2601.448
400.4002, 2614.183
400.8824, 2619.176
401.3645, 2625.138
401.8466, 2633.782
402.3287, 2645.146
402.8108, 2659.391
403.2929, 2677.952
403.7751, 2696.990
404.2572, 2714.852
404.7393, 2733.682
405.2214, 2740.927
405.7035, 2731.478
406.1856, 2710.510
406.6678, 2695.436
407.1499, 2686.781
407.6320, 2679.786
408.1141, 2669.466
408.5962, 2656.814
409.0783, 2652.370
409.5605, 2657.851
410.0426, 2669.064
410.5247, 2683.385
411.0068, 2699.470
411.4889, 2710.473
411.9710, 2707.581
412.4532, 2698.957
412.9353, 2699.529
413.4174, 2709.769
413.8995, 2724.342
414.3816, 2741.902
414.8637, 2760.244
415.3459, 2775.664
415.8280, 2781.341
416.3101, 2789.429
416.7922, 2813.002
417.2743, 2848.497
417.7564, 2881.569
418.2386, 2903.022
418.7207, 2920.007
419.2028, 2936.990
419.6849, 2953.714
420.1670, 2973.288
420.6491, 2995.374
421.1313, 3021.308
421.6134, 3053.624
422.0955, 3100.415
422.5776, 3146.520
423.0597, 3188.604
423.5418, 3226.650
424.0240, 3257.495
424.5061, 3270.158
424.9882, 3281.824
425.4703, 3307.971
425.9524, 3361.698
426.4345, 3408.526
426.9167, 3442.462
427.3988, 3465.732
427.8809, 3489.706
428.3630, 3515.344
428.8451, 3539.788
429.3272, 3561.261
429.8094, 3580.009
430.2915, 3594.462
430.7736, 3603.558
431.2557, 3609.901
431.7378, 3617.404
432.2199, 3626.066
432.7021, 3636.187
433.1842, 3654.719
433.6663, 3674.954
434.1484, 3669.245
434.6305, 3636.612
435.1126, 3594.403
435.5948, 3557.024
436.0769, 3523.334
436.5590, 3489.666
437.0411, 3453.024
437.5232, 3419.307
438.0053, 3401.184
438.4875, 3394.035
438.9696, 3379.259
439.4517, 3344.007
439.9338, 3296.946
440.4159, 3241.692
440.8980, 3174.101
441.3802, 3118.489
441.8623, 3097.871
442.3444, 3093.959
442.8265, 3080.665
443.3086, 3043.936
443.7907, 3002.039
444.2729, 2958.943
444.7550, 2915.085
445.2371, 2875.962
445.7192, 2841.886
446.2013, 2812.815
446.6834, 2788.891
447.1656, 2777.488
447.6477, 2760.774
448.1298, 2735.187
448.6119, 2704.095
449.0940, 2677.734
449.5761, 2657.261
450.0583, 2638.554
450.5404, 2620.691
451.0225, 2603.791
451.5046, 2584.622
451.9867, 2561.495
452.4688, 2540.082
452.9510, 2530.007
453.4331, 2531.795
453.9152, 2527.792
454.3973, 2511.724
454.8794, 2488.327
455.3615, 2468.976
455.8437, 2453.502
456.3258, 2441.747
456.8079, 2433.295
457.2900, 2428.442
457.7721, 2428.586
458.2542, 2435.134
458.7364, 2441.892
459.2185, 2443.072
459.7006, 2439.875
460.1827, 2434.805
460.6648, 2425.043
461.1469, 2416.755
461.6291, 2415.804
462.1112, 2421.911
462.5933, 2426.746
463.0754, 2428.397
463.5575, 2426.228
464.0396, 2419.248
464.5218, 2397.409
465.0039, 2383.927
465.4860, 2390.819
465.9681, 2409.545
466.4502, 2417.809
466.9323, 2400.212
467.4145, 2386.374
467.8966, 2386.890
468.3787, 2405.794
468.8608, 2416.343
469.3429, 2412.606
469.8250, 2407.180
470.3072, 2414.492
470.7893, 2439.009
471.2714, 2458.736
471.7535, 2469.360
472.2356, 2472.885
472.7177, 2473.109
473.1999, 2469.164
473.6820, 2470.569
474.1641, 2485.991
474.6462, 2512.430
475.1284, 2536.749
475.6105, 2558.226
476.0926, 2577.261
476.5747, 2596.571
477.0568, 2613.861
477.5389, 2622.552
478.0211, 2608.387
478.5032, 2593.534
478.9853, 2604.849
479.4674, 2638.588
479.9495, 2670.188
480.4316, 2682.715
480.9138, 2688.903
481.3959, 2698.439
481.8780, 2713.151
482.3601, 2731.125
482.8422, 2755.162
483.3243, 2781.276
483.8065, 2803.626
484.2886, 2817.861
484.7707, 2831.530
485.2528, 2845.513
485.7349, 2859.663
486.2170, 2878.043
486.6992, 2900.097
487.1813, 2927.004
487.6634, 2962.494
488.1455, 3015.222
488.6276, 3050.005
489.1097, 3059.250
489.5919, 3055.202
490.0740, 3063.284
490.5561, 3085.145
491.0382, 3104.712
491.5203, 3111.850
492.0024, 3086.370
492.4846, 3122.644
492.9667, 3147.105
493.4488, 3160.387
493.9309, 3129.013
494.4130, 3155.303
494.8951, 3158.485
495.3773, 3160.720
495.8594, 3195.127
496.3415, 3170.247
496.8236, 3204.144
497.3057, 3214.578
497.7878, 3235.751
498.2700, 3233.672
498.7521, 3238.775
499.2342, 3262.928
499.7163, 3281.113
500.1984, 3286.851
500.6805, 3288.912
501.1627, 3294.398
501.6448, 3305.396
502.1269, 3318.633
502.6090, 3332.492
503.0911, 3348.431
503.5732, 3371.546
504.0554, 3409.675
504.5375, 3442.721
505.0196, 3459.570
505.5017, 3457.394
505.9838, 3475.282
506.4659, 3516.455
506.9481, 3570.019
507.4302, 3622.354
507.9123, 3673.677
508.3944, 3741.166
508.8765, 3829.798
509.3586, 3933.547
509.8408, 4043.968
510.3229, 4160.865
510.8050, 4285.770
511.2871, 4415.613
511.7692, 4556.175
512.2513, 4709.963
512.7335, 4877.458
513.2156, 5071.586
513.6977, 5305.591
514.1798, 5569.833
514.6619, 5853.074
515.1440, 6148.947
515.6262, 6468.727
516.1083, 6810.691
516.5904, 7178.000
517.0725, 7575.660
517.5546, 8011.814
518.0367, 8473.944
518.5189, 8954.435
519.0010, 9455.188
519.4831, 9977.145
519.9652, 10522.34
520.4473, 11080.14
520.9294, 11640.06
521.4116, 12191.30
521.8937, 12765.08
522.3758, 13370.50
522.8579, 13995.08
523.3400, 14614.74
523.8221, 15227.08
524.3043, 15826.76
524.7864, 16436.46
525.2685, 17032.50
525.7506, 17562.49
526.2327, 18028.43
526.7148, 18418.08
527.1970, 18762.07
527.6791, 19018.50
528.1612, 19118.20
528.6433, 19037.46
529.1254, 18815.36
529.6075, 18465.22
530.0897, 17994.93
530.5718, 17430.07
531.0539, 16734.66
531.5360, 15980.10
532.0181, 15181.20
532.5002, 14340.93
532.9824, 13505.69
533.4645, 12667.40
533.9466, 11853.15
534.4287, 11089.84
534.9108, 10375.32
535.3929, 9699.542
535.8751, 9052.317
536.3572, 8451.051
536.8393, 7936.385
537.3214, 7516.128
537.8035, 7128.048
538.2856, 6745.364
538.7678, 6377.018
539.2499, 6061.275
539.7320, 5799.370
540.2141, 5561.013
540.6962, 5320.705
541.1783, 5087.701
541.6605, 4882.229
542.1426, 4711.294
542.6247, 4554.925
543.1068, 4390.902
543.5889, 4229.189
544.0710, 4086.766
544.5532, 3987.357
545.0353, 3893.223
545.5174, 3779.048
545.9995, 3650.075
546.4816, 3540.167
546.9637, 3470.410
547.4459, 3412.653
547.9280, 3352.747
548.4101, 3287.121
548.8922, 3227.748
549.3743, 3176.996
549.8564, 3130.519
550.3386, 3084.006
550.8207, 3037.389
551.3028, 2990.152
551.7849, 2940.658
552.2670, 2892.193
552.7491, 2855.344
553.2313, 2830.405
553.7134, 2809.104
554.1955, 2789.573
554.6776, 2770.155
555.1597, 2745.153
555.6418, 2714.592
556.1240, 2683.234
556.6061, 2653.219
557.0882, 2625.470
557.5703, 2601.978
558.0524, 2584.239
558.5345, 2568.236
559.0167, 2551.531
559.4988, 2535.000
559.9809, 2520.674
560.4630, 2512.563
560.9451, 2503.201
561.4272, 2489.563
561.9094, 2471.573
562.3915, 2453.728
562.8736, 2430.311
563.3557, 2413.311
563.8378, 2411.998
564.3199, 2434.499
564.8021, 2442.774
565.2842, 2432.779
565.7663, 2414.743
566.2484, 2402.587
566.7305, 2396.132
567.2126, 2390.639
567.6948, 2385.505
568.1769, 2379.791
568.6590, 2370.628
569.1411, 2358.713
569.6232, 2348.528
570.1053, 2343.265
570.5875, 2340.764
571.0696, 2339.084
571.5517, 2338.112
572.0338, 2336.970
572.5159, 2335.371
572.9980, 2333.304
573.4802, 2330.754
573.9623, 2327.127
574.4444, 2323.791
574.9265, 2320.438
575.4086, 2317.629
575.8907, 2316.672
576.3729, 2318.756
576.8550, 2320.499
577.3371, 2319.528
577.8192, 2316.734
578.3013, 2324.402
578.7834, 2346.149
579.2656, 2363.396
579.7477, 2355.305
580.2298, 2327.947
580.7119, 2324.748
581.1940, 2352.157
581.6761, 2384.728
582.1583, 2392.677
582.6404, 2384.881
583.1225, 2380.235
583.6046, 2387.029
584.0867, 2396.442
584.5688, 2401.395
585.0510, 2403.723
585.5331, 2408.554
586.0152, 2421.409
586.4973, 2433.994
586.9794, 2441.302
587.4615, 2441.931
587.9437, 2447.686
588.4258, 2461.829
588.9079, 2478.512
589.3900, 2495.004
589.8721, 2513.644
590.3542, 2523.698
590.8364, 2521.019
591.3185, 2515.127
591.8006, 2522.102
592.2827, 2541.704
592.7648, 2561.365
593.2469, 2579.191
593.7291, 2593.040
594.2112, 2594.938
594.6933, 2587.283
595.1754, 2582.685
595.6575, 2590.666
596.1396, 2604.395
596.6218, 2617.739
597.1039, 2630.164
597.5860, 2642.845
598.0681, 2662.570
598.5502, 2678.971
599.0323, 2683.237
599.5145, 2663.470
599.9966, 2646.365
600.4787, 2638.374
600.9608, 2632.163
601.4429, 2614.017
601.9250, 2574.170
602.4072, 2545.747
602.8893, 2540.007
603.3714, 2550.839
603.8535, 2554.210
604.3356, 2550.211
604.8177, 2538.237
605.2999, 2513.328
605.7820, 2480.288
606.2641, 2454.839
606.7462, 2437.627
607.2283, 2420.222
607.7104, 2392.054
608.1926, 2360.650
608.6747, 2336.086
609.1568, 2326.046
609.6389, 2313.369
610.1210, 2283.070
610.6031, 2246.709
611.0853, 2223.914
611.5674, 2231.569
612.0495, 2238.430
612.5316, 2239.706
613.0137, 2235.456
613.4958, 2224.603
613.9780, 2203.097
614.4601, 2184.602
614.9422, 2179.242
615.4243, 2186.501
615.9064, 2181.964
616.3885, 2164.446
616.8707, 2142.354
617.3528, 2118.083
617.8349, 2095.965
618.3170, 2087.910
618.7991, 2099.636
619.2813, 2116.012
619.7634, 2129.961
620.2455, 2138.149
620.7276, 2135.022
621.2097, 2103.513
621.6918, 2075.228
622.1740, 2062.173
622.6561, 2062.751
623.1382, 2067.873
623.6203, 2083.210
624.1024, 2095.538
624.5845, 2099.484
625.0667, 2094.175
625.5488, 2091.443
626.0309, 2092.074
626.5130, 2093.175
626.9951, 2092.394
627.4772, 2089.847
627.9594, 2086.424
628.4415, 2081.838
628.9236, 2077.936
629.4057, 2077.934
629.8878, 2080.322
630.3699, 2081.621
630.8521, 2078.913
631.3342, 2076.731
631.8163, 2078.716
632.2984, 2083.791
632.7805, 2089.122
633.2626, 2095.959
633.7448, 2100.748
634.2269, 2101.076
634.7090, 2096.815
635.1911, 2093.764
635.6732, 2089.385
636.1553, 2089.745
636.6375, 2101.496
637.1196, 2127.584
637.6017, 2138.524
638.0838, 2129.847
638.5659, 2119.809
639.0480, 2133.983
639.5302, 2165.791
640.0123, 2188.502
640.4944, 2193.156
640.9765, 2193.275
641.4586, 2203.356
641.9407, 2219.690
642.4229, 2234.843
642.9050, 2237.753
643.3871, 2246.123
643.8692, 2275.075
644.3513, 2320.181
644.8334, 2351.685
645.3156, 2352.038
645.7977, 2350.982
646.2798, 2357.371
646.7619, 2371.198
647.2440, 2393.274
647.7261, 2426.353
648.2083, 2460.661
648.6904, 2487.539
649.1725, 2507.510
649.6546, 2524.901
650.1367, 2539.673
650.6188, 2553.348
651.1010, 2569.287
651.5831, 2585.109
652.0652, 2595.393
652.5473, 2594.054
653.0294, 2592.825
653.5115, 2602.605
653.9937, 2617.890
654.4758, 2626.314
654.9579, 2618.435
655.4400, 2609.302
655.9221, 2601.008
656.4042, 2594.237
656.8864, 2598.062
657.3685, 2621.401
657.8506, 2637.991
658.3327, 2633.808
658.8148, 2609.026
659.2969, 2576.863
659.7791, 2535.669
660.2612, 2496.417
660.7433, 2472.149
661.2254, 2457.522
661.7075, 2441.013
662.1896, 2420.742
662.6718, 2397.976
663.1539, 2371.130
663.6360, 2343.090
664.1181, 2318.207
664.6002, 2299.665
665.0823, 2281.995
665.5645, 2262.271
666.0466, 2242.584
666.5287, 2228.241
667.0108, 2221.949
667.4929, 2216.667
667.9750, 2211.558
668.4572, 2206.048
668.9393, 2195.909
669.4214, 2180.550
669.9035, 2166.031
670.3856, 2155.998
670.8677, 2149.734
671.3499, 2147.931
671.8320, 2150.531
672.3141, 2148.877
672.7962, 2129.889
673.2783, 2106.754
673.7604, 2093.918
674.2426, 2097.638
674.7247, 2100.716
675.2068, 2096.274
675.6889, 2089.194
676.1710, 2084.540
676.6531, 2080.385
677.1353, 2083.025
677.6174, 2097.019
678.0995, 2114.876
678.5816, 2120.600
679.0637, 2113.405
679.5458, 2103.682
680.0280, 2092.375
680.5101, 2082.807
680.9922, 2083.091
681.4743, 2091.756
681.9564, 2101.621
682.4385, 2112.213
682.9207, 2119.530
683.4028, 2115.273
683.8849, 2100.416
684.3670, 2095.575
684.8491, 2120.590
685.3312, 2147.550
685.8134, 2158.446
686.2955, 2146.621
686.7776, 2145.398
687.2597, 2160.935
687.7418, 2177.687
688.2239, 2178.678
688.7061, 2163.336
689.1882, 2157.316
689.6703, 2164.101
690.1524, 2178.010
690.6345, 2193.904
691.1166, 2211.199
691.5988, 2229.030
692.0809, 2247.566
692.5630, 2265.747
693.0451, 2282.198
693.5272, 2297.921
694.0093, 2315.135
694.4915, 2337.193
694.9736, 2357.853
695.4557, 2372.114
695.9378, 2382.787
696.4199, 2404.979
696.9020, 2443.826
697.3842, 2482.175
697.8663, 2512.629
698.3484, 2536.288
698.8305, 2561.524
699.3126, 2588.211
699.7947, 2613.513
700.2769, 2630.608
700.7590, 2646.598
701.2411, 2676.205
701.7232, 2721.702
702.2053, 2762.575
702.6874, 2779.561
703.1696, 2789.909
703.6517, 2808.605
704.1338, 2842.662
704.6159, 2876.276
705.0980, 2912.640
705.5801, 2944.960
706.0623, 2964.444
706.5444, 2967.587
707.0265, 2972.157
707.5086, 2981.549
707.9907, 2991.555
708.4728, 2995.261
708.9550, 2993.064
709.4371, 2987.296
709.9192, 2979.608
710.4013, 2967.696
710.8834, 2944.031
711.3655, 2913.787
711.8477, 2891.074
712.3298, 2892.319
712.8119, 2892.059
713.2940, 2877.614
713.7761, 2849.541
714.2582, 2826.334
714.7404, 2810.245
715.2225, 2795.441
715.7046, 2780.697
716.1867, 2765.886
716.6688, 2742.692
717.1509, 2710.473
717.6331, 2677.400
718.1152, 2652.211
718.5973, 2630.684
719.0794, 2603.610
719.5615, 2569.637
720.0436, 2534.844
720.5258, 2501.174
721.0079, 2469.605
721.4900, 2440.207
721.9721, 2412.295
722.4542, 2389.455
722.9363, 2376.982
723.4185, 2366.490
723.9006, 2348.841
724.3827, 2321.359
724.8648, 2295.324
725.3469, 2270.501
725.8290, 2250.297
726.3112, 2246.738
726.7933, 2255.384
727.2754, 2250.780
727.7575, 2215.756
728.2396, 2176.671
728.7217, 2162.803
729.2039, 2166.812
729.6860, 2171.378
730.1681, 2174.938
730.6502, 2172.341
731.1323, 2158.490
731.6144, 2135.443
732.0966, 2116.219
732.5787, 2100.870
733.0608, 2088.987
733.5429, 2081.198
734.0250, 2076.925
734.5071, 2072.173
734.9893, 2066.873
735.4714, 2063.067
735.9535, 2064.588
736.4356, 2067.559
736.9177, 2065.157
737.3998, 2057.216
737.8820, 2047.404
738.3641, 2036.882
738.8462, 2026.012
739.3283, 2013.726
739.8104, 1997.174
740.2925, 1989.935
740.7747, 1998.383
741.2568, 2009.924
741.7389, 2015.543
742.2210, 2014.489
742.7031, 2012.265
743.1852, 2008.928
743.6674, 2005.154
744.1495, 2001.020
744.6316, 1997.070
745.1137, 1995.800
745.5958, 1999.900
746.0779, 2000.233
746.5601, 1983.249
747.0422, 1960.279
747.5243, 1947.051
748.0064, 1960.189
748.4885, 1967.501
748.9706, 1957.134
749.4528, 1941.223
749.9349, 1941.845
750.4170, 1964.562
750.8991, 1982.995
751.3812, 1991.174
751.8633, 1991.639
752.3455, 1987.379
752.8276, 1979.436
753.3097, 1972.828
753.7918, 1969.480
754.2739, 1968.936
754.7560, 1972.587
755.2382, 1979.044
755.7203, 1983.615
756.2024, 1984.018
756.6845, 1982.916
757.1666, 1981.307
757.6487, 1979.129
758.1309, 1975.105
758.6130, 1968.032
759.0951, 1962.132
759.5772, 1958.948
760.0593, 1958.531
760.5414, 1961.676
761.0236, 1968.294
761.5057, 1975.679
761.9878, 1981.446
762.4699, 1987.210
762.9520, 1996.342
763.4341, 2009.034
763.9163, 2017.559
764.3984, 2013.746
764.8805, 2009.017
765.3626, 2010.949
765.8447, 2021.371
766.3268, 2030.725
766.8090, 2041.521
767.2911, 2046.162
767.7732, 2034.283
768.2553, 2008.335
768.7374, 1989.566
769.2195, 1979.374
769.7017, 1976.156
770.1838, 1982.309
770.6659, 1992.910
771.1480, 2002.697
771.6301, 2012.534
772.1122, 2014.617
772.5944, 1998.537
773.0765, 1977.466
773.5586, 1964.254
774.0407, 1961.619
774.5228, 1961.831
775.0049, 1965.678
775.4871, 1970.709
775.9692, 1974.643
776.4513, 1977.239
776.9334, 1975.406
777.4155, 1967.518
777.8976, 1958.138
778.3798, 1949.289
778.8619, 1943.210
779.3440, 1943.947
779.8261, 1963.693
780.3082, 1976.285
780.7903, 1969.470
781.2725, 1951.077
781.7546, 1934.872
782.2367, 1918.275
782.7188, 1910.023
783.2009, 1912.818
783.6830, 1923.328
784.1652, 1940.255
784.6473, 1961.429
785.1294, 1968.649
785.6115, 1946.057
786.0936, 1918.665
786.5757, 1915.115
787.0579, 1928.554
787.5400, 1942.350
788.0221, 1953.683
788.5042, 1960.816
788.9863, 1961.867
789.4684, 1958.253
789.9506, 1953.801
790.4327, 1947.845
790.9148, 1943.120
791.3969, 1941.307
791.8790, 1940.701
792.3611, 1934.809
792.8433, 1924.579
793.3254, 1917.417
793.8075, 1920.517
794.2896, 1926.007
794.7717, 1926.254
795.2538, 1922.218
795.7360, 1918.067
796.2181, 1912.131
796.7002, 1909.604
797.1823, 1913.962
797.6644, 1923.939
798.1465, 1929.691
798.6287, 1930.823
799.1108, 1928.912
799.5929, 1921.985
800.0750, 1913.287
800.5571, 1914.561
801.0392, 1924.550
801.5214, 1934.312
802.0035, 1939.936
802.4856, 1941.469
802.9677, 1937.386
803.4498, 1928.071
803.9319, 1919.803
804.4141, 1911.250
804.8962, 1906.919
805.3783, 1910.493
805.8604, 1921.638
806.3425, 1924.769
806.8246, 1918.986
807.3068, 1911.759
807.7889, 1907.707
808.2710, 1905.715
808.7531, 1903.651
809.2352, 1901.433
809.7173, 1898.937
810.1995, 1891.485
810.6816, 1887.368
811.1637, 1895.478
811.6458, 1918.471
812.1279, 1929.449
812.6100, 1919.070
813.0922, 1908.757
813.5743, 1910.532
814.0564, 1923.781
814.5385, 1934.727
815.0206, 1943.438
815.5027, 1948.395
815.9849, 1946.825
816.4670, 1941.556
816.9491, 1935.261
817.4312, 1928.288
817.9133, 1924.092
818.3954, 1925.158
818.8776, 1928.812
819.3597, 1935.321
819.8418, 1945.892
820.3239, 1947.187
820.8060, 1935.524
821.2881, 1923.257
821.7703, 1918.665
822.2524, 1920.741
822.7345, 1925.713
823.2166, 1933.438
823.6987, 1939.713
824.1808, 1941.520
824.6630, 1940.105
825.1451, 1934.373
825.6272, 1923.282
826.1093, 1919.305
826.5914, 1930.669
827.0735, 1945.096
827.5557, 1958.748
828.0378, 1972.296
828.5199, 1973.943
829.0020, 1961.991
829.4841, 1948.009
829.9662, 1942.357
830.4484, 1941.026
830.9305, 1933.128
831.4126, 1918.314
831.8947, 1910.427
832.3768, 1925.650
832.8589, 1945.054
833.3411, 1955.862
833.8232, 1954.965
834.3053, 1954.053
834.7874, 1953.484
835.2695, 1952.290
835.7516, 1950.027
836.2338, 1946.658
836.7159, 1941.240
837.1980, 1933.685
837.6801, 1926.880
838.1622, 1922.370
838.6443, 1920.220
839.1265, 1920.653
839.6086, 1923.713
840.0907, 1928.577
840.5728, 1942.768
841.0549, 1951.134
841.5370, 1942.981
842.0192, 1916.634
842.5013, 1905.810
842.9834, 1912.651
843.4655, 1925.023
843.9476, 1939.062
844.4298, 1951.312
844.9119, 1950.296
845.3940, 1936.903
845.8762, 1926.836
846.3583, 1935.916
846.8404, 1946.630
847.3225, 1944.248
847.8046, 1926.286
848.2867, 1922.250
848.7689, 1941.432
849.2510, 1959.497
849.7331, 1964.142
850.2152, 1957.119
850.6973, 1948.960
851.1794, 1939.766
851.6616, 1933.719
852.1437, 1934.469
852.6258, 1939.077
853.1079, 1946.976
853.5900, 1957.166
854.0721, 1962.254
854.5543, 1955.158
855.0364, 1947.107
855.5185, 1941.265
856.0006, 1937.854
856.4827, 1940.388
856.9648, 1950.100
857.4470, 1957.482
857.9291, 1955.451
858.4112, 1948.923
858.8933, 1947.413
859.3754, 1950.390
859.8575, 1955.806
860.3397, 1967.061
860.8218, 1976.153
861.3039, 1977.313
861.7860, 1971.726
862.2681, 1969.194
862.7502, 1971.532
863.2324, 1972.518
863.7145, 1968.974
864.1966, 1963.534
864.6787, 1965.133
865.1608, 1972.592
865.6429, 1978.760
866.1251, 1982.656
866.6072, 1981.619
867.0893, 1967.140
867.5714, 1945.947
868.0535, 1936.338
868.5356, 1954.305
869.0178, 1969.463
869.4999, 1977.291
869.9820, 1978.908
870.4641, 1974.587
870.9462, 1964.437
871.4283, 1959.471
871.9105, 1965.952
872.3926, 1974.141
872.8747, 1968.981
873.3568, 1956.691
873.8389, 1949.384
874.3210, 1956.824
874.8032, 1963.218
875.2853, 1962.354
875.7674, 1959.343
876.2495, 1962.547
876.7316, 1974.453
877.2137, 1979.281
877.6959, 1973.194
878.1780, 1962.948
878.6601, 1955.876
879.1422, 1952.372
879.6243, 1953.780
880.1064, 1962.009
880.5886, 1971.343
881.0707, 1982.175
881.5528, 1990.918
882.0349, 1992.686
882.5170, 1982.703
882.9991, 1977.047
883.4813, 1975.539
883.9634, 1979.558
884.4455, 1996.933
884.9276, 2021.846
885.4097, 2030.356
885.8918, 2018.444
886.3740, 2001.239
886.8561, 1983.283
887.3382, 1969.734
887.8203, 1966.440
888.3024, 1978.047
888.7845, 1986.874
889.2667, 1990.452
889.7488, 1994.008
890.2309, 2003.121
890.7130, 2016.652
891.1951, 2023.134
891.6772, 2022.387
892.1594, 2012.834
892.6415, 1978.673
893.1236, 1945.202
893.6057, 1940.997
894.0878, 1967.369
894.5699, 1989.425
895.0521, 1998.313
895.5342, 2003.002
896.0163, 2005.842
896.4984, 2007.053
896.9805, 2007.794
897.4626, 2008.061
897.9448, 2009.506
898.4269, 2018.532
898.9090, 2025.576
899.3911, 2012.438
899.8732, 1986.012
900.3553, 1970.696
900.8375, 1988.765
901.3196, 2004.399
901.8017, 2007.079
902.2838, 2000.336
902.7659, 1993.550
903.2480, 1986.715
903.7302, 1979.601
904.2123, 1969.500
904.6944, 1963.716
905.1765, 1978.685
905.6586, 2005.436
906.1407, 2024.903
906.6229, 2025.628
907.1050, 2023.660
907.5871, 2025.959
908.0692, 2026.900
908.5513, 2016.700
909.0334, 1990.655
909.5156, 1977.127
909.9977, 1981.118
910.4798, 1993.251
910.9619, 2007.171
911.4440, 2019.286
911.9261, 2019.942
912.4083, 2003.893
912.8904, 1992.045
913.3725, 1998.723
913.8546, 2010.702
914.3367, 2016.442
914.8188, 2012.850
915.3010, 2016.454
915.7831, 2029.548
916.2652, 2041.116
916.7473, 2040.366
917.2294, 2031.773
917.7115, 2024.593
918.1937, 2019.444
918.6758, 2017.332
919.1579, 2023.577
919.6400, 2028.900
920.1221, 2024.122
920.6042, 2010.263
921.0864, 2011.716
921.5685, 2033.869
922.0506, 2053.807
922.5327, 2061.041
923.0148, 2059.130
923.4969, 2053.277
923.9791, 2045.177
924.4612, 2041.435
924.9433, 2053.003
925.4254, 2061.871
925.9075, 2056.944
926.3896, 2042.604
926.8718, 2030.239
927.3539, 2016.001
927.8360, 2016.455
928.3181, 2039.210
928.8002, 2069.120
929.2823, 2078.803
929.7645, 2074.317
930.2466, 2073.028
930.7287, 2081.803
931.2108, 2089.120
931.6929, 2088.023
932.1750, 2082.217
932.6572, 2075.085
933.1393, 2063.399
933.6214, 2058.980
934.1035, 2062.407
934.5856, 2071.495
935.0677, 2087.764
935.5499, 2107.673
936.0320, 2121.119
936.5141, 2127.217
936.9962, 2132.874
937.4783, 2146.664
937.9604, 2157.919
938.4426, 2154.800
938.9247, 2136.788
939.4068, 2137.141
939.8889, 2160.935
940.3710, 2187.176
940.8531, 2205.714
941.3353, 2219.645
941.8174, 2238.284
942.2995, 2259.753
942.7816, 2276.507
943.2637, 2276.173
943.7458, 2279.271
944.2280, 2299.141
944.7101, 2329.330
945.1922, 2352.131
945.6743, 2364.613
946.1564, 2378.744
946.6385, 2396.248
947.1207, 2417.571
947.6028, 2444.022
948.0849, 2474.831
948.5670, 2510.086
949.0491, 2554.857
949.5313, 2589.770
950.0134, 2594.577
950.4955, 2593.263
950.9776, 2609.833
951.4597, 2653.540
951.9418, 2677.897
952.4240, 2679.603
952.9061, 2676.564
953.3882, 2687.623
953.8703, 2703.428
954.3524, 2703.229
954.8345, 2687.299
955.3167, 2676.811
955.7988, 2692.449
956.2809, 2705.301
956.7630, 2703.399
957.2451, 2687.562
957.7272, 2657.353
958.2094, 2609.866
958.6915, 2571.027
959.1736, 2553.202
959.6557, 2546.495
960.1378, 2538.569
960.6199, 2529.710
961.1021, 2520.222
961.5842, 2509.608
962.0663, 2499.113
962.5484, 2488.566
963.0305, 2478.634
963.5126, 2469.754
963.9948, 2461.662
964.4769, 2457.902
964.9590, 2458.905
965.4411, 2464.139
965.9232, 2481.231
966.4053, 2498.060
966.8875, 2496.201
967.3696, 2468.453
967.8517, 2449.701
968.3338, 2449.059
968.8159, 2456.976
969.2980, 2472.600
969.7802, 2494.426
970.2623, 2500.239
970.7444, 2490.873
971.2265, 2484.036
971.7086, 2494.787
972.1907, 2509.416
972.6729, 2509.406
973.1550, 2502.377
973.6371, 2515.890
974.1192, 2572.475
974.6013, 2619.706
975.0834, 2648.135
975.5656, 2663.125
976.0477, 2669.209
976.5298, 2669.471
977.0119, 2679.473
977.4940, 2705.143
977.9761, 2733.464
978.4583, 2755.397
978.9404, 2774.673
979.4225, 2795.074
979.9046, 2818.018
980.3867, 2838.262
980.8688, 2854.620
981.3510, 2871.200
981.8331, 2892.489
982.3152, 2916.289
982.7973, 2934.550
983.2794, 2948.165
983.7615, 2965.052
984.2437, 2994.888
984.7258, 3023.662
985.2079, 3045.045
985.6900, 3059.745
986.1721, 3065.940
986.6542, 3059.898
987.1364, 3069.740
987.6185, 3109.343
988.1006, 3156.239
988.5827, 3172.420
989.0648, 3173.164
989.5469, 3187.027
990.0291, 3229.663
990.5112, 3272.703
990.9933, 3328.363
991.4754, 3365.379
991.9575, 3343.870
992.4396, 3260.648
992.9218, 3233.716
993.4039, 3269.153
993.8860, 3305.838
994.3681, 3291.370
994.8502, 3256.719
995.3323, 3230.764
995.8145, 3214.312
996.2966, 3192.031
996.7787, 3157.419
997.2608, 3124.511
997.7429, 3099.218
998.2250, 3077.074
998.7072, 3047.236
999.1893, 3010.161
999.6714, 2965.535
1000.154, 2908.212
1000.636, 2853.947
1001.118, 2813.990
1001.600, 2782.625
1002.082, 2751.749
1002.564, 2723.640
1003.046, 2687.423
1003.528, 2640.602
1004.010, 2595.031
1004.493, 2563.558
1004.975, 2540.955
1005.457, 2518.760
1005.939, 2496.084
1006.421, 2473.616
1006.903, 2445.692
1007.385, 2425.058
1007.867, 2420.878
1008.349, 2427.425
1008.832, 2418.967
1009.314, 2395.422
1009.796, 2375.127
1010.278, 2366.239
1010.760, 2359.985
1011.242, 2343.760
1011.724, 2324.618
1012.206, 2313.513
1012.689, 2319.566
1013.171, 2323.593
1013.653, 2326.322
1014.135, 2324.707
1014.617, 2311.999
1015.099, 2291.820
1015.581, 2283.008
1016.063, 2286.062
1016.545, 2292.948
1017.028, 2301.518
1017.510, 2309.451
1017.992, 2316.093
1018.474, 2320.938
1018.956, 2320.238
1019.438, 2311.243
1019.920, 2309.219
1020.402, 2320.972
1020.885, 2337.225
1021.367, 2345.314
1021.849, 2346.845
1022.331, 2344.219
1022.813, 2334.691
1023.295, 2328.469
1023.777, 2325.486
1024.259, 2329.159
1024.741, 2345.941
1025.224, 2375.963
1025.706, 2390.604
1026.188, 2389.890
1026.670, 2390.981
1027.152, 2413.620
1027.634, 2437.014
1028.116, 2438.724
1028.598, 2423.949
1029.080, 2426.304
1029.563, 2456.218
1030.045, 2482.274
1030.527, 2496.957
1031.009, 2505.474
1031.491, 2513.742
1031.973, 2523.054
1032.455, 2537.492
1032.937, 2559.990
1033.420, 2580.986
1033.902, 2595.103
1034.384, 2607.415
1034.866, 2621.267
1035.348, 2636.693
1035.830, 2652.668
1036.312, 2669.296
1036.794, 2687.145
1037.276, 2703.542
1037.759, 2724.038
1038.241, 2756.318
1038.723, 2797.514
1039.205, 2838.539
1039.687, 2874.936
1040.169, 2916.604
1040.651, 2966.777
1041.133, 3018.692
1041.615, 3057.442
1042.098, 3089.210
1042.580, 3132.939
1043.062, 3192.558
1043.544, 3255.571
1044.026, 3315.257
1044.508, 3374.807
1044.990, 3435.599
1045.472, 3497.651
1045.955, 3568.533
1046.437, 3647.707
1046.919, 3730.712
1047.401, 3818.000
1047.883, 3903.612
1048.365, 3985.110
1048.847, 4059.062
1049.329, 4117.526
1049.812, 4137.674
1050.294, 4173.068
1050.776, 4232.357
1051.258, 4295.757
1051.740, 4344.104
1052.222, 4379.268
1052.704, 4406.409
1053.186, 4425.939
1053.668, 4436.202
1054.151, 4440.226
1054.633, 4430.842
1055.115, 4400.585
1055.597, 4353.926
1056.079, 4304.890
1056.561, 4253.483
1057.043, 4199.063
1057.525, 4141.139
1058.007, 4082.343
1058.490, 4031.677
1058.972, 3979.828
1059.454, 3911.826
1059.936, 3813.431
1060.418, 3727.022
1060.900, 3654.878
1061.382, 3592.973
1061.864, 3543.292
1062.347, 3500.724
1062.829, 3443.877
1063.311, 3375.260
1063.793, 3308.069
1064.275, 3241.750
1064.757, 3186.607
1065.239, 3150.827
1065.721, 3125.522
1066.203, 3097.750
1066.686, 3067.232
1067.168, 3038.516
1067.650, 3012.483
1068.132, 2987.843
1068.614, 2966.140
1069.096, 2943.111
1069.578, 2912.202
1070.060, 2872.154
1070.542, 2840.254
1071.025, 2821.583
1071.507, 2797.673
1071.989, 2754.385
1072.471, 2708.817
1072.953, 2702.530
1073.435, 2720.680
1073.917, 2726.470
1074.399, 2698.979
1074.882, 2671.321
1075.364, 2647.033
1075.846, 2630.442
1076.328, 2628.969
1076.810, 2641.778
1077.292, 2640.623
1077.774, 2625.404
1078.256, 2609.102
1078.739, 2602.294
1079.221, 2595.906
1079.703, 2579.366
1080.185, 2558.152
1080.667, 2551.931
1081.149, 2564.568
1081.631, 2577.548
1082.113, 2588.035
1082.595, 2596.503
1083.078, 2609.430
1083.560, 2617.683
1084.042, 2601.760
1084.524, 2553.128
1085.006, 2527.619
1085.488, 2545.885
1085.970, 2567.438
1086.452, 2574.007
1086.934, 2572.021
1087.417, 2584.506
1087.899, 2607.041
1088.381, 2623.035
1088.863, 2621.811
1089.345, 2619.236
1089.827, 2619.537
1090.309, 2623.706
1090.791, 2631.907
1091.274, 2643.839
1091.756, 2667.127
1092.238, 2702.321
1092.720, 2732.485
1093.202, 2741.512
1093.684, 2743.032
1094.166, 2744.476
1094.648, 2748.229
1095.130, 2762.541
1095.613, 2793.056
1096.095, 2816.713
1096.577, 2827.602
1097.059, 2836.205
1097.541, 2859.348
1098.023, 2888.572
1098.505, 2911.394
1098.987, 2926.084
1099.470, 2932.676
1099.952, 2927.326
1100.434, 2919.458
1100.916, 2912.691
1101.398, 2905.961
1101.880, 2894.852
1102.362, 2880.660
1102.844, 2868.802
1103.327, 2864.832
1103.809, 2856.819
1104.291, 2832.419
1104.773, 2806.004
1105.255, 2793.566
1105.737, 2798.091
1106.219, 2780.012
1106.701, 2738.901
1107.183, 2701.176
1107.666, 2692.673
1108.148, 2687.525
1108.630, 2657.407
1109.112, 2613.655
1109.594, 2591.985
1110.076, 2605.131
1110.558, 2601.690
1111.040, 2571.904
1111.522, 2538.110
1112.005, 2529.362
1112.487, 2530.929
1112.969, 2518.961
1113.451, 2491.500
1113.933, 2473.201
1114.415, 2478.104
1114.897, 2477.052
1115.379, 2457.577
1115.862, 2431.902
1116.344, 2431.700
1116.826, 2448.440
1117.308, 2458.231
1117.790, 2454.769
1118.272, 2443.730
1118.754, 2413.718
1119.236, 2390.251
1119.719, 2393.730
1120.201, 2420.292
1120.683, 2425.931
1121.165, 2412.238
1121.647, 2394.369
1122.129, 2376.476
1122.611, 2361.036
1123.093, 2346.421
1123.575, 2337.098
1124.057, 2340.102
1124.540, 2359.176
1125.022, 2370.135
1125.504, 2371.430
1125.986, 2370.301
1126.468, 2373.920
1126.950, 2377.186
1127.432, 2373.300
1127.914, 2363.956
1128.397, 2358.839
1128.879, 2361.946
1129.361, 2358.811
1129.843, 2344.329
1130.325, 2330.194
1130.807, 2336.985
1131.289, 2352.099
1131.771, 2353.424
1132.254, 2336.760
1132.736, 2326.648
1133.218, 2333.912
1133.700, 2338.158
1134.182, 2329.620
1134.664, 2316.229
1135.146, 2321.497
1135.628, 2338.461
1136.110, 2345.573
1136.593, 2330.560
1137.075, 2321.367
1137.557, 2336.119
1138.039, 2352.653
1138.521, 2356.552
1139.003, 2349.690
1139.485, 2348.067
1139.967, 2351.072
1140.449, 2354.443
1140.932, 2357.411
1141.414, 2358.514
1141.896, 2357.106
1142.378, 2353.230
1142.860, 2344.483
1143.342, 2329.233
1143.824, 2331.378
1144.306, 2352.367
1144.789, 2373.754
1145.271, 2385.870
1145.753, 2388.320
1146.235, 2374.309
1146.717, 2350.174
1147.199, 2338.835
1147.681, 2342.761
1148.163, 2350.653
1148.646, 2362.625
1149.128, 2369.682
1149.610, 2355.807
1150.092, 2336.082
1150.574, 2327.650
1151.056, 2332.308
1151.538, 2340.240
1152.020, 2353.904
1152.502, 2360.977
1152.984, 2355.605
1153.467, 2346.275
1153.949, 2350.764
1154.431, 2358.982
1154.913, 2349.728
1155.395, 2309.052
1155.877, 2293.870
1156.359, 2323.681
1156.841, 2351.511
1157.324, 2352.371
1157.806, 2336.387
1158.288, 2324.262
1158.770, 2317.477
1159.252, 2320.886
1159.734, 2349.882
1160.216, 2364.955
1160.698, 2354.556
1161.181, 2334.403
1161.663, 2310.261
1162.145, 2285.950
1162.627, 2284.390
1163.109, 2302.535
1163.591, 2323.108
1164.073, 2347.156
1164.555, 2358.977
1165.037, 2343.451
1165.520, 2321.633
1166.002, 2320.535
1166.484, 2337.897
1166.966, 2345.797
1167.448, 2342.926
1167.930, 2345.904
1168.412, 2381.686
1168.894, 2409.255
1169.376, 2398.651
1169.859, 2366.963
1170.341, 2349.101
1170.823, 2344.701
1171.305, 2339.292
1171.787, 2330.378
1172.269, 2321.645
1172.751, 2312.016
1173.233, 2307.249
1173.716, 2314.259
1174.198, 2330.724
1174.680, 2348.333
1175.162, 2367.662
1175.644, 2372.920
1176.126, 2355.372
1176.608, 2336.896
1177.090, 2339.906
1177.573, 2351.320
1178.055, 2357.353
1178.537, 2356.694
1179.019, 2362.208
1179.501, 2375.586
1179.983, 2379.176
1180.465, 2358.581
1180.947, 2335.737
1181.429, 2338.063
1181.911, 2352.630
1182.394, 2361.127
1182.876, 2360.450
1183.358, 2356.133
1183.840, 2346.516
1184.322, 2342.100
1184.804, 2357.248
1185.286, 2375.180
1185.768, 2369.299
1186.251, 2350.691
1186.733, 2343.368
1187.215, 2360.322
1187.697, 2366.542
1188.179, 2358.948
1188.661, 2349.023
1189.143, 2348.015
1189.625, 2349.756
1190.108, 2342.242
1190.590, 2329.546
1191.072, 2327.891
1191.554, 2349.271
1192.036, 2361.505
1192.518, 2358.127
1193.000, 2354.591
1193.482, 2373.341
1193.964, 2400.134
1194.447, 2412.971
1194.929, 2411.527
1195.411, 2407.313
1195.893, 2400.854
1196.375, 2395.687
1196.857, 2393.280
1197.339, 2390.630
1197.821, 2379.409
1198.303, 2366.751
1198.786, 2367.700
1199.268, 2384.409
1199.750, 2394.114
1200.232, 2391.107
1200.714, 2382.591
1201.196, 2367.796
1201.678, 2353.249
1202.160, 2350.052
1202.643, 2356.024
1203.125, 2369.314
1203.607, 2391.622
1204.089, 2407.629
1204.571, 2416.994
1205.053, 2415.552
1205.535, 2396.106
1206.017, 2371.387
1206.500, 2371.565
1206.982, 2387.149
1207.464, 2397.394
1207.946, 2395.963
1208.428, 2391.639
1208.910, 2382.082
1209.392, 2377.202
1209.874, 2383.885
1210.356, 2397.917
1210.839, 2412.499
1211.321, 2425.019
1211.803, 2428.264
1212.285, 2410.893
1212.767, 2402.491
1213.249, 2410.681
1213.731, 2419.435
1214.213, 2415.552
1214.695, 2404.159
1215.178, 2397.716
1215.660, 2396.111
1216.142, 2398.991
1216.624, 2410.971
1217.106, 2420.520
1217.588, 2426.263
1218.070, 2429.860
1218.552, 2433.545
1219.035, 2435.986
1219.517, 2397.492
1219.999, 2425.997
1220.481, 2442.689
1220.963, 2448.204
1221.445, 2409.061
1221.927, 2427.584
1222.409, 2422.997
1222.891, 2417.462
1223.374, 2444.104
1223.856, 2411.457
1224.338, 2437.586
1224.820, 2440.252
1225.302, 2453.656
1225.784, 2443.809
1226.266, 2441.142
1226.748, 2461.736
1227.230, 2469.451
1227.713, 2456.929
1228.195, 2471.016
1228.677, 2437.557
1229.159, 2445.820
1229.641, 2472.084
1230.123, 2469.771
1230.605, 2462.715
1231.087, 2451.941
1231.570, 2449.219
1232.052, 2451.349
1232.534, 2451.602
1233.016, 2449.334
1233.498, 2453.912
1233.980, 2474.507
1234.462, 2484.382
1234.944, 2472.665
1235.427, 2456.460
1235.909, 2466.648
1236.391, 2488.148
1236.873, 2494.778
1237.355, 2481.796
1237.837, 2475.959
1238.319, 2483.567
1238.801, 2487.698
1239.283, 2481.479
1239.766, 2472.695
1240.248, 2474.663
1240.730, 2481.508
1241.212, 2484.431
1241.694, 2481.279
1242.176, 2479.888
1242.658, 2480.544
1243.140, 2483.070
1243.622, 2487.605
1244.105, 2493.626
1244.587, 2502.878
1245.069, 2512.053
1245.551, 2517.507
1246.033, 2518.945
1246.515, 2509.129
1246.997, 2483.425
1247.479, 2470.214
1247.962, 2488.254
1248.444, 2513.004
1248.926, 2514.465
1249.408, 2504.187
1249.890, 2496.869
1250.372, 2494.501
1250.854, 2491.775
1251.336, 2488.345
1251.818, 2488.386
1252.301, 2494.543
1252.783, 2504.191
1253.265, 2520.514
1253.747, 2535.515
1254.229, 2536.494
1254.711, 2520.575
1255.193, 2516.056
1255.675, 2523.049
1256.157, 2531.792
1256.640, 2538.656
1257.122, 2543.168
1257.604, 2542.420
1258.086, 2540.723
1258.568, 2544.959
1259.050, 2556.327
1259.532, 2552.750
1260.014, 2535.311
1260.497, 2522.478
1260.979, 2529.882
1261.461, 2538.547
1261.943, 2536.013
1262.425, 2530.736
1262.907, 2532.466
1263.389, 2540.979
1263.871, 2539.761
1264.354, 2530.719
1264.836, 2529.201
1265.318, 2556.572
1265.800, 2576.653
1266.282, 2571.391
1266.764, 2557.132
1267.246, 2545.944
1267.728, 2538.132
1268.210, 2537.534
1268.693, 2542.856
1269.175, 2546.583
1269.657, 2541.475
1270.139, 2539.832
1270.621, 2545.271
1271.103, 2552.807
1271.585, 2558.412
1272.067, 2561.875
1272.549, 2560.858
1273.032, 2556.641
1273.514, 2554.658
1273.996, 2552.340
1274.478, 2562.104
1274.960, 2590.844
1275.442, 2617.746
1275.924, 2616.528
1276.406, 2602.072
1276.889, 2603.713
1277.371, 2616.832
1277.853, 2618.433
1278.335, 2590.993
1278.817, 2583.644
1279.299, 2604.587
1279.781, 2628.188
1280.263, 2626.227
1280.745, 2615.641
1281.228, 2617.690
1281.710, 2628.330
1282.192, 2629.367
1282.674, 2614.753
1283.156, 2613.387
1283.638, 2628.967
1284.120, 2646.694
1284.602, 2653.664
1285.084, 2658.405
1285.567, 2670.992
1286.049, 2685.986
1286.531, 2687.376
1287.013, 2673.350
1287.495, 2675.636
1287.977, 2696.976
1288.459, 2717.639
1288.941, 2721.322
1289.424, 2722.545
1289.906, 2731.204
1290.388, 2741.550
1290.870, 2743.867
1291.352, 2739.301
1291.834, 2735.300
1292.316, 2732.841
1292.798, 2736.396
1293.281, 2757.084
1293.763, 2772.670
1294.245, 2775.479
1294.727, 2772.188
1295.209, 2772.168
1295.691, 2773.550
1296.173, 2766.948
1296.655, 2753.961
1297.137, 2753.136
1297.620, 2791.779
1298.102, 2811.627
1298.584, 2801.037
1299.066, 2779.664
1299.548, 2763.539
1300.030, 2756.251
1300.512, 2771.262
1300.994, 2803.437
1301.476, 2817.710
1301.959, 2804.515
1302.441, 2794.188
1302.923, 2790.608
1303.405, 2790.415
##END=



