##NAMES=Edingtonite
##RRUFFID=R040003
##IDEAL CHEMISTRY=Ba(Si_3_Al_2_)O_10_&#183;4H_2_O
##LOCALITY=Bohl, Sweden
##OWNER=RRUFF
##SOURCE=University of Arizona Mineral Museum
##DESCRIPTION=Colorless tetragonal prism
##STATUS=The identification of this mineral has been confirmed by X-ray diffraction and chemical analysis
##URL=rruff.info/R040003
##MEASURED CHEMISTRY=Ba_1.00_(Si_3.00_Al_2.00_)O_10_Â·4H_2_O; trace amounts of Na; H_2_O estimated by difference
121.0460, 1235.893
121.5281, 1270.684
122.0102, 1298.136
122.4924, 1331.002
122.9745, 1369.633
123.4566, 1420.060
123.9387, 1488.902
124.4208, 1578.085
124.9029, 1684.702
125.3851, 1812.479
125.8672, 1967.648
126.3493, 2114.282
126.8314, 2222.898
127.3135, 2318.942
127.7956, 2428.093
128.2778, 2555.998
128.7599, 2703.194
129.2420, 2873.948
129.7241, 3078.682
130.2062, 3281.792
130.6883, 3493.640
131.1705, 3690.538
131.6526, 3841.631
132.1347, 3932.092
132.6168, 3966.856
133.0989, 3957.779
133.5810, 3890.844
134.0632, 3795.026
134.5453, 3664.856
135.0274, 3519.186
135.5095, 3383.204
135.9916, 3266.418
136.4737, 3171.684
136.9559, 3124.926
137.4380, 3146.846
137.9201, 3200.867
138.4022, 3270.480
138.8843, 3361.958
139.3664, 3488.076
139.8486, 3656.311
140.3307, 3867.302
140.8128, 4122.304
141.2949, 4444.823
141.7770, 4796.416
142.2591, 5195.911
142.7413, 5619.158
143.2234, 6018.503
143.7055, 6347.006
144.1876, 6596.251
144.6697, 6842.994
145.1518, 7068.439
145.6340, 7307.617
146.1161, 7579.850
146.5982, 7880.913
147.0803, 8192.213
147.5624, 8498.985
148.0445, 8802.020
148.5267, 9093.533
149.0088, 9379.278
149.4909, 9650.389
149.9730, 9910.263
150.4551, 10155.16
150.9372, 10373.07
151.4194, 10553.68
151.9015, 10697.04
152.3836, 10790.03
152.8657, 10835.00
153.3478, 10838.46
153.8299, 10804.32
154.3121, 10733.22
154.7942, 10622.00
155.2763, 10465.63
155.7584, 10248.31
156.2405, 10016.74
156.7226, 9747.622
157.2048, 9480.953
157.6869, 9249.995
158.1690, 9060.061
158.6511, 8883.200
159.1332, 8683.660
159.6153, 8440.704
160.0975, 8223.546
160.5796, 8046.685
161.0617, 7885.801
161.5438, 7716.845
162.0259, 7535.413
162.5080, 7355.802
162.9902, 7198.934
163.4723, 7072.865
163.9544, 6954.335
164.4365, 6845.667
164.9186, 6743.186
165.4007, 6647.723
165.8829, 6559.268
166.3650, 6468.776
166.8471, 6362.652
167.3292, 6237.643
167.8113, 6105.921
168.2934, 5962.067
168.7756, 5814.917
169.2577, 5678.012
169.7398, 5555.634
170.2219, 5436.546
170.7040, 5300.127
171.1861, 5135.940
171.6683, 4989.739
172.1504, 4875.152
172.6325, 4780.730
173.1146, 4692.844
173.5967, 4607.989
174.0788, 4526.929
174.5610, 4449.833
175.0431, 4375.777
175.5252, 4307.352
176.0073, 4247.308
176.4894, 4192.456
176.9715, 4137.218
177.4537, 4079.672
177.9358, 4022.801
178.4179, 3973.046
178.9000, 3931.727
179.3821, 3888.664
179.8642, 3834.816
180.3464, 3778.930
180.8285, 3736.049
181.3106, 3711.320
181.7927, 3696.827
182.2748, 3683.141
182.7569, 3671.343
183.2391, 3654.623
183.7212, 3626.652
184.2033, 3593.295
184.6854, 3564.998
185.1675, 3545.050
185.6496, 3529.066
186.1318, 3511.559
186.6139, 3492.955
187.0960, 3472.321
187.5781, 3446.829
188.0602, 3419.652
188.5423, 3396.824
189.0245, 3381.074
189.5066, 3367.203
189.9887, 3347.154
190.4708, 3320.851
190.9529, 3296.156
191.4350, 3276.787
191.9172, 3260.689
192.3993, 3243.075
192.8814, 3221.764
193.3635, 3202.133
193.8456, 3193.901
194.3277, 3197.063
194.8099, 3196.742
195.2920, 3185.378
195.7741, 3168.046
196.2562, 3153.770
196.7383, 3144.688
197.2204, 3137.838
197.7026, 3127.911
198.1847, 3114.793
198.6668, 3107.937
199.1489, 3113.995
199.6310, 3127.271
200.1131, 3139.357
200.5953, 3149.533
201.0774, 3155.548
201.5595, 3151.422
202.0416, 3138.341
202.5237, 3127.801
203.0058, 3124.799
203.4880, 3125.778
203.9701, 3126.916
204.4522, 3128.848
204.9343, 3125.918
205.4164, 3108.948
205.8985, 3079.846
206.3807, 3050.463
206.8628, 3018.754
207.3449, 2990.069
207.8270, 2974.331
208.3091, 2974.606
208.7912, 2977.863
209.2734, 2970.927
209.7555, 2955.279
210.2376, 2940.507
210.7197, 2931.791
211.2018, 2923.510
211.6839, 2907.975
212.1660, 2883.966
212.6482, 2857.304
213.1303, 2832.683
213.6124, 2809.820
214.0945, 2787.712
214.5766, 2769.238
215.0587, 2749.811
215.5409, 2723.417
216.0230, 2689.471
216.5051, 2655.115
216.9872, 2627.200
217.4693, 2604.366
217.9514, 2577.814
218.4336, 2543.461
218.9157, 2507.271
219.3978, 2475.442
219.8799, 2448.057
220.3620, 2419.215
220.8441, 2382.601
221.3263, 2340.545
221.8084, 2305.680
222.2905, 2281.598
222.7726, 2262.450
223.2547, 2244.416
223.7368, 2227.425
224.2190, 2211.122
224.7011, 2192.412
225.1832, 2175.145
225.6653, 2172.103
226.1474, 2195.295
226.6295, 2221.517
227.1117, 2233.656
227.5938, 2235.560
228.0759, 2245.068
228.5580, 2273.072
229.0401, 2315.390
229.5222, 2354.438
230.0044, 2381.481
230.4865, 2415.769
230.9686, 2467.330
231.4507, 2532.943
231.9328, 2605.393
232.4149, 2682.750
232.8971, 2762.701
233.3792, 2840.387
233.8613, 2921.739
234.3434, 2992.670
234.8255, 3047.926
235.3076, 3089.391
235.7898, 3122.217
236.2719, 3149.217
236.7540, 3165.974
237.2361, 3160.520
237.7182, 3128.325
238.2003, 3088.119
238.6825, 3034.751
239.1646, 2978.080
239.6467, 2934.795
240.1288, 2910.595
240.6109, 2892.747
241.0930, 2859.371
241.5752, 2802.520
242.0573, 2749.138
242.5394, 2703.610
243.0215, 2661.091
243.5036, 2615.541
243.9857, 2565.822
244.4679, 2517.239
244.9500, 2477.836
245.4321, 2454.824
245.9142, 2418.400
246.3963, 2353.597
246.8784, 2286.235
247.3606, 2237.339
247.8427, 2208.279
248.3248, 2183.914
248.8069, 2147.856
249.2890, 2095.517
249.7711, 2059.201
250.2533, 2050.489
250.7354, 2045.331
251.2175, 2029.467
251.6996, 2004.703
252.1817, 1982.410
252.6638, 1972.884
253.1460, 1976.776
253.6281, 1972.565
254.1102, 1954.158
254.5923, 1935.092
255.0744, 1916.541
255.5565, 1900.760
256.0387, 1892.194
256.5208, 1894.494
257.0029, 1905.749
257.4850, 1911.853
257.9671, 1913.136
258.4492, 1908.376
258.9314, 1891.879
259.4135, 1870.587
259.8956, 1853.823
260.3777, 1846.300
260.8598, 1845.163
261.3419, 1841.826
261.8241, 1834.592
262.3062, 1827.534
262.7883, 1819.392
263.2704, 1812.460
263.7525, 1810.281
264.2346, 1813.852
264.7168, 1818.408
265.1989, 1813.696
265.6810, 1790.171
266.1631, 1779.849
266.6452, 1795.081
267.1273, 1815.414
267.6095, 1828.783
268.0916, 1832.596
268.5737, 1830.005
269.0558, 1821.413
269.5379, 1803.290
270.0201, 1796.782
270.5022, 1815.853
270.9843, 1836.747
271.4664, 1850.038
271.9485, 1855.646
272.4306, 1857.989
272.9128, 1859.456
273.3949, 1860.182
273.8770, 1863.195
274.3591, 1869.989
274.8412, 1877.287
275.3233, 1883.592
275.8055, 1889.168
276.2876, 1894.768
276.7697, 1901.388
277.2518, 1908.155
277.7339, 1912.212
278.2160, 1912.147
278.6982, 1912.633
279.1803, 1916.448
279.6624, 1922.012
280.1445, 1927.838
280.6266, 1935.083
281.1087, 1940.107
281.5909, 1935.167
282.0730, 1918.680
282.5551, 1907.439
283.0372, 1910.698
283.5193, 1922.064
284.0014, 1933.765
284.4836, 1945.765
284.9657, 1956.204
285.4478, 1961.842
285.9299, 1963.887
286.4120, 1968.624
286.8941, 1977.098
287.3763, 1990.427
287.8584, 2012.015
288.3405, 2043.589
288.8226, 2070.384
289.3047, 2082.187
289.7868, 2085.947
290.2690, 2095.550
290.7511, 2114.786
291.2332, 2134.929
291.7153, 2144.805
292.1974, 2144.036
292.6795, 2145.682
293.1617, 2152.473
293.6438, 2161.752
294.1259, 2173.851
294.6080, 2187.884
295.0901, 2196.114
295.5722, 2190.606
296.0544, 2171.437
296.5365, 2158.522
297.0186, 2158.767
297.5007, 2158.004
297.9828, 2146.447
298.4649, 2128.002
298.9471, 2114.014
299.4292, 2111.412
299.9113, 2117.250
300.3934, 2117.703
300.8755, 2108.830
301.3576, 2099.533
301.8398, 2087.784
302.3219, 2077.505
302.8040, 2075.827
303.2861, 2085.100
303.7682, 2097.433
304.2503, 2096.580
304.7325, 2062.946
305.2146, 2050.516
305.6967, 2079.347
306.1788, 2112.226
306.6609, 2121.236
307.1430, 2104.287
307.6252, 2080.305
308.1073, 2069.959
308.5894, 2075.273
309.0715, 2081.404
309.5536, 2094.828
310.0357, 2102.982
310.5179, 2098.205
311.0000, 2084.221
311.4821, 2070.504
311.9642, 2063.812
312.4463, 2062.431
312.9284, 2057.978
313.4106, 2049.792
313.8927, 2039.498
314.3748, 2026.674
314.8569, 2012.695
315.3390, 1998.939
315.8211, 1985.470
316.3033, 1973.609
316.7854, 1967.810
317.2675, 1969.937
317.7496, 1963.912
318.2317, 1934.755
318.7138, 1901.770
319.1960, 1884.309
319.6781, 1885.241
320.1602, 1890.261
320.6423, 1889.784
321.1244, 1885.065
321.6065, 1880.439
322.0887, 1875.103
322.5708, 1873.217
323.0529, 1882.329
323.5350, 1900.837
324.0171, 1915.419
324.4992, 1917.713
324.9814, 1916.373
325.4635, 1922.004
325.9456, 1935.487
326.4277, 1951.334
326.9098, 1966.607
327.3919, 1980.857
327.8741, 1991.890
328.3562, 1997.206
328.8383, 2001.934
329.3204, 2008.365
329.8025, 2016.178
330.2846, 2023.948
330.7668, 2030.622
331.2489, 2037.799
331.7310, 2049.972
332.2131, 2072.794
332.6952, 2093.029
333.1773, 2111.177
333.6595, 2125.691
334.1415, 2133.023
334.6237, 2133.080
335.1058, 2131.376
335.5879, 2135.576
336.0700, 2148.712
336.5521, 2157.410
337.0342, 2155.856
337.5164, 2155.757
337.9985, 2163.394
338.4806, 2177.434
338.9627, 2193.148
339.4448, 2207.490
339.9269, 2220.299
340.4091, 2230.121
340.8912, 2233.863
341.3733, 2239.132
341.8554, 2252.501
342.3375, 2266.724
342.8196, 2272.375
343.3018, 2265.200
343.7839, 2251.480
344.2660, 2239.348
344.7481, 2228.625
345.2302, 2220.994
345.7123, 2222.577
346.1945, 2222.865
346.6766, 2210.432
347.1587, 2184.649
347.6408, 2161.887
348.1229, 2155.079
348.6050, 2159.325
349.0872, 2159.456
349.5693, 2151.887
350.0514, 2145.411
350.5335, 2149.714
351.0156, 2162.244
351.4977, 2172.418
351.9799, 2173.975
352.4620, 2175.833
352.9441, 2182.978
353.4262, 2196.331
353.9083, 2220.591
354.3904, 2260.369
354.8726, 2311.646
355.3547, 2358.349
355.8368, 2404.687
356.3189, 2442.297
356.8010, 2466.314
357.2831, 2481.904
357.7653, 2494.463
358.2474, 2505.739
358.7295, 2516.932
359.2116, 2530.166
359.6937, 2547.506
360.1758, 2560.471
360.6580, 2570.599
361.1401, 2575.761
361.6222, 2576.313
362.1043, 2571.053
362.5864, 2556.661
363.0685, 2529.383
363.5507, 2490.952
364.0328, 2455.422
364.5149, 2427.012
364.9970, 2395.020
365.4791, 2352.817
365.9612, 2307.581
366.4434, 2267.413
366.9255, 2234.904
367.4076, 2207.772
367.8897, 2183.560
368.3718, 2162.458
368.8539, 2141.865
369.3361, 2121.302
369.8182, 2101.224
370.3003, 2081.530
370.7824, 2062.338
371.2645, 2045.221
371.7466, 2030.446
372.2288, 2018.501
372.7109, 2012.170
373.1930, 2012.684
373.6751, 2010.745
374.1572, 1996.200
374.6393, 1973.593
375.1215, 1962.349
375.6036, 1973.120
376.0857, 1985.667
376.5678, 1988.650
377.0499, 1985.079
377.5320, 1981.041
378.0142, 1978.233
378.4963, 1979.423
378.9784, 1990.989
379.4605, 2027.300
379.9426, 2046.829
380.4247, 2033.552
380.9069, 2014.458
381.3890, 2012.472
381.8711, 2027.514
382.3532, 2042.557
382.8353, 2042.399
383.3174, 2027.018
383.7996, 2009.355
384.2817, 1978.882
384.7638, 1958.285
385.2459, 1959.767
385.7280, 1971.810
386.2101, 1979.437
386.6923, 1976.497
387.1744, 1966.557
387.6565, 1953.304
388.1386, 1934.876
388.6207, 1923.633
389.1028, 1930.082
389.5850, 1937.837
390.0671, 1931.749
390.5492, 1912.861
391.0313, 1899.517
391.5134, 1908.204
391.9955, 1928.852
392.4777, 1938.659
392.9598, 1934.611
393.4419, 1928.793
393.9240, 1925.696
394.4061, 1927.752
394.8882, 1941.672
395.3704, 1980.618
395.8525, 2017.549
396.3346, 2034.630
396.8167, 2039.728
397.2988, 2050.138
397.7809, 2072.324
398.2631, 2100.118
398.7452, 2123.302
399.2273, 2138.426
399.7094, 2156.670
400.1915, 2185.131
400.6736, 2210.782
401.1558, 2222.343
401.6379, 2222.469
402.1200, 2223.710
402.6021, 2236.814
403.0842, 2258.994
403.5663, 2268.137
404.0485, 2258.166
404.5306, 2243.313
405.0127, 2220.978
405.4948, 2198.590
405.9769, 2185.549
406.4590, 2184.626
406.9412, 2185.759
407.4233, 2177.550
407.9054, 2160.099
408.3875, 2141.189
408.8696, 2121.867
409.3517, 2101.079
409.8339, 2073.429
410.3160, 2042.181
410.7981, 2021.835
411.2802, 2023.698
411.7623, 2034.568
412.2444, 2039.291
412.7266, 2038.575
413.2087, 2041.734
413.6908, 2053.782
414.1729, 2072.402
414.6550, 2092.223
415.1371, 2116.262
415.6193, 2135.598
416.1014, 2142.451
416.5835, 2146.920
417.0656, 2159.316
417.5477, 2181.339
418.0298, 2208.901
418.5120, 2238.814
418.9941, 2271.211
419.4762, 2302.459
419.9583, 2329.829
420.4404, 2359.050
420.9225, 2392.575
421.4047, 2428.656
421.8868, 2464.080
422.3689, 2497.261
422.8510, 2531.839
423.3331, 2575.692
423.8152, 2631.423
424.2974, 2679.915
424.7795, 2709.273
425.2616, 2738.798
425.7437, 2785.265
426.2258, 2846.112
426.7079, 2903.121
427.1901, 2942.342
427.6722, 2974.650
428.1543, 3020.444
428.6364, 3080.052
429.1185, 3131.246
429.6006, 3161.740
430.0828, 3174.680
430.5649, 3180.265
431.0470, 3171.451
431.5291, 3168.071
432.0112, 3188.462
432.4933, 3211.040
432.9755, 3207.050
433.4576, 3172.122
433.9397, 3125.701
434.4218, 3087.603
434.9039, 3058.730
435.3860, 3029.826
435.8682, 3013.678
436.3503, 2983.297
436.8324, 2921.754
437.3145, 2843.762
437.7966, 2770.979
438.2787, 2712.183
438.7609, 2661.296
439.2430, 2607.818
439.7251, 2551.295
440.2072, 2497.913
440.6893, 2452.188
441.1714, 2405.846
441.6536, 2349.922
442.1357, 2286.653
442.6178, 2228.407
443.0999, 2183.752
443.5820, 2145.018
444.0641, 2102.038
444.5463, 2054.881
445.0284, 2010.159
445.5105, 1971.732
445.9926, 1937.343
446.4747, 1900.368
446.9568, 1855.826
447.4390, 1818.563
447.9211, 1794.686
448.4032, 1776.968
448.8853, 1759.295
449.3674, 1740.607
449.8495, 1721.789
450.3317, 1704.118
450.8138, 1687.409
451.2959, 1668.070
451.7780, 1644.018
452.2601, 1619.999
452.7422, 1595.918
453.2244, 1573.081
453.7065, 1552.705
454.1886, 1535.169
454.6707, 1520.401
455.1528, 1508.067
455.6349, 1498.291
456.1171, 1493.600
456.5992, 1497.309
457.0813, 1500.359
457.5634, 1492.634
458.0455, 1478.096
458.5276, 1468.443
459.0098, 1471.189
459.4919, 1474.795
459.9740, 1469.296
460.4561, 1458.008
460.9382, 1450.843
461.4203, 1451.764
461.9025, 1456.109
462.3846, 1456.551
462.8667, 1452.161
463.3488, 1445.824
463.8309, 1430.880
464.3130, 1420.264
464.7952, 1424.088
465.2773, 1438.136
465.7594, 1450.804
466.2415, 1454.622
466.7236, 1454.482
467.2057, 1466.032
467.6879, 1497.005
468.1700, 1514.652
468.6521, 1493.084
469.1342, 1469.449
469.6163, 1474.683
470.0984, 1507.471
470.5806, 1534.963
471.0627, 1533.405
471.5448, 1517.487
472.0269, 1509.226
472.5090, 1509.490
472.9911, 1517.809
473.4733, 1537.826
473.9554, 1563.406
474.4375, 1574.335
474.9196, 1561.000
475.4017, 1553.102
475.8839, 1555.476
476.3660, 1565.878
476.8481, 1585.954
477.3302, 1613.541
477.8123, 1638.908
478.2944, 1652.748
478.7766, 1656.372
479.2587, 1665.452
479.7408, 1682.034
480.2229, 1701.345
480.7050, 1723.925
481.1871, 1747.501
481.6693, 1769.276
482.1514, 1788.729
482.6335, 1808.333
483.1156, 1830.409
483.5977, 1854.353
484.0798, 1877.720
484.5620, 1900.139
485.0441, 1922.672
485.5262, 1945.164
486.0083, 1968.561
486.4904, 1995.304
486.9725, 2029.274
487.4547, 2061.847
487.9368, 2088.155
488.4189, 2111.715
488.9010, 2136.508
489.3831, 2163.704
489.8652, 2193.796
490.3474, 2228.698
490.8295, 2269.365
491.3116, 2300.431
491.7937, 2307.715
492.2758, 2320.885
492.7579, 2355.281
493.2401, 2396.389
493.7222, 2423.453
494.2043, 2428.683
494.6864, 2430.809
495.1685, 2455.128
495.6506, 2497.647
496.1328, 2524.821
496.6149, 2527.250
497.0970, 2527.391
497.5791, 2546.902
498.0612, 2579.752
498.5433, 2600.776
499.0254, 2599.010
499.5075, 2594.122
499.9897, 2593.826
500.4718, 2597.623
500.9539, 2604.397
501.4360, 2613.829
501.9181, 2626.727
502.4002, 2643.995
502.8824, 2665.640
503.3645, 2691.770
503.8466, 2732.494
504.3287, 2766.673
504.8108, 2780.388
505.2929, 2786.354
505.7751, 2803.248
506.2572, 2837.963
506.7393, 2881.346
507.2214, 2919.897
507.7035, 2955.513
508.1856, 3004.939
508.6678, 3072.392
509.1499, 3148.832
509.6320, 3221.081
510.1141, 3294.841
510.5962, 3397.450
511.0783, 3551.011
511.5605, 3712.654
512.0426, 3860.864
512.5247, 4004.287
513.0068, 4151.509
513.4890, 4306.499
513.9711, 4484.968
514.4532, 4707.012
514.9353, 4977.425
515.4174, 5264.552
515.8995, 5552.990
516.3817, 5879.996
516.8638, 6240.965
517.3459, 6651.382
517.8280, 7127.612
518.3101, 7678.275
518.7922, 8283.239
519.2744, 8920.002
519.7565, 9593.303
520.2386, 10339.42
520.7207, 11160.99
521.2028, 12050.96
521.6849, 12997.77
522.1671, 14007.26
522.6492, 15095.17
523.1313, 16277.72
523.6134, 17513.63
524.0955, 18822.70
524.5776, 20159.56
525.0598, 21497.01
525.5419, 22817.90
526.0240, 24081.40
526.5061, 25271.42
526.9882, 26387.69
527.4703, 27288.46
527.9525, 28030.11
528.4346, 28460.08
528.9167, 28572.06
529.3988, 28371.46
529.8809, 27831.94
530.3630, 26944.40
530.8452, 25832.65
531.3273, 24511.21
531.8094, 23051.82
532.2915, 21578.32
532.7736, 20098.98
533.2557, 18639.17
533.7379, 17197.68
534.2200, 15793.50
534.7021, 14514.38
535.1842, 13364.85
535.6663, 12311.18
536.1484, 11358.08
536.6306, 10492.28
537.1127, 9717.366
537.5948, 9022.231
538.0769, 8391.811
538.5590, 7814.559
539.0411, 7291.535
539.5233, 6820.730
540.0054, 6411.167
540.4875, 6029.439
540.9696, 5665.981
541.4517, 5332.696
541.9338, 5046.963
542.4160, 4809.618
542.8981, 4583.951
543.3802, 4351.658
543.8623, 4130.855
544.3444, 3941.858
544.8265, 3781.286
545.3087, 3634.085
545.7908, 3492.888
546.2729, 3359.357
546.7550, 3236.672
547.2371, 3128.049
547.7192, 3023.015
548.2014, 2910.888
548.6835, 2811.585
549.1656, 2742.703
549.6477, 2692.583
550.1298, 2638.210
550.6119, 2569.167
551.0941, 2492.938
551.5762, 2412.754
552.0583, 2331.019
552.5404, 2273.937
553.0225, 2253.210
553.5046, 2237.323
553.9868, 2196.667
554.4689, 2132.436
554.9510, 2077.555
555.4331, 2037.305
555.9152, 2000.627
556.3973, 1963.307
556.8795, 1927.548
557.3616, 1895.709
557.8437, 1868.599
558.3258, 1847.273
558.8079, 1835.459
559.2900, 1831.892
559.7722, 1814.228
560.2543, 1775.509
560.7364, 1736.907
561.2185, 1703.848
561.7006, 1676.112
562.1827, 1655.087
562.6649, 1641.279
563.1470, 1628.971
563.6291, 1617.737
564.1112, 1604.988
564.5933, 1586.089
565.0754, 1561.731
565.5576, 1537.415
566.0397, 1515.915
566.5218, 1497.302
567.0039, 1481.663
567.4860, 1467.156
567.9681, 1459.572
568.4503, 1465.304
568.9324, 1471.132
569.4145, 1470.053
569.8966, 1463.412
570.3787, 1455.631
570.8608, 1448.785
571.3430, 1441.644
571.8251, 1431.263
572.3072, 1418.597
572.7893, 1410.529
573.2714, 1409.356
573.7535, 1409.802
574.2357, 1406.024
574.7178, 1398.293
575.1999, 1397.161
575.6820, 1414.961
576.1641, 1424.082
576.6462, 1407.792
577.1284, 1383.086
577.6105, 1369.491
578.0926, 1370.385
578.5747, 1376.364
579.0568, 1380.423
579.5389, 1382.022
580.0211, 1376.753
580.5032, 1361.731
580.9852, 1350.721
581.4673, 1353.361
581.9495, 1359.148
582.4316, 1353.042
582.9137, 1333.582
583.3958, 1316.132
583.8779, 1302.542
584.3600, 1294.649
584.8422, 1298.403
585.3243, 1309.209
585.8064, 1314.334
586.2885, 1307.995
586.7706, 1296.383
587.2527, 1291.269
587.7349, 1295.713
588.2170, 1293.125
588.6991, 1274.161
589.1812, 1259.901
589.6633, 1264.542
590.1454, 1278.180
590.6276, 1283.818
591.1097, 1275.471
591.5918, 1265.552
592.0739, 1260.928
592.5560, 1260.878
593.0381, 1266.864
593.5203, 1278.075
594.0024, 1284.238
594.4845, 1276.371
594.9666, 1259.901
595.4487, 1257.885
595.9308, 1281.597
596.4130, 1301.018
596.8951, 1318.748
597.3772, 1328.441
597.8593, 1320.315
598.3414, 1300.049
598.8235, 1285.572
599.3057, 1289.047
599.7878, 1297.352
600.2699, 1292.550
600.7520, 1277.444
601.2341, 1265.584
601.7162, 1260.462
602.1984, 1257.436
602.6805, 1251.518
603.1626, 1242.673
603.6447, 1238.587
604.1268, 1244.850
604.6089, 1248.357
605.0911, 1247.711
605.5732, 1242.280
606.0553, 1230.053
606.5374, 1211.748
607.0195, 1192.205
607.5016, 1174.287
607.9838, 1158.249
608.4659, 1144.578
608.9480, 1133.314
609.4301, 1123.828
609.9122, 1115.518
610.3943, 1109.571
610.8765, 1109.149
611.3586, 1116.158
611.8407, 1116.169
612.3228, 1101.686
612.8049, 1087.919
613.2870, 1083.138
613.7692, 1082.730
614.2513, 1078.950
614.7334, 1069.819
615.2155, 1060.872
615.6976, 1060.105
616.1797, 1065.583
616.6619, 1063.135
617.1440, 1050.769
617.6261, 1039.786
618.1082, 1036.473
618.5903, 1036.577
619.0724, 1031.671
619.5546, 1019.808
620.0367, 1012.558
620.5188, 1014.884
621.0009, 1019.599
621.4830, 1024.669
621.9651, 1027.994
622.4473, 1025.207
622.9294, 1014.577
623.4115, 1001.460
623.8936, 994.2925
624.3757, 992.9608
624.8578, 986.0658
625.3400, 968.8403
625.8221, 957.8098
626.3042, 968.1018
626.7863, 987.9221
627.2684, 992.9312
627.7505, 978.0554
628.2327, 962.8857
628.7148, 950.6340
629.1969, 941.8380
629.6790, 938.1527
630.1611, 938.3554
630.6432, 939.7178
631.1254, 940.9626
631.6075, 941.2945
632.0896, 937.4628
632.5717, 928.6095
633.0538, 929.8226
633.5359, 950.3173
634.0181, 964.7993
634.5002, 950.4465
634.9823, 921.2041
635.4644, 906.7252
635.9465, 915.2361
636.4286, 923.3522
636.9108, 920.7574
637.3929, 916.2883
637.8750, 919.7498
638.3571, 929.4578
638.8392, 937.0943
639.3214, 938.0618
639.8035, 934.4785
640.2856, 928.6987
640.7677, 919.8311
641.2498, 918.2578
641.7319, 926.8020
642.2141, 939.4708
642.6962, 956.1248
643.1783, 973.5899
643.6604, 983.8849
644.1425, 981.3063
644.6246, 981.9888
645.1068, 994.4541
645.5889, 1010.455
646.0710, 1021.108
646.5531, 1027.398
647.0352, 1036.038
647.5173, 1050.991
647.9995, 1069.933
648.4816, 1088.090
648.9637, 1105.211
649.4458, 1124.403
649.9279, 1148.385
650.4100, 1169.865
650.8922, 1180.006
651.3743, 1184.250
651.8564, 1198.019
652.3385, 1229.218
652.8206, 1256.524
653.3027, 1271.682
653.7849, 1281.653
654.2670, 1291.994
654.7491, 1303.187
655.2312, 1314.596
655.7133, 1326.140
656.1954, 1335.683
656.6776, 1340.348
657.1597, 1340.188
657.6418, 1330.671
658.1239, 1308.608
658.6060, 1283.297
659.0881, 1257.859
659.5703, 1234.483
660.0524, 1220.076
660.5345, 1224.060
661.0166, 1219.190
661.4987, 1192.498
661.9808, 1160.990
662.4630, 1136.583
662.9451, 1119.198
663.4272, 1104.606
663.9093, 1091.075
664.3914, 1076.965
664.8735, 1058.158
665.3557, 1035.380
665.8378, 1019.060
666.3199, 1011.763
666.8020, 1004.165
667.2841, 988.9702
667.7662, 969.7797
668.2484, 958.5482
668.7305, 960.5247
669.2126, 959.3790
669.6947, 951.2917
670.1768, 942.0620
670.6589, 935.3762
671.1411, 930.3931
671.6232, 924.1708
672.1053, 915.3005
672.5874, 907.2804
673.0695, 904.3255
673.5516, 905.5381
674.0338, 909.0413
674.5159, 914.9355
674.9980, 916.7314
675.4801, 909.5345
675.9622, 897.9324
676.4443, 892.7239
676.9265, 897.1102
677.4086, 900.5919
677.8907, 903.4194
678.3728, 905.1760
678.8549, 904.3765
679.3370, 902.8699
679.8192, 904.2443
680.3013, 909.6987
680.7834, 913.6263
681.2655, 908.4464
681.7476, 900.2653
682.2297, 900.8615
682.7119, 909.6306
683.1940, 918.8709
683.6761, 925.3267
684.1582, 928.7855
684.6403, 927.5446
685.1224, 918.7822
685.6046, 921.2500
686.0867, 945.6026
686.5688, 967.1887
687.0509, 977.5137
687.5330, 981.9791
688.0151, 986.2050
688.4973, 990.9180
688.9794, 994.8422
689.4615, 997.8758
689.9436, 999.4616
690.4257, 995.1360
690.9078, 989.3508
691.3900, 995.1541
691.8721, 1016.058
692.3542, 1038.471
692.8363, 1045.627
693.3184, 1039.349
693.8005, 1043.842
694.2827, 1063.688
694.7648, 1080.675
695.2469, 1088.337
695.7290, 1092.121
696.2111, 1095.551
696.6932, 1099.030
697.1754, 1109.484
697.6575, 1138.427
698.1396, 1162.513
698.6217, 1165.922
699.1038, 1161.534
699.5859, 1164.638
700.0681, 1177.568
700.5502, 1195.643
701.0323, 1217.721
701.5144, 1238.707
701.9965, 1245.062
702.4786, 1237.277
702.9608, 1230.415
703.4429, 1226.404
703.9250, 1228.417
704.4071, 1242.172
704.8892, 1264.788
705.3713, 1276.188
705.8535, 1260.970
706.3356, 1256.427
706.8177, 1274.937
707.2998, 1296.176
707.7819, 1307.191
708.2640, 1309.439
708.7462, 1309.833
709.2283, 1311.361
709.7104, 1311.210
710.1925, 1303.062
710.6746, 1292.337
711.1567, 1291.593
711.6389, 1301.333
712.1210, 1313.401
712.6031, 1323.487
713.0852, 1331.659
713.5673, 1338.380
714.0494, 1344.533
714.5316, 1345.890
715.0137, 1340.373
715.4958, 1332.888
715.9779, 1322.097
716.4600, 1312.229
716.9421, 1312.156
717.4243, 1325.370
717.9064, 1328.107
718.3885, 1306.469
718.8706, 1276.210
719.3527, 1245.785
719.8348, 1216.943
720.3170, 1191.559
720.7991, 1170.208
721.2812, 1151.773
721.7633, 1137.005
722.2454, 1123.894
722.7275, 1101.875
723.2097, 1069.892
723.6918, 1040.748
724.1739, 1017.975
724.6560, 1000.348
725.1381, 988.6266
725.6202, 983.0425
726.1024, 969.4940
726.5845, 942.6727
727.0666, 915.7699
727.5487, 886.8113
728.0308, 861.9636
728.5129, 848.8292
728.9951, 844.9335
729.4772, 839.3987
729.9593, 825.5167
730.4414, 811.2792
730.9235, 805.5412
731.4056, 805.2562
731.8878, 804.6126
732.3699, 802.5821
732.8520, 798.6772
733.3341, 792.2516
733.8162, 784.8217
734.2983, 780.4343
734.7805, 780.1323
735.2626, 777.7594
735.7447, 770.3696
736.2268, 765.3211
736.7089, 772.0011
737.1910, 781.1979
737.6732, 775.3433
738.1553, 747.7123
738.6374, 731.4243
739.1195, 744.0693
739.6016, 760.3105
740.0837, 762.7169
740.5659, 758.2365
741.0480, 760.9201
741.5301, 773.8281
742.0122, 785.9044
742.4943, 786.7480
742.9764, 779.7431
743.4586, 771.1690
743.9407, 761.3828
744.4228, 753.5767
744.9049, 748.4776
745.3870, 747.1491
745.8691, 751.0853
746.3513, 759.9622
746.8334, 769.5604
747.3155, 782.2941
747.7976, 791.4883
748.2797, 795.7800
748.7618, 796.8759
749.2440, 794.8918
749.7261, 790.5646
750.2082, 785.3723
750.6903, 777.7734
751.1724, 773.3971
751.6545, 778.4333
752.1367, 785.6846
752.6188, 787.4510
753.1009, 784.3297
753.5830, 780.1068
754.0651, 776.4911
754.5472, 774.2819
755.0294, 777.0523
755.5115, 782.9941
755.9936, 776.9606
756.4757, 756.7109
756.9578, 747.4435
757.4399, 763.9687
757.9221, 786.8760
758.4042, 786.6563
758.8863, 759.0285
759.3684, 741.6947
759.8505, 743.0954
760.3326, 744.4294
760.8148, 742.8788
761.2969, 739.5049
761.7790, 734.6672
762.2611, 728.8062
762.7432, 723.3939
763.2253, 718.4101
763.7075, 714.8817
764.1896, 719.2691
764.6717, 722.5613
765.1538, 707.7857
765.6359, 677.3262
766.1180, 650.7697
766.6002, 640.2490
767.0823, 636.8283
767.5644, 622.0771
768.0465, 597.4271
768.5286, 587.8383
769.0107, 597.8505
769.4929, 605.6715
769.9750, 597.7180
770.4571, 585.2061
770.9392, 590.6553
771.4213, 623.0598
771.9034, 637.2551
772.3856, 618.0114
772.8677, 599.8592
773.3498, 591.5391
773.8319, 588.8945
774.3140, 588.9795
774.7961, 590.8359
775.2783, 591.1145
775.7604, 587.0822
776.2425, 582.3884
776.7246, 579.3679
777.2067, 577.4534
777.6888, 575.9826
778.1710, 574.7347
778.6531, 573.7419
779.1352, 573.2885
779.6173, 571.9210
780.0994, 564.6682
780.5815, 552.7253
781.0637, 549.6335
781.5458, 557.6093
782.0279, 567.0808
782.5100, 573.3770
782.9921, 577.2541
783.4742, 580.2537
783.9564, 582.8863
784.4385, 582.5742
784.9206, 579.0347
785.4027, 572.7650
785.8848, 558.4575
786.3669, 545.1519
786.8491, 544.7223
787.3312, 556.4722
787.8133, 563.2559
788.2954, 555.0460
788.7775, 545.3383
789.2596, 539.1137
789.7418, 537.1758
790.2239, 543.0085
790.7060, 554.4982
791.1881, 563.0292
791.6702, 563.0400
792.1523, 560.1957
792.6345, 564.7419
793.1166, 573.5652
793.5987, 571.7353
794.0808, 558.3433
794.5629, 550.2688
795.0450, 556.9824
795.5272, 569.3034
796.0093, 571.5599
796.4914, 562.4478
796.9735, 554.3652
797.4556, 546.6776
797.9377, 541.2896
798.4199, 540.7551
798.9020, 541.1432
799.3841, 537.5749
799.8662, 530.7230
800.3483, 527.1915
800.8304, 530.3309
801.3126, 533.6777
801.7947, 530.1086
802.2768, 530.1089
802.7589, 550.2806
803.2410, 581.6492
803.7231, 597.7195
804.2053, 585.9179
804.6874, 566.7144
805.1695, 553.3292
805.6516, 547.6068
806.1337, 558.2361
806.6158, 580.5214
807.0980, 593.9777
807.5801, 590.8966
808.0622, 581.7597
808.5443, 578.2053
809.0264, 579.9419
809.5085, 587.4852
809.9907, 603.1046
810.4728, 606.9775
810.9549, 589.9058
811.4370, 570.2239
811.9191, 562.9904
812.4012, 566.8193
812.8834, 573.7326
813.3655, 590.8482
813.8476, 599.8020
814.3297, 595.5433
814.8118, 588.3619
815.2939, 581.8883
815.7761, 576.3153
816.2582, 571.1051
816.7403, 565.9550
817.2224, 563.4299
817.7045, 568.5858
818.1866, 572.8156
818.6688, 569.1027
819.1509, 560.4842
819.6330, 550.3873
820.1151, 540.4532
820.5972, 533.7267
821.0793, 533.1237
821.5615, 535.4780
822.0436, 535.8287
822.5257, 534.8723
823.0078, 534.9547
823.4899, 536.4176
823.9720, 539.4408
824.4542, 544.5030
824.9363, 549.4354
825.4184, 549.4888
825.9005, 544.0491
826.3826, 539.0519
826.8647, 533.6477
827.3469, 531.6328
827.8290, 537.4109
828.3111, 543.4965
828.7932, 538.7502
829.2753, 522.7132
829.7574, 516.3967
830.2396, 529.8969
830.7217, 538.8245
831.2038, 535.9496
831.6859, 530.5672
832.1680, 527.8904
832.6501, 528.1822
833.1323, 531.8237
833.6144, 541.0253
834.0965, 545.3215
834.5786, 533.9552
835.0607, 519.9407
835.5428, 515.2488
836.0250, 517.0334
836.5071, 518.0363
836.9892, 516.4885
837.4713, 516.8272
837.9534, 525.4230
838.4355, 535.6942
838.9177, 532.2107
839.3998, 519.5524
839.8819, 517.5706
840.3640, 529.2631
840.8461, 540.5388
841.3282, 541.8358
841.8104, 536.5400
842.2925, 530.7727
842.7746, 523.8226
843.2567, 525.9712
843.7388, 541.9219
844.2209, 551.4042
844.7031, 542.9930
845.1852, 528.2825
845.6673, 522.7769
846.1494, 527.0428
846.6315, 530.1829
847.1136, 533.3431
847.5958, 533.6656
848.0779, 528.9080
848.5600, 522.9287
849.0421, 515.9941
849.5242, 510.1557
850.0063, 511.2950
850.4885, 524.4447
850.9706, 532.8207
851.4527, 525.3235
851.9348, 515.9310
852.4169, 514.1257
852.8990, 517.7168
853.3812, 523.7013
853.8633, 530.5870
854.3454, 534.3422
854.8275, 531.4192
855.3096, 524.7417
855.7917, 514.5974
856.2739, 504.2282
856.7560, 501.3962
857.2381, 506.3473
857.7202, 514.1021
858.2023, 522.0762
858.6844, 528.3517
859.1666, 529.2612
859.6487, 525.4263
860.1308, 521.0629
860.6129, 516.2588
861.0950, 511.8053
861.5771, 507.6226
862.0593, 505.7123
862.5414, 509.2328
863.0235, 517.1100
863.5056, 518.7811
863.9877, 511.7578
864.4698, 505.5602
864.9520, 500.3307
865.4341, 497.8573
865.9162, 500.6099
866.3983, 506.4334
866.8804, 510.0844
867.3625, 510.9148
867.8447, 511.8897
868.3268, 515.3616
868.8089, 516.2393
869.2910, 509.6965
869.7731, 501.9505
870.2552, 499.9834
870.7374, 503.2311
871.2195, 505.0879
871.7016, 502.0916
872.1837, 499.4870
872.6658, 499.8377
873.1479, 501.6329
873.6301, 503.8626
874.1122, 506.2729
874.5943, 510.1339
875.0764, 515.6461
875.5585, 516.2507
876.0406, 499.4527
876.5228, 480.0415
877.0049, 481.1054
877.4870, 494.8304
877.9691, 501.9921
878.4512, 499.6090
878.9333, 496.9131
879.4155, 500.2625
879.8976, 506.6195
880.3797, 512.6866
880.8618, 517.3495
881.3439, 510.2369
881.8260, 491.1147
882.3082, 483.0002
882.7903, 496.5220
883.2724, 514.3106
883.7545, 513.7458
884.2366, 497.6878
884.7188, 493.7223
885.2009, 505.3703
885.6830, 512.7690
886.1651, 511.4936
886.6472, 507.8210
887.1293, 503.6958
887.6115, 501.7234
888.0936, 510.2793
888.5757, 538.6479
889.0578, 546.5066
889.5399, 513.2638
890.0220, 487.4134
890.5042, 487.4430
890.9863, 495.8134
891.4684, 497.8035
891.9505, 493.8163
892.4326, 489.3134
892.9147, 482.7711
893.3969, 479.2278
893.8790, 480.8325
894.3611, 484.7115
894.8432, 490.6318
895.3253, 496.8939
895.8074, 500.6422
896.2896, 501.3776
896.7717, 502.2573
897.2538, 507.5443
897.7359, 510.4681
898.2180, 504.4296
898.7001, 494.5179
899.1823, 486.1953
899.6644, 480.4411
900.1465, 476.8131
900.6286, 475.1444
901.1107, 475.4440
901.5928, 478.2611
902.0750, 482.6908
902.5571, 487.5024
903.0392, 492.7145
903.5213, 501.0469
904.0034, 511.9364
904.4855, 514.8758
904.9677, 498.6868
905.4498, 475.8237
905.9319, 472.0475
906.4140, 483.4210
906.8961, 493.4520
907.3782, 500.2051
907.8604, 501.0130
908.3425, 494.2004
908.8246, 485.9327
909.3067, 484.6101
909.7888, 489.3304
910.2709, 494.4597
910.7530, 500.4452
911.2351, 500.2290
911.7172, 490.5633
912.1993, 483.3764
912.6815, 488.0328
913.1636, 499.0157
913.6457, 502.0501
914.1278, 494.0431
914.6099, 494.3125
915.0920, 507.6065
915.5742, 518.4191
916.0563, 523.2817
916.5384, 521.9532
917.0205, 511.0014
917.5026, 492.6906
917.9847, 483.8771
918.4669, 491.9582
918.9490, 497.2414
919.4311, 495.9977
919.9132, 495.8638
920.3953, 503.4415
920.8774, 511.9517
921.3596, 510.0355
921.8417, 497.0528
922.3238, 492.5336
922.8059, 506.5504
923.2880, 519.2603
923.7701, 528.0536
924.2523, 531.4193
924.7344, 524.8976
925.2165, 513.0086
925.6986, 504.5156
926.1807, 501.3810
926.6628, 500.7686
927.1450, 502.0512
927.6271, 505.0245
928.1092, 510.7073
928.5913, 517.2077
929.0734, 523.5019
929.5555, 528.6201
930.0377, 529.7660
930.5198, 524.2311
931.0019, 520.8315
931.4840, 529.9263
931.9661, 540.5268
932.4482, 539.1034
932.9304, 531.4135
933.4125, 529.1197
933.8946, 534.3438
934.3767, 541.8263
934.8588, 548.9496
935.3409, 555.1453
935.8231, 561.8039
936.3052, 566.1202
936.7873, 558.7680
937.2694, 544.3357
937.7515, 540.7885
938.2336, 553.6943
938.7158, 568.6948
939.1979, 571.9680
939.6800, 568.9136
940.1621, 568.1548
940.6442, 570.2628
941.1263, 579.3885
941.6085, 594.6814
942.0906, 603.8377
942.5727, 600.2593
943.0548, 599.3384
943.5369, 627.7175
944.0190, 675.7026
944.5012, 700.3285
944.9833, 703.9536
945.4654, 710.8492
945.9475, 726.1196
946.4296, 745.6107
946.9117, 766.7914
947.3939, 788.7034
947.8760, 806.8392
948.3581, 821.5916
948.8402, 851.7068
949.3223, 898.7871
949.8044, 942.9323
950.2866, 978.0209
950.7687, 1011.217
951.2508, 1049.475
951.7329, 1090.074
952.2150, 1123.379
952.6971, 1148.388
953.1793, 1175.166
953.6614, 1207.053
954.1435, 1229.263
954.6256, 1235.544
955.1077, 1231.843
955.5898, 1224.093
956.0720, 1212.385
956.5541, 1197.090
957.0362, 1175.595
957.5183, 1159.966
958.0004, 1155.542
958.4825, 1147.367
958.9647, 1128.012
959.4468, 1101.877
959.9289, 1074.770
960.4110, 1046.588
960.8931, 1016.675
961.3752, 975.4689
961.8574, 953.1671
962.3395, 969.1891
962.8216, 981.9246
963.3037, 964.8051
963.7858, 931.6361
964.2679, 905.6718
964.7501, 887.1506
965.2322, 873.9644
965.7143, 873.4738
966.1964, 867.5430
966.6785, 846.5468
967.1606, 826.2221
967.6428, 815.7857
968.1249, 813.0765
968.6070, 814.1740
969.0891, 820.8867
969.5712, 823.5867
970.0533, 822.2380
970.5355, 816.2747
971.0176, 796.7438
971.4997, 780.4087
971.9818, 781.5172
972.4639, 796.2084
972.9460, 813.5291
973.4282, 835.2399
973.9103, 850.7137
974.3924, 854.7065
974.8745, 856.8576
975.3566, 855.4779
975.8387, 857.8797
976.3209, 872.6984
976.8030, 897.3689
977.2851, 921.2141
977.7672, 942.0673
978.2493, 963.2417
978.7314, 986.1676
979.2136, 1008.690
979.6957, 1027.735
980.1778, 1047.539
980.6599, 1075.018
981.1420, 1108.313
981.6241, 1136.337
982.1063, 1154.220
982.5884, 1171.682
983.0705, 1190.797
983.5526, 1211.154
984.0347, 1235.240
984.5168, 1258.731
984.9990, 1275.503
985.4811, 1285.869
985.9632, 1296.401
986.4453, 1308.459
986.9274, 1321.874
987.4095, 1336.641
987.8917, 1352.531
988.3738, 1371.417
988.8559, 1390.249
989.3380, 1402.647
989.8201, 1409.418
990.3022, 1423.096
990.7844, 1455.780
991.2665, 1483.549
991.7486, 1494.953
992.2307, 1499.634
992.7128, 1498.766
993.1949, 1499.141
993.6771, 1514.094
994.1592, 1543.309
994.6413, 1563.486
995.1234, 1563.709
995.6055, 1555.557
996.0876, 1547.346
996.5698, 1529.893
997.0519, 1490.195
997.5340, 1438.372
998.0161, 1391.398
998.4982, 1352.332
998.9803, 1313.669
999.4625, 1276.173
999.9446, 1233.577
1000.427, 1174.525
1000.909, 1116.954
1001.391, 1078.822
1001.873, 1051.978
1002.355, 1018.852
1002.837, 976.6802
1003.319, 939.7534
1003.802, 916.9594
1004.284, 897.4114
1004.766, 878.9224
1005.248, 858.6981
1005.730, 833.9276
1006.212, 805.7798
1006.694, 775.0604
1007.176, 742.3304
1007.658, 715.1074
1008.141, 700.5844
1008.623, 686.9307
1009.105, 662.6613
1009.587, 642.1638
1010.069, 644.0343
1010.551, 656.4818
1011.033, 655.1935
1011.515, 636.0591
1011.997, 620.5683
1012.480, 623.6505
1012.962, 624.2473
1013.444, 606.3655
1013.926, 587.8871
1014.408, 586.3946
1014.890, 594.2482
1015.372, 595.0007
1015.854, 585.9256
1016.337, 580.1511
1016.819, 585.9335
1017.301, 591.4970
1017.783, 591.3552
1018.265, 589.6969
1018.747, 590.7977
1019.229, 592.3781
1019.711, 589.4039
1020.193, 581.2637
1020.676, 574.3118
1021.158, 569.9970
1021.640, 568.0686
1022.122, 571.0963
1022.604, 573.8380
1023.086, 568.1854
1023.568, 561.6802
1024.050, 569.1984
1024.533, 591.9617
1025.015, 609.1780
1025.497, 611.2592
1025.979, 612.8675
1026.461, 619.8304
1026.943, 625.9355
1027.425, 622.3660
1027.907, 617.8494
1028.390, 627.5450
1028.872, 652.1846
1029.354, 674.0862
1029.836, 691.0246
1030.318, 703.2405
1030.800, 710.2358
1031.282, 713.1219
1031.764, 705.2468
1032.246, 697.8378
1032.729, 709.2462
1033.211, 739.1104
1033.693, 761.8332
1034.175, 769.5334
1034.657, 777.6130
1035.139, 780.3361
1035.621, 792.5108
1036.103, 832.7637
1036.585, 878.5001
1037.068, 899.7573
1037.550, 898.0848
1038.032, 905.2879
1038.514, 925.9684
1038.996, 949.5521
1039.478, 975.9678
1039.960, 1005.107
1040.442, 1034.112
1040.925, 1068.315
1041.407, 1115.757
1041.889, 1174.261
1042.371, 1227.697
1042.853, 1269.891
1043.335, 1319.590
1043.817, 1379.132
1044.299, 1442.557
1044.781, 1506.723
1045.264, 1575.438
1045.746, 1652.714
1046.228, 1737.246
1046.710, 1820.115
1047.192, 1896.045
1047.674, 1989.017
1048.156, 2105.602
1048.638, 2221.199
1049.120, 2329.562
1049.603, 2431.498
1050.085, 2525.903
1050.567, 2615.300
1051.049, 2709.019
1051.531, 2809.599
1052.013, 2896.365
1052.495, 2970.801
1052.977, 3024.539
1053.460, 3055.672
1053.942, 3065.228
1054.424, 3053.041
1054.906, 3022.541
1055.388, 2979.999
1055.870, 2925.236
1056.352, 2863.991
1056.834, 2796.619
1057.317, 2712.490
1057.799, 2609.291
1058.281, 2501.382
1058.763, 2396.581
1059.245, 2295.453
1059.727, 2199.918
1060.209, 2108.290
1060.691, 2007.313
1061.173, 1900.404
1061.656, 1813.855
1062.138, 1750.046
1062.620, 1692.471
1063.102, 1633.003
1063.584, 1573.406
1064.066, 1515.189
1064.548, 1459.161
1065.030, 1407.021
1065.512, 1358.823
1065.995, 1314.847
1066.477, 1275.030
1066.959, 1239.699
1067.441, 1208.304
1067.923, 1177.165
1068.405, 1143.023
1068.887, 1107.636
1069.369, 1072.740
1069.852, 1038.545
1070.334, 1000.901
1070.816, 965.6364
1071.298, 951.8597
1071.780, 959.4414
1072.262, 959.2516
1072.744, 931.3669
1073.226, 898.3994
1073.708, 878.6693
1074.191, 863.8676
1074.673, 843.7900
1075.155, 823.5100
1075.637, 813.5668
1076.119, 812.7859
1076.601, 810.5180
1077.083, 803.1246
1077.565, 792.2812
1078.047, 773.2407
1078.530, 757.5582
1079.012, 758.7538
1079.494, 761.9183
1079.976, 748.2134
1080.458, 723.2654
1080.940, 706.3028
1081.422, 702.2099
1081.904, 697.8842
1082.386, 686.6932
1082.869, 679.7130
1083.351, 683.9189
1083.833, 690.0185
1084.315, 693.7526
1084.797, 693.9812
1085.279, 687.3120
1085.761, 672.5728
1086.243, 664.2861
1086.726, 667.7701
1087.208, 668.5806
1087.690, 662.9809
1088.172, 658.3755
1088.654, 657.1298
1089.136, 659.7444
1089.618, 668.2629
1090.100, 681.2679
1090.583, 687.5560
1091.065, 683.6635
1091.547, 687.6830
1092.029, 702.2994
1092.511, 717.3713
1092.993, 730.1620
1093.475, 739.5707
1093.957, 743.4158
1094.439, 745.8691
1094.922, 759.3882
1095.404, 783.2386
1095.886, 799.3105
1096.368, 807.5688
1096.850, 815.1609
1097.332, 823.6922
1097.814, 833.8669
1098.296, 846.1660
1098.778, 860.2923
1099.261, 878.7348
1099.743, 897.1124
1100.225, 902.4098
1100.707, 898.0624
1101.189, 893.7399
1101.671, 890.4337
1102.153, 886.4272
1102.635, 880.8224
1103.118, 870.7567
1103.600, 851.8353
1104.082, 830.4871
1104.564, 812.9778
1105.046, 798.0872
1105.528, 785.0370
1106.010, 772.9371
1106.492, 761.9678
1106.974, 750.9250
1107.457, 733.5201
1107.939, 703.7380
1108.421, 675.7816
1108.903, 657.1361
1109.385, 643.1281
1109.867, 633.3282
1110.349, 624.3320
1110.831, 611.8624
1111.313, 596.9706
1111.796, 583.7890
1112.278, 572.4553
1112.760, 564.8892
1113.242, 566.5305
1113.724, 564.8528
1114.206, 553.7632
1114.688, 541.5491
1115.170, 532.2414
1115.653, 525.8920
1116.135, 523.8273
1116.617, 526.0195
1117.099, 522.6320
1117.581, 510.4159
1118.063, 502.7769
1118.545, 502.5068
1119.027, 501.4271
1119.510, 496.1516
1119.992, 489.4289
1120.474, 483.9920
1120.956, 479.2622
1121.438, 471.9164
1121.920, 462.3721
1122.402, 464.1988
1122.884, 476.9717
1123.366, 486.3879
1123.849, 489.1083
1124.331, 488.1243
1124.813, 485.1484
1125.295, 480.6873
1125.777, 474.2214
1126.259, 467.4793
1126.741, 466.9409
1127.223, 468.0493
1127.705, 456.8811
1128.188, 437.3260
1128.670, 426.5321
1129.152, 429.8532
1129.634, 439.4065
1130.116, 452.3470
1130.598, 465.3934
1131.080, 480.4658
1131.562, 490.0394
1132.045, 484.5135
1132.527, 470.4001
1133.009, 456.0215
1133.491, 442.9777
1133.973, 431.0378
1134.455, 418.4594
1134.937, 412.2685
1135.419, 418.8622
1135.901, 425.7903
1136.384, 426.8527
1136.866, 428.4205
1137.348, 439.4831
1137.830, 452.4381
1138.312, 451.8464
1138.794, 436.9258
1139.276, 426.6718
1139.758, 422.8674
1140.240, 417.6806
1140.723, 408.4090
1141.205, 404.9464
1141.687, 412.4976
1142.169, 423.0898
1142.651, 429.3275
1143.133, 431.2888
1143.615, 428.0529
1144.097, 420.3090
1144.580, 414.1175
1145.062, 409.5519
1145.544, 406.3583
1146.026, 404.2807
1146.508, 401.2651
1146.990, 396.0958
1147.472, 392.9420
1147.954, 397.9390
1148.437, 406.4455
1148.919, 412.8968
1149.401, 417.6859
1149.883, 421.5303
1150.365, 424.1707
1150.847, 424.3854
1151.329, 422.2372
1151.811, 420.3186
1152.293, 420.5694
1152.776, 419.6261
1153.258, 413.2305
1153.740, 408.3282
1154.222, 411.7070
1154.704, 416.4737
1155.186, 414.1049
1155.668, 406.9847
1156.150, 403.7980
1156.632, 405.8554
1157.115, 408.1825
1157.597, 411.3912
1158.079, 413.8051
1158.561, 416.3422
1159.043, 414.9129
1159.525, 405.5372
1160.007, 396.2962
1160.489, 398.3093
1160.972, 406.7426
1161.454, 399.0126
1161.936, 376.3932
1162.418, 376.8657
1162.900, 399.7067
1163.382, 412.8445
1163.864, 409.3586
1164.346, 404.8377
1164.828, 408.7079
1165.311, 413.4434
1165.793, 407.6766
1166.275, 399.3083
1166.757, 402.8217
1167.239, 410.4533
1167.721, 409.1820
1168.203, 401.1309
1168.685, 393.2699
1169.167, 387.8821
1169.650, 387.6909
1170.132, 398.1495
1170.614, 404.6051
1171.096, 397.7008
1171.578, 389.1498
1172.060, 383.9215
1172.542, 381.1662
1173.024, 379.3648
1173.507, 379.4054
1173.989, 384.5592
1174.471, 395.9354
1174.953, 402.4896
1175.435, 402.9500
1175.917, 402.0520
1176.399, 400.1648
1176.881, 397.3781
1177.364, 393.5024
1177.846, 389.3859
1178.328, 385.4387
1178.810, 383.0427
1179.292, 388.0029
1179.774, 397.6384
1180.256, 396.2149
1180.738, 386.7694
1181.220, 384.0710
1181.703, 389.8071
1182.185, 398.6170
1182.667, 407.9506
1183.149, 410.6590
1183.631, 393.6355
1184.113, 377.0930
1184.595, 383.6951
1185.077, 395.6229
1185.559, 394.2116
1186.042, 386.1534
1186.524, 383.1366
1187.006, 385.7450
1187.488, 388.8364
1187.970, 393.1038
1188.452, 392.5117
1188.934, 380.5908
1189.416, 372.1191
1189.899, 369.5742
1190.381, 371.9498
1190.863, 380.8087
1191.345, 391.0502
1191.827, 395.3659
1192.309, 394.7997
1192.791, 395.3378
1193.273, 396.9599
1193.755, 394.2739
1194.238, 387.3291
1194.720, 382.7038
1195.202, 381.6311
1195.684, 377.2741
1196.166, 365.2692
1196.648, 354.5078
1197.130, 355.0903
1197.612, 362.7265
1198.094, 376.9704
1198.577, 390.7820
1199.059, 392.8854
1199.541, 387.3720
1200.023, 384.8872
1200.505, 386.0262
1200.987, 380.6594
1201.469, 360.0290
1201.951, 348.0188
1202.434, 357.1216
1202.916, 366.8805
1203.398, 371.0935
1203.880, 373.1278
1204.362, 376.1014
1204.844, 376.9362
1205.326, 369.9270
1205.808, 356.2919
1206.291, 344.8962
1206.773, 335.1285
1207.255, 342.5336
1207.737, 367.8177
1208.219, 377.9696
1208.701, 365.2220
1209.183, 355.6944
1209.665, 366.0587
1210.147, 380.6072
1210.630, 379.3676
1211.112, 371.7701
1211.594, 370.6838
1212.076, 372.1629
1212.558, 369.0384
1213.040, 364.4242
1213.522, 367.0265
1214.004, 376.6789
1214.486, 382.9773
1214.969, 382.6839
1215.451, 379.2528
1215.933, 367.2842
1216.415, 361.1371
1216.897, 371.4690
1217.379, 380.4705
1217.861, 376.0766
1218.343, 367.3615
1218.826, 368.0685
1219.308, 375.4500
1219.790, 372.3315
1220.272, 358.7470
1220.754, 352.0070
1221.236, 352.8095
1221.718, 362.6418
1222.200, 380.2009
1222.682, 391.2779
1223.165, 388.3660
1223.647, 378.9575
1224.129, 364.3717
1224.611, 354.6276
1225.093, 366.9739
1225.575, 384.3380
1226.057, 387.7333
1226.539, 382.5942
1227.021, 377.4076
1227.504, 374.2949
1227.986, 376.1429
1228.468, 385.5263
1228.950, 392.1792
1229.432, 397.7626
1229.914, 395.2656
1230.396, 377.8899
1230.878, 365.2576
1231.361, 368.1248
1231.843, 374.5464
1232.325, 371.7917
1232.807, 363.4146
1233.289, 354.4314
1233.771, 348.3254
1234.253, 373.8063
1234.735, 417.4931
1235.218, 423.0851
1235.700, 391.6653
1236.182, 365.7957
1236.664, 360.2446
1237.146, 358.1524
1237.628, 348.6920
1238.110, 340.3792
1238.592, 339.0098
1239.074, 339.9146
1239.557, 339.4823
1240.039, 340.3271
1240.521, 347.0593
1241.003, 356.5677
1241.485, 360.7567
1241.967, 359.5799
1242.449, 362.7077
1242.931, 372.3398
1243.413, 374.4537
1243.896, 367.1128
1244.378, 363.4882
1244.860, 367.5300
1245.342, 369.2964
1245.824, 361.9357
1246.306, 353.4248
1246.788, 355.4284
1247.270, 361.2401
1247.753, 360.2381
1248.235, 356.3287
1248.717, 353.4786
1249.199, 353.0644
1249.681, 359.4344
1250.163, 370.2034
1250.645, 372.3584
1251.127, 360.0663
1251.609, 349.8615
1252.092, 342.6866
1252.574, 341.1434
1253.056, 348.1007
1253.538, 356.2679
1254.020, 363.5549
1254.502, 367.3860
1254.984, 363.8107
1255.466, 357.9971
1255.948, 365.1514
1256.431, 381.3538
1256.913, 388.1792
1257.395, 386.9897
1257.877, 380.8564
1258.359, 372.0608
1258.841, 364.5275
##END=



