##NAMES=Ekatite
##RRUFFID=R110136
##IDEAL CHEMISTRY=(Fe^3+^,Fe^2+^,Zn^2+^)_12_(As^3+^O_3_)_6_(As^3+^O_3_,SiO_3_OH)_2_(OH)_6_
##LOCALITY=Tsumeb, Namibia
##OWNER=RRUFF
##SOURCE=William W. Pinch
##DESCRIPTION=Radiating aggregate of thin black prismatic crystals
##STATUS=The identification of this mineral has been confirmed by single-crystal X-ray diffraction.
##URL=rruff.info/R110136
187.5447, 843.8979
188.0269, 838.0184
188.5090, 838.6865
188.9911, 839.9048
189.4732, 841.1119
189.9553, 841.9224
190.4374, 841.0948
190.9196, 837.4628
191.4017, 833.8965
191.8838, 834.1968
192.3659, 838.0385
192.8480, 844.7821
193.3301, 859.6813
193.8123, 878.6047
194.2944, 884.6689
194.7765, 865.8117
195.2586, 841.9920
195.7407, 834.6967
196.2228, 844.1647
196.7050, 857.2271
197.1871, 865.3248
197.6692, 868.6222
198.1513, 870.8164
198.6334, 872.9655
199.1155, 873.6901
199.5977, 871.2523
200.0798, 865.7850
200.5619, 860.3563
201.0440, 857.0174
201.5261, 855.3812
202.0082, 858.5026
202.4904, 870.6040
202.9725, 885.0618
203.4546, 901.1709
203.9367, 917.7858
204.4188, 931.0059
204.9009, 932.9948
205.3831, 915.7593
205.8652, 912.3956
206.3473, 930.6465
206.8294, 956.5519
207.3115, 984.8910
207.7936, 1013.519
208.2758, 1040.843
208.7579, 1063.360
209.2400, 1074.546
209.7221, 1095.897
210.2042, 1131.204
210.6863, 1171.890
211.1685, 1210.752
211.6506, 1247.055
212.1327, 1287.083
212.6148, 1341.370
213.0969, 1421.336
213.5790, 1490.790
214.0612, 1544.786
214.5433, 1592.065
215.0254, 1638.461
215.5075, 1685.414
215.9896, 1734.724
216.4717, 1790.144
216.9539, 1861.835
217.4360, 1912.616
217.9181, 1936.961
218.4002, 1942.746
218.8823, 1937.263
219.3644, 1922.228
219.8466, 1891.379
220.3287, 1854.699
220.8108, 1796.556
221.2929, 1732.190
221.7750, 1656.875
222.2571, 1578.322
222.7393, 1505.084
223.2214, 1438.775
223.7035, 1379.326
224.1856, 1330.413
224.6677, 1291.236
225.1498, 1251.160
225.6320, 1203.999
226.1141, 1155.130
226.5962, 1112.755
227.0783, 1077.800
227.5604, 1050.619
228.0425, 1035.403
228.5247, 1029.415
229.0068, 1021.546
229.4889, 1002.653
229.9710, 979.4182
230.4531, 968.8714
230.9352, 978.5568
231.4174, 988.6388
231.8995, 983.1709
232.3816, 966.1310
232.8637, 947.4550
233.3458, 928.9181
233.8279, 912.1217
234.3101, 903.5140
234.7922, 909.2746
235.2743, 913.0884
235.7564, 903.0038
236.2385, 884.5110
236.7206, 868.4836
237.2028, 860.6919
237.6849, 860.2917
238.1670, 863.8387
238.6491, 872.7512
239.1312, 883.9395
239.6133, 905.1169
240.0955, 926.5143
240.5776, 930.2218
241.0597, 899.7667
241.5418, 844.6994
242.0239, 812.6438
242.5060, 818.7560
242.9882, 828.8960
243.4703, 832.3014
243.9524, 832.8758
244.4345, 838.2479
244.9166, 854.4977
245.3987, 876.9546
245.8809, 882.3088
246.3630, 852.2155
246.8451, 827.9269
247.3272, 816.7802
247.8093, 816.2174
248.2914, 824.8766
248.7736, 842.9134
249.2557, 866.0660
249.7378, 876.5414
250.2199, 860.7947
250.7020, 848.3885
251.1841, 845.5262
251.6663, 847.2690
252.1484, 847.6852
252.6305, 843.8959
253.1126, 837.1599
253.5947, 831.2552
254.0768, 824.0060
254.5590, 820.7386
255.0411, 822.2427
255.5232, 827.6100
256.0053, 837.8188
256.4874, 853.1742
256.9695, 869.4810
257.4517, 876.6016
257.9338, 868.3865
258.4159, 857.0890
258.8980, 834.0397
259.3801, 811.6941
259.8622, 804.4279
260.3444, 817.0280
260.8265, 841.2438
261.3086, 861.8763
261.7907, 879.8493
262.2728, 891.8732
262.7549, 891.4684
263.2371, 888.2720
263.7192, 892.4570
264.2013, 906.6403
264.6834, 925.4584
265.1655, 941.8485
265.6476, 957.7847
266.1298, 964.3104
266.6119, 947.3246
267.0940, 928.5555
267.5761, 931.6232
268.0582, 960.5044
268.5403, 996.4565
269.0225, 1018.282
269.5046, 1022.582
269.9867, 1023.978
270.4688, 1014.883
270.9509, 1007.876
271.4330, 1014.364
271.9152, 1035.452
272.3973, 1064.597
272.8794, 1098.313
273.3615, 1136.867
273.8436, 1165.823
274.3257, 1181.007
274.8079, 1189.478
275.2900, 1191.965
275.7721, 1189.772
276.2542, 1194.743
276.7363, 1219.154
277.2184, 1260.307
277.7006, 1291.022
278.1827, 1300.948
278.6648, 1308.382
279.1469, 1328.346
279.6290, 1359.173
280.1111, 1386.582
280.5933, 1402.045
281.0754, 1406.991
281.5575, 1410.130
282.0396, 1410.521
282.5217, 1410.289
283.0038, 1411.540
283.4860, 1413.674
283.9681, 1414.498
284.4502, 1416.031
284.9323, 1412.354
285.4144, 1391.980
285.8965, 1348.658
286.3787, 1304.830
286.8608, 1272.669
287.3429, 1250.163
287.8250, 1229.087
288.3071, 1205.549
288.7892, 1184.408
289.2714, 1176.506
289.7535, 1184.960
290.2356, 1182.365
290.7177, 1140.957
291.1998, 1078.242
291.6819, 1043.744
292.1641, 1056.803
292.6462, 1084.014
293.1283, 1090.267
293.6104, 1077.918
294.0925, 1058.536
294.5746, 1028.567
295.0568, 995.9980
295.5389, 980.5900
296.0210, 990.6035
296.5031, 999.8876
296.9852, 981.4835
297.4673, 943.7684
297.9495, 907.4697
298.4316, 876.5965
298.9137, 852.0825
299.3958, 837.4874
299.8779, 834.6664
300.3600, 832.9671
300.8422, 823.8966
301.3243, 811.3776
301.8064, 802.2609
302.2885, 798.4662
302.7706, 798.1512
303.2527, 802.1226
303.7349, 811.1664
304.2170, 813.0190
304.6991, 795.4572
305.1812, 770.2176
305.6633, 754.2411
306.1454, 752.8837
306.6276, 752.7521
307.1097, 737.7931
307.5918, 709.3948
308.0739, 692.7924
308.5560, 704.6658
309.0381, 724.9102
309.5203, 729.4391
310.0024, 716.3282
310.4845, 701.6846
310.9666, 697.7257
311.4487, 702.0499
311.9308, 702.7856
312.4130, 696.8900
312.8951, 687.7357
313.3772, 676.5455
313.8593, 664.0276
314.3414, 655.8877
314.8235, 656.5588
315.3057, 663.6066
315.7878, 672.6864
316.2699, 686.7995
316.7520, 694.5934
317.2341, 681.6460
317.7162, 656.2064
318.1984, 635.8214
318.6805, 627.2889
319.1626, 627.2245
319.6447, 632.3104
320.1268, 643.9193
320.6089, 653.8234
321.0911, 657.8245
321.5732, 656.9635
322.0553, 650.9302
322.5374, 635.6270
323.0195, 621.7284
323.5016, 624.1241
323.9838, 643.0056
324.4659, 655.2999
324.9480, 647.0229
325.4301, 631.1747
325.9122, 624.1924
326.3943, 628.1255
326.8765, 634.2949
327.3586, 636.6937
327.8407, 635.9559
328.3228, 635.5895
328.8049, 636.6570
329.2870, 637.9418
329.7692, 638.8254
330.2513, 639.2422
330.7334, 637.6788
331.2155, 630.0575
331.6976, 620.2276
332.1797, 618.8956
332.6619, 630.2543
333.1440, 641.4248
333.6261, 639.7471
334.1082, 629.6151
334.5903, 620.7466
335.0724, 617.8370
335.5546, 616.8846
336.0367, 610.5961
336.5188, 597.9858
337.0009, 590.9653
337.4830, 601.5620
337.9651, 620.8472
338.4473, 631.3679
338.9294, 626.7035
339.4115, 620.1998
339.8936, 625.3972
340.3757, 640.1318
340.8578, 647.3943
341.3400, 638.3492
341.8221, 621.0763
342.3042, 607.5426
342.7863, 597.4904
343.2684, 591.3970
343.7505, 589.0132
344.2327, 590.7576
344.7148, 600.1776
345.1969, 621.4056
345.6790, 641.2770
346.1611, 641.6609
346.6432, 625.6945
347.1254, 608.8534
347.6075, 589.2467
348.0896, 573.7659
348.5717, 574.8849
349.0538, 594.2477
349.5359, 613.6668
350.0181, 619.8097
350.5002, 614.4679
350.9823, 608.6250
351.4644, 598.0646
351.9465, 591.2805
352.4286, 597.3121
352.9108, 613.4517
353.3929, 626.6439
353.8750, 629.8937
354.3571, 626.8737
354.8392, 626.6253
355.3214, 629.0223
355.8035, 633.7366
356.2856, 646.0765
356.7677, 659.6825
357.2498, 660.7715
357.7319, 643.9532
358.2141, 622.0634
358.6962, 613.4498
359.1783, 620.5881
359.6604, 624.9242
360.1425, 623.0204
360.6246, 618.2687
361.1068, 613.1670
361.5889, 608.1152
362.0710, 603.4007
362.5531, 598.6159
363.0352, 594.0587
363.5173, 594.7048
363.9995, 602.8260
364.4816, 613.3236
364.9637, 628.0633
365.4458, 643.5219
365.9279, 649.8317
366.4100, 640.5448
366.8922, 621.7396
367.3743, 613.5511
367.8564, 624.6975
368.3385, 633.2899
368.8206, 635.1439
369.3027, 633.6256
369.7849, 632.3890
370.2670, 632.4885
370.7491, 633.0079
371.2312, 632.8214
371.7133, 632.2104
372.1954, 629.6564
372.6776, 620.2983
373.1597, 613.1620
373.6418, 616.4080
374.1239, 627.9824
374.6060, 638.4498
375.0881, 640.2515
375.5703, 633.6150
376.0524, 627.2153
376.5345, 614.7841
377.0166, 609.6075
377.4987, 621.7084
377.9808, 641.1534
378.4630, 653.0576
378.9451, 650.5255
379.4272, 639.3963
379.9093, 633.6419
380.3914, 638.0802
380.8735, 639.9598
381.3557, 634.2589
381.8378, 629.2598
382.3199, 633.6428
382.8020, 647.0889
383.2841, 659.9725
383.7662, 660.4485
384.2484, 646.0543
384.7305, 636.5310
385.2126, 635.9477
385.6947, 636.5281
386.1768, 635.6704
386.6589, 634.1586
387.1411, 633.7296
387.6232, 635.2159
388.1053, 638.8749
388.5874, 646.6871
389.0695, 664.3948
389.5516, 675.0222
390.0338, 668.6725
390.5159, 657.8737
390.9980, 655.0773
391.4801, 663.6446
391.9622, 675.0774
392.4443, 679.3935
392.9265, 676.1757
393.4086, 669.6503
393.8907, 654.5126
394.3728, 641.8119
394.8549, 639.5173
395.3370, 645.6863
395.8192, 652.2057
396.3013, 654.9302
396.7834, 654.0277
397.2655, 648.7408
397.7476, 636.3101
398.2297, 626.7245
398.7119, 628.7323
399.1940, 635.6434
399.6761, 639.6304
400.1582, 639.5784
400.6403, 634.2158
401.1224, 617.6450
401.6046, 590.8612
402.0867, 574.3422
402.5688, 580.5897
403.0509, 592.5987
403.5330, 587.3632
404.0151, 564.4152
404.4973, 546.9813
404.9794, 551.6107
405.4615, 566.5385
405.9436, 570.0944
406.4257, 558.7169
406.9078, 544.6008
407.3900, 535.7573
407.8721, 532.5381
408.3542, 534.7675
408.8363, 555.0217
409.3184, 569.4610
409.8005, 555.3748
410.2827, 520.8724
410.7648, 494.8304
411.2469, 490.9527
411.7290, 500.6642
412.2111, 504.8808
412.6932, 500.5963
413.1754, 499.1705
413.6575, 504.7488
414.1396, 512.9254
414.6217, 520.1411
415.1038, 525.4402
415.5859, 527.7986
416.0681, 526.0193
416.5502, 519.7885
417.0323, 512.0717
417.5144, 499.8902
417.9965, 489.5447
418.4786, 485.3394
418.9608, 484.6638
419.4429, 481.3453
419.9250, 471.9432
420.4071, 460.2861
420.8892, 457.5081
421.3713, 475.4110
421.8535, 484.2262
422.3356, 477.7772
422.8177, 466.3676
423.2998, 456.3343
423.7819, 449.3655
424.2640, 445.3788
424.7462, 444.3135
425.2283, 446.1905
425.7104, 450.7596
426.1925, 463.7369
426.6746, 473.1109
427.1567, 471.3428
427.6389, 464.6977
428.1210, 463.4841
428.6031, 473.2210
429.0852, 488.3882
429.5673, 498.3725
430.0494, 502.9019
430.5316, 503.3860
431.0137, 498.9227
431.4958, 491.0427
431.9779, 478.5331
432.4600, 462.0641
432.9421, 447.3068
433.4243, 435.2713
433.9064, 427.8316
434.3885, 436.0963
434.8706, 468.4133
435.3527, 498.1891
435.8348, 503.9015
436.3170, 496.3364
436.7991, 493.7157
437.2812, 506.0204
437.7633, 516.7477
438.2454, 505.2794
438.7275, 475.4372
439.2097, 454.7629
439.6918, 454.7961
440.1739, 465.0853
440.6560, 470.4544
441.1381, 470.6624
441.6202, 471.4539
442.1024, 474.2147
442.5845, 478.4820
443.0666, 485.1734
443.5487, 493.9483
444.0308, 500.0872
444.5129, 499.4923
444.9951, 492.9008
445.4772, 487.8256
445.9593, 484.9537
446.4414, 482.5767
446.9235, 478.3454
447.4056, 474.8208
447.8878, 477.4942
448.3699, 488.0414
448.8520, 500.0759
449.3341, 503.7381
449.8162, 496.1856
450.2983, 487.6548
450.7805, 475.3608
451.2626, 464.7944
451.7447, 457.7491
452.2268, 454.8148
452.7089, 458.0500
453.1910, 470.2315
453.6732, 486.8314
454.1553, 487.0031
454.6374, 454.7146
455.1195, 433.4121
455.6016, 431.9128
456.0837, 441.3428
456.5659, 459.2790
457.0480, 483.3716
457.5301, 502.3250
458.0122, 500.6706
458.4943, 478.9306
458.9764, 464.6793
459.4586, 458.1815
459.9407, 460.8247
460.4228, 483.3116
460.9049, 512.7079
461.3870, 524.3137
461.8691, 503.6286
462.3513, 471.5067
462.8334, 450.3427
463.3155, 440.0652
463.7976, 440.2102
464.2797, 456.2049
464.7618, 476.1012
465.2440, 483.0294
465.7261, 476.7699
466.2082, 474.1964
466.6903, 485.5431
467.1724, 501.1688
467.6545, 509.4699
468.1367, 509.6719
468.6188, 506.6536
469.1009, 503.5143
469.5830, 499.7911
470.0651, 493.0010
470.5472, 473.5746
471.0294, 463.4879
471.5115, 474.0312
471.9936, 494.5740
472.4757, 514.2402
472.9578, 529.5044
473.4399, 538.3348
473.9221, 537.9921
474.4042, 527.5192
474.8863, 512.9465
475.3684, 481.5421
475.8505, 459.7528
476.3326, 462.9889
476.8148, 481.4671
477.2969, 498.7101
477.7790, 506.6681
478.2611, 509.0406
478.7432, 514.0866
479.2253, 524.5588
479.7075, 529.7504
480.1896, 522.7311
480.6717, 514.8712
481.1538, 512.7965
481.6359, 515.8698
482.1180, 519.0504
482.6002, 518.6302
483.0823, 515.9514
483.5644, 515.1630
484.0465, 517.0473
484.5286, 518.0477
485.0107, 518.6004
485.4929, 516.2043
485.9750, 505.9822
486.4571, 485.5150
486.9392, 467.5291
487.4213, 457.1605
487.9034, 455.1982
488.3856, 467.4434
488.8677, 496.9146
489.3498, 524.2460
489.8319, 530.9281
490.3140, 518.3408
490.7961, 512.6902
491.2783, 520.7401
491.7604, 528.4496
492.2425, 528.9655
492.7246, 524.7452
493.2067, 520.2908
493.6888, 517.1993
494.1710, 514.8541
494.6531, 512.6469
495.1352, 511.6891
495.6173, 507.0501
496.0994, 491.9962
496.5815, 480.2993
497.0637, 483.1759
497.5458, 494.3789
498.0279, 499.2828
498.5100, 489.0978
498.9921, 470.5174
499.4742, 459.9913
499.9564, 458.8236
500.4385, 462.7340
500.9206, 478.6566
501.4027, 493.4919
501.8848, 498.8994
502.3669, 495.1155
502.8491, 487.3982
503.3312, 476.4269
503.8133, 464.8017
504.2954, 461.8581
504.7775, 470.3837
505.2596, 474.1021
505.7418, 460.1491
506.2239, 439.9919
506.7060, 429.3264
507.1881, 429.4929
507.6702, 437.0169
508.1523, 456.4248
508.6345, 480.0506
509.1166, 497.2414
509.5987, 506.4782
510.0808, 502.7462
510.5629, 476.4930
511.0450, 431.4980
511.5272, 410.1880
512.0093, 433.4901
512.4914, 452.1353
512.9735, 445.2201
513.4556, 428.0930
513.9377, 421.7139
514.4199, 431.4630
514.9020, 447.6627
515.3841, 459.1849
515.8662, 466.5209
516.3483, 465.7603
516.8304, 444.0229
517.3126, 427.8126
517.7947, 428.9071
518.2768, 438.9306
518.7589, 445.0372
519.2410, 442.0023
519.7231, 435.7809
520.2053, 435.1702
520.6874, 440.6137
521.1695, 445.7054
521.6516, 452.7635
522.1337, 454.9464
522.6158, 444.3299
523.0980, 425.4214
523.5801, 411.0689
524.0622, 405.4935
524.5443, 406.7350
525.0264, 416.8995
525.5085, 433.8832
525.9907, 444.6947
526.4728, 444.5994
526.9549, 436.9527
527.4370, 424.7171
527.9191, 406.2292
528.4012, 393.3217
528.8834, 388.8109
529.3655, 388.8198
529.8476, 394.5075
530.3297, 402.6780
530.8118, 404.0772
531.2939, 393.0984
531.7761, 376.4369
532.2582, 371.8207
532.7403, 389.6705
533.2224, 400.4751
533.7045, 403.4492
534.1866, 400.5203
534.6688, 388.5988
535.1509, 371.3916
535.6330, 358.4550
536.1151, 356.8595
536.5972, 362.6440
537.0793, 366.3978
537.5615, 369.1163
538.0436, 365.4327
538.5257, 347.5101
539.0078, 327.3258
539.4899, 313.1815
539.9720, 305.6371
540.4542, 306.7824
540.9363, 324.3777
541.4184, 347.9443
541.9005, 361.8030
542.3826, 365.8175
542.8647, 370.1267
543.3469, 382.4037
543.8290, 395.9210
544.3111, 390.9046
544.7932, 356.4631
545.2753, 331.9892
545.7574, 326.0526
546.2396, 329.9645
546.7217, 339.0050
547.2038, 351.1924
547.6859, 364.1473
548.1680, 376.8303
548.6501, 387.8574
549.1323, 390.3487
549.6144, 376.5641
550.0965, 367.6259
550.5786, 370.6743
551.0607, 375.0315
551.5428, 373.1708
552.0250, 364.7433
552.5071, 353.6501
552.9892, 341.5771
553.4713, 329.2985
553.9534, 316.9972
554.4355, 302.8150
554.9177, 298.9956
555.3998, 317.8464
555.8819, 344.4062
556.3640, 358.5671
556.8461, 359.0168
557.3282, 355.5747
557.8104, 350.7486
558.2925, 344.8021
558.7746, 335.2922
559.2567, 323.4552
559.7388, 319.7016
560.2209, 332.3292
560.7031, 354.2163
561.1852, 362.5965
561.6673, 339.7395
562.1494, 328.3226
562.6315, 340.3307
563.1136, 354.9978
563.5958, 354.9890
564.0779, 342.6712
564.5600, 333.1817
565.0421, 338.4135
565.5242, 352.2153
566.0063, 352.2121
566.4885, 331.8179
566.9706, 316.9037
567.4527, 320.2632
567.9348, 326.1968
568.4169, 320.7821
568.8990, 305.8159
569.3812, 297.9999
569.8633, 310.3309
570.3454, 332.6865
570.8275, 354.8950
571.3096, 375.9988
571.7917, 383.3070
572.2739, 366.8935
572.7560, 341.3290
573.2381, 335.0452
573.7202, 355.8357
574.2023, 363.8402
574.6844, 342.4850
575.1666, 318.4312
575.6487, 308.6690
576.1308, 311.6926
576.6129, 320.9140
577.0950, 333.2706
577.5771, 345.9375
578.0593, 353.2375
578.5414, 355.9889
579.0235, 351.0419
579.5056, 323.1878
579.9877, 301.6662
580.4698, 304.5192
580.9520, 323.9383
581.4341, 341.0818
581.9162, 347.8833
582.3983, 348.0557
582.8804, 345.1794
583.3625, 339.5047
583.8447, 333.7865
584.3268, 328.6276
584.8089, 323.6336
585.2910, 317.2299
585.7731, 309.9473
586.2552, 307.6715
586.7374, 317.0373
587.2195, 325.1236
587.7016, 319.3839
588.1837, 309.3132
588.6658, 315.4188
589.1479, 342.8255
589.6301, 371.6472
590.1122, 375.3070
590.5943, 349.5986
591.0764, 339.3234
591.5585, 368.5488
592.0406, 384.9927
592.5228, 363.6017
593.0049, 328.9243
593.4870, 309.5282
593.9691, 312.6990
594.4512, 326.6612
594.9333, 345.8246
595.4155, 367.3463
595.8976, 376.9883
596.3797, 371.6412
596.8618, 364.9287
597.3439, 365.3505
597.8260, 369.5271
598.3082, 368.7601
598.7903, 360.4330
599.2724, 353.8022
599.7545, 350.3541
600.2366, 350.9788
600.7188, 360.2202
601.2009, 375.9536
601.6830, 387.2289
602.1651, 386.4549
602.6472, 376.2336
603.1293, 365.8696
603.6115, 354.1763
604.0936, 344.6073
604.5757, 335.4273
605.0578, 329.8681
605.5399, 331.8387
606.0220, 339.4276
606.5042, 346.9980
606.9863, 352.4930
607.4684, 354.6218
607.9505, 349.3573
608.4326, 336.9350
608.9147, 327.1237
609.3969, 322.2132
609.8790, 321.1416
610.3611, 322.8753
610.8432, 327.3929
611.3253, 335.7111
611.8074, 357.8681
612.2896, 373.4951
612.7717, 370.0611
613.2538, 353.3524
613.7359, 328.1229
614.2180, 297.4002
614.7001, 275.9666
615.1823, 284.8539
615.6644, 326.5185
616.1465, 346.4911
616.6286, 323.5951
617.1107, 307.8070
617.5928, 319.7006
618.0750, 339.9737
618.5571, 348.2888
619.0392, 340.9604
619.5213, 329.7601
620.0034, 320.5112
620.4855, 314.4833
620.9677, 316.3235
621.4498, 326.4922
621.9319, 335.7620
622.4140, 339.9272
622.8961, 340.0928
623.3782, 337.7650
623.8604, 331.3448
624.3425, 327.7766
624.8246, 331.3549
625.3067, 334.9256
625.7888, 331.4364
626.2709, 324.0596
626.7531, 322.0881
627.2352, 330.2451
627.7173, 341.7461
628.1994, 343.1818
628.6815, 332.0886
629.1636, 324.7774
629.6458, 325.3157
630.1279, 325.6063
630.6100, 320.0475
631.0921, 311.8841
631.5742, 307.1699
632.0563, 308.2897
632.5385, 310.3454
633.0206, 310.4319
633.5027, 308.8018
633.9848, 303.6901
634.4669, 295.1412
634.9490, 292.8330
635.4312, 305.8418
635.9133, 329.5261
636.3954, 341.9344
636.8775, 329.0484
637.3596, 323.4160
637.8417, 332.6581
638.3239, 344.0592
638.8060, 349.2205
639.2881, 348.2141
639.7702, 343.9195
640.2523, 336.6083
640.7344, 330.7431
641.2166, 338.6639
641.6987, 361.4347
642.1808, 373.1895
642.6629, 364.6728
643.1450, 350.8516
643.6271, 347.1153
644.1093, 349.7318
644.5914, 344.3862
645.0735, 317.4200
645.5556, 295.5766
646.0377, 296.9102
646.5198, 308.6679
647.0020, 310.6413
647.4841, 300.2538
647.9662, 292.5834
648.4483, 302.8500
648.9304, 326.8102
649.4125, 333.3752
649.8947, 311.0760
650.3768, 292.7266
650.8589, 285.0449
651.3410, 282.2176
651.8231, 279.4303
652.3052, 277.4601
652.7874, 281.8326
653.2695, 301.2288
653.7516, 322.6695
654.2337, 327.1653
654.7158, 318.6198
655.1979, 316.4481
655.6801, 327.2346
656.1622, 339.4581
656.6443, 340.3114
657.1264, 329.1810
657.6085, 318.1520
658.0906, 302.5197
658.5728, 292.8045
659.0549, 297.8705
659.5370, 306.1685
660.0191, 303.8971
660.5012, 290.4464
660.9833, 277.5563
661.4655, 274.5587
661.9476, 279.5471
662.4297, 287.5983
662.9118, 299.1136
663.3939, 310.7985
663.8760, 323.4598
664.3582, 333.6156
664.8403, 336.8721
665.3224, 333.7111
665.8045, 326.6884
666.2866, 309.5478
666.7687, 295.5955
667.2509, 295.2928
667.7330, 302.1822
668.2151, 307.0367
668.6972, 306.8365
669.1793, 300.4299
669.6614, 284.3427
670.1436, 260.0702
670.6257, 250.1820
671.1078, 263.1461
671.5899, 272.9198
672.0720, 265.5275
672.5541, 256.9689
673.0363, 262.0947
673.5184, 280.2119
674.0005, 295.6828
674.4826, 302.2654
674.9647, 302.9608
675.4468, 294.8723
675.9290, 283.2057
676.4111, 288.8312
676.8932, 318.7347
677.3753, 345.0490
677.8574, 331.8986
678.3395, 277.0063
678.8217, 241.7775
679.3038, 237.2047
679.7859, 239.3446
680.2680, 247.1299
680.7501, 257.9403
681.2322, 273.2928
681.7144, 290.9909
682.1965, 300.4442
682.6786, 289.3509
683.1607, 269.4378
683.6428, 260.0764
684.1249, 260.2200
684.6071, 261.5748
685.0892, 261.9905
685.5713, 261.4982
686.0534, 260.1943
686.5355, 258.0989
687.0176, 254.5608
687.4998, 247.4850
687.9819, 241.7434
688.4640, 239.4896
688.9461, 238.5736
689.4282, 236.5755
689.9103, 233.3924
690.3925, 230.4449
690.8746, 227.2797
691.3567, 226.5777
691.8388, 239.9550
692.3209, 268.5438
692.8030, 279.8720
693.2852, 258.4589
693.7673, 230.1892
694.2494, 223.0797
694.7315, 235.5437
695.2136, 240.7106
695.6957, 231.2615
696.1779, 222.0761
696.6600, 216.2477
697.1421, 214.5002
697.6242, 218.7497
698.1063, 228.3143
698.5884, 239.6810
699.0706, 250.7309
699.5527, 260.6988
700.0348, 267.6866
700.5169, 271.7775
700.9990, 271.8628
701.4811, 265.8905
701.9633, 258.4355
702.4454, 252.4813
702.9275, 248.0973
703.4096, 245.7449
703.8917, 245.8155
704.3738, 247.4736
704.8560, 255.1202
705.3381, 261.4664
705.8202, 253.1959
706.3023, 232.7464
706.7844, 219.0952
707.2665, 226.2584
707.7487, 245.5262
708.2308, 251.4689
708.7129, 239.6482
709.1950, 236.4117
709.6771, 255.8396
710.1592, 269.6780
710.6414, 250.0072
711.1235, 213.4379
711.6056, 196.6756
712.0877, 213.1793
712.5698, 232.2802
713.0519, 237.8679
713.5341, 238.7126
714.0162, 246.2928
714.4983, 259.8478
714.9804, 272.1226
715.4625, 279.4447
715.9446, 279.8107
716.4268, 266.1471
716.9089, 232.5700
717.3910, 211.5107
717.8731, 209.7549
718.3552, 212.5662
718.8373, 213.2966
719.3195, 213.9038
719.8016, 218.9038
720.2837, 230.7118
720.7658, 236.3968
721.2479, 221.4235
721.7300, 203.1626
722.2122, 201.5393
722.6943, 214.0511
723.1764, 229.5841
723.6585, 243.4418
724.1406, 251.8245
724.6227, 246.4073
725.1049, 224.2910
725.5870, 216.8899
726.0691, 237.0924
726.5512, 251.1142
727.0333, 245.2082
727.5154, 229.2397
727.9976, 205.9456
728.4797, 176.6599
728.9618, 166.3218
729.4439, 207.7949
729.9260, 253.5291
730.4081, 255.0065
730.8903, 227.0505
731.3724, 206.7656
731.8545, 204.9230
732.3366, 208.9556
732.8187, 204.4823
733.3008, 193.2526
733.7830, 198.4358
734.2651, 233.2423
734.7472, 255.8581
735.2293, 247.0946
735.7114, 231.0209
736.1935, 223.3831
736.6757, 223.2813
737.1578, 223.6506
737.6399, 224.8290
738.1220, 222.6189
738.6041, 210.1530
739.0862, 194.1123
739.5684, 184.9640
740.0505, 184.1731
740.5326, 189.0343
741.0147, 198.6770
741.4968, 209.4815
741.9789, 208.7338
742.4611, 191.2991
742.9432, 181.2667
743.4253, 182.4460
743.9074, 189.6804
744.3895, 205.5206
744.8716, 223.6523
745.3538, 231.8689
745.8359, 226.4941
746.3180, 217.0905
746.8001, 208.2489
747.2822, 197.3262
747.7643, 174.2079
748.2465, 146.1364
748.7286, 137.7537
749.2107, 160.3554
749.6928, 193.5932
750.1749, 205.4293
750.6570, 194.4543
751.1392, 193.4815
751.6213, 209.0695
752.1034, 219.4766
752.5855, 212.9792
753.0676, 198.9586
753.5497, 187.3607
754.0319, 178.2779
754.5140, 174.4368
754.9961, 179.4371
755.4782, 186.7810
755.9603, 196.3021
756.4424, 204.0673
756.9246, 203.1342
757.4067, 192.9395
757.8888, 179.9856
758.3709, 168.5396
758.8530, 159.9706
759.3351, 159.1104
759.8173, 166.2999
760.2994, 179.7108
760.7815, 205.1861
761.2636, 225.4207
761.7457, 221.8396
762.2278, 199.5361
762.7100, 184.6824
763.1921, 186.5700
763.6742, 182.3397
764.1563, 155.1906
764.6384, 129.3983
765.1205, 128.2097
765.6027, 145.6958
766.0848, 161.8679
766.5669, 167.5307
767.0490, 168.1997
767.5311, 170.8150
768.0132, 174.8160
768.4954, 176.0476
768.9775, 173.5962
769.4596, 175.0634
769.9417, 186.4948
770.4238, 200.4468
770.9059, 203.5553
771.3881, 192.8041
771.8702, 182.6716
772.3523, 172.7471
772.8344, 163.8468
773.3165, 155.4710
773.7986, 148.7739
774.2808, 145.2099
774.7629, 144.8225
775.2450, 146.0566
775.7271, 147.1000
776.2092, 149.9602
776.6913, 160.7315
777.1735, 176.4778
777.6556, 183.6103
778.1377, 178.7785
778.6198, 171.8992
779.1019, 171.3538
779.5840, 175.9555
780.0662, 179.6528
780.5483, 181.5439
781.0304, 184.2523
781.5125, 191.5828
781.9946, 196.0479
782.4767, 191.3781
782.9589, 181.8746
783.4410, 176.6985
783.9231, 179.4124
784.4052, 179.5120
784.8873, 167.8372
785.3694, 151.9902
785.8516, 138.2979
786.3337, 128.8321
786.8158, 129.5804
787.2979, 142.7937
787.7800, 159.5651
788.2621, 168.9482
788.7443, 170.9599
789.2264, 166.3665
789.7085, 150.0888
790.1906, 141.6629
790.6727, 151.3282
791.1548, 166.7574
791.6370, 176.1411
792.1191, 180.1968
792.6012, 183.4379
793.0833, 188.8580
793.5654, 190.6917
794.0475, 183.4213
794.5297, 173.8155
795.0118, 168.7399
795.4939, 168.1449
795.9760, 168.5019
796.4581, 167.9313
796.9402, 166.9596
797.4224, 165.5925
797.9045, 164.2600
798.3866, 168.0060
798.8687, 178.4875
799.3508, 181.5106
799.8329, 166.8926
800.3151, 145.1089
800.7972, 135.5887
801.2793, 140.8767
801.7614, 148.5787
802.2435, 166.3729
802.7256, 177.0007
803.2078, 170.2799
803.6899, 157.2950
804.1720, 148.1764
804.6541, 144.5419
805.1362, 144.7927
805.6183, 151.3250
806.1005, 157.5798
806.5826, 153.9675
807.0647, 145.4253
807.5468, 144.1167
808.0289, 151.5025
808.5110, 159.5599
808.9932, 162.6575
809.4753, 162.4093
809.9574, 163.8597
810.4395, 168.7494
810.9216, 166.9113
811.4037, 153.4117
811.8859, 140.5703
812.3680, 135.9138
812.8501, 134.9887
813.3322, 129.0903
813.8143, 115.5946
814.2964, 114.1926
814.7786, 143.8266
815.2607, 171.4044
815.7428, 174.8147
816.2249, 165.3871
816.7070, 161.7788
817.1891, 165.9134
817.6713, 162.9820
818.1534, 137.6783
818.6355, 104.5989
819.1176, 90.36397
819.5997, 94.18143
820.0818, 115.3349
820.5640, 156.6605
821.0461, 187.7066
821.5282, 184.0091
822.0103, 157.6647
822.4924, 145.7201
822.9745, 156.2955
823.4567, 163.0350
823.9388, 164.9010
824.4209, 164.1881
824.9030, 158.4692
825.3851, 152.2953
825.8672, 153.1456
826.3494, 161.8038
826.8315, 166.7096
827.3136, 154.7931
827.7957, 144.2041
828.2778, 156.6665
828.7599, 179.4145
829.2421, 187.3283
829.7242, 177.0178
830.2063, 163.8383
830.6884, 159.3293
831.1705, 160.2497
831.6526, 159.0471
832.1348, 155.7219
832.6169, 148.9497
833.0990, 135.3024
833.5811, 129.8695
834.0632, 147.0595
834.5453, 174.1736
835.0275, 182.1158
835.5096, 161.1655
835.9917, 149.7789
836.4738, 155.6722
836.9559, 162.2577
837.4380, 166.1968
837.9202, 165.9306
838.4023, 157.9944
838.8844, 143.4503
839.3665, 130.3005
839.8486, 118.8620
840.3307, 115.6136
840.8129, 135.1027
841.2950, 165.1079
841.7771, 180.9643
842.2592, 179.8801
842.7413, 170.9421
843.2234, 159.0833
843.7056, 147.8667
844.1877, 147.0282
844.6698, 158.2195
845.1519, 156.8971
845.6340, 134.9104
846.1161, 122.4009
846.5983, 138.1669
847.0804, 164.0846
847.5625, 174.5931
848.0446, 168.8619
848.5267, 163.1365
849.0089, 156.6755
849.4910, 152.0800
849.9731, 153.5149
850.4552, 154.4429
850.9373, 145.5520
851.4194, 130.6430
851.9016, 123.6418
852.3837, 132.1727
852.8658, 144.3215
853.3479, 151.8134
853.8300, 154.3700
854.3121, 150.4985
854.7943, 140.9581
855.2764, 126.9294
855.7585, 108.8670
856.2406, 95.55673
856.7227, 100.2057
857.2048, 121.1191
857.6870, 136.1337
858.1691, 143.5965
858.6512, 151.9674
859.1333, 166.3774
859.6154, 177.4045
860.0975, 175.4355
860.5797, 162.4936
861.0618, 150.5729
861.5439, 137.3253
862.0260, 128.9814
862.5081, 129.2550
862.9902, 131.4739
863.4724, 131.2144
863.9545, 130.3642
864.4366, 134.3728
864.9187, 144.2521
865.4008, 149.0760
865.8829, 132.1677
866.3651, 114.0281
866.8472, 124.0236
867.3293, 150.6711
867.8114, 165.4682
868.2935, 162.8524
868.7756, 155.6149
869.2578, 153.6647
869.7399, 153.2616
870.2220, 141.7741
870.7041, 118.0706
871.1862, 109.9865
871.6683, 123.3725
872.1505, 140.2684
872.6326, 154.9194
873.1147, 163.7922
873.5968, 159.0549
874.0789, 136.6235
874.5610, 122.7347
875.0432, 119.4676
875.5253, 121.6350
876.0074, 132.5722
876.4895, 144.8962
876.9716, 153.9465
877.4537, 158.9107
877.9359, 159.1025
878.4180, 152.8177
878.9001, 145.4050
879.3822, 141.5169
879.8643, 137.2355
880.3464, 121.9652
880.8286, 102.8453
881.3107, 102.5265
881.7928, 127.9413
882.2749, 156.6850
882.7570, 164.0139
883.2391, 155.9785
883.7213, 150.6728
884.2034, 147.9780
884.6855, 145.6922
885.1676, 143.1078
885.6497, 143.1172
886.1318, 149.5872
886.6140, 158.5595
887.0961, 155.0383
887.5782, 128.6867
888.0603, 116.9886
888.5424, 132.6429
889.0245, 145.7009
889.5067, 139.7340
889.9888, 127.5634
890.4709, 124.0081
890.9530, 129.6201
891.4351, 135.4720
891.9172, 142.6111
892.3994, 146.0871
892.8815, 141.6650
893.3636, 134.3293
893.8457, 128.5404
894.3278, 124.3742
894.8099, 119.5993
895.2921, 112.9427
895.7742, 108.2803
896.2563, 107.5441
896.7384, 112.1470
897.2205, 132.4768
897.7026, 161.4342
898.1848, 167.5042
898.6669, 141.8922
899.1490, 111.7377
899.6311, 103.8783
900.1132, 91.43230
900.5953, 85.64236
901.0775, 94.20422
901.5596, 93.66445
902.0417, 116.0879
902.5238, 138.2677
903.0059, 146.2797
903.4880, 145.4640
903.9702, 147.1099
904.4523, 153.3885
904.9344, 153.2860
905.4165, 137.4910
905.8986, 127.3966
906.3807, 128.3204
906.8629, 136.3176
907.3450, 155.7083
907.8271, 180.1132
908.3092, 185.0460
908.7913, 154.3390
909.2734, 124.1148
909.7556, 107.1879
910.2377, 100.4266
910.7198, 105.6068
911.2019, 117.3565
911.6840, 127.7763
912.1661, 133.9575
912.6483, 134.1125
913.1304, 122.2563
913.6125, 107.4560
914.0946, 106.7758
914.5767, 115.7031
915.0588, 118.6881
915.5410, 113.7533
916.0231, 110.6831
916.5052, 115.8703
916.9873, 125.3219
917.4694, 133.2904
917.9515, 140.0944
918.4337, 133.2713
918.9158, 107.9556
919.3979, 91.88629
919.8800, 97.35416
920.3621, 110.0092
920.8442, 115.0989
921.3264, 113.4280
921.8085, 113.3876
922.2906, 117.8719
922.7727, 119.2210
923.2548, 115.1092
923.7369, 110.1147
924.2191, 103.8139
924.7012, 99.14251
925.1833, 101.3162
925.6654, 111.1707
926.1475, 120.6956
926.6296, 126.5927
927.1118, 132.6519
927.5939, 144.0569
928.0760, 154.3772
928.5581, 154.8161
929.0402, 147.3683
929.5223, 141.6625
930.0045, 142.4368
930.4866, 142.3047
930.9687, 127.7784
931.4508, 112.0922
931.9329, 122.4146
932.4150, 149.9411
932.8972, 163.8778
933.3793, 156.3443
933.8614, 142.3963
934.3435, 134.6742
934.8256, 130.5733
935.3077, 122.5342
935.7899, 111.1664
936.2720, 105.7059
936.7541, 107.4549
937.2362, 112.2744
937.7183, 118.9866
938.2004, 125.0881
938.6826, 126.7749
939.1647, 123.9806
939.6468, 119.5504
940.1289, 113.1115
940.6110, 105.7695
941.0931, 95.46367
941.5753, 87.27390
942.0574, 83.16536
942.5395, 84.21924
943.0216, 95.13828
943.5037, 124.0351
943.9858, 137.8699
944.4680, 120.1148
944.9501, 103.8398
945.4322, 101.2447
945.9143, 106.2171
946.3964, 115.8487
946.8785, 127.1794
947.3607, 130.7836
947.8428, 119.9308
948.3249, 108.7709
948.8070, 104.7297
949.2891, 104.0376
949.7712, 103.0560
950.2534, 102.6763
950.7355, 104.8626
951.2176, 110.2846
951.6997, 119.7125
952.1818, 137.6189
952.6639, 154.7409
953.1461, 157.9982
953.6282, 150.6488
954.1103, 135.8051
954.5924, 116.8420
955.0745, 108.8394
955.5566, 119.4682
956.0388, 133.5429
956.5209, 126.1303
957.0030, 138.4618
957.4851, 147.9574
957.9672, 144.1695
958.4493, 163.1204
958.9315, 156.6145
959.4136, 144.6742
959.8957, 142.3543
960.3778, 144.2648
960.8599, 133.8535
961.3420, 104.6846
961.8242, 98.62342
962.3063, 127.5204
962.7884, 150.2769
963.2705, 151.3698
963.7526, 143.9308
964.2347, 139.8157
964.7169, 138.6608
965.1990, 137.7557
965.6811, 142.0461
966.1632, 138.8642
966.6453, 121.0136
967.1274, 103.9496
967.6096, 89.81490
968.0917, 82.58076
968.5738, 90.69357
969.0559, 113.3992
969.5380, 129.9933
970.0201, 133.7206
970.5023, 133.0895
970.9844, 128.2533
971.4665, 122.8721
971.9486, 119.1100
972.4307, 117.3141
972.9128, 118.8096
973.3950, 123.7580
973.8771, 125.5045
974.3592, 115.9609
974.8413, 105.6993
975.3234, 100.5353
975.8055, 102.5266
976.2877, 121.9193
976.7698, 151.9272
977.2519, 166.6198
977.7340, 153.4907
978.2161, 133.3047
978.6982, 128.0751
979.1804, 131.3915
979.6625, 131.8936
980.1446, 130.1722
980.6267, 129.5023
981.1088, 130.3485
981.5909, 129.4137
982.0731, 123.9410
982.5552, 118.3678
983.0373, 123.1306
983.5194, 136.0070
984.0015, 140.5583
984.4836, 136.3040
984.9658, 128.2027
985.4479, 117.2718
985.9300, 108.1353
986.4121, 105.7470
986.8942, 96.80820
987.3763, 102.4982
987.8585, 88.59798
988.3406, 82.61816
988.8227, 85.83716
989.3048, 96.43457
989.7869, 117.3242
990.2690, 138.3925
990.7512, 146.2784
991.2333, 142.4127
991.7154, 145.7045
992.1975, 168.7675
992.6796, 171.1304
993.1617, 129.6172
993.6439, 95.56617
994.1260, 100.4660
994.6081, 122.4309
995.0902, 130.3426
995.5723, 123.7220
996.0544, 118.1569
996.5366, 111.3071
997.0187, 109.7148
997.5008, 120.6477
997.9829, 130.7931
998.4650, 130.7513
998.9471, 124.9396
999.4293, 119.3703
999.9114, 114.4667
1000.393, 118.2488
1000.876, 146.4221
1001.358, 166.5061
1001.840, 158.5042
1002.322, 141.9016
1002.804, 131.5380
1003.286, 127.7384
1003.768, 127.4988
1004.250, 130.2209
1004.733, 132.5134
1005.215, 132.4664
1005.697, 131.4176
1006.179, 127.5455
1006.661, 125.0645
1007.143, 132.4645
1007.625, 146.4140
1008.107, 154.4828
1008.589, 151.2478
1009.072, 144.2426
1009.554, 138.3369
1010.036, 133.3325
1010.518, 129.3006
1011.000, 125.8696
1011.482, 120.6174
1011.964, 114.6772
1012.446, 114.7612
1012.929, 124.9709
1013.411, 138.3994
1013.893, 149.3611
1014.375, 156.3215
1014.857, 152.7913
1015.339, 142.4925
1015.821, 140.1404
1016.303, 147.7369
1016.785, 152.0019
1017.268, 143.4930
1017.750, 129.3023
1018.232, 118.5959
1018.714, 112.1902
1019.196, 116.1168
1019.678, 128.9701
1020.160, 137.2497
1020.642, 137.2696
1021.125, 134.4219
1021.607, 132.8358
1022.089, 132.0334
1022.571, 131.3047
1023.053, 130.5556
1023.535, 125.9006
1024.017, 116.6946
1024.499, 119.2249
1024.981, 140.6143
1025.464, 159.9228
1025.946, 157.0433
1026.428, 139.4192
1026.910, 130.5874
1027.392, 131.5832
1027.874, 131.1128
1028.356, 128.0783
1028.838, 127.3737
1029.321, 131.2789
1029.803, 136.6028
1030.285, 141.0306
1030.767, 143.7774
1031.249, 140.6365
1031.731, 129.0733
1032.213, 121.5349
1032.695, 119.8004
1033.177, 117.9461
1033.660, 111.7452
1034.142, 108.1781
1034.624, 115.9151
1035.106, 132.7447
1035.588, 144.8234
1036.070, 152.6720
1036.552, 154.1848
1037.034, 145.7612
1037.516, 136.9583
1037.999, 129.2054
1038.481, 125.0476
1038.963, 129.9926
1039.445, 142.0003
1039.927, 145.0855
1040.409, 132.1234
1040.891, 122.7972
1041.373, 117.7197
1041.855, 115.6556
1042.338, 116.0162
1042.820, 119.3221
1043.302, 129.0519
1043.784, 143.4937
1044.266, 149.6911
1044.748, 139.4484
1045.230, 134.1168
1045.712, 142.9120
1046.195, 147.0235
1046.677, 130.8320
1047.159, 112.0316
1047.641, 111.9179
1048.123, 128.2159
1048.605, 140.2836
1049.087, 144.1396
1049.569, 147.0170
1050.052, 146.4601
1050.534, 149.1877
1051.016, 162.1874
1051.498, 177.3249
1051.980, 187.6648
1052.462, 191.9841
1052.944, 187.4152
1053.426, 167.5595
1053.908, 150.8173
1054.391, 143.9687
1054.873, 138.1908
1055.355, 124.9779
1055.837, 113.2050
1056.319, 116.4589
1056.801, 131.7785
1057.283, 139.9310
1057.765, 132.6102
1058.248, 126.9482
1058.730, 126.3902
1059.212, 130.5499
1059.694, 143.5309
1060.176, 158.0940
1060.658, 169.1688
1061.140, 174.4114
1061.622, 166.2592
1062.104, 133.5601
1062.587, 113.6267
1063.069, 133.2337
1063.551, 154.2716
1064.033, 154.0712
1064.515, 143.5153
1064.997, 132.0202
1065.479, 123.1489
1065.961, 123.4379
1066.443, 137.3658
1066.926, 151.1545
1067.408, 163.5686
1067.890, 169.2209
1068.372, 157.3068
1068.854, 142.3913
1069.336, 143.9314
1069.818, 157.6959
1070.300, 163.8020
1070.782, 155.2021
1071.265, 145.5016
1071.747, 139.6775
1072.229, 135.6890
1072.711, 131.5299
1073.193, 129.1226
1073.675, 132.2294
1074.157, 138.8410
1074.639, 143.1417
1075.122, 143.4206
1075.604, 142.0746
1076.086, 133.9299
1076.568, 131.9164
1077.050, 152.8275
1077.532, 176.3428
1078.014, 180.5443
1078.496, 169.2831
1078.979, 154.6355
1079.461, 139.0152
1079.943, 133.7857
1080.425, 155.4557
1080.907, 175.1207
1081.389, 176.7260
1081.871, 168.8908
1082.353, 154.0761
1082.835, 138.4979
1083.318, 134.9290
1083.800, 145.9964
1084.282, 152.8692
1084.764, 139.2051
1085.246, 129.9429
1085.728, 144.0682
1086.210, 161.8931
1086.692, 167.9590
1087.175, 164.2936
1087.657, 154.8998
1088.139, 141.3242
1088.621, 131.0343
1089.103, 125.3568
1089.585, 125.8536
1090.067, 140.1208
1090.549, 153.9631
1091.031, 154.9489
1091.514, 148.9793
1091.996, 145.2888
1092.478, 145.1335
1092.960, 145.3827
1093.442, 143.0068
1093.924, 144.5865
1094.406, 158.6583
1094.888, 170.9205
1095.370, 173.0781
1095.853, 167.2348
1096.335, 152.9200
1096.817, 133.1459
1097.299, 120.3239
1097.781, 119.6622
1098.263, 121.1074
1098.745, 117.3371
1099.227, 119.7729
1099.709, 147.2290
1100.192, 174.1640
1100.674, 165.1034
1101.156, 131.4383
1101.638, 119.5346
1102.120, 146.1237
1102.602, 163.8708
1103.084, 154.7124
1103.566, 143.0940
1104.049, 135.8473
1104.531, 132.6464
1105.013, 135.5510
1105.495, 141.3611
1105.977, 141.9415
1106.459, 134.8844
1106.941, 132.6137
1107.423, 142.0401
1107.906, 149.7240
1108.388, 152.2004
1108.870, 151.7411
1109.352, 149.0876
1109.834, 144.8487
1110.316, 139.1327
1110.798, 131.7293
1111.280, 127.5431
1111.762, 129.0531
1112.245, 130.6060
1112.727, 132.5093
1113.209, 133.1719
1113.691, 126.7429
1114.173, 121.8427
1114.655, 134.8882
1115.137, 163.4015
1115.619, 173.3006
1116.102, 147.6914
1116.584, 133.4127
1117.066, 137.6020
1117.548, 143.3472
1118.030, 142.7532
1118.512, 143.8704
1118.994, 158.0970
1119.476, 179.9687
1119.958, 186.8575
1120.441, 173.6742
1120.923, 161.5490
1121.405, 150.5640
1121.887, 140.2215
1122.369, 128.4905
1122.851, 121.1620
1123.333, 123.7739
1123.815, 132.5343
1124.297, 139.2235
1124.780, 143.6907
1125.262, 148.7492
1125.744, 156.9086
1126.226, 153.5823
1126.708, 129.9159
1127.190, 117.5601
1127.672, 138.3902
1128.154, 168.4763
1128.636, 171.4739
1129.119, 151.5149
1129.601, 143.6066
1130.083, 148.6988
1130.565, 156.1027
1131.047, 165.4733
1131.529, 170.2947
1132.011, 167.7552
1132.493, 160.3362
1132.976, 149.0777
1133.458, 137.9453
1133.940, 140.4105
1134.422, 155.1134
1134.904, 166.5222
1135.386, 173.6367
1135.868, 167.8770
1136.350, 147.4092
1136.833, 136.8318
1137.315, 155.0718
1137.797, 182.9130
1138.279, 186.4878
1138.761, 173.1134
1139.243, 168.6086
1139.725, 170.4209
1140.207, 164.8801
1140.689, 151.5216
1141.172, 143.2135
1141.654, 146.0245
1142.136, 154.2845
1142.618, 164.5755
1143.100, 173.5079
1143.582, 174.1717
1144.064, 169.5717
1144.546, 165.7459
1145.029, 162.6983
1145.511, 156.4121
1145.993, 146.7894
1146.475, 143.0918
1146.957, 154.8067
1147.439, 166.6433
1147.921, 160.5656
1148.403, 148.5691
1148.885, 143.0990
1149.368, 143.5929
1149.850, 150.0182
1150.332, 159.8073
1150.814, 165.1626
1151.296, 162.5728
1151.778, 156.9324
1152.260, 146.3752
1152.742, 139.3482
1153.224, 144.7590
1153.707, 154.0644
1154.189, 158.5605
1154.671, 159.1134
1155.153, 158.9929
1155.635, 158.8246
1156.117, 161.9555
1156.599, 176.4076
1157.081, 184.3763
1157.563, 175.9844
1158.046, 164.2173
1158.528, 153.2536
1159.010, 146.1840
1159.492, 150.0867
1159.974, 162.8380
1160.456, 165.3098
1160.938, 145.7004
1161.420, 135.7985
1161.903, 144.2404
1162.385, 151.9911
1162.867, 154.9555
1163.349, 154.1259
1163.831, 148.6703
1164.313, 140.7784
1164.795, 134.8313
1165.277, 129.7245
1165.760, 138.7446
1166.242, 173.6194
1166.724, 180.9180
1167.206, 140.2148
1167.688, 112.4878
1168.170, 133.3905
1168.652, 170.1990
1169.134, 181.0278
1169.616, 171.2791
1170.099, 166.5051
1170.581, 166.8186
1171.063, 158.2533
1171.545, 139.8082
1172.027, 135.3438
1172.509, 152.3278
1172.991, 169.0556
1173.473, 168.7137
1173.956, 160.2741
1174.438, 159.5603
1174.920, 163.3327
1175.402, 160.4901
1175.884, 152.7208
1176.366, 145.4731
1176.848, 140.0807
1177.330, 138.5434
1177.813, 141.4967
1178.295, 144.0967
1178.777, 142.7529
1179.259, 137.7380
1179.741, 120.3346
1180.223, 105.9825
1180.705, 127.2566
1181.187, 166.0840
1181.669, 179.2507
1182.151, 163.1437
1182.634, 149.5107
1183.116, 152.9694
1183.598, 160.0305
1184.080, 166.2673
1184.562, 169.4685
1185.044, 166.1820
1185.526, 160.7450
1186.008, 155.0855
1186.490, 151.7008
1186.973, 158.9117
1187.455, 179.4505
1187.937, 183.7623
1188.419, 147.2219
1188.901, 122.1352
1189.383, 122.5729
1189.865, 131.9703
1190.347, 150.1272
1190.830, 166.6417
1191.312, 168.2657
1191.794, 158.4401
1192.276, 154.7211
1192.758, 160.8565
1193.240, 158.8503
1193.722, 142.0052
1194.204, 138.8298
1194.687, 160.7748
1195.169, 181.8357
1195.651, 185.6830
1196.133, 178.9817
1196.615, 171.5802
1197.097, 163.6151
1197.579, 154.8621
1198.061, 145.5524
1198.543, 140.6521
1199.026, 140.6499
1199.508, 148.1836
1199.990, 163.4375
1200.472, 171.5370
1200.954, 158.6483
1201.436, 141.9375
1201.918, 152.8071
1202.400, 175.4284
1202.883, 176.7317
1203.365, 163.9417
1203.847, 152.7380
1204.329, 146.7701
1204.811, 148.6938
1205.293, 159.0603
1205.775, 167.1741
1206.257, 165.1167
1206.740, 159.0527
1207.222, 148.5404
1207.704, 140.8017
1208.186, 143.3279
1208.668, 152.4907
1209.150, 165.0644
1209.632, 178.7142
1210.114, 186.6466
1210.596, 186.2076
1211.078, 183.7677
1211.561, 181.4043
1212.043, 176.0556
1212.525, 162.6021
1213.007, 150.4399
1213.489, 147.1274
1213.971, 147.5687
1214.453, 143.8336
1214.935, 136.1984
1215.417, 128.6966
1215.900, 118.0299
1216.382, 122.3017
1216.864, 147.3903
1217.346, 165.1174
1217.828, 165.8868
1218.310, 160.8011
1218.792, 157.5116
1219.274, 156.8140
1219.757, 160.5794
1220.239, 168.1115
1220.721, 179.0527
1221.203, 191.0498
1221.685, 189.4309
1222.167, 175.4257
1222.649, 165.8731
1223.131, 166.3711
1223.614, 168.7171
1224.096, 167.1276
1224.578, 163.3784
1225.060, 155.9998
1225.542, 150.6117
1226.024, 156.6422
1226.506, 167.7591
1226.988, 175.4900
1227.470, 178.4317
1227.953, 176.7015
1228.435, 170.2100
1228.917, 162.3249
1229.399, 145.2138
1229.881, 140.1268
1230.363, 169.5713
1230.845, 195.2298
1231.327, 191.6782
1231.810, 174.3682
1232.292, 158.0463
1232.774, 144.4706
1233.256, 140.1763
1233.738, 147.4668
1234.220, 154.7457
1234.702, 163.6771
1235.184, 165.7444
1235.667, 156.3964
1236.149, 152.6285
1236.631, 164.4404
1237.113, 180.4255
1237.595, 187.8560
1238.077, 187.2341
1238.559, 176.5422
1239.041, 159.0737
1239.523, 153.5882
1240.005, 157.9742
1240.488, 157.7617
1240.970, 150.6332
1241.452, 143.3565
1241.934, 139.2173
1242.416, 136.6363
1242.898, 132.1344
1243.380, 130.7675
1243.862, 139.9826
1244.344, 153.0728
1244.827, 163.7922
1245.309, 172.0838
1245.791, 181.3589
1246.273, 189.8443
1246.755, 186.1774
1247.237, 161.0409
1247.719, 146.1575
1248.201, 157.0332
1248.684, 167.2303
1249.166, 172.2977
1249.648, 170.2939
1250.130, 152.7709
1250.612, 135.3477
1251.094, 142.2559
1251.576, 167.9453
1252.058, 175.3210
1252.541, 161.4875
1253.023, 148.0217
1253.505, 134.3793
1253.987, 138.6678
1254.469, 165.6062
1254.951, 183.7007
1255.433, 174.2656
1255.915, 158.0930
1256.397, 161.0679
1256.880, 158.9481
1257.362, 175.1882
1257.844, 172.8766
1258.326, 184.9143
1258.808, 203.0742
1259.290, 203.5514
1259.772, 185.9528
1260.254, 169.2308
1260.737, 160.2323
1261.219, 159.5399
1261.701, 173.7837
1262.183, 187.9098
1262.665, 193.9461
1263.147, 197.9930
1263.629, 210.4457
1264.111, 220.0162
1264.594, 202.2948
1265.076, 209.9803
1265.558, 207.7505
1266.040, 192.8930
1266.522, 201.8547
1267.004, 173.2560
1267.486, 155.1141
1267.968, 157.4215
1268.450, 167.7907
1268.932, 180.8906
1269.415, 193.3744
1269.897, 202.6413
1270.379, 206.0956
1270.861, 190.0100
1271.343, 200.3449
1271.825, 171.8514
1272.307, 198.4413
1272.789, 205.3749
1273.271, 192.0333
1273.754, 188.4930
1274.236, 205.6338
1274.718, 219.2493
1275.200, 209.5849
1275.682, 197.8523
1276.164, 195.7395
1276.646, 197.0153
1277.128, 201.6894
1277.611, 203.7768
1278.093, 192.4447
1278.575, 173.3996
1279.057, 167.2548
1279.539, 176.6248
1280.021, 181.3083
1280.503, 178.1981
1280.985, 180.3329
1281.468, 192.3550
1281.950, 196.0077
1282.432, 183.1472
1282.914, 167.3820
1283.396, 159.1045
1283.878, 158.7904
1284.360, 171.0567
1284.842, 190.3961
1285.324, 201.2354
##END=



