##NAMES=Elbaite
##RRUFFID=R070077
##IDEAL CHEMISTRY=Na(Al_1.5_Li_1.5_)Al_6_(Si_6_O_18_)(BO_3_)_3_(OH)_3_OH
##LOCALITY=Canary mine, Lundazi area of eastern Zambia
##OWNER=RRUFF
##SOURCE=Tommy Wu
##DESCRIPTION=Green crystal fragments
##STATUS=The identification of this mineral has been made only by X-ray diffraction.
##URL=rruff.info/R070077
181.0923, 7288.113
181.5744, 7278.808
182.0565, 7281.452
182.5386, 7286.704
183.0207, 7295.064
183.5028, 7302.566
183.9850, 7301.058
184.4671, 7287.549
184.9492, 7277.880
185.4313, 7287.721
185.9134, 7305.327
186.3955, 7315.910
186.8777, 7311.542
187.3598, 7301.494
187.8419, 7300.070
188.3240, 7309.569
188.8061, 7318.073
189.2882, 7316.179
189.7704, 7310.911
190.2525, 7309.959
190.7346, 7315.387
191.2167, 7326.296
191.6988, 7342.151
192.1809, 7363.635
192.6631, 7387.429
193.1452, 7417.758
193.6273, 7447.592
194.1094, 7468.505
194.5915, 7476.197
195.0736, 7478.275
195.5558, 7487.737
196.0379, 7508.205
196.5200, 7519.348
197.0021, 7490.867
197.4842, 7458.642
197.9663, 7459.982
198.4485, 7511.708
198.9306, 7578.134
199.4127, 7611.506
199.8948, 7605.410
200.3769, 7600.521
200.8590, 7617.189
201.3412, 7638.028
201.8233, 7648.049
202.3054, 7642.699
202.7875, 7633.109
203.2696, 7630.937
203.7517, 7636.167
204.2339, 7648.806
204.7160, 7672.703
205.1981, 7702.283
205.6802, 7738.220
206.1623, 7781.574
206.6444, 7818.053
207.1266, 7825.900
207.6087, 7801.330
208.0908, 7788.313
208.5729, 7800.708
209.0550, 7826.661
209.5371, 7861.882
210.0193, 7905.700
210.5014, 7949.739
210.9835, 7985.492
211.4656, 8012.977
211.9477, 8039.058
212.4298, 8064.635
212.9120, 8089.334
213.3941, 8108.018
213.8762, 8121.792
214.3583, 8145.895
214.8404, 8202.341
215.3225, 8289.451
215.8047, 8357.425
216.2868, 8388.469
216.7689, 8409.291
217.2510, 8438.652
217.7331, 8475.131
218.2152, 8506.157
218.6974, 8513.273
219.1795, 8501.329
219.6616, 8515.469
220.1437, 8578.321
220.6258, 8643.946
221.1079, 8686.340
221.5901, 8708.249
222.0722, 8721.255
222.5543, 8731.895
223.0364, 8739.342
223.5185, 8739.658
224.0006, 8732.523
224.4828, 8717.810
224.9649, 8694.201
225.4470, 8664.070
225.9291, 8632.488
226.4112, 8605.944
226.8933, 8579.520
227.3755, 8536.811
227.8576, 8470.523
228.3397, 8403.748
228.8218, 8342.951
229.3039, 8290.503
229.7860, 8252.024
230.2682, 8235.352
230.7503, 8230.079
231.2324, 8216.301
231.7145, 8191.536
232.1966, 8166.839
232.6787, 8146.956
233.1609, 8130.378
233.6430, 8115.751
234.1251, 8102.772
234.6072, 8091.452
235.0893, 8082.328
235.5714, 8075.740
236.0536, 8068.614
236.5357, 8057.157
237.0178, 8045.726
237.4999, 8039.005
237.9820, 8038.128
238.4641, 8041.127
238.9463, 8048.582
239.4284, 8060.463
239.9105, 8067.235
240.3926, 8061.343
240.8747, 8052.208
241.3568, 8052.175
241.8390, 8063.957
242.3211, 8073.074
242.8032, 8070.308
243.2853, 8056.187
243.7674, 8032.353
244.2495, 7994.027
244.7317, 7952.057
245.2138, 7916.755
245.6959, 7887.904
246.1780, 7866.040
246.6601, 7855.748
247.1422, 7853.010
247.6244, 7845.971
248.1065, 7831.187
248.5886, 7814.891
249.0707, 7801.840
249.5528, 7791.871
250.0349, 7786.007
250.5171, 7790.466
250.9992, 7797.439
251.4813, 7792.946
251.9634, 7773.970
252.4455, 7751.557
252.9276, 7732.385
253.4098, 7716.866
253.8919, 7707.944
254.3740, 7712.602
254.8561, 7720.215
255.3382, 7718.702
255.8203, 7707.682
256.3025, 7696.351
256.7846, 7688.922
257.2667, 7686.580
257.7488, 7691.042
258.2309, 7711.447
258.7130, 7730.844
259.1952, 7735.859
259.6773, 7729.238
260.1594, 7724.903
260.6415, 7732.129
261.1236, 7744.709
261.6057, 7743.801
262.0879, 7719.972
262.5700, 7698.928
263.0521, 7689.718
263.5342, 7690.626
264.0163, 7699.129
264.4984, 7715.296
264.9806, 7735.622
265.4627, 7753.032
265.9448, 7766.208
266.4269, 7780.246
266.9090, 7804.048
267.3911, 7826.089
267.8733, 7829.989
268.3554, 7811.536
268.8375, 7782.379
269.3196, 7754.983
269.8017, 7725.356
270.2838, 7714.704
270.7660, 7740.201
271.2481, 7773.156
271.7302, 7791.144
272.2123, 7792.674
272.6944, 7791.237
273.1765, 7801.135
273.6587, 7825.399
274.1408, 7827.062
274.6229, 7783.171
275.1050, 7742.725
275.5871, 7730.705
276.0692, 7741.172
276.5514, 7754.567
277.0335, 7757.834
277.5156, 7752.469
277.9977, 7751.324
278.4798, 7764.521
278.9619, 7770.274
279.4441, 7753.971
279.9262, 7730.583
280.4083, 7725.039
280.8904, 7749.192
281.3725, 7786.793
281.8546, 7793.473
282.3368, 7733.598
282.8189, 7696.104
283.3010, 7695.440
283.7831, 7711.328
284.2652, 7731.826
284.7473, 7751.968
285.2295, 7766.934
285.7116, 7768.540
286.1937, 7751.733
286.6758, 7735.886
287.1579, 7721.951
287.6400, 7708.255
288.1222, 7689.518
288.6043, 7668.739
289.0864, 7656.643
289.5685, 7664.758
290.0506, 7693.196
290.5327, 7720.166
291.0149, 7756.749
291.4970, 7777.671
291.9791, 7767.333
292.4612, 7736.537
292.9433, 7704.250
293.4254, 7679.010
293.9076, 7661.520
294.3897, 7656.056
294.8718, 7670.820
295.3539, 7679.153
295.8360, 7660.466
296.3181, 7635.980
296.8003, 7630.156
297.2824, 7653.110
297.7645, 7684.554
298.2466, 7697.682
298.7287, 7690.903
299.2108, 7686.508
299.6930, 7694.893
300.1751, 7704.226
300.6572, 7699.534
301.1393, 7679.208
301.6214, 7667.536
302.1036, 7686.525
302.5857, 7728.659
303.0678, 7768.083
303.5499, 7804.758
304.0320, 7829.769
304.5142, 7827.160
304.9963, 7803.029
305.4784, 7785.535
305.9605, 7788.000
306.4426, 7799.979
306.9247, 7808.225
307.4069, 7811.884
307.8890, 7814.835
308.3711, 7819.462
308.8532, 7825.618
309.3353, 7831.989
309.8174, 7837.545
310.2996, 7844.262
310.7817, 7855.215
311.2638, 7868.712
311.7459, 7878.699
312.2280, 7881.837
312.7101, 7880.797
313.1923, 7881.863
313.6744, 7880.891
314.1565, 7888.819
314.6386, 7921.398
315.1207, 7958.494
315.6028, 7971.754
316.0850, 7954.542
316.5671, 7927.323
317.0492, 7916.069
317.5313, 7924.550
318.0134, 7940.151
318.4955, 7971.147
318.9777, 8001.896
319.4598, 8022.472
319.9419, 8033.573
320.4240, 8040.386
320.9061, 8045.781
321.3882, 8050.229
321.8704, 8066.489
322.3525, 8109.550
322.8346, 8148.174
323.3167, 8178.967
323.7988, 8200.942
324.2809, 8210.406
324.7631, 8205.150
325.2452, 8194.045
325.7273, 8197.697
326.2094, 8221.145
326.6915, 8249.260
327.1736, 8289.642
327.6558, 8327.001
328.1379, 8347.500
328.6200, 8350.280
329.1021, 8349.157
329.5842, 8357.958
330.0663, 8376.962
330.5485, 8399.170
331.0306, 8431.695
331.5127, 8458.366
331.9948, 8465.525
332.4769, 8460.206
332.9590, 8461.963
333.4412, 8487.572
333.9233, 8524.267
334.4054, 8542.669
334.8875, 8538.463
335.3696, 8533.202
335.8517, 8543.661
336.3339, 8557.225
336.8160, 8553.400
337.2981, 8519.069
337.7802, 8488.045
338.2623, 8493.542
338.7444, 8527.905
339.2266, 8553.821
339.7087, 8557.883
340.1908, 8552.299
340.6729, 8553.774
341.1550, 8561.921
341.6371, 8574.666
342.1193, 8602.535
342.6014, 8629.307
343.0835, 8629.637
343.5656, 8601.256
344.0477, 8573.024
344.5298, 8570.553
345.0120, 8594.731
345.4941, 8613.512
345.9762, 8620.410
346.4583, 8629.000
346.9404, 8653.927
347.4225, 8684.820
347.9047, 8696.297
348.3868, 8674.027
348.8689, 8631.976
349.3510, 8610.391
349.8331, 8629.052
350.3152, 8642.814
350.7974, 8646.865
351.2795, 8648.130
351.7616, 8652.819
352.2437, 8661.881
352.7258, 8671.519
353.2079, 8676.633
353.6901, 8675.717
354.1722, 8679.928
354.6543, 8694.206
355.1364, 8709.307
355.6185, 8722.613
356.1006, 8734.509
356.5828, 8745.857
357.0649, 8756.956
357.5470, 8768.247
358.0291, 8779.563
358.5112, 8788.026
358.9933, 8804.902
359.4755, 8843.118
359.9576, 8886.702
360.4397, 8920.988
360.9218, 8942.477
361.4039, 8962.083
361.8860, 8990.786
362.3682, 9026.252
362.8503, 9053.856
363.3324, 9064.928
363.8145, 9078.917
364.2966, 9118.683
364.7787, 9179.820
365.2609, 9239.648
365.7430, 9297.511
366.2251, 9348.138
366.7072, 9377.390
367.1893, 9387.728
367.6714, 9409.200
368.1536, 9462.350
368.6357, 9539.514
369.1178, 9609.938
369.5999, 9671.457
370.0820, 9729.417
370.5641, 9781.482
371.0463, 9832.308
371.5284, 9889.000
372.0105, 9953.826
372.4926, 10023.04
372.9747, 10093.81
373.4568, 10175.02
373.9390, 10227.41
374.4211, 10243.85
374.9032, 10243.13
375.3853, 10229.98
375.8674, 10207.75
376.3495, 10182.40
376.8317, 10159.27
377.3138, 10134.67
377.7959, 10089.89
378.2780, 10016.55
378.7601, 9935.831
379.2422, 9847.042
379.7244, 9757.032
380.2065, 9675.218
380.6886, 9603.947
381.1707, 9532.592
381.6528, 9442.336
382.1349, 9334.074
382.6171, 9253.367
383.0992, 9226.737
383.5813, 9202.008
384.0634, 9137.395
384.5455, 9043.255
385.0276, 8954.172
385.5098, 8881.704
385.9919, 8823.317
386.4740, 8779.971
386.9561, 8751.463
387.4382, 8722.118
387.9203, 8683.094
388.4025, 8638.742
388.8846, 8598.763
389.3667, 8558.621
389.8488, 8531.268
390.3309, 8533.450
390.8130, 8546.277
391.2952, 8540.864
391.7773, 8511.140
392.2594, 8474.115
392.7415, 8448.656
393.2236, 8436.828
393.7057, 8424.095
394.1879, 8407.756
394.6700, 8393.406
395.1521, 8382.112
395.6342, 8374.718
396.1163, 8375.139
396.5984, 8386.354
397.0806, 8400.163
397.5627, 8392.795
398.0448, 8349.905
398.5269, 8315.295
399.0090, 8289.401
399.4911, 8275.479
399.9733, 8281.618
400.4554, 8305.328
400.9375, 8330.027
401.4196, 8341.260
401.9017, 8340.628
402.3839, 8336.827
402.8660, 8324.720
403.3481, 8320.483
403.8302, 8343.696
404.3123, 8378.117
404.7944, 8398.354
405.2766, 8395.840
405.7587, 8382.781
406.2408, 8361.874
406.7229, 8337.187
407.2050, 8330.044
407.6871, 8353.026
408.1693, 8381.013
408.6514, 8376.953
409.1335, 8337.670
409.6156, 8296.102
410.0977, 8238.518
410.5798, 8193.517
411.0620, 8194.363
411.5441, 8232.623
412.0262, 8267.537
412.5083, 8273.030
412.9904, 8253.155
413.4725, 8228.462
413.9547, 8185.122
414.4368, 8154.119
414.9189, 8145.696
415.4010, 8145.579
415.8831, 8141.050
416.3652, 8129.399
416.8474, 8115.680
417.3295, 8105.688
417.8116, 8099.711
418.2937, 8091.990
418.7758, 8080.744
419.2579, 8070.114
419.7401, 8063.241
420.2222, 8057.844
420.7043, 8050.073
421.1864, 8038.357
421.6685, 8024.048
422.1506, 8005.917
422.6328, 7984.587
423.1149, 7973.046
423.5970, 7980.286
424.0791, 7991.487
424.5612, 7985.011
425.0433, 7960.648
425.5255, 7943.821
426.0076, 7948.902
426.4897, 7959.299
426.9718, 7959.272
427.4539, 7948.682
427.9360, 7934.072
428.4182, 7918.490
428.9003, 7903.164
429.3824, 7894.031
429.8645, 7892.594
430.3466, 7895.362
430.8287, 7905.515
431.3109, 7917.712
431.7930, 7928.031
432.2751, 7935.270
432.7572, 7938.986
433.2393, 7938.845
433.7214, 7934.847
434.2036, 7925.802
434.6857, 7903.778
435.1678, 7887.396
435.6499, 7883.271
436.1320, 7887.985
436.6141, 7898.657
437.0963, 7915.900
437.5784, 7931.696
438.0605, 7935.996
438.5426, 7929.472
439.0247, 7917.689
439.5068, 7894.751
439.9890, 7878.839
440.4711, 7900.983
440.9532, 7953.736
441.4353, 7982.925
441.9174, 7960.497
442.3995, 7923.190
442.8817, 7892.251
443.3638, 7870.954
443.8459, 7868.572
444.3280, 7891.989
444.8101, 7929.784
445.2922, 7954.833
445.7744, 7953.845
446.2565, 7960.829
446.7386, 7991.700
447.2207, 8018.167
447.7028, 8014.589
448.1849, 7985.348
448.6671, 7955.122
449.1492, 7942.334
449.6313, 7944.686
450.1134, 7951.048
450.5955, 7966.313
451.0776, 7975.593
451.5598, 7969.436
452.0419, 7959.023
452.5240, 7955.231
453.0061, 7959.960
453.4882, 7963.913
453.9703, 7961.147
454.4525, 7952.037
454.9346, 7935.352
455.4167, 7909.030
455.8988, 7885.044
456.3809, 7871.106
456.8630, 7867.210
457.3452, 7869.620
457.8273, 7889.161
458.3094, 7902.324
458.7915, 7892.405
459.2736, 7871.978
459.7557, 7860.001
460.2379, 7861.821
460.7200, 7872.240
461.2021, 7885.380
461.6842, 7901.338
462.1663, 7919.237
462.6484, 7945.922
463.1306, 7966.961
463.6127, 7974.264
464.0948, 7973.951
464.5769, 7975.270
465.0590, 7982.015
465.5411, 7992.727
466.0233, 8007.757
466.5054, 8028.145
466.9875, 8038.757
467.4696, 8027.781
467.9518, 8018.624
468.4339, 8037.341
468.9160, 8074.358
469.3981, 8093.577
469.8802, 8062.990
470.3623, 8024.619
470.8445, 8023.104
471.3266, 8050.494
471.8087, 8071.076
472.2908, 8069.311
472.7729, 8057.744
473.2550, 8058.942
473.7372, 8084.027
474.2193, 8093.516
474.7014, 8070.487
475.1835, 8046.336
475.6656, 8040.785
476.1477, 8050.914
476.6299, 8065.057
477.1120, 8076.791
477.5941, 8086.297
478.0762, 8094.250
478.5583, 8101.046
479.0404, 8105.193
479.5226, 8105.459
480.0047, 8103.674
480.4868, 8102.518
480.9689, 8100.981
481.4510, 8093.502
481.9331, 8070.187
482.4153, 8041.713
482.8974, 8024.603
483.3795, 8018.973
483.8616, 8026.943
484.3437, 8056.221
484.8258, 8093.078
485.3080, 8106.524
485.7901, 8090.145
486.2722, 8075.978
486.7543, 8071.104
487.2364, 8069.735
487.7185, 8063.507
488.2007, 8054.978
488.6828, 8057.330
489.1649, 8080.948
489.6470, 8119.449
490.1291, 8147.393
490.6112, 8162.834
491.0934, 8170.303
491.5755, 8167.226
492.0576, 8159.818
492.5397, 8149.108
493.0218, 8137.087
493.5039, 8131.076
493.9861, 8140.812
494.4682, 8159.152
494.9503, 8165.733
495.4324, 8158.437
495.9145, 8159.513
496.3966, 8184.661
496.8788, 8220.016
497.3609, 8238.784
497.8430, 8236.660
498.3251, 8235.188
498.8072, 8246.052
499.2893, 8256.370
499.7715, 8247.829
500.2536, 8223.861
500.7357, 8208.706
501.2178, 8220.724
501.6999, 8251.143
502.1820, 8261.509
502.6642, 8232.445
503.1463, 8215.229
503.6284, 8223.515
504.1105, 8236.969
504.5926, 8242.860
505.0747, 8239.708
505.5569, 8230.112
506.0390, 8207.100
506.5211, 8182.446
507.0032, 8190.929
507.4853, 8236.699
507.9674, 8277.896
508.4496, 8297.716
508.9317, 8303.525
509.4138, 8308.874
509.8959, 8315.730
510.3780, 8312.617
510.8601, 8287.374
511.3423, 8257.524
511.8244, 8235.438
512.3065, 8223.122
512.7886, 8223.958
513.2707, 8241.633
513.7528, 8267.900
514.2349, 8277.022
514.7170, 8257.595
515.1992, 8242.834
515.6813, 8237.570
516.1634, 8234.419
516.6455, 8226.395
517.1276, 8216.012
517.6097, 8213.882
518.0919, 8234.012
518.5740, 8257.785
519.0561, 8242.651
519.5382, 8188.334
520.0203, 8157.904
520.5024, 8181.133
520.9846, 8223.055
521.4667, 8231.860
521.9488, 8206.101
522.4309, 8192.124
522.9130, 8212.084
523.3951, 8232.003
523.8773, 8224.575
524.3594, 8198.746
524.8415, 8178.677
525.3236, 8175.219
525.8057, 8180.826
526.2878, 8180.866
526.7700, 8170.819
527.2521, 8169.418
527.7342, 8191.123
528.2163, 8207.334
528.6984, 8197.382
529.1805, 8174.807
529.6627, 8168.903
530.1448, 8195.765
530.6269, 8230.532
531.1090, 8245.476
531.5911, 8244.713
532.0732, 8247.122
532.5554, 8257.495
533.0375, 8268.577
533.5196, 8274.566
534.0017, 8275.112
534.4838, 8268.819
534.9659, 8238.433
535.4481, 8221.496
535.9302, 8243.448
536.4123, 8280.544
536.8944, 8301.859
537.3765, 8300.038
537.8586, 8289.690
538.3408, 8287.081
538.8229, 8291.825
539.3050, 8289.248
539.7871, 8273.074
540.2692, 8261.300
540.7513, 8263.949
541.2335, 8273.197
541.7156, 8282.734
542.1977, 8292.633
542.6798, 8295.279
543.1619, 8276.396
543.6440, 8251.933
544.1262, 8251.544
544.6083, 8275.167
545.0904, 8293.995
545.5725, 8290.009
546.0546, 8268.290
546.5367, 8245.536
547.0189, 8212.801
547.5010, 8192.663
547.9831, 8200.764
548.4652, 8208.326
548.9474, 8188.952
549.4295, 8150.945
549.9116, 8126.511
550.3937, 8140.864
550.8759, 8169.657
551.3580, 8159.192
551.8401, 8106.875
552.3222, 8070.289
552.8043, 8069.633
553.2864, 8080.067
553.7686, 8074.920
554.2507, 8056.298
554.7328, 8039.152
555.2149, 8029.008
555.6970, 8017.588
556.1791, 7997.776
556.6613, 7973.919
557.1434, 7952.928
557.6255, 7937.250
558.1076, 7928.185
558.5897, 7929.253
559.0718, 7941.876
559.5540, 7945.053
560.0361, 7933.336
560.5182, 7919.539
561.0003, 7905.203
561.4824, 7892.568
561.9645, 7886.697
562.4467, 7889.573
562.9288, 7886.556
563.4109, 7860.337
563.8930, 7824.057
564.3751, 7803.961
564.8572, 7801.327
565.3394, 7794.979
565.8215, 7768.890
566.3036, 7735.032
566.7857, 7728.885
567.2678, 7786.442
567.7499, 7815.599
568.2321, 7794.696
568.7142, 7764.733
569.1963, 7749.096
569.6784, 7746.609
570.1605, 7748.354
570.6426, 7751.035
571.1248, 7750.432
571.6069, 7732.881
572.0890, 7698.755
572.5711, 7687.784
573.0532, 7718.955
573.5353, 7752.398
574.0175, 7753.376
574.4996, 7725.752
574.9817, 7691.580
575.4638, 7638.793
575.9459, 7595.516
576.4280, 7572.134
576.9102, 7565.667
577.3923, 7581.366
577.8744, 7615.131
578.3565, 7639.629
578.8386, 7626.897
579.3207, 7582.024
579.8029, 7542.966
580.2850, 7503.274
580.7671, 7483.392
581.2492, 7510.615
581.7313, 7545.960
582.2134, 7558.824
582.6956, 7548.087
583.1777, 7530.640
583.6598, 7511.345
584.1419, 7490.584
584.6240, 7463.276
585.1061, 7434.074
585.5883, 7421.113
586.0704, 7432.662
586.5525, 7451.897
587.0346, 7454.046
587.5167, 7436.272
587.9988, 7415.158
588.4810, 7382.129
588.9631, 7355.455
589.4452, 7344.037
589.9273, 7340.249
590.4094, 7335.097
590.8915, 7326.214
591.3737, 7314.862
591.8558, 7302.282
592.3379, 7287.985
592.8200, 7269.951
593.3021, 7248.008
593.7842, 7226.141
594.2664, 7206.367
594.7485, 7188.414
595.2306, 7171.610
595.7127, 7154.579
596.1948, 7141.655
596.6769, 7132.644
597.1591, 7127.925
597.6412, 7130.688
598.1233, 7137.433
598.6054, 7141.646
599.0875, 7140.386
599.5696, 7135.128
600.0518, 7125.918
600.5339, 7113.393
601.0160, 7105.964
601.4981, 7105.737
601.9802, 7107.030
602.4623, 7106.810
602.9445, 7104.927
603.4266, 7101.032
603.9087, 7091.971
604.3908, 7086.213
604.8729, 7090.076
605.3550, 7094.984
605.8372, 7093.352
606.3193, 7085.192
606.8014, 7072.896
607.2835, 7056.688
607.7656, 7042.056
608.2477, 7046.814
608.7299, 7076.204
609.2120, 7083.565
609.6941, 7048.099
610.1762, 7008.706
610.6583, 6995.229
611.1404, 7001.728
611.6226, 7012.506
612.1047, 7032.700
612.5868, 7046.759
613.0689, 7046.240
613.5510, 7036.313
614.0331, 7022.111
614.5153, 7005.273
614.9974, 6986.504
615.4795, 6964.795
615.9616, 6944.048
616.4437, 6943.192
616.9258, 6972.979
617.4080, 6988.756
617.8901, 6971.248
618.3722, 6947.978
618.8543, 6941.961
619.3364, 6948.353
619.8185, 6946.087
620.3007, 6917.964
620.7828, 6892.083
621.2649, 6890.300
621.7470, 6902.523
622.2291, 6913.511
622.7112, 6919.231
623.1934, 6917.934
623.6755, 6906.685
624.1576, 6887.598
624.6397, 6874.840
625.1218, 6867.862
625.6039, 6868.413
626.0861, 6888.833
626.5682, 6907.459
627.0503, 6905.111
627.5324, 6885.826
628.0145, 6873.484
628.4966, 6880.573
628.9788, 6894.487
629.4609, 6911.367
629.9430, 6926.053
630.4251, 6922.839
630.9072, 6899.106
631.3893, 6873.792
631.8715, 6865.532
632.3536, 6873.122
632.8357, 6883.495
633.3178, 6902.677
633.7999, 6913.851
634.2820, 6908.248
634.7642, 6898.473
635.2463, 6892.179
635.7284, 6889.935
636.2105, 6890.896
636.6926, 6902.184
637.1747, 6909.231
637.6569, 6893.990
638.1390, 6864.416
638.6211, 6838.625
639.1032, 6821.450
639.5853, 6810.180
640.0674, 6802.638
640.5496, 6798.661
641.0317, 6796.671
641.5138, 6799.685
641.9959, 6799.457
642.4780, 6791.046
642.9601, 6781.933
643.4423, 6776.502
643.9244, 6775.239
644.4065, 6778.378
644.8886, 6796.716
645.3707, 6808.240
645.8528, 6785.565
646.3350, 6741.238
646.8171, 6703.834
647.2992, 6680.227
647.7813, 6666.200
648.2634, 6657.876
648.7455, 6655.426
649.2277, 6660.934
649.7098, 6677.725
650.1919, 6696.464
650.6740, 6727.101
651.1561, 6749.739
651.6382, 6745.956
652.1204, 6720.706
652.6025, 6697.180
653.0846, 6680.888
653.5667, 6673.359
654.0488, 6681.170
654.5309, 6697.457
655.0131, 6710.202
655.4952, 6716.508
655.9773, 6713.931
656.4594, 6698.550
656.9415, 6674.438
657.4236, 6663.856
657.9058, 6675.900
658.3879, 6680.495
658.8700, 6661.037
659.3521, 6644.272
659.8342, 6654.510
660.3163, 6681.127
660.7985, 6689.430
661.2806, 6659.278
661.7627, 6625.262
662.2448, 6610.557
662.7269, 6606.283
663.2090, 6600.193
663.6912, 6590.188
664.1733, 6577.813
664.6554, 6564.229
665.1375, 6549.061
665.6196, 6529.365
666.1017, 6500.561
666.5839, 6484.462
667.0660, 6488.302
667.5481, 6499.616
668.0302, 6516.895
668.5123, 6534.839
668.9944, 6542.029
669.4766, 6536.259
669.9587, 6520.161
670.4408, 6477.096
670.9229, 6436.211
671.4050, 6436.838
671.8871, 6471.976
672.3693, 6505.926
672.8514, 6519.552
673.3335, 6515.409
673.8156, 6490.932
674.2977, 6442.430
674.7798, 6420.103
675.2620, 6437.429
675.7441, 6458.421
676.2262, 6460.846
676.7083, 6454.648
677.1904, 6461.353
677.6725, 6487.655
678.1547, 6506.258
678.6368, 6507.284
679.1189, 6501.600
679.6010, 6497.797
680.0831, 6493.476
680.5652, 6479.219
681.0474, 6451.809
681.5295, 6426.595
682.0116, 6428.511
682.4937, 6451.693
682.9758, 6454.583
683.4579, 6433.873
683.9401, 6408.690
684.4222, 6381.993
684.9043, 6361.817
685.3864, 6364.989
685.8685, 6400.396
686.3506, 6415.640
686.8328, 6383.158
687.3149, 6360.727
687.7970, 6378.593
688.2791, 6415.019
688.7612, 6446.285
689.2433, 6466.175
689.7255, 6476.349
690.2076, 6475.069
690.6897, 6466.707
691.1718, 6459.586
691.6539, 6453.313
692.1360, 6443.354
692.6182, 6427.373
693.1003, 6413.206
693.5824, 6408.873
694.0645, 6414.217
694.5466, 6423.740
695.0287, 6440.240
695.5109, 6457.056
695.9930, 6471.720
696.4751, 6487.871
696.9572, 6510.302
697.4393, 6536.957
697.9214, 6560.183
698.4036, 6577.361
698.8857, 6589.136
699.3678, 6593.975
699.8499, 6594.189
700.3320, 6594.070
700.8141, 6594.207
701.2963, 6591.574
701.7784, 6582.591
702.2605, 6574.038
702.7426, 6585.375
703.2247, 6620.224
703.7068, 6663.114
704.1890, 6728.054
704.6711, 6780.839
705.1532, 6788.347
705.6353, 6776.017
706.1174, 6790.377
706.5995, 6846.424
707.0817, 6894.051
707.5638, 6900.419
708.0459, 6904.590
708.5280, 6943.780
709.0101, 7006.929
709.4922, 7064.489
709.9744, 7105.084
710.4565, 7137.619
710.9386, 7170.930
711.4207, 7205.323
711.9028, 7241.878
712.3849, 7279.891
712.8671, 7326.661
713.3492, 7389.448
713.8313, 7454.653
714.3134, 7501.615
714.7955, 7525.392
715.2776, 7571.115
715.7598, 7656.851
716.2419, 7740.669
716.7240, 7810.624
717.2061, 7874.003
717.6882, 7938.307
718.1703, 8003.739
718.6525, 8065.421
719.1346, 8121.258
719.6167, 8171.571
720.0988, 8214.605
720.5809, 8252.314
721.0630, 8290.386
721.5452, 8330.070
722.0273, 8369.252
722.5094, 8406.640
722.9915, 8442.365
723.4736, 8479.396
723.9557, 8527.828
724.4379, 8549.092
724.9200, 8527.667
725.4021, 8493.328
725.8842, 8465.614
726.3663, 8434.971
726.8484, 8380.893
727.3306, 8293.110
727.8127, 8211.274
728.2948, 8161.004
728.7769, 8113.370
729.2590, 8047.590
729.7411, 7963.950
730.2233, 7858.964
730.7054, 7733.854
731.1875, 7617.500
731.6696, 7551.288
732.1517, 7522.370
732.6339, 7467.268
733.1160, 7384.831
733.5981, 7287.025
734.0802, 7168.143
734.5623, 7056.308
735.0444, 6988.070
735.5266, 6964.519
736.0087, 6928.954
736.4908, 6867.722
736.9729, 6812.934
737.4550, 6769.831
737.9371, 6734.414
738.4193, 6705.540
738.9014, 6681.298
739.3835, 6658.012
739.8656, 6636.222
740.3477, 6610.240
740.8298, 6563.934
741.3120, 6514.885
741.7941, 6502.138
742.2762, 6522.662
742.7583, 6533.842
743.2404, 6510.911
743.7225, 6473.354
744.2047, 6459.989
744.6868, 6474.864
745.1689, 6474.361
745.6510, 6451.483
746.1331, 6428.490
746.6152, 6408.680
747.0974, 6398.461
747.5795, 6411.481
748.0616, 6450.511
748.5437, 6481.610
749.0258, 6504.567
749.5079, 6515.014
749.9901, 6506.075
750.4722, 6486.747
750.9543, 6461.388
751.4364, 6434.555
751.9185, 6419.956
752.4006, 6430.004
752.8828, 6450.981
753.3649, 6464.528
753.8470, 6473.375
754.3291, 6491.786
754.8112, 6521.149
755.2933, 6533.005
755.7755, 6504.707
756.2576, 6452.655
756.7397, 6424.572
757.2218, 6430.514
757.7039, 6424.213
758.1860, 6390.895
758.6682, 6364.802
759.1503, 6372.075
759.6324, 6392.170
760.1145, 6394.794
760.5966, 6374.611
761.0787, 6362.293
761.5609, 6381.050
762.0430, 6392.617
762.5251, 6367.663
763.0072, 6324.953
763.4893, 6289.068
763.9714, 6266.132
764.4536, 6252.865
764.9357, 6249.720
765.4178, 6251.272
765.8999, 6251.965
766.3820, 6249.801
766.8641, 6232.932
767.3463, 6198.771
767.8284, 6159.019
768.3105, 6119.420
768.7926, 6085.154
769.2747, 6076.527
769.7568, 6109.571
770.2390, 6121.502
770.7211, 6094.700
771.2032, 6067.049
771.6853, 6060.651
772.1674, 6062.409
772.6495, 6052.038
773.1317, 6025.536
773.6138, 6005.130
774.0959, 5999.757
774.5780, 5999.000
775.0601, 5997.652
775.5422, 5996.501
776.0244, 5999.939
776.5065, 6006.820
776.9886, 6006.477
777.4707, 5988.084
777.9528, 5962.112
778.4349, 5946.820
778.9171, 5939.106
779.3992, 5920.710
779.8813, 5888.806
780.3634, 5873.941
780.8455, 5900.908
781.3276, 5951.344
781.8098, 5974.786
782.2919, 5963.750
782.7740, 5950.962
783.2561, 5929.385
783.7382, 5918.471
784.2203, 5938.605
784.7025, 5968.406
785.1846, 5976.411
785.6667, 5959.141
786.1488, 5949.660
786.6309, 5968.226
787.1130, 5979.143
787.5952, 5952.470
788.0773, 5917.827
788.5594, 5912.787
789.0415, 5936.980
789.5236, 5961.295
790.0057, 5972.349
790.4879, 5968.657
790.9700, 5933.073
791.4521, 5884.604
791.9342, 5876.597
792.4163, 5910.344
792.8984, 5937.840
793.3806, 5931.709
793.8627, 5911.176
794.3448, 5914.125
794.8269, 5943.949
795.3090, 5952.596
795.7911, 5930.365
796.2733, 5915.984
796.7554, 5926.969
797.2375, 5948.335
797.7196, 5964.438
798.2017, 5975.155
798.6838, 5976.692
799.1660, 5965.021
799.6481, 5949.566
800.1302, 5924.629
800.6123, 5903.093
801.0944, 5893.577
801.5765, 5895.984
802.0587, 5909.741
802.5408, 5939.353
803.0229, 5962.208
803.5050, 5955.356
803.9871, 5937.868
804.4692, 5939.114
804.9514, 5951.213
805.4335, 5941.831
805.9156, 5900.499
806.3977, 5857.018
806.8798, 5844.571
807.3619, 5857.295
807.8441, 5876.208
808.3262, 5901.501
808.8083, 5919.349
809.2904, 5926.592
809.7725, 5924.066
810.2546, 5910.102
810.7368, 5888.136
811.2189, 5874.264
811.7010, 5869.458
812.1831, 5870.785
812.6652, 5887.380
813.1473, 5899.402
813.6295, 5884.695
814.1116, 5866.398
814.5937, 5888.902
815.0758, 5963.366
815.5579, 6001.152
816.0400, 5944.972
816.5222, 5882.788
817.0043, 5860.846
817.4864, 5861.424
817.9685, 5864.344
818.4506, 5864.810
818.9327, 5862.457
819.4149, 5855.721
819.8970, 5849.435
820.3791, 5851.918
820.8612, 5858.280
821.3433, 5855.284
821.8254, 5843.611
822.3076, 5837.305
822.7897, 5843.597
823.2718, 5852.357
823.7539, 5843.956
824.2360, 5820.280
824.7181, 5826.491
825.2003, 5869.188
825.6824, 5904.294
826.1645, 5916.421
826.6466, 5922.209
827.1287, 5939.767
827.6108, 5966.229
828.0930, 5977.186
828.5751, 5960.693
829.0572, 5947.160
829.5393, 5940.613
830.0214, 5934.322
830.5035, 5918.883
830.9857, 5903.673
831.4678, 5905.727
831.9499, 5929.312
832.4320, 5955.052
832.9141, 5979.408
833.3962, 6000.156
833.8784, 6012.210
834.3605, 6021.834
834.8426, 6042.578
835.3247, 6071.934
835.8068, 6086.792
836.2889, 6065.644
836.7711, 6041.268
837.2532, 6063.814
837.7353, 6112.035
838.2174, 6134.813
838.6995, 6130.056
839.1816, 6121.846
839.6638, 6121.630
840.1459, 6123.582
840.6280, 6119.343
841.1101, 6109.336
841.5922, 6097.855
842.0743, 6083.943
842.5565, 6074.602
843.0386, 6070.540
843.5207, 6075.332
844.0028, 6096.500
844.4849, 6128.583
844.9670, 6141.652
845.4492, 6123.087
845.9313, 6109.245
846.4134, 6095.818
846.8955, 6093.269
847.3776, 6116.520
847.8597, 6148.060
848.3419, 6160.086
848.8240, 6148.795
849.3061, 6148.305
849.7882, 6175.952
850.2703, 6205.013
850.7524, 6221.588
851.2346, 6234.552
851.7167, 6253.959
852.1988, 6279.050
852.6809, 6301.994
853.1630, 6317.697
853.6451, 6336.474
854.1273, 6375.836
854.6094, 6418.303
855.0915, 6439.922
855.5736, 6441.798
856.0557, 6428.928
856.5378, 6404.396
857.0200, 6380.730
857.5021, 6372.737
857.9842, 6372.029
858.4663, 6350.894
858.9484, 6312.513
859.4305, 6293.579
859.9127, 6301.836
860.3948, 6299.972
860.8769, 6261.446
861.3590, 6204.760
861.8411, 6173.990
862.3232, 6176.942
862.8054, 6151.055
863.2875, 6082.039
863.7696, 6020.032
864.2517, 5981.739
864.7338, 5956.517
865.2159, 5936.251
865.6981, 5920.323
866.1802, 5900.052
866.6623, 5874.861
867.1444, 5846.359
867.6265, 5811.040
868.1086, 5776.277
868.5908, 5748.213
869.0729, 5722.580
869.5550, 5690.140
870.0371, 5648.547
870.5192, 5614.011
871.0013, 5593.405
871.4835, 5579.739
871.9656, 5567.644
872.4477, 5561.179
872.9298, 5571.347
873.4119, 5592.762
873.8940, 5604.229
874.3762, 5594.866
874.8583, 5575.831
875.3404, 5550.301
875.8225, 5525.727
876.3046, 5516.524
876.7867, 5518.171
877.2689, 5512.741
877.7510, 5495.813
878.2332, 5484.295
878.7153, 5496.660
879.1974, 5522.226
879.6795, 5537.177
880.1616, 5542.447
880.6437, 5544.248
881.1259, 5543.480
881.6080, 5538.585
882.0901, 5527.923
882.5722, 5516.136
883.0543, 5512.502
883.5364, 5517.338
884.0186, 5514.356
884.5007, 5499.420
884.9828, 5495.430
885.4649, 5514.976
885.9470, 5533.191
886.4291, 5526.540
886.9113, 5500.427
887.3934, 5479.868
887.8755, 5461.855
888.3576, 5455.693
888.8397, 5473.958
889.3218, 5488.259
889.8040, 5483.224
890.2861, 5471.347
890.7682, 5466.342
891.2503, 5468.619
891.7324, 5474.631
892.2145, 5496.303
892.6967, 5504.752
893.1788, 5485.736
893.6609, 5457.004
894.1430, 5420.954
894.6251, 5388.468
895.1072, 5383.385
895.5894, 5414.196
896.0715, 5438.863
896.5536, 5426.176
897.0357, 5410.786
897.5178, 5423.381
897.9999, 5446.260
898.4821, 5454.813
898.9642, 5447.364
899.4463, 5435.608
899.9284, 5424.542
900.4105, 5415.789
900.8926, 5414.372
901.3748, 5414.276
901.8569, 5402.121
902.3390, 5382.871
902.8211, 5372.895
903.3032, 5376.743
903.7853, 5387.431
904.2675, 5400.612
904.7496, 5413.616
905.2317, 5423.105
905.7138, 5427.848
906.1959, 5417.261
906.6780, 5391.837
907.1602, 5376.180
907.6423, 5382.879
908.1244, 5397.868
908.6065, 5400.872
909.0886, 5394.055
909.5707, 5397.361
910.0529, 5412.042
910.5350, 5422.711
911.0171, 5426.860
911.4992, 5422.737
911.9813, 5405.799
912.4634, 5385.143
912.9456, 5384.863
913.4277, 5411.475
913.9098, 5423.725
914.3919, 5416.077
914.8740, 5407.164
915.3561, 5403.575
915.8383, 5398.964
916.3204, 5384.544
916.8025, 5363.421
917.2846, 5353.445
917.7667, 5353.695
918.2488, 5366.694
918.7310, 5416.027
919.2131, 5450.187
919.6952, 5441.465
920.1773, 5412.894
920.6594, 5387.796
921.1415, 5367.591
921.6237, 5353.841
922.1058, 5346.232
922.5879, 5345.860
923.0700, 5360.062
923.5521, 5374.585
924.0342, 5376.506
924.5164, 5373.358
924.9985, 5382.520
925.4806, 5407.548
925.9627, 5419.958
926.4448, 5393.289
926.9269, 5370.056
927.4091, 5380.486
927.8912, 5399.988
928.3733, 5398.876
928.8554, 5384.013
929.3375, 5382.547
929.8196, 5404.941
930.3018, 5430.132
930.7839, 5447.554
931.2660, 5458.252
931.7481, 5462.020
932.2302, 5460.330
932.7123, 5450.573
933.1945, 5436.709
933.6766, 5435.201
934.1587, 5457.166
934.6408, 5482.099
935.1229, 5486.434
935.6050, 5481.129
936.0872, 5487.813
936.5693, 5499.522
937.0514, 5490.369
937.5335, 5456.924
938.0156, 5425.813
938.4977, 5417.310
938.9799, 5421.243
939.4620, 5422.293
939.9441, 5422.324
940.4262, 5430.289
940.9083, 5443.942
941.3904, 5445.314
941.8726, 5428.455
942.3547, 5409.492
942.8368, 5403.694
943.3189, 5409.470
943.8010, 5427.013
944.2831, 5453.711
944.7653, 5470.308
945.2474, 5474.536
945.7295, 5470.887
946.2116, 5460.735
946.6937, 5450.741
947.1758, 5450.088
947.6580, 5457.365
948.1401, 5464.323
948.6222, 5471.003
949.1043, 5476.965
949.5864, 5482.766
950.0685, 5482.780
950.5507, 5472.771
951.0328, 5457.963
951.5149, 5447.008
951.9970, 5439.883
952.4791, 5430.799
952.9612, 5414.380
953.4434, 5427.072
953.9255, 5490.959
954.4076, 5539.471
954.8897, 5518.532
955.3718, 5461.109
955.8539, 5444.703
956.3361, 5478.870
956.8182, 5492.879
957.3003, 5477.432
957.7824, 5464.986
958.2645, 5464.277
958.7466, 5467.770
959.2288, 5470.898
959.7109, 5472.966
960.1930, 5470.738
960.6751, 5458.439
961.1572, 5460.846
961.6393, 5496.151
962.1215, 5514.273
962.6036, 5481.188
963.0857, 5446.559
963.5678, 5464.388
964.0499, 5520.186
964.5320, 5543.697
965.0142, 5513.921
965.4963, 5494.374
965.9784, 5494.990
966.4605, 5493.198
966.9426, 5479.133
967.4247, 5461.542
967.9069, 5444.388
968.3890, 5429.910
968.8711, 5431.658
969.3532, 5464.474
969.8353, 5488.952
970.3174, 5501.592
970.7996, 5506.435
971.2817, 5500.514
971.7638, 5490.792
972.2459, 5484.961
972.7280, 5482.864
973.2101, 5479.658
973.6923, 5471.135
974.1744, 5467.112
974.6565, 5457.687
975.1386, 5465.918
975.6207, 5536.079
976.1028, 5611.191
976.5850, 5607.535
977.0671, 5527.059
977.5492, 5464.550
978.0313, 5440.746
978.5134, 5435.038
978.9955, 5461.213
979.4777, 5484.248
979.9598, 5472.797
980.4419, 5450.349
980.9240, 5459.481
981.4061, 5500.889
981.8882, 5517.115
982.3704, 5466.196
982.8525, 5424.309
983.3346, 5423.415
983.8167, 5431.820
984.2988, 5427.528
984.7809, 5417.990
985.2631, 5417.786
985.7452, 5428.501
986.2273, 5438.115
986.7094, 5445.465
987.1915, 5447.051
987.6736, 5430.364
988.1558, 5418.279
988.6379, 5444.335
989.1200, 5480.182
989.6021, 5469.014
990.0842, 5405.140
990.5663, 5360.148
991.0485, 5373.761
991.5306, 5395.285
992.0127, 5407.716
992.4948, 5414.857
992.9769, 5417.576
993.4590, 5418.162
993.9412, 5421.718
994.4233, 5428.522
994.9054, 5427.917
995.3875, 5405.936
995.8696, 5387.969
996.3517, 5388.137
996.8339, 5395.250
997.3160, 5408.411
997.7981, 5418.054
998.2802, 5401.136
998.7623, 5356.216
999.2444, 5332.089
999.7266, 5369.140
1000.209, 5406.439
1000.691, 5410.387
1001.173, 5405.635
1001.655, 5416.977
1002.137, 5434.033
1002.619, 5432.096
1003.101, 5407.908
1003.583, 5388.996
1004.066, 5394.462
1004.548, 5398.655
1005.030, 5378.432
1005.512, 5361.828
1005.994, 5379.992
1006.476, 5416.061
1006.958, 5439.673
1007.440, 5445.131
1007.923, 5443.906
1008.405, 5429.943
1008.887, 5424.838
1009.369, 5446.758
1009.851, 5473.588
1010.333, 5491.980
1010.815, 5500.265
1011.297, 5496.603
1011.779, 5481.595
1012.262, 5463.621
1012.744, 5436.063
1013.226, 5420.661
1013.708, 5434.715
1014.190, 5456.351
1014.672, 5471.479
1015.154, 5481.564
1015.636, 5492.198
1016.119, 5503.416
1016.601, 5507.578
1017.083, 5494.744
1017.565, 5486.027
1018.047, 5494.900
1018.529, 5504.699
1019.011, 5501.334
1019.493, 5492.975
1019.975, 5495.582
1020.458, 5508.119
1020.940, 5507.670
1021.422, 5471.148
1021.904, 5449.916
1022.386, 5473.861
1022.868, 5502.757
1023.350, 5513.173
1023.832, 5514.169
1024.314, 5520.397
1024.797, 5531.130
1025.279, 5532.190
1025.761, 5514.451
1026.243, 5498.855
1026.725, 5481.777
1027.207, 5478.212
1027.689, 5515.956
1028.171, 5556.694
1028.654, 5545.916
1029.136, 5495.622
1029.618, 5479.870
1030.100, 5532.338
1030.582, 5568.169
1031.064, 5558.660
1031.546, 5548.464
1032.028, 5557.707
1032.510, 5572.542
1032.993, 5575.795
1033.475, 5572.509
1033.957, 5584.831
1034.439, 5622.454
1034.921, 5653.928
1035.403, 5674.712
1035.885, 5692.389
1036.367, 5706.245
1036.849, 5720.470
1037.332, 5738.538
1037.814, 5759.515
1038.296, 5781.273
1038.778, 5805.721
1039.260, 5823.742
1039.742, 5822.708
1040.224, 5835.398
1040.706, 5882.019
1041.189, 5927.381
1041.671, 5945.114
1042.153, 5946.770
1042.635, 5954.195
1043.117, 5966.156
1043.599, 5994.466
1044.081, 6050.315
1044.563, 6097.188
1045.046, 6122.207
1045.528, 6151.074
1046.010, 6202.595
1046.492, 6261.340
1046.974, 6301.827
1047.456, 6324.212
1047.938, 6351.245
1048.420, 6382.259
1048.902, 6421.230
1049.385, 6471.151
1049.867, 6520.433
1050.349, 6562.001
1050.831, 6604.551
1051.313, 6662.515
1051.795, 6730.042
1052.277, 6765.394
1052.759, 6762.522
1053.242, 6781.941
1053.724, 6832.840
1054.206, 6871.498
1054.688, 6879.416
1055.170, 6882.989
1055.652, 6909.625
1056.134, 6950.303
1056.616, 6980.269
1057.099, 6999.481
1057.581, 7006.392
1058.063, 7000.979
1058.545, 6980.728
1059.027, 6944.651
1059.509, 6914.393
1059.991, 6909.055
1060.473, 6907.716
1060.955, 6865.028
1061.438, 6792.590
1061.920, 6743.568
1062.402, 6712.808
1062.884, 6664.872
1063.366, 6594.504
1063.848, 6520.933
1064.330, 6455.681
1064.812, 6394.823
1065.294, 6331.497
1065.777, 6270.656
1066.259, 6230.852
1066.741, 6199.789
1067.223, 6139.659
1067.705, 6054.922
1068.187, 5984.134
1068.669, 5942.804
1069.151, 5909.117
1069.634, 5870.171
1070.116, 5821.834
1070.598, 5745.254
1071.080, 5665.089
1071.562, 5618.533
1072.044, 5599.749
1072.526, 5591.177
1073.008, 5585.684
1073.490, 5573.364
1073.973, 5551.768
1074.455, 5515.338
1074.937, 5439.078
1075.419, 5366.588
1075.901, 5346.367
1076.383, 5352.956
1076.865, 5345.163
1077.347, 5320.726
1077.829, 5303.892
1078.312, 5307.345
1078.794, 5304.985
1079.276, 5282.576
1079.758, 5256.984
1080.240, 5233.836
1080.722, 5214.287
1081.204, 5203.805
1081.686, 5196.818
1082.169, 5174.446
1082.651, 5126.647
1083.133, 5100.979
1083.615, 5129.653
1084.097, 5144.625
1084.579, 5115.034
1085.061, 5083.447
1085.543, 5078.073
1086.026, 5086.648
1086.508, 5091.705
1086.990, 5093.390
1087.472, 5083.734
1087.954, 5053.567
1088.436, 5034.387
1088.918, 5033.640
1089.400, 5033.408
1089.882, 5025.958
1090.365, 5015.888
1090.847, 5006.806
1091.329, 5000.223
1091.811, 5003.988
1092.293, 5019.784
1092.775, 5033.944
1093.257, 5047.546
1093.739, 5042.480
1094.221, 5011.016
1094.704, 4986.789
1095.186, 4996.107
1095.668, 5021.674
1096.150, 5034.930
1096.632, 5035.790
1097.114, 5016.824
1097.596, 4982.931
1098.078, 4965.602
1098.561, 4968.442
1099.043, 4976.360
1099.525, 4982.174
1100.007, 4986.799
1100.489, 4992.381
1100.971, 4995.826
1101.453, 4988.186
1101.935, 4976.424
1102.417, 4976.421
1102.900, 4984.301
1103.382, 4983.961
1103.864, 4972.978
1104.346, 4967.813
1104.828, 4982.965
1105.310, 4993.298
1105.792, 4968.501
1106.274, 4939.854
1106.756, 4941.499
1107.239, 4954.691
1107.721, 4947.930
1108.203, 4925.680
1108.685, 4918.817
1109.167, 4940.276
1109.649, 4951.036
1110.131, 4927.667
1110.613, 4904.029
1111.096, 4895.013
1111.578, 4889.666
1112.060, 4877.700
1112.542, 4864.355
1113.024, 4862.767
1113.506, 4874.567
1113.988, 4871.324
1114.470, 4835.046
1114.953, 4815.814
1115.435, 4820.231
1115.917, 4836.344
1116.399, 4868.793
1116.881, 4896.869
1117.363, 4898.642
1117.845, 4880.881
1118.327, 4865.131
1118.809, 4850.002
1119.292, 4851.289
1119.774, 4872.297
1120.256, 4880.262
1120.738, 4867.018
1121.220, 4847.444
1121.702, 4828.860
1122.184, 4820.735
1122.666, 4842.637
1123.148, 4881.103
1123.631, 4892.739
1124.113, 4881.218
1124.595, 4854.331
1125.077, 4818.228
1125.559, 4793.640
1126.041, 4787.447
1126.523, 4797.661
1127.005, 4830.423
1127.488, 4855.438
1127.970, 4821.562
1128.452, 4773.708
1128.934, 4773.663
1129.416, 4799.357
1129.898, 4809.903
1130.380, 4803.487
1130.862, 4801.123
1131.344, 4810.865
1131.827, 4814.676
1132.309, 4802.491
1132.791, 4784.273
1133.273, 4753.472
1133.755, 4729.960
1134.237, 4734.068
1134.719, 4752.993
1135.201, 4767.887
1135.683, 4777.005
1136.166, 4775.742
1136.648, 4748.724
1137.130, 4737.850
1137.612, 4752.848
1138.094, 4768.706
1138.576, 4784.132
1139.058, 4785.911
1139.540, 4756.941
1140.023, 4714.380
1140.505, 4699.204
1140.987, 4711.594
1141.469, 4728.218
1141.951, 4749.812
1142.433, 4759.220
1142.915, 4753.622
1143.397, 4749.950
1143.880, 4756.171
1144.362, 4759.287
1144.844, 4744.202
1145.326, 4720.980
1145.808, 4710.355
1146.290, 4706.964
1146.772, 4694.398
1147.254, 4677.846
1147.736, 4679.014
1148.219, 4696.478
1148.701, 4700.947
1149.183, 4677.142
1149.665, 4651.746
1150.147, 4640.367
1150.629, 4640.445
1151.111, 4660.406
1151.593, 4681.700
1152.075, 4683.317
1152.558, 4672.978
1153.040, 4666.804
1153.522, 4667.159
1154.004, 4669.506
1154.486, 4673.042
1154.968, 4678.271
1155.450, 4696.705
1155.932, 4700.833
1156.415, 4668.336
1156.897, 4634.560
1157.379, 4626.116
1157.861, 4637.570
1158.343, 4660.208
1158.825, 4695.388
1159.307, 4700.252
1159.789, 4669.629
1160.271, 4648.438
1160.754, 4643.271
1161.236, 4635.149
1161.718, 4615.324
1162.200, 4606.355
1162.682, 4634.289
1163.164, 4674.804
1163.646, 4675.950
1164.128, 4653.959
1164.610, 4650.556
1165.093, 4660.833
1165.575, 4667.728
1166.057, 4668.157
1166.539, 4664.102
1167.021, 4656.349
1167.503, 4649.617
1167.985, 4651.550
1168.467, 4650.178
1168.950, 4631.626
1169.432, 4611.841
1169.914, 4606.675
1170.396, 4608.534
1170.878, 4600.680
1171.360, 4586.191
1171.842, 4593.052
1172.324, 4642.522
1172.807, 4667.777
1173.289, 4647.295
1173.771, 4633.911
1174.253, 4644.854
1174.735, 4652.299
1175.217, 4635.924
1175.699, 4614.671
1176.181, 4619.160
1176.663, 4641.680
1177.146, 4631.081
1177.628, 4588.634
1178.110, 4581.047
1178.592, 4609.225
1179.074, 4617.637
1179.556, 4593.308
1180.038, 4573.133
1180.520, 4580.691
1181.002, 4595.265
1181.485, 4588.825
1181.967, 4577.430
1182.449, 4591.569
1182.931, 4610.305
1183.413, 4591.544
1183.895, 4554.306
1184.377, 4550.736
1184.859, 4586.036
1185.342, 4613.854
1185.824, 4616.658
1186.306, 4612.144
1186.788, 4601.295
1187.270, 4590.342
1187.752, 4580.902
1188.234, 4573.363
1188.716, 4566.261
1189.198, 4562.376
1189.681, 4568.146
1190.163, 4583.101
1190.645, 4590.426
1191.127, 4587.064
1191.609, 4597.451
1192.091, 4627.220
1192.573, 4629.289
1193.055, 4587.368
1193.537, 4553.692
1194.020, 4567.587
1194.502, 4595.637
1194.984, 4581.084
1195.466, 4546.878
1195.948, 4545.420
1196.430, 4562.444
1196.912, 4570.970
1197.394, 4569.710
1197.877, 4562.812
1198.359, 4552.912
1198.841, 4548.066
1199.323, 4554.604
1199.805, 4559.241
1200.287, 4551.526
1200.769, 4545.549
1201.251, 4552.270
1201.734, 4560.229
1202.216, 4557.317
1202.698, 4549.590
1203.180, 4551.621
1203.662, 4562.610
1204.144, 4557.590
1204.626, 4528.503
1205.108, 4517.759
1205.590, 4532.456
1206.073, 4533.663
1206.555, 4508.726
1207.037, 4483.126
1207.519, 4473.087
1208.001, 4477.247
1208.483, 4498.726
1208.965, 4528.381
1209.447, 4547.492
1209.929, 4557.771
1210.412, 4563.811
1210.894, 4564.229
1211.376, 4547.502
1211.858, 4517.983
1212.340, 4508.932
1212.822, 4540.469
1213.304, 4565.930
1213.786, 4561.304
1214.269, 4548.454
1214.751, 4521.845
1215.233, 4506.655
1215.715, 4532.209
1216.197, 4572.786
1216.679, 4594.553
1217.161, 4599.454
1217.643, 4598.049
1218.125, 4588.513
1218.608, 4581.919
1219.090, 4578.308
1219.572, 4579.218
1220.054, 4585.099
1220.536, 4589.810
1221.018, 4590.210
1221.500, 4589.427
1221.982, 4589.483
1222.464, 4592.960
1222.947, 4606.891
1223.429, 4624.713
1223.911, 4640.113
1224.393, 4649.663
1224.875, 4644.230
1225.357, 4628.735
1225.839, 4622.312
1226.321, 4630.848
1226.804, 4634.964
1227.286, 4614.212
1227.768, 4610.482
1228.250, 4654.984
1228.732, 4689.302
1229.214, 4688.588
1229.696, 4671.449
1230.178, 4650.682
1230.661, 4628.553
1231.143, 4607.906
1231.625, 4590.003
1232.107, 4595.020
1232.589, 4620.560
1233.071, 4637.189
1233.553, 4643.333
1234.035, 4656.103
1234.517, 4678.134
1235.000, 4683.167
1235.482, 4651.545
1235.964, 4617.185
1236.446, 4611.792
1236.928, 4616.554
1237.410, 4615.208
1237.892, 4616.204
1238.374, 4636.404
1238.856, 4661.147
1239.339, 4660.553
1239.821, 4636.104
1240.303, 4626.854
1240.785, 4642.209
1241.267, 4649.312
1241.749, 4647.046
1242.231, 4637.878
1242.713, 4618.842
1243.196, 4611.062
##END=



