##NAMES=Elbaite
##RRUFFID=R050487
##IDEAL CHEMISTRY=Na(Al_1.5_Li_1.5_)Al_6_(Si_6_O_18_)(BO_3_)_3_(OH)_3_OH
##LOCALITY=White Queen mine, Pala, San Diego County, California, USA
##OWNER=RRUFF
##SOURCE=California Institute of Technology
##DESCRIPTION=Mass of blue acicular crystals
##STATUS=The identification of this mineral has been confirmed by X-ray diffraction and chemical analysis
##URL=rruff.info/R050487
##MEASURED CHEMISTRY=(Na_0.86_[box]_0.13_Ca_0.01_)(Al_0.42_Li_0.38_Fe^2+^_0.18_Mn_0.02_)_3_Al_6_(BO_3_)_3_Si_6_O_18_((OH)_0.85_F_0.15_)_4_
93.78320, 522.0901
94.26532, 543.3596
94.74744, 548.1664
95.22955, 534.9660
95.71167, 508.5200
96.19379, 470.0205
96.67590, 413.1206
97.15802, 369.5000
97.64014, 349.1481
98.12225, 343.4539
98.60437, 338.0487
99.08649, 328.6849
99.56860, 317.0354
100.0507, 305.5727
100.5328, 293.4943
101.0150, 282.2609
101.4971, 273.6582
101.9792, 267.7599
102.4613, 261.2732
102.9434, 251.9344
103.4255, 241.8206
103.9077, 232.1507
104.3898, 223.1148
104.8719, 214.9998
105.3540, 208.4148
105.8361, 203.5908
106.3182, 199.9945
106.8004, 198.7070
107.2825, 197.9979
107.7646, 195.7832
108.2467, 190.7163
108.7288, 182.9960
109.2109, 175.2698
109.6931, 166.5578
110.1752, 158.7197
110.6573, 152.3524
111.1394, 147.3067
111.6215, 143.0911
112.1036, 139.3465
112.5858, 136.1046
113.0679, 133.2380
113.5500, 130.6707
114.0321, 128.4847
114.5142, 126.8016
114.9964, 125.6383
115.4785, 124.8009
115.9606, 124.2435
116.4427, 123.9499
116.9248, 123.3783
117.4069, 122.0444
117.8891, 120.3696
118.3712, 119.2510
118.8533, 119.0309
119.3354, 119.1817
119.8175, 119.0497
120.2996, 118.6767
120.7818, 118.6014
121.2639, 119.3433
121.7460, 120.9330
122.2281, 122.4913
122.7102, 124.5342
123.1923, 126.0107
123.6745, 126.0166
124.1566, 124.4768
124.6387, 122.3928
125.1208, 121.1664
125.6029, 121.0555
126.0850, 121.3656
126.5672, 122.3088
127.0493, 123.4052
127.5314, 124.4699
128.0135, 125.4072
128.4956, 125.9423
128.9777, 125.2845
129.4599, 121.7346
129.9420, 118.8154
130.4241, 117.2417
130.9062, 116.3772
131.3883, 115.2366
131.8705, 113.2369
132.3526, 110.5746
132.8347, 108.3543
133.3168, 106.5917
133.7989, 105.1222
134.2810, 103.8472
134.7632, 102.7866
135.2453, 102.0705
135.7274, 101.9180
136.2095, 102.1812
136.6916, 102.2505
137.1737, 102.0132
137.6559, 101.6200
138.1380, 101.2413
138.6201, 100.9025
139.1022, 100.4495
139.5843, 99.66061
140.0664, 98.70303
140.5486, 97.81288
141.0307, 97.06178
141.5128, 96.44671
141.9949, 96.01237
142.4770, 95.97554
142.9591, 95.78217
143.4413, 95.09837
143.9234, 94.11640
144.4055, 93.17757
144.8876, 92.51781
145.3697, 92.13857
145.8518, 91.88329
146.3340, 91.85455
146.8161, 91.87069
147.2982, 91.94567
147.7803, 92.03367
148.2624, 92.04262
148.7445, 91.87423
149.2267, 91.49206
149.7088, 91.07101
150.1909, 90.46934
150.6730, 89.94463
151.1551, 89.64875
151.6372, 89.59713
152.1194, 89.70666
152.6015, 89.89980
153.0836, 90.26530
153.5657, 90.43311
154.0478, 90.29555
154.5299, 90.01265
155.0121, 89.73367
155.4942, 89.49621
155.9763, 89.26694
156.4584, 88.96983
156.9405, 88.58623
157.4227, 88.29163
157.9048, 88.14836
158.3869, 88.12638
158.8690, 88.19855
159.3511, 88.43874
159.8332, 88.63451
160.3154, 88.50778
160.7975, 88.05497
161.2796, 87.57235
161.7617, 87.22095
162.2438, 86.99525
162.7259, 86.84996
163.2081, 86.81660
163.6902, 86.83440
164.1723, 86.86813
164.6544, 86.91416
165.1365, 86.95644
165.6186, 86.97800
166.1008, 86.97653
166.5829, 86.96542
167.0650, 86.92574
167.5471, 86.89169
168.0292, 86.92422
168.5113, 87.02914
168.9935, 87.10497
169.4756, 86.93764
169.9577, 86.23837
170.4398, 85.86622
170.9219, 86.16253
171.4040, 86.60667
171.8862, 86.72002
172.3683, 86.33464
172.8504, 85.69438
173.3325, 85.37837
173.8146, 85.80327
174.2967, 86.08384
174.7789, 86.11437
175.2610, 86.01577
175.7431, 85.88624
176.2252, 85.76050
176.7073, 85.69830
177.1894, 85.91595
177.6716, 86.75387
178.1537, 87.42461
178.6358, 87.83862
179.1179, 87.98438
179.6000, 87.78525
180.0821, 87.12386
180.5643, 86.19310
181.0464, 85.58784
181.5285, 85.34140
182.0106, 85.28352
182.4927, 85.41625
182.9749, 85.70129
183.4570, 85.97446
183.9391, 86.18959
184.4212, 86.31165
184.9033, 86.28559
185.3854, 86.00354
185.8676, 85.74973
186.3497, 85.84502
186.8318, 86.30335
187.3139, 86.61967
187.7960, 86.46331
188.2781, 86.08029
188.7603, 85.69435
189.2424, 85.30006
189.7245, 85.01756
190.2066, 85.06541
190.6887, 85.55250
191.1708, 85.97423
191.6530, 86.07376
192.1351, 86.06508
192.6172, 86.13383
193.0993, 86.35371
193.5814, 86.64359
194.0635, 86.81738
194.5457, 86.75154
195.0278, 86.82376
195.5099, 87.22469
195.9920, 87.72852
196.4741, 88.12862
196.9562, 88.33404
197.4384, 88.37460
197.9205, 88.31207
198.4026, 87.86643
198.8847, 87.72576
199.3668, 88.09203
199.8489, 88.74525
200.3311, 89.46675
200.8132, 90.14928
201.2953, 90.79089
201.7774, 91.37547
202.2595, 91.93472
202.7416, 92.39439
203.2238, 92.53706
203.7059, 92.62080
204.1880, 93.08402
204.6701, 94.19243
205.1522, 95.72658
205.6344, 96.68151
206.1165, 96.57838
206.5986, 96.52656
207.0807, 96.76180
207.5628, 97.20965
208.0449, 97.70036
208.5271, 98.12458
209.0092, 98.55906
209.4913, 99.33101
209.9734, 100.8751
210.4555, 102.1714
210.9376, 102.6531
211.4198, 102.5714
211.9019, 102.6136
212.3840, 103.1072
212.8661, 103.9759
213.3482, 104.9574
213.8303, 106.1450
214.3125, 107.2835
214.7946, 108.2019
215.2767, 108.9317
215.7588, 109.6233
216.2409, 110.3613
216.7230, 111.0802
217.2052, 111.6254
217.6873, 111.8157
218.1694, 112.2140
218.6515, 113.5354
219.1336, 115.7343
219.6157, 117.4325
220.0979, 117.8210
220.5800, 117.6038
221.0621, 117.5889
221.5442, 117.9132
222.0263, 118.2224
222.5084, 118.1209
222.9906, 117.5680
223.4727, 117.0481
223.9548, 116.8867
224.4369, 116.7039
224.9190, 116.1628
225.4011, 115.1838
225.8833, 114.0910
226.3654, 113.2693
226.8475, 112.7791
227.3296, 112.2843
227.8117, 111.6858
228.2938, 111.0809
228.7760, 110.5771
229.2581, 110.1841
229.7402, 109.7618
230.2223, 109.0410
230.7044, 107.8113
231.1866, 106.9622
231.6687, 106.9720
232.1508, 107.0924
232.6329, 106.7883
233.1150, 105.9931
233.5971, 105.1136
234.0793, 104.7832
234.5614, 105.3766
235.0435, 105.5881
235.5256, 105.1398
236.0077, 104.5454
236.4898, 104.0643
236.9720, 103.7690
237.4541, 103.6252
237.9362, 103.5940
238.4183, 103.6968
238.9004, 103.8763
239.3825, 104.2870
239.8647, 104.6465
240.3468, 104.7838
240.8289, 104.6718
241.3110, 104.3726
241.7931, 103.9327
242.2752, 103.2347
242.7574, 102.7609
243.2395, 102.6755
243.7216, 102.6555
244.2037, 102.4597
244.6858, 102.0799
245.1679, 101.7189
245.6501, 101.6314
246.1322, 101.9512
246.6143, 101.9695
247.0964, 101.3715
247.5785, 100.7417
248.0606, 100.5415
248.5428, 100.7702
249.0249, 101.0310
249.5070, 100.9374
249.9891, 100.4213
250.4712, 99.93293
250.9533, 99.36199
251.4355, 98.89898
251.9176, 98.75285
252.3997, 98.89715
252.8818, 99.04522
253.3639, 98.98026
253.8460, 98.67751
254.3282, 98.23300
254.8103, 97.45112
255.2924, 96.68446
255.7745, 96.26988
256.2566, 96.17447
256.7387, 95.97275
257.2209, 95.24755
257.7030, 94.14277
258.1851, 93.55730
258.6672, 93.96242
259.1493, 94.50517
259.6314, 94.62887
260.1136, 94.35364
260.5957, 93.90427
261.0778, 93.28107
261.5599, 92.62524
262.0420, 92.31042
262.5241, 92.58411
263.0063, 92.90939
263.4884, 92.93349
263.9705, 92.67491
264.4526, 92.27185
264.9347, 91.67944
265.4168, 91.05351
265.8990, 90.70706
266.3811, 90.78141
266.8632, 90.82973
267.3453, 90.41708
267.8275, 89.61965
268.3096, 89.05424
268.7917, 89.08575
269.2738, 89.33737
269.7559, 89.30231
270.2380, 88.94173
270.7202, 88.46943
271.2023, 87.97112
271.6844, 87.46270
272.1665, 87.04695
272.6486, 86.76667
273.1307, 86.58449
273.6129, 86.51771
274.0950, 86.56206
274.5771, 86.46484
275.0592, 85.92496
275.5413, 85.04122
276.0234, 84.41932
276.5056, 84.29417
276.9877, 84.26346
277.4698, 83.98050
277.9519, 83.49372
278.4340, 83.04673
278.9161, 82.81510
279.3983, 82.75253
279.8804, 82.65936
280.3625, 82.56394
280.8446, 82.36517
281.3267, 82.01057
281.8088, 81.52538
282.2910, 80.95714
282.7731, 80.27608
283.2552, 79.53514
283.7373, 78.90352
284.2194, 78.37611
284.7015, 77.98127
285.1837, 77.82201
285.6658, 77.76468
286.1479, 77.59046
286.6300, 77.14230
287.1121, 76.57577
287.5942, 76.27563
288.0764, 76.37156
288.5585, 76.43089
289.0406, 76.28969
289.5227, 76.03721
290.0048, 75.75091
290.4869, 75.44856
290.9691, 75.14822
291.4512, 74.87942
291.9333, 74.64848
292.4154, 74.43263
292.8975, 74.18539
293.3796, 73.97466
293.8618, 73.89017
294.3439, 73.95415
294.8260, 74.03524
295.3081, 73.52350
295.7902, 73.89848
296.2723, 74.07265
296.7545, 74.05680
297.2366, 73.28184
297.7187, 73.48712
298.2008, 73.29957
298.6829, 73.09590
299.1650, 73.43915
299.6472, 72.77457
300.1293, 73.71799
300.6114, 73.47249
301.0935, 73.15403
301.5756, 73.06797
302.0577, 73.18119
302.5399, 73.29726
303.0220, 73.23893
303.5041, 73.01746
303.9862, 72.88956
304.4683, 72.96000
304.9504, 73.00683
305.4326, 72.91133
305.9147, 72.73934
306.3968, 72.61228
306.8789, 72.60182
307.3610, 72.69444
307.8431, 72.82509
308.3253, 72.57163
308.8074, 73.02655
309.2895, 73.28067
309.7716, 73.34477
310.2537, 72.64976
310.7358, 72.93498
311.2180, 72.82738
311.7001, 72.70366
312.1822, 73.12685
312.6643, 72.54224
313.1464, 72.95677
313.6285, 72.97246
314.1107, 73.17068
314.5928, 72.97364
315.0749, 72.89869
315.5570, 73.21912
316.0392, 73.32063
316.5213, 73.07809
317.0034, 73.28792
317.4855, 72.68951
317.9676, 72.80033
318.4497, 73.21717
318.9319, 72.99451
319.4140, 73.21156
319.8961, 73.26115
320.3782, 72.54964
320.8603, 73.16175
321.3424, 73.20144
321.8246, 72.65338
322.3067, 73.22013
322.7888, 72.75310
323.2709, 72.65507
323.7530, 72.83472
324.2351, 72.72490
324.7173, 72.81876
325.1994, 72.85511
325.6815, 72.96476
326.1636, 73.08916
326.6457, 73.12895
327.1278, 73.01394
327.6100, 72.84225
328.0921, 72.89388
328.5742, 73.36077
329.0563, 73.62781
329.5384, 73.35009
330.0205, 72.94632
330.5027, 72.78640
330.9848, 72.97551
331.4669, 73.32669
331.9490, 73.57363
332.4311, 73.67541
332.9132, 73.85405
333.3954, 74.30665
333.8775, 74.72441
334.3596, 74.89901
334.8417, 74.83889
335.3238, 74.73227
335.8059, 74.76777
336.2881, 74.94851
336.7702, 75.04964
337.2523, 74.91545
337.7344, 74.87777
338.2165, 75.22038
338.6986, 75.77612
339.1808, 76.14288
339.6629, 75.97551
340.1450, 75.45595
340.6271, 75.27718
341.1092, 75.55419
341.5913, 75.96640
342.0735, 76.53495
342.5556, 77.10155
343.0377, 77.45311
343.5198, 77.48400
344.0019, 77.35088
344.4840, 77.25607
344.9662, 77.16581
345.4483, 77.25787
345.9304, 77.79867
346.4125, 78.42547
346.8946, 78.88769
347.3767, 79.14835
347.8589, 79.32136
348.3410, 79.47433
348.8231, 79.61034
349.3052, 79.83516
349.7873, 80.22789
350.2694, 80.64465
350.7516, 80.91442
351.2337, 81.09461
351.7158, 81.42335
352.1979, 82.11762
352.6800, 83.07758
353.1621, 83.96936
353.6443, 84.76570
354.1264, 85.54362
354.6085, 86.32104
355.0906, 87.11697
355.5727, 87.96803
356.0548, 88.92322
356.5370, 89.89571
357.0191, 90.75333
357.5012, 91.47956
357.9833, 92.22598
358.4654, 93.07069
358.9475, 93.95710
359.4297, 94.77895
359.9118, 95.49499
360.3939, 96.31127
360.8760, 97.46408
361.3581, 98.87716
361.8402, 100.1551
362.3224, 101.0938
362.8045, 102.0426
363.2866, 103.4144
363.7687, 105.1606
364.2508, 106.8901
364.7329, 108.3444
365.2151, 109.7229
365.6972, 111.4321
366.1793, 113.5706
366.6614, 115.6857
367.1436, 117.3896
367.6257, 118.7965
368.1078, 120.2579
368.5899, 122.0043
369.0720, 123.6770
369.5541, 125.0392
370.0363, 126.0910
370.5184, 126.8400
371.0005, 127.3881
371.4826, 127.5113
371.9647, 126.7286
372.4468, 124.8220
372.9290, 122.7127
373.4111, 120.8543
373.8932, 119.0143
374.3753, 116.7707
374.8574, 113.9958
375.3395, 110.9170
375.8217, 107.7156
376.3038, 104.3343
376.7859, 101.4184
377.2680, 99.26501
377.7501, 97.44009
378.2322, 95.59291
378.7144, 93.70152
379.1965, 91.89414
379.6786, 90.25294
380.1607, 88.78178
380.6428, 87.42049
381.1249, 86.20030
381.6071, 85.04755
382.0892, 83.83018
382.5713, 82.67027
383.0534, 81.84998
383.5355, 81.50517
384.0176, 81.42011
384.4998, 81.12401
384.9819, 80.43029
385.4640, 79.81914
385.9461, 79.38168
386.4282, 78.98180
386.9103, 78.41338
387.3925, 77.69731
387.8746, 77.14172
388.3567, 77.13414
388.8388, 77.80256
389.3209, 78.08363
389.8030, 77.65755
390.2852, 77.23877
390.7673, 77.09634
391.2494, 77.17006
391.7315, 77.30347
392.2136, 77.40794
392.6957, 77.49044
393.1779, 77.57657
393.6600, 77.67509
394.1421, 77.76390
394.6242, 77.89893
395.1063, 77.99197
395.5884, 77.86921
396.0706, 77.52676
396.5527, 77.24947
397.0348, 77.48473
397.5169, 78.42270
397.9990, 79.10733
398.4811, 79.42371
398.9633, 79.57425
399.4454, 79.44421
399.9275, 79.19815
400.4096, 79.21620
400.8917, 79.83395
401.3738, 80.88000
401.8560, 81.62251
402.3381, 82.00149
402.8202, 82.16944
403.3023, 82.02033
403.7844, 81.78614
404.2665, 81.71083
404.7487, 81.87081
405.2308, 82.14122
405.7129, 82.39246
406.1950, 82.62759
406.6771, 82.82432
407.1592, 82.99915
407.6414, 83.10561
408.1235, 83.14025
408.6056, 83.09354
409.0877, 82.92133
409.5698, 82.60386
410.0519, 82.14310
410.5341, 81.48190
411.0162, 80.55209
411.4983, 79.69075
411.9804, 79.22248
412.4625, 78.93221
412.9446, 78.46410
413.4268, 77.70959
413.9089, 76.85560
414.3910, 76.02930
414.8731, 75.22758
415.3553, 74.42400
415.8374, 73.58515
416.3195, 72.78422
416.8016, 72.14204
417.2837, 71.65486
417.7658, 71.21778
418.2480, 70.86674
418.7301, 70.51855
419.2122, 70.04444
419.6943, 69.43818
420.1764, 68.84670
420.6585, 68.39361
421.1407, 68.06618
421.6228, 67.70810
422.1049, 67.13571
422.5870, 66.72872
423.0691, 66.82412
423.5512, 67.15776
424.0334, 67.21987
424.5155, 66.79949
424.9976, 66.13339
425.4797, 65.66505
425.9618, 65.52670
426.4439, 65.33617
426.9261, 65.02117
427.4082, 64.71159
427.8903, 64.49742
428.3724, 64.38041
428.8545, 64.31107
429.3366, 64.24652
429.8188, 64.18940
430.3009, 64.19505
430.7830, 64.37297
431.2651, 64.49456
431.7472, 64.56858
432.2293, 64.54893
432.7115, 64.31642
433.1936, 63.83745
433.6757, 63.32905
434.1578, 63.20654
434.6399, 63.63844
435.1220, 63.85643
435.6042, 63.55275
436.0863, 63.23223
436.5684, 63.15164
437.0505, 63.27284
437.5326, 63.40936
438.0147, 63.45807
438.4969, 63.41729
438.9790, 63.23400
439.4611, 62.78869
439.9432, 62.50574
440.4253, 62.73286
440.9074, 63.13438
441.3896, 63.36648
441.8717, 63.34679
442.3538, 63.22898
442.8359, 63.11378
443.3180, 63.00698
443.8001, 62.95242
444.2823, 62.97313
444.7644, 63.02176
445.2465, 63.09266
445.7286, 63.16917
446.2107, 63.14242
446.6928, 62.85238
447.1750, 62.53331
447.6571, 62.45408
448.1392, 62.59632
448.6213, 62.73545
449.1034, 62.73833
449.5855, 62.67327
450.0677, 62.75455
450.5498, 63.11329
451.0319, 63.31984
451.5140, 63.13351
451.9961, 62.79568
452.4782, 62.58806
452.9604, 62.56634
453.4425, 62.65955
453.9246, 62.82853
454.4067, 63.10248
454.8888, 63.12029
455.3709, 62.68634
455.8531, 62.25798
456.3352, 62.01589
456.8173, 61.88960
457.2994, 61.72479
457.7815, 61.45012
458.2636, 61.15572
458.7458, 61.04444
459.2279, 61.23883
459.7100, 61.36325
460.1921, 61.29624
460.6742, 61.25814
461.1563, 61.41115
461.6385, 61.72389
462.1206, 62.04292
462.6027, 62.26683
463.0848, 62.39585
463.5669, 62.39655
464.0491, 62.12640
464.5312, 62.02179
465.0133, 62.48171
465.4954, 63.04106
465.9775, 63.18375
466.4597, 62.77076
466.9418, 62.23735
467.4239, 61.96248
467.9060, 61.92168
468.3881, 61.94074
468.8702, 61.98014
469.3524, 62.10636
469.8345, 62.55662
470.3166, 63.16944
470.7987, 63.42076
471.2808, 62.88676
471.7629, 62.16866
472.2451, 61.81462
472.7272, 61.76325
473.2093, 61.68470
473.6914, 61.42088
474.1735, 61.09680
474.6556, 60.96757
475.1378, 61.07600
475.6199, 61.19489
476.1020, 61.28594
476.5841, 61.37649
477.0662, 61.49150
477.5483, 61.63110
478.0305, 61.79303
478.5126, 61.98763
478.9947, 62.19838
479.4768, 62.27449
479.9589, 62.09957
480.4410, 61.92892
480.9232, 61.71077
481.4053, 61.55549
481.8874, 61.63635
482.3695, 61.96610
482.8516, 62.32200
483.3337, 62.42536
483.8159, 62.24625
484.2980, 62.06451
484.7801, 61.78139
485.2622, 61.61636
485.7443, 61.72942
486.2264, 61.98724
486.7086, 62.15415
487.1907, 62.10398
487.6728, 62.02851
488.1549, 62.27087
488.6370, 62.85957
489.1191, 63.29409
489.6013, 63.42690
490.0834, 63.40572
490.5655, 63.35216
491.0476, 63.27010
491.5297, 63.18602
492.0118, 63.08820
492.4940, 63.00677
492.9761, 63.00753
493.4582, 63.08500
493.9403, 63.10568
494.4224, 62.95780
494.9045, 62.74952
495.3867, 62.78592
495.8688, 63.18897
496.3509, 63.48626
496.8330, 63.47729
497.3151, 63.36104
497.7972, 63.35633
498.2794, 63.48127
498.7615, 63.61582
499.2436, 63.65927
499.7257, 63.61506
500.2078, 63.55041
500.6899, 63.42057
501.1721, 63.32413
501.6542, 63.29893
502.1363, 63.30412
502.6184, 63.27422
503.1005, 63.20116
503.5826, 63.16526
504.0648, 63.29482
504.5469, 63.61623
505.0290, 63.84217
505.5111, 63.96248
505.9932, 63.99168
506.4753, 63.88064
506.9575, 63.70414
507.4396, 63.59101
507.9217, 63.60834
508.4038, 63.63656
508.8859, 63.49371
509.3680, 63.19264
509.8502, 62.97270
510.3323, 62.88968
510.8144, 62.89523
511.2965, 63.00376
511.7786, 63.18444
512.2607, 63.24797
512.7429, 63.10109
513.2250, 62.85537
513.7071, 62.56782
514.1892, 62.25566
514.6713, 61.97839
515.1534, 61.76694
515.6356, 61.58568
516.1177, 61.35022
516.5998, 60.94484
517.0819, 60.75733
517.5640, 60.98800
518.0461, 61.28426
518.5283, 61.42964
519.0104, 61.42147
519.4925, 61.34948
519.9746, 61.27816
520.4567, 61.17290
520.9388, 60.87840
521.4210, 60.18794
521.9031, 59.69927
522.3852, 59.56318
522.8673, 59.56131
523.3494, 59.56930
523.8315, 59.56459
524.3137, 59.55795
524.7958, 59.55742
525.2779, 59.56115
525.7600, 59.57955
526.2421, 59.63622
526.7242, 59.61555
527.2064, 59.38765
527.6885, 59.09609
528.1706, 58.93549
528.6527, 58.94477
529.1348, 58.94525
529.6169, 58.76905
530.0991, 58.55268
530.5812, 58.58566
531.0633, 58.89737
531.5454, 59.13922
532.0275, 59.02593
532.5096, 58.62151
532.9918, 58.37420
533.4739, 58.45055
533.9560, 58.44597
534.4381, 58.12593
534.9202, 57.76471
535.4023, 57.70923
535.8845, 57.99403
536.3666, 58.34423
536.8487, 58.47629
537.3308, 58.39132
537.8129, 58.37049
538.2951, 58.50471
538.7772, 58.58283
539.2593, 58.50957
539.7415, 58.38360
540.2236, 58.34508
540.7057, 58.42400
541.1878, 58.44448
541.6699, 58.09645
542.1520, 57.47269
542.6342, 57.26261
543.1163, 57.63022
543.5984, 58.13084
544.0805, 58.59749
544.5626, 58.97431
545.0447, 59.11749
545.5269, 58.87936
546.0090, 58.64996
546.4911, 58.74443
546.9732, 58.98603
547.4553, 58.98144
547.9374, 58.64426
548.4196, 58.30132
548.9017, 58.28611
549.3838, 58.60829
549.8659, 58.79628
550.3480, 58.81891
550.8301, 58.77209
551.3123, 58.57994
551.7944, 58.37840
552.2765, 58.38429
552.7586, 58.62982
553.2407, 58.87758
553.7228, 58.79998
554.2050, 58.36866
554.6871, 58.14302
555.1692, 58.27756
555.6513, 58.40391
556.1334, 58.36760
556.6155, 58.25565
557.0977, 58.17678
557.5798, 58.15990
558.0619, 58.17522
558.5440, 58.25762
559.0261, 58.35798
559.5082, 58.24500
559.9904, 57.83410
560.4725, 57.45331
560.9546, 57.38578
561.4367, 57.57132
561.9188, 57.65597
562.4009, 57.57254
562.8831, 57.46882
563.3652, 57.45675
563.8473, 57.43373
564.3294, 57.22438
564.8115, 56.80663
565.2936, 56.32955
565.7758, 55.91428
566.2579, 55.55888
566.7400, 55.47996
567.2221, 56.00708
567.7042, 56.42261
568.1863, 56.52818
568.6685, 56.50911
569.1506, 56.58222
569.6327, 56.78136
570.1148, 56.92922
570.5969, 56.74252
571.0790, 56.31086
571.5612, 56.26019
572.0433, 56.73906
572.5254, 57.19215
573.0075, 57.32548
573.4896, 57.26150
573.9717, 57.18282
574.4539, 57.11072
574.9360, 56.99299
575.4181, 56.76281
575.9002, 56.49196
576.3823, 56.28107
576.8644, 56.13924
577.3466, 56.02333
577.8287, 55.90080
578.3108, 55.78032
578.7929, 55.70467
579.2750, 55.64856
579.7571, 55.67560
580.2393, 55.81318
580.7214, 56.01671
581.2035, 56.35397
581.6856, 56.74833
582.1677, 56.94087
582.6498, 56.69038
583.1320, 56.13673
583.6141, 55.74657
584.0962, 55.51695
584.5783, 55.46369
585.0604, 55.79683
585.5425, 56.14774
586.0247, 56.15093
586.5068, 55.82818
586.9889, 55.56913
587.4710, 55.67724
587.9531, 55.84925
588.4352, 55.63483
588.9174, 55.11313
589.3995, 54.80927
589.8816, 54.99427
590.3637, 55.37588
590.8458, 55.42239
591.3279, 54.90463
591.8101, 54.71412
592.2922, 55.15606
592.7743, 55.61787
593.2564, 55.78212
593.7385, 55.72066
594.2206, 55.60751
594.7028, 55.52174
595.1849, 55.44318
595.6670, 55.31371
596.1491, 55.10918
596.6312, 55.04732
597.1133, 55.28917
597.5955, 55.48169
598.0776, 55.34603
598.5597, 55.04921
599.0418, 54.93122
599.5239, 55.16154
600.0060, 55.40496
600.4882, 55.35830
600.9703, 55.12613
601.4524, 54.93232
601.9345, 54.81537
602.4166, 54.84258
602.8987, 55.11693
603.3809, 55.61219
603.8630, 55.92284
604.3451, 55.90247
604.8272, 55.91334
605.3093, 56.10185
605.7914, 56.30247
606.2736, 56.34338
606.7557, 56.21101
607.2378, 56.00962
607.7199, 55.80609
608.2020, 55.61602
608.6841, 55.53064
609.1663, 55.58782
609.6484, 55.63905
610.1305, 55.56053
610.6126, 55.51994
611.0947, 55.76234
611.5768, 56.26810
612.0590, 56.54874
612.5411, 56.13540
613.0232, 55.57338
613.5053, 55.54129
613.9874, 55.94709
614.4695, 56.26110
614.9517, 56.24941
615.4338, 56.12105
615.9159, 56.23745
616.3980, 56.73033
616.8801, 57.01007
617.3622, 56.86372
617.8444, 56.75739
618.3265, 56.91206
618.8086, 57.23019
619.2907, 57.55717
619.7728, 57.83588
620.2549, 58.07162
620.7371, 58.25488
621.2192, 58.38852
621.7013, 58.54478
622.1834, 58.70496
622.6655, 58.93736
623.1476, 59.33368
623.6298, 59.81226
624.1119, 60.24038
624.5940, 60.60045
625.0761, 60.93193
625.5582, 61.18742
626.0403, 61.45707
626.5225, 61.88823
627.0046, 62.46901
627.4867, 63.03671
627.9688, 63.49662
628.4509, 63.85915
628.9330, 64.16212
629.4152, 64.35371
629.8973, 64.57858
630.3794, 64.92022
630.8615, 65.22073
631.3436, 65.35915
631.8257, 65.38508
632.3079, 65.44466
632.7900, 65.63003
633.2721, 65.82120
633.7542, 65.82476
634.2363, 65.66226
634.7184, 65.52566
635.2006, 65.44804
635.6827, 65.41313
636.1648, 65.42357
636.6469, 65.47119
637.1291, 65.48990
637.6112, 65.58434
638.0933, 65.52108
638.5754, 65.12379
639.0576, 64.58468
639.5397, 64.05419
640.0218, 63.59581
640.5039, 63.32684
640.9860, 63.39043
641.4681, 63.67280
641.9503, 63.57444
642.4324, 62.89368
642.9145, 62.33751
643.3966, 62.18063
643.8787, 62.09727
644.3608, 61.89293
644.8430, 61.56836
645.3251, 61.18495
645.8072, 60.58463
646.2893, 60.10150
646.7714, 60.21840
647.2535, 60.74971
647.7357, 61.10187
648.2178, 61.10179
648.6999, 60.88484
649.1820, 60.55790
649.6641, 60.10445
650.1462, 59.87698
650.6284, 60.05225
651.1105, 60.22118
651.5926, 60.32701
652.0747, 60.37355
652.5568, 60.37460
653.0389, 60.32802
653.5211, 60.20518
654.0032, 59.93218
654.4853, 59.58812
654.9674, 59.45524
655.4495, 59.56741
655.9316, 59.48246
656.4138, 58.93216
656.8959, 58.27004
657.3780, 57.97171
657.8601, 58.02062
658.3422, 58.12077
658.8243, 58.26331
659.3065, 58.41768
659.7886, 58.66782
660.2707, 58.88679
660.7528, 58.83374
661.2349, 58.45689
661.7170, 57.97380
662.1992, 57.63127
662.6813, 57.42196
663.1634, 57.15472
663.6455, 56.74247
664.1276, 56.44009
664.6097, 56.46039
665.0919, 56.54082
665.5740, 56.40314
666.0561, 56.04253
666.5382, 55.79395
667.0203, 56.00324
667.5024, 56.25255
667.9846, 56.00314
668.4667, 55.39277
668.9488, 54.91412
669.4309, 54.74737
669.9130, 54.78783
670.3951, 54.92619
670.8773, 55.19530
671.3594, 55.29626
671.8415, 55.06882
672.3236, 54.85849
672.8057, 54.71370
673.2878, 54.63619
673.7700, 54.64875
674.2521, 54.74393
674.7342, 54.83805
675.2163, 54.88441
675.6984, 54.88050
676.1805, 54.79891
676.6627, 54.64299
677.1448, 54.49376
677.6269, 54.35162
678.1090, 54.30016
678.5911, 54.48659
679.0732, 54.97631
679.5554, 55.33938
680.0375, 55.51805
680.5196, 55.64203
681.0017, 55.80030
681.4838, 55.91158
681.9659, 55.79883
682.4481, 55.46204
682.9302, 55.18194
683.4123, 55.21903
683.8944, 55.52636
684.3765, 55.98792
684.8586, 56.65938
685.3408, 57.11876
685.8229, 57.10711
686.3050, 56.94927
686.7871, 57.08710
687.2692, 57.50827
687.7513, 57.83635
688.2335, 57.83175
688.7156, 57.91494
689.1977, 58.36748
689.6798, 59.03361
690.1619, 59.70885
690.6440, 60.32381
691.1262, 60.84310
691.6083, 61.19938
692.0904, 61.43176
692.5725, 61.83725
693.0546, 62.48286
693.5367, 63.09912
694.0189, 63.55629
694.5010, 64.00603
694.9831, 64.58559
695.4652, 65.28358
695.9473, 66.00227
696.4294, 66.83178
696.9116, 67.55654
697.3937, 67.91829
697.8758, 68.10257
698.3579, 68.49306
698.8400, 69.15662
699.3221, 69.80552
699.8043, 70.14948
700.2864, 70.23609
700.7685, 70.45345
701.2506, 70.96362
701.7327, 71.25734
702.2148, 71.04744
702.6970, 70.73980
703.1791, 70.62198
703.6612, 70.64147
704.1433, 70.53865
704.6254, 70.17104
705.1075, 69.71369
705.5897, 69.31956
706.0718, 68.93971
706.5539, 68.48665
707.0360, 67.93954
707.5181, 67.28533
708.0002, 66.48310
708.4824, 65.58961
708.9645, 64.89384
709.4466, 64.52356
709.9287, 64.10384
710.4108, 63.58059
710.8929, 63.02177
711.3751, 62.39606
711.8572, 61.76707
712.3393, 61.33197
712.8214, 61.27471
713.3035, 61.12378
713.7856, 60.25899
714.2678, 59.05460
714.7499, 58.36112
715.2320, 58.27097
715.7141, 58.22855
716.1962, 57.86654
716.6783, 57.29799
717.1605, 56.86281
717.6426, 56.65135
718.1247, 56.40133
718.6068, 56.02392
719.0889, 55.70287
719.5710, 55.58712
720.0532, 55.56423
720.5353, 55.40290
721.0174, 55.01029
721.4995, 54.68526
721.9816, 54.73225
722.4637, 54.99305
722.9459, 55.21611
723.4280, 55.36810
723.9101, 55.29406
724.3922, 54.87149
724.8743, 54.33343
725.3564, 54.13873
725.8386, 54.42873
726.3207, 54.55040
726.8028, 54.47736
727.2849, 54.27139
727.7670, 53.84407
728.2491, 53.34756
728.7313, 52.93635
729.2134, 52.64253
729.6955, 52.47024
730.1776, 52.47680
730.6597, 52.57571
731.1418, 52.62720
731.6240, 52.64170
732.1061, 52.71563
732.5882, 52.89471
733.0703, 53.04681
733.5524, 52.99263
734.0345, 52.71922
734.5167, 52.55608
734.9988, 52.61465
735.4809, 52.64097
735.9631, 52.55814
736.4452, 52.45844
736.9273, 52.41928
737.4094, 52.43982
737.8915, 52.46611
738.3737, 52.43747
738.8558, 52.44709
739.3379, 52.68942
739.8200, 53.05570
740.3021, 53.15996
740.7842, 52.92721
741.2664, 52.71732
741.7485, 52.83655
742.2306, 53.20225
742.7127, 53.40572
743.1948, 53.32976
743.6769, 53.30317
744.1591, 53.44033
744.6412, 53.53258
745.1233, 53.37436
745.6054, 53.10706
746.0875, 53.04863
746.5696, 53.34234
747.0518, 53.66553
747.5339, 53.75077
748.0160, 53.70968
748.4981, 53.71622
748.9802, 53.78448
749.4623, 53.89738
749.9445, 54.05616
750.4266, 54.20282
750.9087, 54.22646
751.3908, 54.10423
751.8729, 53.96565
752.3550, 53.75928
752.8372, 53.60495
753.3193, 53.64499
753.8014, 53.69203
754.2835, 53.48929
754.7656, 53.01574
755.2477, 52.61782
755.7299, 52.48413
756.2120, 52.47474
756.6941, 52.50959
757.1762, 52.55522
757.6583, 52.51575
758.1404, 52.37305
758.6226, 52.27082
759.1047, 52.39294
759.5868, 52.66392
760.0689, 52.51243
760.5510, 51.71492
761.0331, 51.09247
761.5153, 50.84191
761.9974, 50.77074
762.4795, 50.77672
762.9616, 50.84369
763.4437, 50.93896
763.9258, 51.17060
764.4080, 51.22545
764.8901, 50.73465
765.3722, 50.12575
765.8543, 49.92806
766.3364, 50.10457
766.8185, 50.30141
767.3007, 50.32747
767.7828, 50.25841
768.2649, 50.21130
768.7470, 50.18505
769.2291, 50.22633
769.7112, 50.39861
770.1934, 50.46826
770.6755, 50.24963
771.1576, 49.90885
771.6397, 49.72816
772.1218, 49.72167
772.6039, 49.74264
773.0861, 49.74251
773.5682, 49.79174
774.0503, 50.08014
774.5324, 50.37170
775.0145, 50.25925
775.4966, 49.71467
775.9788, 49.16128
776.4609, 48.94751
776.9430, 48.97324
777.4251, 49.03865
777.9072, 49.14142
778.3893, 49.15465
778.8715, 49.01551
779.3536, 48.91266
779.8357, 49.04413
780.3178, 49.36057
780.7999, 49.52202
781.2820, 49.44448
781.7642, 49.33587
782.2463, 49.09290
782.7284, 48.92674
783.2105, 49.03485
783.6926, 49.30861
784.1747, 49.52891
784.6569, 49.62469
785.1390, 49.61617
785.6211, 49.44464
786.1032, 49.21108
786.5853, 49.14584
787.0674, 49.23382
787.5496, 49.24114
788.0317, 49.05183
788.5138, 48.86886
788.9959, 49.02311
789.4780, 49.55904
789.9601, 49.77911
790.4423, 49.40149
790.9244, 49.16217
791.4065, 49.31572
791.8886, 49.60604
792.3707, 49.91195
792.8528, 50.18996
793.3350, 50.29026
793.8171, 50.04671
794.2992, 49.77097
794.7813, 49.72475
795.2634, 49.72777
795.7455, 49.45771
796.2277, 48.94985
796.7098, 48.54741
797.1919, 48.46099
797.6740, 48.56863
798.1561, 48.65905
798.6382, 48.73343
799.1204, 48.75008
799.6025, 48.70056
800.0846, 48.59868
800.5667, 48.37056
801.0488, 48.14858
801.5309, 48.22639
802.0131, 48.66567
802.4952, 48.95893
802.9773, 48.99882
803.4594, 48.95737
803.9415, 48.91158
804.4236, 48.82394
804.9058, 48.54739
805.3879, 48.13407
805.8700, 47.94616
806.3521, 48.32420
806.8342, 48.91957
807.3163, 49.22917
807.7985, 49.29202
808.2806, 49.24178
808.7627, 49.10133
809.2448, 48.95782
809.7269, 48.87881
810.2090, 48.83231
810.6912, 48.69531
811.1733, 48.29879
811.6554, 48.21715
812.1375, 48.82024
812.6196, 49.31495
813.1017, 49.34069
813.5839, 49.11604
814.0660, 48.90185
814.5481, 48.73186
815.0302, 48.62556
815.5123, 48.59565
815.9944, 48.62872
816.4766, 48.74334
816.9587, 48.90348
817.4408, 49.06760
817.9229, 49.21370
818.4050, 49.29174
818.8871, 49.25653
819.3693, 49.13044
819.8514, 48.93088
820.3335, 48.64936
820.8156, 48.53716
821.2977, 48.68691
821.7798, 48.84002
822.2620, 48.80017
822.7441, 48.64790
823.2262, 48.61724
823.7083, 48.72701
824.1904, 48.91529
824.6725, 49.37215
825.1547, 49.69661
825.6368, 49.61718
826.1189, 49.34079
826.6010, 49.12236
827.0831, 49.01740
827.5652, 48.97957
828.0474, 48.99018
828.5295, 49.04306
829.0116, 49.16525
829.4937, 49.31974
829.9758, 49.43731
830.4579, 49.49382
830.9401, 49.39429
831.4222, 49.03053
831.9043, 48.54908
832.3864, 48.42894
832.8685, 48.76732
833.3506, 48.98077
833.8328, 48.99056
834.3149, 48.93413
834.7971, 48.81787
835.2792, 48.71357
835.7613, 48.75639
836.2434, 48.97062
836.7255, 49.19234
837.2076, 49.46220
837.6898, 49.65790
838.1719, 49.71738
838.6540, 49.67098
839.1361, 49.49432
839.6182, 49.23214
840.1003, 49.07569
840.5825, 49.17420
841.0646, 49.39207
841.5467, 49.59575
842.0288, 49.76317
842.5109, 49.80172
842.9930, 49.70411
843.4752, 49.57228
843.9573, 49.46868
844.4394, 49.36851
844.9215, 49.18710
845.4036, 48.85030
845.8857, 48.83424
846.3679, 49.37367
846.8500, 49.81781
847.3321, 49.89193
847.8142, 49.78071
848.2963, 49.64808
848.7784, 49.50000
849.2606, 49.37424
849.7427, 49.29185
850.2248, 49.21620
850.7069, 48.95550
851.1890, 48.82300
851.6711, 49.38139
852.1533, 50.37190
852.6354, 50.88397
853.1175, 50.43333
853.5996, 49.69671
854.0817, 49.41279
854.5638, 49.45034
855.0460, 49.52668
855.5281, 49.60868
856.0102, 49.54517
856.4923, 49.25867
856.9744, 48.95646
857.4565, 48.91033
857.9387, 49.11140
858.4208, 49.33714
858.9029, 49.67544
859.3850, 49.81929
859.8671, 49.59905
860.3492, 49.28592
860.8314, 49.04889
861.3135, 48.87795
861.7956, 48.74736
862.2777, 48.65822
862.7598, 48.60295
863.2419, 48.56587
863.7241, 48.57631
864.2062, 48.71431
864.6883, 48.89166
865.1704, 48.96419
865.6525, 48.89787
866.1346, 48.77033
866.6168, 48.58978
867.0989, 48.42616
867.5810, 48.42641
868.0631, 48.54023
868.5452, 48.59875
869.0273, 48.56828
869.5095, 48.49727
869.9916, 48.42461
870.4737, 48.32423
870.9558, 48.09266
871.4379, 47.67163
871.9200, 47.45356
872.4022, 47.50561
872.8843, 47.64584
873.3664, 47.85978
873.8485, 48.07029
874.3306, 48.16719
874.8127, 48.15331
875.2949, 48.05454
875.7770, 47.70426
876.2591, 47.48755
876.7412, 47.64536
877.2233, 47.87907
877.7054, 47.96222
878.1876, 47.88528
878.6697, 47.68191
879.1518, 47.32599
879.6339, 47.03074
880.1160, 47.04392
880.5981, 47.17255
881.0803, 47.10465
881.5624, 46.90104
882.0445, 46.82610
882.5266, 46.96740
883.0087, 47.21492
883.4908, 47.49304
883.9730, 47.75212
884.4551, 47.72800
884.9372, 47.39513
885.4193, 47.24934
885.9014, 47.42552
886.3835, 47.64167
886.8657, 47.71622
887.3478, 47.67775
887.8299, 47.60335
888.3120, 47.49076
888.7941, 47.34875
889.2762, 47.08426
889.7584, 46.90394
890.2405, 46.96833
890.7226, 47.07972
891.2047, 47.01377
891.6868, 46.77826
892.1689, 46.57720
892.6511, 46.43804
893.1332, 46.39833
893.6153, 46.61327
894.0974, 46.83846
894.5795, 46.78887
895.0616, 46.51067
895.5438, 46.18025
896.0259, 45.86885
896.5080, 45.64918
896.9901, 45.63358
897.4722, 45.75494
897.9543, 45.90274
898.4365, 46.05383
898.9186, 46.06971
899.4007, 45.91030
899.8828, 45.74018
900.3649, 45.70353
900.8470, 45.76897
901.3292, 45.83826
901.8113, 45.92954
902.2934, 45.91673
902.7755, 45.72262
903.2576, 45.57782
903.7397, 45.63254
904.2219, 45.77697
904.7040, 45.82265
905.1861, 45.74687
905.6682, 45.74812
906.1503, 45.93954
906.6324, 46.06352
907.1146, 46.10550
907.5967, 46.01750
908.0788, 45.57826
908.5609, 44.98872
909.0430, 44.84419
909.5251, 45.45734
910.0073, 46.00814
910.4894, 45.92189
910.9715, 45.62822
911.4536, 45.54799
911.9357, 45.60476
912.4178, 45.54959
912.9000, 45.34285
913.3821, 45.21670
913.8642, 45.39925
914.3463, 45.71260
914.8284, 45.81087
915.3105, 45.74082
915.7927, 45.72045
916.2748, 45.77774
916.7569, 45.81979
917.2390, 45.79234
917.7211, 45.74347
918.2032, 45.76831
918.6854, 45.87395
919.1675, 45.84291
919.6496, 45.60956
920.1317, 45.44830
920.6138, 45.46656
921.0959, 45.52051
921.5781, 45.46503
922.0602, 45.33693
922.5423, 45.32536
923.0244, 45.58003
923.5065, 45.66722
923.9886, 45.41744
924.4708, 45.17014
924.9529, 45.05537
925.4350, 45.03911
925.9171, 45.12517
926.3992, 45.28965
926.8813, 45.33409
927.3635, 44.98747
927.8456, 44.73123
928.3277, 44.95347
928.8098, 45.33091
929.2919, 45.48825
929.7740, 45.46893
930.2562, 45.54377
930.7383, 45.82127
931.2204, 46.05327
931.7025, 45.90916
932.1846, 45.59896
932.6667, 45.51422
933.1489, 45.61431
933.6310, 45.74828
934.1132, 45.87596
934.5953, 45.98083
935.0774, 46.05006
935.5595, 46.08995
936.0416, 46.12975
936.5237, 46.17037
937.0059, 46.08661
937.4880, 45.84923
937.9701, 45.61340
938.4522, 45.41474
938.9343, 45.30798
939.4164, 45.38372
939.8986, 45.62698
940.3807, 45.76259
940.8628, 45.66637
941.3449, 45.71095
941.8270, 46.06937
942.3091, 46.41287
942.7913, 46.61878
943.2734, 46.67881
943.7555, 46.50240
944.2376, 46.02808
944.7197, 45.81913
945.2018, 46.29668
945.6840, 46.64183
946.1661, 46.35968
946.6482, 45.96045
947.1303, 45.96757
947.6124, 46.27887
948.0945, 46.45094
948.5767, 46.31447
949.0588, 46.12840
949.5409, 46.05931
950.0230, 46.01180
950.5051, 45.79917
950.9872, 45.56776
951.4694, 45.65800
951.9515, 46.08352
952.4336, 46.49542
952.9157, 46.66812
953.3978, 46.66801
953.8799, 46.49884
954.3621, 46.25303
954.8442, 46.22408
955.3263, 46.39555
955.8084, 46.49112
956.2905, 46.40124
956.7726, 46.24028
957.2548, 46.13102
957.7369, 46.06437
958.2190, 45.96485
958.7011, 45.82218
959.1832, 45.90434
959.6653, 46.30441
960.1475, 46.64839
960.6296, 46.68518
961.1117, 46.60963
961.5938, 46.81592
962.0759, 47.36611
962.5580, 47.59277
963.0402, 47.40934
963.5223, 47.06172
964.0044, 46.35697
964.4865, 45.79827
964.9686, 45.91016
965.4507, 46.46133
965.9329, 46.71405
966.4150, 46.54712
966.8971, 46.41000
967.3792, 46.33657
967.8613, 46.29132
968.3434, 46.20503
968.8256, 46.18161
969.3077, 46.41563
969.7898, 46.82926
970.2719, 47.03788
970.7540, 46.86499
971.2361, 46.63501
971.7183, 46.36135
972.2004, 46.19854
972.6825, 46.38783
973.1646, 46.71886
973.6467, 46.84420
974.1288, 46.71140
974.6110, 46.53590
975.0931, 46.42867
975.5752, 46.35412
976.0573, 46.25766
976.5394, 46.18492
977.0215, 46.26472
977.5037, 46.43100
977.9858, 46.42113
978.4679, 46.15680
978.9500, 45.93351
979.4321, 46.12947
979.9142, 46.47201
980.3964, 46.31971
980.8785, 45.83715
981.3606, 45.63462
981.8427, 45.78517
982.3248, 46.03616
982.8069, 46.25736
983.2891, 46.44263
983.7712, 46.59955
984.2533, 46.71543
984.7354, 46.67472
985.2175, 46.47201
985.6996, 46.29329
986.1818, 46.16848
986.6639, 46.15258
987.1460, 46.31568
987.6281, 46.54207
988.1102, 46.54185
988.5923, 46.26056
989.0745, 46.17736
989.5566, 46.36958
990.0387, 46.53003
990.5208, 46.56758
991.0029, 46.55992
991.4850, 46.58618
991.9672, 46.61845
992.4493, 46.53931
992.9314, 46.25585
993.4135, 46.08473
993.8956, 46.07524
994.3777, 46.11323
994.8599, 46.17299
995.3420, 46.25678
995.8241, 46.41129
996.3062, 46.60541
996.7883, 46.66224
997.2704, 46.43705
997.7526, 46.30826
998.2347, 46.43299
998.7168, 46.54490
999.1989, 46.49400
999.6810, 46.36614
1000.163, 46.25672
1000.645, 46.17905
1001.127, 46.13731
1001.609, 46.14227
1002.092, 46.16724
1002.574, 46.20183
1003.056, 46.25204
1003.538, 46.30056
1004.020, 46.37751
1004.502, 46.54021
1004.984, 46.79254
1005.466, 47.07592
1005.949, 47.51134
1006.431, 47.74826
1006.913, 47.29024
1007.395, 46.66790
1007.877, 46.55139
1008.359, 46.80796
1008.841, 46.95887
1009.323, 46.86856
1009.805, 46.80706
1010.288, 47.04692
1010.770, 47.34678
1011.252, 47.37149
1011.734, 47.26383
1012.216, 47.33452
1012.698, 47.53983
1013.180, 47.54333
1013.662, 47.21983
1014.145, 46.91960
1014.627, 47.09172
1015.109, 47.44979
1015.591, 47.33404
1016.073, 46.91653
1016.555, 46.79610
1017.037, 47.01322
1017.519, 47.20137
1018.001, 47.17600
1018.484, 47.05516
1018.966, 46.96922
1019.448, 46.92431
1019.930, 46.98165
1020.412, 47.12075
1020.894, 47.14885
1021.376, 47.03353
1021.858, 46.86127
1022.341, 46.67303
1022.823, 46.51138
1023.305, 46.44376
1023.787, 46.46558
1024.269, 46.56368
1024.751, 46.74944
1025.233, 46.77745
1025.715, 46.58074
1026.198, 46.35442
1026.680, 46.21357
1027.162, 46.14362
1027.644, 46.12351
1028.126, 46.15426
1028.608, 46.20664
1029.090, 46.29807
1029.572, 46.31611
1030.054, 46.20678
1030.536, 46.10942
1031.019, 46.12317
1031.501, 46.20621
1031.983, 46.27046
1032.465, 46.31209
1032.947, 46.36920
1033.429, 46.48013
1033.911, 46.50065
1034.393, 46.36483
1034.876, 46.18980
1035.358, 46.04177
1035.840, 45.92421
1036.322, 45.84059
1036.804, 45.77884
1037.286, 45.81955
1037.768, 46.11986
1038.250, 46.23120
1038.733, 45.89585
1039.215, 45.54123
1039.697, 45.52247
1040.179, 45.69707
1040.661, 45.69344
1041.143, 45.44311
1041.625, 45.26949
1042.107, 45.06633
1042.589, 45.08831
1043.072, 45.61479
1043.554, 46.16307
1044.036, 46.40095
1044.518, 46.40480
1045.000, 46.34767
1045.482, 46.20831
1045.964, 46.12125
1046.446, 46.11553
1046.928, 46.13665
1047.411, 46.15959
1047.893, 46.21521
1048.375, 46.30703
1048.857, 46.45401
1049.339, 46.74341
1049.821, 47.25863
1050.303, 47.52562
1050.785, 47.35093
1051.268, 47.07762
1051.750, 46.60534
1052.232, 46.26563
1052.714, 46.44198
1053.196, 46.92098
1053.678, 47.21173
1054.160, 47.22481
1054.642, 47.17475
1055.125, 46.96991
1055.607, 46.89428
1056.089, 47.21847
1056.571, 47.56438
1057.053, 47.53191
1057.535, 47.30396
1058.017, 47.34263
1058.499, 47.76054
1058.981, 48.08974
1059.464, 48.16668
1059.946, 48.15582
1060.428, 48.04973
1060.910, 47.95062
1061.392, 48.03235
1061.874, 48.15749
1062.356, 48.02120
1062.838, 47.55583
1063.320, 47.06200
1063.803, 46.52075
1064.285, 46.13596
1064.767, 46.15393
1065.249, 46.22788
1065.731, 45.96247
1066.213, 45.56181
1066.695, 45.50465
1067.177, 45.87813
1067.660, 46.18482
1068.142, 46.28962
1068.624, 46.20387
1069.106, 45.68780
1069.588, 45.21100
1070.070, 45.20828
1070.552, 45.51959
1071.034, 45.86325
1071.516, 46.16758
1071.999, 46.32475
1072.481, 46.15944
1072.963, 46.00863
1073.445, 46.01630
1073.927, 46.11275
1074.409, 46.29518
1074.891, 46.49913
1075.373, 46.65546
1075.855, 46.74187
1076.338, 46.70651
1076.820, 46.42364
1077.302, 46.18860
1077.784, 46.09438
1078.266, 46.15292
1078.748, 46.49038
1079.230, 46.92618
1079.712, 47.16850
1080.195, 47.21096
1080.677, 47.31249
1081.159, 47.62945
1081.641, 47.89138
1082.123, 47.92126
1082.605, 47.89931
1083.087, 47.94228
1083.569, 48.02266
1084.052, 48.10979
1084.534, 48.18836
1085.016, 48.23249
1085.498, 48.25620
1085.980, 48.17691
1086.462, 47.90929
1086.944, 47.58039
1087.426, 47.24344
1087.908, 46.91224
1088.391, 46.55089
1088.873, 46.20514
1089.355, 46.05844
1089.837, 46.23256
1090.319, 46.29869
1090.801, 45.91376
1091.283, 45.57795
1091.765, 45.71548
1092.248, 45.92556
1092.730, 45.71729
1093.212, 45.23140
1093.694, 44.98059
1094.176, 45.13290
1094.658, 45.10693
1095.140, 44.44549
1095.622, 43.88333
1096.104, 43.82189
1096.587, 43.93645
1097.069, 44.06142
1097.551, 44.09589
1098.033, 43.82717
1098.515, 43.20337
1098.997, 42.75684
1099.479, 42.75733
1099.961, 42.79902
1100.443, 42.79543
1100.926, 42.73433
1101.408, 42.56102
1101.890, 42.34939
1102.372, 42.20662
1102.854, 42.14524
1103.336, 42.13636
1103.818, 42.29444
1104.300, 42.32718
1104.783, 42.08431
1105.265, 41.79863
1105.747, 41.49448
1106.229, 41.28442
1106.711, 41.38620
1107.193, 41.74377
1107.675, 41.89326
1108.157, 41.61644
1108.640, 41.44045
1109.122, 41.52063
1109.604, 41.60113
1110.086, 41.53060
1110.568, 41.45632
1111.050, 41.57940
1111.532, 41.82473
1112.014, 41.88404
1112.496, 41.64813
1112.979, 41.49008
1113.461, 41.47755
1113.943, 41.47252
1114.425, 41.50533
1114.907, 41.47164
1115.389, 41.21362
1115.871, 40.86321
1116.353, 40.70913
1116.835, 40.76147
1117.318, 40.95813
1117.800, 41.42287
1118.282, 41.81515
1118.764, 42.20971
1119.246, 42.31675
1119.728, 41.78112
1120.210, 41.05014
1120.692, 40.81996
1121.175, 41.08022
1121.657, 41.32680
1122.139, 41.56137
1122.621, 41.79742
1123.103, 42.10089
1123.585, 42.23611
1124.067, 42.05062
1124.549, 41.75213
1125.031, 41.55703
1125.514, 41.45361
1125.996, 41.39066
1126.478, 41.37072
1126.960, 41.37665
1127.442, 41.41054
1127.924, 41.47231
1128.406, 41.58668
1128.888, 41.61374
1129.370, 41.41164
1129.853, 41.11284
1130.335, 41.03241
1130.817, 41.16973
1131.299, 41.36839
1131.781, 41.64455
1132.263, 41.59173
1132.745, 41.10423
1133.227, 40.72109
1133.710, 40.76953
1134.192, 40.95337
1134.674, 40.82033
1135.156, 40.47866
1135.638, 40.40448
1136.120, 40.55762
1136.602, 40.61898
1137.084, 40.55904
1137.567, 40.47708
1138.049, 40.41466
1138.531, 40.44155
1139.013, 40.66281
1139.495, 40.91949
1139.977, 40.86560
1140.459, 40.60284
1140.941, 40.33968
1141.423, 40.14215
1141.906, 40.28334
1142.388, 40.75407
1142.870, 41.03058
1143.352, 40.76761
1143.834, 40.30905
1144.316, 39.95142
1144.798, 39.74031
1145.280, 39.84377
1145.762, 40.10427
1146.245, 40.21729
1146.727, 40.16714
1147.209, 40.06390
1147.691, 39.95237
1148.173, 39.92328
1148.655, 40.18018
1149.137, 40.39829
1149.619, 40.23277
1150.102, 39.92029
1150.584, 39.62719
1151.066, 39.44886
1151.548, 39.58073
1152.030, 40.00812
1152.512, 40.33672
1152.994, 40.38760
1153.476, 40.31878
1153.958, 40.05107
1154.441, 39.86042
1154.923, 40.02685
1155.405, 40.30878
1155.887, 40.41724
1156.369, 40.36340
1156.851, 40.30433
1157.333, 40.27412
1157.815, 40.22164
1158.297, 40.02522
1158.780, 39.95597
1159.262, 40.29186
1159.744, 40.59369
1160.226, 40.49662
1160.708, 40.16779
1161.190, 39.87852
1161.672, 39.62418
1162.154, 39.62893
1162.637, 40.17393
1163.119, 40.43450
1163.601, 40.13170
1164.083, 39.93831
1164.565, 40.23995
1165.047, 40.59823
1165.529, 40.51740
1166.011, 40.12629
1166.494, 39.95367
1166.976, 40.04477
1167.458, 40.12537
1167.940, 40.19022
1168.422, 40.29276
1168.904, 40.47318
1169.386, 40.52283
1169.868, 40.26880
1170.350, 39.94563
1170.833, 39.97530
1171.315, 40.27648
1171.797, 40.34013
1172.279, 40.19527
1172.761, 40.19377
1173.243, 40.36345
1173.725, 40.49998
1174.207, 40.52343
1174.689, 40.45969
1175.172, 40.31205
1175.654, 40.15329
1176.136, 40.13768
1176.618, 40.19314
1177.100, 40.12059
1177.582, 39.98011
1178.064, 39.98935
1178.546, 40.15421
1179.029, 40.27093
1179.511, 40.23713
1179.993, 40.18611
1180.475, 40.18659
1180.957, 40.27279
1181.439, 40.64910
1181.921, 41.00227
1182.403, 40.83995
1182.885, 40.36101
1183.368, 40.03663
1183.850, 39.97080
1184.332, 40.01355
1184.814, 40.19712
1185.296, 40.30577
1185.778, 40.14579
1186.260, 40.00575
1186.742, 40.12354
1187.225, 40.30278
1187.707, 40.28731
1188.189, 40.13929
1188.671, 40.14711
1189.153, 40.42198
1189.635, 40.52389
1190.117, 40.28436
1190.599, 40.08171
1191.082, 39.91763
1191.564, 39.88615
1192.046, 40.10649
1192.528, 40.41648
1193.010, 40.64679
1193.492, 40.76646
1193.974, 40.40818
1194.456, 39.34241
1194.938, 39.13430
1195.421, 40.05716
1195.903, 40.61972
1196.385, 40.32833
1196.867, 39.92007
1197.349, 39.93821
1197.831, 40.19435
1198.313, 40.35930
1198.795, 40.45684
1199.277, 40.62579
1199.760, 40.83675
1200.242, 40.94808
1200.724, 40.93558
1201.206, 40.75390
1201.688, 40.40182
1202.170, 40.05875
1202.652, 39.85689
1203.134, 39.77844
1203.617, 39.88378
1204.099, 40.03369
1204.581, 40.03396
1205.063, 39.92282
1205.545, 39.75026
1206.027, 39.56213
1206.509, 39.45411
1206.991, 39.46415
1207.474, 39.51593
1207.956, 39.58202
1208.438, 39.66249
1208.920, 39.79087
1209.402, 39.90004
1209.884, 39.94942
1210.366, 39.93708
1210.848, 39.82670
1211.330, 39.63735
1211.813, 39.55520
1212.295, 39.70550
1212.777, 39.74779
1213.259, 39.59251
1213.741, 39.46192
1214.223, 39.41632
1214.705, 39.40373
1215.187, 39.39270
1215.669, 39.38748
1216.152, 39.40051
1216.634, 39.42899
1217.116, 39.41752
1217.598, 39.36189
1218.080, 39.32167
1218.562, 39.30304
1219.044, 39.29443
1219.526, 39.29210
1220.009, 39.29351
1220.491, 39.30195
1220.973, 39.28503
1221.455, 39.08524
1221.937, 38.86155
1222.419, 39.17124
1222.901, 39.76366
1223.383, 39.94876
1223.865, 39.70887
1224.348, 39.30497
1224.830, 38.86232
1225.312, 38.67815
1225.794, 39.08265
1226.276, 39.56884
1226.758, 39.80822
1227.240, 39.89827
1227.722, 39.87331
1228.204, 39.78526
1228.687, 39.64701
1229.169, 39.50267
1229.651, 39.50622
1230.133, 39.74773
1230.615, 39.76595
1231.097, 39.17813
1231.579, 38.81002
1232.061, 39.00690
1232.544, 39.22096
1233.026, 39.19786
1233.508, 39.08105
1233.990, 39.01818
1234.472, 39.00294
1234.954, 39.01943
1235.436, 39.08115
1235.918, 39.04833
1236.401, 38.89598
1236.883, 38.95771
1237.365, 39.31333
1237.847, 39.59876
1238.329, 39.61942
1238.811, 39.51884
1239.293, 39.44153
1239.775, 39.39263
1240.257, 39.41990
1240.740, 39.46657
1241.222, 39.36076
1241.704, 39.16579
1242.186, 39.07306
1242.668, 39.10465
1243.150, 39.16015
1243.632, 39.19542
1244.114, 39.26006
1244.596, 39.47406
1245.079, 39.61798
1245.561, 39.48919
1246.043, 39.29386
1246.525, 39.20195
1247.007, 39.16455
1247.489, 39.08745
1247.971, 38.97131
1248.453, 38.87348
1248.936, 38.74771
1249.418, 38.77917
1249.900, 39.05410
1250.382, 39.32844
1250.864, 39.59418
1251.346, 39.76217
1251.828, 39.77952
1252.310, 39.67158
1252.792, 39.43874
1253.275, 39.14455
1253.757, 39.13595
1254.239, 39.36408
1254.721, 39.05754
1255.203, 38.29420
1255.685, 38.06289
1256.167, 38.52523
1256.649, 39.07195
1257.131, 39.38977
1257.614, 39.48151
1258.096, 39.16946
1258.578, 38.86444
1259.060, 39.19361
1259.542, 39.68662
1260.024, 39.76070
1260.506, 39.56041
1260.988, 39.37957
1261.471, 39.26057
1261.953, 39.12736
1262.435, 38.94019
1262.917, 38.83570
1263.399, 38.83584
1263.881, 38.94085
1264.363, 39.29926
1264.845, 39.58525
1265.328, 39.67241
1265.810, 39.55229
1266.292, 39.10991
1266.774, 38.50640
1267.256, 38.45292
1267.738, 39.02837
1268.220, 39.30734
1268.702, 39.27924
1269.184, 39.27124
1269.667, 39.34057
1270.149, 39.37008
1270.631, 39.30597
1271.113, 39.18710
1271.595, 39.03949
1272.077, 38.88462
1272.559, 38.71320
1273.041, 38.58788
1273.523, 38.66310
1274.006, 38.82191
1274.488, 38.86224
1274.970, 38.78218
1275.452, 38.63251
1275.934, 38.42747
1276.416, 38.40257
1276.898, 38.85167
1277.380, 39.18013
1277.863, 39.08317
1278.345, 39.01038
1278.827, 39.32417
1279.309, 39.59274
1279.791, 39.38141
1280.273, 38.93542
1280.755, 38.80844
1281.237, 38.99640
1281.719, 39.16405
1282.202, 39.31574
1282.684, 39.34338
1283.166, 39.23824
1283.648, 39.19840
1284.130, 39.28139
1284.612, 39.32557
1285.094, 39.21979
1285.576, 39.01701
1286.059, 38.64464
1286.541, 38.33736
1287.023, 38.36892
1287.505, 38.75080
##END=



