##NAMES=Elbaite
##RRUFFID=R070564
##IDEAL CHEMISTRY=Na(Al_1.5_Li_1.5_)Al_6_(Si_6_O_18_)(BO_3_)_3_(OH)_3_OH
##LOCALITY=unknown
##OWNER=RRUFF
##SOURCE=Gemological Institute of America
##DESCRIPTION=Green outer portion of a zoned watermelon tourmaline slice, see also R060566 (pink) and R070563 (white)
##STATUS=The identification of this mineral is confirmed by single-crystal X-ray diffraction and chemical analysis.
##URL=rruff.info/R070564
##MEASURED CHEMISTRY=(Na_0.77_[box]_0.19_Ca_0.04_)_Σ=1_(Al_1.69_Li_0.66_Fe^2+^_0.49_Mn_0.12_Mg_0.03_Ti_0.01_)_Σ=3_Al_6.00_(BO_3_)_3_Si_6.00_O_18_((OH)_3.10_F_0.90_)_Σ=4_; H_2_O from stoichiometry after deduction of F; B_2_O_3_ by difference; Li by charge balance
111.6964, 16529.64
112.1785, 16548.80
112.6606, 16564.79
113.1427, 16567.07
113.6248, 16554.73
114.1069, 16537.86
114.5891, 16533.48
115.0712, 16532.76
115.5533, 16559.74
116.0354, 16634.28
116.5175, 16727.69
116.9996, 16815.85
117.4818, 16888.57
117.9639, 16940.60
118.4460, 16942.04
118.9281, 16831.03
119.4102, 16744.34
119.8923, 16737.02
120.3745, 16793.41
120.8566, 16863.08
121.3387, 16924.36
121.8208, 16967.16
122.3029, 16959.70
122.7850, 16840.25
123.2672, 16706.74
123.7493, 16648.59
124.2314, 16676.79
124.7135, 16743.73
125.1956, 16844.18
125.6777, 16959.81
126.1599, 17030.35
126.6420, 16990.27
127.1241, 16882.70
127.6062, 16843.32
128.0883, 16924.04
128.5704, 17030.57
129.0526, 17107.68
129.5347, 17153.78
130.0168, 17167.93
130.4989, 17132.66
130.9810, 17037.53
131.4631, 16974.80
131.9453, 17002.85
132.4274, 17036.76
132.9095, 17026.58
133.3916, 16962.24
133.8737, 16876.40
134.3558, 16826.97
134.8380, 16850.62
135.3201, 16842.93
135.8022, 16744.21
136.2843, 16635.79
136.7664, 16604.01
137.2485, 16691.65
137.7307, 16861.21
138.2128, 16961.65
138.6949, 16940.88
139.1770, 16901.17
139.6591, 16853.21
140.1412, 16795.96
140.6234, 16723.59
141.1055, 16629.80
141.5876, 16515.49
142.0697, 16412.34
142.5518, 16283.60
143.0339, 16193.69
143.5161, 16203.43
143.9982, 16300.26
144.4803, 16393.54
144.9624, 16396.20
145.4445, 16296.51
145.9266, 16229.32
146.4088, 16233.03
146.8909, 16254.98
147.3730, 16229.06
147.8551, 16135.91
148.3372, 16041.19
148.8193, 16030.01
149.3015, 16089.74
149.7836, 16163.48
150.2657, 16242.35
150.7478, 16321.39
151.2299, 16388.72
151.7121, 16443.20
152.1942, 16480.94
152.6763, 16498.67
153.1584, 16496.10
153.6405, 16489.58
154.1226, 16498.26
154.6048, 16523.21
155.0869, 16524.96
155.5690, 16445.04
156.0511, 16368.95
156.5332, 16369.80
157.0153, 16466.36
157.4975, 16582.17
157.9796, 16601.13
158.4617, 16477.05
158.9438, 16375.14
159.4259, 16318.50
159.9080, 16299.46
160.3902, 16322.83
160.8723, 16393.06
161.3544, 16489.54
161.8365, 16551.29
162.3186, 16551.79
162.8007, 16548.89
163.2829, 16576.23
163.7650, 16601.13
164.2471, 16572.36
164.7292, 16452.64
165.2113, 16255.58
165.6934, 16131.82
166.1756, 16129.11
166.6577, 16149.65
167.1398, 16179.54
167.6219, 16215.02
168.1040, 16257.38
168.5861, 16310.71
169.0683, 16377.88
169.5504, 16406.83
170.0325, 16389.41
170.5146, 16349.85
170.9967, 16275.62
171.4788, 16178.07
171.9610, 16111.09
172.4431, 16137.88
172.9252, 16289.34
173.4073, 16375.53
173.8894, 16362.94
174.3715, 16305.10
174.8537, 16231.98
175.3358, 16147.81
175.8179, 16083.68
176.3000, 16097.02
176.7821, 16195.43
177.2642, 16256.76
177.7464, 16207.71
178.2285, 16116.60
178.7106, 16108.09
179.1927, 16232.18
179.6748, 16393.57
180.1569, 16473.88
180.6391, 16478.12
181.1212, 16445.92
181.6033, 16366.25
182.0854, 16256.46
182.5675, 16188.13
183.0496, 16188.83
183.5318, 16232.61
184.0139, 16294.16
184.4960, 16376.86
184.9781, 16444.42
185.4602, 16461.03
185.9423, 16426.15
186.4245, 16389.64
186.9066, 16342.31
187.3887, 16315.57
187.8708, 16344.11
188.3529, 16438.94
188.8350, 16551.86
189.3172, 16632.74
189.7993, 16684.05
190.2814, 16691.80
190.7635, 16603.08
191.2456, 16497.05
191.7277, 16427.17
192.2099, 16411.28
192.6920, 16444.60
193.1741, 16532.18
193.6562, 16728.74
194.1383, 16866.95
194.6204, 16891.48
195.1026, 16860.67
195.5847, 16828.01
196.0668, 16817.42
196.5489, 16824.32
197.0310, 16833.02
197.5131, 16827.10
197.9953, 16847.29
198.4774, 16930.67
198.9595, 17034.49
199.4416, 17100.61
199.9237, 17090.44
200.4058, 17019.56
200.8880, 16992.79
201.3701, 17039.28
201.8522, 17104.22
202.3343, 17190.63
202.8164, 17288.73
203.2985, 17383.99
203.7807, 17466.29
204.2628, 17536.35
204.7449, 17607.22
205.2270, 17652.30
205.7091, 17724.59
206.1912, 17861.89
206.6734, 18044.45
207.1555, 18220.11
207.6376, 18347.23
208.1197, 18423.00
208.6018, 18509.65
209.0839, 18581.92
209.5661, 18684.27
210.0482, 18851.77
210.5303, 19074.66
211.0124, 19310.21
211.4945, 19522.90
211.9766, 19708.87
212.4588, 19890.92
212.9409, 20088.22
213.4230, 20267.87
213.9051, 20371.96
214.3872, 20408.54
214.8693, 20491.23
215.3515, 20745.03
215.8336, 21199.65
216.3157, 21562.96
216.7978, 21764.27
217.2799, 21910.63
217.7620, 22097.20
218.2442, 22336.46
218.7263, 22578.77
219.2084, 22785.45
219.6905, 22955.47
220.1726, 23069.85
220.6547, 23115.54
221.1369, 23108.55
221.6190, 23057.40
222.1011, 22958.26
222.5832, 22843.97
223.0653, 22767.53
223.5474, 22720.52
224.0296, 22609.49
224.5117, 22355.57
224.9938, 22035.46
225.4759, 21779.95
225.9580, 21617.76
226.4401, 21487.28
226.9223, 21332.12
227.4044, 21156.37
227.8865, 20972.78
228.3686, 20781.95
228.8507, 20587.76
229.3328, 20387.74
229.8150, 20162.19
230.2971, 19913.22
230.7792, 19914.47
231.2613, 19891.06
231.7434, 19844.33
232.2255, 19704.41
232.7077, 19684.81
233.1898, 19616.99
233.6719, 19547.21
234.1540, 19544.55
234.6361, 19418.19
235.1182, 19414.47
235.6004, 19361.79
236.0825, 19346.52
236.5646, 19274.62
237.0467, 19289.33
237.5288, 19487.75
238.0109, 19671.06
238.4931, 19683.92
238.9752, 19551.18
239.4573, 19415.42
239.9394, 19388.79
240.4215, 19459.11
240.9036, 19497.69
241.3858, 19477.28
241.8679, 19438.07
242.3500, 19406.63
242.8321, 19380.98
243.3142, 19346.07
243.7963, 19280.53
244.2785, 19185.59
244.7606, 19115.10
245.2427, 19092.71
245.7248, 19077.12
246.2069, 19051.27
246.6890, 19013.73
247.1712, 18965.29
247.6533, 18910.37
248.1354, 18849.41
248.6175, 18761.49
249.0996, 18593.66
249.5817, 18445.26
250.0639, 18387.33
250.5460, 18401.44
251.0281, 18404.50
251.5102, 18301.62
251.9923, 18079.41
252.4744, 17922.33
252.9566, 17880.52
253.4387, 17869.69
253.9208, 17880.27
254.4029, 17898.04
254.8850, 17889.16
255.3671, 17805.64
255.8493, 17634.79
256.3314, 17514.54
256.8135, 17493.67
257.2956, 17486.66
257.7777, 17463.93
258.2599, 17426.60
258.7420, 17390.99
259.2241, 17376.69
259.7062, 17387.51
260.1883, 17377.90
260.6704, 17332.69
261.1526, 17277.95
261.6347, 17213.13
262.1168, 17144.09
262.5989, 17083.46
263.0810, 17038.13
263.5631, 17007.11
264.0453, 17007.12
264.5274, 17091.78
265.0095, 17161.12
265.4916, 17178.50
265.9737, 17150.36
266.4558, 17103.27
266.9380, 17057.23
267.4201, 17012.19
267.9022, 16970.02
268.3843, 16935.54
268.8664, 16899.48
269.3485, 16853.76
269.8307, 16803.48
270.3128, 16761.07
270.7949, 16738.14
271.2770, 16735.03
271.7591, 16727.31
272.2412, 16691.13
272.7234, 16673.56
273.2055, 16721.77
273.6876, 16800.91
274.1697, 16834.51
274.6518, 16756.92
275.1339, 16572.31
275.6161, 16425.69
276.0982, 16334.12
276.5803, 16268.17
277.0624, 16247.83
277.5445, 16247.91
278.0266, 16222.27
278.5088, 16133.85
278.9909, 15990.28
279.4730, 15888.04
279.9551, 15862.97
280.4372, 15845.66
280.9193, 15822.99
281.4015, 15798.00
281.8836, 15778.47
282.3657, 15769.96
282.8478, 15770.20
283.3299, 15765.60
283.8120, 15769.32
284.2942, 15750.55
284.7763, 15701.36
285.2584, 15627.50
285.7405, 15527.64
286.2226, 15395.66
286.7047, 15252.05
287.1869, 15180.72
287.6690, 15267.04
288.1511, 15317.88
288.6332, 15288.54
289.1153, 15213.55
289.5974, 15128.90
290.0796, 15051.17
290.5617, 14983.07
291.0438, 14934.94
291.5259, 14923.26
292.0080, 14907.88
292.4901, 14864.23
292.9723, 14822.92
293.4544, 14823.06
293.9365, 14880.35
294.4186, 14962.66
294.9007, 14998.28
295.3828, 14957.71
295.8650, 14921.17
296.3471, 14891.74
296.8292, 14872.06
297.3113, 14864.40
297.7934, 14869.31
298.2755, 14885.93
298.7577, 14918.42
299.2398, 14990.37
299.7219, 15023.11
300.2040, 14967.22
300.6861, 14905.54
301.1682, 14906.55
301.6504, 14980.14
302.1325, 15071.33
302.6146, 15100.53
303.0967, 15042.24
303.5788, 14999.89
304.0609, 14970.30
304.5431, 14962.53
305.0252, 14997.88
305.5073, 15070.17
305.9894, 15140.50
306.4715, 15161.57
306.9536, 15120.39
307.4358, 15091.47
307.9179, 15074.27
308.4000, 15070.68
308.8821, 15090.22
309.3642, 15127.41
309.8463, 15162.54
310.3285, 15168.34
310.8106, 15141.49
311.2927, 15163.13
311.7748, 15304.14
312.2569, 15424.86
312.7390, 15450.11
313.2212, 15411.57
313.7033, 15392.75
314.1854, 15463.97
314.6675, 15610.89
315.1496, 15714.21
315.6317, 15753.38
316.1139, 15771.06
316.5960, 15765.42
317.0781, 15753.39
317.5602, 15765.54
318.0423, 15829.50
318.5244, 15921.81
319.0066, 15963.10
319.4887, 15928.14
319.9708, 15888.17
320.4529, 15857.13
320.9350, 15838.98
321.4171, 15842.16
321.8993, 15874.21
322.3814, 15919.65
322.8635, 15950.64
323.3456, 15966.61
323.8277, 15969.61
324.3098, 15925.69
324.7920, 15886.14
325.2741, 15908.33
325.7562, 16016.32
326.2383, 16143.21
326.7204, 16198.46
327.2025, 16170.77
327.6847, 16161.56
328.1668, 16239.36
328.6489, 16317.53
329.1310, 16307.01
329.6131, 16192.89
330.0952, 16090.95
330.5774, 16119.01
331.0595, 16269.29
331.5416, 16405.38
332.0237, 16510.80
332.5058, 16582.74
332.9879, 16619.99
333.4701, 16623.71
333.9522, 16613.89
334.4343, 16592.88
334.9164, 16566.39
335.3985, 16556.95
335.8806, 16573.78
336.3628, 16595.53
336.8449, 16601.60
337.3270, 16596.39
337.8091, 16597.81
338.2912, 16621.50
338.7733, 16653.54
339.2555, 16664.12
339.7376, 16645.27
340.2197, 16635.02
340.7018, 16666.15
341.1839, 16728.18
341.6660, 16795.28
342.1482, 16880.22
342.6303, 16956.81
343.1124, 16987.96
343.5945, 16975.09
344.0766, 16973.51
344.5587, 17024.20
345.0409, 17107.59
345.5230, 17159.09
346.0051, 17152.26
346.4872, 17145.33
346.9693, 17188.39
347.4514, 17264.04
347.9336, 17304.13
348.4157, 17270.57
348.8978, 17196.80
349.3799, 17157.95
349.8620, 17150.62
350.3441, 17174.08
350.8263, 17275.06
351.3084, 17396.52
351.7905, 17421.92
352.2726, 17306.25
352.7547, 17156.07
353.2368, 17138.17
353.7190, 17292.85
354.2011, 17454.74
354.6832, 17642.72
355.1653, 17814.46
355.6474, 17907.74
356.1295, 17920.71
356.6117, 17937.21
357.0938, 18050.52
357.5759, 18286.33
358.0580, 18474.31
358.5401, 18556.89
359.0222, 18647.07
359.5044, 18832.46
359.9865, 19087.94
360.4686, 19314.70
360.9507, 19426.49
361.4328, 19433.57
361.9149, 19544.49
362.3971, 19835.20
362.8792, 20138.16
363.3613, 20432.43
363.8434, 20707.25
364.3255, 20937.48
364.8076, 21106.32
365.2898, 21251.64
365.7719, 21494.82
366.2540, 21961.32
366.7361, 22347.68
367.2182, 22592.88
367.7003, 22774.18
368.1825, 22953.10
368.6646, 23150.06
369.1467, 23356.97
369.6288, 23569.41
370.1109, 23812.56
370.5930, 23989.60
371.0752, 24112.89
371.5573, 24160.83
372.0394, 24098.29
372.5215, 23936.93
373.0036, 23732.96
373.4857, 23533.24
373.9679, 23338.45
374.4500, 23134.10
374.9321, 22926.73
375.4142, 22700.32
375.8963, 22447.99
376.3784, 22173.17
376.8606, 21882.91
377.3427, 21582.41
377.8248, 21268.25
378.3069, 20926.66
378.7890, 20542.97
379.2711, 20164.85
379.7533, 19756.91
380.2354, 19384.83
380.7175, 19150.50
381.1996, 19122.38
381.6817, 19139.45
382.1638, 19006.13
382.6460, 18722.17
383.1281, 18456.81
383.6102, 18265.78
384.0923, 18119.86
384.5744, 17981.57
385.0565, 17849.09
385.5387, 17729.24
386.0208, 17638.14
386.5029, 17562.34
386.9850, 17459.43
387.4671, 17310.08
387.9492, 17165.73
388.4314, 17096.27
388.9135, 17094.45
389.3956, 17077.21
389.8777, 17008.63
390.3598, 16928.73
390.8419, 16883.82
391.3241, 16874.99
391.8062, 16863.29
392.2883, 16818.61
392.7704, 16744.03
393.2525, 16680.26
393.7346, 16596.18
394.2168, 16553.63
394.6989, 16618.98
395.1810, 16744.92
395.6631, 16829.13
396.1452, 16821.97
396.6273, 16746.50
397.1095, 16663.76
397.5916, 16521.29
398.0737, 16441.36
398.5558, 16486.38
399.0379, 16565.96
399.5201, 16572.16
400.0022, 16489.58
400.4843, 16414.29
400.9664, 16489.08
401.4485, 16795.69
401.9306, 16965.48
402.4128, 16900.75
402.8949, 16808.73
403.3770, 16789.04
403.8591, 16829.23
404.3412, 16862.97
404.8233, 16835.73
405.3055, 16757.68
405.7876, 16720.09
406.2697, 16757.14
406.7518, 16787.77
407.2339, 16808.74
407.7160, 16805.61
408.1982, 16749.86
408.6803, 16623.13
409.1624, 16477.53
409.6445, 16402.54
410.1266, 16410.34
410.6087, 16427.14
411.0909, 16477.76
411.5730, 16499.34
412.0551, 16426.25
412.5372, 16255.26
413.0193, 16081.14
413.5014, 15967.88
413.9836, 15908.00
414.4657, 15886.25
414.9478, 15932.23
415.4299, 15948.27
415.9120, 15801.80
416.3941, 15546.29
416.8763, 15362.24
417.3584, 15352.74
417.8405, 15401.71
418.3226, 15382.88
418.8047, 15297.78
419.2868, 15220.17
419.7690, 15191.47
420.2511, 15200.89
420.7332, 15209.36
421.2153, 15247.25
421.6974, 15242.62
422.1795, 15131.31
422.6617, 14968.98
423.1438, 14850.70
423.6259, 14807.84
424.1080, 14805.27
424.5901, 14791.87
425.0722, 14768.19
425.5544, 14729.08
426.0365, 14651.09
426.5186, 14576.71
427.0007, 14534.47
427.4828, 14524.73
427.9649, 14534.02
428.4471, 14553.57
428.9292, 14582.83
429.4113, 14602.94
429.8934, 14600.24
430.3755, 14602.45
430.8576, 14635.28
431.3398, 14669.38
431.8219, 14657.63
432.3040, 14577.35
432.7861, 14471.32
433.2682, 14424.60
433.7503, 14458.85
434.2325, 14483.37
434.7146, 14463.13
435.1967, 14443.72
435.6788, 14456.94
436.1609, 14503.14
436.6430, 14554.49
437.1252, 14604.64
437.6073, 14646.17
438.0894, 14629.04
438.5715, 14518.43
439.0536, 14417.69
439.5357, 14416.08
440.0179, 14473.08
440.5000, 14508.09
440.9821, 14485.27
441.4642, 14444.90
441.9463, 14421.92
442.4284, 14415.56
442.9106, 14419.19
443.3927, 14431.17
443.8748, 14450.51
444.3569, 14480.50
444.8390, 14537.49
445.3211, 14562.38
445.8033, 14517.47
446.2854, 14440.82
446.7675, 14370.71
447.2496, 14316.41
447.7317, 14287.51
448.2138, 14299.82
448.6960, 14362.73
449.1781, 14397.70
449.6602, 14374.61
450.1423, 14358.27
450.6244, 14381.33
451.1065, 14431.64
451.5887, 14486.49
452.0708, 14534.91
452.5529, 14569.24
453.0350, 14560.31
453.5171, 14461.17
453.9992, 14402.68
454.4814, 14432.38
454.9635, 14479.59
455.4456, 14487.62
455.9277, 14448.76
456.4098, 14398.70
456.8919, 14359.48
457.3741, 14331.89
457.8562, 14330.01
458.3383, 14393.97
458.8204, 14433.48
459.3026, 14449.87
459.7847, 14373.83
460.2668, 14417.13
460.7489, 14412.61
461.2310, 14406.13
461.7131, 14466.23
462.1953, 14403.63
462.6774, 14462.68
463.1595, 14473.17
463.6416, 14505.88
464.1237, 14490.46
464.6058, 14489.92
465.0880, 14537.51
465.5701, 14558.44
466.0522, 14537.49
466.5343, 14571.62
467.0164, 14463.95
467.4985, 14524.49
467.9807, 14560.58
468.4628, 14573.54
468.9449, 14494.08
469.4270, 14533.96
469.9091, 14526.01
470.3912, 14516.10
470.8734, 14572.78
471.3555, 14506.76
471.8376, 14562.38
472.3197, 14569.45
472.8018, 14598.73
473.2839, 14579.90
473.7661, 14575.93
474.2482, 14620.09
474.7303, 14637.60
475.2124, 14613.23
475.6945, 14643.93
476.1766, 14576.23
476.6588, 14594.88
477.1409, 14650.78
477.6230, 14628.82
478.1051, 14660.40
478.5872, 14671.59
479.0693, 14590.13
479.5515, 14669.80
480.0336, 14679.79
480.5157, 14618.22
480.9978, 14692.37
481.4799, 14640.67
481.9620, 14633.88
482.4442, 14660.91
482.9263, 14652.69
483.4084, 14700.04
483.8905, 14693.86
484.3726, 14682.90
484.8547, 14692.80
485.3369, 14672.58
485.8190, 14664.46
486.3011, 14691.74
486.7832, 14747.99
487.2653, 14802.71
487.7474, 14837.23
488.2296, 14852.29
488.7117, 14850.91
489.1938, 14814.62
489.6759, 14783.79
490.1580, 14749.17
490.6401, 14727.95
491.1223, 14745.01
491.6044, 14800.44
492.0865, 14860.03
492.5686, 14882.74
493.0507, 14865.35
493.5328, 14863.12
494.0150, 14881.04
494.4971, 14909.02
494.9792, 14955.70
495.4613, 15006.19
495.9434, 15032.50
496.4255, 15016.46
496.9077, 14986.25
497.3898, 14978.96
497.8719, 14993.05
498.3540, 14998.57
498.8361, 14980.86
499.3182, 14958.24
499.8004, 14954.30
500.2825, 14968.21
500.7646, 14993.48
501.2467, 15061.86
501.7288, 15119.32
502.2109, 15086.56
502.6931, 14975.57
503.1752, 14893.44
503.6573, 14919.89
504.1394, 15031.57
504.6215, 15090.66
505.1036, 15018.76
505.5858, 14993.81
506.0679, 15101.42
506.5500, 15229.67
507.0321, 15246.96
507.5142, 15135.44
507.9963, 15003.98
508.4785, 14991.98
508.9606, 15115.42
509.4427, 15152.25
509.9248, 15027.36
510.4069, 14908.42
510.8890, 14868.22
511.3712, 14875.37
511.8533, 14871.81
512.3354, 14826.11
512.8175, 14785.24
513.2996, 14839.69
513.7817, 14977.68
514.2639, 15016.87
514.7460, 14867.52
515.2281, 14665.16
515.7102, 14587.34
516.1923, 14628.50
516.6744, 14657.79
517.1566, 14637.52
517.6387, 14601.04
518.1208, 14567.55
518.6029, 14542.12
519.0850, 14536.52
519.5671, 14559.83
520.0493, 14603.99
520.5314, 14641.60
521.0135, 14699.45
521.4956, 14712.00
521.9777, 14625.86
522.4598, 14529.78
522.9420, 14510.60
523.4241, 14565.89
523.9062, 14615.69
524.3883, 14571.67
524.8704, 14449.20
525.3525, 14411.86
525.8347, 14516.44
526.3168, 14601.99
526.7989, 14602.45
527.2810, 14552.32
527.7631, 14484.01
528.2452, 14399.69
528.7274, 14320.70
529.2095, 14253.82
529.6916, 14205.60
530.1737, 14211.46
530.6558, 14290.83
531.1379, 14364.66
531.6201, 14343.81
532.1022, 14228.24
532.5843, 14178.87
533.0664, 14261.06
533.5485, 14345.45
534.0306, 14363.29
534.5128, 14340.13
534.9949, 14332.21
535.4770, 14361.80
535.9591, 14400.34
536.4412, 14398.21
536.9233, 14343.43
537.4055, 14279.06
537.8876, 14162.42
538.3697, 14077.22
538.8518, 14078.58
539.3339, 14142.06
539.8160, 14205.84
540.2982, 14232.99
540.7803, 14247.15
541.2624, 14298.71
541.7445, 14392.30
542.2266, 14475.55
542.7087, 14538.26
543.1909, 14577.47
543.6730, 14610.34
544.1551, 14639.71
544.6372, 14585.57
545.1193, 14321.32
545.6014, 14024.08
546.0836, 13898.47
546.5657, 13934.15
547.0478, 13986.91
547.5299, 13974.49
548.0120, 13913.73
548.4941, 13863.41
548.9763, 13825.32
549.4584, 13796.30
549.9405, 13731.07
550.4226, 13771.50
550.9047, 13787.28
551.3868, 13779.74
551.8690, 13679.00
552.3511, 13698.60
552.8332, 13669.98
553.3153, 13639.38
553.7974, 13675.92
554.2795, 13588.74
554.7617, 13624.21
555.2438, 13610.72
555.7259, 13619.64
556.2080, 13580.04
556.6901, 13555.42
557.1722, 13579.35
557.6544, 13576.39
558.1365, 13531.20
558.6186, 13541.55
559.1007, 13452.67
559.5828, 13450.86
560.0649, 13486.62
560.5471, 13443.87
561.0292, 13455.10
561.5113, 13445.78
561.9934, 13343.02
562.4755, 13402.75
562.9576, 13392.21
563.4398, 13309.51
563.9219, 13363.67
564.4040, 13290.92
564.8861, 13263.48
565.3682, 13270.12
565.8503, 13288.78
566.3325, 13319.78
566.8146, 13306.22
567.2967, 13226.71
567.7788, 13273.11
568.2609, 13295.06
568.7430, 13293.88
569.2252, 13200.28
569.7073, 13226.02
570.1894, 13203.93
570.6715, 13179.88
571.1536, 13222.42
571.6357, 13142.26
572.1179, 13183.74
572.6000, 13176.67
573.0821, 13191.81
573.5642, 13158.84
574.0463, 13140.73
574.5284, 13170.75
575.0106, 13174.12
575.4927, 13135.61
575.9748, 13152.17
576.4569, 13070.33
576.9390, 13074.84
577.4211, 13116.60
577.9033, 13080.50
578.3854, 13097.94
578.8675, 13095.00
579.3496, 12999.39
579.8317, 13064.92
580.3138, 13060.77
580.7960, 12985.06
581.2781, 13045.07
581.7602, 12979.23
582.2423, 12958.31
582.7244, 12971.19
583.2065, 12948.84
583.6887, 12982.04
584.1708, 12961.72
584.6529, 12883.66
585.1350, 12926.88
585.6171, 12945.66
586.0992, 12941.31
586.5814, 12844.53
587.0635, 12867.10
587.5456, 12841.84
588.0277, 12814.62
588.5098, 12853.99
588.9919, 12770.66
589.4741, 12808.96
589.9562, 12798.71
590.4383, 12810.69
590.9204, 12774.54
591.4025, 12753.26
591.8846, 12780.11
592.3668, 12780.31
592.8489, 12738.62
593.3310, 12752.01
593.8131, 12667.00
594.2952, 12668.33
594.7773, 12706.92
595.2595, 12667.65
595.7416, 12681.92
596.2237, 12675.80
596.7058, 12577.02
597.1879, 12639.38
597.6700, 12632.05
598.1522, 12553.17
598.6343, 12610.01
599.1164, 12540.99
599.5985, 12516.90
600.0806, 12526.61
600.5627, 12501.08
601.0449, 12531.12
601.5270, 12507.62
602.0091, 12479.35
602.4912, 12471.94
602.9733, 12405.39
603.4554, 12445.15
603.9376, 12449.89
604.4197, 12474.17
604.9018, 12495.90
605.3839, 12512.02
605.8660, 12515.09
606.3481, 12492.01
606.8303, 12443.51
607.3124, 12378.52
607.7945, 12294.63
608.2766, 12210.60
608.7587, 12189.21
609.2408, 12300.41
609.7230, 12373.61
610.2051, 12401.30
610.6872, 12396.64
611.1693, 12342.73
611.6514, 12260.92
612.1335, 12215.29
612.6157, 12260.50
613.0978, 12348.88
613.5799, 12368.87
614.0620, 12314.16
614.5441, 12267.26
615.0262, 12247.64
615.5084, 12249.87
615.9905, 12279.86
616.4726, 12336.81
616.9547, 12365.08
617.4368, 12313.90
617.9189, 12265.92
618.4011, 12297.36
618.8832, 12377.22
619.3653, 12427.93
619.8474, 12417.47
620.3295, 12371.56
620.8116, 12328.62
621.2938, 12281.75
621.7759, 12263.71
622.2580, 12273.54
622.7401, 12315.93
623.2222, 12420.77
623.7043, 12552.05
624.1865, 12655.81
624.6686, 12720.48
625.1507, 12734.93
625.6328, 12640.79
626.1149, 12486.87
626.5970, 12442.56
627.0792, 12546.17
627.5613, 12671.45
628.0434, 12713.71
628.5255, 12679.40
629.0076, 12654.38
629.4897, 12621.50
629.9719, 12617.73
630.4540, 12675.19
630.9361, 12750.39
631.4182, 12806.39
631.9003, 12834.35
632.3824, 12836.47
632.8646, 12803.77
633.3467, 12748.86
633.8288, 12733.67
634.3109, 12768.68
634.7930, 12804.45
635.2751, 12838.97
635.7573, 12732.87
636.2394, 12837.26
636.7215, 12903.95
637.2036, 12934.56
637.6857, 12842.49
638.1678, 12892.43
638.6500, 12875.43
639.1321, 12848.83
639.6142, 12898.29
640.0963, 12787.23
640.5784, 12821.06
641.0605, 12787.04
641.5427, 12783.16
642.0248, 12734.92
642.5069, 12692.08
642.9890, 12665.14
643.4711, 12673.57
643.9532, 12698.73
644.4354, 12704.56
644.9175, 12675.87
645.3996, 12633.04
645.8817, 12588.28
646.3638, 12544.67
646.8459, 12511.62
647.3281, 12491.10
647.8102, 12476.88
648.2923, 12465.38
648.7744, 12455.94
649.2565, 12440.09
649.7386, 12387.78
650.2208, 12368.62
650.7029, 12443.37
651.1850, 12521.42
651.6671, 12505.05
652.1492, 12398.47
652.6313, 12292.65
653.1135, 12256.91
653.5956, 12272.46
654.0777, 12299.19
654.5598, 12341.33
655.0419, 12344.48
655.5240, 12264.94
656.0062, 12168.79
656.4883, 12160.03
656.9704, 12242.63
657.4525, 12296.34
657.9346, 12280.40
658.4167, 12256.09
658.8989, 12280.27
659.3810, 12318.35
659.8631, 12283.92
660.3452, 12149.51
660.8273, 12007.31
661.3094, 12011.70
661.7916, 12179.86
662.2737, 12232.57
662.7558, 12107.42
663.2379, 11977.84
663.7200, 11924.78
664.2021, 11918.36
664.6843, 11928.15
665.1664, 11958.49
665.6485, 11973.93
666.1306, 11957.42
666.6127, 11917.36
667.0948, 11853.46
667.5770, 11772.52
668.0591, 11697.98
668.5412, 11642.10
669.0233, 11609.05
669.5054, 11618.38
669.9875, 11709.61
670.4697, 11747.75
670.9518, 11641.23
671.4339, 11557.63
671.9160, 11622.54
672.3981, 11770.71
672.8802, 11831.65
673.3624, 11702.22
673.8445, 11549.56
674.3266, 11538.69
674.8087, 11621.36
675.2908, 11678.89
675.7729, 11688.29
676.2551, 11672.62
676.7372, 11649.03
677.2193, 11618.25
677.7014, 11587.20
678.1835, 11529.09
678.6656, 11508.75
679.1478, 11533.05
679.6299, 11603.03
680.1120, 11648.35
680.5941, 11670.36
681.0762, 11599.16
681.5583, 11648.31
682.0405, 11649.24
682.5226, 11648.18
683.0047, 11714.26
683.4868, 11656.63
683.9689, 11721.65
684.4510, 11737.70
684.9332, 11776.17
685.4153, 11766.12
685.8974, 11771.04
686.3795, 11824.52
686.8616, 11851.11
687.3438, 11835.47
687.8259, 11875.36
688.3080, 11816.02
688.7901, 11843.76
689.2722, 11909.07
689.7543, 11895.86
690.2365, 11936.64
690.7186, 11956.86
691.2007, 11883.65
691.6828, 11907.41
692.1649, 11896.56
692.6470, 11908.35
693.1292, 11971.56
693.6113, 12098.11
694.0934, 12221.73
694.5755, 12375.15
695.0576, 12489.15
695.5397, 12485.80
696.0219, 12437.61
696.5040, 12467.64
696.9861, 12610.78
697.4682, 12770.60
697.9503, 12834.79
698.4324, 12818.63
698.9146, 12801.88
699.3967, 12774.16
699.8788, 12809.69
700.3609, 12971.53
700.8430, 13194.99
701.3251, 13352.89
701.8073, 13426.71
702.2894, 13517.36
702.7715, 13685.72
703.2536, 13829.80
703.7357, 13852.02
704.2178, 13808.96
704.7000, 13802.04
705.1821, 13935.40
705.6642, 14044.10
706.1463, 14129.48
706.6284, 14121.66
707.1105, 14234.18
707.5927, 14298.50
708.0748, 14360.82
708.5569, 14490.27
709.0390, 14496.02
709.5211, 14624.41
710.0032, 14703.84
710.4854, 14805.70
710.9675, 14839.60
711.4496, 14909.92
711.9317, 14927.27
712.4138, 14888.95
712.8959, 14939.25
713.3781, 14964.89
713.8602, 14967.21
714.3423, 14876.34
714.8244, 14905.81
715.3065, 14887.05
715.7886, 14866.31
716.2708, 14912.72
716.7529, 14835.40
717.2350, 14801.92
717.7171, 14758.99
718.1992, 14761.36
718.6813, 14718.37
719.1635, 14559.24
719.6456, 14392.96
720.1277, 14309.83
720.6098, 14289.62
721.0919, 14268.14
721.5740, 14215.27
722.0562, 14141.78
722.5383, 14066.98
723.0204, 13965.35
723.5025, 13880.63
723.9846, 13728.41
724.4667, 13571.31
724.9489, 13423.68
725.4310, 13291.05
725.9131, 13192.44
726.3952, 13147.22
726.8773, 13087.27
727.3594, 12977.57
727.8416, 12869.81
728.3237, 12822.14
728.8058, 12805.57
729.2879, 12739.29
729.7700, 12582.79
730.2521, 12407.37
730.7343, 12316.65
731.2164, 12302.48
731.6985, 12297.92
732.1806, 12303.04
732.6627, 12292.33
733.1448, 12248.25
733.6270, 12179.28
734.1091, 12106.67
734.5912, 12029.31
735.0733, 11951.95
735.5554, 11847.35
736.0375, 11769.06
736.5197, 11766.11
737.0018, 11812.04
737.4839, 11857.55
737.9660, 11884.20
738.4481, 11882.65
738.9302, 11822.20
739.4124, 11721.41
739.8945, 11664.77
740.3766, 11661.54
740.8587, 11671.31
741.3408, 11675.93
741.8229, 11675.11
742.3051, 11668.87
742.7872, 11663.32
743.2693, 11637.80
743.7514, 11535.64
744.2335, 11472.88
744.7156, 11538.80
745.1978, 11670.88
745.6799, 11775.69
746.1620, 11823.96
746.6441, 11813.72
747.1262, 11695.75
747.6083, 11529.68
748.0905, 11454.86
748.5726, 11475.37
749.0547, 11530.29
749.5368, 11596.33
750.0189, 11663.65
750.5010, 11717.78
750.9832, 11770.75
751.4653, 11767.37
751.9474, 11624.61
752.4295, 11519.27
752.9116, 11551.40
753.3937, 11628.98
753.8759, 11626.86
754.3580, 11519.56
754.8401, 11408.29
755.3222, 11346.38
755.8043, 11321.64
756.2864, 11341.27
756.7686, 11387.97
757.2507, 11395.07
757.7328, 11335.82
758.2149, 11251.46
758.6970, 11196.95
759.1791, 11174.21
759.6613, 11155.01
760.1434, 11144.36
760.6255, 11128.63
761.1076, 11104.80
761.5897, 11073.09
762.0718, 11022.77
762.5540, 10954.73
763.0361, 10917.43
763.5182, 10976.09
764.0003, 11023.83
764.4824, 10958.04
764.9645, 10832.44
765.4467, 10754.73
765.9288, 10747.71
766.4109, 10744.84
766.8930, 10669.53
767.3751, 10672.57
767.8572, 10676.51
768.3394, 10622.86
768.8215, 10685.07
769.3036, 10653.53
769.7857, 10591.30
770.2678, 10552.41
770.7499, 10536.84
771.2321, 10549.27
771.7142, 10651.53
772.1963, 10705.19
772.6784, 10619.36
773.1605, 10496.28
773.6426, 10444.49
774.1248, 10464.01
774.6069, 10484.81
775.0890, 10461.86
775.5711, 10416.38
776.0532, 10378.17
776.5353, 10347.97
777.0175, 10327.95
777.4996, 10316.71
777.9817, 10334.31
778.4638, 10411.25
778.9459, 10523.25
779.4280, 10556.20
779.9102, 10431.30
780.3923, 10349.52
780.8744, 10359.51
781.3565, 10368.73
781.8386, 10300.85
782.3207, 10196.79
782.8029, 10159.14
783.2850, 10240.74
783.7671, 10312.32
784.2492, 10235.53
784.7313, 10106.69
785.2134, 10089.60
785.6956, 10179.91
786.1777, 10280.43
786.6598, 10344.14
787.1419, 10367.77
787.6240, 10330.80
788.1061, 10215.33
788.5883, 10157.41
789.0704, 10176.87
789.5525, 10218.44
790.0346, 10277.35
790.5167, 10335.13
790.9988, 10363.79
791.4810, 10357.85
791.9631, 10359.07
792.4452, 10402.00
792.9273, 10430.34
793.4094, 10401.00
793.8915, 10336.45
794.3737, 10261.70
794.8558, 10189.22
795.3379, 10146.12
795.8200, 10172.48
796.3021, 10239.72
796.7842, 10264.78
797.2664, 10248.00
797.7485, 10226.80
798.2306, 10211.98
798.7127, 10194.53
799.1948, 10163.40
799.6769, 10119.41
800.1591, 10082.68
800.6412, 10066.51
801.1233, 10039.80
801.6054, 9970.442
802.0875, 9913.829
802.5696, 9912.997
803.0518, 9961.158
803.5339, 10030.29
804.0160, 10127.57
804.4981, 10205.40
804.9802, 10212.80
805.4623, 10180.32
805.9445, 10152.64
806.4266, 10136.93
806.9087, 10131.86
807.3908, 10137.18
807.8729, 10150.09
808.3550, 10175.08
808.8372, 10220.06
809.3193, 10198.99
809.8014, 10069.15
810.2835, 9958.572
810.7656, 9938.589
811.2477, 9974.556
811.7299, 10000.92
812.2120, 10013.31
812.6941, 10035.31
813.1762, 10099.84
813.6583, 10143.17
814.1404, 10105.45
814.6226, 10037.60
815.1047, 10021.29
815.5868, 10070.60
816.0689, 10117.09
816.5510, 10102.48
817.0331, 10051.30
817.5153, 9985.696
817.9974, 9917.517
818.4795, 9929.847
818.9616, 10049.89
819.4437, 10158.39
819.9258, 10128.89
820.4080, 9982.938
820.8901, 9892.711
821.3722, 9871.339
821.8543, 9877.586
822.3364, 9924.003
822.8185, 9978.854
823.3007, 10031.00
823.7828, 10075.19
824.2649, 10094.27
824.7470, 10066.67
825.2291, 10051.16
825.7112, 10067.46
826.1934, 10108.16
826.6755, 10181.75
827.1576, 10272.66
827.6397, 10351.19
828.1218, 10404.81
828.6040, 10426.31
829.0861, 10389.00
829.5682, 10311.51
830.0504, 10269.40
830.5325, 10265.82
831.0146, 10261.99
831.4967, 10239.79
831.9788, 10217.21
832.4609, 10221.56
832.9431, 10255.87
833.4252, 10268.66
833.9073, 10318.82
834.3894, 10344.53
834.8715, 10347.11
835.3536, 10257.27
835.8358, 10286.77
836.3179, 10268.44
836.8000, 10248.15
837.2821, 10294.45
837.7642, 10218.05
838.2463, 10263.29
838.7285, 10259.98
839.2106, 10278.88
839.6927, 10249.67
840.1748, 10235.32
840.6569, 10269.11
841.1390, 10276.24
841.6212, 10241.49
842.1033, 10261.81
842.5854, 10183.73
843.0675, 10208.56
843.5496, 10227.81
844.0317, 10191.16
844.5139, 10128.12
844.9960, 10095.03
845.4781, 10100.65
845.9602, 10099.69
846.4423, 10084.29
846.9244, 10071.90
847.4066, 10072.81
847.8887, 10075.09
848.3708, 10068.52
848.8529, 10051.91
849.3350, 10024.44
849.8171, 9959.400
850.2993, 9912.611
850.7814, 9933.111
851.2635, 9983.947
851.7456, 9965.340
852.2277, 10006.41
852.7098, 10023.03
853.1920, 10016.51
853.6741, 9917.583
854.1562, 9937.991
854.6383, 9910.573
855.1204, 9881.194
855.6025, 9918.400
856.0847, 9832.906
856.5668, 9869.057
857.0489, 9856.649
857.5310, 9866.464
858.0131, 9828.158
858.4952, 9804.717
858.9774, 9829.406
859.4595, 9827.448
859.9416, 9783.602
860.4237, 9756.016
860.9058, 9735.328
861.3879, 9704.936
861.8701, 9686.120
862.3522, 9682.037
862.8343, 9693.285
863.3164, 9748.109
863.7985, 9801.313
864.2806, 9787.689
864.7628, 9714.290
865.2449, 9644.873
865.7270, 9614.807
866.2091, 9610.139
866.6912, 9620.184
867.1733, 9639.856
867.6555, 9649.089
868.1376, 9647.533
868.6197, 9666.826
869.1018, 9729.530
869.5839, 9795.684
870.0660, 9781.385
870.5482, 9670.724
871.0303, 9610.979
871.5124, 9610.567
871.9945, 9645.490
872.4766, 9749.447
872.9587, 9848.516
873.4409, 9831.125
873.9230, 9699.894
874.4051, 9607.289
874.8872, 9582.043
875.3693, 9571.440
875.8514, 9567.933
876.3336, 9567.399
876.8157, 9558.476
877.2978, 9549.201
877.7799, 9566.981
878.2620, 9630.675
878.7441, 9700.990
879.2263, 9767.429
879.7084, 9807.640
880.1905, 9764.101
880.6726, 9658.614
881.1547, 9584.147
881.6368, 9580.772
882.1190, 9605.460
882.6011, 9601.591
883.0832, 9574.521
883.5653, 9556.716
884.0474, 9546.973
884.5295, 9566.425
885.0117, 9629.123
885.4938, 9701.695
885.9759, 9757.215
886.4580, 9793.416
886.9401, 9780.359
887.4222, 9667.447
887.9044, 9591.751
888.3865, 9575.601
888.8686, 9588.128
889.3507, 9635.164
889.8328, 9693.950
890.3149, 9718.630
890.7971, 9697.772
891.2792, 9659.075
891.7613, 9594.756
892.2434, 9532.735
892.7255, 9494.271
893.2076, 9471.469
893.6898, 9449.994
894.1719, 9426.543
894.6540, 9407.950
895.1361, 9398.850
895.6182, 9398.339
896.1003, 9412.956
896.5825, 9434.856
897.0646, 9429.658
897.5467, 9395.322
898.0288, 9385.328
898.5109, 9441.044
898.9930, 9532.198
899.4752, 9592.575
899.9573, 9622.924
900.4394, 9606.288
900.9215, 9528.673
901.4036, 9445.445
901.8857, 9370.704
902.3679, 9319.130
902.8500, 9318.410
903.3321, 9377.188
903.8142, 9431.065
904.2963, 9501.034
904.7784, 9538.480
905.2606, 9516.732
905.7427, 9472.706
906.2248, 9415.262
906.7069, 9359.672
907.1890, 9359.477
907.6711, 9464.373
908.1533, 9559.940
908.6354, 9594.035
909.1175, 9597.775
909.5996, 9579.572
910.0817, 9559.118
910.5638, 9588.085
911.0460, 9682.803
911.5281, 9744.450
912.0102, 9627.480
912.4923, 9448.332
912.9744, 9436.272
913.4565, 9545.991
913.9387, 9591.663
914.4208, 9529.498
914.9029, 9461.800
915.3850, 9477.930
915.8671, 9548.403
916.3492, 9579.321
916.8314, 9567.069
917.3135, 9591.183
917.7956, 9680.009
918.2777, 9721.229
918.7598, 9626.936
919.2419, 9479.919
919.7241, 9450.128
920.2062, 9574.221
920.6883, 9650.302
921.1704, 9671.764
921.6525, 9653.077
922.1346, 9529.353
922.6168, 9421.178
923.0989, 9467.186
923.5810, 9640.164
924.0631, 9749.707
924.5452, 9722.309
925.0273, 9681.771
925.5095, 9665.011
925.9916, 9649.065
926.4737, 9604.936
926.9558, 9549.721
927.4379, 9522.342
927.9200, 9535.686
928.4022, 9561.938
928.8843, 9583.684
929.3664, 9605.699
929.8485, 9649.273
930.3306, 9694.169
930.8127, 9684.217
931.2949, 9614.740
931.7770, 9543.661
932.2591, 9512.304
932.7412, 9514.832
933.2233, 9547.988
933.7054, 9607.022
934.1876, 9670.997
934.6697, 9737.388
935.1518, 9774.487
935.6339, 9762.084
936.1160, 9727.234
936.5981, 9715.952
937.0803, 9729.954
937.5624, 9724.367
938.0445, 9692.149
938.5266, 9661.082
939.0087, 9633.279
939.4908, 9616.973
939.9730, 9621.874
940.4551, 9645.494
940.9372, 9670.682
941.4193, 9715.682
941.9014, 9733.890
942.3835, 9704.607
942.8657, 9670.534
943.3478, 9640.083
943.8299, 9622.868
944.3120, 9646.414
944.7941, 9718.523
945.2762, 9742.649
945.7584, 9624.357
946.2405, 9527.824
946.7226, 9552.456
947.2047, 9631.190
947.6868, 9698.459
948.1689, 9744.958
948.6511, 9779.567
949.1332, 9803.801
949.6153, 9827.627
950.0974, 9886.336
950.5795, 9932.730
951.0616, 9864.197
951.5438, 9727.675
952.0259, 9677.516
952.5080, 9758.818
952.9901, 9858.089
953.4722, 9863.075
953.9543, 9811.744
954.4365, 9789.710
954.9186, 9791.509
955.4007, 9779.210
955.8828, 9747.443
956.3649, 9744.741
956.8470, 9807.668
957.3292, 9894.516
957.8113, 9909.701
958.2934, 9845.844
958.7755, 9846.778
959.2576, 9931.678
959.7397, 9997.918
960.2219, 10013.03
960.7040, 9989.050
961.1861, 9926.424
961.6682, 9832.639
962.1503, 9794.411
962.6324, 9841.748
963.1146, 9882.954
963.5967, 9915.717
964.0788, 9934.475
964.5609, 9921.484
965.0430, 9897.979
965.5251, 9899.425
966.0073, 9929.509
966.4894, 9967.667
966.9715, 10015.53
967.4536, 10066.51
967.9357, 10141.64
968.4178, 10200.96
968.9000, 10191.14
969.3821, 10131.01
969.8642, 10102.19
970.3463, 10152.36
970.8284, 10175.88
971.3105, 10100.46
971.7927, 10000.61
972.2748, 9918.749
972.7569, 9865.064
973.2390, 9857.078
973.7211, 9893.784
974.2032, 9934.598
974.6854, 9953.831
975.1675, 9963.058
975.6496, 9979.268
976.1317, 9991.657
976.6138, 9981.040
977.0959, 9947.433
977.5781, 9893.315
978.0602, 9818.957
978.5423, 9762.012
979.0244, 9788.966
979.5065, 9862.189
979.9886, 9874.387
980.4708, 9837.880
980.9529, 9832.384
981.4350, 9876.291
981.9171, 9911.090
982.3992, 9884.114
982.8813, 9829.123
983.3635, 9833.320
983.8456, 9894.829
984.3277, 9958.431
984.8098, 10022.04
985.2919, 10072.18
985.7740, 10109.42
986.2562, 10102.58
986.7383, 9993.493
987.2204, 9795.297
987.7025, 9706.721
988.1846, 9754.531
988.6667, 9819.941
989.1489, 9899.893
989.6310, 9962.980
990.1131, 9988.647
990.5952, 9984.484
991.0773, 9963.628
991.5594, 9915.377
992.0416, 9894.241
992.5237, 9936.252
993.0058, 9951.450
993.4879, 9881.967
993.9700, 9805.678
994.4521, 9786.616
994.9343, 9817.078
995.4164, 9864.092
995.8985, 9979.632
996.3806, 10013.46
996.8627, 9852.685
997.3448, 9713.836
997.8270, 9720.934
998.3091, 9798.793
998.7912, 9850.414
999.2733, 9865.873
999.7554, 9877.957
1000.238, 9895.955
1000.720, 9913.078
1001.202, 9928.128
1001.684, 9940.191
1002.166, 9962.179
1002.648, 9977.052
1003.130, 9935.494
1003.612, 9820.626
1004.094, 9740.920
1004.577, 9777.533
1005.059, 9851.247
1005.541, 9929.903
1006.023, 9988.980
1006.505, 9980.479
1006.987, 9919.391
1007.469, 9878.518
1007.951, 9896.514
1008.434, 9921.511
1008.916, 9892.284
1009.398, 9852.646
1009.880, 9866.351
1010.362, 9918.271
1010.844, 9973.574
1011.326, 10019.39
1011.808, 10041.44
1012.290, 10022.14
1012.773, 9991.736
1013.255, 10005.07
1013.737, 10038.44
1014.219, 10018.49
1014.701, 9956.658
1015.183, 9947.565
1015.665, 10024.36
1016.147, 10088.29
1016.630, 10017.61
1017.112, 9875.813
1017.594, 9821.294
1018.076, 9846.109
1018.558, 9927.540
1019.040, 10055.46
1019.522, 10118.50
1020.004, 10050.79
1020.486, 9944.488
1020.969, 9949.325
1021.451, 10046.62
1021.933, 10086.44
1022.415, 10068.26
1022.897, 10064.54
1023.379, 10092.25
1023.861, 10128.25
1024.343, 10156.97
1024.825, 10180.38
1025.308, 10210.55
1025.790, 10252.00
1026.272, 10227.54
1026.754, 10115.44
1027.236, 10057.37
1027.718, 10110.12
1028.200, 10186.51
1028.682, 10203.55
1029.165, 10177.72
1029.647, 10183.22
1030.129, 10235.36
1030.611, 10249.62
1031.093, 10195.78
1031.575, 10178.32
1032.057, 10255.41
1032.539, 10364.18
1033.021, 10432.57
1033.504, 10462.43
1033.986, 10478.17
1034.468, 10475.49
1034.950, 10469.88
1035.432, 10474.22
1035.914, 10453.56
1036.396, 10349.72
1036.878, 10243.47
1037.360, 10280.39
1037.843, 10479.23
1038.325, 10591.84
1038.807, 10559.07
1039.289, 10537.28
1039.771, 10544.02
1040.253, 10570.30
1040.735, 10618.12
1041.217, 10679.57
1041.700, 10738.18
1042.182, 10792.05
1042.664, 10850.95
1043.146, 10922.99
1043.628, 10989.17
1044.110, 11058.68
1044.592, 11108.17
1045.074, 11106.33
1045.557, 11072.45
1046.039, 11057.97
1046.521, 11065.81
1047.003, 11095.21
1047.485, 11138.21
1047.967, 11212.39
1048.449, 11368.57
1048.931, 11523.14
1049.413, 11595.67
1049.896, 11597.98
1050.378, 11588.34
1050.860, 11565.76
1051.342, 11553.96
1051.824, 11563.27
1052.306, 11577.60
1052.788, 11588.47
1053.270, 11601.05
1053.752, 11628.14
1054.235, 11664.93
1054.717, 11681.43
1055.199, 11658.26
1055.681, 11638.39
1056.163, 11652.58
1056.645, 11652.51
1057.127, 11579.96
1057.609, 11493.74
1058.092, 11494.15
1058.574, 11575.47
1059.056, 11592.38
1059.538, 11438.04
1060.020, 11312.01
1060.502, 11305.70
1060.984, 11326.37
1061.466, 11314.60
1061.948, 11283.35
1062.431, 11273.46
1062.913, 11285.54
1063.395, 11238.93
1063.877, 11022.10
1064.359, 10851.87
1064.841, 10874.28
1065.323, 10920.64
1065.805, 10843.83
1066.287, 10695.22
1066.770, 10578.40
1067.252, 10513.22
1067.734, 10468.00
1068.216, 10443.95
1068.698, 10419.07
1069.180, 10388.73
1069.662, 10347.75
1070.144, 10288.14
1070.627, 10215.76
1071.109, 10134.07
1071.591, 10043.28
1072.073, 9989.074
1072.555, 10017.20
1073.037, 10055.48
1073.519, 10074.24
1074.001, 10078.54
1074.484, 10072.22
1074.966, 10056.55
1075.448, 10030.16
1075.930, 9991.849
1076.412, 9958.154
1076.894, 9936.904
1077.376, 9921.384
1077.858, 9911.230
1078.340, 9902.158
1078.823, 9887.817
1079.305, 9871.385
1079.787, 9862.763
1080.269, 9865.352
1080.751, 9866.890
1081.233, 9859.645
1081.715, 9852.457
1082.197, 9858.719
1082.680, 9861.149
1083.162, 9830.852
1083.644, 9782.729
1084.126, 9756.167
1084.608, 9761.167
1085.090, 9794.326
1085.572, 9905.277
1086.054, 9983.440
1086.536, 9931.006
1087.019, 9842.493
1087.501, 9827.879
1087.983, 9865.037
1088.465, 9856.200
1088.947, 9764.848
1089.429, 9693.789
1089.911, 9705.708
1090.393, 9724.148
1090.875, 9715.594
1091.358, 9686.981
1091.840, 9617.525
1092.322, 9538.888
1092.804, 9550.151
1093.286, 9705.957
1093.768, 9794.992
1094.250, 9658.169
1094.732, 9537.551
1095.215, 9593.223
1095.697, 9691.058
1096.179, 9690.145
1096.661, 9613.989
1097.143, 9563.246
1097.625, 9557.806
1098.107, 9585.500
1098.589, 9712.692
1099.072, 9785.686
1099.554, 9682.407
1100.036, 9538.007
1100.518, 9475.735
1101.000, 9480.669
1101.482, 9482.564
1101.964, 9472.315
1102.446, 9446.757
1102.928, 9365.000
1103.411, 9319.008
1103.893, 9386.373
1104.375, 9467.902
1104.857, 9465.655
1105.339, 9407.544
1105.821, 9385.123
1106.303, 9420.895
1106.785, 9446.439
1107.267, 9442.868
1107.750, 9439.584
1108.232, 9446.413
1108.714, 9456.009
1109.196, 9477.465
1109.678, 9494.424
1110.160, 9453.897
1110.642, 9318.408
1111.124, 9258.254
1111.607, 9350.698
1112.089, 9425.903
1112.571, 9436.997
1113.053, 9427.554
1113.535, 9427.463
1114.017, 9429.888
1114.499, 9414.700
1114.981, 9371.157
1115.464, 9358.396
1115.946, 9399.451
1116.428, 9433.536
1116.910, 9454.550
1117.392, 9458.923
1117.874, 9433.428
1118.356, 9396.273
1118.838, 9384.817
1119.320, 9401.229
1119.802, 9427.843
1120.285, 9475.854
1120.767, 9506.712
1121.249, 9508.551
1121.731, 9503.535
1122.213, 9510.549
1122.695, 9510.440
1123.177, 9457.691
1123.659, 9348.093
1124.142, 9335.895
1124.624, 9455.693
1125.106, 9544.670
1125.588, 9584.633
1126.070, 9564.034
1126.552, 9460.847
1127.034, 9331.355
1127.516, 9260.255
1127.999, 9242.779
1128.481, 9222.012
1128.963, 9194.710
1129.445, 9203.525
1129.927, 9258.087
1130.409, 9320.579
1130.891, 9379.119
1131.373, 9397.025
1131.855, 9311.223
1132.338, 9322.850
1132.820, 9280.581
1133.302, 9213.293
1133.784, 9207.120
1134.266, 9096.642
1134.748, 9047.319
1135.230, 9127.606
1135.712, 9189.275
1136.194, 9056.369
1136.677, 8843.758
1137.159, 8864.507
1137.641, 9051.550
1138.123, 9143.082
1138.605, 9127.453
1139.087, 9052.585
1139.569, 8942.154
1140.051, 8878.346
1140.534, 8943.182
1141.016, 9044.060
1141.498, 9021.582
1141.980, 9039.543
1142.462, 9025.192
1142.944, 8960.742
1143.426, 8937.480
1143.908, 8841.621
1144.391, 8774.237
1144.873, 8805.303
1145.355, 8856.870
1145.837, 8841.498
1146.319, 8805.896
1146.801, 8805.664
1147.283, 8830.394
1147.765, 8868.336
1148.247, 8907.390
1148.729, 8909.831
1149.212, 8847.140
1149.694, 8813.156
1150.176, 8921.875
1150.658, 9026.850
1151.140, 8990.418
1151.622, 8900.098
1152.104, 8860.537
1152.586, 8868.192
1153.069, 8874.283
1153.551, 8866.212
1154.033, 8853.290
1154.515, 8810.142
1154.997, 8800.149
1155.479, 8893.294
1155.961, 8992.360
1156.443, 9015.828
1156.926, 8984.974
1157.408, 8947.490
1157.890, 8907.512
1158.372, 8878.433
1158.854, 8858.596
1159.336, 8854.826
1159.818, 8897.922
1160.300, 8924.104
1160.782, 8872.228
1161.265, 8801.078
1161.747, 8796.477
1162.229, 8856.166
1162.711, 8900.273
1163.193, 8926.222
1163.675, 8942.776
1164.157, 8952.017
1164.639, 8945.411
1165.121, 8906.173
1165.604, 8877.578
1166.086, 8915.164
1166.568, 8994.983
1167.050, 9012.048
1167.532, 8955.809
1168.014, 8931.578
1168.496, 8950.824
1168.978, 8915.834
1169.461, 8787.487
1169.943, 8691.552
1170.425, 8733.882
1170.907, 8847.631
1171.389, 8913.826
1171.871, 8931.527
1172.353, 8864.112
1172.835, 8734.343
1173.318, 8711.553
1173.800, 8817.173
1174.282, 8929.191
1174.764, 8981.728
1175.246, 8990.986
1175.728, 8955.008
1176.210, 8903.925
1176.692, 8897.786
1177.174, 8918.003
1177.656, 8932.785
1178.139, 8934.927
1178.621, 8902.623
1179.103, 8834.338
1179.585, 8817.720
1180.067, 8950.896
1180.549, 9111.101
1181.031, 9236.391
1181.513, 9296.841
1181.996, 9204.149
1182.478, 9047.184
1182.960, 8990.011
1183.442, 9046.858
1183.924, 9087.792
1184.406, 9055.789
1184.888, 9022.675
1185.370, 8997.985
1185.853, 8997.732
1186.335, 9064.697
1186.817, 9134.413
1187.299, 9126.768
1187.781, 9059.566
1188.263, 9018.793
1188.745, 9021.924
1189.227, 9019.447
1189.709, 8999.805
1190.192, 8991.549
1190.674, 9005.502
1191.156, 9026.449
1191.638, 9051.718
1192.120, 9069.949
1192.602, 9055.782
1193.084, 9008.918
1193.566, 8986.015
1194.048, 8990.705
1194.531, 8997.894
1195.013, 9003.514
1195.495, 9019.218
1195.977, 9051.919
1196.459, 9087.424
1196.941, 9113.378
1197.423, 9124.123
1197.905, 9088.435
1198.388, 9020.124
1198.870, 9004.381
1199.352, 9035.313
1199.834, 9043.698
1200.316, 9013.215
1200.798, 8976.712
1201.280, 8950.670
1201.762, 8961.514
1202.245, 9088.804
1202.727, 9236.491
1203.209, 9250.737
1203.691, 9187.716
1204.173, 9139.517
1204.655, 9122.961
1205.137, 9139.197
1205.619, 9190.513
1206.101, 9222.448
1206.583, 9211.781
1207.066, 9162.582
1207.548, 9008.586
1208.030, 8882.936
1208.512, 8929.729
1208.994, 9069.053
1209.476, 9163.854
1209.958, 9199.346
1210.440, 9213.563
1210.923, 9191.536
1211.405, 9181.543
1211.887, 9216.435
1212.369, 9223.175
1212.851, 9154.010
1213.333, 9075.354
1213.815, 9043.753
1214.297, 9051.998
1214.780, 9077.132
1215.262, 9117.046
1215.744, 9201.132
1216.226, 9345.720
1216.708, 9422.974
1217.190, 9402.219
1217.672, 9349.370
1218.154, 9296.765
1218.636, 9264.157
1219.119, 9291.203
1219.601, 9346.910
1220.083, 9327.105
1220.565, 9252.135
1221.047, 9183.296
1221.529, 9133.834
1222.011, 9136.806
1222.493, 9195.019
1222.975, 9246.019
1223.458, 9244.237
1223.940, 9225.837
1224.422, 9212.046
1224.904, 9214.109
1225.386, 9273.387
1225.868, 9338.808
1226.350, 9319.795
1226.832, 9235.271
1227.315, 9185.422
1227.797, 9204.335
1228.279, 9211.569
1228.761, 9135.139
1229.243, 9105.300
1229.725, 9211.809
1230.207, 9331.468
1230.689, 9383.732
1231.172, 9395.907
1231.654, 9413.516
1232.136, 9435.335
1232.618, 9436.987
1233.100, 9396.600
1233.582, 9411.788
1234.064, 9514.452
1234.546, 9569.221
1235.028, 9526.364
1235.510, 9452.242
1235.993, 9398.262
1236.475, 9354.445
1236.957, 9293.431
1237.439, 9264.827
1237.921, 9200.179
1238.403, 9215.446
1238.885, 9223.016
1239.367, 9222.698
1239.850, 9270.806
1240.332, 9385.977
1240.814, 9470.767
1241.296, 9421.755
1241.778, 9335.759
1242.260, 9295.791
1242.742, 9296.265
1243.224, 9353.789
1243.707, 9434.701
1244.189, 9490.484
1244.671, 9514.704
1245.153, 9521.044
1245.635, 9512.516
1246.117, 9489.774
1246.599, 9426.734
1247.081, 9385.121
1247.563, 9401.397
1248.046, 9431.987
1248.528, 9450.596
1249.010, 9460.533
1249.492, 9466.463
1249.974, 9468.512
1250.456, 9471.847
1250.938, 9478.749
1251.420, 9472.427
1251.902, 9447.508
1252.385, 9437.276
1252.867, 9453.470
1253.349, 9485.527
1253.831, 9527.848
1254.313, 9567.658
1254.795, 9590.219
1255.277, 9588.322
1255.759, 9517.525
1256.242, 9409.929
1256.724, 9354.388
1257.206, 9354.171
1257.688, 9365.511
1258.170, 9372.671
1258.652, 9392.214
1259.134, 9445.199
1259.616, 9498.875
1260.099, 9543.838
1260.581, 9567.600
1261.063, 9534.693
1261.545, 9491.376
1262.027, 9505.729
1262.509, 9567.889
1262.991, 9609.063
1263.473, 9623.612
1263.955, 9608.589
1264.438, 9525.107
1264.920, 9493.507
1265.402, 9561.790
1265.884, 9626.242
1266.366, 9633.184
1266.848, 9597.544
1267.330, 9525.844
1267.812, 9442.666
1268.294, 9475.478
1268.777, 9600.614
1269.259, 9598.813
1269.741, 9481.392
1270.223, 9396.572
1270.705, 9384.466
1271.187, 9445.694
1271.669, 9587.542
1272.151, 9721.849
1272.634, 9767.910
1273.116, 9757.843
1273.598, 9700.022
1274.080, 9624.709
1274.562, 9551.108
1275.044, 9494.451
1275.526, 9480.818
1276.008, 9510.947
1276.490, 9549.041
1276.973, 9587.596
1277.455, 9632.560
1277.937, 9702.740
1278.419, 9753.137
1278.901, 9766.038
1279.383, 9763.923
1279.865, 9756.864
1280.347, 9754.097
1280.829, 9778.022
1281.312, 9822.108
1281.794, 9823.264
1282.276, 9784.553
1282.758, 9746.196
1283.240, 9712.129
1283.722, 9684.267
1284.204, 9665.575
1284.686, 9681.487
1285.169, 9754.965
1285.651, 9841.613
1286.133, 9905.624
1286.615, 9947.172
1287.097, 9971.143
1287.579, 9973.201
##END=



