##NAMES=Elbaite
##RRUFFID=R050119
##IDEAL CHEMISTRY=Na(Al_1.5_Li_1.5_)Al_6_(Si_6_O_18_)(BO_3_)_3_(OH)_3_OH
##LOCALITY=Cruziero mine, San Jose, Minas Gerais, Brazil
##OWNER=RRUFF
##SOURCE=Carlos and Paulo Vasconcelos
##DESCRIPTION=Red fragment
##STATUS=The identification of this mineral has been confirmed by X-ray diffraction and chemical analysis
##URL=rruff.info/R050119
##MEASURED CHEMISTRY=(Na_0.90_Ca_0.10_)(Al_0.56_Li_0.38_Mn_0.06_)_3_Al_6_(BO_3_)_3_(Si_0.89_B_0.11_)_6_O_18_(OH)_4_
91.62726, 0.0000000E+00
92.10938, 3.183288
92.59149, 3.078315
93.07361, 3.090298
93.55573, 3.213837
94.03784, 3.386277
94.51996, 3.638526
95.00208, 3.917361
95.48419, 4.033029
95.96631, 3.845925
96.44843, 3.470220
96.93054, 3.227535
97.41266, 3.129080
97.89478, 3.115320
98.37689, 3.137561
98.85901, 3.195906
99.34113, 3.250238
99.82324, 3.286771
100.3054, 3.305215
100.7875, 3.306450
101.2696, 3.281559
101.7517, 3.251006
102.2338, 3.255205
102.7159, 3.302915
103.1981, 3.360532
103.6802, 3.405594
104.1623, 3.420644
104.6444, 3.491638
105.1265, 3.675686
105.6086, 3.914479
106.0908, 3.966523
106.5729, 3.643428
107.0550, 3.354262
107.5371, 3.349635
108.0192, 3.922544
108.5013, 4.340530
108.9835, 4.488557
109.4656, 4.375369
109.9477, 4.338409
110.4298, 4.428404
110.9119, 4.566897
111.3940, 4.702324
111.8762, 4.662692
112.3583, 4.791371
112.8404, 5.200051
113.3225, 5.917912
113.8046, 6.616167
114.2867, 7.350367
114.7689, 8.014651
115.2510, 8.489736
115.7331, 8.458021
116.2152, 8.481714
116.6973, 8.806219
117.1794, 9.519414
117.6616, 10.24806
118.1437, 10.89019
118.6258, 11.46187
119.1079, 11.96805
119.5900, 12.26938
120.0721, 12.60067
120.5543, 13.15080
121.0364, 14.03634
121.5185, 14.92296
122.0006, 15.54651
122.4827, 15.99607
122.9648, 16.53701
123.4470, 17.46348
123.9291, 18.50638
124.4112, 19.32673
124.8933, 19.71381
125.3754, 20.05747
125.8575, 20.70470
126.3397, 21.64400
126.8218, 22.80988
127.3039, 24.23795
127.7860, 25.84727
128.2681, 27.47320
128.7502, 29.12130
129.2324, 30.72969
129.7145, 32.15323
130.1966, 33.39846
130.6787, 34.55543
131.1608, 35.71798
131.6429, 36.86349
132.1251, 37.93380
132.6072, 38.89979
133.0893, 39.77065
133.5714, 40.61973
134.0535, 41.45509
134.5356, 42.23152
135.0178, 42.84814
135.4999, 43.29752
135.9820, 43.80054
136.4641, 44.54027
136.9462, 45.50447
137.4283, 46.08323
137.9105, 46.16582
138.3926, 46.06829
138.8747, 46.30616
139.3568, 46.92613
139.8389, 47.70069
140.3210, 48.61326
140.8032, 49.75256
141.2853, 50.52391
141.7674, 50.68975
142.2495, 50.62543
142.7316, 51.24022
143.2137, 52.63929
143.6959, 53.90405
144.1780, 54.86619
144.6601, 55.36229
145.1422, 56.03774
145.6243, 57.01412
146.1064, 58.18098
146.5886, 59.14925
147.0707, 59.81381
147.5528, 60.40440
148.0349, 61.04712
148.5170, 61.97181
148.9991, 62.59454
149.4813, 62.66273
149.9634, 62.27392
150.4455, 62.33830
150.9276, 63.40509
151.4097, 64.54335
151.8918, 65.16198
152.3740, 64.77848
152.8561, 64.45625
153.3382, 64.31570
153.8203, 64.35204
154.3024, 64.36519
154.7845, 64.64263
155.2667, 64.73692
155.7488, 64.31207
156.2309, 62.44767
156.7130, 60.94543
157.1951, 60.39363
157.6772, 60.85265
158.1594, 61.08591
158.6415, 60.51973
159.1236, 59.73342
159.6057, 59.29137
160.0878, 59.80373
160.5699, 60.26351
161.0521, 60.14318
161.5342, 59.30184
162.0163, 58.88191
162.4984, 59.73237
162.9805, 61.11426
163.4626, 62.09357
163.9448, 61.96323
164.4269, 61.63716
164.9090, 61.59261
165.3911, 61.90659
165.8732, 62.31537
166.3553, 62.63661
166.8375, 62.97003
167.3196, 63.48071
167.8017, 64.45153
168.2838, 65.49443
168.7659, 66.34177
169.2480, 66.94742
169.7302, 67.41409
170.2123, 67.68505
170.6944, 67.85987
171.1765, 68.15698
171.6586, 68.81190
172.1407, 69.58459
172.6229, 70.24464
173.1050, 70.74200
173.5871, 71.17098
174.0692, 71.62411
174.5513, 72.07678
175.0334, 72.44943
175.5156, 72.70248
175.9977, 72.84696
176.4798, 72.89306
176.9619, 72.84348
177.4440, 72.70280
177.9261, 72.51791
178.4083, 72.26628
178.8904, 71.84295
179.3725, 70.90633
179.8546, 69.78030
180.3367, 69.17359
180.8188, 69.40446
181.3010, 69.87272
181.7831, 69.60786
182.2652, 68.71243
182.7473, 67.97853
183.2294, 68.04374
183.7115, 68.72751
184.1937, 69.57099
184.6758, 70.59997
185.1579, 71.60912
185.6400, 72.18776
186.1221, 72.34853
186.6042, 72.52055
187.0864, 73.01033
187.5685, 73.79128
188.0506, 74.71796
188.5327, 75.75166
189.0148, 76.92669
189.4969, 78.52795
189.9791, 80.57423
190.4612, 82.48750
190.9433, 83.57851
191.4254, 83.96597
191.9075, 84.77251
192.3896, 86.36140
192.8718, 88.47054
193.3539, 90.34293
193.8360, 91.95686
194.3181, 93.64420
194.8002, 95.78389
195.2823, 98.38147
195.7645, 100.8722
196.2466, 103.0549
196.7287, 105.0471
197.2108, 107.3478
197.6929, 109.9903
198.1750, 112.7755
198.6572, 115.5129
199.1393, 118.1822
199.6214, 120.9143
200.1035, 123.6069
200.5856, 126.3680
201.0677, 129.8972
201.5499, 134.4087
202.0320, 139.0426
202.5141, 142.7695
202.9962, 145.4191
203.4783, 148.5307
203.9604, 152.5029
204.4426, 157.2626
204.9247, 162.2862
205.4068, 167.6171
205.8889, 172.9882
206.3710, 177.9968
206.8531, 182.4971
207.3353, 187.3984
207.8174, 192.9276
208.2995, 199.0618
208.7816, 205.5968
209.2637, 212.6369
209.7458, 219.7422
210.2280, 226.1562
210.7101, 231.3836
211.1922, 237.7841
211.6743, 246.2558
212.1564, 256.6392
212.6385, 266.3266
213.1207, 274.8310
213.6028, 283.2490
214.0849, 292.6519
214.5670, 302.9874
215.0491, 314.1931
215.5313, 326.4095
216.0134, 339.6847
216.4955, 352.9032
216.9776, 366.0977
217.4597, 379.7579
217.9418, 393.0314
218.4240, 407.2567
218.9061, 421.3260
219.3882, 435.3681
219.8703, 449.2744
220.3524, 461.9553
220.8345, 473.5688
221.3167, 483.5894
221.7988, 491.8045
222.2809, 498.7016
222.7630, 502.4848
223.2451, 502.6088
223.7272, 499.0532
224.2094, 493.0524
224.6915, 483.8282
225.1736, 472.9189
225.6557, 462.1694
226.1378, 451.9498
226.6199, 440.6511
227.1021, 427.5060
227.5842, 412.3871
228.0663, 398.8890
228.5484, 387.2384
229.0305, 376.7805
229.5126, 366.8579
229.9948, 357.3424
230.4769, 348.6481
230.9590, 340.7780
231.4411, 333.7669
231.9232, 327.5466
232.4053, 322.2942
232.8875, 317.5612
233.3696, 312.8783
233.8517, 307.8901
234.3338, 303.6690
234.8159, 300.5432
235.2980, 298.4690
235.7802, 296.3989
236.2623, 294.0013
236.7444, 291.9717
237.2265, 290.8780
237.7086, 290.8371
238.1907, 291.5529
238.6729, 293.3199
239.1550, 296.0403
239.6371, 297.9106
240.1192, 298.2308
240.6013, 298.4849
241.0834, 299.9130
241.5656, 303.1857
242.0477, 306.2835
242.5298, 309.0866
243.0119, 311.5555
243.4940, 313.2325
243.9761, 313.6630
244.4583, 313.8312
244.9404, 314.5553
245.4225, 316.6219
245.9046, 317.6206
246.3867, 317.0263
246.8688, 315.0654
247.3510, 313.3376
247.8331, 312.1871
248.3152, 310.8326
248.7973, 308.7451
249.2794, 305.6366
249.7615, 302.3827
250.2437, 299.0792
250.7258, 295.6904
251.2079, 292.0825
251.6900, 288.1484
252.1721, 284.1518
252.6542, 280.1875
253.1364, 276.1657
253.6185, 272.4766
254.1006, 269.2355
254.5827, 266.3529
255.0648, 263.5867
255.5469, 261.0739
256.0291, 258.5097
256.5112, 255.6635
256.9933, 252.2011
257.4754, 249.2850
257.9575, 247.0220
258.4396, 245.3014
258.9218, 243.9395
259.4039, 243.1193
259.8860, 242.3035
260.3681, 241.2153
260.8502, 239.7326
261.3323, 238.2951
261.8145, 236.8293
262.2966, 235.4586
262.7787, 234.4281
263.2608, 233.7428
263.7429, 233.3761
264.2250, 233.4058
264.7072, 233.9992
265.1893, 234.3093
265.6714, 234.3861
266.1535, 234.1189
266.6356, 233.1744
267.1177, 231.2028
267.5999, 229.4576
268.0820, 228.5626
268.5641, 228.7064
269.0462, 228.2446
269.5283, 227.1303
270.0104, 225.4665
270.4926, 223.2291
270.9747, 220.1635
271.4568, 217.4054
271.9389, 215.6585
272.4210, 214.9789
272.9031, 212.6205
273.3853, 208.0426
273.8674, 202.7616
274.3495, 198.9182
274.8316, 196.7842
275.3137, 194.5549
275.7958, 191.7026
276.2780, 188.2746
276.7601, 184.8298
277.2422, 181.4290
277.7243, 177.8461
278.2064, 173.6424
278.6885, 168.6886
279.1707, 164.2729
279.6528, 160.8874
280.1349, 158.2829
280.6170, 155.0887
281.0991, 151.1838
281.5812, 147.1710
282.0634, 143.6968
282.5455, 140.7324
283.0276, 137.6566
283.5097, 134.2728
283.9918, 130.7446
284.4739, 127.5043
284.9561, 124.5292
285.4382, 122.0018
285.9203, 120.2743
286.4024, 119.3010
286.8845, 118.0513
287.3666, 116.3310
287.8488, 114.3415
288.3309, 112.5148
288.8130, 110.8528
289.2951, 109.2271
289.7772, 107.4151
290.2593, 105.5187
290.7415, 104.1568
291.2236, 103.5680
291.7057, 103.1403
292.1878, 101.7394
292.6699, 99.44686
293.1520, 97.24626
293.6342, 95.70574
294.1163, 94.69920
294.5984, 93.91883
295.0805, 93.37794
295.5626, 92.90343
296.0447, 92.20519
296.5269, 91.34463
297.0090, 90.61707
297.4911, 90.25898
297.9732, 90.12007
298.4553, 89.80870
298.9374, 89.29259
299.4196, 88.91660
299.9017, 89.18720
300.3838, 89.90193
300.8659, 90.50670
301.3480, 90.62868
301.8301, 90.58737
302.3123, 90.87099
302.7944, 91.47331
303.2765, 92.16296
303.7586, 92.70210
304.2407, 93.20570
304.7228, 93.92235
305.2050, 95.13902
305.6871, 96.38728
306.1692, 96.88454
306.6513, 96.79855
307.1334, 97.05321
307.6155, 98.50373
308.0977, 100.5807
308.5798, 102.5395
309.0619, 104.1178
309.5440, 105.7391
310.0261, 107.8147
310.5082, 110.2334
310.9904, 112.6484
311.4725, 114.9879
311.9546, 117.2028
312.4367, 119.2412
312.9188, 121.0552
313.4009, 122.8016
313.8831, 124.6766
314.3652, 126.5222
314.8473, 128.0724
315.3294, 129.4088
315.8115, 130.2903
316.2936, 130.5077
316.7758, 129.9901
317.2579, 129.1836
317.7400, 128.0726
318.2221, 126.8424
318.7042, 125.7058
319.1863, 125.0249
319.6685, 124.1902
320.1506, 122.8098
320.6327, 120.8606
321.1148, 119.1415
321.5969, 117.5964
322.0790, 116.5338
322.5612, 116.1781
323.0433, 117.4590
323.5254, 118.5420
324.0075, 118.8079
324.4896, 118.3867
324.9717, 118.3031
325.4539, 118.9101
325.9360, 119.7728
326.4181, 120.6432
326.9002, 121.5133
327.3823, 122.3805
327.8644, 123.4500
328.3466, 124.5465
328.8287, 125.1296
329.3108, 124.6691
329.7929, 124.1494
330.2750, 123.9139
330.7571, 124.0428
331.2393, 124.2642
331.7214, 124.6057
332.2035, 125.0303
332.6856, 125.4894
333.1677, 126.1243
333.6498, 126.5900
334.1320, 126.7522
334.6141, 126.5620
335.0962, 126.3847
335.5783, 125.9892
336.0604, 125.8475
336.5425, 126.5730
337.0247, 128.6341
337.5068, 130.3725
337.9889, 131.3655
338.4710, 131.7240
338.9531, 132.4710
339.4352, 133.7229
339.9174, 135.1137
340.3995, 136.3530
340.8816, 137.4305
341.3637, 138.4669
341.8458, 139.4147
342.3279, 140.3894
342.8101, 141.8429
343.2922, 143.8341
343.7743, 145.8331
344.2564, 147.4473
344.7385, 148.7159
345.2206, 150.1166
345.7028, 151.6719
346.1849, 153.4089
346.6670, 155.4269
347.1491, 157.7126
347.6312, 160.0609
348.1133, 162.6404
348.5955, 165.2338
349.0776, 166.9261
349.5597, 167.6457
350.0418, 168.3701
350.5239, 170.1514
351.0060, 172.7742
351.4882, 175.5110
351.9703, 178.1580
352.4524, 180.7764
352.9345, 183.3089
353.4166, 185.7885
353.8987, 188.5198
354.3809, 191.6995
354.8630, 195.2649
355.3451, 198.9855
355.8272, 202.6428
356.3093, 206.8142
356.7914, 212.4159
357.2736, 219.0378
357.7557, 225.4348
358.2378, 230.3095
358.7199, 234.9848
359.2020, 240.6431
359.6841, 247.5469
360.1663, 254.6695
360.6484, 260.7799
361.1305, 266.8955
361.6126, 274.4449
362.0947, 285.1703
362.5768, 296.3843
363.0590, 306.7014
363.5411, 316.1031
364.0232, 326.3110
364.5053, 337.7397
364.9874, 350.2884
365.4695, 363.8791
365.9517, 378.7059
366.4338, 394.3572
366.9159, 410.6295
367.3980, 427.6840
367.8801, 446.2369
368.3622, 466.8400
368.8444, 488.3808
369.3265, 510.4616
369.8086, 533.8868
370.2907, 556.4994
370.7728, 577.7943
371.2549, 598.3830
371.7371, 619.3713
372.2192, 643.7722
372.7013, 664.5137
373.1834, 679.7664
373.6655, 689.5641
374.1476, 694.5318
374.6298, 694.5465
375.1119, 689.8363
375.5940, 680.2951
376.0761, 665.5519
376.5582, 647.3412
377.0403, 625.0057
377.5225, 599.6270
378.0046, 574.7628
378.4867, 550.9288
378.9688, 527.4333
379.4509, 503.3804
379.9330, 478.9183
380.4152, 456.6608
380.8973, 437.2302
381.3794, 419.6163
381.8615, 402.5702
382.3436, 385.8927
382.8257, 370.3923
383.3079, 356.1555
383.7900, 343.2056
384.2721, 331.2100
384.7542, 320.2471
385.2363, 310.0666
385.7184, 300.0240
386.2006, 290.5511
386.6827, 282.2930
387.1648, 275.7671
387.6469, 270.3802
388.1290, 265.5769
388.6111, 261.3067
389.0933, 257.1664
389.5754, 252.3712
390.0575, 247.7480
390.5396, 244.2799
391.0217, 242.3047
391.5038, 240.8792
391.9860, 239.4341
392.4681, 238.0620
392.9502, 236.9116
393.4323, 235.8907
393.9144, 235.2425
394.3965, 235.1883
394.8787, 235.7516
395.3608, 236.5001
395.8429, 237.3784
396.3250, 238.3282
396.8071, 239.3006
397.2892, 239.8818
397.7714, 240.9253
398.2535, 242.8649
398.7356, 245.5128
399.2177, 247.9193
399.6998, 249.9329
400.1819, 251.7325
400.6641, 253.3752
401.1462, 254.7318
401.6283, 256.2171
402.1104, 258.0984
402.5925, 259.9818
403.0746, 261.2620
403.5568, 261.6478
404.0389, 261.9486
404.5210, 262.3577
405.0031, 262.8741
405.4852, 263.4530
405.9673, 264.3364
406.4495, 264.8234
406.9316, 264.2508
407.4137, 262.5245
407.8958, 260.4879
408.3779, 258.2640
408.8600, 255.7987
409.3422, 252.8507
409.8243, 249.4072
410.3064, 245.9187
410.7885, 242.7712
411.2706, 239.8010
411.7527, 236.3292
412.2349, 232.3087
412.7170, 227.7909
413.1991, 222.5840
413.6812, 216.8790
414.1633, 211.5013
414.6454, 207.1117
415.1276, 202.9373
415.6097, 197.9454
416.0918, 192.2388
416.5739, 186.2507
417.0560, 179.9001
417.5381, 173.5893
418.0203, 167.7764
418.5024, 162.6422
418.9845, 157.8182
419.4666, 153.2559
419.9487, 148.8555
420.4308, 144.5381
420.9130, 140.1091
421.3951, 135.8468
421.8772, 131.8637
422.3593, 128.2553
422.8414, 124.6655
423.3235, 120.7169
423.8057, 116.9288
424.2878, 113.7621
424.7699, 111.8470
425.2520, 109.8983
425.7341, 107.7255
426.2162, 105.4268
426.6984, 103.2347
427.1805, 101.0340
427.6626, 99.10320
428.1447, 97.61317
428.6268, 96.78628
429.1089, 95.58918
429.5911, 93.81428
430.0732, 91.86922
430.5553, 90.19107
431.0374, 88.77043
431.5195, 87.68203
432.0016, 87.05111
432.4838, 86.74631
432.9659, 86.06137
433.4480, 84.92687
433.9301, 83.84462
434.4122, 83.30634
434.8943, 83.20901
435.3765, 82.73252
435.8586, 81.69712
436.3407, 80.58333
436.8228, 80.18750
437.3049, 80.34302
437.7870, 80.34386
438.2692, 79.70335
438.7513, 78.79940
439.2334, 78.15775
439.7155, 77.77030
440.1976, 77.47156
440.6797, 77.14823
441.1619, 76.84340
441.6440, 76.62592
442.1261, 76.59145
442.6082, 76.50365
443.0903, 76.14763
443.5724, 75.63789
444.0546, 75.22181
444.5367, 75.13430
445.0188, 75.04063
445.5009, 74.72966
445.9830, 74.14567
446.4651, 73.69435
446.9473, 73.54931
447.4294, 73.51390
447.9115, 73.42569
448.3936, 73.42825
448.8757, 73.17458
449.3578, 72.43845
449.8400, 71.42327
450.3221, 70.80704
450.8042, 70.83614
451.2863, 70.87345
451.7684, 70.66094
452.2505, 70.16405
452.7327, 69.60560
453.2148, 68.91512
453.6969, 68.30178
454.1790, 68.17910
454.6611, 68.59577
455.1432, 68.57982
455.6254, 67.70901
456.1075, 66.41666
456.5896, 65.96972
457.0717, 66.34566
457.5538, 66.76043
458.0359, 66.64526
458.5181, 66.19116
459.0002, 65.80289
459.4823, 65.50859
459.9644, 65.34423
460.4465, 65.48841
460.9286, 65.77899
461.4108, 65.90297
461.8929, 65.60027
462.3750, 65.20798
462.8571, 64.93949
463.3392, 64.78721
463.8214, 64.72678
464.3035, 64.69296
464.7856, 64.78313
465.2677, 65.12128
465.7498, 65.88492
466.2319, 66.44680
466.7141, 66.60646
467.1962, 66.49541
467.6783, 66.28249
468.1604, 65.79339
468.6425, 65.41569
469.1246, 65.22362
469.6068, 65.20739
470.0889, 65.25965
470.5710, 65.39161
471.0531, 65.57535
471.5352, 65.83845
472.0173, 66.27779
472.4995, 66.42035
472.9816, 66.16877
473.4637, 65.74648
473.9458, 65.48896
474.4279, 65.40051
474.9100, 65.39569
475.3922, 65.48997
475.8743, 65.63132
476.3564, 65.61143
476.8385, 65.43290
477.3206, 65.32127
477.8027, 65.43354
478.2849, 65.73799
478.7670, 66.23593
479.2491, 66.98733
479.7312, 67.66080
480.2133, 67.81799
480.6954, 67.68192
481.1776, 67.66912
481.6597, 68.02715
482.1418, 68.50386
482.6239, 68.95206
483.1060, 69.38000
483.5881, 69.84550
484.0703, 70.26353
484.5524, 70.80575
485.0345, 71.63186
485.5166, 72.99352
485.9987, 74.10770
486.4808, 74.74791
486.9630, 75.11329
487.4451, 75.46643
487.9272, 75.68445
488.4093, 76.07216
488.8914, 76.74487
489.3735, 77.67019
489.8557, 78.46696
490.3378, 79.06881
490.8199, 79.71864
491.3020, 80.63805
491.7841, 81.87798
492.2662, 82.74500
492.7484, 83.13331
493.2305, 83.35489
493.7126, 83.70055
494.1947, 84.19617
494.6768, 85.09513
495.1589, 86.70998
495.6411, 88.55452
496.1232, 89.62242
496.6053, 90.03506
497.0874, 90.49900
497.5695, 91.55321
498.0516, 92.87917
498.5338, 94.13103
499.0159, 95.24742
499.4980, 96.36242
499.9801, 97.53117
500.4622, 98.75919
500.9443, 100.0802
501.4265, 101.5452
501.9086, 103.0236
502.3907, 104.4793
502.8728, 105.9214
503.3549, 107.4047
503.8370, 109.1500
504.3192, 110.7591
504.8013, 112.0421
505.2834, 112.8852
505.7655, 113.9264
506.2476, 115.2823
506.7297, 116.7007
507.2119, 117.9185
507.6940, 118.8454
508.1761, 119.9532
508.6582, 121.4211
509.1403, 122.9975
509.6224, 124.0510
510.1046, 124.5722
510.5867, 124.9146
511.0688, 125.1850
511.5509, 125.4153
512.0330, 125.7377
512.5151, 126.1569
512.9973, 126.5146
513.4794, 126.6775
513.9615, 126.6945
514.4436, 126.6482
514.9257, 126.5754
515.4078, 126.4042
515.8900, 126.1082
516.3721, 125.6742
516.8542, 125.0786
517.3363, 124.3787
517.8184, 123.4513
518.3005, 122.1361
518.7827, 120.4442
519.2648, 118.8703
519.7469, 117.5842
520.2290, 116.3733
520.7111, 115.0946
521.1932, 113.5849
521.6754, 112.4053
522.1575, 111.8224
522.6396, 111.3414
523.1217, 110.1931
523.6038, 108.1922
524.0859, 106.1896
524.5681, 104.3658
525.0502, 102.7170
525.5323, 101.2262
526.0144, 99.89290
526.4965, 98.62963
526.9786, 97.16572
527.4608, 95.71358
527.9429, 95.10995
528.4250, 95.46568
528.9071, 95.84328
529.3892, 95.13570
529.8713, 93.90736
530.3535, 93.13619
530.8356, 93.48866
531.3177, 93.80779
531.7998, 93.07407
532.2819, 91.71455
532.7640, 90.78600
533.2462, 90.99925
533.7283, 91.38525
534.2104, 91.56770
534.6925, 91.50826
535.1746, 91.39585
535.6567, 91.32594
536.1389, 91.14214
536.6210, 90.70808
537.1031, 89.70861
537.5852, 89.21662
538.0673, 89.54089
538.5494, 90.09870
539.0316, 89.83810
539.5137, 88.62305
539.9958, 87.51496
540.4779, 86.88374
540.9600, 86.54969
541.4421, 85.92370
541.9243, 85.02324
542.4064, 84.18214
542.8885, 83.83096
543.3706, 83.64796
543.8527, 82.95304
544.3348, 81.65049
544.8170, 80.33235
545.2991, 79.44108
545.7812, 78.81931
546.2633, 78.26884
546.7454, 77.79910
547.2275, 77.30560
547.7097, 76.70827
548.1918, 76.05315
548.6739, 75.45811
549.1560, 74.81760
549.6381, 74.36498
550.1202, 74.27817
550.6024, 74.57420
551.0845, 74.63100
551.5666, 74.41452
552.0487, 74.00317
552.5308, 73.36706
553.0129, 72.39968
553.4951, 71.80229
553.9772, 71.67295
554.4593, 71.76453
554.9414, 71.80936
555.4235, 71.79723
555.9056, 71.58553
556.3878, 71.04700
556.8699, 70.38937
557.3520, 69.98032
557.8341, 69.77364
558.3162, 69.57819
558.7983, 69.28671
559.2805, 68.95106
559.7626, 68.53896
560.2447, 68.04809
560.7268, 67.80064
561.2089, 68.22269
561.6910, 68.78782
562.1732, 69.08695
562.6553, 69.05310
563.1374, 68.73508
563.6195, 67.81180
564.1016, 66.70651
564.5837, 66.06048
565.0659, 66.11126
565.5480, 66.17664
566.0301, 66.11900
566.5122, 65.96357
566.9943, 65.83124
567.4764, 65.72384
567.9586, 65.63569
568.4407, 65.57530
568.9228, 65.53574
569.4049, 65.43376
569.8870, 65.25414
570.3691, 65.17566
570.8513, 65.44480
571.3334, 65.93143
571.8155, 66.41504
572.2976, 66.94991
572.7797, 67.23586
573.2618, 66.75085
573.7440, 65.90373
574.2261, 65.42049
574.7082, 66.05256
575.1903, 66.63033
575.6724, 66.54900
576.1545, 65.90272
576.6367, 65.60271
577.1188, 66.09249
577.6009, 66.57756
578.0830, 66.68855
578.5651, 66.28117
579.0472, 66.31763
579.5294, 67.01850
580.0115, 67.77266
580.4936, 67.84917
580.9757, 67.22680
581.4578, 67.11736
581.9399, 67.83517
582.4221, 68.79414
582.9042, 69.02679
583.3863, 68.68600
583.8684, 68.40925
584.3505, 68.49781
584.8326, 68.76065
585.3148, 69.01528
585.7969, 69.27029
586.2790, 69.55643
586.7611, 69.94746
587.2432, 70.33244
587.7253, 70.63365
588.2075, 70.83712
588.6896, 71.00637
589.1717, 71.20066
589.6538, 71.33168
590.1359, 71.32764
590.6180, 71.08472
591.1002, 70.90564
591.5823, 70.81882
592.0644, 70.78625
592.5465, 70.74853
593.0286, 70.70480
593.5107, 70.67007
593.9929, 70.65916
594.4750, 70.65352
594.9571, 70.65025
595.4392, 70.63649
595.9213, 70.47720
596.4034, 69.90583
596.8856, 69.22871
597.3677, 68.88171
597.8498, 68.88187
598.3319, 68.97445
598.8140, 69.07117
599.2961, 69.14639
599.7783, 69.19643
600.2604, 69.29104
600.7425, 69.19765
601.2246, 68.60650
601.7067, 67.89413
602.1888, 67.55908
602.6710, 67.77547
603.1531, 68.08840
603.6352, 68.49102
604.1173, 68.92801
604.5994, 69.25779
605.0815, 69.49118
605.5637, 69.53418
606.0458, 69.25918
606.5279, 68.76880
607.0100, 68.43166
607.4921, 68.25361
607.9742, 68.20744
608.4564, 68.43307
608.9385, 68.72352
609.4206, 68.72103
609.9027, 68.34595
610.3848, 67.98291
610.8669, 67.83209
611.3491, 67.84256
611.8312, 67.96358
612.3133, 68.25283
612.7954, 68.55701
613.2775, 68.90817
613.7596, 69.23898
614.2418, 69.41759
614.7239, 69.29980
615.2060, 69.26816
615.6881, 69.39382
616.1702, 69.66910
616.6523, 70.07802
617.1345, 70.63886
617.6166, 71.24268
618.0987, 71.88353
618.5808, 72.52405
619.0629, 72.95174
619.5450, 73.16393
620.0272, 73.45219
620.5093, 73.99405
620.9914, 74.78378
621.4735, 75.84052
621.9556, 77.22071
622.4377, 78.67388
622.9199, 80.04665
623.4020, 81.43694
623.8841, 82.95171
624.3662, 84.86642
624.8483, 86.62000
625.3304, 87.93151
625.8126, 89.06400
626.2947, 90.62547
626.7768, 92.72915
627.2589, 94.95847
627.7410, 97.16483
628.2231, 99.40067
628.7053, 101.9263
629.1874, 104.7439
629.6695, 107.8272
630.1516, 111.4530
630.6337, 115.2732
631.1158, 118.3482
631.5980, 120.6199
632.0801, 123.1271
632.5622, 126.9369
633.0443, 131.2609
633.5264, 135.2248
634.0085, 138.5349
634.4907, 141.8516
634.9728, 145.4884
635.4549, 149.2316
635.9370, 152.8104
636.4191, 156.1080
636.9012, 159.4098
637.3834, 162.9458
637.8655, 166.4004
638.3476, 168.8963
638.8297, 170.2979
639.3118, 171.3327
639.7939, 172.1783
640.2761, 172.8582
640.7582, 173.5368
641.2403, 174.1967
641.7224, 174.4449
642.2045, 174.1822
642.6866, 173.3027
643.1688, 171.4573
643.6509, 168.6380
644.1330, 165.7930
644.6151, 163.4617
645.0972, 161.3003
645.5793, 159.0361
646.0615, 156.5213
646.5436, 154.1779
647.0257, 152.0368
647.5078, 150.0934
647.9899, 148.3824
648.4720, 147.0200
648.9542, 145.5697
649.4363, 143.9879
649.9184, 142.2823
650.4005, 140.3008
650.8826, 138.0589
651.3647, 136.0224
651.8469, 134.4366
652.3290, 133.0197
652.8111, 131.3203
653.2932, 129.3440
653.7753, 127.2314
654.2574, 124.7653
654.7396, 122.3873
655.2217, 120.7088
655.7038, 119.6722
656.1859, 118.0562
656.6680, 114.7978
657.1501, 111.3880
657.6323, 108.7094
658.1144, 106.9515
658.5965, 105.0635
659.0786, 102.9930
659.5607, 100.8442
660.0428, 98.63090
660.5250, 96.33598
661.0071, 94.36193
661.4892, 92.82050
661.9713, 91.41306
662.4534, 89.64916
662.9355, 87.70903
663.4177, 86.13696
663.8998, 85.27270
664.3819, 84.50437
664.8640, 83.31441
665.3461, 81.84772
665.8282, 80.36702
666.3104, 78.77938
666.7925, 77.38521
667.2746, 76.40807
667.7567, 75.76044
668.2388, 74.89994
668.7209, 73.64163
669.2031, 72.46757
669.6852, 71.58178
670.1673, 70.95164
670.6494, 70.12176
671.1315, 69.05706
671.6136, 68.03170
672.0958, 67.17937
672.5779, 66.52022
673.0600, 66.19294
673.5421, 66.21329
674.0242, 66.26136
674.5063, 66.00685
674.9885, 65.68153
675.4706, 65.57756
675.9527, 65.87123
676.4348, 66.04452
676.9169, 65.72211
677.3990, 65.28622
677.8812, 65.19341
678.3633, 65.91275
678.8454, 66.10486
679.3275, 65.37798
679.8096, 64.33900
680.2917, 64.18170
680.7739, 64.96249
681.2560, 65.79784
681.7381, 66.44656
682.2202, 66.99117
682.7023, 67.54990
683.1844, 68.12730
683.6666, 68.71741
684.1487, 69.19666
684.6308, 69.78882
685.1129, 70.72559
685.5950, 71.96233
686.0771, 73.27387
686.5593, 74.32887
687.0414, 75.65498
687.5235, 77.61751
688.0056, 80.26836
688.4877, 82.65749
688.9698, 84.62603
689.4520, 86.60477
689.9341, 88.87862
690.4162, 91.44093
690.8983, 94.11137
691.3804, 96.89151
691.8625, 99.92140
692.3447, 103.5405
692.8268, 107.4380
693.3089, 110.9278
693.7910, 113.7251
694.2731, 116.7182
694.7552, 120.4671
695.2374, 124.7850
695.7195, 129.4562
696.2016, 134.4848
696.6837, 139.7912
697.1658, 145.4212
697.6479, 151.3032
698.1301, 157.3544
698.6122, 163.5838
699.0943, 169.9556
699.5764, 176.5000
700.0585, 183.1424
700.5406, 189.9189
701.0228, 196.8096
701.5049, 203.6112
701.9870, 210.1685
702.4691, 216.6396
702.9512, 223.2083
703.4333, 229.8974
703.9155, 236.6337
704.3976, 244.4306
704.8797, 251.4231
705.3618, 256.3973
705.8439, 259.3247
706.3260, 262.0244
706.8082, 265.2538
707.2903, 267.6164
707.7724, 268.4023
708.2545, 267.5790
708.7366, 266.2804
709.2188, 264.5584
709.7009, 262.0960
710.1830, 258.5843
710.6651, 254.1359
711.1472, 249.0368
711.6293, 243.3101
712.1115, 237.2555
712.5936, 231.1105
713.0757, 224.6943
713.5578, 217.8367
714.0399, 210.3026
714.5220, 202.7313
715.0042, 195.2268
715.4863, 187.9181
715.9684, 180.8336
716.4505, 174.1120
716.9326, 167.4474
717.4147, 160.8522
717.8969, 154.3413
718.3790, 147.9031
718.8611, 141.5166
719.3432, 135.9839
719.8253, 131.6983
720.3074, 127.9447
720.7896, 123.6163
721.2717, 119.0507
721.7538, 114.9172
722.2359, 111.7629
722.7180, 108.8983
723.2001, 106.0775
723.6823, 103.3068
724.1644, 100.7308
724.6465, 98.36012
725.1286, 96.19887
725.6107, 94.26331
726.0928, 92.56056
726.5750, 91.13632
727.0571, 90.06124
727.5392, 88.94412
728.0213, 87.40466
728.5034, 85.74187
728.9855, 84.83015
729.4677, 84.59995
729.9498, 84.51139
730.4319, 84.26762
730.9140, 83.97823
731.3961, 83.70876
731.8782, 83.46564
732.3604, 83.29883
732.8425, 83.15244
733.3246, 83.15658
733.8067, 83.42115
734.2888, 84.02053
734.7709, 84.35802
735.2531, 84.30980
735.7352, 84.32410
736.2173, 84.83040
736.6994, 85.74405
737.1815, 86.52469
737.6636, 87.13512
738.1458, 87.66590
738.6279, 87.98239
739.1100, 88.35800
739.5921, 89.19479
740.0742, 90.68197
740.5563, 92.19377
741.0385, 93.46000
741.5206, 94.64822
742.0027, 95.92379
742.4848, 97.23818
742.9669, 98.72447
743.4490, 100.4503
743.9312, 102.2643
744.4133, 103.9803
744.8954, 105.6026
745.3775, 107.3352
745.8596, 109.2782
746.3417, 111.1728
746.8239, 112.6870
747.3060, 113.9192
747.7881, 115.0709
748.2702, 116.4266
748.7523, 117.3737
749.2344, 117.5507
749.7166, 117.1356
750.1987, 116.4430
750.6808, 115.5137
751.1629, 114.3070
751.6450, 112.8265
752.1271, 111.0643
752.6093, 109.0506
753.0914, 106.7796
753.5735, 104.1566
754.0556, 101.0304
754.5377, 97.76573
755.0198, 95.10027
755.5020, 92.88709
755.9841, 90.75607
756.4662, 88.69913
756.9483, 86.47909
757.4304, 83.74306
757.9125, 80.69266
758.3947, 77.91889
758.8768, 75.59541
759.3589, 73.51929
759.8410, 71.78688
760.3231, 70.29768
760.8052, 68.35962
761.2874, 65.89346
761.7695, 63.58839
762.2516, 61.79623
762.7337, 60.34213
763.2158, 58.80360
763.6979, 57.20156
764.1801, 55.72905
764.6622, 54.61143
765.1443, 53.56884
765.6264, 52.31258
766.1085, 50.85789
766.5906, 49.74672
767.0728, 49.46596
767.5549, 49.10965
768.0370, 48.31042
768.5191, 47.07869
769.0012, 45.97203
769.4833, 45.01426
769.9655, 44.09992
770.4476, 43.02176
770.9297, 41.95485
771.4118, 41.44450
771.8939, 41.46849
772.3760, 41.47943
772.8582, 41.08095
773.3403, 40.54626
773.8224, 40.03085
774.3045, 39.53390
774.7866, 39.24859
775.2687, 39.48687
775.7509, 39.63964
776.2330, 39.30138
776.7151, 38.37449
777.1972, 38.04924
777.6793, 38.44783
778.1614, 38.77006
778.6436, 38.16313
779.1257, 37.01111
779.6078, 36.19295
780.0899, 35.78017
780.5720, 35.53859
781.0541, 35.49486
781.5363, 35.42606
782.0184, 35.09015
782.5005, 34.31604
782.9826, 33.82875
783.4647, 33.88015
783.9468, 34.01342
784.4290, 33.93691
784.9111, 33.64027
785.3932, 33.16082
785.8753, 32.45436
786.3574, 31.83093
786.8395, 31.63913
787.3217, 31.74545
787.8038, 31.91240
788.2859, 32.11865
788.7680, 32.24793
789.2501, 32.21838
789.7322, 32.08461
790.2144, 31.86745
790.6965, 31.44850
791.1786, 31.26644
791.6607, 31.50706
792.1428, 31.76822
792.6249, 31.62168
793.1071, 31.04272
793.5892, 30.85495
794.0713, 31.16232
794.5534, 31.53181
795.0355, 31.55877
795.5176, 31.32924
795.9998, 30.93245
796.4819, 30.32409
796.9640, 29.85570
797.4461, 29.80248
797.9282, 29.90437
798.4103, 29.93871
798.8925, 29.96924
799.3746, 29.72186
799.8567, 29.06956
800.3388, 28.35258
800.8209, 27.94494
801.3030, 27.82158
801.7852, 27.66282
802.2673, 27.42771
802.7494, 27.19786
803.2315, 27.06485
803.7136, 26.98552
804.1957, 26.91285
804.6779, 26.85043
805.1600, 26.74631
805.6421, 26.59150
806.1242, 26.37819
806.6063, 26.07583
807.0884, 25.54598
807.5706, 25.33268
808.0527, 25.51636
808.5348, 25.82291
809.0169, 26.00410
809.4990, 26.06375
809.9811, 26.01460
810.4633, 25.85236
810.9454, 25.62368
811.4275, 25.24371
811.9096, 24.87994
812.3917, 24.72178
812.8738, 24.84436
813.3560, 25.06577
813.8381, 25.50113
814.3202, 25.90113
814.8023, 26.06428
815.2844, 25.95945
815.7665, 25.77306
816.2487, 25.48738
816.7308, 25.22284
817.2129, 25.09728
817.6950, 25.08387
818.1771, 25.15491
818.6592, 25.32209
819.1414, 25.43872
819.6235, 25.33406
820.1056, 25.19294
820.5877, 25.18411
821.0698, 25.42220
821.5519, 25.54779
822.0341, 25.47194
822.5162, 25.41401
822.9983, 25.57421
823.4804, 25.94430
823.9625, 26.34092
824.4446, 26.77453
824.9268, 27.00701
825.4089, 26.52703
825.8910, 25.84910
826.3731, 25.70355
826.8552, 26.24669
827.3373, 26.79096
827.8195, 27.16232
828.3016, 27.39377
828.7837, 27.49566
829.2658, 27.43060
829.7479, 27.44873
830.2300, 27.57467
830.7122, 27.70146
831.1943, 27.71505
831.6764, 27.66041
832.1585, 27.70007
832.6406, 27.83997
833.1227, 27.96030
833.6049, 27.95253
834.0870, 27.90642
834.5691, 27.89771
835.0512, 27.94231
835.5333, 27.94864
836.0154, 27.87285
836.4976, 27.80945
836.9797, 27.84260
837.4618, 27.96489
837.9439, 27.83263
838.4260, 27.43330
838.9081, 27.08929
839.3903, 27.06768
839.8724, 27.21923
840.3545, 27.34902
840.8366, 27.45315
841.3187, 27.59244
841.8008, 27.94501
842.2830, 28.19302
842.7651, 28.07842
843.2472, 27.64301
843.7293, 27.58549
844.2114, 28.06009
844.6935, 28.39563
845.1757, 28.15224
845.6578, 27.57257
846.1399, 27.36915
846.6220, 27.49857
847.1041, 27.71184
847.5862, 27.90870
848.0684, 28.09967
848.5505, 28.33445
849.0326, 28.58244
849.5147, 28.68513
849.9968, 28.42010
850.4789, 28.32988
850.9611, 28.63748
851.4432, 29.18486
851.9253, 29.39801
852.4074, 29.28675
852.8895, 29.18048
853.3716, 29.24429
853.8538, 29.35423
854.3359, 29.29516
854.8180, 29.16720
855.3001, 29.20692
855.7822, 29.68094
856.2643, 30.12492
856.7465, 30.38557
857.2286, 30.53790
857.7107, 30.72888
858.1928, 30.98214
858.6749, 31.14947
859.1570, 31.17521
859.6392, 31.15752
860.1213, 31.23695
860.6034, 31.40229
861.0855, 31.63433
861.5676, 31.98100
862.0497, 32.29581
862.5319, 32.52571
863.0140, 32.66622
863.4961, 32.69307
863.9782, 32.51936
864.4603, 32.41896
864.9424, 32.40852
865.4246, 32.46623
865.9067, 32.53423
866.3888, 32.63572
866.8709, 32.98521
867.3530, 33.67996
867.8351, 34.20988
868.3173, 33.95441
868.7994, 33.42145
869.2815, 33.14480
869.7636, 33.27488
870.2457, 33.50041
870.7278, 33.92892
871.2100, 34.27086
871.6921, 34.26968
872.1742, 33.91343
872.6563, 33.63802
873.1384, 33.45381
873.6205, 33.31275
874.1027, 33.12350
874.5848, 32.98067
875.0669, 33.09177
875.5490, 33.46412
876.0311, 33.66681
876.5132, 33.39325
876.9954, 33.05317
877.4775, 32.80804
877.9596, 32.66031
878.4417, 32.68367
878.9238, 32.91650
879.4059, 33.09352
879.8881, 33.01815
880.3702, 32.81062
880.8523, 32.71678
881.3344, 32.70975
881.8165, 32.67491
882.2986, 32.56493
882.7808, 32.40218
883.2629, 32.19248
883.7450, 31.93695
884.2271, 31.62571
884.7092, 31.19388
885.1913, 30.91005
885.6735, 30.90427
886.1556, 31.00675
886.6377, 30.83312
887.1198, 30.45056
887.6019, 30.07230
888.0840, 29.68912
888.5662, 29.47311
889.0483, 29.67309
889.5304, 30.06933
890.0125, 30.31135
890.4946, 30.32494
890.9767, 30.24398
891.4589, 30.03430
891.9410, 29.79819
892.4231, 29.64985
892.9052, 29.58773
893.3873, 29.65675
893.8694, 29.90146
894.3516, 30.02477
894.8337, 29.60319
895.3158, 29.02926
895.7979, 28.70426
896.2800, 28.76867
896.7621, 28.86093
897.2443, 29.02518
897.7264, 29.10756
898.2085, 28.95042
898.6906, 28.56629
899.1727, 28.38894
899.6548, 28.42144
900.1370, 28.42277
900.6191, 28.10184
901.1012, 27.73352
901.5833, 27.62199
902.0654, 27.76480
902.5475, 27.93427
903.0297, 28.20666
903.5118, 28.33216
903.9939, 28.17487
904.4760, 27.81433
904.9581, 27.59901
905.4402, 27.53073
905.9224, 27.55953
906.4045, 27.71260
906.8866, 27.89335
907.3687, 28.01672
907.8508, 28.07193
908.3329, 28.03209
908.8151, 27.70297
909.2972, 27.51856
909.7793, 27.69297
910.2614, 27.97404
910.7435, 27.93027
911.2256, 27.52208
911.7078, 27.29816
912.1899, 27.36191
912.6720, 27.56577
913.1541, 27.80268
913.6362, 28.03276
914.1183, 28.19672
914.6005, 28.28312
915.0826, 28.29856
915.5647, 28.11281
916.0468, 27.96593
916.5289, 28.03728
917.0110, 28.36409
917.4932, 28.61723
917.9753, 28.78861
918.4574, 28.96054
918.9395, 29.29571
919.4216, 29.62339
919.9037, 29.59942
920.3859, 29.25784
920.8680, 29.01882
921.3501, 29.05886
921.8322, 29.24228
922.3143, 29.56733
922.7964, 29.98764
923.2786, 30.30124
923.7607, 30.49903
924.2428, 30.65038
924.7249, 30.72083
925.2070, 30.83893
925.6891, 31.33620
926.1713, 32.03057
926.6534, 32.51155
927.1355, 32.45026
927.6176, 32.35592
928.0997, 32.32499
928.5818, 32.36271
929.0640, 32.47259
929.5461, 32.64937
930.0282, 32.96523
930.5103, 33.46003
930.9924, 33.93873
931.4745, 34.16877
931.9567, 34.23052
932.4388, 34.20466
932.9209, 34.07653
933.4030, 34.09918
933.8851, 34.43490
934.3672, 34.90788
934.8494, 35.46627
935.3315, 36.12562
935.8136, 36.41647
936.2957, 36.29077
936.7778, 36.22292
937.2599, 36.60132
937.7421, 37.16432
938.2242, 37.50646
938.7063, 37.67175
939.1884, 37.84993
939.6705, 38.12746
940.1526, 38.41728
940.6348, 38.67109
941.1169, 38.92743
941.5990, 39.29101
942.0811, 39.77357
942.5632, 40.21013
943.0453, 40.57176
943.5275, 40.83761
944.0096, 40.89111
944.4917, 40.86884
944.9738, 40.98952
945.4559, 41.32680
945.9380, 41.76279
946.4202, 42.35791
946.9023, 42.97496
947.3844, 43.48177
947.8665, 43.85791
948.3486, 44.48920
948.8307, 45.40374
949.3129, 46.17725
949.7950, 46.23349
950.2771, 46.11561
950.7592, 46.49463
951.2413, 47.35179
951.7234, 48.21570
952.2056, 48.86825
952.6877, 49.62252
953.1698, 50.64731
953.6519, 51.80843
954.1340, 52.59606
954.6161, 53.03020
955.0983, 53.48407
955.5804, 54.04049
956.0625, 54.75948
956.5446, 55.82109
957.0267, 57.04583
957.5089, 58.16409
957.9910, 59.22052
958.4731, 59.93926
958.9552, 60.05746
959.4373, 60.20021
959.9194, 61.19794
960.4016, 62.89689
960.8837, 63.87276
961.3658, 64.00937
961.8479, 64.09347
962.3300, 64.69258
962.8121, 65.52830
963.2943, 66.35428
963.7764, 67.15784
964.2585, 68.20302
964.7406, 69.67479
965.2227, 70.99151
965.7048, 71.91427
966.1870, 72.55265
966.6691, 73.30523
967.1512, 74.10545
967.6333, 74.63231
968.1154, 74.40764
968.5975, 74.35107
969.0797, 75.24456
969.5618, 76.54662
970.0439, 77.42657
970.5260, 77.69637
971.0081, 77.96477
971.4902, 78.26091
971.9724, 78.56591
972.4545, 78.85953
972.9366, 79.14289
973.4187, 79.44122
973.9008, 79.75694
974.3829, 79.94032
974.8651, 79.82808
975.3472, 79.63424
975.8293, 79.43496
976.3114, 79.24561
976.7935, 79.27348
977.2756, 79.57487
977.7578, 79.64735
978.2399, 79.19363
978.7220, 78.49047
979.2041, 77.86754
979.6862, 77.34165
980.1683, 76.94983
980.6505, 76.65309
981.1326, 76.57602
981.6147, 76.97142
982.0968, 77.37680
982.5789, 77.13704
983.0610, 76.24702
983.5432, 75.86307
984.0253, 76.11650
984.5074, 76.42515
984.9895, 76.15115
985.4716, 75.75227
985.9537, 75.80519
986.4359, 76.37933
986.9180, 76.49654
987.4001, 75.74754
987.8822, 75.07944
988.3643, 74.84992
988.8464, 74.95335
989.3286, 75.08249
989.8107, 75.24918
990.2928, 75.53173
990.7749, 76.22253
991.2570, 76.65984
991.7391, 76.25148
992.2213, 75.39109
992.7034, 74.61169
993.1855, 73.76946
993.6676, 73.56508
994.1497, 74.21586
994.6318, 74.89701
995.1140, 74.54389
995.5961, 73.67129
996.0782, 73.42724
996.5603, 73.86736
997.0424, 74.18353
997.5245, 73.89190
998.0067, 73.49053
998.4888, 73.16431
998.9709, 72.92203
999.4530, 72.83379
999.9351, 72.91520
1000.417, 72.87247
1000.899, 72.55516
1001.381, 72.17078
1001.864, 72.03065
1002.346, 71.97086
1002.828, 71.72300
1003.310, 71.03880
1003.792, 70.48560
1004.274, 70.03506
1004.756, 69.81067
1005.238, 70.08998
1005.721, 70.75459
1006.203, 70.82896
1006.685, 70.31235
1007.167, 69.75680
1007.649, 69.62260
1008.131, 69.50188
1008.613, 68.96136
1009.095, 68.14665
1009.577, 67.92868
1010.060, 68.60247
1010.542, 68.93212
1011.024, 68.48981
1011.506, 67.86768
1011.988, 68.22268
1012.470, 69.07887
1012.952, 69.39129
1013.434, 68.75571
1013.917, 68.06278
1014.399, 67.52813
1014.881, 67.17528
1015.363, 67.08247
1015.845, 67.25780
1016.327, 67.16733
1016.809, 66.80639
1017.291, 66.49945
1017.773, 66.52974
1018.256, 66.65337
1018.738, 66.58462
1019.220, 66.41070
1019.702, 66.40058
1020.184, 66.80196
1020.666, 67.02753
1021.148, 66.96927
1021.630, 66.77261
1022.112, 66.64474
1022.595, 66.55906
1023.077, 66.40046
1023.559, 66.13765
1024.041, 65.96282
1024.523, 66.09486
1025.005, 66.26912
1025.487, 66.33006
1025.969, 66.27697
1026.452, 66.02599
1026.934, 65.54407
1027.416, 65.14484
1027.898, 65.02927
1028.380, 64.98986
1028.862, 64.73434
1029.344, 64.33749
1029.826, 63.93711
1030.308, 63.66659
1030.791, 63.23916
1031.273, 62.51562
1031.755, 61.80512
1032.237, 61.45096
1032.719, 61.40128
1033.201, 61.33656
1033.683, 61.23394
1034.165, 60.98679
1034.647, 60.37478
1035.130, 59.73414
1035.612, 59.24176
1036.094, 58.91455
1036.576, 58.76280
1037.058, 58.84159
1037.540, 58.85638
1038.022, 58.71959
1038.504, 58.53189
1038.987, 58.35161
1039.469, 58.24885
1039.951, 58.36707
1040.433, 58.80544
1040.915, 59.21612
1041.397, 59.60008
1041.879, 59.83432
1042.361, 59.79133
1042.844, 59.52132
1043.326, 59.37568
1043.808, 59.35903
1044.290, 59.49641
1044.772, 59.98436
1045.254, 60.44400
1045.736, 60.57965
1046.218, 60.53822
1046.700, 60.59431
1047.183, 60.70175
1047.665, 61.14435
1048.147, 62.02296
1048.629, 62.90161
1049.111, 63.19295
1049.593, 63.24410
1050.075, 63.61896
1050.557, 64.35995
1051.040, 65.16138
1051.522, 66.14455
1052.004, 66.85706
1052.486, 66.98650
1052.968, 66.85763
1053.450, 67.56408
1053.932, 68.93935
1054.414, 69.95443
1054.896, 70.18828
1055.379, 70.31348
1055.861, 70.79023
1056.343, 71.39784
1056.825, 71.90926
1057.307, 72.28903
1057.789, 72.75082
1058.271, 73.30727
1058.753, 73.87653
1059.235, 74.42777
1059.718, 74.93813
1060.200, 75.35014
1060.682, 75.68922
1061.164, 76.02734
1061.646, 76.04220
1062.128, 76.61555
1062.610, 78.13468
1063.092, 79.82122
1063.574, 80.66514
1064.057, 80.82011
1064.539, 80.80326
1065.021, 80.66699
1065.503, 80.98672
1065.985, 82.72695
1066.467, 84.46987
1066.949, 85.19521
1067.431, 85.18857
1067.914, 85.71708
1068.396, 86.84348
1068.878, 87.82785
1069.360, 88.38882
1069.842, 88.92915
1070.324, 89.99226
1070.806, 91.29410
1071.288, 92.46069
1071.771, 93.41581
1072.253, 94.21849
1072.735, 94.70268
1073.217, 95.39835
1073.699, 96.72610
1074.181, 98.46030
1074.663, 100.0152
1075.145, 101.4165
1075.627, 102.7015
1076.110, 103.9652
1076.592, 105.0367
1077.074, 105.7419
1077.556, 106.3264
1078.038, 107.0678
1078.520, 107.9701
1079.002, 108.8254
1079.484, 109.6171
1079.967, 110.3566
1080.449, 111.0422
1080.931, 111.6766
1081.413, 112.1897
1081.895, 112.6325
1082.377, 113.3286
1082.859, 114.3707
1083.341, 115.3012
1083.823, 116.0034
1084.306, 116.5664
1084.788, 117.2105
1085.270, 117.7518
1085.752, 117.8161
1086.234, 117.2270
1086.716, 116.8041
1087.198, 116.7318
1087.680, 116.7795
1088.162, 116.9447
1088.645, 117.1014
1089.127, 116.9023
1089.609, 116.3307
1090.091, 115.3121
1090.573, 113.6520
1091.055, 111.8029
1091.537, 109.6763
1092.019, 107.6551
1092.501, 106.2005
1092.984, 105.3747
1093.466, 104.4106
1093.948, 103.3016
1094.430, 101.6662
1094.912, 98.61320
1095.394, 95.44724
1095.876, 93.43060
1096.358, 92.21651
1096.841, 90.63040
1097.323, 88.36585
1097.805, 86.52174
1098.287, 85.33016
1098.769, 84.30463
1099.251, 82.85314
1099.733, 81.21735
1100.215, 79.80440
1100.698, 78.64285
1101.180, 77.36018
1101.662, 75.78764
1102.144, 74.16456
1102.626, 72.45409
1103.108, 70.81242
1103.590, 69.78590
1104.072, 69.17562
1104.554, 68.38697
1105.037, 67.24931
1105.519, 66.00172
1106.001, 64.60045
1106.483, 63.29290
1106.965, 62.27646
1107.447, 61.53138
1107.929, 60.77843
1108.411, 60.01342
1108.894, 59.03557
1109.376, 57.53856
1109.858, 56.08107
1110.340, 55.21378
1110.822, 54.05156
1111.304, 53.13047
1111.786, 52.48558
1112.268, 51.64946
1112.750, 51.34341
1113.233, 51.07529
1113.715, 50.40866
1114.197, 49.59734
1114.679, 48.94891
1115.161, 48.41777
1115.643, 47.78734
1116.125, 46.87886
1116.607, 46.14632
1117.089, 45.68058
1117.572, 45.33472
1118.054, 44.96946
1118.536, 44.57155
1119.018, 44.07003
1119.500, 43.46540
1119.982, 42.96865
1120.464, 42.81881
1120.946, 42.59676
1121.428, 42.16616
1121.911, 41.59438
1122.393, 40.92001
1122.875, 40.21854
1123.357, 39.90602
1123.839, 40.18837
1124.321, 40.31845
1124.803, 39.75474
1125.285, 38.96920
1125.768, 38.21385
1126.250, 37.51170
1126.732, 37.13747
1127.214, 37.07776
1127.696, 36.97052
1128.178, 36.62922
1128.660, 36.25163
1129.142, 36.01886
1129.625, 35.84007
1130.107, 35.59320
1130.589, 35.23973
1131.071, 35.00516
1131.553, 34.91223
1132.035, 34.75084
1132.517, 34.33529
1132.999, 33.81271
1133.481, 33.34911
1133.964, 32.92038
1134.446, 32.47149
1134.928, 31.93603
1135.410, 31.49530
1135.892, 31.16651
1136.374, 30.89813
1136.856, 30.60539
1137.338, 30.36101
1137.821, 30.36555
1138.303, 30.57535
1138.785, 30.68535
1139.267, 30.52094
1139.749, 30.36367
1140.231, 30.33169
1140.713, 30.21547
1141.195, 29.52420
1141.677, 28.51853
1142.160, 27.97572
1142.642, 28.00053
1143.124, 27.99753
1143.606, 27.54755
1144.088, 27.18974
1144.570, 27.18368
1145.052, 26.90708
1145.534, 27.22591
1146.016, 26.84370
1146.499, 26.70249
1146.981, 26.98354
1147.463, 27.20784
1147.945, 27.08317
1148.427, 26.79285
1148.909, 26.44613
1149.391, 26.05288
1149.873, 25.63961
1150.355, 25.21093
1150.838, 24.96729
1151.320, 25.09876
1151.802, 25.19696
1152.284, 24.75674
1152.766, 24.23750
1153.248, 24.20470
1153.730, 24.75365
1154.212, 24.95307
1154.695, 24.77796
1155.177, 24.57603
1155.659, 24.58308
1156.141, 24.61833
1156.623, 24.44075
1157.105, 24.18724
1157.587, 24.12960
1158.069, 24.39081
1158.552, 24.52408
1159.034, 24.51989
1159.516, 24.40270
1159.998, 24.12652
1160.480, 23.79565
1160.962, 23.50035
1161.444, 23.25917
1161.926, 23.13762
1162.408, 23.22312
1162.891, 23.24082
1163.373, 23.16236
1163.855, 23.02279
1164.337, 22.80446
1164.819, 22.57853
1165.301, 22.45133
1165.783, 22.42952
1166.265, 22.49121
1166.748, 22.74462
1167.230, 22.86618
1167.712, 22.73593
1168.194, 22.57856
1168.676, 22.82044
1169.158, 23.24879
1169.640, 23.43530
1170.122, 23.32889
1170.604, 23.07137
1171.087, 22.50059
1171.569, 22.04473
1172.051, 21.76217
1172.533, 21.72455
1173.015, 22.33923
1173.497, 23.29192
1173.979, 23.66128
1174.461, 23.17776
1174.943, 22.67399
1175.426, 22.41479
1175.908, 22.26980
1176.390, 22.20841
1176.872, 22.21047
1177.354, 22.19688
1177.836, 22.18661
1178.318, 22.26358
1178.800, 22.49763
1179.282, 22.68199
1179.765, 22.73522
1180.247, 22.68886
1180.729, 22.51080
1181.211, 22.25014
1181.693, 22.21946
1182.175, 22.37861
1182.657, 22.51463
1183.139, 22.55167
1183.622, 22.53104
1184.104, 22.47419
1184.586, 22.36181
1185.068, 22.15072
1185.550, 21.85108
1186.032, 21.66210
1186.514, 21.58020
1186.996, 21.58838
1187.479, 21.79388
1187.961, 21.94864
1188.443, 21.89014
1188.925, 21.74520
1189.407, 21.60911
1189.889, 21.47785
1190.371, 21.60230
1190.853, 21.97188
1191.335, 22.27980
1191.818, 22.26735
1192.300, 22.21262
1192.782, 22.33131
1193.264, 22.47285
1193.746, 22.37646
1194.228, 22.02582
1194.710, 21.88452
1195.192, 21.97902
1195.675, 22.04758
1196.157, 21.81969
1196.639, 21.58905
1197.121, 21.58109
1197.603, 21.69551
1198.085, 21.70157
1198.567, 21.58991
1199.049, 21.59293
1199.531, 21.73792
1200.014, 21.90516
1200.496, 22.02859
1200.978, 22.11345
1201.460, 22.16979
1201.942, 22.18924
1202.424, 22.13432
1202.906, 22.00182
1203.388, 21.86973
1203.870, 21.74273
1204.353, 21.69242
1204.835, 21.88324
1205.317, 22.08635
1205.799, 22.07715
1206.281, 21.92119
1206.763, 21.88826
1207.245, 21.98478
1207.727, 22.03760
1208.209, 22.00954
1208.692, 21.93345
1209.174, 21.72224
1209.656, 21.56952
1210.138, 21.73798
1210.620, 22.13496
1211.102, 22.19585
1211.584, 21.90978
1212.066, 21.65509
1212.549, 21.52851
1213.031, 21.49257
1213.513, 21.54808
1213.995, 21.65089
1214.477, 21.78656
1214.959, 21.94242
1215.441, 22.01514
1215.923, 22.00435
1216.406, 22.01613
1216.888, 22.09705
1217.370, 22.17358
1217.852, 22.18953
1218.334, 22.16654
1218.816, 22.11518
1219.298, 22.03920
1219.780, 21.98896
1220.262, 21.96425
1220.745, 21.95415
1221.227, 21.95669
1221.709, 21.96623
1222.191, 21.97105
1222.673, 21.98688
1223.155, 22.04016
1223.637, 22.12938
1224.119, 22.14339
1224.602, 22.08641
1225.084, 22.03699
1225.566, 22.03532
1226.048, 22.04246
1226.530, 22.02378
1227.012, 22.00734
1227.494, 22.03625
1227.976, 22.11066
1228.458, 22.04961
1228.941, 21.86703
1229.423, 21.76184
1229.905, 21.84286
1230.387, 22.00556
1230.869, 22.29058
1231.351, 22.54674
1231.833, 22.62362
1232.315, 22.52271
1232.797, 22.44273
1233.280, 22.37895
1233.762, 22.28155
1234.244, 22.04070
1234.726, 21.86730
1235.208, 21.89760
1235.690, 22.02749
1236.172, 22.21192
1236.654, 22.44246
1237.136, 22.38602
1237.619, 22.09442
1238.101, 21.93768
1238.583, 22.28325
1239.065, 22.59592
1239.547, 22.63592
1240.029, 22.58322
1240.511, 22.58991
1240.993, 22.64586
1241.476, 22.66717
1241.958, 22.65552
1242.440, 22.62945
1242.922, 22.53216
1243.404, 22.51600
1243.886, 22.69697
1244.368, 22.88346
1244.850, 22.84969
1245.333, 22.65767
1245.815, 22.58765
1246.297, 22.62800
1246.779, 22.68122
1247.261, 22.70597
1247.743, 22.73575
1248.225, 22.78318
1248.707, 22.82734
1249.189, 22.85835
1249.672, 22.86698
1250.154, 22.83161
1250.636, 22.75089
1251.118, 22.62263
1251.600, 22.25548
1252.082, 22.16109
1252.564, 22.49338
1253.046, 22.90016
1253.529, 23.00372
1254.011, 22.92350
1254.493, 22.88818
1254.975, 22.88564
1255.457, 22.81591
1255.939, 22.55182
1256.421, 22.40558
1256.903, 22.42832
1257.385, 22.49670
1257.868, 22.48580
1258.350, 22.44629
1258.832, 22.44614
1259.314, 22.48497
1259.796, 22.55190
1260.278, 22.65679
1260.760, 22.75715
1261.242, 22.85473
1261.724, 22.91912
1262.207, 22.86298
1262.689, 22.80433
1263.171, 22.94541
1263.653, 23.19626
1264.135, 23.19245
1264.617, 22.80671
1265.099, 22.79798
1265.581, 23.27977
1266.063, 23.70268
1266.546, 23.43904
1267.028, 23.05694
1267.510, 23.08565
1267.992, 23.35823
1268.474, 23.35685
1268.956, 23.03700
1269.438, 23.13000
1269.920, 23.70784
1270.403, 24.13626
1270.885, 23.70886
1271.367, 23.22010
1271.849, 23.17451
1272.331, 23.37994
1272.813, 23.61218
1273.295, 23.85358
1273.777, 23.74876
1274.260, 23.29179
1274.742, 22.99450
1275.224, 23.36717
1275.706, 23.70932
1276.188, 23.69419
1276.670, 23.98409
1277.152, 23.76292
1277.634, 24.16047
1278.116, 24.28877
1278.599, 24.15007
1279.081, 24.06801
1279.563, 24.37308
1280.045, 24.46611
1280.527, 24.15356
1281.009, 23.73101
1281.491, 23.54482
1281.973, 23.54361
1282.456, 23.63275
1282.938, 23.80186
1283.420, 24.04691
1283.902, 24.48952
1284.384, 24.75967
1284.866, 24.78081
1285.348, 24.72820
1285.830, 24.83564
1286.313, 24.95524
1286.795, 24.86116
1287.277, 24.59029
1287.759, 24.33446
1288.241, 24.04840
1288.723, 24.03689
1289.205, 24.36781
1289.687, 24.70875
1290.169, 24.78947
1290.651, 24.73377
1291.134, 24.59943
1291.616, 24.42697
1292.098, 24.33642
1292.580, 24.34760
1293.062, 24.12150
1293.544, 23.62931
1294.026, 23.34194
1294.508, 23.86236
1294.990, 24.40179
1295.473, 24.44724
1295.955, 24.26556
1296.437, 24.17949
1296.919, 24.18062
1297.401, 24.22126
1297.883, 24.29216
1298.365, 24.33239
1298.847, 24.31500
1299.330, 24.25124
1299.812, 24.13494
1300.294, 23.99497
1300.776, 23.79176
1301.258, 23.61160
1301.740, 23.80856
1302.222, 24.28278
1302.704, 24.51888
1303.187, 23.99432
1303.669, 23.72159
1304.151, 23.75763
##END=



