##NAMES=Elbaite
##RRUFFID=R070564
##IDEAL CHEMISTRY=Na(Al_1.5_Li_1.5_)Al_6_(Si_6_O_18_)(BO_3_)_3_(OH)_3_OH
##LOCALITY=unknown
##OWNER=RRUFF
##SOURCE=Gemological Institute of America
##DESCRIPTION=Green outer portion of a zoned watermelon tourmaline slice, see also R060566 (pink) and R070563 (white)
##STATUS=The identification of this mineral is confirmed by single-crystal X-ray diffraction and chemical analysis.
##URL=rruff.info/R070564
##MEASURED CHEMISTRY=(Na_0.77_[box]_0.19_Ca_0.04_)_Σ=1_(Al_1.69_Li_0.66_Fe^2+^_0.49_Mn_0.12_Mg_0.03_Ti_0.01_)_Σ=3_Al_6.00_(BO_3_)_3_Si_6.00_O_18_((OH)_3.10_F_0.90_)_Σ=4_; H_2_O from stoichiometry after deduction of F; B_2_O_3_ by difference; Li by charge balance
181.7551, 17727.90
182.2372, 17802.28
182.7193, 17894.97
183.2014, 17958.29
183.6835, 17993.55
184.1656, 18010.09
184.6478, 18006.46
185.1299, 17987.02
185.6120, 17970.92
186.0941, 17959.87
186.5762, 17955.05
187.0583, 17968.89
187.5405, 18002.84
188.0226, 18022.26
188.5047, 17979.26
188.9868, 17882.51
189.4689, 17815.22
189.9510, 17796.84
190.4332, 17821.52
190.9153, 17884.88
191.3974, 17995.17
191.8795, 18100.80
192.3616, 18140.39
192.8437, 18113.90
193.3259, 18083.69
193.8080, 18057.62
194.2901, 18039.99
194.7722, 18073.20
195.2543, 18168.73
195.7364, 18284.07
196.2186, 18364.45
196.7007, 18407.69
197.1828, 18436.38
197.6649, 18445.56
198.1470, 18433.87
198.6291, 18471.92
199.1112, 18572.74
199.5934, 18703.06
200.0755, 18805.17
200.5576, 18875.12
201.0397, 18935.88
201.5218, 19002.85
202.0039, 19080.09
202.4861, 19120.10
202.9682, 19098.81
203.4503, 19057.21
203.9324, 19108.86
204.4145, 19279.63
204.8966, 19463.07
205.3788, 19590.29
205.8609, 19644.24
206.3430, 19726.54
206.8251, 19854.78
207.3072, 20015.39
207.7893, 20155.36
208.2715, 20267.39
208.7536, 20372.53
209.2357, 20484.76
209.7178, 20603.85
210.1999, 20727.80
210.6820, 20855.55
211.1642, 20987.24
211.6463, 21134.62
212.1284, 21306.06
212.6105, 21480.54
213.0926, 21634.25
213.5747, 21757.16
214.0569, 21891.84
214.5390, 22051.21
215.0211, 22233.37
215.5032, 22409.22
215.9853, 22581.16
216.4674, 22743.44
216.9496, 22892.35
217.4317, 23028.62
217.9138, 23150.33
218.3959, 23259.37
218.8780, 23354.96
219.3601, 23434.34
219.8423, 23492.60
220.3244, 23539.11
220.8065, 23596.07
221.2886, 23696.70
221.7707, 23740.38
222.2528, 23685.30
222.7349, 23505.99
223.2171, 23348.79
223.6992, 23224.17
224.1813, 23114.15
224.6634, 22980.98
225.1455, 22803.51
225.6276, 22641.27
226.1098, 22528.32
226.5919, 22497.27
227.0740, 22408.49
227.5561, 22231.37
228.0382, 22008.63
228.5203, 21840.87
229.0025, 21750.73
229.4846, 21680.33
229.9667, 21609.66
230.4488, 21544.23
230.9309, 21462.39
231.4130, 21346.71
231.8952, 21216.30
232.3773, 21130.98
232.8594, 21110.88
233.3415, 21106.61
233.8236, 21092.55
234.3057, 21057.92
234.7879, 21038.30
235.2700, 21043.85
235.7521, 21066.18
236.2342, 21070.46
236.7163, 21055.68
237.1984, 21024.45
237.6806, 20971.69
238.1627, 20868.31
238.6448, 20807.67
239.1269, 20813.02
239.6090, 20872.82
240.0911, 20912.57
240.5733, 20931.57
241.0554, 20931.45
241.5375, 20910.25
242.0196, 20854.62
242.5017, 20806.63
242.9838, 20778.83
243.4660, 20767.46
243.9481, 20723.04
244.4302, 20611.78
244.9123, 20506.05
245.3944, 20472.77
245.8765, 20577.04
246.3586, 20622.27
246.8408, 20556.36
247.3229, 20386.01
247.8050, 20285.24
248.2871, 20300.25
248.7692, 20333.25
249.2513, 20287.12
249.7335, 20099.02
250.2156, 19963.85
250.6977, 19930.39
251.1798, 20000.01
251.6619, 20037.25
252.1440, 20030.98
252.6262, 20004.27
253.1083, 19981.10
253.5904, 19970.86
254.0725, 19942.62
254.5546, 19879.03
255.0367, 19776.22
255.5189, 19724.26
256.0010, 19756.04
256.4831, 19801.13
256.9652, 19772.58
257.4473, 19630.82
257.9294, 19506.85
258.4116, 19439.69
258.8937, 19432.33
259.3758, 19411.98
259.8579, 19367.75
260.3400, 19322.95
260.8221, 19306.79
261.3043, 19326.55
261.7864, 19357.58
262.2685, 19402.33
262.7506, 19464.97
263.2327, 19482.67
263.7148, 19438.98
264.1970, 19371.74
264.6791, 19330.42
265.1612, 19322.25
265.6433, 19319.89
266.1254, 19311.01
266.6075, 19293.53
267.0897, 19312.52
267.5718, 19390.86
268.0539, 19474.22
268.5360, 19468.96
269.0181, 19345.72
269.5002, 19240.94
269.9824, 19207.97
270.4645, 19251.23
270.9466, 19286.75
271.4287, 19315.43
271.9108, 19334.68
272.3929, 19341.03
272.8751, 19334.06
273.3572, 19315.40
273.8393, 19285.91
274.3214, 19245.42
274.8035, 19184.22
275.2856, 19089.22
275.7678, 18998.02
276.2499, 18985.77
276.7320, 19066.92
277.2141, 19126.86
277.6962, 19111.63
278.1783, 19021.80
278.6604, 18942.10
279.1425, 18873.06
279.6247, 18812.12
280.1068, 18754.49
280.5889, 18699.88
281.0710, 18654.44
281.5531, 18620.83
282.0352, 18598.93
282.5174, 18590.29
282.9995, 18599.39
283.4816, 18609.75
283.9637, 18595.80
284.4458, 18557.70
284.9279, 18515.27
285.4101, 18466.25
285.8922, 18415.93
286.3743, 18409.05
286.8564, 18457.07
287.3385, 18511.70
287.8206, 18498.13
288.3028, 18421.95
288.7849, 18344.80
289.2670, 18295.26
289.7491, 18267.80
290.2312, 18242.13
290.7133, 18217.75
291.1955, 18195.71
291.6776, 18178.47
292.1597, 18165.12
292.6418, 18150.91
293.1239, 18122.33
293.6060, 18091.39
294.0882, 18096.43
294.5703, 18143.75
295.0524, 18197.51
295.5345, 18212.13
296.0166, 18197.09
296.4987, 18186.18
296.9809, 18198.28
297.4630, 18224.46
297.9451, 18256.15
298.4272, 18295.88
298.9093, 18318.59
299.3914, 18272.68
299.8736, 18185.84
300.3557, 18131.90
300.8378, 18181.53
301.3199, 18267.43
301.8020, 18288.99
302.2841, 18235.26
302.7663, 18192.05
303.2484, 18252.95
303.7305, 18377.56
304.2126, 18484.93
304.6947, 18535.55
305.1768, 18554.26
305.6590, 18555.71
306.1411, 18539.11
306.6232, 18528.21
307.1053, 18539.85
307.5874, 18568.08
308.0695, 18603.63
308.5517, 18664.56
309.0338, 18716.21
309.5159, 18718.16
309.9980, 18666.94
310.4801, 18634.90
310.9622, 18682.78
311.4444, 18768.95
311.9265, 18841.12
312.4086, 18877.32
312.8907, 18897.10
313.3728, 18901.43
313.8549, 18890.23
314.3371, 18892.96
314.8192, 18937.13
315.3013, 18995.88
315.7834, 19041.53
316.2655, 19056.02
316.7477, 19064.72
317.2298, 19080.33
317.7119, 19102.87
318.1940, 19112.43
318.6761, 19067.88
319.1582, 19024.99
319.6404, 19030.43
320.1225, 19154.52
320.6046, 19266.25
321.0867, 19327.36
321.5688, 19339.85
322.0509, 19359.44
322.5330, 19401.91
323.0151, 19450.75
323.4973, 19494.65
323.9794, 19530.22
324.4615, 19563.42
324.9436, 19595.07
325.4257, 19624.92
325.9078, 19651.27
326.3900, 19665.79
326.8721, 19681.88
327.3542, 19707.42
327.8363, 19750.60
328.3184, 19791.49
328.8005, 19829.44
329.2827, 19863.95
329.7648, 19894.19
330.2469, 19918.23
330.7290, 19940.53
331.2111, 19963.79
331.6932, 19992.18
332.1754, 20013.38
332.6575, 20022.47
333.1396, 20024.70
333.6217, 20039.06
334.1038, 20071.04
334.5859, 20105.79
335.0681, 20134.70
335.5502, 20155.54
336.0323, 20179.57
336.5144, 20208.57
336.9965, 20239.71
337.4786, 20268.83
337.9608, 20296.97
338.4429, 20316.79
338.9250, 20320.43
339.4071, 20306.30
339.8892, 20300.91
340.3713, 20308.91
340.8535, 20319.82
341.3356, 20306.47
341.8177, 20266.35
342.2998, 20244.63
342.7819, 20272.20
343.2640, 20342.08
343.7462, 20406.72
344.2283, 20467.58
344.7104, 20518.26
345.1925, 20548.21
345.6746, 20559.45
346.1567, 20563.45
346.6389, 20568.70
347.1210, 20570.50
347.6031, 20544.40
348.0852, 20485.71
348.5673, 20443.83
349.0494, 20487.55
349.5316, 20591.43
350.0137, 20687.47
350.4958, 20731.55
350.9779, 20758.00
351.4600, 20818.74
351.9421, 20912.76
352.4243, 21005.33
352.9064, 21044.88
353.3885, 21068.08
353.8706, 21133.39
354.3527, 21304.69
354.8348, 21489.62
355.3170, 21612.92
355.7991, 21680.65
356.2812, 21752.76
356.7633, 21874.62
357.2454, 22013.49
357.7275, 22136.01
358.2097, 22207.53
358.6918, 22290.47
359.1739, 22416.28
359.6560, 22578.82
360.1381, 22750.63
360.6202, 22943.02
361.1024, 23127.69
361.5845, 23284.39
362.0666, 23384.74
362.5487, 23494.32
363.0308, 23618.83
363.5129, 23762.31
363.9951, 23935.64
364.4772, 24170.80
364.9593, 24410.35
365.4414, 24630.52
365.9235, 24823.50
366.4056, 25009.64
366.8878, 25189.88
367.3698, 25362.27
367.8520, 25526.09
368.3341, 25695.45
368.8162, 25839.25
369.2983, 25935.17
369.7804, 25953.28
370.2625, 26044.31
370.7447, 26273.32
371.2268, 26526.12
371.7089, 26654.40
372.1910, 26619.90
372.6731, 26546.98
373.1552, 26468.93
373.6374, 26385.28
374.1195, 26264.21
374.6016, 26103.58
375.0837, 25906.96
375.5658, 25672.59
376.0479, 25394.99
376.5301, 25106.98
377.0122, 24808.76
377.4943, 24503.83
377.9764, 24210.11
378.4585, 23923.23
378.9406, 23658.69
379.4228, 23445.83
379.9049, 23275.23
380.3870, 23073.57
380.8691, 22816.75
381.3512, 22539.41
381.8333, 22291.97
382.3155, 22076.35
382.7976, 21887.61
383.2797, 21732.89
383.7618, 21605.46
384.2439, 21496.13
384.7260, 21410.75
385.2082, 21326.49
385.6903, 21210.72
386.1724, 21075.94
386.6545, 20957.17
387.1366, 20873.22
387.6187, 20769.65
388.1009, 20783.31
388.5830, 20777.70
389.0651, 20753.92
389.5472, 20652.44
390.0293, 20655.23
390.5114, 20618.65
390.9936, 20582.10
391.4757, 20604.49
391.9578, 20523.16
392.4399, 20548.09
392.9220, 20533.01
393.4041, 20538.75
393.8863, 20504.85
394.3684, 20485.44
394.8505, 20509.13
395.3326, 20511.63
395.8147, 20479.85
396.2968, 20497.12
396.7790, 20431.55
397.2611, 20441.91
397.7432, 20486.00
398.2253, 20464.90
398.7074, 20491.54
399.1895, 20502.36
399.6717, 20435.28
400.1538, 20508.41
400.6359, 20523.36
401.1180, 20478.54
401.6001, 20502.12
402.0822, 20491.92
402.5644, 20474.44
403.0465, 20441.15
403.5286, 20382.42
404.0107, 20321.46
404.4928, 20304.52
404.9749, 20340.62
405.4571, 20367.29
405.9392, 20355.98
406.4213, 20312.05
406.9034, 20279.49
407.3855, 20259.25
407.8676, 20246.83
408.3498, 20248.26
408.8319, 20257.83
409.3140, 20240.39
409.7961, 20164.91
410.2782, 20069.37
410.7603, 20041.48
411.2425, 20075.41
411.7246, 20093.08
412.2067, 20026.12
412.6888, 19904.01
413.1709, 19772.96
413.6530, 19626.99
414.1351, 19502.83
414.6172, 19456.43
415.0994, 19463.14
415.5815, 19444.13
416.0636, 19322.76
416.5457, 19182.62
417.0278, 19090.07
417.5099, 19068.54
417.9921, 19049.66
418.4742, 19005.06
418.9563, 18944.86
419.4384, 18884.11
419.9205, 18813.20
420.4026, 18754.97
420.8848, 18730.58
421.3669, 18748.64
421.8490, 18729.93
422.3311, 18614.21
422.8132, 18484.91
423.2953, 18413.77
423.7775, 18464.83
424.2596, 18486.70
424.7417, 18444.25
425.2238, 18350.98
425.7059, 18304.26
426.1880, 18323.79
426.6702, 18361.65
427.1523, 18393.74
427.6344, 18423.06
428.1165, 18433.31
428.5986, 18418.55
429.0807, 18389.58
429.5629, 18368.73
430.0450, 18357.37
430.5271, 18345.30
431.0092, 18321.44
431.4913, 18289.52
431.9734, 18285.16
432.4556, 18313.48
432.9377, 18345.42
433.4198, 18344.62
433.9019, 18317.04
434.3840, 18287.61
434.8661, 18263.56
435.3483, 18244.13
435.8304, 18224.83
436.3125, 18206.58
436.7946, 18200.82
437.2767, 18214.32
437.7589, 18245.59
438.2410, 18298.87
438.7231, 18402.99
439.2052, 18482.32
439.6873, 18469.22
440.1694, 18390.53
440.6516, 18319.86
441.1337, 18295.46
441.6158, 18283.59
442.0979, 18261.09
442.5800, 18213.73
443.0621, 18194.42
443.5443, 18241.34
444.0264, 18315.55
444.5085, 18364.38
444.9906, 18377.83
445.4727, 18370.52
445.9548, 18333.48
446.4370, 18264.68
446.9191, 18228.92
447.4012, 18242.41
447.8833, 18271.17
448.3654, 18291.38
448.8475, 18303.58
449.3297, 18304.89
449.8118, 18291.59
450.2939, 18268.58
450.7760, 18250.00
451.2581, 18235.44
451.7402, 18227.07
452.2224, 18237.79
452.7045, 18263.49
453.1866, 18243.53
453.6687, 18165.12
454.1508, 18076.79
454.6329, 18048.27
455.1151, 18069.63
455.5972, 18093.96
456.0793, 18110.19
456.5614, 18114.02
457.0435, 18089.15
457.5256, 18037.42
458.0077, 17993.64
458.4898, 17991.46
458.9720, 18010.79
459.4541, 18029.34
459.9362, 17992.56
460.4183, 18039.08
460.9004, 18064.59
461.3825, 18070.23
461.8647, 17996.43
462.3468, 18025.20
462.8289, 18012.87
463.3110, 17998.85
463.7931, 18042.05
464.2752, 17979.81
464.7574, 18018.58
465.2395, 17998.47
465.7216, 17989.16
466.2037, 18002.31
466.6858, 18010.60
467.1679, 18002.13
467.6501, 17978.26
468.1322, 17984.42
468.6143, 18035.07
469.0964, 18092.13
469.5785, 18132.61
470.0606, 18157.66
470.5428, 18153.93
471.0249, 18109.55
471.5070, 18048.48
471.9891, 18026.61
472.4712, 18044.87
472.9533, 18065.54
473.4355, 18061.22
473.9176, 18043.20
474.3997, 18053.89
474.8818, 18097.05
475.3639, 18145.27
475.8460, 18176.15
476.3282, 18191.46
476.8103, 18194.35
477.2924, 18176.63
477.7745, 18155.40
478.2566, 18144.57
478.7387, 18143.37
479.2209, 18148.38
479.7030, 18168.69
480.1851, 18187.84
480.6672, 18188.91
481.1493, 18147.56
481.6314, 18133.57
482.1136, 18207.86
482.5957, 18315.85
483.0778, 18362.24
483.5599, 18241.60
484.0420, 18152.29
484.5241, 18154.85
485.0063, 18259.88
485.4884, 18342.87
485.9705, 18417.61
486.4526, 18454.84
486.9347, 18415.28
487.4168, 18258.59
487.8990, 18166.54
488.3811, 18176.59
488.8632, 18254.98
489.3453, 18317.06
489.8274, 18363.77
490.3095, 18390.84
490.7917, 18386.67
491.2738, 18358.90
491.7559, 18345.45
492.2380, 18350.36
492.7201, 18353.57
493.2022, 18317.95
493.6844, 18262.80
494.1665, 18237.25
494.6486, 18285.39
495.1307, 18349.03
495.6128, 18365.81
496.0949, 18344.52
496.5771, 18333.46
497.0592, 18383.13
497.5413, 18439.10
498.0234, 18450.72
498.5055, 18374.82
498.9876, 18331.92
499.4698, 18399.29
499.9519, 18512.04
500.4340, 18563.33
500.9161, 18473.43
501.3982, 18388.76
501.8803, 18339.05
502.3624, 18324.93
502.8445, 18335.75
503.3267, 18385.76
503.8088, 18442.30
504.2909, 18486.70
504.7730, 18525.78
505.2551, 18521.31
505.7372, 18458.13
506.2194, 18362.17
506.7015, 18283.17
507.1836, 18221.47
507.6657, 18174.76
508.1478, 18139.18
508.6299, 18118.16
509.1121, 18131.73
509.5942, 18183.06
510.0763, 18231.54
510.5584, 18233.81
511.0405, 18208.66
511.5226, 18190.57
512.0048, 18205.54
512.4869, 18211.71
512.9690, 18162.88
513.4511, 18076.25
513.9332, 18010.61
514.4153, 18017.90
514.8975, 18031.60
515.3796, 18009.76
515.8617, 17930.91
516.3438, 17873.91
516.8259, 17866.56
517.3080, 17880.83
517.7902, 17885.51
518.2723, 17886.02
518.7544, 17866.58
519.2365, 17812.32
519.7186, 17732.78
520.2007, 17692.11
520.6829, 17702.38
521.1650, 17720.87
521.6471, 17721.83
522.1292, 17705.04
522.6113, 17692.22
523.0934, 17685.98
523.5756, 17679.55
524.0577, 17658.98
524.5398, 17628.52
525.0219, 17607.33
525.5040, 17603.29
525.9861, 17612.79
526.4683, 17639.65
526.9504, 17680.82
527.4325, 17711.05
527.9146, 17716.94
528.3967, 17703.08
528.8788, 17665.24
529.3610, 17578.23
529.8431, 17527.68
530.3252, 17581.35
530.8073, 17683.64
531.2894, 17748.21
531.7715, 17720.84
532.2537, 17691.16
532.7358, 17679.80
533.2179, 17686.42
533.7000, 17697.36
534.1821, 17720.71
534.6642, 17738.03
535.1464, 17740.19
535.6285, 17729.67
536.1106, 17686.10
536.5927, 17590.67
537.0748, 17488.03
537.5569, 17469.16
538.0391, 17532.29
538.5212, 17586.30
539.0033, 17585.78
539.4854, 17554.18
539.9675, 17549.29
540.4496, 17569.75
540.9318, 17578.41
541.4139, 17515.61
541.8960, 17435.28
542.3781, 17417.93
542.8602, 17513.77
543.3423, 17594.48
543.8245, 17555.14
544.3066, 17454.40
544.7887, 17398.54
545.2708, 17492.62
545.7529, 17568.18
546.2350, 17552.25
546.7172, 17435.39
547.1993, 17354.37
547.6814, 17321.45
548.1635, 17315.39
548.6456, 17326.75
549.1277, 17366.23
549.6099, 17394.75
550.0920, 17412.99
550.5741, 17417.05
551.0562, 17382.96
551.5383, 17305.24
552.0204, 17270.70
552.5026, 17341.60
552.9847, 17474.57
553.4668, 17530.24
553.9489, 17511.38
554.4310, 17472.05
554.9131, 17442.88
555.3953, 17424.25
555.8774, 17418.42
556.3595, 17429.21
556.8416, 17443.52
557.3237, 17458.79
557.8058, 17470.48
558.2880, 17470.74
558.7701, 17434.23
559.2522, 17407.91
559.7343, 17411.51
560.2164, 17445.54
560.6985, 17482.24
561.1807, 17549.39
561.6628, 17590.23
562.1449, 17564.74
562.6270, 17425.16
563.1091, 17349.62
563.5912, 17362.82
564.0734, 17412.38
564.5555, 17412.45
565.0376, 17359.24
565.5197, 17313.25
566.0018, 17291.27
566.4839, 17290.18
566.9661, 17313.91
567.4482, 17359.90
567.9303, 17389.89
568.4124, 17356.21
568.8945, 17298.22
569.3766, 17275.61
569.8587, 17305.75
570.3408, 17328.36
570.8229, 17295.30
571.3051, 17234.92
571.7872, 17183.91
572.2693, 17150.28
572.7514, 17131.62
573.2335, 17133.94
573.7156, 17154.17
574.1978, 17170.25
574.6799, 17186.36
575.1620, 17192.79
575.6441, 17180.46
576.1262, 17140.90
576.6083, 17125.19
577.0905, 17135.62
577.5726, 17165.65
578.0547, 17218.68
578.5368, 17293.76
579.0189, 17346.80
579.5010, 17368.85
579.9832, 17362.09
580.4653, 17311.71
580.9474, 17228.47
581.4295, 17164.29
581.9116, 17173.72
582.3937, 17202.38
582.8759, 17190.17
583.3580, 17131.80
583.8401, 17078.85
584.3222, 17044.61
584.8043, 17034.90
585.2864, 17054.74
585.7686, 17147.66
586.2507, 17216.66
586.7328, 17252.14
587.2149, 17256.82
587.6970, 17228.95
588.1791, 17139.32
588.6613, 17072.27
589.1434, 17062.10
589.6255, 17102.34
590.1076, 17100.47
590.5897, 17047.03
591.0718, 16997.88
591.5540, 17011.40
592.0361, 17071.08
592.5182, 17102.20
593.0003, 17092.76
593.4824, 17066.35
593.9645, 17040.28
594.4467, 17016.88
594.9288, 17000.89
595.4109, 16992.84
595.8930, 16993.98
596.3751, 17010.44
596.8572, 17038.92
597.3394, 17061.73
597.8215, 17092.64
598.3036, 17101.29
598.7857, 17063.14
599.2678, 16951.52
599.7499, 16881.77
600.2321, 16873.56
600.7142, 16888.33
601.1963, 16885.75
601.6784, 16860.56
602.1605, 16844.74
602.6426, 16845.75
603.1248, 16856.02
603.6069, 16852.92
604.0890, 16838.43
604.5711, 16840.44
605.0532, 16900.17
605.5353, 16973.94
606.0175, 16980.51
606.4996, 16921.03
606.9817, 16872.38
607.4638, 16912.93
607.9459, 16974.85
608.4280, 16992.12
608.9102, 16928.39
609.3923, 16867.90
609.8744, 16817.03
610.3565, 16787.19
610.8386, 16801.68
611.3207, 16923.50
611.8029, 16994.37
612.2850, 16964.87
612.7671, 16857.35
613.2492, 16808.90
613.7313, 16831.77
614.2134, 16865.78
614.6956, 16872.63
615.1777, 16857.78
615.6598, 16864.36
616.1419, 16895.47
616.6240, 16927.71
617.1061, 16939.71
617.5883, 16935.35
618.0704, 16919.77
618.5525, 16883.15
619.0346, 16854.21
619.5167, 16852.74
619.9988, 16873.41
620.4810, 16904.96
620.9631, 16978.48
621.4452, 17029.20
621.9273, 17015.15
622.4094, 16934.76
622.8915, 16909.30
623.3737, 16969.71
623.8558, 17045.35
624.3379, 17096.51
624.8200, 17120.46
625.3021, 17136.31
625.7842, 17142.47
626.2664, 17146.24
626.7485, 17158.95
627.2306, 17152.07
627.7127, 17203.17
628.1948, 17233.27
628.6769, 17243.49
629.1591, 17174.28
629.6412, 17207.63
630.1233, 17199.88
630.6054, 17190.45
631.0875, 17238.24
631.5696, 17180.58
632.0518, 17227.46
632.5339, 17232.62
633.0160, 17256.87
633.4981, 17239.76
633.9802, 17235.43
634.4623, 17272.47
634.9445, 17286.60
635.4266, 17264.73
635.9087, 17290.20
636.3908, 17231.09
636.8729, 17246.20
637.3550, 17293.32
637.8372, 17273.54
638.3193, 17299.76
638.8014, 17249.35
639.2835, 17227.95
639.7656, 17205.77
640.2477, 17183.73
640.7299, 17173.24
641.2120, 17198.84
641.6941, 17264.53
642.1762, 17299.66
642.6583, 17229.96
643.1404, 17146.77
643.6226, 17119.39
644.1047, 17233.52
644.5868, 17282.98
645.0689, 17230.87
645.5510, 17137.52
646.0331, 17096.61
646.5153, 17118.58
646.9974, 17149.58
647.4795, 17185.35
647.9616, 17215.08
648.4437, 17192.29
648.9258, 17122.85
649.4080, 17073.17
649.8901, 17112.65
650.3722, 17182.97
650.8543, 17196.95
651.3364, 17150.15
651.8185, 17109.79
652.3007, 17122.69
652.7828, 17154.04
653.2649, 17175.56
653.7470, 17187.43
654.2291, 17179.33
654.7112, 17119.18
655.1934, 17052.35
655.6755, 17043.59
656.1576, 17124.95
656.6397, 17180.87
657.1218, 17181.92
657.6039, 17146.50
658.0861, 17130.17
658.5682, 17133.07
659.0502, 17148.42
659.5323, 17197.24
660.0145, 17248.38
660.4966, 17235.33
660.9787, 17158.52
661.4608, 17068.37
661.9429, 16966.84
662.4250, 16886.67
662.9072, 16861.48
663.3893, 16919.45
663.8714, 16977.59
664.3535, 17021.09
664.8356, 17051.78
665.3177, 17074.80
665.7999, 17103.96
666.2820, 17093.28
666.7641, 17013.54
667.2462, 16903.82
667.7283, 16883.23
668.2104, 16958.52
668.6926, 17011.83
669.1747, 16967.80
669.6568, 16870.72
670.1389, 16831.65
670.6210, 16845.42
671.1031, 16862.80
671.5853, 16836.44
672.0674, 16760.20
672.5495, 16798.61
673.0316, 16816.90
673.5137, 16816.19
673.9958, 16736.94
674.4780, 16761.14
674.9601, 16745.13
675.4422, 16728.31
675.9243, 16769.61
676.4064, 16706.35
676.8885, 16748.51
677.3707, 16749.83
677.8528, 16771.13
678.3349, 16751.97
678.8170, 16746.46
679.2991, 16783.22
679.7813, 16797.95
680.2634, 16777.57
680.7455, 16805.41
681.2276, 16749.57
681.7097, 16768.83
682.1918, 16820.98
682.6740, 16807.12
683.1561, 16840.15
683.6382, 16856.54
684.1203, 16794.19
684.6024, 16871.21
685.0845, 16889.23
685.5667, 16846.64
686.0488, 16921.58
686.5309, 16889.24
687.0130, 16896.40
687.4951, 16933.49
687.9772, 16941.19
688.4594, 16997.53
688.9415, 17008.75
689.4236, 17016.74
689.9057, 17043.56
690.3878, 17020.43
690.8699, 17092.49
691.3521, 17154.18
691.8342, 17183.66
692.3163, 17180.47
692.7984, 17171.05
693.2805, 17124.42
693.7626, 17107.92
694.2448, 17170.57
694.7269, 17337.81
695.2090, 17452.14
695.6911, 17489.10
696.1732, 17513.08
696.6553, 17591.83
697.1375, 17726.33
697.6196, 17814.71
698.1017, 17836.56
698.5838, 17844.99
699.0659, 17905.57
699.5480, 18005.53
700.0302, 18115.39
700.5123, 18230.34
700.9944, 18344.75
701.4765, 18474.75
701.9586, 18602.95
702.4407, 18684.36
702.9229, 18639.62
703.4050, 18617.30
703.8871, 18669.17
704.3692, 18788.98
704.8513, 18896.16
705.3334, 18987.77
705.8156, 19072.47
706.2977, 19154.93
706.7798, 19234.46
707.2619, 19312.48
707.7440, 19389.83
708.2261, 19456.63
708.7083, 19484.91
709.1904, 19501.61
709.6725, 19551.04
710.1546, 19653.60
710.6367, 19751.00
711.1188, 19823.22
711.6010, 19869.21
712.0831, 19888.98
712.5652, 19838.89
713.0473, 19818.14
713.5294, 19846.24
714.0115, 19903.92
714.4937, 19945.74
714.9758, 19970.88
715.4579, 19987.68
715.9400, 19999.68
716.4221, 20005.49
716.9042, 20003.53
717.3864, 19993.24
717.8685, 19969.11
718.3506, 19913.31
718.8327, 19851.58
719.3148, 19810.13
719.7969, 19790.57
720.2791, 19774.24
720.7612, 19765.22
721.2433, 19748.95
721.7254, 19715.14
722.2075, 19659.44
722.6896, 19600.88
723.1718, 19543.63
723.6539, 19478.16
724.1360, 19385.58
724.6181, 19267.97
725.1002, 19167.15
725.5823, 19091.05
726.0645, 19027.88
726.5466, 18972.04
727.0287, 18916.29
727.5108, 18843.11
727.9929, 18721.61
728.4750, 18606.04
728.9572, 18541.79
729.4393, 18507.29
729.9214, 18438.33
730.4035, 18288.92
730.8856, 18139.83
731.3677, 18001.13
731.8499, 17876.85
732.3320, 17805.13
732.8141, 17798.82
733.2962, 17784.92
733.7783, 17707.47
734.2604, 17587.53
734.7426, 17496.96
735.2247, 17437.39
735.7068, 17382.61
736.1889, 17305.89
736.6710, 17226.70
737.1531, 17164.97
737.6353, 17126.73
738.1174, 17096.89
738.5995, 17067.04
739.0816, 17046.31
739.5637, 17046.18
740.0458, 17086.24
740.5280, 17097.18
741.0101, 17066.25
741.4922, 17015.45
741.9743, 16980.00
742.4564, 16958.60
742.9385, 16935.83
743.4207, 16899.67
743.9028, 16871.25
744.3849, 16880.72
744.8670, 16920.02
745.3491, 16966.94
745.8312, 17040.27
746.3134, 17092.31
746.7955, 17084.48
747.2776, 17024.85
747.7597, 16998.57
748.2418, 17024.98
748.7239, 17059.10
749.2060, 17087.63
749.6881, 17109.96
750.1702, 17115.03
750.6523, 17101.59
751.1345, 17082.38
751.6166, 17069.39
752.0987, 17057.03
752.5808, 17030.63
753.0629, 16987.51
753.5450, 16950.39
754.0272, 16935.95
754.5093, 16933.29
754.9914, 16935.70
755.4735, 16962.95
755.9556, 16952.69
756.4377, 16883.83
756.9199, 16793.00
757.4020, 16717.65
757.8841, 16656.63
758.3662, 16627.60
758.8483, 16645.83
759.3304, 16671.41
759.8126, 16635.71
760.2947, 16553.83
760.7768, 16470.40
761.2589, 16387.67
761.7410, 16327.64
762.2231, 16321.59
762.7053, 16351.08
763.1874, 16368.00
763.6695, 16356.56
764.1516, 16332.41
764.6337, 16288.39
765.1158, 16231.98
765.5980, 16220.29
766.0801, 16268.22
766.5622, 16301.09
767.0443, 16280.25
767.5264, 16216.33
768.0085, 16127.08
768.4907, 16015.71
768.9728, 15937.57
769.4549, 15966.84
769.9370, 16025.10
770.4191, 16032.83
770.9012, 15975.05
771.3834, 15936.75
771.8655, 15967.92
772.3476, 16004.65
772.8297, 16004.36
773.3118, 15949.13
773.7939, 15918.55
774.2761, 15919.33
774.7582, 15928.29
775.2403, 15912.96
775.7224, 15882.78
776.2045, 15886.79
776.6866, 15945.75
777.1688, 15991.64
777.6509, 15928.78
778.1330, 15824.46
778.6151, 15770.07
779.0972, 15867.15
779.5793, 15924.74
780.0615, 15853.35
780.5436, 15737.46
781.0257, 15715.62
781.5078, 15824.93
781.9899, 15914.83
782.4720, 15955.70
782.9542, 15957.95
783.4363, 15930.12
783.9184, 15878.65
784.4005, 15837.32
784.8826, 15829.79
785.3647, 15833.36
785.8469, 15827.05
786.3290, 15814.30
786.8111, 15807.59
787.2932, 15815.57
787.7753, 15825.36
788.2574, 15827.70
788.7396, 15824.74
789.2217, 15853.05
789.7038, 15930.48
790.1859, 15976.62
790.6680, 15918.84
791.1501, 15790.49
791.6323, 15739.83
792.1144, 15763.35
792.5965, 15792.03
793.0786, 15758.89
793.5607, 15718.38
794.0428, 15735.26
794.5250, 15828.25
795.0071, 15874.72
795.4892, 15792.80
795.9713, 15697.04
796.4534, 15659.00
796.9355, 15699.88
797.4177, 15705.46
797.8998, 15665.95
798.3819, 15623.86
798.8640, 15627.48
799.3461, 15663.74
799.8282, 15698.73
800.3104, 15730.62
800.7925, 15741.67
801.2746, 15686.25
801.7567, 15616.97
802.2388, 15593.33
802.7209, 15674.00
803.2031, 15735.68
803.6852, 15766.05
804.1673, 15773.93
804.6494, 15770.33
805.1315, 15755.77
805.6136, 15720.79
806.0958, 15654.10
806.5779, 15588.18
807.0600, 15579.75
807.5421, 15613.13
808.0242, 15646.91
808.5063, 15668.30
808.9885, 15682.44
809.4706, 15685.78
809.9527, 15684.70
810.4348, 15693.60
810.9169, 15737.27
811.3990, 15758.92
811.8812, 15745.02
812.3633, 15704.67
812.8454, 15654.15
813.3275, 15592.94
813.8096, 15555.93
814.2917, 15561.64
814.7739, 15595.97
815.2560, 15655.86
815.7381, 15729.56
816.2202, 15774.34
816.7023, 15750.30
817.1844, 15711.48
817.6666, 15671.61
818.1487, 15635.01
818.6308, 15634.04
819.1129, 15683.53
819.5950, 15739.41
820.0771, 15782.72
820.5593, 15817.15
821.0414, 15869.03
821.5235, 15937.68
822.0056, 15991.91
822.4877, 15987.98
822.9698, 15974.32
823.4520, 16003.36
823.9341, 16077.16
824.4162, 16166.02
824.8983, 16301.51
825.3804, 16410.81
825.8625, 16448.29
826.3447, 16403.40
826.8268, 16407.93
827.3089, 16475.13
827.7910, 16545.86
828.2731, 16564.99
828.7552, 16552.62
829.2374, 16578.25
829.7195, 16645.56
830.2016, 16711.50
830.6837, 16728.72
831.1658, 16739.98
831.6479, 16789.62
832.1301, 16902.45
832.6122, 16979.41
833.0943, 17002.11
833.5764, 17001.96
834.0585, 16998.76
834.5406, 16992.83
835.0228, 16982.33
835.5049, 16965.88
835.9870, 16955.95
836.4691, 16986.54
836.9512, 17025.47
837.4333, 17013.50
837.9155, 16928.71
838.3975, 16842.52
838.8796, 16778.71
839.3618, 16735.90
839.8439, 16717.45
840.3260, 16756.01
840.8081, 16738.56
841.2902, 16645.27
841.7723, 16531.58
842.2545, 16467.78
842.7366, 16442.74
843.2187, 16385.27
843.7008, 16275.54
844.1829, 16166.69
844.6650, 16102.19
845.1472, 16069.56
845.6293, 16054.80
846.1114, 16092.30
846.5935, 16083.76
847.0756, 15977.09
847.5577, 15851.03
848.0399, 15806.44
848.5220, 15860.13
849.0041, 15866.93
849.4862, 15796.48
849.9683, 15705.72
850.4504, 15674.66
850.9326, 15680.98
851.4147, 15678.17
851.8968, 15648.64
852.3789, 15615.07
852.8610, 15583.07
853.3431, 15555.21
853.8253, 15535.20
854.3074, 15519.61
854.7895, 15520.08
855.2716, 15543.91
855.7537, 15574.89
856.2358, 15590.85
856.7180, 15591.19
857.2001, 15570.28
857.6822, 15517.59
858.1643, 15463.20
858.6464, 15429.85
859.1285, 15414.40
859.6107, 15411.21
860.0928, 15433.73
860.5749, 15448.77
861.0570, 15445.94
861.5391, 15437.12
862.0212, 15444.64
862.5034, 15470.60
862.9855, 15491.52
863.4676, 15507.08
863.9497, 15505.25
864.4318, 15446.20
864.9139, 15358.29
865.3961, 15303.64
865.8782, 15324.58
866.3603, 15358.52
866.8424, 15404.28
867.3245, 15441.75
867.8066, 15431.33
868.2888, 15344.71
868.7709, 15283.04
869.2530, 15264.54
869.7351, 15275.76
870.2172, 15306.64
870.6993, 15348.98
871.1815, 15367.45
871.6636, 15339.47
872.1457, 15301.45
872.6278, 15276.48
873.1099, 15261.58
873.5920, 15250.90
874.0742, 15245.41
874.5563, 15240.57
875.0384, 15232.38
875.5205, 15227.15
876.0026, 15238.11
876.4847, 15264.93
876.9669, 15301.39
877.4490, 15355.95
877.9311, 15398.43
878.4132, 15379.91
878.8953, 15326.00
879.3774, 15283.62
879.8596, 15270.80
880.3417, 15268.75
880.8238, 15271.62
881.3059, 15283.38
881.7880, 15320.46
882.2701, 15394.54
882.7523, 15420.52
883.2344, 15364.09
883.7165, 15290.55
884.1986, 15329.96
884.6807, 15429.31
885.1628, 15463.24
885.6450, 15331.12
886.1271, 15208.99
886.6092, 15178.48
887.0913, 15208.70
887.5734, 15250.56
888.0555, 15316.69
888.5377, 15361.17
889.0198, 15379.42
889.5019, 15374.15
889.9840, 15331.67
890.4661, 15266.39
890.9482, 15236.89
891.4304, 15275.87
891.9125, 15317.52
892.3946, 15305.12
892.8767, 15269.52
893.3588, 15253.79
893.8409, 15280.16
894.3231, 15306.79
894.8052, 15341.34
895.2873, 15364.01
895.7694, 15331.37
896.2515, 15252.14
896.7336, 15208.45
897.2158, 15219.58
897.6979, 15259.43
898.1800, 15332.17
898.6621, 15406.83
899.1442, 15440.28
899.6263, 15402.27
900.1085, 15353.55
900.5906, 15278.81
901.0727, 15217.60
901.5548, 15222.63
902.0369, 15298.22
902.5190, 15361.56
903.0012, 15405.67
903.4833, 15425.90
903.9654, 15400.09
904.4475, 15353.24
904.9296, 15318.68
905.4117, 15297.21
905.8939, 15305.70
906.3760, 15391.54
906.8581, 15478.95
907.3402, 15502.65
907.8223, 15446.02
908.3044, 15414.81
908.7866, 15415.64
909.2687, 15426.04
909.7508, 15428.25
910.2329, 15422.89
910.7150, 15402.52
911.1971, 15360.54
911.6793, 15347.73
912.1614, 15424.81
912.6435, 15511.72
913.1256, 15548.55
913.6077, 15524.10
914.0898, 15498.91
914.5720, 15470.81
915.0541, 15448.38
915.5362, 15441.17
916.0183, 15443.98
916.5004, 15442.54
916.9825, 15436.24
917.4647, 15438.14
917.9468, 15458.85
918.4289, 15488.28
918.9110, 15527.23
919.3931, 15578.01
919.8752, 15596.89
920.3574, 15576.32
920.8395, 15545.56
921.3216, 15515.33
921.8037, 15489.07
922.2858, 15481.13
922.7679, 15490.21
923.2501, 15507.26
923.7322, 15526.49
924.2143, 15552.02
924.6964, 15600.91
925.1785, 15669.13
925.6606, 15680.01
926.1428, 15599.60
926.6249, 15540.24
927.1070, 15558.20
927.5891, 15623.68
928.0712, 15641.93
928.5533, 15619.49
929.0354, 15594.28
929.5175, 15587.29
929.9996, 15584.72
930.4818, 15574.17
930.9639, 15560.40
931.4460, 15562.72
931.9281, 15585.74
932.4102, 15618.66
932.8923, 15664.43
933.3745, 15713.66
933.8566, 15741.66
934.3387, 15751.03
934.8208, 15750.85
935.3029, 15733.14
935.7850, 15723.01
936.2672, 15753.73
936.7493, 15801.84
937.2314, 15819.91
937.7135, 15777.75
938.1956, 15750.26
938.6777, 15749.60
939.1599, 15759.59
939.6420, 15743.48
940.1241, 15711.36
940.6062, 15724.14
941.0883, 15809.94
941.5704, 15895.73
942.0526, 15925.37
942.5347, 15920.95
943.0168, 15906.28
943.4989, 15856.32
943.9810, 15854.92
944.4631, 15930.41
944.9453, 16009.67
945.4274, 16005.57
945.9095, 15936.20
946.3916, 15899.10
946.8737, 15905.39
947.3558, 15927.61
947.8380, 15952.90
948.3201, 15978.66
948.8022, 16002.96
949.2843, 16025.30
949.7664, 16048.13
950.2485, 16080.27
950.7307, 16095.92
951.2128, 16063.59
951.6949, 15996.40
952.1770, 15974.76
952.6591, 15997.16
953.1412, 16026.11
953.6234, 16041.34
954.1055, 16049.77
954.5876, 16056.70
955.0697, 16062.13
955.5518, 16058.82
956.0339, 16037.79
956.5161, 16028.80
956.9982, 16048.93
957.4803, 16086.72
957.9624, 16100.22
958.4445, 16095.41
958.9266, 16100.70
959.4088, 16155.72
959.8909, 16201.23
960.3730, 16194.48
960.8551, 16151.14
961.3372, 16116.24
961.8193, 16084.33
962.3015, 16081.73
962.7836, 16122.35
963.2657, 16180.04
963.7478, 16205.96
964.2299, 16207.61
964.7120, 16208.89
965.1942, 16216.29
965.6763, 16225.83
966.1584, 16235.81
966.6405, 16246.19
967.1226, 16255.34
967.6047, 16283.86
968.0869, 16311.94
968.5690, 16326.30
969.0511, 16327.76
969.5332, 16273.77
970.0153, 16294.34
970.4974, 16286.84
970.9796, 16279.43
971.4617, 16314.18
971.9438, 16274.90
972.4259, 16311.59
972.9080, 16319.76
973.3901, 16342.87
973.8723, 16337.73
974.3544, 16314.75
974.8365, 16352.36
975.3186, 16374.97
975.8007, 16383.37
976.2828, 16335.05
976.7650, 16359.98
977.2471, 16355.55
977.7292, 16349.92
978.2113, 16385.16
978.6934, 16345.08
979.1755, 16379.68
979.6577, 16384.46
980.1398, 16402.89
980.6219, 16391.78
981.1040, 16389.79
981.5861, 16417.36
982.0682, 16428.55
982.5504, 16414.04
983.0325, 16433.34
983.5146, 16392.23
983.9967, 16404.13
984.4788, 16438.89
984.9609, 16425.87
985.4431, 16445.71
985.9252, 16453.02
986.4073, 16403.46
986.8894, 16452.82
987.3715, 16459.40
987.8536, 16422.06
988.3358, 16468.03
988.8179, 16436.74
989.3000, 16433.03
989.7821, 16450.07
990.2642, 16445.47
990.7463, 16474.99
991.2285, 16471.65
991.7106, 16465.37
992.1927, 16471.90
992.6748, 16442.12
993.1569, 16479.71
993.6390, 16519.48
994.1212, 16564.63
994.6033, 16551.27
995.0854, 16479.59
995.5675, 16438.24
996.0496, 16431.76
996.5317, 16451.69
997.0139, 16512.26
997.4960, 16582.16
997.9781, 16569.92
998.4602, 16497.39
998.9423, 16441.06
999.4244, 16447.44
999.9066, 16465.88
1000.389, 16469.67
1000.871, 16473.59
1001.353, 16510.07
1001.835, 16594.39
1002.317, 16637.92
1002.799, 16619.69
1003.281, 16585.97
1003.763, 16609.40
1004.246, 16654.18
1004.728, 16650.19
1005.210, 16563.59
1005.692, 16507.17
1006.174, 16551.98
1006.656, 16608.32
1007.138, 16616.80
1007.620, 16574.13
1008.103, 16561.95
1008.585, 16580.99
1009.067, 16616.06
1009.549, 16683.64
1010.031, 16742.01
1010.513, 16729.92
1010.995, 16656.73
1011.477, 16625.41
1011.959, 16686.91
1012.442, 16737.10
1012.924, 16743.99
1013.406, 16725.17
1013.888, 16726.69
1014.370, 16745.72
1014.852, 16768.57
1015.334, 16795.69
1015.816, 16816.25
1016.299, 16813.22
1016.781, 16803.48
1017.263, 16817.32
1017.745, 16878.87
1018.227, 16889.51
1018.709, 16829.52
1019.191, 16759.57
1019.673, 16743.81
1020.155, 16770.06
1020.638, 16831.90
1021.120, 16934.75
1021.602, 16995.08
1022.084, 16921.70
1022.566, 16849.69
1023.048, 16860.65
1023.530, 16950.05
1024.012, 16991.47
1024.495, 16983.95
1024.977, 16966.07
1025.459, 16951.32
1025.941, 16945.30
1026.423, 16952.54
1026.905, 16973.30
1027.387, 17009.98
1027.869, 17104.26
1028.351, 17144.34
1028.833, 17087.24
1029.316, 16998.36
1029.798, 17009.53
1030.280, 17098.97
1030.762, 17171.33
1031.244, 17196.57
1031.726, 17224.93
1032.208, 17326.31
1032.690, 17422.04
1033.173, 17419.10
1033.655, 17263.86
1034.137, 17239.42
1034.619, 17371.10
1035.101, 17518.99
1035.583, 17577.14
1036.065, 17578.44
1036.547, 17561.25
1037.030, 17532.95
1037.512, 17532.07
1037.994, 17618.16
1038.476, 17678.38
1038.958, 17649.96
1039.440, 17581.17
1039.922, 17657.22
1040.404, 17863.20
1040.886, 18015.65
1041.369, 18032.40
1041.851, 18003.86
1042.333, 17975.32
1042.815, 17963.31
1043.297, 17995.94
1043.779, 18119.59
1044.261, 18195.11
1044.743, 18207.37
1045.225, 18205.88
1045.708, 18235.61
1046.190, 18291.56
1046.672, 18371.41
1047.154, 18474.44
1047.636, 18565.04
1048.118, 18639.76
1048.600, 18680.89
1049.082, 18658.75
1049.565, 18592.41
1050.047, 18628.37
1050.529, 18768.85
1051.011, 18896.13
1051.493, 18951.99
1051.975, 18978.30
1052.457, 19012.82
1052.939, 19051.18
1053.422, 19085.71
1053.904, 19107.49
1054.386, 19138.91
1054.868, 19188.08
1055.350, 19234.52
1055.832, 19248.52
1056.314, 19239.75
1056.796, 19242.62
1057.278, 19262.88
1057.760, 19268.67
1058.243, 19230.68
1058.725, 19182.72
1059.207, 19147.58
1059.689, 19124.16
1060.171, 19084.04
1060.653, 19025.52
1061.135, 18981.13
1061.617, 18993.13
1062.100, 19003.50
1062.582, 18923.49
1063.064, 18790.67
1063.546, 18693.51
1064.028, 18696.78
1064.510, 18672.68
1064.992, 18597.18
1065.474, 18513.59
1065.956, 18501.21
1066.439, 18529.91
1066.921, 18483.67
1067.403, 18336.43
1067.885, 18198.46
1068.367, 18146.90
1068.849, 18114.34
1069.331, 18057.92
1069.813, 17977.02
1070.296, 17891.28
1070.778, 17798.65
1071.260, 17715.78
1071.742, 17655.88
1072.224, 17606.12
1072.706, 17553.79
1073.188, 17499.84
1073.670, 17445.54
1074.152, 17392.54
1074.635, 17333.55
1075.117, 17254.76
1075.599, 17193.86
1076.081, 17228.79
1076.563, 17320.65
1077.045, 17349.04
1077.527, 17290.43
1078.009, 17223.03
1078.491, 17182.51
1078.974, 17151.75
1079.456, 17119.66
1079.938, 17086.60
1080.420, 17059.22
1080.902, 17037.26
1081.384, 17020.02
1081.866, 17010.41
1082.348, 17001.89
1082.831, 16977.46
1083.313, 16950.24
1083.795, 16953.27
1084.277, 17010.60
1084.759, 17057.39
1085.241, 17091.90
1085.723, 17104.79
1086.205, 17071.13
1086.688, 17010.38
1087.170, 16960.59
1087.652, 16926.74
1088.134, 16910.61
1088.616, 16918.14
1089.098, 16941.34
1089.580, 16987.22
1090.062, 17045.72
1090.544, 17037.85
1091.026, 16970.84
1091.509, 16933.51
1091.991, 17005.36
1092.473, 17079.95
1092.955, 17081.44
1093.437, 17031.13
1093.919, 16963.62
1094.401, 16861.99
1094.883, 16815.09
1095.366, 16840.59
1095.848, 16876.16
1096.330, 16834.36
1096.812, 16769.83
1097.294, 16779.87
1097.776, 16875.16
1098.258, 16931.43
1098.740, 16887.61
1099.223, 16842.60
1099.705, 16831.11
1100.187, 16841.02
1100.669, 16839.29
1101.151, 16825.36
1101.633, 16795.83
1102.115, 16734.42
1102.597, 16680.37
1103.079, 16653.27
1103.562, 16645.05
1104.044, 16649.22
1104.526, 16669.01
1105.008, 16676.66
1105.490, 16670.75
1105.972, 16659.70
1106.454, 16644.18
1106.936, 16631.26
1107.418, 16625.66
1107.901, 16628.20
1108.383, 16645.65
1108.865, 16692.61
1109.347, 16711.23
1109.829, 16674.88
1110.311, 16620.40
1110.793, 16608.10
1111.275, 16627.63
1111.758, 16660.49
1112.240, 16717.06
1112.722, 16749.60
1113.204, 16737.96
1113.686, 16712.94
1114.168, 16697.33
1114.650, 16689.03
1115.132, 16653.69
1115.615, 16595.81
1116.097, 16556.87
1116.579, 16575.31
1117.061, 16606.81
1117.543, 16631.27
1118.025, 16649.41
1118.507, 16667.52
1118.989, 16687.51
1119.471, 16678.96
1119.953, 16627.46
1120.436, 16581.20
1120.918, 16601.78
1121.400, 16649.12
1121.882, 16679.09
1122.364, 16680.70
1122.846, 16686.07
1123.328, 16693.02
1123.810, 16712.95
1124.293, 16764.94
1124.775, 16825.07
1125.257, 16853.13
1125.739, 16848.46
1126.221, 16808.60
1126.703, 16672.72
1127.185, 16587.79
1127.667, 16591.71
1128.150, 16627.01
1128.632, 16623.04
1129.114, 16589.37
1129.596, 16571.69
1130.078, 16574.56
1130.560, 16587.21
1131.042, 16636.21
1131.524, 16658.70
1132.006, 16599.40
1132.489, 16485.15
1132.971, 16448.53
1133.453, 16489.34
1133.935, 16509.60
1134.417, 16463.01
1134.899, 16412.15
1135.381, 16418.99
1135.863, 16452.52
1136.345, 16476.52
1136.828, 16496.86
1137.310, 16470.22
1137.792, 16385.07
1138.274, 16308.55
1138.756, 16303.60
1139.238, 16329.17
1139.720, 16327.08
1140.202, 16304.19
1140.685, 16297.79
1141.167, 16354.06
1141.649, 16355.70
1142.131, 16258.89
1142.613, 16149.60
1143.095, 16186.08
1143.577, 16306.42
1144.059, 16360.04
1144.542, 16313.48
1145.024, 16263.57
1145.506, 16243.70
1145.988, 16235.79
1146.470, 16237.63
1146.952, 16244.73
1147.434, 16227.14
1147.916, 16190.85
1148.398, 16171.05
1148.880, 16192.98
1149.363, 16222.48
1149.845, 16248.57
1150.327, 16268.79
1150.809, 16284.54
1151.291, 16297.75
1151.773, 16263.64
1152.255, 16175.99
1152.737, 16117.88
1153.219, 16191.05
1153.702, 16287.77
1154.184, 16321.66
1154.666, 16296.90
1155.148, 16277.86
1155.630, 16263.76
1156.112, 16261.83
1156.594, 16278.56
1157.076, 16293.83
1157.559, 16278.81
1158.041, 16249.58
1158.523, 16225.28
1159.005, 16208.31
1159.487, 16204.99
1159.969, 16219.57
1160.451, 16236.93
1160.933, 16249.41
1161.416, 16259.30
1161.898, 16277.61
1162.380, 16297.18
1162.862, 16298.59
1163.344, 16257.12
1163.826, 16220.14
1164.308, 16185.55
1164.790, 16168.15
1165.272, 16196.97
1165.755, 16255.12
1166.237, 16290.75
1166.719, 16299.46
1167.201, 16279.49
1167.683, 16183.97
1168.165, 16114.11
1168.647, 16109.39
1169.129, 16149.70
1169.611, 16190.84
1170.094, 16231.69
1170.576, 16265.41
1171.058, 16292.77
1171.540, 16302.56
1172.022, 16259.32
1172.504, 16220.04
1172.986, 16238.64
1173.468, 16312.57
1173.951, 16315.58
1174.433, 16249.75
1174.915, 16197.53
1175.397, 16225.67
1175.879, 16257.21
1176.361, 16210.48
1176.843, 16255.31
1177.325, 16155.58
1177.807, 16281.61
1178.290, 16347.16
1178.772, 16340.55
1179.254, 16308.26
1179.736, 16269.99
1180.218, 16241.57
1180.700, 16241.56
1181.182, 16268.37
1181.664, 16303.89
1182.146, 16358.17
1182.629, 16376.83
1183.111, 16339.12
1183.593, 16287.14
1184.075, 16276.78
1184.557, 16284.93
1185.039, 16275.02
1185.521, 16232.69
1186.003, 16228.39
1186.486, 16280.83
1186.968, 16325.09
1187.450, 16319.10
1187.932, 16296.04
1188.414, 16339.93
1188.896, 16415.41
1189.378, 16442.23
1189.860, 16344.31
1190.343, 16273.33
1190.825, 16237.58
1191.307, 16229.80
1191.789, 16257.65
1192.271, 16304.99
1192.753, 16329.12
1193.235, 16331.51
1193.717, 16330.58
1194.199, 16335.76
1194.682, 16333.78
1195.164, 16315.10
1195.646, 16297.00
1196.128, 16319.39
1196.610, 16365.41
1197.092, 16376.63
1197.574, 16339.59
1198.056, 16316.92
1198.538, 16356.51
1199.021, 16393.77
1199.503, 16400.25
1199.985, 16384.70
1200.467, 16375.23
1200.949, 16370.66
1201.431, 16367.15
1201.913, 16366.63
1202.395, 16359.81
1202.878, 16321.18
1203.360, 16294.46
1203.842, 16321.65
1204.324, 16396.94
1204.806, 16431.25
1205.288, 16427.96
1205.770, 16416.69
1206.252, 16416.15
1206.734, 16409.81
1207.217, 16382.89
1207.699, 16349.85
1208.181, 16322.37
1208.663, 16301.08
1209.145, 16322.92
1209.627, 16391.69
1210.109, 16460.45
1210.591, 16514.96
1211.073, 16540.58
1211.556, 16509.95
1212.038, 16446.94
1212.520, 16415.10
1213.002, 16413.88
1213.484, 16432.13
1213.966, 16472.58
1214.448, 16507.11
1214.930, 16524.38
1215.413, 16516.01
1215.895, 16453.52
1216.377, 16345.23
1216.859, 16345.56
1217.341, 16455.08
1217.823, 16542.59
1218.305, 16537.87
1218.787, 16510.99
1219.270, 16512.99
1219.752, 16526.21
1220.234, 16530.30
1220.716, 16526.91
1221.198, 16495.54
1221.680, 16434.41
1222.162, 16386.71
1222.644, 16391.03
1223.126, 16410.92
1223.609, 16417.46
1224.091, 16419.04
1224.573, 16438.62
1225.055, 16481.55
1225.537, 16512.94
1226.019, 16530.37
1226.501, 16525.45
1226.983, 16445.60
1227.465, 16376.83
1227.948, 16419.57
1228.430, 16552.96
1228.912, 16609.69
1229.394, 16579.71
1229.876, 16543.17
1230.358, 16511.84
1230.840, 16504.23
1231.322, 16576.81
1231.805, 16657.90
1232.287, 16657.48
1232.769, 16568.68
1233.251, 16526.03
1233.733, 16532.46
1234.215, 16553.03
1234.697, 16582.87
1235.179, 16603.80
1235.661, 16586.08
1236.144, 16553.17
1236.626, 16538.45
1237.108, 16546.01
1237.590, 16560.38
1238.072, 16582.81
1238.554, 16601.49
1239.036, 16608.90
1239.518, 16609.15
1240.000, 16600.12
1240.483, 16588.39
1240.965, 16590.28
1241.447, 16612.31
1241.929, 16606.01
1242.411, 16561.29
1242.893, 16550.77
1243.375, 16708.70
1243.857, 16869.44
1244.339, 16867.68
1244.822, 16731.87
1245.304, 16631.46
1245.786, 16567.63
1246.268, 16537.61
1246.750, 16544.44
1247.232, 16565.00
1247.714, 16587.45
1248.196, 16604.96
1248.679, 16600.25
1249.161, 16577.83
1249.643, 16611.00
1250.125, 16707.51
1250.607, 16746.63
1251.089, 16665.14
1251.571, 16572.15
1252.053, 16568.43
1252.536, 16605.01
1253.018, 16629.67
1253.500, 16639.22
1253.982, 16651.16
1254.464, 16665.42
1254.946, 16698.10
1255.428, 16799.38
1255.910, 16867.94
1256.392, 16783.48
1256.875, 16642.90
1257.357, 16580.98
1257.839, 16611.82
1258.321, 16623.60
1258.803, 16614.45
1259.285, 16612.52
1259.767, 16640.98
1260.249, 16678.13
1260.731, 16730.07
1261.214, 16771.83
1261.696, 16747.09
1262.178, 16654.23
1262.660, 16622.05
1263.142, 16663.63
1263.624, 16710.39
1264.106, 16712.70
1264.588, 16706.14
1265.071, 16719.39
1265.553, 16737.12
1266.035, 16716.71
1266.517, 16662.09
1266.999, 16609.72
1267.481, 16561.94
1267.963, 16551.25
1268.445, 16632.38
1268.927, 16723.62
1269.410, 16779.54
1269.892, 16805.82
1270.374, 16820.72
1270.856, 16823.81
1271.338, 16812.13
1271.820, 16780.92
1272.302, 16747.68
1272.784, 16712.10
1273.266, 16688.49
1273.749, 16688.60
1274.231, 16707.20
1274.713, 16718.38
1275.195, 16724.80
1275.677, 16737.90
1276.159, 16774.05
1276.641, 16796.68
1277.123, 16796.85
1277.606, 16780.92
1278.088, 16741.73
1278.570, 16690.15
1279.052, 16679.90
1279.534, 16699.82
1280.016, 16704.33
1280.498, 16647.22
1280.980, 16613.17
1281.463, 16615.38
1281.945, 16640.20
1282.427, 16683.37
1282.909, 16735.37
1283.391, 16784.54
1283.873, 16824.26
1284.355, 16822.56
1284.837, 16737.25
1285.319, 16659.24
1285.802, 16594.66
1286.284, 16556.12
1286.766, 16571.04
1287.248, 16616.42
1287.730, 16655.11
1288.212, 16685.35
1288.694, 16741.87
1289.176, 16853.87
1289.658, 16912.45
1290.141, 16884.83
1290.623, 16816.47
1291.105, 16730.21
1291.587, 16658.47
1292.069, 16653.72
1292.551, 16729.09
1293.033, 16759.67
1293.515, 16737.74
1293.998, 16717.24
1294.480, 16712.33
1294.962, 16719.20
1295.444, 16738.98
1295.926, 16767.95
1296.408, 16807.54
1296.890, 16858.48
1297.372, 16886.10
1297.854, 16890.43
1298.337, 16871.72
1298.819, 16819.39
1299.301, 16733.46
##END=



