##NAMES=Elbaite
##RRUFFID=R070077
##IDEAL CHEMISTRY=Na(Al_1.5_Li_1.5_)Al_6_(Si_6_O_18_)(BO_3_)_3_(OH)_3_OH
##LOCALITY=Canary mine, Lundazi area of eastern Zambia
##OWNER=RRUFF
##SOURCE=Tommy Wu
##DESCRIPTION=Green crystal fragments
##STATUS=The identification of this mineral has been made only by X-ray diffraction.
##URL=rruff.info/R070077
147.2892, 2177.904
147.7713, 2209.392
148.2534, 2236.961
148.7356, 2264.085
149.2177, 2293.511
149.6998, 2330.055
150.1819, 2364.387
150.6640, 2394.444
151.1461, 2419.342
151.6283, 2444.609
152.1104, 2474.597
152.5925, 2504.184
153.0746, 2525.366
153.5567, 2526.237
154.0388, 2527.632
154.5210, 2537.811
155.0031, 2566.865
155.4852, 2589.043
155.9673, 2600.246
156.4494, 2601.489
156.9315, 2595.942
157.4137, 2573.228
157.8958, 2550.505
158.3779, 2538.227
158.8600, 2554.083
159.3421, 2565.906
159.8242, 2560.478
160.3064, 2538.826
160.7885, 2521.936
161.2706, 2523.631
161.7527, 2531.862
162.2348, 2534.102
162.7169, 2521.050
163.1991, 2504.773
163.6812, 2491.133
164.1633, 2480.792
164.6454, 2471.571
165.1275, 2461.234
165.6096, 2451.217
166.0918, 2444.060
166.5739, 2444.741
167.0560, 2446.699
167.5381, 2444.488
168.0202, 2435.987
168.5023, 2425.625
168.9845, 2413.298
169.4666, 2400.693
169.9487, 2393.795
170.4308, 2403.325
170.9129, 2418.408
171.3950, 2425.808
171.8772, 2419.164
172.3593, 2405.835
172.8414, 2388.833
173.3235, 2368.739
173.8056, 2354.349
174.2877, 2358.707
174.7699, 2373.436
175.2520, 2383.019
175.7341, 2374.490
176.2162, 2359.842
176.6983, 2355.298
177.1804, 2361.586
177.6626, 2373.842
178.1447, 2392.481
178.6268, 2414.676
179.1089, 2430.518
179.5910, 2427.441
180.0731, 2415.454
180.5553, 2417.056
181.0374, 2437.982
181.5195, 2463.433
182.0016, 2471.555
182.4837, 2464.305
182.9658, 2457.734
183.4479, 2464.603
183.9301, 2481.259
184.4122, 2494.984
184.8943, 2501.985
185.3764, 2506.625
185.8585, 2518.667
186.3406, 2538.135
186.8228, 2558.783
187.3049, 2575.908
187.7870, 2589.538
188.2691, 2599.913
188.7512, 2604.408
189.2333, 2606.007
189.7155, 2616.778
190.1976, 2638.240
190.6797, 2660.156
191.1618, 2669.549
191.6439, 2666.778
192.1260, 2661.790
192.6082, 2652.622
193.0903, 2641.451
193.5724, 2651.771
194.0545, 2688.395
194.5366, 2735.448
195.0187, 2769.332
195.5009, 2789.485
195.9830, 2802.849
196.4651, 2810.879
196.9472, 2813.563
197.4293, 2815.287
197.9114, 2813.026
198.3936, 2813.507
198.8757, 2838.348
199.3578, 2893.370
199.8399, 2945.022
200.3220, 2965.792
200.8041, 2951.607
201.2863, 2950.138
201.7684, 2970.495
202.2505, 3007.301
202.7326, 3038.670
203.2147, 3062.910
203.6968, 3086.552
204.1790, 3116.238
204.6611, 3153.630
205.1432, 3187.151
205.6253, 3208.657
206.1074, 3220.991
206.5895, 3260.868
207.0716, 3336.465
207.5538, 3424.794
208.0359, 3498.545
208.5180, 3552.076
209.0001, 3611.208
209.4822, 3686.033
209.9643, 3778.020
210.4465, 3856.810
210.9286, 3914.804
211.4107, 3968.119
211.8928, 4045.861
212.3749, 4157.987
212.8570, 4266.465
213.3392, 4355.893
213.8213, 4420.439
214.3034, 4485.552
214.7855, 4546.107
215.2676, 4609.636
215.7497, 4697.546
216.2319, 4823.261
216.7140, 4944.375
217.1961, 5035.313
217.6782, 5076.484
218.1603, 5145.487
218.6424, 5265.023
219.1246, 5411.701
219.6067, 5500.194
220.0888, 5505.735
220.5709, 5491.780
221.0530, 5499.994
221.5351, 5547.716
222.0173, 5574.764
222.4994, 5572.979
222.9815, 5544.510
223.4636, 5507.657
223.9457, 5466.024
224.4278, 5411.029
224.9100, 5331.988
225.3921, 5215.591
225.8742, 5104.463
226.3563, 5006.575
226.8384, 4921.124
227.3205, 4835.298
227.8026, 4749.979
228.2848, 4663.389
228.7669, 4572.910
229.2490, 4466.783
229.7311, 4377.095
230.2132, 4316.056
230.6953, 4286.960
231.1775, 4249.937
231.6596, 4202.109
232.1417, 4148.582
232.6238, 4095.595
233.1059, 4038.811
233.5880, 3990.028
234.0702, 3953.289
234.5523, 3930.604
235.0344, 3912.267
235.5165, 3902.094
235.9986, 3894.175
236.4807, 3877.058
236.9629, 3842.776
237.4450, 3811.854
237.9271, 3792.690
238.4092, 3791.525
238.8913, 3784.896
239.3734, 3771.300
239.8556, 3752.657
240.3377, 3733.022
240.8198, 3711.334
241.3019, 3690.194
241.7840, 3670.714
242.2661, 3653.782
242.7483, 3637.946
243.2304, 3629.166
243.7125, 3620.896
244.1946, 3589.228
244.6767, 3517.685
245.1588, 3445.377
245.6410, 3393.664
246.1231, 3373.052
246.6052, 3351.505
247.0873, 3328.409
247.5694, 3303.033
248.0515, 3271.886
248.5337, 3231.386
249.0158, 3189.647
249.4979, 3150.956
249.9800, 3112.949
250.4621, 3083.317
250.9442, 3064.993
251.4263, 3056.613
251.9085, 3045.663
252.3906, 3030.714
252.8727, 3014.968
253.3548, 3001.687
253.8369, 2993.770
254.3190, 2981.210
254.8012, 2960.484
255.2833, 2932.518
255.7654, 2908.617
256.2475, 2887.015
256.7296, 2871.718
257.2118, 2868.200
257.6939, 2884.055
258.1760, 2893.609
258.6581, 2890.194
259.1402, 2873.956
259.6223, 2861.880
260.1045, 2853.793
260.5866, 2849.942
261.0687, 2851.505
261.5508, 2861.040
262.0329, 2869.063
262.5150, 2871.954
262.9971, 2869.450
263.4792, 2874.365
263.9614, 2891.623
264.4435, 2909.680
264.9256, 2912.612
265.4077, 2893.275
265.8898, 2880.165
266.3719, 2883.461
266.8541, 2904.180
267.3362, 2918.104
267.8183, 2922.704
268.3004, 2924.143
268.7825, 2930.498
269.2646, 2942.881
269.7468, 2956.911
270.2289, 2974.485
270.7110, 2996.624
271.1931, 3001.093
271.6752, 2982.290
272.1573, 2954.489
272.6395, 2939.075
273.1216, 2939.351
273.6037, 2938.034
274.0858, 2925.163
274.5679, 2899.656
275.0500, 2892.777
275.5322, 2911.747
276.0143, 2937.089
276.4964, 2935.929
276.9785, 2903.910
277.4606, 2871.372
277.9427, 2850.941
278.4249, 2842.832
278.9070, 2835.521
279.3891, 2829.119
279.8712, 2823.197
280.3533, 2818.520
280.8354, 2815.599
281.3176, 2808.317
281.7997, 2789.189
282.2818, 2759.167
282.7639, 2743.482
283.2460, 2745.139
283.7281, 2755.001
284.2103, 2762.016
284.6924, 2766.323
285.1745, 2761.747
285.6566, 2736.232
286.1387, 2694.383
286.6208, 2675.123
287.1030, 2683.905
287.5851, 2705.832
288.0672, 2723.321
288.5493, 2736.104
289.0314, 2737.635
289.5135, 2714.613
289.9957, 2674.804
290.4778, 2654.259
290.9599, 2658.220
291.4420, 2673.418
291.9241, 2683.874
292.4063, 2689.592
292.8884, 2690.013
293.3705, 2680.668
293.8526, 2665.585
294.3347, 2655.320
294.8168, 2650.157
295.2990, 2651.634
295.7811, 2667.705
296.2632, 2694.996
296.7453, 2715.466
297.2274, 2713.731
297.7095, 2699.084
298.1917, 2689.054
298.6738, 2684.245
299.1559, 2687.961
299.6380, 2711.853
300.1201, 2750.011
300.6022, 2780.619
301.0844, 2783.759
301.5665, 2774.699
302.0486, 2777.427
302.5307, 2796.372
303.0128, 2819.074
303.4949, 2834.514
303.9771, 2844.175
304.4592, 2851.566
304.9413, 2854.230
305.4234, 2857.627
305.9055, 2869.232
306.3876, 2891.744
306.8697, 2915.218
307.3518, 2932.323
307.8340, 2944.832
308.3161, 2956.807
308.7982, 2972.571
309.2803, 2987.472
309.7624, 2996.019
310.2445, 2995.895
310.7267, 2997.594
311.2088, 3012.185
311.6909, 3032.972
312.1730, 3047.619
312.6551, 3039.045
313.1372, 3030.528
313.6194, 3038.590
314.1015, 3067.985
314.5836, 3100.920
315.0657, 3131.842
315.5478, 3160.210
316.0299, 3184.866
316.5121, 3201.270
316.9942, 3217.409
317.4763, 3237.043
317.9584, 3260.716
318.4405, 3287.130
318.9226, 3318.704
319.4048, 3351.880
319.8869, 3381.775
320.3690, 3401.580
320.8511, 3422.813
321.3332, 3449.366
321.8153, 3481.855
322.2975, 3518.027
322.7796, 3561.643
323.2617, 3607.267
323.7438, 3649.074
324.2259, 3686.936
324.7080, 3720.271
325.1902, 3745.639
325.6723, 3759.395
326.1544, 3783.842
326.6365, 3829.751
327.1186, 3882.918
327.6007, 3929.093
328.0829, 3964.241
328.5650, 3996.348
329.0471, 4027.480
329.5292, 4058.218
330.0113, 4082.378
330.4934, 4093.648
330.9756, 4102.610
331.4577, 4120.388
331.9398, 4157.067
332.4219, 4185.661
332.9040, 4197.935
333.3861, 4193.927
333.8683, 4197.972
334.3504, 4212.607
334.8325, 4232.166
335.3146, 4252.318
335.7967, 4274.473
336.2788, 4292.880
336.7610, 4306.039
337.2431, 4314.313
337.7252, 4321.862
338.2073, 4329.017
338.6894, 4334.534
339.1715, 4336.442
339.6537, 4334.047
340.1358, 4332.957
340.6179, 4333.409
341.1000, 4336.083
341.5821, 4344.798
342.0642, 4360.725
342.5464, 4376.868
343.0285, 4390.564
343.5106, 4401.261
343.9927, 4399.962
344.4748, 4379.003
344.9569, 4352.521
345.4391, 4356.862
345.9212, 4391.923
346.4033, 4424.801
346.8854, 4430.217
347.3675, 4413.930
347.8496, 4393.992
348.3318, 4369.624
348.8139, 4349.821
349.2960, 4350.705
349.7781, 4369.725
350.2602, 4391.256
350.7423, 4412.599
351.2244, 4428.598
351.7065, 4425.157
352.1887, 4394.225
352.6708, 4365.429
353.1529, 4368.284
353.6350, 4397.233
354.1171, 4436.273
354.5992, 4487.016
355.0814, 4538.352
355.5635, 4577.446
356.0456, 4601.307
356.5277, 4625.115
357.0098, 4658.331
357.4919, 4698.899
357.9741, 4743.287
358.4562, 4794.043
358.9383, 4845.077
359.4204, 4890.475
359.9025, 4928.619
360.3846, 4974.348
360.8668, 5036.402
361.3489, 5108.790
361.8310, 5184.613
362.3131, 5264.442
362.7952, 5345.304
363.2773, 5423.480
363.7595, 5499.040
364.2416, 5581.127
364.7237, 5677.269
365.2058, 5778.386
365.6879, 5875.750
366.1700, 5950.305
366.6522, 6041.787
367.1343, 6162.989
367.6164, 6312.441
368.0985, 6454.393
368.5806, 6576.635
369.0627, 6699.807
369.5449, 6837.894
370.0270, 7008.586
370.5091, 7167.612
370.9912, 7309.331
371.4733, 7435.808
371.9554, 7559.554
372.4376, 7687.558
372.9197, 7802.635
373.4018, 7896.633
373.8839, 7967.311
374.3660, 8026.315
374.8481, 8081.421
375.3303, 8120.336
375.8124, 8114.941
376.2945, 8061.764
376.7766, 7977.268
377.2587, 7867.170
377.7408, 7732.449
378.2230, 7568.359
378.7051, 7368.481
379.1872, 7151.208
379.6693, 6936.729
380.1514, 6726.137
380.6335, 6529.078
381.1157, 6354.247
381.5978, 6197.141
382.0799, 6047.600
382.5620, 5906.222
383.0441, 5771.102
383.5262, 5650.977
384.0084, 5538.955
384.4905, 5417.876
384.9726, 5265.975
385.4547, 5109.892
385.9368, 4990.623
386.4189, 4905.478
386.9011, 4833.395
387.3832, 4757.354
387.8653, 4682.991
388.3474, 4620.518
388.8295, 4580.064
389.3116, 4543.347
389.7938, 4495.639
390.2759, 4439.267
390.7580, 4382.906
391.2401, 4325.708
391.7222, 4273.963
392.2043, 4233.864
392.6865, 4209.519
393.1686, 4191.130
393.6507, 4179.320
394.1328, 4170.788
394.6149, 4158.229
395.0970, 4136.556
395.5792, 4113.110
396.0613, 4089.898
396.5434, 4065.125
397.0255, 4046.682
397.5076, 4039.494
397.9897, 4038.017
398.4718, 4034.833
398.9539, 4030.068
399.4361, 4023.031
399.9182, 4010.875
400.4003, 3991.938
400.8824, 3984.400
401.3645, 3992.827
401.8466, 4008.347
402.3288, 4024.565
402.8109, 4045.998
403.2930, 4056.691
403.7751, 4051.273
404.2572, 4032.744
404.7393, 4018.737
405.2215, 4009.697
405.7036, 4003.599
406.1857, 3999.331
406.6678, 3996.928
407.1499, 3996.326
407.6320, 3998.780
408.1142, 4001.282
408.5963, 3998.093
409.0784, 3989.170
409.5605, 3975.682
410.0426, 3956.115
410.5247, 3932.220
411.0069, 3911.784
411.4890, 3897.365
411.9711, 3878.388
412.4532, 3836.382
412.9353, 3779.065
413.4174, 3727.923
413.8996, 3698.809
414.3817, 3677.945
414.8638, 3648.780
415.3459, 3611.217
415.8280, 3571.964
416.3102, 3535.538
416.7923, 3500.355
417.2744, 3463.737
417.7565, 3423.293
418.2386, 3383.063
418.7207, 3343.744
419.2029, 3306.083
419.6850, 3273.882
420.1671, 3252.033
420.6492, 3233.561
421.1313, 3213.935
421.6134, 3193.082
422.0956, 3170.266
422.5777, 3142.094
423.0598, 3112.024
423.5419, 3086.553
424.0240, 3067.881
424.5061, 3052.713
424.9883, 3040.406
425.4704, 3031.705
425.9525, 3023.339
426.4346, 3014.133
426.9167, 3006.025
427.3988, 3001.312
427.8810, 3000.110
428.3631, 3002.399
428.8452, 3011.193
429.3273, 3024.858
429.8094, 3025.268
430.2915, 3009.740
430.7737, 2988.471
431.2558, 2966.453
431.7379, 2943.544
432.2200, 2933.359
432.7021, 2941.562
433.1842, 2958.713
433.6664, 2964.434
434.1485, 2959.286
434.6306, 2955.528
435.1127, 2963.406
435.5948, 2977.915
436.0769, 2988.586
436.5591, 2994.993
437.0412, 2995.149
437.5233, 2980.330
438.0054, 2957.572
438.4875, 2942.463
438.9696, 2948.721
439.4518, 2961.096
439.9339, 2966.451
440.4160, 2964.766
440.8981, 2964.351
441.3802, 2968.903
441.8623, 2977.286
442.3444, 2988.750
442.8265, 3016.593
443.3087, 3032.095
443.7908, 3016.794
444.2729, 2979.770
444.7550, 2955.353
445.2371, 2962.800
445.7192, 2974.227
446.2014, 2976.629
446.6835, 2961.613
447.1656, 2953.644
447.6477, 2960.920
448.1298, 2971.658
448.6119, 2966.414
449.0941, 2933.512
449.5762, 2905.555
450.0583, 2891.463
450.5404, 2891.297
451.0225, 2893.320
451.5046, 2898.947
451.9868, 2903.553
452.4689, 2903.039
452.9510, 2897.314
453.4331, 2887.278
453.9152, 2870.984
454.3973, 2852.567
454.8795, 2843.580
455.3616, 2843.696
455.8437, 2843.329
456.3258, 2832.662
456.8079, 2817.380
457.2900, 2812.985
457.7722, 2823.078
458.2543, 2833.407
458.7364, 2823.704
459.2185, 2803.323
459.7006, 2791.902
460.1827, 2802.745
460.6649, 2822.327
461.1470, 2843.068
461.6291, 2864.604
462.1112, 2881.740
462.5933, 2890.093
463.0754, 2893.925
463.5576, 2896.468
464.0397, 2892.809
464.5218, 2895.176
465.0039, 2914.091
465.4860, 2942.035
465.9681, 2957.332
466.4503, 2939.825
466.9324, 2925.057
467.4145, 2925.505
467.8966, 2945.874
468.3787, 2966.111
468.8608, 2987.330
469.3430, 3007.474
469.8251, 3025.400
470.3072, 3043.816
470.7893, 3050.445
471.2714, 3035.518
471.7535, 3006.315
472.2357, 3007.412
472.7178, 3044.326
473.1999, 3082.379
473.6820, 3090.664
474.1641, 3074.208
474.6462, 3071.596
475.1284, 3091.485
475.6105, 3115.280
476.0926, 3113.111
476.5747, 3091.071
477.0568, 3072.809
477.5389, 3075.211
478.0211, 3085.369
478.5032, 3086.196
478.9853, 3077.123
479.4674, 3069.238
479.9495, 3070.799
480.4316, 3077.269
480.9138, 3083.664
481.3959, 3089.007
481.8780, 3093.321
482.3601, 3098.502
482.8422, 3103.005
483.3243, 3101.861
483.8065, 3085.686
484.2886, 3070.401
484.7707, 3062.787
485.2528, 3065.406
485.7349, 3070.876
486.2170, 3084.318
486.6991, 3097.477
487.1812, 3099.441
487.6634, 3083.028
488.1455, 3070.721
488.6276, 3067.215
489.1097, 3071.621
489.5918, 3078.189
490.0739, 3087.482
490.5561, 3097.132
491.0382, 3108.055
491.5203, 3119.604
492.0024, 3118.315
492.4845, 3098.294
492.9666, 3077.694
493.4488, 3091.238
493.9309, 3130.423
494.4130, 3157.480
494.8951, 3146.498
495.3772, 3117.710
495.8593, 3092.854
496.3415, 3072.404
496.8236, 3063.611
497.3057, 3080.340
497.7878, 3107.139
498.2699, 3128.175
498.7520, 3137.500
499.2342, 3142.478
499.7163, 3143.716
500.1984, 3142.677
500.6805, 3142.947
501.1626, 3151.617
501.6447, 3156.094
502.1269, 3148.727
502.6090, 3124.214
503.0911, 3111.896
503.5732, 3118.575
504.0553, 3131.734
504.5374, 3140.780
505.0196, 3146.383
505.5017, 3145.293
505.9838, 3133.630
506.4659, 3116.446
506.9480, 3111.790
507.4301, 3121.872
507.9123, 3129.966
508.3944, 3125.565
508.8765, 3110.520
509.3586, 3095.179
509.8407, 3079.502
510.3228, 3065.858
510.8050, 3060.431
511.2871, 3059.367
511.7692, 3052.767
512.2513, 3033.646
512.7334, 3011.182
513.2155, 2993.757
513.6976, 2980.581
514.1797, 2968.510
514.6619, 2957.539
515.1440, 2945.816
515.6261, 2931.579
516.1082, 2913.476
516.5903, 2896.432
517.0724, 2881.168
517.5546, 2867.884
518.0367, 2856.784
518.5188, 2850.332
519.0009, 2843.382
519.4830, 2833.997
519.9651, 2822.867
520.4473, 2817.594
520.9294, 2823.047
521.4115, 2825.986
521.8936, 2815.847
522.3757, 2789.865
522.8578, 2775.260
523.3400, 2775.815
523.8221, 2781.805
524.3042, 2776.810
524.7863, 2762.204
525.2684, 2753.124
525.7505, 2759.285
526.2327, 2771.678
526.7148, 2770.962
527.1969, 2758.876
527.6790, 2751.186
528.1611, 2763.664
528.6432, 2784.485
529.1254, 2799.889
529.6075, 2806.054
530.0896, 2811.449
530.5717, 2820.068
531.0538, 2831.058
531.5359, 2843.336
532.0181, 2859.630
532.5002, 2873.997
532.9823, 2882.688
533.4644, 2886.054
533.9465, 2894.012
534.4286, 2914.004
534.9108, 2931.422
535.3929, 2937.693
535.8750, 2926.543
536.3571, 2920.788
536.8392, 2919.324
537.3214, 2924.813
537.8035, 2947.125
538.2856, 2988.257
538.7677, 3016.442
539.2498, 3015.630
539.7319, 2998.122
540.2141, 3000.307
540.6962, 3021.464
541.1783, 3044.814
541.6604, 3061.169
542.1425, 3070.524
542.6246, 3071.290
543.1068, 3061.561
543.5889, 3050.379
544.0710, 3041.163
544.5531, 3035.611
545.0352, 3036.161
545.5173, 3056.013
545.9995, 3070.143
546.4816, 3064.038
546.9637, 3040.710
547.4458, 3024.982
547.9279, 3028.183
548.4100, 3033.366
548.8922, 3032.570
549.3743, 3021.606
549.8564, 3016.869
550.3385, 3022.284
550.8206, 3029.597
551.3027, 3028.060
551.7849, 3016.610
552.2670, 3002.216
552.7491, 2985.242
553.2312, 2967.239
553.7133, 2953.061
554.1954, 2942.670
554.6776, 2932.492
555.1597, 2920.906
555.6418, 2907.764
556.1239, 2891.909
556.6060, 2872.914
557.0881, 2854.763
557.5703, 2843.569
558.0524, 2834.385
558.5345, 2820.835
559.0166, 2794.909
559.4987, 2770.786
559.9808, 2757.388
560.4630, 2750.604
560.9451, 2737.875
561.4272, 2702.979
561.9093, 2674.894
562.3914, 2665.285
562.8735, 2677.207
563.3557, 2688.459
563.8378, 2704.189
564.3199, 2712.653
564.8020, 2699.081
565.2841, 2657.397
565.7662, 2629.684
566.2484, 2623.302
566.7305, 2628.805
567.2126, 2630.720
567.6947, 2628.914
568.1768, 2622.091
568.6589, 2602.840
569.1411, 2580.821
569.6232, 2574.120
570.1053, 2581.896
570.5874, 2589.564
571.0695, 2586.520
571.5516, 2578.486
572.0338, 2569.741
572.5159, 2556.993
572.9980, 2553.313
573.4801, 2575.497
573.9622, 2606.794
574.4443, 2622.172
574.9265, 2598.543
575.4086, 2580.646
575.8907, 2579.732
576.3728, 2593.123
576.8549, 2597.739
577.3370, 2591.094
577.8192, 2580.702
578.3013, 2569.894
578.7834, 2558.589
579.2655, 2548.510
579.7476, 2539.718
580.2297, 2531.659
580.7119, 2523.845
581.1940, 2516.209
581.6761, 2508.299
582.1582, 2499.329
582.6403, 2491.045
583.1224, 2485.859
583.6046, 2483.121
584.0867, 2480.865
584.5688, 2487.538
585.0509, 2486.969
585.5330, 2461.216
586.0151, 2407.143
586.4973, 2369.199
586.9794, 2370.598
587.4615, 2385.092
587.9436, 2394.430
588.4257, 2402.200
588.9078, 2397.249
589.3900, 2373.833
589.8721, 2341.560
590.3542, 2315.592
590.8363, 2295.709
591.3184, 2283.806
591.8005, 2283.848
592.2827, 2291.127
592.7648, 2288.943
593.2469, 2277.318
593.7290, 2261.013
594.2111, 2239.334
594.6932, 2216.188
595.1754, 2199.122
595.6575, 2189.328
596.1396, 2181.002
596.6217, 2168.956
597.1038, 2156.400
597.5859, 2147.301
598.0680, 2148.639
598.5501, 2146.746
599.0322, 2132.150
599.5143, 2111.035
599.9965, 2101.318
600.4786, 2118.950
600.9607, 2130.002
601.4428, 2122.893
601.9249, 2097.825
602.4070, 2079.061
602.8892, 2066.787
603.3713, 2060.318
603.8534, 2061.201
604.3355, 2068.846
604.8176, 2074.351
605.2997, 2077.297
605.7819, 2076.760
606.2640, 2069.514
606.7461, 2057.846
607.2282, 2047.383
607.7103, 2040.258
608.1924, 2035.138
608.6746, 2031.510
609.1567, 2029.153
609.6388, 2027.554
610.1209, 2027.500
610.6030, 2027.276
611.0851, 2027.151
611.5673, 2028.024
612.0494, 2022.726
612.5315, 2006.855
613.0136, 1988.850
613.4957, 1973.617
613.9778, 1959.590
614.4600, 1954.776
614.9421, 1963.267
615.4242, 1975.233
615.9063, 1972.346
616.3884, 1955.630
616.8705, 1941.875
617.3527, 1937.609
617.8348, 1938.363
618.3169, 1937.842
618.7990, 1935.965
619.2811, 1932.370
619.7632, 1922.074
620.2454, 1913.139
620.7275, 1913.741
621.2096, 1925.392
621.6917, 1935.908
622.1738, 1942.756
622.6559, 1945.794
623.1381, 1944.688
623.6202, 1929.877
624.1023, 1925.336
624.5844, 1935.250
625.0665, 1952.644
625.5486, 1967.558
626.0308, 1980.870
626.5129, 1986.863
626.9950, 1980.357
627.4771, 1967.725
627.9592, 1969.556
628.4413, 1985.109
628.9235, 2001.469
629.4056, 2011.647
629.8877, 2017.518
630.3698, 2020.684
630.8519, 2021.226
631.3340, 2022.574
631.8162, 2028.786
632.2983, 2035.784
632.7804, 2039.584
633.2625, 2037.052
633.7446, 2035.527
634.2267, 2037.412
634.7089, 2040.712
635.1910, 2042.523
635.6731, 2042.489
636.1552, 2041.818
636.6373, 2041.344
637.1194, 2040.178
637.6016, 2034.155
638.0837, 2022.686
638.5658, 2011.917
639.0479, 2004.721
639.5300, 2000.617
640.0121, 1998.287
640.4943, 1997.692
640.9764, 1999.455
641.4585, 2010.621
641.9406, 2021.350
642.4227, 2017.816
642.9048, 1991.277
643.3870, 1970.039
643.8691, 1969.449
644.3512, 1979.181
644.8333, 1986.863
645.3154, 1995.309
645.7975, 1995.337
646.2797, 1982.131
646.7618, 1960.824
647.2439, 1944.921
647.7260, 1933.414
648.2081, 1931.608
648.6902, 1945.522
649.1724, 1970.493
649.6545, 1985.803
650.1366, 1991.655
650.6187, 1994.159
651.1008, 1997.357
651.5829, 2000.290
652.0651, 1999.248
652.5472, 1992.616
653.0293, 1992.697
653.5114, 2013.699
653.9935, 2041.871
654.4756, 2063.475
654.9578, 2073.395
655.4399, 2079.243
655.9220, 2078.517
656.4041, 2075.432
656.8862, 2077.501
657.3683, 2088.297
657.8505, 2095.085
658.3326, 2093.325
658.8147, 2085.870
659.2968, 2083.482
659.7789, 2086.175
660.2610, 2089.638
660.7432, 2090.890
661.2253, 2091.365
661.7074, 2095.147
662.1895, 2102.118
662.6716, 2106.241
663.1537, 2102.062
663.6359, 2093.863
664.1180, 2085.385
664.6001, 2077.639
665.0822, 2068.613
665.5643, 2054.223
666.0464, 2040.140
666.5286, 2032.726
667.0107, 2036.463
667.4928, 2038.123
667.9749, 2036.583
668.4570, 2032.073
668.9391, 2023.329
669.4213, 2010.034
669.9034, 2000.616
670.3855, 2001.120
670.8676, 2005.553
671.3497, 1999.207
671.8318, 1984.202
672.3140, 1972.158
672.7961, 1977.119
673.2782, 1983.353
673.7603, 1976.809
674.2424, 1955.715
674.7245, 1932.805
675.2067, 1903.165
675.6888, 1879.034
676.1709, 1870.017
676.6530, 1884.387
677.1351, 1894.477
677.6172, 1899.608
678.0994, 1901.185
678.5815, 1901.532
679.0636, 1900.845
679.5457, 1893.644
680.0278, 1877.317
680.5099, 1857.309
680.9921, 1839.859
681.4742, 1825.825
681.9563, 1818.550
682.4384, 1824.586
682.9205, 1833.724
683.4026, 1839.680
683.8848, 1842.495
684.3669, 1842.789
684.8490, 1838.872
685.3311, 1834.171
685.8132, 1830.501
686.2953, 1828.140
686.7775, 1822.581
687.2596, 1809.873
687.7417, 1800.723
688.2238, 1803.573
688.7059, 1818.644
689.1880, 1833.404
689.6701, 1847.636
690.1522, 1860.178
690.6343, 1866.631
691.1165, 1870.519
691.5986, 1880.340
692.0807, 1901.040
692.5628, 1920.928
693.0449, 1927.292
693.5270, 1928.490
694.0092, 1937.376
694.4913, 1968.545
694.9734, 1995.036
695.4555, 2006.759
695.9376, 2009.567
696.4197, 2020.266
696.9019, 2041.241
697.3840, 2063.988
697.8661, 2084.261
698.3482, 2104.075
698.8303, 2135.540
699.3124, 2178.580
699.7946, 2222.623
700.2767, 2262.539
700.7588, 2298.167
701.2409, 2326.852
701.7230, 2348.222
702.2051, 2373.090
702.6873, 2405.028
703.1694, 2444.707
703.6515, 2493.671
704.1336, 2556.697
704.6157, 2618.266
705.0978, 2678.488
705.5800, 2735.648
706.0621, 2786.519
706.5442, 2825.728
707.0263, 2882.950
707.5084, 2965.262
707.9905, 3059.944
708.4727, 3149.074
708.9548, 3234.054
709.4369, 3319.609
709.9190, 3405.397
710.4011, 3494.765
710.8832, 3585.271
711.3654, 3681.897
711.8475, 3795.912
712.3296, 3950.338
712.8117, 4107.547
713.2938, 4246.801
713.7759, 4370.814
714.2581, 4500.946
714.7402, 4636.050
715.2223, 4781.257
715.7044, 4940.850
716.1865, 5115.510
716.6686, 5278.682
717.1508, 5431.334
717.6329, 5579.805
718.1150, 5730.836
718.5971, 5883.828
719.0792, 6045.986
719.5613, 6218.398
720.0435, 6379.268
720.5256, 6502.109
721.0077, 6609.366
721.4898, 6725.132
721.9719, 6874.354
722.4540, 6994.616
722.9362, 7066.131
723.4183, 7110.158
723.9004, 7151.268
724.3825, 7198.869
724.8646, 7210.604
725.3467, 7176.031
725.8289, 7108.883
726.3110, 7035.267
726.7931, 6952.426
727.2752, 6846.936
727.7573, 6710.040
728.2394, 6552.266
728.7216, 6379.083
729.2037, 6193.824
729.6858, 6006.134
730.1679, 5829.546
730.6500, 5642.896
731.1321, 5425.440
731.6143, 5180.929
732.0964, 4961.143
732.5785, 4774.582
733.0606, 4602.344
733.5427, 4437.104
734.0248, 4279.179
734.5070, 4134.504
734.9891, 4003.514
735.4712, 3880.071
735.9533, 3761.603
736.4354, 3647.084
736.9175, 3528.235
737.3997, 3403.479
737.8818, 3294.096
738.3639, 3218.658
738.8460, 3161.098
739.3281, 3109.519
739.8102, 3069.085
740.2924, 3018.073
740.7745, 2943.265
741.2566, 2867.691
741.7387, 2816.053
742.2208, 2791.645
742.7029, 2770.171
743.1851, 2749.698
743.6672, 2729.480
744.1493, 2703.607
744.6314, 2676.729
745.1135, 2663.289
745.5956, 2673.783
746.0778, 2689.106
746.5599, 2693.441
747.0420, 2691.556
747.5241, 2692.292
748.0062, 2701.177
748.4883, 2709.561
748.9705, 2711.372
749.4526, 2711.451
749.9347, 2726.893
750.4168, 2764.606
750.8989, 2795.493
751.3810, 2806.759
751.8632, 2805.568
752.3453, 2816.035
752.8274, 2836.947
753.3095, 2856.720
753.7916, 2867.834
754.2737, 2875.035
754.7559, 2882.263
755.2380, 2889.794
755.7201, 2898.749
756.2022, 2909.436
756.6843, 2921.803
757.1664, 2939.889
757.6486, 2966.140
758.1307, 2969.544
758.6128, 2941.578
759.0949, 2908.726
759.5770, 2891.235
760.0591, 2886.916
760.5413, 2877.398
761.0234, 2861.967
761.5055, 2842.553
761.9876, 2818.615
762.4697, 2792.485
762.9518, 2767.663
763.4340, 2745.991
763.9161, 2721.399
764.3982, 2687.126
764.8803, 2651.555
765.3624, 2623.017
765.8445, 2608.349
766.3267, 2586.479
766.8088, 2554.073
767.2909, 2518.692
767.7730, 2487.964
768.2551, 2462.011
768.7372, 2444.499
769.2194, 2439.061
769.7015, 2433.191
770.1836, 2410.927
770.6657, 2377.618
771.1478, 2343.393
771.6299, 2309.913
772.1121, 2278.058
772.5942, 2246.582
773.0763, 2217.326
773.5584, 2193.530
774.0405, 2174.152
774.5226, 2162.581
775.0048, 2161.910
775.4869, 2167.451
775.9690, 2167.874
776.4511, 2163.389
776.9332, 2158.801
777.4153, 2158.514
777.8974, 2156.406
778.3795, 2138.247
778.8616, 2110.631
779.3438, 2092.822
779.8259, 2100.914
780.3080, 2113.571
780.7901, 2121.871
781.2722, 2126.528
781.7543, 2135.110
782.2365, 2152.919
782.7186, 2164.369
783.2007, 2161.835
783.6828, 2148.775
784.1649, 2140.964
784.6470, 2138.399
785.1292, 2140.962
785.6113, 2152.899
786.0934, 2167.457
786.5755, 2176.517
787.0576, 2180.161
787.5397, 2180.637
788.0219, 2176.279
788.5040, 2171.365
788.9861, 2166.433
789.4682, 2160.941
789.9503, 2165.889
790.4324, 2186.687
790.9146, 2206.479
791.3967, 2215.900
791.8788, 2215.427
792.3609, 2207.377
792.8430, 2191.656
793.3251, 2178.755
793.8073, 2178.471
794.2894, 2185.211
794.7715, 2194.792
795.2536, 2207.204
795.7357, 2215.070
796.2178, 2207.106
796.7000, 2200.285
797.1821, 2206.735
797.6642, 2231.037
798.1463, 2250.602
798.6284, 2265.406
799.1105, 2275.829
799.5927, 2281.863
800.0748, 2283.618
800.5569, 2279.119
801.0390, 2267.226
801.5211, 2259.735
802.0032, 2273.605
802.4854, 2293.406
802.9675, 2301.239
803.4496, 2288.187
803.9317, 2280.053
804.4138, 2285.845
804.8959, 2296.542
805.3781, 2307.212
805.8602, 2320.337
806.3423, 2319.716
806.8244, 2300.801
807.3065, 2280.462
807.7886, 2277.709
808.2708, 2289.208
808.7529, 2309.241
809.2350, 2340.390
809.7171, 2362.846
810.1992, 2352.959
810.6813, 2331.281
811.1635, 2320.041
811.6456, 2328.947
812.1277, 2340.856
812.6098, 2358.944
813.0919, 2375.690
813.5740, 2381.017
814.0562, 2373.887
814.5383, 2371.044
815.0204, 2375.737
815.5025, 2380.900
815.9846, 2374.625
816.4667, 2362.871
816.9489, 2358.758
817.4310, 2370.470
817.9131, 2378.976
818.3952, 2370.251
818.8773, 2355.288
819.3594, 2348.721
819.8416, 2357.841
820.3237, 2362.380
820.8058, 2360.720
821.2879, 2354.484
821.7700, 2341.605
822.2521, 2324.033
822.7343, 2320.781
823.2164, 2340.930
823.6985, 2361.173
824.1806, 2347.979
824.6627, 2321.377
825.1448, 2311.304
825.6270, 2334.714
826.1091, 2364.530
826.5912, 2396.794
827.0733, 2431.345
827.5554, 2468.296
828.0375, 2509.814
828.5197, 2546.423
829.0018, 2576.454
829.4839, 2603.702
829.9660, 2628.107
830.4481, 2654.420
830.9302, 2697.522
831.4124, 2768.572
831.8945, 2843.542
832.3766, 2906.768
832.8587, 2962.961
833.3408, 3017.188
833.8229, 3063.046
834.3051, 3117.892
834.7872, 3186.886
835.2693, 3260.591
835.7514, 3325.987
836.2335, 3383.085
836.7156, 3432.390
837.1978, 3472.456
837.6799, 3509.559
838.1620, 3553.753
838.6441, 3599.828
839.1262, 3638.644
839.6083, 3669.914
840.0905, 3688.768
840.5726, 3686.021
841.0547, 3673.127
841.5368, 3666.075
842.0189, 3670.526
842.5010, 3662.631
842.9832, 3637.099
843.4653, 3604.357
843.9474, 3577.600
844.4295, 3556.594
844.9116, 3540.977
845.3937, 3530.604
845.8759, 3525.786
846.3580, 3533.090
846.8401, 3543.509
847.3222, 3545.994
847.8043, 3514.757
848.2864, 3509.768
848.7686, 3538.089
849.2507, 3586.748
849.7328, 3643.990
850.2149, 3709.915
850.6970, 3770.744
851.1791, 3822.121
851.6613, 3877.191
852.1434, 3961.241
852.6255, 4055.554
853.1076, 4130.444
853.5897, 4170.602
854.0718, 4210.027
854.5540, 4262.533
855.0361, 4317.587
855.5182, 4368.438
856.0003, 4419.750
856.4824, 4450.666
856.9645, 4458.802
857.4467, 4450.550
857.9288, 4430.873
858.4109, 4400.489
858.8930, 4364.344
859.3751, 4325.081
859.8572, 4267.361
860.3394, 4171.351
860.8215, 4058.648
861.3036, 3948.764
861.7857, 3851.973
862.2678, 3739.987
862.7499, 3609.013
863.2321, 3472.160
863.7142, 3342.707
864.1963, 3218.952
864.6784, 3092.801
865.1605, 2964.184
865.6426, 2835.060
866.1248, 2700.784
866.6069, 2572.351
867.0890, 2464.273
867.5710, 2381.116
868.0532, 2298.756
868.5353, 2202.271
869.0174, 2114.961
869.4995, 2051.134
869.9816, 2013.116
870.4637, 1965.636
870.9459, 1907.416
871.4280, 1850.714
871.9101, 1803.268
872.3922, 1764.958
872.8743, 1739.452
873.3564, 1725.608
873.8386, 1708.884
874.3207, 1675.302
874.8028, 1642.691
875.2849, 1620.531
875.7670, 1608.556
876.2491, 1604.904
876.7313, 1613.729
877.2134, 1617.693
877.6955, 1603.526
878.1776, 1578.943
878.6597, 1568.307
879.1418, 1569.506
879.6240, 1569.835
880.1061, 1559.263
880.5882, 1547.797
881.0703, 1543.604
881.5524, 1545.177
882.0345, 1540.222
882.5167, 1523.735
882.9988, 1509.085
883.4809, 1500.256
883.9630, 1495.919
884.4451, 1493.824
884.9272, 1493.267
885.4094, 1488.364
885.8915, 1471.522
886.3736, 1454.647
886.8557, 1450.974
887.3378, 1455.099
887.8199, 1454.673
888.3021, 1439.611
888.7842, 1428.840
889.2663, 1426.583
889.7484, 1429.141
890.2305, 1432.369
890.7126, 1436.189
891.1948, 1425.316
891.6769, 1389.603
892.1590, 1354.497
892.6411, 1356.706
893.1232, 1378.701
893.6053, 1392.051
894.0875, 1381.648
894.5696, 1372.449
895.0517, 1372.028
895.5338, 1373.612
896.0159, 1369.271
896.4980, 1357.334
896.9802, 1351.007
897.4623, 1351.397
897.9444, 1357.673
898.4265, 1376.491
898.9086, 1398.116
899.3907, 1402.690
899.8729, 1382.826
900.3550, 1368.087
900.8371, 1378.470
901.3192, 1392.300
901.8013, 1392.711
902.2834, 1375.808
902.7656, 1368.102
903.2477, 1371.550
903.7298, 1375.731
904.2119, 1370.540
904.6940, 1360.642
905.1761, 1355.346
905.6583, 1355.112
906.1404, 1359.609
906.6225, 1377.218
907.1046, 1391.992
907.5867, 1391.590
908.0688, 1377.169
908.5510, 1369.275
909.0331, 1369.098
909.5152, 1372.157
909.9973, 1378.096
910.4794, 1384.941
910.9615, 1385.823
911.4437, 1382.416
911.9258, 1382.002
912.4079, 1390.561
912.8900, 1400.875
913.3721, 1408.879
913.8542, 1415.610
914.3364, 1424.663
914.8185, 1437.995
915.3006, 1449.333
915.7827, 1457.685
916.2648, 1462.917
916.7469, 1463.010
917.2291, 1459.448
917.7112, 1456.925
918.1933, 1454.849
918.6754, 1458.648
919.1575, 1481.225
919.6396, 1507.787
920.1218, 1518.593
920.6039, 1496.768
921.0860, 1489.444
921.5681, 1500.811
922.0502, 1519.870
922.5323, 1538.584
923.0145, 1555.393
923.4966, 1559.961
923.9787, 1550.661
924.4608, 1543.103
924.9429, 1553.016
925.4250, 1566.544
925.9072, 1570.754
926.3893, 1561.108
926.8714, 1561.382
927.3535, 1575.954
927.8356, 1592.024
928.3177, 1603.204
928.7999, 1609.856
929.2820, 1611.706
929.7641, 1609.394
930.2462, 1608.445
930.7283, 1613.764
931.2104, 1620.304
931.6926, 1622.814
932.1747, 1622.944
932.6568, 1630.613
933.1389, 1653.220
933.6210, 1668.556
934.1031, 1667.976
934.5853, 1660.253
935.0674, 1669.057
935.5495, 1689.921
936.0316, 1700.795
936.5137, 1686.456
936.9958, 1674.500
937.4780, 1689.610
937.9601, 1717.734
938.4422, 1737.994
938.9243, 1742.122
939.4064, 1750.581
939.8885, 1766.664
940.3707, 1782.107
940.8528, 1784.422
941.3349, 1777.714
941.8170, 1780.733
942.2991, 1795.984
942.7813, 1812.009
943.2634, 1822.709
943.7455, 1829.137
944.2276, 1830.017
944.7097, 1823.563
945.1918, 1826.202
945.6740, 1841.800
946.1561, 1857.720
946.6382, 1868.513
947.1203, 1874.229
947.6024, 1871.407
948.0845, 1862.176
948.5667, 1858.368
949.0488, 1872.250
949.5309, 1887.770
950.0130, 1897.093
950.4951, 1900.853
950.9772, 1902.503
951.4594, 1900.574
951.9415, 1901.435
952.4236, 1908.143
952.9057, 1915.084
953.3878, 1909.681
953.8699, 1896.565
954.3521, 1887.967
954.8342, 1887.557
955.3163, 1891.584
955.7984, 1901.434
956.2805, 1912.813
956.7626, 1921.055
957.2447, 1924.231
957.7268, 1930.953
958.2089, 1942.754
958.6910, 1952.220
959.1732, 1952.383
959.6553, 1945.628
960.1374, 1932.653
960.6195, 1914.668
961.1016, 1906.415
961.5837, 1926.984
962.0659, 1947.668
962.5480, 1953.015
963.0301, 1945.752
963.5122, 1942.830
963.9943, 1944.820
964.4764, 1947.000
964.9586, 1946.308
965.4407, 1946.339
965.9228, 1956.471
966.4049, 1971.237
966.8870, 1978.778
967.3691, 1969.016
967.8513, 1958.464
968.3334, 1947.012
968.8155, 1939.250
969.2976, 1942.913
969.7797, 1958.870
970.2618, 1970.228
970.7440, 1975.071
971.2261, 1975.801
971.7082, 1969.193
972.1903, 1962.958
972.6724, 1969.653
973.1545, 1993.591
973.6367, 2005.375
974.1188, 1992.067
974.6009, 1975.370
975.0830, 1963.086
975.5651, 1955.419
976.0472, 1958.665
976.5294, 1971.389
977.0115, 1977.377
977.4936, 1959.755
977.9757, 1938.905
978.4578, 1931.017
978.9399, 1932.772
979.4221, 1935.835
979.9042, 1940.898
980.3863, 1943.806
980.8684, 1944.287
981.3505, 1942.029
981.8326, 1932.667
982.3148, 1919.818
982.7969, 1919.229
983.2790, 1936.782
983.7611, 1950.169
984.2432, 1938.981
984.7253, 1921.352
985.2075, 1914.193
985.6896, 1920.782
986.1717, 1915.954
986.6538, 1895.593
987.1359, 1878.818
987.6180, 1880.479
988.1002, 1892.837
988.5823, 1901.630
989.0644, 1906.499
989.5465, 1905.846
990.0286, 1889.571
990.5107, 1878.457
990.9929, 1884.906
991.4750, 1899.380
991.9571, 1903.130
992.4392, 1895.137
992.9213, 1887.809
993.4034, 1883.811
993.8856, 1879.841
994.3677, 1870.435
994.8498, 1859.462
995.3319, 1851.391
995.8140, 1846.285
996.2961, 1847.585
996.7783, 1859.005
997.2604, 1872.167
997.7425, 1881.887
998.2246, 1888.667
998.7067, 1899.963
999.1888, 1915.224
999.6710, 1926.209
1000.153, 1922.928
1000.635, 1918.096
1001.117, 1922.442
1001.599, 1933.121
1002.082, 1938.760
1002.564, 1935.239
1003.046, 1935.349
1003.528, 1941.529
1004.010, 1951.656
1004.492, 1964.017
1004.974, 1977.612
1005.456, 1990.538
1005.938, 2002.992
1006.421, 2011.741
1006.903, 2008.401
1007.385, 2006.554
1007.867, 2015.559
1008.349, 2035.828
1008.831, 2063.449
1009.313, 2100.256
1009.795, 2129.905
1010.278, 2138.701
1010.760, 2137.380
1011.242, 2132.517
1011.724, 2128.722
1012.206, 2139.949
1012.688, 2187.892
1013.170, 2228.752
1013.652, 2255.663
1014.134, 2272.685
1014.617, 2283.938
1015.099, 2290.445
1015.581, 2298.772
1016.063, 2310.143
1016.545, 2322.742
1017.027, 2337.339
1017.509, 2350.815
1017.991, 2358.845
1018.474, 2359.951
1018.956, 2367.857
1019.438, 2383.312
1019.920, 2403.293
1020.402, 2430.875
1020.884, 2458.584
1021.366, 2464.722
1021.848, 2456.917
1022.330, 2458.693
1022.813, 2492.389
1023.295, 2521.696
1023.777, 2532.911
1024.259, 2536.769
1024.741, 2548.166
1025.223, 2567.648
1025.705, 2575.885
1026.187, 2570.053
1026.669, 2560.943
1027.152, 2554.738
1027.634, 2552.906
1028.116, 2557.762
1028.598, 2569.758
1029.080, 2583.850
1029.562, 2602.113
1030.044, 2616.662
1030.526, 2621.731
1031.009, 2623.506
1031.491, 2637.578
1031.973, 2662.494
1032.455, 2693.528
1032.937, 2731.901
1033.419, 2771.587
1033.901, 2818.402
1034.383, 2859.109
1034.865, 2874.297
1035.348, 2854.201
1035.830, 2868.894
1036.312, 2922.483
1036.794, 2987.057
1037.276, 3043.577
1037.758, 3094.538
1038.240, 3137.777
1038.722, 3175.806
1039.204, 3222.939
1039.687, 3286.524
1040.169, 3353.710
1040.651, 3423.318
1041.133, 3493.845
1041.615, 3561.473
1042.097, 3628.177
1042.579, 3702.495
1043.061, 3786.705
1043.544, 3878.546
1044.026, 3985.824
1044.508, 4093.425
1044.990, 4184.950
1045.472, 4256.871
1045.954, 4344.600
1046.436, 4449.815
1046.918, 4557.239
1047.401, 4656.984
1047.883, 4755.104
1048.365, 4856.703
1048.847, 4961.937
1049.329, 5071.134
1049.811, 5189.617
1050.293, 5304.662
1050.775, 5413.986
1051.257, 5520.594
1051.740, 5628.889
1052.222, 5738.059
1052.704, 5846.217
1053.186, 5953.381
1053.668, 6053.788
1054.150, 6143.818
1054.632, 6224.373
1055.114, 6297.920
1055.596, 6363.512
1056.079, 6407.601
1056.561, 6428.874
1057.043, 6442.102
1057.525, 6452.509
1058.007, 6457.945
1058.489, 6465.333
1058.971, 6462.893
1059.453, 6431.555
1059.936, 6353.206
1060.418, 6270.551
1060.900, 6193.776
1061.382, 6099.839
1061.864, 5960.684
1062.346, 5790.351
1062.828, 5644.472
1063.310, 5521.578
1063.792, 5394.784
1064.275, 5253.864
1064.757, 5100.339
1065.239, 4926.474
1065.721, 4746.140
1066.203, 4590.151
1066.685, 4461.290
1067.167, 4323.603
1067.649, 4169.132
1068.131, 4013.783
1068.614, 3865.250
1069.096, 3726.519
1069.578, 3601.261
1070.060, 3489.925
1070.542, 3386.724
1071.024, 3292.503
1071.506, 3200.614
1071.988, 3104.673
1072.471, 3011.352
1072.953, 2941.307
1073.435, 2885.015
1073.917, 2816.629
1074.399, 2713.913
1074.881, 2621.915
1075.363, 2560.644
1075.845, 2507.975
1076.328, 2445.023
1076.810, 2373.278
1077.292, 2314.600
1077.774, 2269.485
1078.256, 2228.740
1078.738, 2185.948
1079.220, 2146.162
1079.702, 2115.788
1080.184, 2091.338
1080.667, 2060.385
1081.149, 2020.762
1081.631, 1984.245
1082.113, 1953.390
1082.595, 1924.521
1083.077, 1888.791
1083.559, 1854.476
1084.041, 1835.423
1084.523, 1834.904
1085.006, 1830.853
1085.488, 1816.317
1085.970, 1803.739
1086.452, 1800.087
1086.934, 1799.785
1087.416, 1785.281
1087.898, 1760.455
1088.380, 1737.182
1088.863, 1719.845
1089.345, 1704.759
1089.827, 1688.199
1090.309, 1675.105
1090.791, 1671.031
1091.273, 1676.956
1091.755, 1676.480
1092.237, 1669.672
1092.719, 1660.610
1093.202, 1648.809
1093.684, 1638.778
1094.166, 1634.270
1094.648, 1634.456
1095.130, 1638.030
1095.612, 1649.707
1096.094, 1648.083
1096.576, 1628.324
1097.058, 1604.947
1097.541, 1591.972
1098.023, 1586.920
1098.505, 1588.960
1098.987, 1597.484
1099.469, 1600.811
1099.951, 1592.247
1100.433, 1583.774
1100.915, 1578.127
1101.397, 1575.137
1101.880, 1576.698
1102.362, 1580.687
1102.844, 1580.122
1103.326, 1572.727
1103.808, 1562.475
1104.290, 1545.494
1104.772, 1531.945
1105.254, 1530.952
1105.737, 1541.302
1106.219, 1539.452
1106.701, 1525.945
1107.183, 1509.730
1107.665, 1489.131
1108.147, 1474.976
1108.629, 1484.778
1109.111, 1502.377
1109.594, 1500.002
1110.076, 1466.556
1110.558, 1450.927
1111.040, 1456.478
1111.522, 1467.780
1112.004, 1476.875
1112.486, 1481.256
1112.968, 1475.919
1113.450, 1462.519
1113.932, 1448.742
1114.415, 1432.848
1114.897, 1423.363
1115.379, 1423.704
1115.861, 1426.677
1116.343, 1419.961
1116.825, 1408.852
1117.307, 1406.880
1117.789, 1416.271
1118.272, 1420.562
1118.754, 1405.889
1119.236, 1393.415
1119.718, 1390.681
1120.200, 1395.489
1120.682, 1404.147
1121.164, 1414.834
1121.646, 1417.655
1122.129, 1407.267
1122.611, 1396.818
1123.093, 1394.848
1123.575, 1395.478
1124.057, 1394.749
1124.539, 1392.624
1125.021, 1384.521
1125.503, 1370.527
1125.985, 1360.306
1126.468, 1361.498
1126.950, 1365.213
1127.432, 1362.759
1127.914, 1358.255
1128.396, 1359.059
1128.878, 1368.948
1129.360, 1372.646
1129.842, 1369.589
1130.324, 1362.396
1130.807, 1349.704
1131.289, 1336.419
1131.771, 1331.580
1132.253, 1331.937
1132.735, 1324.903
1133.217, 1300.382
1133.699, 1283.698
1134.181, 1277.636
1134.664, 1280.552
1135.146, 1300.462
1135.628, 1324.140
1136.110, 1322.574
1136.592, 1294.300
1137.074, 1267.413
1137.556, 1248.003
1138.038, 1237.223
1138.521, 1237.857
1139.003, 1244.750
1139.485, 1247.486
1139.967, 1247.219
1140.449, 1247.812
1140.931, 1250.242
1141.413, 1252.353
1141.895, 1258.715
1142.377, 1257.750
1142.859, 1239.724
1143.342, 1210.186
1143.824, 1198.432
1144.306, 1202.679
1144.788, 1211.034
1145.270, 1221.357
1145.752, 1229.696
1146.234, 1237.852
1146.716, 1238.888
1147.199, 1223.339
1147.681, 1189.282
1148.163, 1179.117
1148.645, 1192.785
1149.127, 1206.422
1149.609, 1205.832
1150.091, 1200.397
1150.573, 1197.421
1151.056, 1194.573
1151.538, 1186.877
1152.020, 1170.304
1152.502, 1164.538
1152.984, 1170.847
1153.466, 1181.524
1153.948, 1194.112
1154.430, 1204.797
1154.912, 1210.084
1155.395, 1209.955
1155.877, 1203.341
1156.359, 1184.515
1156.841, 1176.617
1157.323, 1184.274
1157.805, 1195.403
1158.287, 1197.787
1158.769, 1195.068
1159.251, 1189.823
1159.734, 1183.228
1160.216, 1184.197
1160.698, 1199.934
1161.180, 1212.438
1161.662, 1219.457
1162.144, 1218.516
1162.626, 1196.343
1163.108, 1166.393
1163.591, 1159.139
1164.073, 1180.685
1164.555, 1192.674
1165.037, 1175.780
1165.519, 1162.301
1166.001, 1164.539
1166.483, 1174.385
1166.965, 1172.034
1167.448, 1162.433
1167.930, 1159.505
1168.412, 1168.396
1168.894, 1176.847
1169.376, 1180.307
1169.858, 1182.792
1170.340, 1186.421
1170.822, 1190.299
1171.304, 1189.993
1171.786, 1186.798
1172.269, 1186.307
1172.751, 1193.343
1173.233, 1197.409
1173.715, 1190.737
1174.197, 1182.977
1174.679, 1181.485
1175.161, 1185.062
1175.643, 1179.938
1176.126, 1168.092
1176.608, 1161.019
1177.090, 1170.759
1177.572, 1178.844
1178.054, 1174.296
1178.536, 1166.130
1179.018, 1162.581
1179.500, 1163.664
1179.983, 1165.102
1180.465, 1166.984
1180.947, 1171.430
1181.429, 1189.687
1181.911, 1200.059
1182.393, 1181.463
1182.875, 1152.313
1183.357, 1139.140
1183.839, 1142.329
1184.322, 1149.350
1184.804, 1159.331
1185.286, 1165.396
1185.768, 1156.515
1186.250, 1147.856
1186.732, 1153.263
1187.214, 1165.122
1187.696, 1165.032
1188.178, 1151.887
1188.661, 1146.674
1189.143, 1152.400
1189.625, 1158.933
1190.107, 1155.842
1190.589, 1152.092
1191.071, 1155.723
1191.553, 1164.563
1192.035, 1169.398
1192.517, 1169.735
1193.000, 1173.306
1193.482, 1182.483
1193.964, 1189.411
1194.446, 1185.214
1194.928, 1177.050
1195.410, 1169.625
1195.892, 1163.751
1196.374, 1162.925
1196.857, 1167.827
1197.339, 1170.018
1197.821, 1166.752
1198.303, 1162.328
1198.785, 1160.386
1199.267, 1159.833
1199.749, 1160.001
1200.231, 1160.760
1200.714, 1159.756
1201.196, 1156.294
1201.678, 1159.352
1202.160, 1175.140
1202.642, 1189.879
1203.124, 1188.259
1203.606, 1178.877
1204.088, 1169.548
1204.570, 1160.519
1205.052, 1160.058
1205.535, 1168.809
1206.017, 1179.745
1206.499, 1191.760
1206.981, 1201.038
1207.463, 1201.535
1207.945, 1197.889
1208.427, 1196.172
1208.909, 1197.399
1209.392, 1194.739
1209.874, 1187.565
1210.356, 1183.514
1210.838, 1189.210
1211.320, 1195.790
1211.802, 1192.996
1212.284, 1186.075
1212.766, 1182.274
1213.249, 1181.395
1213.731, 1187.206
1214.213, 1200.449
1214.695, 1212.234
1215.177, 1217.884
1215.659, 1218.929
1216.141, 1212.430
1216.623, 1204.150
1217.105, 1204.027
1217.588, 1215.933
1218.070, 1220.620
1218.552, 1217.713
1219.034, 1212.740
1219.516, 1207.519
1219.998, 1203.779
1220.480, 1202.864
1220.962, 1204.714
1221.444, 1209.811
1221.927, 1219.811
1222.409, 1223.986
1222.891, 1221.908
1223.373, 1216.232
1223.855, 1201.938
1224.337, 1191.563
1224.819, 1200.096
1225.301, 1217.969
1225.784, 1225.655
1226.266, 1221.740
1226.748, 1216.398
1227.230, 1210.108
1227.712, 1205.143
1228.194, 1200.609
1228.676, 1200.609
1229.158, 1216.592
1229.641, 1236.015
1230.123, 1231.264
1230.605, 1199.196
1231.087, 1182.858
1231.569, 1185.368
1232.051, 1194.608
1232.533, 1208.650
1233.015, 1219.526
1233.497, 1221.052
1233.979, 1215.862
1234.462, 1205.763
1234.944, 1190.693
1235.426, 1190.063
1235.908, 1205.444
1236.390, 1221.083
1236.872, 1223.626
1237.354, 1225.386
1237.836, 1236.344
1238.319, 1249.565
1238.801, 1254.223
1239.283, 1250.476
1239.765, 1237.437
1240.247, 1215.083
1240.729, 1198.992
1241.211, 1202.899
1241.693, 1211.175
1242.176, 1217.498
1242.658, 1222.697
1243.140, 1228.588
1243.622, 1234.941
1244.104, 1241.459
1244.586, 1248.011
1245.068, 1251.454
1245.550, 1248.117
1246.032, 1243.251
1246.515, 1236.532
1246.997, 1231.925
1247.479, 1240.753
1247.961, 1257.695
1248.443, 1261.194
1248.925, 1249.030
1249.407, 1240.421
1249.889, 1248.160
1250.371, 1255.693
1250.854, 1260.317
1251.336, 1259.981
1251.818, 1243.611
1252.300, 1221.568
1252.782, 1222.356
1253.264, 1248.713
1253.746, 1269.512
1254.228, 1274.241
1254.711, 1273.006
1255.193, 1266.375
1255.675, 1257.807
1256.157, 1249.169
1256.639, 1243.917
1257.121, 1252.418
1257.603, 1275.107
1258.085, 1284.419
1258.568, 1268.633
1259.050, 1259.932
1259.532, 1268.124
1260.014, 1278.766
1260.496, 1267.078
1260.978, 1249.585
1261.460, 1249.001
1261.942, 1266.979
1262.424, 1286.247
1262.906, 1308.562
1263.389, 1320.154
1263.871, 1316.148
1264.353, 1308.107
1264.835, 1309.714
1265.317, 1313.358
1265.799, 1309.608
1266.281, 1299.438
1266.763, 1297.406
1267.246, 1304.679
1267.728, 1308.222
1268.210, 1304.548
1268.692, 1301.745
1269.174, 1312.397
1269.656, 1322.446
1270.138, 1314.011
1270.620, 1295.752
1271.103, 1302.298
1271.585, 1332.294
1272.067, 1343.067
1272.549, 1324.862
1273.031, 1307.224
1273.513, 1316.188
1273.995, 1325.642
1274.477, 1318.387
1274.959, 1302.824
1275.442, 1300.856
1275.924, 1309.599
1276.406, 1312.156
1276.888, 1305.314
1277.370, 1307.029
1277.852, 1345.459
1278.334, 1368.440
1278.816, 1352.417
1279.298, 1319.598
1279.781, 1312.768
1280.263, 1323.077
1280.745, 1328.078
1281.227, 1324.781
1281.709, 1325.125
1282.191, 1339.007
1282.673, 1344.496
1283.155, 1334.013
1283.637, 1319.702
1284.120, 1321.154
1284.602, 1329.653
1285.084, 1331.073
1285.566, 1324.594
1286.048, 1319.446
1286.530, 1314.809
1287.012, 1318.619
1287.494, 1334.904
1287.977, 1348.924
1288.459, 1336.527
1288.941, 1319.495
1289.423, 1323.914
1289.905, 1346.440
1290.387, 1356.214
1290.869, 1351.736
1291.351, 1347.710
1291.833, 1346.295
1292.316, 1347.336
1292.798, 1356.476
1293.280, 1362.423
1293.762, 1351.814
1294.244, 1334.102
1294.726, 1328.156
1295.208, 1333.246
1295.690, 1342.504
1296.172, 1354.904
1296.655, 1363.486
1297.137, 1360.586
1297.619, 1357.428
1298.101, 1358.283
1298.583, 1360.868
1299.065, 1362.865
1299.547, 1363.470
1300.029, 1358.027
1300.512, 1347.298
1300.994, 1341.248
1301.476, 1346.726
1301.958, 1352.870
1302.440, 1358.371
1302.922, 1363.784
1303.404, 1370.662
1303.886, 1377.363
1304.369, 1381.500
1304.851, 1383.045
1305.333, 1382.039
1305.815, 1378.107
1306.297, 1373.019
1306.779, 1366.411
1307.261, 1362.676
1307.743, 1370.015
1308.225, 1377.930
1308.708, 1376.115
1309.190, 1367.663
1309.672, 1359.951
1310.154, 1352.461
1310.636, 1353.891
1311.118, 1364.314
1311.600, 1373.041
1312.082, 1372.717
1312.564, 1369.364
1313.047, 1364.718
1313.529, 1359.470
1314.011, 1352.636
1314.493, 1345.613
1314.975, 1349.879
1315.457, 1362.241
##END=



