##NAMES=Elbaite
##RRUFFID=R060560
##IDEAL CHEMISTRY=Na(Al_1.5_Li_1.5_)Al_6_(Si_6_O_18_)(BO_3_)_3_(OH)_3_OH
##LOCALITY=California, USA
##OWNER=RRUFF
##SOURCE=Gemological Institute of America
##DESCRIPTION=Pink fragment
##STATUS=The identification of this mineral has been confirmed by X-ray diffraction and chemical analysis
##URL=rruff.info/R060560
##MEASURED CHEMISTRY=(Na_0.56_Ca_0.12_[box]_0.32_)(Al_1.60_Li_1.40_)Al_6_(BO_3_)_3_[Si_6_O_18_](OH)_4_
92.20605, 78.31704
92.68817, 78.93296
93.17029, 79.74129
93.65240, 79.77181
94.13452, 79.52352
94.61664, 78.97374
95.09875, 78.20816
95.58087, 77.27433
96.06299, 76.04454
96.54510, 74.04478
97.02722, 72.45018
97.50933, 71.65801
97.99145, 71.35963
98.47356, 71.14711
98.95568, 70.70244
99.43780, 69.91708
99.91991, 69.18814
100.4020, 68.48137
100.8841, 67.85696
101.3663, 67.31856
101.8484, 66.86460
102.3305, 66.49519
102.8126, 66.17879
103.2947, 65.88200
103.7768, 65.97054
104.2590, 66.70638
104.7411, 67.69349
105.2232, 68.61281
105.7053, 69.45336
106.1874, 69.99555
106.6695, 69.71133
107.1517, 68.65942
107.6338, 67.77457
108.1159, 67.58298
108.5980, 67.95506
109.0801, 68.22364
109.5622, 68.14201
110.0444, 67.97187
110.5265, 67.94895
111.0086, 68.09492
111.4907, 68.25349
111.9728, 68.13711
112.4549, 67.52841
112.9371, 67.42010
113.4192, 68.29011
113.9013, 69.50678
114.3834, 70.74842
114.8655, 71.88418
115.3476, 72.81390
115.8298, 73.23338
116.3119, 72.53001
116.7940, 72.03798
117.2761, 71.86510
117.7582, 71.97873
118.2403, 72.38904
118.7225, 73.13603
119.2046, 74.16013
119.6867, 74.72484
120.1688, 74.31747
120.6509, 74.05901
121.1330, 74.47832
121.6152, 75.44849
122.0973, 76.44662
122.5794, 77.09639
123.0615, 77.35831
123.5436, 77.48421
124.0257, 77.40577
124.5079, 77.22971
124.9900, 77.00736
125.4721, 76.72195
125.9542, 76.51578
126.4363, 76.60245
126.9184, 76.88133
127.4006, 77.13725
127.8827, 77.24346
128.3648, 77.25919
128.8469, 77.35170
129.3290, 77.49641
129.8111, 77.79301
130.2932, 78.38744
130.7754, 79.19620
131.2575, 79.92936
131.7396, 80.37186
132.2217, 80.51447
132.7038, 80.45033
133.1859, 79.64176
133.6681, 79.03923
134.1502, 79.31372
134.6323, 80.40408
135.1144, 81.57862
135.5965, 81.80885
136.0786, 80.41664
136.5608, 79.41038
137.0429, 78.87457
137.5250, 78.59142
138.0071, 78.46045
138.4892, 78.43446
138.9713, 78.45108
139.4535, 78.38069
139.9356, 78.11157
140.4177, 77.90675
140.8998, 77.82174
141.3819, 77.79895
141.8640, 77.70263
142.3462, 77.43005
142.8283, 77.16237
143.3104, 77.49030
143.7925, 78.83492
144.2746, 79.92811
144.7567, 80.00054
145.2388, 79.28748
145.7210, 78.79197
146.2031, 79.02631
146.6852, 79.79134
147.1673, 80.62341
147.6494, 81.63294
148.1315, 82.51796
148.6137, 83.02040
149.0958, 83.13203
149.5779, 82.91514
150.0600, 81.93401
150.5421, 80.78799
151.0242, 80.10658
151.5064, 80.23228
151.9885, 80.75319
152.4706, 80.82201
152.9527, 80.23701
153.4348, 79.54423
153.9169, 79.02219
154.3991, 78.49262
154.8812, 77.66935
155.3633, 76.32058
155.8454, 74.59611
156.3275, 73.43806
156.8096, 73.58237
157.2918, 73.57373
157.7739, 72.98351
158.2560, 72.03360
158.7381, 71.14529
159.2202, 70.63883
159.7023, 70.52631
160.1845, 70.34480
160.6666, 70.12487
161.1487, 69.82053
161.6308, 69.34222
162.1129, 68.74156
162.5950, 68.17107
163.0772, 67.76291
163.5593, 67.53531
164.0414, 67.40745
164.5235, 67.40738
165.0056, 67.47536
165.4877, 67.58026
165.9698, 67.71739
166.4520, 67.88958
166.9341, 68.14385
167.4162, 68.47613
167.8983, 68.64119
168.3804, 68.34056
168.8625, 67.96774
169.3447, 68.13140
169.8268, 69.04067
170.3089, 69.96985
170.7910, 69.96732
171.2731, 69.28912
171.7552, 68.87027
172.2374, 69.35437
172.7195, 70.39301
173.2016, 70.96341
173.6837, 70.74239
174.1658, 70.33906
174.6479, 70.18113
175.1301, 70.23096
175.6122, 70.34716
176.0943, 70.38757
176.5764, 70.36272
177.0585, 70.56178
177.5406, 71.42666
178.0228, 72.11782
178.5049, 72.12661
178.9870, 71.54259
179.4691, 70.83439
179.9512, 70.44556
180.4333, 70.43835
180.9155, 70.47195
181.3976, 70.52740
181.8797, 70.63795
182.3618, 70.87878
182.8439, 71.22385
183.3260, 71.53987
183.8082, 71.62086
184.2903, 71.23679
184.7724, 71.24512
185.2545, 71.93034
185.7366, 72.71481
186.2187, 73.12430
186.7009, 73.11995
187.1830, 73.12040
187.6651, 73.75004
188.1472, 75.49053
188.6293, 76.89037
189.1114, 77.70545
189.5936, 78.32210
190.0757, 79.10798
190.5578, 80.15349
191.0399, 81.22972
191.5220, 81.91069
192.0041, 81.90180
192.4863, 82.32304
192.9684, 83.71147
193.4505, 85.45512
193.9326, 86.70123
194.4147, 87.13825
194.8968, 87.29825
195.3790, 88.12145
195.8611, 89.63651
196.3432, 91.13618
196.8253, 92.40090
197.3074, 93.50169
197.7895, 94.53450
198.2717, 95.40202
198.7538, 96.44222
199.2359, 98.22348
199.7180, 100.7756
200.2001, 103.1328
200.6822, 104.5476
201.1644, 105.2503
201.6465, 106.4177
202.1286, 108.7523
202.6107, 111.1328
203.0928, 112.3944
203.5749, 112.5554
204.0571, 112.6955
204.5392, 113.6913
205.0213, 115.5326
205.5034, 117.3870
205.9855, 119.1631
206.4676, 120.8691
206.9497, 122.4186
207.4319, 123.8343
207.9140, 125.3440
208.3961, 127.2253
208.8782, 129.5520
209.3603, 131.7837
209.8424, 133.4753
210.3246, 135.3587
210.8067, 137.8482
211.2888, 140.9579
211.7709, 144.3747
212.2530, 147.7070
212.7351, 150.7986
213.2173, 154.2528
213.6994, 158.3737
214.1815, 162.5855
214.6636, 166.4413
215.1457, 169.9515
215.6278, 173.6225
216.1100, 178.1292
216.5921, 183.7854
217.0742, 189.5876
217.5563, 195.7497
218.0384, 201.8821
218.5205, 207.8224
219.0027, 213.4974
219.4848, 218.9541
219.9669, 224.2309
220.4490, 229.4183
220.9311, 234.0858
221.4132, 239.0418
221.8954, 243.0474
222.3775, 245.0888
222.8596, 245.0332
223.3417, 243.6016
223.8238, 241.7080
224.3059, 239.4568
224.7881, 236.0938
225.2702, 230.9977
225.7523, 225.1808
226.2344, 219.4297
226.7165, 213.8943
227.1986, 208.4510
227.6807, 202.8590
228.1629, 197.0064
228.6450, 191.8335
229.1271, 187.5674
229.6092, 183.9309
230.0913, 180.8302
230.5734, 178.2643
231.0556, 175.8882
231.5377, 173.3071
232.0198, 170.5263
232.5019, 167.9844
232.9840, 165.5672
233.4661, 163.5119
233.9483, 162.2900
234.4304, 162.0706
234.9125, 162.0132
235.3946, 161.1285
235.8767, 159.6349
236.3588, 158.4854
236.8410, 158.0470
237.3231, 158.0508
237.8052, 158.0889
238.2873, 158.1020
238.7694, 158.2588
239.2515, 158.8642
239.7337, 159.7305
240.2158, 160.4472
240.6979, 160.7541
241.1800, 160.8522
241.6621, 161.2031
242.1442, 162.0017
242.6264, 162.5283
243.1085, 161.9548
243.5906, 160.8535
244.0727, 160.1933
244.5548, 160.7437
245.0369, 161.8203
245.5191, 161.9229
246.0012, 160.7988
246.4833, 159.2621
246.9654, 157.5478
247.4475, 155.7441
247.9296, 153.9955
248.4117, 152.4497
248.8939, 150.9134
249.3760, 148.8596
249.8581, 146.0430
250.3402, 143.2219
250.8223, 140.6967
251.3044, 138.3098
251.7866, 135.8426
252.2687, 133.1407
252.7508, 130.4550
253.2329, 128.3633
253.7150, 127.1272
254.1971, 126.0057
254.6793, 124.9443
255.1614, 123.8316
255.6435, 122.4558
256.1256, 120.7128
256.6077, 118.9136
257.0898, 117.7903
257.5720, 117.9004
258.0541, 117.5949
258.5362, 116.2929
259.0183, 114.7251
259.5004, 113.4536
259.9825, 112.6829
260.4647, 112.3106
260.9468, 112.2034
261.4289, 112.6294
261.9110, 112.7850
262.3931, 112.2277
262.8752, 111.6615
263.3574, 111.7213
263.8395, 112.5398
264.3216, 113.6690
264.8037, 114.4175
265.2858, 114.6779
265.7679, 114.7272
266.2501, 114.3938
266.7322, 114.0148
267.2143, 113.7697
267.6964, 113.7147
268.1785, 113.8536
268.6606, 114.2050
269.1428, 114.8278
269.6249, 115.5296
270.1070, 116.5221
270.5891, 117.4160
271.0712, 117.9670
271.5533, 118.1587
272.0355, 118.1131
272.5176, 117.9174
272.9997, 117.4511
273.4818, 117.3890
273.9639, 118.1893
274.4460, 118.9142
274.9282, 119.1332
275.4103, 118.8183
275.8924, 118.0796
276.3745, 116.9459
276.8566, 115.3245
277.3387, 114.2178
277.8208, 113.9439
278.3029, 113.7468
278.7851, 113.3289
279.2672, 112.7041
279.7493, 112.0213
280.2314, 111.3993
280.7135, 110.8326
281.1956, 110.0673
281.6778, 108.9924
282.1599, 107.8790
282.6420, 106.7758
283.1241, 105.7037
283.6062, 104.7262
284.0883, 103.9109
284.5705, 103.1826
285.0526, 102.1206
285.5347, 100.2317
286.0168, 98.62357
286.4989, 97.84464
286.9810, 97.47982
287.4632, 96.77369
287.9453, 95.33936
288.4274, 93.47795
288.9095, 92.03465
289.3916, 91.29057
289.8737, 90.51573
290.3559, 89.55615
290.8380, 88.52065
291.3201, 87.55388
291.8022, 86.70442
292.2843, 85.95454
292.7664, 85.27954
293.2486, 84.74392
293.7307, 84.13509
294.2128, 83.26257
294.6949, 82.38592
295.1770, 81.86340
295.6591, 81.77265
296.1413, 81.76402
296.6234, 81.36195
297.1055, 80.41158
297.5876, 79.69510
298.0697, 79.27761
298.5518, 79.08022
299.0340, 79.11491
299.5161, 79.35989
299.9982, 79.60374
300.4803, 79.58869
300.9624, 79.28399
301.4445, 79.41348
301.9267, 80.37472
302.4088, 81.43480
302.8909, 82.09034
303.3730, 82.36613
303.8551, 82.60129
304.3372, 82.97950
304.8194, 83.53649
305.3015, 84.42265
305.7836, 85.81044
306.2657, 87.32014
306.7478, 88.95373
307.2299, 90.59501
307.7121, 91.89945
308.1942, 92.65419
308.6763, 92.98000
309.1584, 93.26196
309.6405, 93.30952
310.1227, 93.59620
310.6048, 94.38406
311.0869, 95.50232
311.5690, 96.66942
312.0511, 97.80508
312.5332, 98.84721
313.0154, 99.61287
313.4975, 100.0085
313.9796, 100.4754
314.4617, 101.2888
314.9438, 102.1498
315.4259, 102.5916
315.9081, 102.4829
316.3902, 102.2629
316.8723, 102.5205
317.3544, 103.3648
317.8365, 103.9927
318.3186, 104.1322
318.8007, 104.1594
319.2828, 104.3681
319.7650, 104.7988
320.2471, 105.4099
320.7292, 106.1362
321.2113, 107.0068
321.6934, 108.2624
322.1755, 110.4725
322.6577, 112.5701
323.1398, 113.7202
323.6219, 114.0922
324.1040, 114.5181
324.5861, 115.4418
325.0682, 116.8714
325.5504, 118.7243
326.0325, 121.8097
326.5146, 124.3699
326.9967, 125.5488
327.4788, 125.7725
327.9609, 125.9143
328.4431, 126.3332
328.9252, 126.8960
329.4073, 127.3156
329.8894, 127.6974
330.3715, 127.7539
330.8536, 127.2021
331.3358, 126.3795
331.8179, 125.6952
332.3000, 125.2569
332.7821, 124.9726
333.2642, 124.7819
333.7463, 124.8067
334.2285, 124.3867
334.7106, 123.0054
335.1927, 121.5109
335.6748, 120.6674
336.1569, 120.5033
336.6390, 120.4135
337.1212, 119.8632
337.6033, 118.8241
338.0854, 117.9275
338.5675, 117.0588
339.0496, 116.4105
339.5317, 116.0506
340.0139, 115.9839
340.4960, 116.2584
340.9781, 116.9485
341.4602, 117.9474
341.9423, 118.7115
342.4244, 119.3023
342.9066, 119.6276
343.3887, 119.3683
343.8708, 118.9107
344.3529, 118.8546
344.8350, 119.4350
345.3171, 120.3496
345.7993, 121.0267
346.2814, 121.2645
346.7635, 121.5968
347.2456, 122.0105
347.7277, 122.5269
348.2098, 123.1740
348.6920, 123.9479
349.1741, 124.8277
349.6562, 125.7897
350.1383, 126.8624
350.6204, 127.8960
351.1025, 128.7748
351.5847, 129.7257
352.0668, 130.8511
352.5489, 132.1385
353.0310, 133.5267
353.5131, 134.9603
353.9952, 136.4477
354.4774, 138.1306
354.9595, 140.0347
355.4416, 142.0955
355.9237, 144.3463
356.4058, 146.7307
356.8879, 149.2396
357.3701, 151.8662
357.8522, 154.4957
358.3343, 156.8682
358.8164, 158.5876
359.2985, 160.6747
359.7806, 163.0607
360.2627, 165.8447
360.7448, 169.1131
361.2270, 172.8813
361.7091, 177.0509
362.1912, 181.5890
362.6733, 186.6232
363.1554, 191.4676
363.6375, 195.7950
364.1197, 200.2450
364.6018, 204.9420
365.0839, 209.9949
365.5660, 215.4630
366.0481, 221.3989
366.5302, 227.7988
367.0124, 234.6705
367.4945, 242.5867
367.9766, 250.2363
368.4587, 256.8652
368.9408, 263.2609
369.4229, 270.4089
369.9051, 278.6843
370.3872, 287.6096
370.8693, 296.4869
371.3514, 305.6622
371.8335, 313.8060
372.3156, 321.2034
372.7978, 327.3130
373.2799, 331.7642
373.7620, 334.5123
374.2441, 335.9099
374.7262, 336.5086
375.2083, 336.3739
375.6905, 333.9529
376.1726, 328.0140
376.6547, 320.9471
377.1368, 313.7888
377.6189, 306.3523
378.1010, 298.1817
378.5832, 288.7386
379.0653, 278.5506
379.5474, 269.0664
380.0295, 260.6317
380.5116, 251.9880
380.9937, 241.8028
381.4759, 231.5802
381.9580, 222.9045
382.4401, 216.2654
382.9222, 210.5271
383.4043, 204.5911
383.8864, 198.4497
384.3686, 192.4700
384.8507, 186.3496
385.3328, 180.8955
385.8149, 176.9658
386.2970, 174.4172
386.7791, 171.7456
387.2613, 167.8835
387.7434, 163.3667
388.2255, 159.3613
388.7076, 155.9202
389.1897, 153.1094
389.6718, 151.2498
390.1540, 150.0427
390.6361, 148.9590
391.1182, 147.9767
391.6003, 146.9990
392.0824, 145.8248
392.5645, 144.5005
393.0467, 143.5083
393.5288, 143.1680
394.0109, 143.1579
394.4930, 142.7921
394.9751, 141.8855
395.4572, 141.3456
395.9394, 141.8649
396.4215, 142.8924
396.9036, 143.4190
397.3857, 143.1988
397.8678, 142.8938
398.3499, 143.2477
398.8321, 144.3110
399.3142, 145.1745
399.7963, 145.7095
400.2784, 146.1126
400.7605, 146.5189
401.2426, 146.9191
401.7247, 147.2157
402.2068, 147.3161
402.6890, 147.3003
403.1711, 147.5358
403.6532, 148.3554
404.1353, 148.9710
404.6174, 149.1977
405.0995, 149.1647
405.5817, 149.0249
406.0638, 148.8248
406.5459, 148.5145
407.0280, 148.0126
407.5101, 147.2574
407.9922, 146.5039
408.4744, 146.0147
408.9565, 145.3027
409.4386, 144.0850
409.9207, 142.4004
410.4028, 140.4345
410.8849, 138.2870
411.3671, 135.9719
411.8492, 133.5352
412.3313, 130.8531
412.8134, 128.2028
413.2955, 125.7251
413.7776, 123.2485
414.2598, 120.4981
414.7419, 117.4060
415.2240, 114.2958
415.7061, 111.7963
416.1882, 110.2555
416.6703, 108.0587
417.1525, 104.2439
417.6346, 100.5332
418.1167, 97.78758
418.5988, 95.85414
419.0809, 94.10045
419.5630, 92.06149
420.0452, 89.84051
420.5273, 87.83992
421.0094, 86.12230
421.4915, 84.52327
421.9736, 82.99903
422.4557, 81.55209
422.9379, 80.22431
423.4200, 79.04570
423.9021, 77.88794
424.3842, 76.49753
424.8663, 74.90050
425.3484, 73.72253
425.8306, 73.31307
426.3127, 73.09077
426.7948, 72.49474
427.2769, 71.58203
427.7590, 70.71458
428.2411, 69.96784
428.7233, 69.38686
429.2054, 69.14188
429.6875, 69.26303
430.1696, 69.28586
430.6517, 68.82663
431.1339, 68.08974
431.6160, 67.70071
432.0981, 67.80979
432.5802, 68.03170
433.0623, 68.21195
433.5444, 68.36309
434.0266, 68.49831
434.5087, 68.61433
434.9908, 68.75687
435.4729, 68.98550
435.9550, 69.30933
436.4371, 69.70547
436.9193, 70.47630
437.4014, 71.07536
437.8835, 70.89589
438.3656, 70.13110
438.8477, 69.57813
439.3298, 69.78183
439.8120, 70.59697
440.2941, 71.24013
440.7762, 71.47652
441.2583, 71.83284
441.7404, 72.59634
442.2225, 73.38242
442.7046, 73.71091
443.1867, 73.50122
443.6689, 73.16039
444.1510, 73.23573
444.6331, 73.85158
445.1152, 74.26008
445.5973, 74.22044
446.0794, 74.20931
446.5616, 74.35334
447.0437, 74.65128
447.5258, 75.11421
448.0079, 75.78468
448.4900, 76.51662
448.9721, 76.91708
449.4543, 76.86434
449.9364, 76.82944
450.4185, 77.04952
450.9006, 77.24033
451.3827, 77.20839
451.8648, 76.93163
452.3470, 76.49335
452.8291, 75.86391
453.3112, 75.10564
453.7933, 74.53464
454.2754, 74.23894
454.7575, 73.96456
455.2397, 73.42166
455.7218, 72.80175
456.2039, 72.48512
456.6860, 72.79995
457.1681, 73.09018
457.6502, 72.65820
458.1324, 71.67590
458.6145, 70.94212
459.0966, 70.76476
459.5787, 70.84512
460.0608, 70.75906
460.5429, 70.50241
461.0251, 70.22792
461.5072, 69.93452
461.9893, 69.65503
462.4714, 69.46170
462.9535, 69.33155
463.4356, 69.10717
463.9178, 68.64938
464.3999, 68.03140
464.8820, 67.64866
465.3641, 67.69923
465.8462, 67.71362
466.3283, 67.55580
466.8105, 67.36549
467.2926, 67.36076
467.7747, 67.55984
468.2568, 67.70812
468.7389, 67.48373
469.2210, 66.81644
469.7032, 66.22559
470.1853, 65.55723
470.6674, 65.13187
471.1495, 65.24313
471.6316, 65.62415
472.1137, 65.83926
472.5959, 65.67331
473.0780, 65.31761
473.5601, 65.15838
474.0422, 65.27215
474.5243, 65.25185
475.0064, 64.78547
475.4886, 64.36433
475.9707, 64.33953
476.4528, 64.66695
476.9349, 65.02032
477.4170, 65.10564
477.8991, 65.09628
478.3813, 65.50021
478.8634, 66.42078
479.3455, 67.11118
479.8276, 66.99152
480.3097, 66.48933
480.7918, 66.37746
481.2740, 66.77999
481.7561, 67.30849
482.2382, 67.81374
482.7203, 68.30219
483.2024, 68.83945
483.6845, 69.44785
484.1666, 69.90499
484.6487, 69.93597
485.1309, 69.52319
485.6130, 69.38011
486.0951, 69.65564
486.5772, 70.02264
487.0593, 70.34692
487.5414, 70.66582
488.0236, 71.06721
488.5057, 71.58691
488.9878, 72.16630
489.4699, 72.68887
489.9520, 73.08173
490.4341, 73.61187
490.9163, 74.40282
491.3984, 75.19061
491.8805, 75.90117
492.3626, 76.49438
492.8447, 76.88277
493.3268, 76.96835
493.8090, 76.90195
494.2911, 77.16389
494.7732, 77.91305
495.2553, 78.55807
495.7374, 78.84913
496.2195, 79.06182
496.7017, 79.36565
497.1838, 79.77874
497.6659, 80.25892
498.1480, 80.84994
498.6301, 81.47764
499.1122, 81.84638
499.5944, 81.84945
500.0765, 82.05602
500.5586, 82.89809
501.0407, 84.14537
501.5228, 85.33195
502.0049, 86.52921
502.4871, 87.46245
502.9692, 87.73192
503.4513, 87.71605
503.9334, 88.16676
504.4155, 89.25099
504.8976, 90.48666
505.3798, 91.41799
505.8619, 92.03342
506.3440, 92.55137
506.8261, 92.66309
507.3082, 93.02813
507.7903, 94.23961
508.2725, 95.76287
508.7546, 96.61009
509.2367, 96.44436
509.7188, 96.03970
510.2009, 96.74341
510.6830, 99.11375
511.1652, 100.7034
511.6473, 100.8088
512.1294, 100.8241
512.6115, 101.2891
513.0936, 102.0712
513.5757, 102.8490
514.0579, 103.4818
514.5400, 103.9665
515.0221, 104.2872
515.5042, 104.4352
515.9863, 104.5002
516.4684, 104.5817
516.9506, 104.4906
517.4327, 103.9264
517.9148, 102.9784
518.3969, 102.2999
518.8790, 102.5709
519.3611, 103.0275
519.8433, 102.6273
520.3254, 101.3992
520.8075, 99.98238
521.2896, 98.61756
521.7717, 97.32116
522.2538, 96.14271
522.7360, 94.99863
523.2181, 94.14443
523.7002, 93.89962
524.1823, 93.77456
524.6644, 93.38127
525.1465, 92.68538
525.6287, 91.74926
526.1108, 90.56900
526.5929, 89.26131
527.0750, 88.43274
527.5571, 88.46103
528.0392, 88.46569
528.5214, 88.08953
529.0035, 87.84682
529.4856, 88.43661
529.9677, 89.75603
530.4498, 90.77757
530.9319, 90.27929
531.4141, 88.64310
531.8962, 88.36818
532.3783, 90.08788
532.8604, 91.70335
533.3425, 92.12667
533.8246, 92.07024
534.3068, 92.25384
534.7889, 92.81168
535.2710, 93.38960
535.7531, 93.80210
536.2352, 94.06243
536.7173, 94.10493
537.1995, 93.89235
537.6816, 93.90161
538.1637, 94.71498
538.6458, 96.06440
539.1279, 96.37835
539.6100, 94.70628
540.0922, 93.26620
540.5743, 92.85367
541.0564, 92.93005
541.5385, 92.92149
542.0206, 92.67026
542.5027, 92.16971
542.9849, 91.37815
543.4670, 90.28608
543.9491, 89.31834
544.4312, 88.44131
544.9133, 87.75218
545.3954, 87.58410
545.8775, 87.46033
546.3596, 86.73069
546.8417, 85.26452
547.3239, 83.73763
547.8060, 82.98626
548.2881, 82.92857
548.7702, 82.62678
549.2523, 81.95943
549.7344, 81.21762
550.2166, 80.60002
550.6987, 80.01814
551.1808, 79.31356
551.6629, 78.42018
552.1450, 77.50282
552.6271, 76.55797
553.1093, 75.68003
553.5914, 75.11167
554.0735, 74.90688
554.5556, 74.79965
555.0377, 74.56862
555.5198, 74.21252
556.0020, 73.77215
556.4841, 73.21255
556.9662, 72.62478
557.4483, 72.01066
557.9304, 71.38773
558.4125, 70.77055
558.8947, 70.16517
559.3768, 69.60227
559.8589, 69.13095
560.3410, 68.75765
560.8231, 68.29356
561.3052, 67.72639
561.7874, 67.08273
562.2695, 66.15830
562.7516, 65.27019
563.2337, 64.86424
563.7158, 65.07527
564.1979, 65.33736
564.6801, 65.20020
565.1622, 64.72438
565.6443, 64.02795
566.1264, 63.05314
566.6085, 62.21126
567.0906, 61.79700
567.5728, 61.75279
568.0549, 61.78654
568.5370, 62.06438
569.0191, 62.16050
569.5012, 61.84772
569.9833, 61.31453
570.4655, 60.67098
570.9476, 59.99749
571.4297, 59.57071
571.9118, 59.69172
572.3939, 60.30100
572.8760, 60.62004
573.3582, 60.27241
573.8403, 60.14819
574.3224, 60.65561
574.8045, 61.23981
575.2866, 61.42903
575.7687, 61.15646
576.2509, 60.62421
576.7330, 59.82159
577.2151, 58.89811
577.6972, 58.51163
578.1793, 58.79268
578.6614, 59.04193
579.1436, 58.86671
579.6257, 58.54634
580.1078, 58.55651
580.5899, 58.99547
581.0720, 59.22032
581.5541, 58.62225
582.0363, 57.91296
582.5184, 58.09622
583.0005, 59.06194
583.4826, 59.74609
583.9647, 59.46642
584.4468, 58.59635
584.9290, 58.23973
585.4111, 58.97627
585.8932, 59.32320
586.3753, 59.04716
586.8574, 58.61249
587.3395, 58.22457
587.8217, 57.93366
588.3038, 57.77584
588.7859, 57.79143
589.2680, 57.90216
589.7501, 57.96328
590.2322, 57.98328
590.7144, 57.88685
591.1965, 57.62812
591.6786, 57.27659
592.1607, 56.78300
592.6428, 56.21877
593.1249, 55.93136
593.6071, 56.34158
594.0892, 56.79481
594.5713, 56.65280
595.0534, 56.11115
595.5355, 55.79226
596.0176, 55.92324
596.4998, 56.03703
596.9819, 55.44728
597.4640, 53.91571
597.9461, 53.17231
598.4282, 53.94839
598.9103, 54.55465
599.3925, 54.30260
599.8746, 53.61926
600.3567, 53.06044
600.8388, 52.80483
601.3209, 52.73623
601.8030, 52.74190
602.2852, 52.82051
602.7673, 53.01413
603.2494, 53.53803
603.7315, 53.69903
604.2136, 52.49375
604.6957, 50.96397
605.1779, 50.70477
605.6600, 52.23557
606.1421, 53.54781
606.6242, 53.43545
607.1063, 52.59893
607.5884, 51.99897
608.0706, 51.71891
608.5527, 51.39585
609.0348, 50.75167
609.5169, 49.95714
609.9990, 49.60429
610.4811, 50.00671
610.9633, 50.41978
611.4454, 50.94554
611.9275, 51.38837
612.4096, 51.62278
612.8917, 51.66093
613.3738, 51.55714
613.8560, 51.31575
614.3381, 51.02269
614.8202, 50.79680
615.3023, 50.62413
615.7844, 50.73410
616.2665, 51.39774
616.7487, 52.03872
617.2308, 51.97628
617.7129, 51.41935
618.1950, 51.19604
618.6771, 51.72603
619.1592, 52.37603
619.6414, 52.84887
620.1235, 53.15306
620.6056, 53.22945
621.0877, 53.08118
621.5698, 52.98567
622.0519, 53.26331
622.5341, 53.91890
623.0162, 54.37616
623.4983, 54.44294
623.9804, 54.55002
624.4625, 54.69815
624.9446, 54.95953
625.4268, 55.47457
625.9089, 56.21848
626.3910, 56.91551
626.8731, 57.17415
627.3552, 57.26869
627.8373, 58.04824
628.3194, 59.58354
628.8015, 60.84782
629.2836, 61.32106
629.7657, 61.45937
630.2479, 61.97841
630.7300, 62.88447
631.2121, 63.87738
631.6942, 65.01804
632.1763, 66.13783
632.6584, 67.10997
633.1406, 67.98415
633.6227, 68.91789
634.1048, 69.96472
634.5869, 70.95914
635.0690, 71.60233
635.5511, 71.81589
636.0333, 72.25207
636.5154, 72.98827
636.9975, 73.84840
637.4796, 74.86169
637.9617, 75.90395
638.4438, 76.83399
638.9260, 77.62045
639.4081, 78.27081
639.8902, 78.90281
640.3723, 79.35760
640.8544, 79.26329
641.3365, 78.61143
641.8187, 77.84895
642.3008, 77.22048
642.7829, 76.65760
643.2650, 75.98379
643.7471, 75.15541
644.2292, 74.29428
644.7114, 73.38175
645.1935, 72.45738
645.6756, 71.62086
646.1577, 70.77547
646.6398, 69.67551
647.1219, 68.19794
647.6041, 66.62660
648.0862, 65.36654
648.5683, 64.41447
649.0504, 63.65676
649.5325, 63.25385
650.0146, 62.65753
650.4968, 61.22687
650.9789, 59.40579
651.4610, 58.21191
651.9431, 57.92000
652.4252, 57.79826
652.9073, 57.80632
653.3895, 57.69265
653.8716, 57.08448
654.3537, 56.03351
654.8358, 54.91461
655.3179, 53.95337
655.8000, 53.14672
656.2822, 52.49340
656.7643, 52.05130
657.2464, 51.62071
657.7285, 51.21867
658.2106, 50.79645
658.6927, 50.31347
659.1749, 49.79410
659.6570, 49.28904
660.1391, 48.80204
660.6212, 48.36518
661.1033, 48.08440
661.5854, 47.87019
662.0676, 47.38698
662.5497, 46.57288
663.0318, 45.93949
663.5139, 45.90863
663.9960, 46.34909
664.4781, 46.61388
664.9603, 46.65052
665.4424, 46.57674
665.9245, 46.28066
666.4066, 45.97274
666.8887, 45.82800
667.3708, 45.80246
667.8530, 45.72233
668.3351, 45.47421
668.8172, 45.19405
669.2993, 45.06810
669.7814, 45.09770
670.2635, 45.36579
670.7457, 45.98738
671.2278, 46.57384
671.7099, 46.70453
672.1920, 46.54198
672.6741, 46.78138
673.1563, 47.86077
673.6384, 48.67109
674.1205, 48.73916
674.6026, 48.47972
675.0847, 48.22346
675.5668, 48.04025
676.0490, 47.93396
676.5311, 47.90936
677.0132, 47.95248
677.4953, 48.09305
677.9774, 48.42710
678.4595, 48.36992
678.9417, 47.49722
679.4238, 46.66043
679.9059, 46.53661
680.3880, 46.82779
680.8701, 46.85076
681.3522, 46.34074
681.8344, 45.80107
682.3165, 45.54116
682.7986, 45.42255
683.2807, 45.15132
683.7628, 44.75091
684.2449, 44.63589
684.7271, 45.12737
685.2092, 46.00604
685.6913, 46.56539
686.1734, 46.63377
686.6555, 46.77704
687.1376, 47.05853
687.6198, 47.38824
688.1019, 47.71621
688.5840, 48.06335
689.0661, 48.45662
689.5482, 48.87139
690.0303, 49.44879
690.5125, 50.36527
690.9946, 51.51659
691.4767, 52.69348
691.9588, 53.87428
692.4409, 55.02161
692.9230, 56.07822
693.4052, 57.15233
693.8873, 58.59135
694.3694, 60.68991
694.8515, 62.62523
695.3336, 64.41794
695.8157, 66.03107
696.2979, 67.20714
696.7800, 68.25648
697.2621, 69.74485
697.7442, 71.90166
698.2263, 74.31801
698.7084, 76.56987
699.1906, 78.74226
699.6727, 81.14794
700.1548, 83.80131
700.6369, 86.69121
701.1190, 89.91077
701.6011, 93.24039
702.0833, 96.06590
702.5654, 97.81904
703.0475, 100.4126
703.5296, 104.5542
704.0117, 108.8468
704.4938, 112.7700
704.9760, 116.2713
705.4581, 119.3343
705.9402, 121.9460
706.4223, 124.4112
706.9044, 127.1547
707.3865, 130.0253
707.8687, 132.4208
708.3508, 134.3383
708.8329, 135.5979
709.3149, 136.0231
709.7971, 135.8575
710.2792, 135.4877
710.7613, 134.9294
711.2434, 134.1049
711.7255, 133.1044
712.2076, 131.7269
712.6898, 129.8919
713.1719, 127.6138
713.6540, 124.8167
714.1361, 121.5166
714.6182, 118.0968
715.1003, 114.8923
715.5825, 111.8744
716.0646, 108.9109
716.5467, 106.0538
717.0288, 102.9375
717.5109, 99.21155
717.9930, 95.51775
718.4752, 92.89144
718.9573, 91.30422
719.4394, 88.92595
719.9215, 84.60622
720.4036, 80.63293
720.8857, 78.01221
721.3679, 76.23593
721.8500, 74.83191
722.3321, 73.60622
722.8142, 72.29491
723.2963, 70.65400
723.7784, 68.81543
724.2606, 67.08240
724.7427, 65.40322
725.2248, 64.31860
725.7069, 64.28686
726.1890, 64.28060
726.6711, 62.97807
727.1533, 60.82486
727.6354, 60.05101
728.1175, 62.18201
728.5996, 63.78313
729.0817, 63.25627
729.5638, 62.14738
730.0460, 61.99264
730.5281, 62.74175
731.0102, 63.47162
731.4923, 63.63145
731.9744, 63.53988
732.4565, 63.79194
732.9387, 64.39395
733.4208, 64.95634
733.9029, 65.37466
734.3850, 65.92192
734.8671, 66.80424
735.3492, 67.92736
735.8314, 69.01540
736.3135, 69.95644
736.7956, 71.16056
737.2777, 73.04441
737.7598, 74.92278
738.2419, 76.24443
738.7241, 77.19569
739.2062, 78.16273
739.6883, 79.31336
740.1704, 80.72189
740.6525, 82.64584
741.1346, 84.98416
741.6168, 86.79561
742.0989, 87.88248
742.5810, 89.41611
743.0631, 92.10446
743.5452, 95.21225
744.0273, 97.69551
744.5095, 99.53960
744.9916, 101.2323
745.4737, 102.7700
745.9558, 104.2120
746.4379, 105.5713
746.9200, 106.8556
747.4022, 108.1943
747.8843, 109.5208
748.3664, 110.4568
748.8485, 110.6531
749.3306, 110.3059
749.8127, 109.8364
750.2949, 109.2433
750.7770, 108.5898
751.2591, 107.9797
751.7412, 107.0633
752.2233, 105.5246
752.7054, 103.3959
753.1876, 100.9191
753.6697, 97.53065
754.1518, 94.62428
754.6339, 92.59367
755.1160, 90.91000
755.5981, 89.29966
756.0803, 87.68718
756.5624, 86.00655
757.0445, 84.21937
757.5266, 82.36958
758.0087, 80.41765
758.4908, 78.44054
758.9730, 76.81453
759.4551, 75.57856
759.9372, 74.46718
760.4193, 73.43405
760.9014, 72.27522
761.3835, 70.49146
761.8657, 67.59168
762.3478, 65.73038
762.8299, 65.84689
763.3120, 65.82841
763.7941, 64.69809
764.2762, 63.18830
764.7584, 62.22508
765.2405, 61.93042
765.7226, 61.66231
766.2047, 60.86254
766.6868, 60.57666
767.1689, 59.52014
767.6511, 59.50676
768.1332, 59.20672
768.6153, 58.43406
769.0974, 57.49102
769.5795, 56.63700
770.0616, 55.87672
770.5438, 55.31481
771.0259, 55.12555
771.5080, 54.81897
771.9901, 54.03986
772.4722, 53.42660
772.9543, 53.43573
773.4365, 53.89154
773.9186, 54.38231
774.4007, 54.84247
774.8828, 55.14479
775.3649, 55.22247
775.8470, 55.07911
776.3292, 54.61081
776.8113, 53.90043
777.2934, 53.31544
777.7755, 53.03673
778.2576, 52.83357
778.7397, 52.35155
779.2219, 51.58501
779.7040, 50.58961
780.1861, 49.28725
780.6682, 47.90777
781.1503, 46.36924
781.6324, 44.91624
782.1146, 43.87821
782.5967, 43.23521
783.0788, 42.55238
783.5609, 41.68915
784.0430, 40.80170
784.5251, 39.96225
785.0073, 39.14935
785.4894, 38.27552
785.9715, 37.37579
786.4536, 36.68630
786.9357, 36.42986
787.4178, 36.32762
787.9000, 35.70507
788.3821, 34.56918
788.8642, 33.61995
789.3463, 32.98863
789.8284, 32.40490
790.3105, 31.61672
790.7927, 30.79371
791.2748, 30.44480
791.7568, 30.75037
792.2390, 31.05022
792.7211, 31.46831
793.2032, 31.70444
793.6853, 31.52420
794.1674, 31.10586
794.6495, 30.69577
795.1317, 30.35752
795.6138, 30.02167
796.0959, 29.59903
796.5780, 29.16238
797.0601, 28.90205
797.5422, 28.76222
798.0244, 28.38674
798.5065, 27.65923
798.9886, 27.04597
799.4707, 27.03138
799.9528, 27.51505
800.4349, 27.77835
800.9171, 27.81926
801.3992, 27.64513
801.8813, 26.99054
802.3634, 26.37603
802.8455, 26.07354
803.3276, 26.00707
803.8098, 26.01990
804.2919, 26.09344
804.7740, 26.18689
805.2561, 26.42204
805.7382, 26.55761
806.2203, 26.15610
806.7025, 25.45955
807.1846, 25.13888
807.6667, 25.43243
808.1488, 25.93908
808.6309, 26.20746
809.1130, 26.26890
809.5952, 26.33232
810.0773, 26.42179
810.5594, 26.35162
811.0415, 25.99826
811.5236, 25.59634
812.0057, 25.36843
812.4879, 25.30345
812.9700, 25.25117
813.4521, 25.14933
813.9342, 25.14691
814.4163, 25.39752
814.8984, 25.63940
815.3806, 25.64272
815.8627, 25.48771
816.3448, 25.36660
816.8269, 25.34638
817.3090, 25.43120
817.7911, 25.74770
818.2733, 26.12450
818.7554, 26.17511
819.2375, 25.92910
819.7196, 25.65258
820.2017, 25.43433
820.6838, 25.40008
821.1660, 25.75850
821.6481, 26.49231
822.1302, 26.93723
822.6123, 27.03396
823.0944, 26.96829
823.5765, 26.58898
824.0587, 26.23670
824.5408, 26.17662
825.0229, 26.34210
825.5050, 26.52805
825.9871, 26.75585
826.4692, 26.88447
826.9514, 26.71819
827.4335, 26.54478
827.9156, 26.70526
828.3977, 27.07241
828.8798, 27.25192
829.3619, 27.10255
829.8441, 26.96167
830.3262, 27.38090
830.8083, 28.11926
831.2904, 28.17160
831.7725, 27.54579
832.2546, 27.10476
832.7368, 27.14409
833.2189, 27.35912
833.7010, 27.45697
834.1831, 27.44266
834.6652, 27.36570
835.1473, 26.97077
835.6295, 26.93379
836.1116, 27.65176
836.5937, 28.37004
837.0758, 28.68350
837.5579, 28.68679
838.0400, 28.60364
838.5222, 28.47822
839.0043, 28.30818
839.4864, 28.07029
839.9685, 27.80445
840.4506, 27.48913
840.9327, 27.18962
841.4149, 27.03365
841.8970, 27.06102
842.3791, 27.27202
842.8612, 27.77569
843.3433, 28.36262
843.8254, 28.13035
844.3076, 27.03417
844.7897, 26.63374
845.2718, 27.46470
845.7539, 28.24473
846.2360, 27.92398
846.7181, 26.85183
847.2003, 26.22313
847.6824, 26.18194
848.1645, 26.32419
848.6466, 26.85067
849.1287, 27.32756
849.6108, 27.61291
850.0930, 27.72579
850.5751, 27.66929
851.0572, 27.45510
851.5393, 27.21722
852.0214, 26.88804
852.5035, 26.69230
852.9857, 27.00669
853.4678, 27.52401
853.9499, 27.61282
854.4320, 27.25168
854.9141, 26.98082
855.3962, 27.17671
855.8784, 27.62912
856.3605, 27.97246
856.8426, 28.20517
857.3247, 28.13213
857.8068, 27.62315
858.2889, 27.44486
858.7711, 28.10592
859.2532, 29.06907
859.7353, 29.46728
860.2174, 29.18015
860.6995, 29.20770
861.1816, 29.97960
861.6638, 30.48264
862.1459, 30.27543
862.6280, 29.94111
863.1101, 29.91672
863.5922, 30.18416
864.0743, 30.58326
864.5565, 31.18512
865.0386, 31.58510
865.5207, 31.23813
866.0028, 30.75583
866.4849, 31.03790
866.9670, 31.81592
867.4492, 32.13396
867.9313, 31.66103
868.4134, 30.99288
868.8955, 30.76351
869.3776, 30.88985
869.8597, 31.11968
870.3419, 31.45358
870.8240, 31.65478
871.3061, 31.62914
871.7882, 31.64847
872.2703, 31.97592
872.7524, 32.50147
873.2346, 32.78465
873.7167, 32.67571
874.1987, 32.62196
874.6808, 32.81337
875.1630, 32.84374
875.6451, 32.29827
876.1272, 31.65712
876.6093, 31.62942
877.0914, 32.27348
877.5735, 32.68998
878.0557, 32.48471
878.5378, 32.06873
879.0199, 31.50513
879.5020, 30.97229
879.9841, 30.76188
880.4662, 30.80971
880.9484, 30.74949
881.4305, 30.36695
881.9126, 29.92358
882.3947, 29.79196
882.8768, 29.87061
883.3589, 29.84514
883.8411, 29.70623
884.3232, 29.59635
884.8053, 29.58671
885.2874, 29.45115
885.7695, 28.82778
886.2516, 27.81302
886.7338, 27.64633
887.2159, 28.83171
887.6980, 29.39761
888.1801, 28.68527
888.6622, 27.77359
889.1443, 27.36173
889.6265, 27.28115
890.1086, 27.13002
890.5907, 26.85996
891.0728, 26.64940
891.5549, 26.58933
892.0370, 26.51846
892.5192, 26.41372
893.0013, 26.22155
893.4834, 25.75725
893.9655, 25.09642
894.4476, 24.74038
894.9297, 25.13989
895.4119, 25.61682
895.8940, 25.48279
896.3761, 25.02238
896.8582, 24.70021
897.3403, 24.53523
897.8224, 24.30144
898.3046, 23.89514
898.7867, 23.53275
899.2688, 23.58474
899.7509, 23.95194
900.2330, 23.97433
900.7151, 23.63035
901.1973, 23.32403
901.6794, 23.17383
902.1615, 23.02645
902.6436, 22.72362
903.1257, 22.32658
903.6078, 22.11781
904.0900, 22.30088
904.5721, 22.23392
905.0542, 21.52883
905.5363, 21.03939
906.0184, 21.42443
906.5005, 22.00387
906.9827, 21.81323
907.4648, 20.81665
907.9469, 20.23347
908.4290, 20.76784
908.9111, 21.25834
909.3932, 21.16373
909.8754, 20.83282
910.3575, 20.48964
910.8396, 20.23638
911.3217, 20.25032
911.8038, 20.62632
912.2859, 20.98513
912.7681, 20.91980
913.2502, 20.66809
913.7323, 20.57479
914.2144, 20.63003
914.6965, 20.80134
915.1786, 21.05955
915.6608, 21.21239
916.1429, 21.06252
916.6250, 20.78403
917.1071, 20.95181
917.5892, 21.56712
918.0714, 21.59491
918.5535, 20.81075
919.0356, 20.17241
919.5177, 20.14401
919.9998, 20.51723
920.4819, 21.02061
920.9641, 21.67846
921.4462, 22.16130
921.9283, 22.41886
922.4104, 22.58569
922.8925, 22.65748
923.3746, 22.66828
923.8568, 22.55057
924.3389, 22.40123
924.8210, 22.47888
925.3031, 22.90743
925.7852, 23.21910
926.2673, 23.24316
926.7495, 23.18100
927.2316, 23.07517
927.7137, 22.99021
928.1958, 22.96498
928.6779, 23.02630
929.1600, 23.26737
929.6422, 23.85436
930.1243, 24.37095
930.6064, 24.32407
931.0885, 24.04403
931.5706, 24.00972
932.0527, 24.22003
932.5349, 24.56388
933.0170, 24.97965
933.4991, 25.25540
933.9812, 25.07653
934.4633, 24.65107
934.9454, 24.60400
935.4276, 24.90274
935.9097, 25.25199
936.3918, 25.60407
936.8739, 25.85162
937.3560, 25.90973
937.8381, 25.86488
938.3203, 25.85905
938.8024, 25.85913
939.2845, 26.23570
939.7666, 27.22492
940.2487, 27.97649
940.7308, 28.21767
941.2130, 28.18417
941.6951, 28.01619
942.1772, 27.74819
942.6593, 27.56902
943.1414, 27.42259
943.6235, 27.45852
944.1057, 27.82358
944.5878, 28.21091
945.0699, 28.53089
945.5520, 28.77151
946.0341, 28.90880
946.5162, 28.94868
946.9984, 28.96235
947.4805, 28.94578
947.9626, 28.94548
948.4447, 29.03799
948.9268, 29.11356
949.4089, 28.92435
949.8911, 28.65946
950.3732, 28.83587
950.8553, 29.60162
951.3374, 30.30700
951.8195, 30.32078
952.3016, 30.06848
952.7838, 30.09888
953.2659, 30.30645
953.7480, 30.45121
954.2301, 30.49959
954.7122, 30.51710
955.1943, 30.53571
955.6765, 30.61866
956.1586, 30.91725
956.6406, 31.37319
957.1227, 31.67086
957.6049, 31.81175
958.0870, 31.96930
958.5691, 32.19603
959.0512, 32.42271
959.5333, 32.58169
960.0154, 32.70364
960.4976, 32.86168
960.9797, 33.01966
961.4618, 33.46764
961.9439, 34.41685
962.4260, 35.08373
962.9081, 35.00108
963.3903, 34.68453
963.8724, 34.75045
964.3545, 35.17953
964.8366, 35.53795
965.3187, 35.63871
965.8008, 35.96642
966.2830, 36.90837
966.7651, 37.67733
967.2472, 37.67237
967.7293, 37.38087
968.2114, 37.61946
968.6935, 38.47334
969.1757, 38.99054
969.6578, 38.57113
970.1399, 38.30533
970.6220, 38.70554
971.1041, 39.31553
971.5862, 39.77419
972.0684, 40.11170
972.5505, 40.53719
973.0326, 41.12511
973.5147, 41.48004
973.9968, 41.08353
974.4789, 40.65377
974.9611, 40.89363
975.4432, 41.44215
975.9253, 41.77039
976.4074, 41.83530
976.8895, 41.85461
977.3716, 41.93806
977.8538, 41.99038
978.3359, 41.84410
978.8180, 41.63485
979.3001, 41.58843
979.7822, 41.69474
980.2643, 41.97272
980.7465, 42.38401
981.2286, 42.60550
981.7107, 42.38147
982.1928, 41.93097
982.6749, 41.66953
983.1570, 41.55839
983.6392, 41.29490
984.1213, 40.87951
984.6034, 40.81354
985.0855, 41.30188
985.5676, 41.81262
986.0497, 41.80515
986.5319, 41.42572
987.0140, 41.23558
987.4961, 41.26974
987.9782, 41.15808
988.4603, 40.75964
988.9424, 40.72342
989.4246, 41.52055
989.9067, 42.41640
990.3888, 42.44711
990.8709, 41.67653
991.3530, 41.10771
991.8351, 40.75333
992.3173, 40.57584
992.7994, 40.61348
993.2815, 40.77602
993.7636, 41.25227
994.2457, 41.68256
994.7278, 41.36955
995.2100, 40.23656
995.6921, 39.58547
996.1742, 39.64619
996.6563, 39.88176
997.1384, 40.48060
997.6205, 40.95750
998.1027, 41.00909
998.5848, 40.74644
999.0669, 40.29162
999.5490, 39.63654
1000.031, 39.21104
1000.513, 39.25761
1000.995, 39.37931
1001.477, 39.35397
1001.960, 39.39856
1002.442, 39.85642
1002.924, 40.50134
1003.406, 40.80618
1003.888, 40.62124
1004.370, 40.30799
1004.852, 39.89714
1005.334, 39.58834
1005.817, 39.48257
1006.299, 39.58195
1006.781, 40.14586
1007.263, 40.89590
1007.745, 40.93304
1008.227, 39.85757
1008.709, 38.86634
1009.191, 39.10410
1009.673, 39.76615
1010.156, 39.93340
1010.638, 39.85126
1011.120, 40.17383
1011.602, 40.81458
1012.084, 40.85431
1012.566, 39.75942
1013.048, 38.72369
1013.530, 39.48622
1014.013, 41.03232
1014.495, 41.29279
1014.977, 40.64861
1015.459, 40.40614
1015.941, 40.80202
1016.423, 41.39789
1016.905, 41.94853
1017.387, 42.26944
1017.869, 41.77975
1018.352, 40.85194
1018.834, 41.01206
1019.316, 42.13194
1019.798, 43.17110
1020.280, 43.85802
1020.762, 44.05455
1021.244, 43.59217
1021.726, 42.90288
1022.208, 42.92434
1022.691, 43.58628
1023.173, 44.01307
1023.655, 44.18693
1024.137, 44.23969
1024.619, 44.18822
1025.101, 44.23733
1025.583, 44.59240
1026.065, 45.06593
1026.547, 45.08283
1027.030, 45.34114
1027.512, 45.50483
1027.994, 45.27611
1028.476, 45.57843
1028.958, 44.98842
1029.440, 44.61149
1029.922, 45.55014
1030.404, 47.27752
1030.887, 48.00804
1031.369, 47.44482
1031.851, 47.27246
1032.333, 47.74953
1032.815, 47.81436
1033.297, 46.83010
1033.779, 45.92495
1034.261, 46.20302
1034.744, 47.32579
1035.226, 48.05287
1035.708, 48.26488
1036.190, 48.41654
1036.672, 48.32862
1037.154, 48.54029
1037.636, 49.50735
1038.118, 50.46593
1038.600, 50.59056
1039.083, 50.14526
1039.565, 50.22101
1040.047, 51.06641
1040.529, 51.82492
1041.011, 52.38505
1041.493, 53.00919
1041.975, 53.65299
1042.457, 54.49389
1042.939, 55.88241
1043.422, 57.60766
1043.904, 58.82224
1044.386, 59.18108
1044.868, 59.85933
1045.350, 61.30139
1045.832, 62.55627
1046.314, 63.13908
1046.796, 63.57813
1047.279, 64.18190
1047.761, 65.02908
1048.243, 66.37719
1048.725, 68.48960
1049.207, 70.39247
1049.689, 72.00964
1050.171, 73.32771
1050.653, 74.10232
1051.135, 74.78365
1051.618, 75.78100
1052.100, 77.02482
1052.582, 78.24245
1053.064, 79.35473
1053.546, 80.56902
1054.028, 82.11453
1054.510, 83.53948
1054.992, 84.70437
1055.474, 85.63175
1055.957, 86.28857
1056.439, 86.74027
1056.921, 87.02972
1057.403, 87.01052
1057.885, 87.63032
1058.367, 90.17972
1058.849, 92.14258
1059.331, 91.98136
1059.814, 91.07903
1060.296, 90.42525
1060.778, 90.17393
1061.260, 90.54881
1061.742, 91.75095
1062.224, 92.31718
1062.706, 91.29314
1063.188, 90.09203
1063.671, 89.25322
1064.153, 88.63947
1064.635, 88.25446
1065.117, 87.93934
1065.599, 87.38036
1066.081, 86.49797
1066.563, 85.56960
1067.045, 84.64322
1067.527, 83.77148
1068.010, 83.06376
1068.492, 82.34757
1068.974, 81.38747
1069.456, 80.32988
1069.938, 79.52840
1070.420, 79.05004
1070.902, 78.45003
1071.384, 77.46859
1071.866, 76.41704
1072.349, 75.51061
1072.831, 74.53646
1073.313, 73.09328
1073.795, 71.52168
1074.277, 70.54173
1074.759, 70.23159
1075.241, 69.72878
1075.723, 68.36568
1076.206, 67.16036
1076.688, 66.91093
1077.170, 66.72189
1077.652, 65.67912
1078.134, 64.26707
1078.616, 63.37648
1079.098, 63.08841
1079.580, 62.78469
1080.062, 62.17882
1080.545, 61.59124
1081.027, 61.19450
1081.509, 60.85162
1081.991, 60.50852
1082.473, 60.12141
1082.955, 59.65165
1083.437, 59.08990
1083.919, 58.40640
1084.401, 57.49576
1084.884, 56.70781
1085.366, 56.31152
1085.848, 55.97911
1086.330, 55.44269
1086.812, 55.12504
1087.294, 54.53247
1087.776, 54.37418
1088.258, 54.12813
1088.740, 53.73975
1089.223, 53.15042
1089.705, 52.10022
1090.187, 51.10997
1090.669, 50.51988
1091.151, 50.12312
1091.633, 49.82449
1092.115, 49.49967
1092.597, 48.87957
1093.080, 47.86122
1093.562, 46.83629
1094.044, 45.78827
1094.526, 44.97162
1095.008, 44.71575
1095.490, 44.57124
1095.972, 44.13929
1096.454, 43.50795
1096.937, 42.93190
1097.419, 42.46219
1097.901, 41.90623
1098.383, 41.09746
1098.865, 40.33917
1099.347, 39.81553
1099.829, 39.29607
1100.311, 38.50639
1100.793, 37.66198
1101.276, 37.24403
1101.758, 37.24664
1102.240, 36.79361
1102.722, 35.07679
1103.204, 33.77928
1103.686, 33.56572
1104.168, 33.56353
1104.650, 33.34164
1105.132, 33.02254
1105.615, 32.85894
1106.097, 32.79454
1106.579, 32.39819
1107.061, 31.28499
1107.543, 30.52823
1108.025, 30.78537
1108.507, 30.80778
1108.989, 29.80826
1109.472, 28.60257
1109.954, 27.99006
1110.436, 27.82129
1110.918, 27.50554
1111.400, 26.91688
1111.882, 26.47411
1112.364, 26.44819
1112.846, 26.24030
1113.328, 25.44093
1113.811, 24.67892
1114.293, 24.47794
1114.775, 24.58892
1115.257, 24.48627
1115.739, 24.12048
1116.221, 23.92296
1116.703, 24.02487
1117.185, 24.07603
1117.667, 24.05666
1118.150, 23.94924
1118.632, 23.70928
1119.114, 23.40695
1119.596, 23.13044
1120.078, 22.88031
1120.560, 22.65381
1121.042, 22.53391
1121.524, 22.22648
1122.007, 21.65349
1122.489, 20.99313
1122.971, 20.12931
1123.453, 19.52375
1123.935, 19.73659
1124.417, 20.52245
1124.899, 20.97256
1125.381, 21.05386
1125.864, 20.92867
1126.346, 20.53218
1126.828, 20.17633
1127.310, 19.95075
1127.792, 19.73923
1128.274, 19.44004
1128.756, 19.14876
1129.238, 19.09333
1129.720, 19.26251
1130.203, 19.14599
1130.685, 18.71132
1131.167, 18.35665
1131.649, 18.14415
1132.131, 18.03422
1132.613, 18.00844
1133.095, 18.07730
1133.577, 18.28021
1134.059, 18.55797
1134.542, 18.66932
1135.024, 18.62886
1135.506, 18.64385
1135.988, 18.71880
1136.470, 18.57261
1136.952, 18.11470
1137.434, 17.67733
1137.916, 17.54831
1138.399, 17.57483
1138.881, 17.38443
1139.363, 17.12435
1139.845, 17.47218
1140.327, 18.23837
1140.809, 18.46061
1141.291, 18.02265
1141.773, 17.59228
1142.255, 17.53345
1142.738, 17.57745
1143.220, 17.33400
1143.702, 17.44355
1144.184, 17.17532
1144.666, 17.53947
1145.148, 17.80538
1145.630, 17.88132
1146.112, 17.59785
1146.594, 16.93690
1147.077, 16.27972
1147.559, 15.81984
1148.041, 15.63063
1148.523, 15.99904
1149.005, 16.50044
1149.487, 16.67905
1149.969, 16.57877
1150.451, 16.23313
1150.934, 15.75173
1151.416, 15.51153
1151.898, 15.72741
1152.380, 15.95754
1152.862, 15.98494
1153.344, 15.89893
1153.826, 15.54572
1154.308, 15.28213
1154.791, 15.60228
1155.273, 16.29740
1155.755, 16.89411
1156.237, 17.31813
1156.719, 17.25255
1157.201, 16.01427
1157.683, 15.11940
1158.165, 15.18739
1158.647, 15.54412
1159.130, 15.90896
1159.612, 16.22499
1160.094, 16.43258
1160.576, 16.53930
1161.058, 16.62304
1161.540, 16.72134
1162.022, 16.73332
1162.504, 16.64425
1162.986, 16.48064
1163.469, 16.08362
1163.951, 15.83525
1164.433, 16.11915
1164.915, 16.70269
1165.397, 17.05158
1165.879, 17.14944
1166.361, 17.15612
1166.843, 17.01622
1167.325, 17.00835
1167.808, 17.22249
1168.290, 17.38711
1168.772, 17.36056
1169.254, 17.24914
1169.736, 17.15599
1170.218, 17.11323
1170.700, 17.32213
1171.182, 17.76977
1171.665, 17.86218
1172.147, 17.57986
1172.629, 17.31523
1173.111, 17.17989
1173.593, 17.31903
1174.075, 17.85933
1174.557, 18.49914
1175.039, 18.79444
1175.521, 18.81955
1176.004, 18.64675
1176.486, 18.41172
1176.968, 18.67631
1177.450, 19.33684
1177.932, 19.58090
1178.414, 19.15187
1178.896, 18.74355
1179.378, 18.94784
1179.860, 19.32831
1180.343, 19.54756
1180.825, 19.54177
1181.307, 18.93061
1181.789, 18.17919
1182.271, 18.27557
1182.753, 19.11546
1183.235, 19.64120
1183.717, 19.41837
1184.200, 19.08192
1184.682, 18.82787
1185.164, 18.72389
1185.646, 18.94999
1186.128, 19.21038
1186.610, 19.17623
1187.092, 19.01676
1187.574, 19.13097
1188.057, 19.54427
1188.539, 19.72849
1189.021, 19.28607
1189.503, 19.10845
1189.985, 19.66154
1190.467, 20.00523
1190.949, 19.61978
1191.431, 19.08979
1191.913, 18.84827
1192.396, 18.88402
1192.878, 19.23091
1193.360, 19.97838
1193.842, 20.26634
1194.324, 19.92722
1194.806, 19.77688
1195.288, 20.00525
1195.770, 20.13746
1196.252, 19.90627
1196.735, 19.62974
1197.217, 19.69375
1197.699, 19.97986
1198.181, 20.12011
1198.663, 20.12552
1199.145, 20.04972
1199.627, 19.92430
1200.109, 20.05521
1200.592, 20.47036
1201.074, 20.65846
1201.556, 20.30776
1202.038, 19.92222
1202.520, 20.24120
1203.002, 19.97902
1203.484, 20.59047
1203.966, 20.10306
1204.448, 20.04786
1204.931, 20.35976
1205.413, 20.76208
1205.895, 21.12284
1206.377, 21.17320
1206.859, 20.66301
1207.341, 20.15838
1207.823, 19.83665
1208.305, 19.84621
1208.787, 20.68957
1209.270, 21.58698
1209.752, 21.67164
1210.234, 21.14572
1210.716, 20.56927
1211.198, 20.00484
1211.680, 19.72377
1212.162, 19.97334
1212.644, 20.18326
1213.127, 20.36031
1213.609, 20.36703
1214.091, 20.02404
1214.573, 19.63108
1215.055, 19.41403
1215.537, 19.41805
1216.019, 19.89946
1216.501, 19.62997
1216.984, 19.44228
1217.466, 19.66242
1217.948, 19.51542
1218.430, 19.17406
1218.912, 19.51507
1219.394, 19.50324
1219.876, 19.34261
1220.358, 19.25203
1220.840, 19.19080
1221.323, 19.03591
1221.805, 18.97479
1222.287, 18.76470
1222.769, 18.79558
1223.251, 18.75938
1223.733, 18.65845
1224.215, 18.71942
1224.697, 19.05100
1225.179, 19.30648
1225.662, 19.01452
1226.144, 18.71740
1226.626, 19.16611
1227.108, 19.64018
1227.590, 19.12203
1228.072, 18.20162
1228.554, 17.98932
1229.036, 18.48601
1229.519, 18.81255
1230.001, 18.74445
1230.483, 18.50386
1230.965, 17.87724
1231.447, 17.44984
1231.929, 17.54962
1232.411, 17.74417
1232.893, 17.75615
1233.375, 17.71154
1233.858, 17.82169
1234.340, 17.73930
1234.822, 18.03642
1235.304, 17.68820
1235.786, 17.53420
1236.268, 17.59915
1236.750, 17.88730
1237.232, 18.45024
1237.714, 18.69162
1238.197, 18.19074
1238.679, 17.49632
1239.161, 17.39530
1239.643, 17.66980
1240.125, 17.76078
1240.607, 17.72186
1241.089, 17.66929
1241.571, 17.64468
1242.054, 17.84991
1242.536, 18.22600
1243.018, 18.16159
1243.500, 17.25902
1243.982, 16.43520
1244.464, 16.51614
1244.946, 16.77584
1245.428, 16.68756
1245.910, 16.48231
1246.393, 16.31676
1246.875, 16.25342
1247.357, 16.44616
1247.839, 16.85714
1248.321, 17.01281
1248.803, 16.55840
1249.285, 16.46942
1249.767, 17.06323
1250.250, 17.61053
1250.732, 18.06656
1251.214, 18.19645
1251.696, 17.67883
1252.178, 17.07198
1252.660, 17.27101
1253.142, 18.07817
1253.624, 18.39349
1254.106, 18.22581
1254.589, 17.89951
1255.071, 17.45910
1255.553, 17.31992
1256.035, 17.54967
1256.517, 17.66001
1256.999, 17.36469
1257.481, 17.16854
1257.963, 17.82892
1258.445, 17.66613
1258.928, 18.56996
1259.410, 18.17364
1259.892, 18.35389
1260.374, 18.87343
1260.856, 19.12990
1261.338, 19.11521
1261.820, 19.33250
1262.302, 20.04203
1262.785, 20.41103
1263.267, 19.95599
1263.749, 19.44017
1264.231, 18.82149
1264.713, 18.54209
1265.195, 19.01294
1265.677, 19.79884
1266.159, 20.47935
1266.641, 21.03654
1267.124, 21.33445
1267.606, 21.28545
1268.088, 21.79302
1268.570, 22.95640
1269.052, 23.53994
1269.534, 23.32740
1270.016, 22.81221
1270.498, 22.20942
1270.980, 21.75492
1271.463, 21.65659
1271.945, 21.88369
1272.427, 22.64589
1272.909, 23.52127
1273.391, 23.56656
1273.873, 24.24128
1274.355, 23.72643
1274.837, 24.73007
1275.320, 25.19546
1275.802, 24.86680
1276.284, 24.67632
1276.766, 25.15958
1277.248, 25.58082
1277.730, 25.72114
1278.212, 25.71879
1278.694, 25.34057
1279.177, 25.14779
1279.659, 25.70869
1280.141, 26.69182
1280.623, 27.54433
1281.105, 28.25462
1281.587, 28.46065
1282.069, 29.02925
1282.551, 29.50407
1283.033, 29.49835
1283.516, 30.22365
1283.998, 30.14093
1284.480, 29.96052
1284.962, 30.11979
1285.444, 30.48887
1285.926, 30.94101
1286.408, 31.47938
##END=



