##NAMES=Elbaite
##RRUFFID=R050119
##IDEAL CHEMISTRY=Na(Al_1.5_Li_1.5_)Al_6_(Si_6_O_18_)(BO_3_)_3_(OH)_3_OH
##LOCALITY=Cruziero mine, San Jose, Minas Gerais, Brazil
##OWNER=RRUFF
##SOURCE=Carlos and Paulo Vasconcelos
##DESCRIPTION=Red fragment
##STATUS=The identification of this mineral has been confirmed by X-ray diffraction and chemical analysis
##URL=rruff.info/R050119
##MEASURED CHEMISTRY=(Na_0.90_Ca_0.10_)(Al_0.56_Li_0.38_Mn_0.06_)_3_Al_6_(BO_3_)_3_(Si_0.89_B_0.11_)_6_O_18_(OH)_4_
91.72394, 0.0000000E+00
92.20605, 100.7450
92.68817, 102.0661
93.17029, 103.3427
93.65240, 103.3445
94.13452, 102.6599
94.61664, 100.9905
95.09875, 98.21152
95.58087, 94.95620
96.06299, 92.77123
96.54510, 92.74374
97.02721, 92.16938
97.50933, 90.23489
97.99145, 87.62885
98.47356, 85.33315
98.95568, 84.02387
99.43780, 83.59261
99.91991, 82.40359
100.4020, 79.88207
100.8841, 77.37088
101.3663, 75.17313
101.8484, 73.37879
102.3305, 72.14518
102.8126, 71.71597
103.2947, 72.34730
103.7768, 72.71076
104.2590, 72.74128
104.7411, 72.53624
105.2232, 72.19028
105.7053, 71.72122
106.1874, 71.10613
106.6695, 70.10289
107.1517, 68.71526
107.6338, 67.71022
108.1159, 67.77180
108.5980, 68.64594
109.0801, 68.98400
109.5622, 68.01939
110.0444, 66.77575
110.5265, 66.14816
111.0086, 66.21818
111.4907, 66.43594
111.9728, 66.06133
112.4549, 64.78575
112.9371, 64.00430
113.4192, 64.30211
113.9013, 64.95200
114.3834, 65.47823
114.8655, 65.69542
115.3476, 65.69601
115.8298, 65.72083
116.3119, 65.82243
116.7940, 65.88209
117.2761, 65.77783
117.7582, 65.64915
118.2403, 65.67982
118.7225, 65.98486
119.2046, 66.54333
119.6867, 67.11691
120.1688, 67.61256
120.6509, 68.20703
121.1330, 69.08263
121.6152, 70.15431
122.0973, 71.12823
122.5794, 71.78291
123.0615, 72.07919
123.5436, 72.22903
124.0257, 72.18315
124.5079, 72.01881
124.9900, 71.70515
125.4721, 71.18895
125.9542, 70.83885
126.4363, 71.24763
126.9184, 72.12718
127.4006, 72.80569
127.8827, 72.73759
128.3648, 72.23885
128.8469, 72.34997
129.3290, 73.59504
129.8111, 74.85926
130.2932, 75.45956
130.7754, 75.50185
131.2575, 75.37963
131.7396, 75.42402
132.2217, 75.66924
132.7038, 75.77332
133.1859, 75.49281
133.6681, 75.24400
134.1502, 75.23673
134.6323, 75.47697
135.1144, 75.81065
135.5965, 76.08614
136.0786, 76.51193
136.5608, 76.38760
137.0429, 75.28860
137.5250, 73.99915
138.0071, 73.13258
138.4892, 72.86597
138.9713, 72.92496
139.4535, 72.74828
139.9356, 72.01804
140.4177, 71.48560
140.8998, 71.40186
141.3819, 71.49027
141.8640, 71.31621
142.3462, 70.64285
142.8283, 69.71995
143.3104, 69.28828
143.7925, 69.53690
144.2746, 69.81802
144.7567, 69.89985
145.2388, 69.80340
145.7210, 69.58852
146.2031, 69.14405
146.6852, 68.69720
147.1673, 68.66985
147.6494, 69.29651
148.1315, 70.02305
148.6137, 70.28340
149.0958, 70.01028
149.5779, 69.74860
150.0600, 69.80516
150.5421, 69.99474
151.0242, 70.14990
151.5064, 70.19923
151.9885, 70.20641
152.4706, 70.32639
152.9527, 70.68832
153.4348, 70.91145
153.9169, 70.95345
154.3991, 70.80147
154.8812, 70.40198
155.3633, 69.68532
155.8454, 68.72285
156.3275, 67.95686
156.8096, 67.50450
157.2918, 67.16043
157.7739, 66.92947
158.2560, 66.77374
158.7381, 66.64395
159.2202, 66.50410
159.7023, 66.35352
160.1845, 66.21636
160.6666, 66.16811
161.1487, 66.06113
161.6308, 65.68820
162.1129, 65.16008
162.5950, 64.83370
163.0772, 65.04764
163.5593, 65.88927
164.0414, 66.67523
164.5235, 67.45339
165.0056, 68.14748
165.4877, 68.72720
165.9698, 69.18616
166.4520, 69.46629
166.9341, 69.38232
167.4162, 68.94067
167.8983, 68.86710
168.3804, 69.42075
168.8625, 70.31145
169.3447, 71.23122
169.8268, 72.16324
170.3089, 73.02459
170.7910, 73.67850
171.2731, 74.17332
171.7552, 74.66723
172.2374, 75.20824
172.7195, 75.79157
173.2016, 76.41271
173.6837, 77.10195
174.1658, 77.77963
174.6479, 78.51069
175.1301, 79.23292
175.6122, 79.70528
176.0943, 79.72194
176.5764, 79.29594
177.0585, 78.71385
177.5406, 77.82258
178.0228, 76.92301
178.5049, 76.16235
178.9870, 75.53043
179.4691, 74.95068
179.9512, 74.40079
180.4333, 73.94051
180.9155, 73.21729
181.3976, 71.71272
181.8797, 70.36582
182.3618, 69.64908
182.8439, 69.57742
183.3260, 69.85950
183.8082, 70.16001
184.2903, 70.49566
184.7724, 70.80514
185.2545, 71.03933
185.7366, 71.28770
186.2187, 71.57662
186.7009, 71.92390
187.1830, 72.36740
187.6651, 72.95928
188.1472, 73.74712
188.6293, 74.62351
189.1114, 75.66448
189.5936, 76.74130
190.0757, 77.73322
190.5578, 78.60481
191.0399, 79.42604
191.5220, 80.28955
192.0041, 81.15296
192.4863, 82.17760
192.9684, 83.59828
193.4505, 85.11477
193.9326, 86.29055
194.4147, 86.95506
194.8968, 87.43962
195.3790, 88.29998
195.8611, 89.52737
196.3432, 90.85982
196.8253, 92.29739
197.3074, 93.78429
197.7895, 95.16735
198.2717, 96.32577
198.7538, 97.51576
199.2359, 99.15385
199.7180, 101.2639
200.2001, 103.2221
200.6822, 104.4449
201.1644, 105.1463
201.6465, 106.4066
202.1286, 108.8141
202.6107, 111.4966
203.0928, 113.6366
203.5749, 115.2380
204.0571, 116.6544
204.5392, 117.9240
205.0213, 119.0588
205.5034, 120.8799
205.9855, 124.2938
206.4676, 127.8123
206.9497, 130.3973
207.4319, 132.0429
207.9140, 133.5656
208.3961, 135.7684
208.8782, 138.7403
209.3603, 141.8349
209.8424, 144.8547
210.3246, 148.1011
210.8067, 151.7018
211.2888, 155.6809
211.7709, 160.0080
212.2530, 164.7508
212.7351, 170.0884
213.2173, 175.1796
213.6994, 179.4789
214.1815, 183.9348
214.6636, 189.1227
215.1457, 195.0816
215.6278, 201.5025
216.1100, 207.9787
216.5921, 214.4455
217.0742, 221.1770
217.5563, 228.5283
218.0384, 235.8421
218.5205, 242.8921
219.0027, 249.5428
219.4848, 255.7199
219.9669, 261.3064
220.4490, 266.3930
220.9311, 270.4111
221.4132, 273.9102
221.8954, 276.1529
222.3775, 276.5411
222.8596, 274.9962
223.3417, 271.9032
223.8238, 267.6377
224.3059, 261.6626
224.7881, 255.8008
225.2702, 250.2257
225.7523, 244.6507
226.2344, 238.7225
226.7165, 232.3854
227.1986, 226.1387
227.6807, 220.6252
228.1629, 216.0347
228.6450, 211.4095
229.1271, 206.3587
229.6092, 201.4226
230.0913, 197.3104
230.5734, 194.1671
231.0556, 191.3855
231.5377, 188.2056
232.0198, 184.6334
232.5019, 181.7684
232.9840, 180.1418
233.4661, 179.1746
233.9483, 178.1935
234.4304, 177.1033
234.9125, 176.0456
235.3946, 175.0519
235.8767, 174.1578
236.3588, 173.6623
236.8410, 173.6799
237.3231, 174.1285
237.8052, 174.9797
238.2873, 176.3346
238.7694, 177.7466
239.2515, 178.8568
239.7337, 179.7563
240.2158, 180.6295
240.6979, 181.6563
241.1800, 182.6698
241.6621, 183.2593
242.1442, 183.2315
242.6264, 183.3049
243.1085, 184.2194
243.5906, 185.5123
244.0727, 186.4133
244.5548, 186.5175
245.0369, 186.0721
245.5191, 185.6257
246.0012, 185.2891
246.4833, 184.6711
246.9654, 183.4164
247.4475, 181.8373
247.9296, 180.3789
248.4117, 179.3599
248.8939, 178.4483
249.3760, 176.8027
249.8581, 174.0963
250.3402, 171.3277
250.8223, 168.6377
251.3044, 166.1640
251.7866, 164.1647
252.2687, 162.8362
252.7508, 161.8203
253.2329, 160.2330
253.7150, 157.7260
254.1971, 155.3662
254.6793, 153.2332
255.1614, 151.4259
255.6435, 150.1147
256.1256, 149.3957
256.6077, 148.9958
257.0898, 148.3332
257.5720, 147.2779
258.0541, 146.2038
258.5362, 144.9569
259.0183, 143.8319
259.5004, 143.1273
259.9825, 142.9408
260.4647, 143.0447
260.9468, 143.0252
261.4289, 142.8487
261.9110, 142.6010
262.3931, 142.2634
262.8752, 141.8872
263.3574, 141.3960
263.8395, 140.8104
264.3216, 140.3902
264.8037, 140.6502
265.2858, 142.3031
265.7679, 143.1785
266.2501, 142.9583
266.7322, 142.3119
267.2143, 141.5113
267.6964, 140.6962
268.1785, 140.0629
268.6606, 139.9276
269.1428, 140.6128
269.6249, 140.9534
270.1070, 141.2179
270.5891, 141.0149
271.0712, 139.8981
271.5533, 137.9526
272.0355, 135.7548
272.5176, 133.9091
272.9997, 132.4499
273.4818, 131.2910
273.9639, 130.9805
274.4460, 130.4426
274.9282, 128.9141
275.4103, 126.5448
275.8924, 124.0910
276.3745, 122.2179
276.8566, 120.9607
277.3387, 119.9883
277.8208, 119.7293
278.3029, 119.2786
278.7851, 118.1412
279.2672, 116.4465
279.7493, 114.6492
280.2314, 113.0760
280.7135, 111.7220
281.1956, 110.3481
281.6778, 108.9351
282.1599, 107.5231
282.6420, 106.0434
283.1241, 104.5726
283.6062, 103.2859
284.0883, 102.3057
284.5705, 101.5696
285.0526, 100.7558
285.5347, 99.77537
286.0168, 98.82809
286.4989, 98.00622
286.9810, 97.24181
287.4632, 96.41269
287.9453, 95.45534
288.4274, 94.41753
288.9095, 93.41797
289.3916, 92.41735
289.8737, 91.51025
290.3559, 90.83266
290.8380, 90.22649
291.3201, 89.46176
291.8022, 88.45261
292.2843, 87.33172
292.7664, 86.31626
293.2486, 85.42408
293.7307, 84.60897
294.2128, 83.85301
294.6949, 83.17928
295.1770, 82.67330
295.6591, 82.34972
296.1413, 82.01413
296.6234, 81.37634
297.1055, 80.29890
297.5876, 79.50327
298.0697, 79.18468
298.5518, 79.05080
299.0340, 78.83300
299.5161, 78.50739
299.9982, 78.24940
300.4803, 78.23159
300.9624, 78.48494
301.4445, 78.75326
301.9267, 79.14297
302.4088, 79.45995
302.8909, 79.49564
303.3730, 79.29414
303.8551, 79.14548
304.3372, 79.23547
304.8194, 79.56999
305.3015, 80.06056
305.7836, 80.70107
306.2657, 81.48421
306.7478, 82.51421
307.2299, 83.70340
307.7121, 84.78929
308.1942, 85.62012
308.6763, 86.26865
309.1584, 86.96511
309.6405, 87.61574
310.1227, 88.43494
310.6048, 89.56942
311.0869, 90.91012
311.5690, 92.30045
312.0511, 93.71744
312.5332, 95.02084
313.0154, 95.84294
313.4975, 96.02476
313.9796, 96.31605
314.4617, 97.05476
314.9438, 97.91123
315.4259, 98.47810
315.9081, 98.65456
316.3902, 98.55018
316.8723, 98.23323
317.3544, 97.65136
317.8365, 97.19625
318.3186, 97.01872
318.8007, 96.90700
319.2828, 96.59443
319.7650, 96.07397
320.2471, 95.66313
320.7292, 95.60757
321.2113, 95.94746
321.6934, 96.59289
322.1755, 98.02036
322.6577, 99.33625
323.1398, 99.80269
323.6219, 99.58711
324.1040, 99.54009
324.5861, 100.2400
325.0682, 101.5085
325.5504, 102.3798
326.0325, 102.5606
326.5146, 102.7410
326.9967, 103.1984
327.4788, 103.8285
327.9609, 104.4146
328.4431, 104.8589
328.9252, 105.2267
329.4073, 105.6845
329.8894, 106.3224
330.3715, 106.8447
330.8536, 107.1338
331.3358, 107.2991
331.8179, 107.4522
332.3000, 107.6213
332.7821, 107.8407
333.2642, 108.1708
333.7463, 108.6550
334.2285, 109.0951
334.7106, 109.4991
335.1927, 109.8452
335.6748, 110.0710
336.1569, 110.1896
336.6390, 110.3270
337.1212, 110.5649
337.6033, 110.9126
338.0854, 111.5266
338.5675, 112.4635
339.0496, 113.5813
339.5317, 114.9476
340.0139, 116.4592
340.4960, 117.8457
340.9781, 118.9492
341.4602, 119.8006
341.9423, 120.5219
342.4244, 120.9069
342.9066, 121.4265
343.3887, 122.1131
343.8708, 123.0098
344.3529, 124.2547
344.8350, 125.9033
345.3171, 127.7154
345.7993, 129.2334
346.2814, 130.3086
346.7635, 131.3041
347.2456, 132.2846
347.7277, 133.1400
348.2098, 133.5499
348.6920, 133.5622
349.1741, 133.8479
349.6562, 135.2676
350.1383, 138.2425
350.6204, 140.2114
351.1025, 140.3022
351.5847, 140.3652
352.0668, 141.3985
352.5489, 143.2213
353.0310, 145.1086
353.5131, 146.5391
353.9952, 147.5533
354.4774, 148.5965
354.9595, 149.3469
355.4416, 150.4922
355.9237, 152.2217
356.4058, 154.4061
356.8879, 156.9432
357.3701, 159.7863
357.8522, 162.8024
358.3343, 165.7251
358.8164, 168.6189
359.2985, 171.2922
359.7806, 173.1828
360.2627, 175.2373
360.7448, 178.1990
361.2270, 182.1927
361.7091, 186.7966
362.1912, 191.5429
362.6733, 196.3750
363.1554, 201.6350
363.6375, 207.3105
364.1197, 213.3745
364.6018, 219.6793
365.0839, 226.3872
365.5660, 233.7217
366.0481, 241.8633
366.5302, 250.7855
367.0124, 260.2722
367.4945, 270.0979
367.9766, 280.8947
368.4587, 293.3474
368.9408, 306.5207
369.4229, 319.4524
369.9051, 331.6938
370.3872, 343.3514
370.8693, 354.8352
371.3514, 366.7140
371.8335, 376.8045
372.3156, 385.2797
372.7978, 391.7607
373.2799, 396.3932
373.7620, 398.9541
374.2441, 398.6304
374.7262, 393.8335
375.2083, 384.3770
375.6905, 375.1686
376.1726, 367.5194
376.6547, 358.4895
377.1368, 346.1479
377.6189, 331.5692
378.1010, 317.1081
378.5832, 303.8799
379.0653, 291.6794
379.5474, 279.9038
380.0295, 268.5300
380.5116, 257.6662
380.9937, 247.1010
381.4759, 237.1575
381.9580, 228.2151
382.4401, 220.3807
382.9222, 213.4521
383.4043, 207.4730
383.8864, 202.4236
384.3686, 197.4487
384.8507, 192.2719
385.3328, 187.2388
385.8149, 182.5136
386.2970, 178.1330
386.7791, 174.1194
387.2613, 170.5182
387.7434, 167.3302
388.2255, 164.5334
388.7076, 162.1348
389.1897, 160.1376
389.6718, 158.8005
390.1540, 157.8521
390.6361, 156.7427
391.1182, 155.1030
391.6003, 153.5401
392.0824, 152.6624
392.5645, 152.4099
393.0467, 152.2983
393.5288, 152.1887
394.0109, 152.0530
394.4930, 151.7773
394.9751, 151.2470
395.4572, 151.0059
395.9394, 151.4158
396.4215, 152.2137
396.9036, 152.9515
397.3857, 153.5359
397.8678, 154.1377
398.3499, 154.9812
398.8321, 156.0833
399.3142, 157.0307
399.7963, 157.6942
400.2784, 158.2957
400.7605, 158.9841
401.2426, 159.7513
401.7247, 160.5523
402.2068, 161.3922
402.6890, 162.2143
403.1711, 162.7350
403.6532, 162.8557
404.1353, 162.8499
404.6174, 162.6860
405.0995, 162.4516
405.5817, 162.2804
406.0638, 162.2070
406.5459, 162.1250
407.0280, 161.9112
407.5101, 161.6451
407.9922, 160.9412
408.4744, 159.7847
408.9565, 158.2746
409.4386, 156.4107
409.9207, 154.2318
410.4028, 151.7737
410.8849, 148.9921
411.3671, 145.9710
411.8492, 143.2818
412.3313, 141.4192
412.8134, 139.2828
413.2955, 136.6219
413.7776, 133.6684
414.2598, 130.6152
414.7419, 127.5385
415.2240, 124.4992
415.7061, 121.6375
416.1882, 119.0468
416.6703, 116.2565
417.1525, 113.0019
417.6346, 109.7644
418.1167, 106.7154
418.5988, 103.8613
419.0809, 101.2133
419.5630, 98.78039
420.0452, 96.54510
420.5273, 94.37248
421.0094, 92.22285
421.4915, 90.25285
421.9736, 88.68818
422.4557, 87.26147
422.9379, 85.66497
423.4200, 83.79082
423.9021, 81.89876
424.3842, 80.19950
424.8663, 78.70066
425.3484, 77.54202
425.8306, 76.95039
426.3127, 76.46457
426.7948, 75.63235
427.2769, 74.50571
427.7590, 73.40898
428.2411, 72.42809
428.7233, 71.57690
429.2054, 70.91763
429.6875, 70.45728
430.1696, 70.03498
430.6517, 69.53094
431.1339, 69.00717
431.6160, 68.63482
432.0981, 68.48161
432.5802, 68.37322
433.0623, 68.23224
433.5444, 68.07380
434.0266, 67.94737
434.5087, 67.87797
434.9908, 67.77511
435.4729, 67.45630
435.9550, 66.79967
436.4371, 66.54020
436.9193, 67.10464
437.4014, 67.74854
437.8835, 68.03736
438.3656, 67.94286
438.8477, 67.51548
439.3298, 66.74751
439.8120, 65.72430
440.2941, 64.92414
440.7762, 64.19413
441.2583, 63.88924
441.7404, 64.40884
442.2225, 65.18641
442.7046, 65.66044
443.1867, 65.68749
443.6689, 65.49019
444.1510, 65.35304
444.6331, 65.31573
445.1152, 65.13599
445.5973, 64.64276
446.0794, 64.17608
446.5616, 63.87886
447.0437, 63.69482
447.5258, 63.51818
448.0079, 63.30804
448.4900, 63.02688
448.9721, 62.49761
449.4543, 61.50397
449.9364, 60.89069
450.4185, 61.35826
450.9006, 61.93640
451.3827, 61.87872
451.8648, 61.13438
452.3470, 60.30791
452.8291, 59.92548
453.3112, 59.87085
453.7933, 59.60421
454.2754, 58.98516
454.7575, 58.42532
455.2397, 58.22289
455.7218, 58.26226
456.2039, 58.40454
456.6860, 58.76727
457.1681, 59.01210
457.6502, 58.76286
458.1324, 58.11969
458.6145, 57.50317
459.0966, 57.00064
459.5787, 56.67863
460.0608, 56.73726
460.5429, 57.21342
461.0251, 57.53732
461.5072, 57.45435
461.9893, 57.28297
462.4714, 57.37388
462.9535, 57.69310
463.4356, 57.89359
463.9178, 57.72297
464.3999, 57.25690
464.8820, 56.90604
465.3641, 56.75448
465.8462, 56.60126
466.3283, 56.27629
466.8105, 56.00614
467.2926, 56.12706
467.7747, 56.67188
468.2568, 57.27436
468.7389, 57.48951
469.2210, 57.25328
469.7032, 57.06034
470.1853, 57.03159
470.6674, 56.91895
471.1495, 56.49442
471.6316, 55.96969
472.1137, 55.70632
472.5959, 55.88829
473.0780, 56.31252
473.5601, 56.58881
474.0422, 56.66543
474.5243, 56.81622
475.0064, 57.18018
475.4886, 57.55843
475.9707, 57.82288
476.4528, 57.98200
476.9349, 58.13091
477.4170, 58.32201
477.8991, 58.54297
478.3813, 58.78319
478.8634, 59.05218
479.3455, 59.27584
479.8276, 59.40308
480.3097, 59.46391
480.7918, 59.49345
481.2740, 59.44377
481.7561, 59.50378
482.2382, 59.93902
482.7203, 60.51017
483.2024, 60.62457
483.6845, 60.13622
484.1666, 59.81557
484.6487, 60.52031
485.1309, 62.29163
485.6130, 63.44891
486.0951, 63.60370
486.5772, 63.59858
487.0593, 63.66782
487.5414, 63.85134
488.0236, 64.23383
488.5057, 64.84882
488.9878, 65.52888
489.4699, 65.95201
489.9520, 65.91621
490.4341, 66.13132
490.9163, 66.78545
491.3984, 67.47041
491.8805, 68.00967
492.3626, 68.40447
492.8447, 68.67332
493.3268, 68.78109
493.8090, 68.86972
494.2911, 69.44382
494.7732, 70.79595
495.2553, 71.83440
495.7374, 72.11268
496.2195, 72.11176
496.7017, 71.97990
497.1838, 71.79601
497.6659, 71.93654
498.1480, 72.91866
498.6301, 74.40829
499.1122, 75.41170
499.5944, 75.79012
500.0765, 76.18472
500.5586, 77.01559
501.0407, 78.10014
501.5228, 79.05962
502.0049, 79.88354
502.4871, 80.56718
502.9692, 81.00173
503.4513, 81.32539
503.9334, 81.77993
504.4155, 82.41614
504.8976, 83.21557
505.3798, 84.22991
505.8619, 85.49245
506.3440, 86.31005
506.8261, 86.35719
507.3082, 86.37547
507.7903, 86.58286
508.2725, 86.95405
508.7546, 87.44885
509.2367, 88.04819
509.7188, 88.70834
510.2009, 89.43353
510.6830, 90.44748
511.1652, 90.76907
511.6473, 89.41553
512.1294, 88.34180
512.6115, 88.62270
513.0936, 89.72060
513.5757, 90.49733
514.0579, 90.35046
514.5400, 89.66940
515.0221, 89.15503
515.5042, 88.83773
515.9863, 88.43457
516.4684, 87.81367
516.9506, 87.14766
517.4327, 86.61279
517.9148, 86.18685
518.3969, 85.69743
518.8790, 85.07487
519.3611, 84.34486
519.8433, 83.52227
520.3254, 82.61153
520.8075, 81.67138
521.2896, 80.75779
521.7717, 79.79749
522.2538, 78.56721
522.7360, 76.84829
523.2181, 75.50022
523.7002, 74.82998
524.1823, 74.47976
524.6644, 74.23466
525.1465, 74.02805
525.6287, 73.77454
526.1108, 73.41240
526.5929, 72.95569
527.0750, 72.46073
527.5571, 71.84109
528.0392, 71.31724
528.5214, 71.00551
529.0035, 70.72298
529.4856, 70.20313
529.9677, 69.49268
530.4498, 69.01161
530.9319, 69.25594
531.4141, 70.07166
531.8962, 70.45963
532.3783, 70.17640
532.8604, 70.02725
533.3425, 70.56555
533.8246, 71.31586
534.3068, 71.80401
534.7889, 71.94406
535.2710, 71.93466
535.7531, 71.92033
536.2352, 71.84745
536.7173, 71.59377
537.1995, 71.14027
537.6816, 70.53817
538.1637, 69.75246
538.6458, 68.84716
539.1279, 68.20575
539.6100, 67.85995
540.0922, 67.70895
540.5743, 67.92899
541.0564, 68.23351
541.5385, 68.26456
542.0206, 67.95354
542.5027, 67.46085
542.9849, 66.94749
543.4670, 66.41456
543.9491, 65.80741
544.4312, 64.93085
544.9133, 64.22349
545.3954, 63.98254
545.8775, 63.85112
546.3596, 63.32880
546.8417, 62.31622
547.3239, 61.35381
547.8060, 61.13274
548.2881, 61.57958
548.7702, 61.84546
549.2523, 61.85760
549.7344, 61.76048
550.2166, 61.59435
550.6987, 61.38616
551.1808, 61.16335
551.6629, 60.90672
552.1450, 60.69326
552.6271, 60.71926
553.1093, 60.79516
553.5914, 60.45273
554.0735, 59.59027
554.5556, 58.63992
555.0377, 57.96987
555.5198, 57.57843
556.0020, 57.34539
556.4841, 57.38096
556.9662, 57.41594
557.4483, 57.48284
557.9304, 57.46163
558.4125, 57.13305
558.8947, 56.48248
559.3768, 55.81387
559.8589, 55.48846
560.3410, 55.51731
560.8231, 55.43738
561.3052, 55.14954
561.7874, 54.89647
562.2695, 54.75279
562.7516, 54.68153
563.2337, 54.66713
563.7158, 54.71228
564.1979, 54.70620
564.6801, 54.54228
565.1622, 54.25003
565.6443, 53.87998
566.1264, 53.39717
566.6085, 53.04836
567.0906, 53.06686
567.5728, 53.35395
568.0549, 53.50364
568.5370, 53.49335
569.0191, 53.38401
569.5012, 53.21120
569.9833, 52.94319
570.4655, 52.47371
570.9476, 51.82336
571.4297, 51.19434
571.9118, 50.76667
572.3939, 50.53302
572.8760, 50.42016
573.3582, 50.43465
573.8403, 50.57388
574.3224, 50.94685
574.8045, 51.36681
575.2866, 51.70638
575.7687, 51.93125
576.2509, 52.01692
576.7330, 51.85957
577.2151, 51.54679
577.6972, 51.43168
578.1793, 51.54930
578.6614, 51.71656
579.1436, 51.88473
579.6257, 52.03815
580.1078, 52.18288
580.5899, 52.34158
581.0720, 52.35713
581.5541, 51.89037
582.0363, 51.42300
582.5184, 51.61433
583.0005, 52.40086
583.4826, 53.16898
583.9647, 53.56590
584.4468, 53.67283
584.9290, 53.72340
585.4111, 53.60688
585.8932, 53.61177
586.3753, 53.88970
586.8574, 54.14949
587.3395, 54.19770
587.8217, 54.06526
588.3038, 53.86268
588.7859, 53.62294
589.2680, 53.43711
589.7501, 53.57466
590.2322, 54.10571
590.7144, 54.46570
591.1965, 54.55463
591.6786, 54.40868
592.1607, 53.88741
592.6428, 53.11879
593.1249, 52.71209
593.6071, 53.21688
594.0892, 53.83684
594.5713, 53.84163
595.0534, 53.42450
595.5355, 53.14045
596.0176, 53.17600
596.4998, 53.34009
596.9819, 53.39552
597.4640, 53.32417
597.9461, 53.25365
598.4282, 53.19403
598.9103, 53.12396
599.3925, 53.07714
599.8746, 52.99858
600.3567, 52.74240
600.8388, 52.28849
601.3209, 51.92087
601.8030, 52.09989
602.2852, 52.78917
602.7673, 52.99023
603.2494, 52.36396
603.7315, 51.96666
604.2136, 52.83089
604.6957, 54.05546
605.1779, 54.30891
605.6600, 53.19999
606.1421, 52.18111
606.6242, 52.20416
607.1063, 52.64538
607.5884, 52.57352
608.0706, 51.94503
608.5527, 51.29764
609.0348, 50.97371
609.5169, 50.91018
609.9990, 50.88698
610.4811, 50.85744
610.9633, 50.94759
611.4454, 51.26390
611.9275, 51.60569
612.4096, 51.88132
612.8917, 52.06746
613.3738, 52.12974
613.8560, 52.01704
614.3381, 51.85238
614.8202, 51.92604
615.3023, 52.26908
615.7844, 52.42134
616.2665, 52.14340
616.7487, 51.85898
617.2308, 51.99325
617.7129, 52.44796
618.1950, 52.85793
618.6771, 52.96435
619.1592, 53.19356
619.6414, 53.94803
620.1235, 54.97403
620.6056, 55.78893
621.0877, 56.27134
621.5698, 56.61364
622.0519, 57.00841
622.5341, 57.45766
623.0162, 57.89724
623.4983, 58.13273
623.9804, 58.62099
624.4625, 59.49545
624.9446, 60.61013
625.4268, 61.91508
625.9089, 63.35116
626.3910, 64.71416
626.8730, 65.74899
627.3552, 66.61064
627.8373, 67.67154
628.3194, 68.93577
628.8015, 70.39356
629.2836, 72.12195
629.7657, 73.95972
630.2479, 75.64332
630.7300, 77.14455
631.2121, 78.76411
631.6942, 80.59822
632.1763, 82.52039
632.6584, 84.43539
633.1406, 86.38534
633.6227, 88.52505
634.1048, 90.90000
634.5869, 93.32009
635.0690, 95.54290
635.5511, 97.60873
636.0333, 99.21737
636.5154, 99.90318
636.9975, 100.7627
637.4796, 102.4430
637.9617, 104.3970
638.4438, 105.9797
638.9260, 107.0527
639.4081, 107.7211
639.8902, 108.0153
640.3723, 107.9634
640.8544, 107.5707
641.3365, 106.8472
641.8187, 105.9163
642.3008, 104.7970
642.7829, 103.5989
643.2650, 102.6012
643.7471, 102.0657
644.2292, 101.2279
644.7114, 99.77009
645.1935, 98.31647
645.6756, 97.43148
646.1577, 96.79442
646.6398, 95.57694
647.1219, 93.36464
647.6041, 90.96038
648.0862, 89.68551
648.5683, 89.51571
649.0504, 89.00796
649.5325, 87.92002
650.0146, 86.72608
650.4968, 85.76960
650.9789, 84.91663
651.4610, 83.87136
651.9431, 82.47238
652.4252, 81.19902
652.9073, 80.35274
653.3895, 79.66351
653.8716, 78.90225
654.3537, 78.01322
654.8358, 76.92642
655.3179, 75.58311
655.8000, 74.07206
656.2822, 72.61545
656.7643, 71.19461
657.2464, 69.88782
657.7285, 68.66878
658.2106, 67.60342
658.6927, 66.76025
659.1749, 66.09190
659.6570, 65.55868
660.1391, 65.26649
660.6212, 64.76842
661.1033, 63.38924
661.5854, 61.51183
662.0676, 60.18968
662.5497, 59.60396
663.0318, 59.16151
663.5139, 58.40815
663.9960, 57.43958
664.4781, 56.73633
664.9603, 56.71106
665.4424, 56.37963
665.9245, 55.43501
666.4066, 54.40215
666.8887, 53.63824
667.3708, 53.11228
667.8530, 52.62854
668.3351, 52.08326
668.8172, 51.50970
669.2993, 50.93179
669.7814, 50.35313
670.2635, 49.86146
670.7457, 49.47284
671.2278, 49.17523
671.7099, 49.00011
672.1920, 48.91590
672.6741, 48.78008
673.1563, 48.47918
673.6384, 48.30072
674.1205, 48.45720
674.6026, 48.69138
675.0847, 48.76905
675.5668, 48.66940
676.0490, 48.43274
676.5311, 48.05536
677.0132, 47.67444
677.4953, 47.70832
677.9774, 48.29487
678.4595, 48.62514
678.9417, 48.42033
679.4238, 48.16862
679.9059, 48.18570
680.3880, 48.38589
680.8701, 48.58685
681.3522, 48.76767
681.8344, 48.90887
682.3165, 48.87403
682.7986, 48.84961
683.2807, 49.13031
683.7628, 49.73055
684.2449, 50.47288
684.7271, 51.24669
685.2092, 52.05213
685.6913, 52.88113
686.1734, 53.66162
686.6555, 54.62776
687.1376, 56.08937
687.6198, 57.44307
688.1019, 58.15162
688.5840, 58.58697
689.0661, 59.55062
689.5482, 61.40450
690.0303, 63.48698
690.5125, 65.24332
690.9946, 66.80566
691.4767, 68.39395
691.9588, 70.05355
692.4409, 71.91915
692.9230, 74.11822
693.4052, 76.54355
693.8873, 78.90140
694.3694, 81.04530
694.8515, 83.40080
695.3336, 86.05355
695.8157, 88.80064
696.2979, 91.43845
696.7800, 94.13469
697.2621, 97.25854
697.7442, 100.9833
698.2263, 104.7834
698.7084, 107.8963
699.1906, 110.6510
699.6727, 114.3195
700.1548, 119.0379
700.6369, 123.8343
701.1190, 128.1734
701.6011, 132.2265
702.0833, 136.3702
702.5654, 140.7545
703.0475, 144.8238
703.5296, 148.5021
704.0117, 151.9326
704.4938, 155.3443
704.9760, 158.5067
705.4581, 161.0386
705.9402, 162.8016
706.4223, 164.1200
706.9044, 165.4727
707.3865, 166.6880
707.8687, 166.9126
708.3508, 166.0449
708.8329, 164.7966
709.3149, 163.6250
709.7971, 162.0837
710.2792, 159.2497
710.7613, 154.8821
711.2434, 150.6284
711.7255, 146.5847
712.2076, 142.6596
712.6898, 138.9780
713.1719, 135.3291
713.6540, 131.4089
714.1361, 127.1288
714.6182, 122.7331
715.1003, 118.3564
715.5825, 114.0554
716.0646, 109.9822
716.5467, 106.1560
717.0288, 102.5760
717.5109, 99.31664
717.9930, 96.26131
718.4752, 93.32701
718.9573, 90.51800
719.4394, 87.54619
719.9215, 83.89387
720.4036, 80.65867
720.8857, 78.55263
721.3679, 76.98149
721.8500, 75.19184
722.3321, 73.08901
722.8142, 71.05904
723.2963, 69.39760
723.7784, 68.04688
724.2606, 66.88982
724.7427, 65.93527
725.2248, 65.01305
725.7069, 64.07085
726.1890, 63.18265
726.6711, 62.34353
727.1533, 61.60152
727.6354, 61.22247
728.1175, 61.59255
728.5996, 61.81816
729.0817, 61.52734
729.5638, 61.04784
730.0460, 60.63241
730.5281, 60.33549
731.0102, 60.19056
731.4923, 60.23547
731.9744, 60.33594
732.4565, 60.14484
732.9387, 59.65039
733.4208, 59.61415
733.9029, 60.26589
734.3850, 60.98574
734.8671, 61.38117
735.3492, 61.57910
735.8314, 61.91687
736.3135, 62.46721
736.7956, 62.94256
737.2777, 63.11749
737.7598, 63.35131
738.2419, 63.90015
738.7241, 64.71298
739.2062, 65.71585
739.6883, 66.87449
740.1704, 67.95145
740.6525, 68.47702
741.1346, 68.57308
741.6168, 69.33183
742.0989, 70.86492
742.5810, 72.53072
743.0631, 74.13753
743.5452, 75.67186
744.0273, 77.08857
744.5095, 78.38109
744.9916, 79.70072
745.4737, 81.38205
745.9558, 82.72495
746.4379, 83.00540
746.9200, 83.00272
747.4022, 83.89651
747.8843, 85.71484
748.3664, 87.32344
748.8485, 87.83064
749.3306, 87.50550
749.8127, 86.85264
750.2949, 85.86913
750.7770, 84.99056
751.2591, 84.39967
751.7412, 83.68690
752.2233, 82.45853
752.7054, 80.77624
753.1876, 79.08654
753.6697, 77.37955
754.1518, 75.68468
754.6339, 73.96001
755.1160, 72.27937
755.5981, 70.79113
756.0803, 69.38589
756.5624, 67.77841
757.0445, 65.82387
757.5266, 63.70803
758.0087, 61.52547
758.4908, 59.36284
758.9730, 57.66045
759.4551, 56.46758
759.9372, 55.36961
760.4193, 54.18939
760.9014, 52.90669
761.3835, 51.43518
761.8657, 49.58418
762.3478, 48.18756
762.8299, 47.63177
763.3120, 47.04812
763.7941, 46.02620
764.2762, 44.88169
764.7584, 44.05233
765.2405, 43.57689
765.7226, 43.02475
766.2047, 41.90799
766.6868, 40.68031
767.1689, 40.14822
767.6511, 40.12349
768.1332, 39.73588
768.6153, 38.73829
769.0974, 37.71468
769.5795, 37.23429
770.0616, 37.22765
770.5438, 37.16455
771.0259, 37.07335
771.5080, 36.87071
771.9901, 36.40009
772.4722, 35.96099
772.9543, 35.73872
773.4365, 35.68327
773.9186, 35.67816
774.4007, 35.72793
774.8828, 35.69857
775.3649, 35.46764
775.8470, 35.12275
776.3292, 34.77314
776.8113, 34.42778
777.2934, 34.04342
777.7755, 33.59288
778.2576, 33.18750
778.7397, 33.06792
779.2219, 33.28265
779.7040, 33.15239
780.1861, 32.55280
780.6682, 31.85520
781.1503, 31.00450
781.6324, 30.25692
782.1146, 29.99556
782.5967, 30.19712
783.0788, 30.19260
783.5609, 29.61767
784.0430, 29.02631
784.5251, 28.67071
785.0073, 28.49474
785.4894, 28.46759
785.9715, 28.54678
786.4536, 28.62460
786.9357, 28.63609
787.4178, 28.56762
787.9000, 28.35093
788.3821, 27.98832
788.8642, 27.71745
789.3463, 27.60128
789.8284, 27.46496
790.3105, 27.15972
790.7927, 26.77114
791.2747, 26.53320
791.7568, 26.42486
792.2390, 26.50787
792.7211, 27.10683
793.2032, 27.55665
793.6853, 27.41265
794.1674, 26.96034
794.6495, 26.60043
795.1317, 26.43791
795.6138, 26.37728
796.0959, 26.38239
796.5780, 26.42104
797.0601, 26.45684
797.5422, 26.48124
798.0244, 26.43667
798.5065, 26.30427
798.9886, 26.17244
799.4707, 26.15129
799.9528, 26.19736
800.4349, 25.97986
800.9171, 25.28838
801.3992, 24.75289
801.8813, 24.56695
802.3634, 24.43081
802.8455, 24.17416
803.3276, 23.86287
803.8098, 23.63155
804.2919, 23.49600
804.7740, 23.49053
805.2561, 23.81066
805.7382, 24.13447
806.2203, 24.08317
806.7025, 23.75487
807.1846, 23.41313
807.6667, 23.16690
808.1488, 23.05656
808.6309, 23.18041
809.1130, 23.48383
809.5952, 23.60029
810.0773, 23.49987
810.5594, 23.39915
811.0415, 23.37601
811.5236, 23.33509
812.0057, 23.11979
812.4879, 22.76996
812.9700, 22.68768
813.4521, 23.16239
813.9342, 23.49262
814.4163, 23.48607
814.8984, 23.37262
815.3806, 23.23508
815.8627, 23.14102
816.3448, 23.20462
816.8269, 23.47522
817.3090, 23.81375
817.7911, 24.16578
818.2733, 24.46297
818.7554, 24.53283
819.2375, 24.39779
819.7196, 24.22651
820.2017, 24.07685
820.6838, 24.00077
821.1660, 24.07932
821.6481, 24.30672
822.1302, 24.46942
822.6123, 24.58102
823.0944, 24.59727
823.5765, 24.38194
824.0587, 24.18936
824.5408, 24.25587
825.0229, 24.49476
825.5050, 24.62485
825.9871, 24.55370
826.4692, 24.45687
826.9514, 24.34632
827.4335, 24.28448
827.9156, 24.31274
828.3977, 24.44114
828.8798, 24.74000
829.3619, 25.22564
829.8441, 25.63708
830.3262, 25.56070
830.8083, 25.17019
831.2904, 25.14000
831.7725, 25.46692
832.2546, 25.81245
832.7368, 26.09935
833.2189, 26.25916
833.7010, 26.22958
834.1831, 26.01095
834.6652, 25.57219
835.1473, 24.39882
835.6295, 23.85175
836.1116, 24.49659
836.5937, 25.28942
837.0758, 25.73548
837.5579, 25.88245
838.0400, 25.84852
838.5222, 25.61079
839.0043, 25.47057
839.4864, 25.80192
839.9685, 26.12751
840.4506, 25.80877
840.9327, 25.12686
841.4149, 24.75692
841.8970, 24.89599
842.3791, 25.31521
842.8612, 25.89019
843.3433, 26.47736
843.8254, 26.48174
844.3076, 25.87701
844.7897, 25.53814
845.2718, 25.71386
845.7539, 25.91337
846.2360, 25.71992
846.7181, 25.28981
847.2003, 25.16484
847.6824, 25.49107
848.1645, 25.84533
848.6466, 26.37028
849.1287, 26.76255
849.6108, 26.79805
850.0930, 26.68045
850.5751, 26.69117
851.0572, 26.86676
851.5393, 26.99961
852.0214, 26.96289
852.5035, 26.85995
852.9857, 26.72828
853.4678, 26.61443
853.9499, 26.61547
854.4320, 26.73206
854.9141, 26.87548
855.3962, 26.98661
855.8784, 27.08051
856.3605, 27.21709
856.8426, 27.39171
857.3247, 27.35989
857.8068, 27.03564
858.2889, 26.87166
858.7711, 27.13032
859.2532, 27.59281
859.7353, 27.93429
860.2174, 28.13983
860.6995, 28.32660
861.1816, 28.54040
861.6638, 28.67491
862.1459, 28.59538
862.6280, 28.52437
863.1101, 28.72073
863.5922, 29.08759
864.0743, 29.25847
864.5565, 29.03946
865.0386, 28.81144
865.5207, 28.76618
866.0028, 28.87636
866.4849, 29.28411
866.9670, 29.80959
867.4492, 29.90833
867.9313, 29.40552
868.4134, 28.79459
868.8955, 28.61920
869.3776, 28.78600
869.8597, 29.02335
870.3419, 29.33208
870.8240, 29.36022
871.3061, 28.95480
871.7882, 28.58303
872.2703, 28.67767
872.7524, 29.08556
873.2346, 29.18694
873.7166, 28.66636
874.1987, 28.46724
874.6808, 28.91563
875.1630, 29.32413
875.6451, 29.50852
876.1272, 29.48258
876.6093, 29.20185
877.0914, 28.67146
877.5735, 28.22667
878.0557, 27.98503
878.5378, 27.85836
879.0199, 27.94613
879.5020, 28.02907
879.9841, 27.78484
880.4662, 27.25432
880.9484, 26.72366
881.4305, 26.34107
881.9126, 26.05232
882.3947, 25.75873
882.8768, 25.50381
883.3589, 25.48801
883.8411, 25.69267
884.3232, 25.78817
884.8053, 25.64070
885.2874, 25.37711
885.7695, 25.10907
886.2516, 24.86212
886.7338, 25.01835
887.2159, 25.89040
887.6980, 26.25451
888.1801, 25.69647
888.6622, 24.89549
889.1443, 24.05524
889.6265, 23.35504
890.1086, 23.29466
890.5907, 24.19403
891.0728, 24.72362
891.5549, 24.45695
892.0370, 24.05203
892.5192, 23.72876
893.0013, 23.50379
893.4834, 23.39463
893.9655, 23.38646
894.4476, 23.42014
894.9297, 23.52251
895.4119, 23.55382
895.8940, 23.30597
896.3761, 22.93533
896.8582, 22.69229
897.3403, 22.59314
897.8224, 22.56225
898.3046, 22.56456
898.7867, 22.59755
899.2688, 22.70711
899.7509, 22.55257
900.2330, 22.71176
900.7151, 22.26759
901.1973, 21.91297
901.6794, 21.74041
902.1615, 21.73251
902.6436, 21.92489
903.1257, 22.24298
903.6078, 22.36115
904.0900, 22.20327
904.5721, 22.00195
905.0542, 21.55427
905.5363, 21.31726
906.0184, 21.79109
906.5005, 22.37541
906.9827, 22.19099
907.4648, 21.20813
907.9469, 20.63970
908.4290, 21.14593
908.9111, 21.66170
909.3932, 21.76522
909.8754, 21.64438
910.3575, 21.37250
910.8396, 21.06023
911.3217, 20.92086
911.8038, 21.04832
912.2859, 21.26667
912.7681, 21.48952
913.2502, 21.66369
913.7323, 21.64746
914.2144, 21.50778
914.6965, 21.48901
915.1786, 21.64337
915.6608, 21.77011
916.1429, 21.67742
916.6250, 21.49638
917.1071, 21.63684
917.5892, 22.09982
918.0714, 22.29322
918.5535, 22.12078
919.0356, 21.90957
919.5177, 21.78062
919.9998, 21.77841
920.4819, 22.00647
920.9641, 22.49546
921.4462, 22.78251
921.9283, 22.70043
922.4104, 22.69891
922.8925, 22.97877
923.3746, 23.24075
923.8568, 23.22745
924.3389, 23.06629
924.8210, 23.06678
925.3031, 23.29095
925.7852, 23.57281
926.2673, 24.08390
926.7495, 24.40813
927.2316, 24.08484
927.7137, 23.57486
928.1958, 23.46668
928.6779, 23.79494
929.1600, 24.22117
929.6422, 24.63525
930.1243, 24.94335
930.6064, 24.93326
931.0885, 24.84035
931.5706, 25.08072
932.0527, 25.58063
932.5349, 26.01837
933.0170, 26.26436
933.4991, 26.30423
933.9812, 26.00914
934.4633, 25.58062
934.9454, 25.68023
935.4276, 26.25085
935.9097, 26.73109
936.3918, 27.01927
936.8739, 27.14811
937.3560, 27.10245
937.8381, 27.01720
938.3203, 27.19694
938.8024, 27.69171
939.2845, 28.03043
939.7666, 28.17047
940.2487, 28.26413
940.7308, 28.33084
941.2130, 28.39679
941.6951, 28.45809
942.1772, 28.53361
942.6593, 28.73983
943.1414, 29.23638
943.6235, 29.57589
944.1057, 29.52445
944.5878, 29.56055
945.0699, 30.02485
945.5520, 30.61583
946.0341, 30.92281
946.5162, 30.93490
946.9984, 31.02223
947.4805, 31.33017
947.9626, 31.71416
948.4447, 32.24598
948.9268, 32.70420
949.4089, 32.72624
949.8911, 32.52479
950.3732, 32.63443
950.8553, 33.22108
951.3374, 33.88518
951.8195, 34.35261
952.3016, 34.68260
952.7838, 34.92779
953.2659, 35.10655
953.7480, 35.17781
954.2301, 35.19499
954.7122, 35.47963
955.1943, 36.23819
955.6764, 37.13369
956.1585, 37.60396
956.6406, 37.74908
957.1227, 38.08119
957.6049, 38.60652
958.0870, 39.18420
958.5691, 39.77853
959.0512, 40.38804
959.5333, 41.00683
960.0154, 41.64115
960.4976, 42.31147
960.9797, 43.05023
961.4618, 43.67219
961.9439, 44.17306
962.4260, 44.53377
962.9081, 44.65799
963.3903, 44.75230
963.8724, 45.08460
964.3545, 45.64053
964.8366, 46.10679
965.3187, 46.30003
965.8008, 46.69423
966.2830, 47.58511
966.7651, 48.37744
967.2472, 48.81942
967.7293, 48.97985
968.2114, 48.80985
968.6935, 48.28834
969.1757, 48.28311
969.6578, 49.49696
970.1399, 50.57928
970.6220, 50.95537
971.1041, 51.07642
971.5862, 51.35888
972.0684, 51.69775
972.5505, 51.74157
973.0326, 51.37555
973.5147, 51.00047
973.9968, 50.80264
974.4789, 50.73354
974.9611, 50.74720
975.4432, 50.86700
975.9253, 51.28379
976.4074, 51.86221
976.8895, 52.05911
977.3716, 51.57262
977.8538, 50.91829
978.3359, 50.35695
978.8180, 50.15918
979.3001, 51.37203
979.7822, 53.36240
980.2643, 53.76165
980.7465, 52.19872
981.2286, 50.68161
981.7107, 50.71053
982.1928, 51.48306
982.6749, 51.54379
983.1570, 50.99410
983.6392, 50.27822
984.1213, 49.44220
984.6034, 49.13922
985.0855, 49.64084
985.5676, 50.20355
986.0497, 50.06532
986.5319, 49.44647
987.0140, 49.21157
987.4961, 49.43214
987.9782, 49.42448
988.4603, 49.04158
988.9424, 48.84908
989.4246, 49.19046
989.9067, 49.62370
990.3888, 49.54966
990.8709, 49.01684
991.3530, 48.81640
991.8351, 49.19849
992.3173, 49.33008
992.7994, 48.93882
993.2815, 48.58702
993.7636, 48.66049
994.2457, 48.87139
994.7278, 48.71907
995.2100, 48.16396
995.6921, 47.87756
996.1742, 47.93937
996.6563, 48.16805
997.1384, 48.84570
997.6205, 49.36636
998.1027, 49.39450
998.5848, 49.00728
999.0669, 48.18789
999.5490, 46.88144
1000.031, 46.10835
1000.513, 46.48537
1000.995, 46.97431
1001.477, 47.17493
1001.960, 47.31423
1002.442, 47.70189
1002.924, 48.16820
1003.406, 48.27491
1003.888, 47.89036
1004.370, 47.46107
1004.852, 47.28090
1005.334, 47.05758
1005.817, 46.32421
1006.299, 45.60406
1006.781, 45.77692
1007.263, 46.56313
1007.745, 46.83301
1008.227, 46.11373
1008.709, 45.38258
1009.191, 45.65580
1009.673, 46.12452
1010.156, 45.73623
1010.638, 44.91891
1011.120, 44.52994
1011.602, 44.61125
1012.084, 44.59445
1012.566, 44.16578
1013.048, 43.83067
1013.530, 44.40465
1014.013, 45.33661
1014.495, 45.49883
1014.977, 45.10317
1015.459, 44.82693
1015.941, 44.82180
1016.423, 45.04864
1016.905, 45.51176
1017.387, 45.92457
1017.869, 45.65295
1018.352, 45.97584
1018.834, 46.16314
1019.316, 45.95954
1019.798, 46.41183
1020.280, 46.22580
1020.762, 45.83077
1021.244, 45.51396
1021.726, 45.30679
1022.208, 45.32052
1022.691, 45.53006
1023.173, 45.64677
1023.655, 45.66749
1024.137, 45.44556
1024.619, 44.90877
1025.101, 44.41391
1025.583, 44.23847
1026.065, 44.32718
1026.547, 44.63244
1027.030, 45.20508
1027.512, 45.27105
1027.994, 44.73859
1028.476, 44.12948
1028.958, 43.52818
1029.440, 43.14809
1029.922, 43.23811
1030.404, 43.62165
1030.887, 43.69849
1031.369, 43.34987
1031.851, 43.30229
1032.333, 43.85487
1032.815, 43.77661
1033.297, 42.30769
1033.779, 40.80399
1034.261, 40.52289
1034.744, 41.15802
1035.226, 41.59932
1035.708, 41.82262
1036.190, 41.91431
1036.672, 41.78508
1037.154, 41.69909
1037.636, 41.82954
1038.118, 41.91330
1038.600, 41.62525
1039.083, 41.09928
1039.565, 40.87626
1040.047, 41.00602
1040.529, 41.32740
1041.011, 42.10255
1041.493, 42.69751
1041.975, 42.70562
1042.457, 42.66069
1042.939, 43.15190
1043.422, 43.98388
1043.904, 44.39794
1044.386, 44.15752
1044.868, 44.05684
1045.350, 44.10399
1045.832, 44.32538
1046.314, 44.80785
1046.796, 45.40191
1047.279, 46.04823
1047.761, 46.69419
1048.243, 47.19164
1048.725, 47.50647
1049.207, 47.73343
1049.689, 47.62531
1050.171, 47.75878
1050.653, 48.60057
1051.135, 49.54953
1051.618, 50.00926
1052.100, 50.13155
1052.582, 50.49314
1053.064, 51.26465
1053.546, 51.94747
1054.028, 52.39075
1054.510, 52.78511
1054.992, 53.13662
1055.474, 53.53393
1055.957, 54.21865
1056.439, 54.99203
1056.921, 55.23088
1057.403, 54.65842
1057.885, 54.38855
1058.367, 55.05034
1058.849, 55.68516
1059.331, 55.73689
1059.814, 55.68009
1060.296, 55.92283
1060.778, 56.43740
1061.260, 57.14061
1061.742, 58.08198
1062.224, 58.66799
1062.706, 58.44486
1063.188, 58.13915
1063.671, 58.05625
1064.153, 58.07566
1064.635, 58.01907
1065.117, 57.98290
1065.599, 58.21135
1066.081, 58.76585
1066.563, 59.42310
1067.045, 60.34490
1067.527, 61.03436
1068.010, 60.96603
1068.492, 60.80966
1068.974, 61.22872
1069.456, 62.01176
1069.938, 62.67248
1070.420, 63.10536
1070.902, 63.39312
1071.384, 63.34128
1071.866, 63.44732
1072.349, 64.12128
1072.831, 64.90001
1073.313, 65.36749
1073.795, 65.65282
1074.277, 66.10240
1074.759, 66.75393
1075.241, 67.20825
1075.723, 67.07951
1076.206, 67.02424
1076.688, 67.48692
1077.170, 68.02724
1077.652, 68.25613
1078.134, 68.32619
1078.616, 68.54470
1079.098, 68.93564
1079.580, 69.24001
1080.062, 69.19649
1080.545, 69.34913
1081.027, 70.11604
1081.509, 71.01768
1081.991, 71.88599
1082.473, 72.54612
1082.955, 72.70592
1083.437, 72.42245
1083.919, 72.14927
1084.401, 72.02810
1084.884, 71.98025
1085.366, 72.05368
1085.848, 72.09769
1086.330, 72.01969
1086.812, 71.84647
1087.294, 71.65337
1087.776, 71.40536
1088.258, 70.95344
1088.740, 70.23019
1089.223, 69.39169
1089.705, 68.33387
1090.187, 67.36695
1090.669, 66.92656
1091.151, 66.47563
1091.633, 65.33227
1092.115, 63.69600
1092.597, 62.28042
1093.080, 61.27631
1093.562, 60.28658
1094.044, 59.01337
1094.526, 57.90957
1095.008, 57.43859
1095.490, 57.02470
1095.972, 56.13125
1096.454, 54.90403
1096.937, 53.69160
1097.419, 52.56043
1097.901, 51.46551
1098.383, 50.38000
1098.865, 49.34746
1099.347, 48.39881
1099.829, 47.48183
1100.311, 46.56537
1100.793, 45.65136
1101.276, 44.72063
1101.758, 43.77885
1102.240, 42.92131
1102.722, 42.13686
1103.204, 41.49592
1103.686, 41.27064
1104.168, 40.90100
1104.650, 39.86959
1105.132, 38.65664
1105.615, 37.91903
1106.097, 37.59600
1106.579, 37.04854
1107.061, 35.89432
1107.543, 35.13187
1108.025, 35.25546
1108.507, 35.36707
1108.989, 35.21059
1109.472, 34.80622
1109.954, 34.05865
1110.436, 33.09523
1110.918, 32.33148
1111.400, 31.88692
1111.882, 31.33103
1112.364, 30.40224
1112.846, 29.68258
1113.328, 29.42326
1113.811, 29.29957
1114.293, 29.18188
1114.775, 29.01214
1115.257, 28.63416
1115.739, 27.99823
1116.221, 27.54368
1116.703, 27.38695
1117.185, 27.21763
1117.667, 26.99986
1118.150, 26.76398
1118.632, 26.52945
1119.114, 26.27930
1119.596, 25.96635
1120.078, 25.60252
1120.560, 25.36647
1121.042, 25.33307
1121.524, 25.26826
1122.007, 25.29702
1122.489, 24.95982
1122.971, 23.83898
1123.453, 22.70449
1123.935, 22.32092
1124.417, 22.54635
1124.899, 22.90886
1125.381, 23.52941
1125.864, 23.69545
1126.346, 23.28824
1126.828, 22.86205
1127.310, 22.53934
1127.792, 22.29583
1128.274, 22.13450
1128.756, 22.00015
1129.238, 21.77263
1129.720, 21.45701
1130.203, 21.20984
1130.685, 21.03598
1131.167, 20.89512
1131.649, 20.78348
1132.131, 20.69084
1132.613, 20.61677
1133.095, 20.53187
1133.577, 20.40429
1134.059, 20.22927
1134.542, 19.94474
1135.024, 19.56962
1135.506, 19.41221
1135.988, 19.47976
1136.470, 19.41720
1136.952, 19.10644
1137.434, 18.74383
1137.916, 18.47516
1138.399, 18.33508
1138.881, 18.51114
1139.363, 18.84764
1139.845, 18.73963
1140.327, 18.28550
1140.809, 17.99066
1141.291, 17.94190
1141.773, 17.96138
1142.255, 17.95597
1142.738, 17.85726
1143.220, 17.43502
1143.702, 16.97525
1144.184, 17.08876
1144.666, 17.49163
1145.148, 17.65005
1145.630, 17.51385
1146.112, 17.13427
1146.594, 16.55663
1147.077, 16.00812
1147.559, 15.59734
1148.041, 15.38674
1148.523, 15.56053
1149.005, 15.86683
1149.487, 16.13109
1149.969, 16.23975
1150.451, 15.89750
1150.934, 15.20411
1151.416, 14.80103
1151.898, 15.04414
1152.380, 15.23248
1152.862, 14.78919
1153.344, 14.35695
1153.826, 14.35999
1154.308, 14.60945
1154.791, 15.04414
1155.273, 15.49698
1155.755, 15.64907
1156.237, 15.43246
1156.719, 15.05819
1157.201, 14.29002
1157.683, 13.79738
1158.165, 13.96056
1158.647, 14.25815
1159.130, 14.45496
1159.612, 14.53912
1160.094, 14.47823
1160.576, 14.29115
1161.058, 14.14825
1161.540, 14.05179
1162.022, 14.01519
1162.504, 14.11897
1162.986, 14.15773
1163.469, 14.03212
1163.951, 13.87451
1164.433, 13.76374
1164.915, 13.71074
1165.397, 13.75488
1165.879, 13.76782
1166.361, 13.83897
1166.843, 13.97550
1167.325, 14.03714
1167.808, 14.25681
1168.290, 14.38213
1168.772, 14.27841
1169.254, 14.05796
1169.736, 13.83419
1170.218, 13.63007
1170.700, 13.55651
1171.182, 13.60989
1171.665, 13.60669
1172.147, 13.54027
1172.629, 13.52377
1173.111, 13.58783
1173.593, 13.67210
1174.075, 13.73909
1174.557, 13.77000
1175.039, 13.71767
1175.521, 13.61327
1176.004, 13.50653
1176.486, 13.43027
1176.968, 13.51445
1177.450, 13.73909
1177.932, 13.98918
1178.414, 14.20648
1178.896, 14.24361
1179.378, 13.86407
1179.860, 13.49931
1180.343, 13.83326
1180.825, 14.29485
1181.307, 13.98189
1181.789, 13.32551
1182.271, 13.24398
1182.753, 13.72195
1183.235, 14.04616
1183.717, 13.94479
1184.200, 13.68639
1184.682, 13.17625
1185.164, 12.84268
1185.646, 13.05556
1186.128, 13.43057
1186.610, 13.68173
1187.092, 13.81946
1187.574, 13.94383
1188.057, 14.05900
1188.539, 13.97609
1189.021, 13.35227
1189.503, 13.02534
1189.985, 13.44656
1190.467, 13.70197
1190.949, 13.22723
1191.431, 12.72081
1191.913, 12.87399
1192.396, 13.41323
1192.878, 13.59509
1193.360, 13.36683
1193.842, 13.18313
1194.324, 13.01713
1194.806, 13.02433
1195.288, 13.28003
1195.770, 13.49277
1196.252, 13.51406
1196.735, 13.45533
1197.217, 13.44990
1197.699, 13.35888
1198.181, 13.35431
1198.663, 13.14569
1199.145, 12.96750
1199.627, 12.83504
1200.109, 12.84530
1200.592, 13.00219
1201.074, 13.09412
1201.556, 12.99175
1202.038, 12.91138
1202.520, 13.20873
1203.002, 13.13335
1203.484, 13.55906
1203.966, 13.31702
1204.448, 13.29078
1204.931, 13.45767
1205.413, 13.69736
1205.895, 13.93900
1206.377, 13.99611
1206.859, 13.71877
1207.341, 13.40355
1207.823, 13.12315
1208.305, 12.99841
1208.787, 13.25409
1209.270, 13.59219
1209.752, 13.76810
1210.234, 13.74555
1210.716, 13.42451
1211.198, 12.75572
1211.680, 12.42644
1212.162, 12.81418
1212.644, 13.11566
1213.127, 13.19593
1213.609, 13.20435
1214.091, 13.15305
1214.573, 13.10465
1215.055, 13.12803
1215.537, 13.19677
1216.019, 13.22887
1216.501, 13.22061
1216.984, 13.21986
1217.466, 13.24083
1217.948, 13.14886
1218.430, 12.90309
1218.912, 12.70524
1219.394, 12.64430
1219.876, 12.77431
1220.358, 13.21238
1220.840, 13.74765
1221.323, 13.87066
1221.805, 13.67710
1222.287, 13.42879
1222.769, 13.16766
1223.251, 12.92625
1223.733, 12.74751
1224.215, 12.83698
1224.697, 13.29416
1225.179, 13.68100
1225.662, 13.50853
1226.144, 13.72788
1226.626, 13.35206
1227.108, 13.51762
1227.590, 13.22339
1228.072, 12.78412
1228.554, 12.83727
1229.036, 13.34273
1229.519, 13.63089
1230.001, 13.49955
1230.483, 13.25045
1230.965, 12.70927
1231.447, 12.39592
1231.929, 12.66787
1232.411, 13.00220
1232.893, 13.08000
1233.375, 13.02440
1233.858, 13.01188
1234.340, 13.02933
1234.822, 12.92779
1235.304, 12.97393
1235.786, 13.10296
1236.268, 13.04002
1236.750, 13.36724
1237.232, 13.50073
1237.714, 13.45362
1238.197, 13.21233
1238.679, 12.96327
1239.161, 12.97765
1239.643, 13.17255
1240.125, 13.41912
1240.607, 13.63265
1241.089, 13.46024
1241.571, 13.02981
1242.054, 12.83627
1242.536, 12.96732
1243.018, 13.15852
1243.500, 13.28377
1243.982, 13.35155
1244.464, 13.36269
1244.946, 13.32709
1245.428, 13.15397
1245.910, 13.02772
1246.393, 13.26865
1246.875, 13.61736
1247.357, 13.54363
1247.839, 13.05318
1248.321, 12.77743
1248.803, 12.88358
1249.285, 13.04537
1249.767, 13.30392
1250.250, 13.52446
1250.732, 13.74659
1251.214, 13.78078
1251.696, 13.41014
1252.178, 12.96091
1252.660, 12.93405
1253.142, 13.24902
1253.624, 13.51811
1254.106, 13.73728
1254.589, 13.54574
1255.071, 12.97027
1255.553, 12.74146
1256.035, 12.99923
1256.517, 13.14639
1256.999, 12.83721
1257.481, 12.51249
1257.963, 12.70740
1258.445, 13.09763
1258.928, 13.26826
1259.410, 13.33580
1259.892, 13.46653
1260.374, 13.61943
1260.856, 13.68057
1261.338, 13.65516
1261.820, 13.65157
1262.302, 13.70837
1262.785, 13.75653
1263.267, 13.81496
1263.749, 13.80390
1264.231, 13.61382
1264.713, 13.44393
1265.195, 13.36851
1265.677, 13.41376
1266.159, 13.66789
1266.641, 14.04805
1267.124, 14.19155
1267.606, 14.40768
1268.088, 14.63798
1268.570, 14.61115
1269.052, 14.83209
1269.534, 14.73395
1270.016, 14.41177
1270.498, 13.90335
1270.980, 13.45496
1271.463, 13.29826
1271.945, 13.34258
1272.427, 13.54269
1272.909, 13.77492
1273.391, 13.74455
1273.873, 13.62251
1274.355, 13.82093
1274.837, 14.23097
1275.320, 14.31898
1275.802, 13.97342
1276.284, 13.88475
1276.766, 14.59256
1277.248, 15.16056
1277.730, 15.33479
1278.212, 15.23597
1278.694, 14.57599
1279.177, 14.01140
1279.659, 14.20586
1280.141, 14.78052
1280.623, 15.05855
1281.105, 15.04517
1281.587, 14.79457
1282.069, 14.24230
1282.551, 13.98785
1283.033, 14.08188
1283.516, 14.26802
1283.998, 14.47436
1284.480, 14.57356
1284.962, 14.48104
1285.444, 14.33370
1285.926, 14.26967
##END=



