##NAMES=Elbaite
##RRUFFID=R050487
##IDEAL CHEMISTRY=Na(Al_1.5_Li_1.5_)Al_6_(Si_6_O_18_)(BO_3_)_3_(OH)_3_OH
##LOCALITY=White Queen mine, Pala, San Diego County, California, USA
##OWNER=RRUFF
##SOURCE=California Institute of Technology
##DESCRIPTION=Mass of blue acicular crystals
##STATUS=The identification of this mineral has been confirmed by X-ray diffraction and chemical analysis
##URL=rruff.info/R050487
##MEASURED CHEMISTRY=(Na_0.86_[box]_0.13_Ca_0.01_)(Al_0.42_Li_0.38_Fe^2+^_0.18_Mn_0.02_)_3_Al_6_(BO_3_)_3_Si_6_O_18_((OH)_0.85_F_0.15_)_4_
91.00781, 18.47188
91.48993, 19.00118
91.97205, 19.21340
92.45416, 18.85558
92.93628, 18.19226
93.41840, 17.84604
93.90051, 18.01569
94.38263, 18.36545
94.86475, 18.32271
95.34686, 17.89073
95.82898, 17.38194
96.31110, 16.95726
96.79321, 16.62809
97.27533, 16.58660
97.75745, 17.02600
98.23956, 17.76824
98.72168, 17.96690
99.20380, 17.49592
99.68591, 16.87073
100.1680, 16.68439
100.6501, 17.03149
101.1323, 17.35844
101.6144, 17.45745
102.0965, 17.29199
102.5786, 17.36444
103.0607, 17.76664
103.5428, 18.32606
104.0250, 18.75563
104.5071, 18.95871
104.9892, 19.18742
105.4713, 19.51890
105.9534, 19.91888
106.4355, 20.49727
106.9177, 21.31168
107.3998, 22.30578
107.8819, 23.33116
108.3640, 24.27781
108.8461, 25.33175
109.3282, 26.59706
109.8104, 28.20338
110.2925, 29.84152
110.7746, 31.49087
111.2567, 33.14619
111.7388, 34.83844
112.2209, 36.69155
112.7031, 38.49811
113.1852, 40.13544
113.6673, 41.30862
114.1494, 42.55088
114.6315, 44.10952
115.1136, 46.01991
115.5958, 47.72258
116.0779, 48.90520
116.5600, 49.83000
117.0421, 50.78682
117.5242, 51.90084
118.0063, 53.06308
118.4885, 54.13713
118.9706, 55.03834
119.4527, 56.25935
119.9348, 58.24314
120.4169, 60.72208
120.8990, 63.24123
121.3812, 65.47623
121.8633, 67.68077
122.3454, 70.17093
122.8275, 73.20796
123.3096, 76.03758
123.7917, 77.91608
124.2739, 78.99511
124.7560, 79.83149
125.2381, 80.54812
125.7202, 81.29705
126.2023, 82.33308
126.6844, 83.76488
127.1666, 85.44832
127.6487, 87.28507
128.1308, 89.26958
128.6129, 91.17227
129.0950, 92.85940
129.5771, 94.33702
130.0593, 95.63566
130.5414, 96.77412
131.0235, 97.72453
131.5056, 98.22240
131.9877, 97.87784
132.4698, 97.01949
132.9520, 96.41769
133.4341, 96.06847
133.9162, 96.01508
134.3983, 96.31245
134.8804, 96.92764
135.3625, 97.68993
135.8447, 98.63965
136.3268, 99.64479
136.8089, 100.4802
137.2910, 101.0953
137.7731, 101.8672
138.2552, 103.0830
138.7374, 104.8449
139.2195, 106.1755
139.7016, 107.1196
140.1837, 107.6273
140.6658, 107.4568
141.1479, 106.2937
141.6301, 105.1770
142.1122, 104.5718
142.5943, 104.5816
143.0764, 104.8173
143.5585, 105.4004
144.0406, 106.1839
144.5228, 106.6434
145.0049, 106.5494
145.4870, 106.4157
145.9691, 106.5515
146.4512, 107.3425
146.9333, 107.7674
147.4155, 107.5672
147.8976, 106.8389
148.3797, 106.5147
148.8618, 106.9312
149.3439, 107.5050
149.8260, 107.8585
150.3082, 107.4579
150.7903, 107.4325
151.2724, 108.1141
151.7545, 109.5262
152.2366, 110.4828
152.7188, 110.3832
153.2009, 110.0863
153.6830, 110.2820
154.1651, 111.7412
154.6472, 113.0037
155.1293, 113.7238
155.6115, 113.8636
156.0936, 113.7445
156.5757, 113.4092
157.0578, 112.8518
157.5399, 112.0691
158.0220, 110.6270
158.5042, 109.3312
158.9863, 108.4769
159.4684, 108.1040
159.9505, 108.0557
160.4326, 108.6493
160.9147, 109.4831
161.3969, 109.9583
161.8790, 109.4755
162.3611, 108.8673
162.8432, 108.6640
163.3253, 109.1372
163.8074, 109.3883
164.2896, 108.7381
164.7717, 107.5720
165.2538, 106.6608
165.7359, 106.5299
166.2180, 106.6778
166.7001, 106.7171
167.1823, 106.5130
167.6644, 106.3334
168.1465, 106.3815
168.6286, 106.5945
169.1107, 106.7972
169.5928, 106.8919
170.0750, 106.9284
170.5571, 106.9903
171.0392, 107.2068
171.5213, 107.2721
172.0034, 106.7430
172.4855, 105.7575
172.9677, 104.9369
173.4498, 104.7145
173.9319, 104.8861
174.4140, 105.1834
174.8961, 105.6305
175.3782, 106.0671
175.8604, 106.3118
176.3425, 106.3800
176.8246, 106.3934
177.3067, 106.3901
177.7888, 106.4004
178.2709, 106.5011
178.7531, 106.8310
179.2352, 107.1727
179.7173, 107.1886
180.1994, 106.8875
180.6815, 106.4408
181.1636, 105.8434
181.6458, 105.1938
182.1279, 104.8133
182.6100, 104.9045
183.0921, 105.2830
183.5742, 105.6304
184.0563, 105.9448
184.5385, 106.1543
185.0206, 106.0680
185.5027, 105.7616
185.9848, 105.6138
186.4669, 105.9002
186.9490, 106.4255
187.4312, 106.5996
187.9133, 106.3964
188.3954, 105.9974
188.8775, 105.4459
189.3596, 104.7864
189.8417, 104.4464
190.3239, 104.7962
190.8060, 105.6590
191.2881, 106.0648
191.7702, 105.9353
192.2523, 105.6470
192.7344, 105.7076
193.2166, 106.1174
193.6987, 106.4949
194.1808, 106.6662
194.6629, 106.6515
195.1450, 106.6864
195.6271, 106.7720
196.1093, 106.9048
196.5914, 107.0339
197.0735, 107.1434
197.5556, 107.4361
198.0377, 108.0746
198.5198, 109.0670
199.0020, 109.9294
199.4841, 110.6523
199.9662, 111.2614
200.4483, 111.7580
200.9304, 112.1074
201.4125, 112.5509
201.8947, 113.2304
202.3768, 114.1677
202.8589, 115.0699
203.3410, 115.9494
203.8231, 116.7797
204.3052, 117.4348
204.7874, 117.8427
205.2695, 118.3933
205.7516, 119.2953
206.2337, 120.5980
206.7158, 121.9276
207.1979, 123.3013
207.6801, 124.6868
208.1622, 126.0066
208.6443, 127.2802
209.1264, 128.4554
209.6085, 129.4308
210.0906, 130.0911
210.5728, 131.1096
211.0549, 132.5838
211.5370, 134.3520
212.0191, 136.0033
212.5012, 137.4957
212.9833, 139.0100
213.4655, 140.5659
213.9476, 142.0915
214.4297, 144.0149
214.9118, 146.5836
215.3939, 149.4290
215.8760, 151.6006
216.3581, 152.6937
216.8403, 153.9091
217.3224, 155.9050
217.8045, 159.0857
218.2866, 161.8284
218.7687, 163.9844
219.2508, 165.7135
219.7330, 167.4054
220.2151, 169.1492
220.6972, 170.6765
221.1793, 171.8404
221.6614, 172.6165
222.1435, 173.1143
222.6257, 173.3594
223.1078, 173.3222
223.5899, 172.9115
224.0720, 172.0498
224.5541, 170.9365
225.0362, 169.6550
225.5184, 168.2735
226.0005, 166.5562
226.4826, 164.2963
226.9647, 161.7536
227.4468, 159.5899
227.9289, 157.9524
228.4111, 156.4992
228.8932, 155.0887
229.3753, 153.7399
229.8574, 152.4000
230.3395, 151.0585
230.8216, 149.7410
231.3038, 148.4690
231.7859, 147.1371
232.2680, 146.0173
232.7501, 145.2578
233.2322, 145.0224
233.7143, 144.7705
234.1965, 144.4473
234.6786, 144.1135
235.1607, 143.9556
235.6428, 144.1061
236.1249, 144.2348
236.6070, 144.1598
237.0892, 143.6541
237.5713, 143.4534
238.0534, 143.6754
238.5355, 144.1697
239.0176, 144.5544
239.4997, 144.7970
239.9819, 144.9822
240.4640, 145.1402
240.9461, 145.2624
241.4282, 145.3582
241.9103, 145.2812
242.3924, 144.8278
242.8746, 145.5373
243.3567, 146.0303
243.8388, 146.3183
244.3209, 145.7878
244.8030, 146.3143
245.2851, 146.4172
245.7673, 146.5028
246.2494, 147.1780
246.7315, 146.7666
247.2136, 147.4325
247.6957, 147.6683
248.1778, 148.0764
248.6600, 149.6736
249.1421, 150.8612
249.6242, 151.5100
250.1063, 151.8275
250.5884, 152.2231
251.0705, 152.7930
251.5527, 153.2684
252.0348, 153.4212
252.5169, 152.9449
252.9990, 153.3156
253.4811, 154.8715
253.9632, 157.0585
254.4454, 158.8736
254.9275, 160.1675
255.4096, 161.4034
255.8917, 162.8403
256.3738, 164.6627
256.8560, 165.7742
257.3381, 166.0557
257.8202, 165.7388
258.3023, 165.2302
258.7844, 164.7613
259.2665, 163.6145
259.7487, 161.5166
260.2308, 158.4013
260.7129, 154.7559
261.1950, 150.3108
261.6771, 145.6466
262.1592, 141.5228
262.6414, 138.0036
263.1235, 134.9582
263.6056, 132.4467
264.0877, 130.4748
264.5698, 128.6227
265.0519, 126.8590
265.5341, 125.2636
266.0162, 123.9043
266.4983, 122.7882
266.9804, 121.9309
267.4625, 121.4080
267.9446, 121.2167
268.4268, 120.8223
268.9089, 120.1265
269.3910, 119.4152
269.8731, 119.0447
270.3552, 119.1466
270.8373, 119.0643
271.3195, 118.6369
271.8016, 117.8866
272.2837, 116.9844
272.7658, 115.8161
273.2479, 114.7266
273.7300, 114.0976
274.2122, 114.0285
274.6943, 113.8018
275.1764, 113.2149
275.6585, 112.3615
276.1406, 111.7925
276.6227, 111.6070
277.1049, 111.3819
277.5870, 110.6649
278.0691, 109.3908
278.5512, 108.4187
279.0333, 107.9961
279.5154, 107.9123
279.9976, 107.3894
280.4797, 106.3345
280.9618, 105.3110
281.4439, 104.8097
281.9260, 104.8399
282.4081, 104.5786
282.8903, 103.8648
283.3724, 102.8626
283.8545, 101.9257
284.3366, 101.0529
284.8187, 100.2537
285.3008, 99.55983
285.7830, 98.95923
286.2651, 98.38097
286.7472, 97.80904
287.2293, 97.26639
287.7114, 96.80299
288.1935, 96.41809
288.6757, 96.06096
289.1578, 95.75404
289.6399, 95.46627
290.1220, 95.01925
290.6041, 94.35966
291.0862, 93.67278
291.5684, 93.21490
292.0505, 92.97292
292.5326, 92.83853
293.0147, 92.90096
293.4968, 93.03460
293.9789, 92.78801
294.4611, 92.10381
294.9432, 91.33735
295.4253, 90.88770
295.9074, 90.71011
296.3895, 90.61710
296.8716, 90.52626
297.3538, 90.46664
297.8359, 90.51454
298.3180, 90.67415
298.8001, 90.86018
299.2822, 91.04311
299.7643, 91.19597
300.2465, 91.23981
300.7286, 91.04887
301.2107, 90.80016
301.6928, 90.72271
302.1749, 90.81332
302.6570, 91.01199
303.1392, 91.33363
303.6213, 91.72245
304.1034, 92.07310
304.5855, 92.34102
305.0676, 92.58167
305.5497, 92.93468
306.0319, 93.35239
306.5140, 93.60432
306.9961, 93.36485
307.4782, 92.93467
307.9603, 92.66047
308.4424, 92.62513
308.9246, 92.75943
309.4067, 93.06838
309.8888, 93.51148
310.3709, 93.98239
310.8530, 94.47508
311.3351, 94.93680
311.8173, 95.29768
312.2994, 95.50669
312.7815, 95.75282
313.2636, 96.27089
313.7457, 96.89315
314.2278, 97.31978
314.7100, 97.21027
315.1921, 97.01720
315.6742, 97.03821
316.1563, 97.34150
316.6384, 97.62002
317.1205, 97.75681
317.6027, 97.78673
318.0848, 97.75212
318.5669, 97.61472
319.0490, 97.46090
319.5311, 97.34128
320.0132, 97.26082
320.4954, 97.11836
320.9775, 96.69521
321.4596, 96.28867
321.9417, 96.15874
322.4238, 96.80856
322.9059, 97.27113
323.3881, 97.19151
323.8702, 96.62416
324.3523, 96.25605
324.8344, 96.28185
325.3165, 96.47242
325.7986, 96.69180
326.2808, 96.92802
326.7629, 97.19628
327.2450, 97.44590
327.7271, 97.71534
328.2092, 98.15871
328.6913, 99.11667
329.1735, 99.94826
329.6556, 100.3853
330.1377, 100.1070
330.6198, 100.0456
331.1019, 100.3187
331.5840, 100.7716
332.0662, 101.1067
332.5483, 101.1779
333.0304, 101.3416
333.5125, 101.7258
333.9946, 102.3815
334.4767, 103.0204
334.9589, 103.7109
335.4410, 104.3096
335.9231, 104.5811
336.4052, 104.3594
336.8873, 104.2466
337.3694, 104.4192
337.8516, 104.8581
338.3336, 105.2167
338.8158, 105.4480
339.2979, 105.7053
339.7800, 106.1781
340.2621, 106.9105
340.7442, 107.5362
341.2263, 107.9690
341.7085, 108.2570
342.1906, 108.4720
342.6727, 108.5814
343.1548, 108.8350
343.6369, 109.5805
344.1190, 110.7599
344.6012, 111.4883
345.0833, 111.5831
345.5654, 111.3461
346.0475, 111.2234
346.5296, 111.2166
347.0117, 111.3756
347.4939, 111.8701
347.9760, 112.5590
348.4581, 112.9310
348.9402, 112.9072
349.4223, 112.8755
349.9044, 113.3778
350.3866, 114.2662
350.8687, 115.0331
351.3508, 115.2420
351.8329, 115.3143
352.3150, 116.0103
352.7971, 117.3165
353.2793, 118.6357
353.7614, 119.2966
354.2435, 119.7195
354.7256, 120.6132
355.2077, 122.3900
355.6898, 124.4407
356.1720, 126.3228
356.6541, 128.0577
357.1362, 129.7269
357.6183, 131.2926
358.1004, 132.8778
358.5826, 134.5757
359.0647, 136.3740
359.5468, 138.3621
360.0289, 140.6939
360.5110, 143.2427
360.9931, 145.7778
361.4753, 148.1797
361.9574, 150.5371
362.4395, 152.7791
362.9216, 154.8201
363.4037, 157.2747
363.8858, 160.3210
364.3680, 163.8747
364.8501, 167.8642
365.3322, 172.7188
365.8143, 177.5033
366.2964, 181.9734
366.7785, 186.1502
367.2607, 190.2812
367.7428, 194.3649
368.2249, 198.4649
368.7070, 202.6469
369.1891, 207.5372
369.6712, 211.6385
370.1534, 214.9402
370.6355, 217.4429
371.1176, 219.1805
371.5997, 220.4229
372.0818, 220.5359
372.5639, 219.2167
373.0461, 216.2212
373.5282, 212.4696
374.0103, 207.8380
374.4924, 202.4878
374.9745, 196.6488
375.4566, 190.1383
375.9388, 183.5768
376.4209, 177.1067
376.9030, 170.6772
377.3851, 164.7846
377.8672, 159.3676
378.3493, 154.4452
378.8315, 150.2526
379.3136, 146.7704
379.7957, 143.2117
380.2778, 139.2726
380.7599, 135.2896
381.2420, 131.9737
381.7242, 129.3783
382.2063, 127.1337
382.6884, 125.0343
383.1705, 123.1070
383.6526, 121.6143
384.1347, 120.6704
384.6169, 119.7952
385.0990, 118.1729
385.5811, 116.0723
386.0632, 114.4452
386.5453, 114.1243
387.0274, 114.3497
387.5096, 114.1149
387.9917, 113.4109
388.4738, 112.6298
388.9559, 112.0013
389.4380, 111.5170
389.9201, 111.1638
390.4023, 110.9431
390.8844, 110.8562
391.3665, 110.9878
391.8486, 111.2793
392.3307, 111.5084
392.8128, 111.5301
393.2950, 111.4766
393.7771, 111.4004
394.2592, 111.2282
394.7413, 111.2484
395.2234, 111.7085
395.7055, 112.3868
396.1877, 112.9415
396.6698, 113.2757
397.1519, 113.4945
397.6340, 113.4846
398.1161, 113.1667
398.5982, 113.3566
399.0804, 114.6447
399.5625, 116.1370
400.0446, 117.1718
400.5267, 117.1812
401.0088, 117.5822
401.4909, 118.6511
401.9731, 120.2142
402.4552, 121.5751
402.9373, 122.7731
403.4194, 123.7085
403.9015, 124.2414
404.3836, 124.1817
404.8658, 124.5266
405.3479, 125.4383
405.8300, 126.5266
406.3121, 127.2008
406.7942, 127.4102
407.2763, 127.5471
407.7585, 127.7561
408.2406, 127.9967
408.7227, 128.0749
409.2048, 127.9977
409.6869, 127.6990
410.1690, 127.0969
410.6512, 126.2168
411.1333, 125.1497
411.6154, 123.8966
412.0975, 122.4917
412.5796, 120.9367
413.0617, 119.2474
413.5439, 117.4771
414.0260, 115.5659
414.5081, 113.6063
414.9902, 111.7896
415.4723, 110.1370
415.9544, 108.4435
416.4366, 106.3900
416.9187, 104.2346
417.4008, 102.3714
417.8829, 101.1184
418.3650, 100.0357
418.8471, 98.87912
419.3293, 97.66758
419.8114, 96.45585
420.2935, 95.19257
420.7756, 93.99075
421.2577, 92.96851
421.7398, 92.20926
422.2220, 91.46631
422.7041, 90.63033
423.1862, 89.77966
423.6683, 89.05111
424.1504, 88.55907
424.6325, 88.08237
425.1147, 87.56896
425.5968, 87.00692
426.0789, 86.44881
426.5610, 85.83277
427.0431, 85.27622
427.5252, 84.88577
428.0074, 84.70750
428.4895, 84.60145
428.9716, 84.61704
429.4537, 84.67426
429.9358, 84.47995
430.4179, 83.95958
430.9001, 83.45168
431.3822, 83.12105
431.8643, 82.96890
432.3464, 82.93741
432.8285, 83.06248
433.3106, 83.19148
433.7928, 83.14120
434.2749, 82.92094
434.7570, 82.58949
435.2391, 82.06943
435.7212, 81.52528
436.2033, 81.29294
436.6855, 81.35761
437.1676, 81.54708
437.6497, 81.90496
438.1318, 82.26152
438.6139, 82.31712
439.0960, 81.96520
439.5782, 81.52888
440.0603, 81.18052
440.5424, 80.94315
441.0245, 80.86331
441.5066, 81.14626
441.9887, 81.43674
442.4709, 81.51662
442.9530, 81.38451
443.4351, 81.21220
443.9172, 81.02540
444.3993, 80.84589
444.8814, 80.69205
445.3636, 80.57522
445.8457, 80.46935
446.3278, 80.34859
446.8099, 80.23655
447.2920, 80.18916
447.7741, 80.23287
448.2563, 80.31686
448.7384, 80.47301
449.2205, 80.74297
449.7026, 80.75623
450.1847, 80.38803
450.6668, 79.92265
451.1490, 79.63438
451.6311, 79.57848
452.1132, 79.48547
452.5953, 79.30894
453.0774, 79.07640
453.5595, 78.83316
454.0417, 78.57178
454.5238, 78.35957
455.0059, 78.31303
455.4880, 78.37006
455.9701, 78.14001
456.4522, 77.57177
456.9344, 76.98506
457.4165, 76.70779
457.8986, 76.68604
458.3807, 76.79049
458.8628, 77.05872
459.3449, 77.34469
459.8271, 77.54815
460.3092, 77.64661
460.7913, 77.55140
461.2734, 76.89909
461.7555, 76.22010
462.2376, 76.06605
462.7198, 76.66058
463.2019, 77.08267
463.6840, 76.60030
464.1661, 75.80314
464.6482, 75.40475
465.1303, 76.15668
465.6125, 76.73499
466.0946, 76.67429
466.5767, 76.04647
467.0588, 75.57655
467.5409, 75.39749
468.0230, 75.31660
468.5052, 75.27329
468.9873, 75.34646
469.4694, 75.23614
469.9515, 74.78065
470.4336, 74.28325
470.9157, 74.25358
471.3979, 74.89944
471.8800, 75.28699
472.3621, 75.08655
472.8442, 74.44978
473.3263, 74.10726
473.8084, 74.08679
474.2906, 74.14278
474.7727, 74.08302
475.2548, 73.94104
475.7369, 73.89644
476.2190, 73.98414
476.7011, 74.09998
477.1833, 74.12742
477.6654, 74.08256
478.1475, 74.00862
478.6296, 73.82768
479.1117, 73.69323
479.5938, 73.84083
480.0760, 74.22359
480.5581, 74.52149
481.0402, 74.52506
481.5223, 74.38692
482.0044, 74.18849
482.4865, 73.85537
482.9687, 73.71239
483.4508, 74.08701
483.9329, 74.66236
484.4150, 74.98196
484.8971, 74.51077
485.3792, 74.25783
485.8614, 74.64022
486.3435, 75.59092
486.8256, 76.09195
487.3077, 75.82045
487.7898, 75.47382
488.2719, 75.45474
488.7541, 75.92920
489.2362, 76.18703
489.7183, 76.17123
490.2004, 76.00843
490.6825, 75.83495
491.1646, 75.63329
491.6468, 75.60551
492.1289, 75.85860
492.6110, 76.30113
493.0931, 76.72788
493.5752, 77.13876
494.0573, 77.43812
494.5395, 77.50906
495.0216, 77.42982
495.5037, 77.34143
495.9858, 77.24931
496.4679, 77.22086
496.9500, 77.40505
497.4322, 77.68237
497.9143, 77.85105
498.3964, 77.66673
498.8785, 77.50089
499.3606, 77.64307
499.8427, 78.01705
500.3249, 78.25551
500.8070, 78.05405
501.2891, 77.82598
501.7712, 77.81309
502.2533, 78.15567
502.7354, 78.37989
503.2176, 78.41338
503.6997, 78.32913
504.1818, 78.18356
504.6639, 77.88476
505.1460, 77.70478
505.6281, 77.75362
506.1103, 77.93837
506.5924, 77.85323
507.0745, 77.40821
507.5566, 77.00746
508.0387, 76.92780
508.5208, 77.14387
509.0030, 77.12668
509.4851, 76.85239
509.9672, 76.47869
510.4493, 76.08643
510.9314, 75.72092
511.4135, 75.57471
511.8957, 75.82483
512.3778, 76.09504
512.8599, 75.84384
513.3420, 75.23427
513.8242, 74.74288
514.3063, 74.85935
514.7884, 75.01322
515.2705, 74.69055
515.7526, 73.85629
516.2347, 73.08524
516.7169, 72.68931
517.1990, 72.39690
517.6811, 71.99907
518.1632, 71.32337
518.6453, 70.72652
519.1274, 70.25179
519.6096, 69.87373
520.0917, 69.56792
520.5738, 69.42928
521.0559, 69.19675
521.5380, 68.72314
522.0201, 68.03958
522.5023, 67.75325
522.9844, 67.99261
523.4665, 68.26424
523.9486, 68.15736
524.4307, 67.69621
524.9128, 67.40395
525.3950, 67.35089
525.8771, 67.37765
526.3592, 67.33176
526.8413, 67.19980
527.3234, 66.91962
527.8055, 66.35667
528.2877, 65.74523
528.7698, 65.32457
529.2519, 65.08388
529.7340, 64.96079
530.2161, 64.91676
530.6982, 64.98096
531.1804, 65.25033
531.6625, 65.79534
532.1446, 66.15096
532.6267, 66.03597
533.1088, 65.72303
533.5909, 65.46543
534.0731, 65.31783
534.5552, 65.19738
535.0373, 65.04259
535.5194, 64.91801
536.0015, 65.02600
536.4836, 65.56648
536.9658, 65.92459
537.4479, 65.82604
537.9300, 65.29633
538.4121, 64.88204
538.8942, 64.58331
539.3763, 64.40774
539.8585, 64.45090
540.3406, 64.65556
540.8227, 64.65964
541.3048, 64.37285
541.7869, 64.03855
542.2690, 63.93554
542.7512, 64.02178
543.2333, 64.19482
543.7154, 64.57059
544.1975, 64.88364
544.6796, 64.78449
545.1617, 64.38633
545.6439, 64.19137
546.1260, 64.70031
546.6081, 65.27391
547.0902, 65.51698
547.5723, 65.30341
548.0544, 65.10345
548.5366, 64.86363
549.0187, 64.73420
549.5008, 64.86706
549.9829, 65.53796
550.4650, 65.95914
550.9471, 65.97981
551.4293, 65.75979
551.9114, 65.68552
552.3935, 65.79397
552.8756, 65.86829
553.3577, 65.79876
553.8398, 65.62856
554.3220, 65.53645
554.8041, 65.52164
555.2862, 65.61535
555.7683, 65.94007
556.2504, 66.37174
556.7325, 66.65726
557.2147, 66.74897
557.6968, 66.77218
558.1789, 66.75784
558.6610, 66.76085
559.1431, 66.86211
559.6252, 67.32922
560.1074, 67.65417
560.5895, 67.49808
561.0716, 67.01306
561.5537, 66.71226
562.0358, 66.83696
562.5179, 67.02558
563.0001, 67.19319
563.4822, 67.35428
563.9643, 67.31387
564.4464, 66.93736
564.9285, 66.54913
565.4106, 66.39356
565.8928, 66.49942
566.3749, 66.66197
566.8570, 66.88216
567.3391, 67.12293
567.8212, 67.40224
568.3033, 67.69110
568.7855, 67.73110
569.2676, 67.26293
569.7497, 66.67447
570.2318, 66.57096
570.7139, 66.87292
571.1960, 67.22424
571.6782, 67.50161
572.1603, 67.68208
572.6424, 67.70838
573.1245, 67.56655
573.6066, 67.44274
574.0887, 67.43040
574.5709, 67.45091
575.0530, 67.44276
575.5351, 67.08863
576.0172, 67.32771
576.4993, 67.44868
576.9814, 67.45789
577.4636, 67.02055
577.9457, 67.15983
578.4278, 67.06802
578.9099, 66.96674
579.3920, 67.18717
579.8741, 66.81479
580.3563, 67.03011
580.8384, 67.01083
581.3205, 67.09892
581.8026, 66.95451
582.2847, 66.88192
582.7668, 67.04190
583.2490, 67.07309
583.7311, 66.90192
584.2132, 66.99683
584.6953, 66.61633
585.1774, 66.65302
585.6595, 66.86970
586.1416, 66.71021
586.6237, 66.92004
587.1058, 66.99023
587.5880, 66.80232
588.0701, 66.58383
588.5522, 66.33697
589.0343, 66.08794
589.5164, 65.96873
589.9985, 66.03624
590.4807, 66.14096
590.9628, 66.26435
591.4449, 66.41051
591.9270, 66.28738
592.4091, 65.82899
592.8912, 65.38136
593.3734, 65.29581
593.8555, 65.50266
594.3376, 65.70412
594.8197, 65.88094
595.3018, 65.95231
595.7839, 65.73280
596.2661, 65.35389
596.7482, 65.06815
597.2303, 65.01920
597.7124, 65.04509
598.1945, 65.07780
598.6766, 65.11340
599.1588, 65.13824
599.6409, 65.09708
600.1230, 65.09346
600.6051, 65.18908
601.0872, 65.39148
601.5693, 65.54973
602.0515, 65.66375
602.5336, 65.73050
603.0157, 65.73714
603.4978, 65.67011
603.9799, 65.61925
604.4620, 65.58593
604.9442, 65.56791
605.4263, 65.58199
605.9084, 65.61660
606.3905, 65.58834
606.8726, 65.42953
607.3547, 65.29405
607.8369, 65.43546
608.3190, 65.75540
608.8011, 66.00704
609.2832, 66.06655
609.7653, 66.02207
610.2474, 65.80217
610.7296, 65.46003
611.2117, 65.39634
611.6938, 66.06561
612.1759, 66.74752
612.6580, 67.06364
613.1401, 66.91710
613.6223, 66.83174
614.1044, 66.83638
614.5865, 66.86436
615.0686, 66.81883
615.5507, 66.66817
616.0328, 66.74116
616.5150, 67.10719
616.9971, 67.61757
617.4792, 68.07331
617.9613, 68.48418
618.4434, 68.89033
618.9255, 69.29820
619.4077, 69.71670
619.8898, 70.11369
620.3719, 70.52554
620.8540, 71.07189
621.3361, 72.02483
621.8182, 72.94010
622.3004, 73.50451
622.7825, 73.70869
623.2646, 74.02021
623.7467, 74.49062
624.2288, 75.12341
624.7109, 75.95507
625.1931, 77.10061
625.6752, 78.02576
626.1573, 78.61922
626.6394, 79.18459
627.1215, 80.09465
627.6036, 81.35571
628.0858, 82.46648
628.5679, 83.32333
629.0500, 84.07484
629.5321, 84.92402
630.0142, 85.85023
630.4963, 86.76573
630.9785, 87.76491
631.4606, 88.62389
631.9427, 89.08610
632.4248, 89.23697
632.9069, 89.34805
633.3890, 89.49345
633.8712, 89.65784
634.3533, 89.91306
634.8354, 90.28228
635.3175, 90.32876
635.7996, 89.89104
636.2817, 89.30117
636.7639, 88.68065
637.2460, 87.97867
637.7281, 87.56668
638.2102, 87.52583
638.6923, 87.53284
639.1744, 87.19200
639.6566, 86.56383
640.1387, 85.97179
640.6208, 85.46534
641.1029, 85.07844
641.5850, 84.96899
642.0671, 85.00441
642.5493, 84.91542
643.0314, 84.43954
643.5135, 83.96291
643.9956, 83.78441
644.4777, 83.77991
644.9598, 83.55692
645.4420, 82.66650
645.9241, 81.92561
646.4062, 81.61578
646.8883, 81.71894
647.3704, 81.81006
647.8525, 81.90041
648.3347, 81.95291
648.8168, 81.95003
649.2989, 81.89124
649.7810, 81.74533
650.2631, 81.50269
650.7452, 81.25320
651.2274, 81.08121
651.7095, 80.96851
652.1916, 80.86093
652.6737, 80.72997
653.1558, 80.68351
653.6379, 80.91261
654.1201, 81.23598
654.6022, 81.41638
655.0843, 81.26973
655.5664, 81.10466
656.0485, 81.03268
656.5306, 80.98354
657.0128, 80.78465
657.4949, 80.31258
657.9770, 79.92357
658.4591, 79.70869
658.9412, 79.64529
659.4233, 79.68430
659.9055, 79.84382
660.3876, 79.90605
660.8697, 79.77454
661.3518, 79.45539
661.8339, 78.85532
662.3160, 77.99966
662.7982, 77.26185
663.2803, 77.06761
663.7624, 77.02483
664.2445, 76.72073
664.7266, 76.04649
665.2087, 75.45664
665.6909, 75.20856
666.1730, 75.04591
666.6551, 74.74827
667.1372, 74.15630
667.6193, 73.69579
668.1014, 73.41270
668.5836, 73.21962
669.0657, 73.00593
669.5478, 72.77174
670.0299, 72.52852
670.5120, 72.26611
670.9941, 72.01865
671.4763, 71.87503
671.9584, 71.80711
672.4405, 71.70263
672.9226, 71.42085
673.4047, 71.15465
673.8868, 71.14204
674.3690, 71.30319
674.8511, 71.35336
675.3332, 70.98165
675.8153, 70.66304
676.2974, 70.69602
676.7795, 71.10610
677.2617, 71.15630
677.7438, 70.56405
678.2259, 70.04177
678.7080, 69.99765
679.1901, 70.46774
679.6722, 70.83111
680.1544, 71.07931
680.6365, 71.29892
681.1186, 71.59425
681.6007, 71.92370
682.0828, 72.19922
682.5649, 72.41089
683.0471, 72.53578
683.5292, 72.41444
684.0113, 72.24742
684.4934, 72.27769
684.9755, 72.62024
685.4576, 73.08462
685.9398, 73.71729
686.4219, 74.42001
686.9040, 75.01702
687.3861, 75.34872
687.8682, 75.91360
688.3503, 76.87373
688.8325, 78.05527
689.3146, 78.92670
689.7967, 79.47865
690.2788, 80.18574
690.7609, 81.23806
691.2430, 82.55830
691.7252, 84.15357
692.2073, 85.96129
692.6894, 87.63199
693.1715, 88.82395
693.6536, 89.92090
694.1357, 91.20865
694.6179, 92.69180
695.1000, 94.13077
695.5821, 95.42017
696.0642, 96.68929
696.5463, 97.95774
697.0284, 99.18749
697.5106, 100.7308
697.9927, 102.7486
698.4748, 104.7113
698.9569, 106.0849
699.4390, 106.9534
699.9211, 108.0001
700.4033, 109.3072
700.8854, 110.5386
701.3675, 111.4082
701.8496, 111.9640
702.3317, 112.2634
702.8138, 112.2761
703.2960, 112.1444
703.7781, 112.0190
704.2602, 111.7569
704.7423, 111.1828
705.2244, 109.9480
705.7065, 108.8141
706.1887, 107.9497
706.6708, 107.1469
707.1529, 105.9521
707.6350, 104.3012
708.1171, 102.6196
708.5992, 100.9775
709.0814, 99.41391
709.5635, 98.00436
710.0456, 96.72097
710.5277, 95.46213
711.0098, 94.22048
711.4919, 92.94961
711.9741, 91.61306
712.4562, 90.22353
712.9383, 88.78218
713.4204, 87.09908
713.9025, 85.54317
714.3846, 84.30966
714.8668, 83.37148
715.3489, 82.48792
715.8310, 81.67641
716.3131, 80.86840
716.7952, 79.97256
717.2773, 79.01538
717.7595, 78.32161
718.2416, 77.90862
718.7237, 77.51486
719.2058, 76.81750
719.6879, 76.04211
720.1700, 75.63094
720.6522, 75.64558
721.1343, 75.60319
721.6164, 75.13764
722.0985, 74.54857
722.5806, 74.07930
723.0627, 73.86145
723.5449, 73.54566
724.0270, 73.03952
724.5091, 72.49953
724.9912, 72.07009
725.4733, 71.76057
725.9554, 71.49199
726.4376, 71.27258
726.9197, 71.04323
727.4018, 70.68639
727.8839, 70.25278
728.3660, 69.92557
728.8481, 69.81190
729.3303, 69.66297
729.8124, 69.16856
730.2945, 68.52632
730.7766, 68.04308
731.2587, 67.97148
731.7408, 67.87160
732.2230, 67.64860
732.7051, 67.33329
733.1872, 66.95341
733.6693, 66.45177
734.1514, 66.06476
734.6335, 65.86732
735.1157, 65.80130
735.5978, 65.70808
736.0799, 65.59924
736.5620, 65.57132
737.0441, 65.70861
737.5262, 65.91888
738.0084, 66.14970
738.4905, 66.37458
738.9726, 66.50269
739.4547, 66.35049
739.9368, 66.23139
740.4189, 66.29581
740.9011, 66.54157
741.3832, 66.78898
741.8653, 67.05260
742.3474, 67.28940
742.8295, 67.44722
743.3116, 67.55012
743.7938, 67.78707
744.2759, 68.15813
744.7580, 68.64914
745.2401, 69.37998
745.7222, 70.16161
746.2043, 70.65974
746.6865, 70.87841
747.1686, 71.12553
747.6507, 71.67018
748.1328, 72.23306
748.6149, 72.59571
749.0970, 72.65939
749.5792, 72.90257
750.0613, 73.52380
750.5434, 74.09444
751.0255, 74.30032
751.5076, 74.09609
751.9897, 74.10512
752.4719, 74.38924
752.9540, 74.56152
753.4361, 74.17004
753.9182, 73.42445
754.4003, 72.73616
754.8824, 72.17369
755.3646, 71.60282
755.8467, 70.83682
756.3288, 70.07872
756.8109, 69.55933
757.2930, 69.50108
757.7751, 69.27311
758.2573, 68.77044
758.7394, 68.15248
759.2215, 67.55305
759.7036, 66.96194
760.1857, 66.40466
760.6678, 65.86607
761.1500, 65.44372
761.6321, 65.36495
762.1142, 65.50313
762.5963, 65.56028
763.0784, 65.48271
763.5605, 65.25457
764.0427, 64.74222
764.5248, 64.11940
765.0069, 63.60398
765.4890, 63.32288
765.9711, 63.04957
766.4532, 62.72185
766.9354, 62.42095
767.4175, 62.27459
767.8996, 62.30405
768.3817, 62.39129
768.8638, 62.57550
769.3459, 62.67437
769.8281, 62.21217
770.3102, 61.40900
770.7923, 60.92509
771.2744, 61.10988
771.7565, 61.48941
772.2386, 61.86808
772.7208, 62.19196
773.2029, 62.36712
773.6850, 62.24799
774.1671, 62.12855
774.6492, 62.04702
775.1313, 61.99039
775.6135, 61.94223
776.0956, 61.91007
776.5777, 61.82512
777.0598, 61.64744
777.5419, 61.43952
778.0240, 61.34623
778.5062, 61.32029
778.9883, 61.21101
779.4704, 60.70584
779.9525, 60.34716
780.4346, 60.67567
780.9167, 61.40135
781.3989, 61.81144
781.8810, 61.49200
782.3631, 61.16889
782.8452, 60.96029
783.3273, 60.83801
783.8094, 60.70977
784.2916, 60.56973
784.7737, 60.49208
785.2558, 60.54323
785.7379, 60.62748
786.2200, 60.55884
786.7021, 60.36769
787.1843, 60.16136
787.6664, 59.93853
788.1485, 59.76236
788.6306, 59.65860
789.1127, 59.62936
789.5948, 59.69240
790.0770, 59.96650
790.5591, 60.15598
791.0412, 60.18113
791.5233, 60.07472
792.0054, 59.92863
792.4875, 59.74178
792.9697, 59.59730
793.4518, 59.57934
793.9339, 59.58427
794.4160, 59.36797
794.8981, 59.01979
795.3802, 58.83766
795.8624, 59.21209
796.3445, 59.53801
796.8266, 59.49794
797.3087, 59.14729
797.7908, 58.81842
798.2729, 58.50738
798.7551, 58.23924
799.2372, 57.98523
799.7193, 57.79131
800.2014, 57.94048
800.6835, 58.39554
801.1656, 58.62627
801.6478, 58.13469
802.1299, 57.44902
802.6120, 57.15537
803.0941, 57.18518
803.5762, 57.31733
804.0583, 57.66531
804.5405, 57.89094
805.0226, 57.71220
805.5047, 57.28031
805.9868, 57.24825
806.4689, 57.80584
806.9510, 58.15934
807.4332, 57.95514
807.9153, 57.41933
808.3974, 57.16399
808.8795, 57.16482
809.3616, 57.28279
809.8438, 57.59919
810.3259, 57.87201
810.8080, 57.85620
811.2901, 57.62671
811.7722, 57.43147
812.2543, 57.27206
812.7365, 57.24157
813.2186, 57.44878
813.7007, 57.78743
814.1828, 57.81992
814.6649, 57.49560
815.1470, 57.26908
815.6292, 57.35305
816.1113, 57.58761
816.5934, 57.67758
817.0755, 57.66139
817.5576, 57.66674
818.0397, 57.74506
818.5219, 57.87097
819.0040, 58.06253
819.4861, 58.29524
819.9682, 58.48512
820.4503, 58.60286
820.9324, 58.72549
821.4146, 58.86309
821.8967, 59.01825
822.3788, 59.21977
822.8609, 59.45977
823.3430, 59.62968
823.8251, 59.64610
824.3073, 59.63259
824.7894, 59.68574
825.2715, 59.82689
825.7536, 60.10472
826.2357, 60.83133
826.7178, 61.35810
827.2000, 61.23725
827.6821, 60.85966
828.1642, 60.98688
828.6463, 61.79369
829.1284, 62.47140
829.6105, 62.80703
830.0927, 63.03164
830.5748, 63.66880
831.0569, 64.57587
831.5390, 65.24960
832.0211, 65.38194
832.5032, 65.47198
832.9854, 65.88938
833.4675, 66.48828
833.9496, 67.03954
834.4317, 67.58383
834.9138, 67.94243
835.3959, 68.02207
835.8781, 67.98377
836.3602, 68.05493
836.8423, 68.23475
837.3244, 68.55122
837.8065, 69.08504
838.2886, 69.49663
838.7708, 69.23283
839.2529, 68.61694
839.7350, 68.18511
840.2171, 68.16879
840.6992, 68.17580
841.1813, 68.10126
841.6635, 67.97188
842.1456, 67.83707
842.6277, 67.76894
843.1098, 67.44091
843.5919, 66.77431
844.0740, 66.01048
844.5562, 65.42551
845.0383, 64.98388
845.5204, 64.58414
846.0025, 64.20698
846.4846, 63.90186
846.9667, 63.87263
847.4489, 63.83235
847.9310, 63.47552
848.4131, 62.56066
848.8952, 61.86552
849.3773, 61.45872
849.8594, 61.19859
850.3416, 60.98026
850.8237, 60.80505
851.3058, 60.78617
851.7879, 60.94158
852.2700, 61.02962
852.7521, 60.78105
853.2343, 60.39011
853.7164, 60.05283
854.1985, 59.79180
854.6806, 59.64459
855.1627, 59.70906
855.6448, 59.81831
856.1270, 59.92939
856.6091, 60.04736
857.0912, 59.87724
857.5733, 59.35922
858.0554, 58.89477
858.5375, 58.78693
859.0197, 58.90005
859.5018, 58.97868
859.9839, 59.01211
860.4660, 58.95741
860.9481, 58.70077
861.4302, 58.43276
861.9124, 58.23671
862.3945, 58.12310
862.8766, 58.10022
863.3587, 58.25060
863.8408, 58.29494
864.3229, 58.09538
864.8051, 57.75111
865.2872, 57.55215
865.7693, 57.48434
866.2514, 57.47628
866.7335, 57.62230
867.2156, 57.68766
867.6978, 57.37140
868.1799, 56.84418
868.6620, 56.49158
869.1441, 56.64461
869.6262, 56.65168
870.1083, 56.32648
870.5905, 55.88629
871.0726, 55.82878
871.5547, 56.13993
872.0368, 56.28572
872.5189, 56.07920
873.0010, 55.81490
873.4832, 55.82368
873.9653, 56.00914
874.4474, 56.22445
874.9295, 56.53262
875.4116, 56.68637
875.8937, 56.54422
876.3759, 56.27457
876.8580, 55.99220
877.3401, 55.66022
877.8222, 55.57202
878.3043, 55.80259
878.7864, 56.03279
879.2686, 55.86560
879.7507, 55.47590
880.2328, 55.17626
880.7149, 55.01647
881.1970, 54.89795
881.6791, 54.75010
882.1613, 54.64560
882.6434, 54.64935
883.1255, 54.77851
883.6076, 54.87944
884.0897, 54.95201
884.5718, 54.99912
885.0540, 54.98576
885.5361, 54.95221
886.0182, 55.05457
886.5003, 55.27573
886.9824, 55.47059
887.4645, 55.58297
887.9467, 55.61213
888.4288, 55.54977
888.9109, 55.39564
889.3930, 55.15443
889.8751, 54.69812
890.3572, 54.44728
890.8394, 54.60105
891.3215, 55.00092
891.8036, 55.25066
892.2857, 55.35071
892.7678, 55.30580
893.2499, 54.98494
893.7321, 54.68249
894.2142, 54.63280
894.6963, 54.75415
895.1784, 54.89141
895.6605, 55.09905
896.1426, 55.18446
896.6248, 55.05189
897.1069, 54.88523
897.5890, 55.06771
898.0711, 55.53889
898.5532, 55.63155
899.0353, 55.15634
899.5175, 54.62534
899.9996, 54.53728
900.4817, 54.65885
900.9638, 54.69977
901.4459, 54.52473
901.9280, 54.52538
902.4102, 54.91848
902.8923, 55.28086
903.3744, 55.26828
903.8565, 54.87007
904.3386, 54.65458
904.8207, 54.63039
905.3029, 54.66772
905.7850, 54.67207
906.2671, 54.68085
906.7492, 54.75457
907.2313, 54.88835
907.7134, 54.98272
908.1956, 54.73362
908.6777, 54.55131
909.1598, 55.07841
909.6419, 55.40574
910.1240, 55.54405
910.6061, 54.92716
911.0883, 55.28547
911.5704, 55.25294
912.0525, 55.20440
912.5346, 55.69994
913.0167, 55.19290
913.4988, 55.67981
913.9810, 55.76997
914.4631, 55.76448
914.9452, 55.98048
915.4273, 56.14462
915.9094, 56.10799
916.3915, 55.84311
916.8737, 55.78401
917.3558, 56.03070
917.8379, 56.31311
918.3200, 56.30089
918.8021, 56.13547
919.2842, 56.01457
919.7664, 55.97593
920.2485, 55.98479
920.7306, 56.04081
921.2127, 56.13508
921.6948, 56.26978
922.1769, 56.44925
922.6591, 56.61304
923.1412, 56.76429
923.6233, 56.86846
924.1054, 56.80739
924.5875, 56.73982
925.0696, 56.98447
925.5518, 57.47015
926.0339, 57.78177
926.5160, 57.60151
926.9981, 57.38427
927.4802, 57.27700
927.9623, 57.24892
928.4445, 57.17957
928.9266, 57.05628
929.4087, 57.06627
929.8908, 57.30537
930.3729, 57.62105
930.8550, 57.84025
931.3372, 57.98027
931.8193, 58.07079
932.3014, 58.16706
932.7835, 58.13677
933.2656, 57.73059
933.7477, 57.35259
934.2299, 57.41124
934.7120, 57.96204
935.1941, 58.46326
935.6762, 58.90080
936.1583, 59.17230
936.6404, 59.03851
937.1226, 58.75216
937.6047, 58.67278
938.0868, 58.83251
938.5689, 58.93272
939.0510, 58.73941
939.5331, 58.62053
940.0153, 58.77307
940.4974, 59.13212
940.9795, 59.18157
941.4616, 58.91405
941.9437, 58.82282
942.4258, 59.30282
942.9080, 59.88340
943.3901, 59.91709
943.8722, 59.62267
944.3543, 59.46876
944.8364, 59.72424
945.3185, 59.97300
945.8007, 60.14157
946.2828, 60.28603
946.7649, 60.51322
947.2470, 60.81861
947.7291, 60.96424
948.2112, 60.89057
948.6934, 60.86350
949.1755, 61.32117
949.6576, 61.85602
950.1397, 61.93210
950.6218, 61.35124
951.1039, 61.13446
951.5861, 61.58601
952.0682, 62.15859
952.5503, 62.62559
953.0324, 62.98765
953.5145, 63.24103
953.9966, 63.38709
954.4788, 63.45751
954.9609, 63.37796
955.4430, 63.31523
955.9251, 63.43074
956.4072, 63.66791
956.8893, 63.87296
957.3715, 63.97871
957.8536, 64.13204
958.3357, 64.37301
958.8178, 64.63358
959.2999, 64.81796
959.7820, 64.92788
960.2642, 64.95539
960.7463, 64.88583
961.2284, 64.81168
961.7105, 64.79565
962.1926, 64.80735
962.6747, 64.79248
963.1569, 64.70272
963.6390, 64.87353
964.1211, 65.44177
964.6032, 65.89980
965.0853, 65.80205
965.5674, 65.38699
966.0496, 65.44498
966.5317, 65.85944
967.0138, 66.07191
967.4959, 65.49951
967.9780, 64.95570
968.4601, 64.92682
968.9423, 65.19501
969.4244, 65.24953
969.9065, 65.03203
970.3886, 64.84263
970.8707, 64.71996
971.3528, 64.67412
971.8350, 64.73251
972.3171, 64.87178
972.7992, 65.07968
973.2813, 65.39257
973.7634, 65.59032
974.2455, 65.55275
974.7277, 65.39915
975.2098, 65.15035
975.6919, 64.80203
976.1740, 64.73936
976.6561, 64.97375
977.1382, 65.24089
977.6204, 65.35533
978.1025, 65.43060
978.5846, 65.70077
979.0667, 66.05241
979.5488, 66.15260
980.0309, 65.59871
980.5131, 65.17120
980.9952, 64.99417
981.4773, 64.99681
981.9594, 65.12014
982.4415, 65.34062
982.9236, 65.46404
983.4058, 65.44826
983.8879, 65.36829
984.3700, 65.24801
984.8521, 65.11884
985.3342, 65.01470
985.8163, 64.94915
986.2985, 64.84852
986.7806, 64.66988
987.2627, 64.55476
987.7448, 64.58050
988.2269, 64.72388
988.7090, 64.92842
989.1912, 65.18977
989.6733, 65.48696
990.1554, 66.01385
990.6375, 66.35429
991.1196, 66.15429
991.6017, 65.68755
992.0839, 65.40811
992.5660, 65.32069
993.0481, 65.44846
993.5302, 65.85136
994.0123, 66.23631
994.4944, 66.17886
994.9766, 65.92421
995.4587, 65.85480
995.9408, 66.02945
996.4229, 66.21316
996.9050, 66.34959
997.3871, 66.45255
997.8693, 66.52238
998.3514, 66.56266
998.8335, 66.58156
999.3156, 66.58181
999.7977, 66.61021
1000.280, 66.69636
1000.762, 66.80917
1001.244, 66.92639
1001.726, 67.05039
1002.208, 67.18738
1002.690, 67.41772
1003.173, 67.50500
1003.655, 67.36938
1004.137, 67.23768
1004.619, 67.39086
1005.101, 67.74207
1005.583, 67.97836
1006.065, 68.08544
1006.547, 68.16620
1007.029, 68.27453
1007.512, 68.38058
1007.994, 68.45719
1008.476, 68.51357
1008.958, 68.59628
1009.440, 68.71127
1009.922, 68.80936
1010.404, 68.87356
1010.886, 68.91887
1011.369, 68.95915
1011.851, 68.99923
1012.333, 69.03359
1012.815, 68.78809
1013.297, 69.07485
1013.779, 69.24705
1014.261, 69.31082
1014.743, 68.94148
1015.225, 69.13142
1015.708, 69.09729
1016.190, 69.05391
1016.672, 69.32257
1017.154, 69.01623
1017.636, 69.27995
1018.118, 69.10936
1018.600, 69.33109
1019.082, 69.43824
1019.565, 69.43689
1020.047, 69.00251
1020.529, 69.12742
1021.011, 69.02818
1021.493, 68.91976
1021.975, 69.12338
1022.457, 68.75200
1022.939, 68.95067
1023.421, 68.92179
1023.904, 68.99697
1024.386, 68.84672
1024.868, 68.63174
1025.350, 68.49548
1025.832, 68.40968
1026.314, 68.37435
1026.796, 68.33678
1027.278, 68.27354
1027.760, 68.19750
1028.243, 68.09736
1028.725, 68.00112
1029.207, 67.95893
1029.689, 68.09859
1030.171, 68.06477
1030.653, 67.76429
1031.135, 67.47686
1031.617, 67.55156
1032.100, 67.84946
1032.582, 67.93053
1033.064, 67.79341
1033.546, 67.70998
1034.028, 67.80587
1034.510, 68.01364
1034.992, 68.38604
1035.474, 68.83064
1035.957, 69.07658
1036.439, 69.12236
1036.921, 69.02481
1037.403, 68.74937
1037.885, 68.50460
1038.367, 68.55698
1038.849, 68.76497
1039.331, 68.94100
1039.813, 69.02055
1040.296, 69.23681
1040.778, 69.65388
1041.260, 70.09795
1041.742, 70.50726
1042.224, 70.85514
1042.706, 70.98820
1043.188, 70.95516
1043.670, 70.95438
1044.152, 71.07421
1044.635, 71.25157
1045.117, 71.39510
1045.599, 71.62209
1046.081, 72.15224
1046.563, 73.07204
1047.045, 73.54727
1047.527, 73.48124
1048.009, 73.49328
1048.492, 74.40731
1048.974, 75.49278
1049.456, 75.94971
1049.938, 75.77968
1050.420, 75.56916
1050.902, 75.26204
1051.384, 75.17350
1051.866, 75.37788
1052.349, 75.84504
1052.831, 76.72392
1053.313, 77.80614
1053.795, 78.49944
1054.277, 78.60018
1054.759, 78.52938
1055.241, 78.17432
1055.723, 77.99919
1056.205, 78.42492
1056.688, 79.42149
1057.170, 79.68937
1057.652, 79.22785
1058.134, 78.78883
1058.616, 78.86301
1059.098, 79.02818
1059.580, 78.98815
1060.062, 78.73484
1060.544, 78.22747
1061.027, 77.24195
1061.509, 76.45004
1061.991, 75.87666
1062.473, 75.50301
1062.955, 75.41838
1063.437, 75.48848
1063.919, 75.51705
1064.401, 75.45844
1064.884, 75.06871
1065.366, 73.79564
1065.848, 72.71128
1066.330, 72.16833
1066.812, 72.00370
1067.294, 71.95560
1067.776, 72.00208
1068.258, 71.87156
1068.740, 71.47559
1069.223, 71.08841
1069.705, 70.55235
1070.187, 70.39139
1070.669, 71.24399
1071.151, 73.18116
1071.633, 74.86292
1072.115, 76.52753
1072.597, 77.34283
1073.079, 77.94164
1073.562, 78.33642
1074.044, 77.91235
1074.526, 78.54478
1075.008, 78.75386
1075.490, 78.94550
1075.972, 79.72663
1076.454, 79.42157
1076.936, 80.19337
1077.419, 80.53591
1077.901, 80.36736
1078.383, 80.64052
1078.865, 80.08493
1079.347, 80.57523
1079.829, 80.63155
1080.311, 80.65995
1080.793, 81.26715
1081.275, 80.77768
1081.758, 81.35464
1082.240, 81.49090
1082.722, 81.81332
1083.204, 81.69915
1083.686, 81.70599
1084.168, 82.12835
1084.650, 82.30419
1085.132, 82.09866
1085.615, 82.37015
1086.097, 81.75990
1086.579, 80.14538
1087.061, 78.09476
1087.543, 75.36433
1088.025, 72.66948
1088.507, 71.33505
1088.989, 70.86935
1089.471, 70.39174
1089.953, 69.65397
1090.436, 69.11504
1090.918, 69.05480
1091.400, 68.96568
1091.882, 68.58391
1092.364, 67.95728
1092.846, 67.21152
1093.328, 66.40049
1093.810, 65.75945
1094.293, 65.56750
1094.775, 65.33452
1095.257, 64.71079
1095.739, 64.00426
1096.221, 63.55022
1096.703, 63.37576
1097.185, 63.23042
1097.667, 63.11066
1098.150, 62.95690
1098.632, 62.69658
1099.114, 62.41008
1099.596, 62.09197
1100.078, 61.80449
1100.560, 61.76725
1101.042, 62.15253
1101.524, 62.28404
1102.006, 62.05585
1102.489, 61.62156
1102.971, 60.95005
1103.453, 60.28109
1103.935, 60.08614
1104.417, 60.38621
1104.899, 60.52327
1105.381, 60.25286
1105.863, 59.92388
1106.345, 59.61724
1106.828, 59.31591
1107.310, 58.91764
1107.792, 58.49877
1108.274, 58.34180
1108.756, 58.57212
1109.238, 58.77251
1109.720, 58.73494
1110.202, 58.60850
1110.685, 58.45656
1111.167, 58.28875
1111.649, 58.18562
1112.131, 58.14546
1112.613, 58.15868
1113.095, 58.26976
1113.577, 58.34858
1114.059, 58.22575
1114.542, 58.06302
1115.024, 58.08513
1115.506, 58.38578
1115.988, 58.34647
1116.470, 57.92521
1116.952, 57.58575
1117.434, 57.76540
1117.916, 58.08773
1118.398, 58.13878
1118.880, 58.00853
1119.363, 57.91620
1119.845, 57.83464
1120.327, 57.94477
1120.809, 58.31370
1121.291, 58.69727
1121.773, 58.84671
1122.255, 58.84462
1122.737, 58.83538
1123.220, 58.81819
1123.702, 58.72894
1124.184, 58.45504
1124.666, 58.22498
1125.148, 58.05943
1125.630, 57.98414
1126.112, 58.14346
1126.594, 58.42141
1127.077, 58.42346
1127.559, 58.08525
1128.041, 57.74380
1128.523, 57.51412
1129.005, 57.38409
1129.487, 57.41130
1129.969, 57.49545
1130.451, 57.28301
1130.933, 56.81059
1131.416, 56.36473
1131.898, 56.01061
1132.380, 55.71899
1132.862, 55.41742
1133.344, 55.21327
1133.826, 55.25840
1134.308, 55.52528
1134.790, 55.46801
1135.272, 55.07664
1135.755, 54.72677
1136.237, 54.58701
1136.719, 54.51507
1137.201, 54.41016
1137.683, 54.28024
1138.165, 54.13654
1138.647, 53.98932
1139.129, 53.77252
1139.612, 53.46416
1140.094, 53.24030
1140.576, 53.31577
1141.058, 53.45384
1141.540, 53.29502
1142.022, 52.97915
1142.504, 52.80560
1142.986, 52.91622
1143.469, 53.03292
1143.951, 53.18940
1144.433, 53.23178
1144.915, 52.91170
1145.397, 52.44343
1145.879, 52.20577
1146.361, 52.17639
1146.843, 52.21302
1147.325, 52.42332
1147.807, 52.46527
1148.290, 52.26258
1148.772, 51.94616
1149.254, 51.61686
1149.736, 51.31170
1150.218, 51.09954
1150.700, 50.98792
1151.182, 51.01247
1151.664, 51.31131
1152.147, 51.59678
1152.629, 51.78556
1153.111, 51.91805
1153.593, 52.09772
1154.075, 52.28605
1154.557, 52.31400
1155.039, 52.14931
1155.521, 51.94843
1156.004, 51.71204
1156.486, 51.55959
1156.968, 51.56621
1157.450, 51.67786
1157.932, 51.73886
1158.414, 51.75117
1158.896, 51.72245
1159.378, 51.64943
1159.860, 51.56360
1160.343, 51.40354
1160.825, 51.31860
1161.307, 51.44497
1161.789, 51.74430
1162.271, 51.93723
1162.753, 52.02518
1163.235, 52.03188
1163.717, 51.93156
1164.199, 51.83704
1164.682, 51.84138
1165.164, 51.89772
1165.646, 51.99704
1166.128, 52.15001
1166.610, 52.04096
1167.092, 51.66031
1167.574, 51.28912
1168.056, 51.02661
1168.539, 50.89409
1169.021, 51.01845
1169.503, 51.23302
1169.985, 51.27679
1170.467, 51.05706
1170.949, 51.07665
1171.431, 51.36285
1171.913, 51.64787
1172.396, 51.75257
1172.878, 51.77515
1173.360, 51.82456
1173.842, 51.86653
1174.324, 51.81555
1174.806, 51.56084
1175.288, 51.54526
1175.770, 51.82522
1176.252, 52.09385
1176.734, 52.11530
1177.217, 51.98262
1177.699, 51.71606
1178.181, 51.39105
1178.663, 51.22894
1179.145, 51.26863
1179.627, 51.45919
1180.109, 51.83652
1180.591, 52.20281
1181.074, 52.44918
1181.556, 52.51224
1182.038, 52.12951
1182.520, 51.43736
1183.002, 51.12451
1183.484, 51.51408
1183.966, 51.81916
1184.448, 51.96301
1184.931, 51.95068
1185.413, 51.64980
1185.895, 51.26652
1186.377, 51.16272
1186.859, 51.32841
1187.341, 51.47046
1187.823, 51.47663
1188.305, 51.59506
1188.787, 51.94796
1189.270, 52.23952
1189.752, 51.85434
1190.234, 51.21480
1190.716, 51.11610
1191.198, 51.62086
1191.680, 51.99535
1192.162, 52.03856
1192.644, 52.02721
1193.126, 52.01266
1193.609, 52.00076
1194.091, 52.01807
1194.573, 52.03917
1195.055, 51.99422
1195.537, 51.86726
1196.019, 51.82352
1196.501, 51.94687
1196.983, 52.06737
1197.466, 52.13191
1197.948, 52.17180
1198.430, 52.23678
1198.912, 52.32336
1199.394, 52.45261
1199.876, 52.64805
1200.358, 52.70321
1200.840, 52.53697
1201.323, 52.28466
1201.805, 51.92476
1202.287, 51.60463
1202.769, 51.74287
1203.251, 52.13296
1203.733, 52.29758
1204.215, 52.04678
1204.697, 52.00116
1205.179, 52.43416
1205.661, 52.76070
1206.144, 52.68994
1206.626, 52.38795
1207.108, 52.10884
1207.590, 51.91723
1208.072, 52.00680
1208.554, 52.58086
1209.036, 52.89943
1209.518, 52.74555
1210.001, 52.55165
1210.483, 52.51705
1210.965, 52.60269
1211.447, 52.80227
1211.929, 53.03169
1212.411, 53.09480
1212.893, 52.83280
1213.375, 52.67809
1213.858, 52.70976
1214.340, 52.78448
1214.822, 52.82233
1215.304, 52.84858
1215.786, 52.93797
1216.268, 53.06160
1216.750, 53.15469
1217.232, 53.21446
1217.714, 53.19380
1218.197, 53.05746
1218.679, 52.92128
1219.161, 52.86698
1219.643, 52.85766
1220.125, 52.79980
1220.607, 52.72279
1221.089, 52.69704
1221.571, 52.80518
1222.053, 52.84198
1222.536, 52.77439
1223.018, 52.69699
1223.500, 52.66472
1223.982, 52.67112
1224.464, 52.71430
1224.946, 52.78536
1225.428, 52.86343
1225.910, 52.91782
1226.393, 53.03832
1226.875, 53.25611
1227.357, 53.44446
1227.839, 53.46932
1228.321, 53.43058
1228.803, 53.51831
1229.285, 53.67237
1229.767, 53.75401
1230.250, 53.72490
1230.732, 53.60608
1231.214, 53.35886
1231.696, 53.17067
1232.178, 53.24255
1232.660, 53.41898
1233.142, 53.45242
1233.624, 53.42751
1234.106, 53.57237
1234.589, 54.13594
1235.071, 54.23999
1235.553, 53.78317
1236.035, 53.30724
1236.517, 53.17430
1236.999, 53.29676
1237.481, 53.82016
1237.963, 54.47242
1238.445, 54.59053
1238.928, 53.91045
1239.410, 53.53997
1239.892, 53.53605
1240.374, 53.62984
1240.856, 53.66953
1241.338, 53.66296
1241.820, 53.53404
1242.302, 53.39206
1242.785, 53.47782
1243.267, 53.86633
1243.749, 54.13221
1244.231, 54.26095
1244.713, 54.24536
1245.195, 53.90633
1245.677, 53.59712
1246.159, 53.67059
1246.641, 53.92506
1247.124, 53.98565
1247.606, 53.83641
1248.088, 53.61126
1248.570, 53.32328
1249.052, 53.24969
1249.534, 53.78287
1250.016, 54.36214
1250.498, 54.68429
1250.980, 54.82420
1251.463, 54.87883
1251.945, 54.84733
1252.427, 54.69120
1252.909, 54.42497
1253.391, 54.22119
1253.873, 54.25135
1254.355, 54.29242
1254.837, 54.25635
1255.320, 54.17495
1255.802, 54.00740
1256.284, 53.80575
1256.766, 53.99363
1257.248, 54.52881
1257.730, 54.99498
1258.212, 55.18933
1258.694, 55.25960
1259.177, 55.23281
1259.659, 55.13585
1260.141, 54.96914
1260.623, 54.75723
1261.105, 54.53334
1261.587, 54.33046
1262.069, 54.28890
1262.551, 54.67244
1263.033, 54.92561
1263.516, 54.99309
1263.998, 54.89335
1264.480, 54.45910
1264.962, 53.95481
1265.444, 54.07451
1265.926, 54.63679
1266.408, 54.92709
1266.890, 54.49581
1267.372, 54.27498
1267.855, 54.34697
1268.337, 54.52527
1268.819, 54.74273
1269.301, 54.90232
1269.783, 54.80364
1270.265, 54.53990
1270.747, 54.37271
1271.229, 54.35155
1271.712, 54.34497
1272.194, 54.34639
1272.676, 54.36806
1273.158, 54.40720
1273.640, 54.48189
1274.122, 54.62419
1274.604, 54.80951
1275.086, 55.01099
1275.568, 55.26249
1276.051, 55.25502
1276.533, 54.97811
1277.015, 54.73479
1277.497, 54.84996
1277.979, 54.91878
1278.461, 54.47514
1278.943, 53.99049
1279.425, 54.13822
1279.907, 54.90192
1280.390, 55.17710
1280.872, 54.99257
1281.354, 54.72618
1281.836, 54.32651
1282.318, 54.23289
1282.800, 54.87459
1283.282, 55.58221
1283.764, 55.73484
1284.247, 55.45604
1284.729, 55.31384
1285.211, 55.28986
1285.693, 55.30576
1286.175, 55.38027
1286.657, 55.40936
1287.139, 55.36110
1287.621, 55.31040
1288.104, 55.28978
1288.586, 55.32021
1289.068, 55.57982
1289.550, 55.90700
1290.032, 55.91615
1290.514, 55.08778
1290.996, 54.82554
1291.478, 55.26961
1291.960, 55.69764
1292.443, 55.52046
1292.925, 55.21937
1293.407, 55.47427
1293.889, 55.97709
1294.371, 56.22403
1294.853, 56.18037
1295.335, 55.89183
1295.817, 55.34636
1296.299, 54.95920
1296.782, 55.00401
1297.264, 55.18376
1297.746, 55.36009
1298.228, 55.49117
1298.710, 55.53969
1299.192, 55.51236
1299.674, 55.48866
1300.156, 55.46337
1300.639, 55.38350
1301.121, 55.16151
1301.603, 55.03740
1302.085, 55.16996
1302.567, 55.40902
1303.049, 55.69433
1303.531, 56.01448
##END=



