##NAMES=Elbaite
##RRUFFID=R060562
##IDEAL CHEMISTRY=Na(Al_1.5_Li_1.5_)Al_6_(Si_6_O_18_)(BO_3_)_3_(OH)_3_OH
##LOCALITY=unknown
##OWNER=RRUFF
##SOURCE=Gemological Institute of America
##DESCRIPTION=Blue colored polished fragment
##STATUS=The identification of this mineral has been confirmed by X-ray diffraction and chemical analysis
##URL=rruff.info/R060562
##MEASURED CHEMISTRY=(Na_0.68_Ca_0.20_[box]_0.12_)(Li_1.20_Al_1.12_Fe^2+^_0.50_Mn_0.18_)Al_6_(BO_3_)_3_[Si_6_O_18_]((OH)_0.80_F_0.20_)_4_
91.62726, 0.0000000E+00
92.10938, 4.722786
92.59149, 4.687984
93.07361, 4.673625
93.55573, 4.681913
94.03784, 4.744954
94.51996, 4.990175
95.00208, 5.338734
95.48419, 5.509806
95.96631, 5.329713
96.44843, 4.928053
96.93054, 4.679666
97.41266, 4.602503
97.89478, 4.594589
98.37689, 4.520805
98.85901, 4.380862
99.34113, 4.295969
99.82324, 4.352232
100.3054, 4.549085
100.7875, 4.637494
101.2696, 4.578326
101.7517, 4.461259
102.2338, 4.468660
102.7159, 4.646265
103.1981, 4.817639
103.6802, 4.886858
104.1623, 4.806837
104.6444, 4.786351
105.1265, 4.873175
105.6086, 5.021614
106.0908, 5.033803
106.5729, 4.721816
107.0550, 4.494649
107.5371, 4.607274
108.0192, 5.408950
108.5013, 6.028870
108.9835, 6.348480
109.4656, 6.375299
109.9477, 6.435666
110.4298, 6.481299
110.9119, 6.587711
111.3940, 6.808441
111.8762, 7.137856
112.3583, 7.586401
112.8404, 8.175932
113.3225, 8.912006
113.8046, 9.707983
114.2867, 10.68152
114.7689, 11.67545
115.2510, 12.51124
115.7331, 12.91498
116.2152, 13.35867
116.6973, 14.04879
117.1794, 15.06328
117.6616, 16.06687
118.1437, 16.99143
118.6258, 17.82858
119.1079, 18.53341
119.5900, 18.89791
120.0721, 19.25222
120.5543, 19.80166
121.0364, 20.57555
121.5185, 21.55282
122.0006, 22.89434
122.4827, 24.47002
122.9648, 25.92983
123.4470, 27.05105
123.9291, 27.94397
124.4112, 28.66497
124.8933, 29.02766
125.3754, 29.52105
125.8575, 30.68270
126.3397, 32.45393
126.8218, 34.48277
127.3039, 36.42413
127.7860, 38.42441
128.2681, 40.81652
128.7502, 43.99944
129.2324, 47.41294
129.7145, 49.95717
130.1966, 51.64332
130.6787, 53.13174
131.1608, 55.15029
131.6429, 57.55026
132.1251, 59.69429
132.6072, 61.35724
133.0893, 62.59351
133.5714, 63.65037
134.0535, 64.53869
134.5356, 65.19727
135.0178, 65.42458
135.4999, 65.20760
135.9820, 65.09044
136.4641, 65.30589
136.9462, 65.84740
137.4283, 66.43190
137.9105, 67.10650
138.3926, 67.75051
138.8747, 68.05714
139.3568, 67.90090
139.8389, 67.93807
140.3210, 68.56625
140.8032, 69.96777
141.2853, 70.95445
141.7674, 71.28609
142.2495, 71.33586
142.7316, 71.97800
143.2137, 73.20827
143.6959, 74.19191
144.1780, 74.92995
144.6601, 75.27015
145.1422, 75.81322
145.6243, 76.72057
146.1064, 77.84258
146.5886, 78.62451
147.0707, 78.88139
147.5528, 79.01861
148.0349, 79.25539
148.5170, 79.75788
148.9991, 80.10087
149.4813, 80.21379
149.9634, 80.12078
150.4455, 80.02808
150.9276, 79.81892
151.4097, 79.68302
151.8918, 79.73769
152.3740, 79.91203
152.8561, 80.33617
153.3382, 81.21834
153.8203, 82.53498
154.3024, 83.45710
154.7845, 83.85278
155.2667, 83.87276
155.7488, 83.63184
156.2309, 82.57055
156.7130, 81.82536
157.1951, 81.85676
157.6772, 82.71786
158.1594, 83.22743
158.6415, 82.96274
159.1236, 82.30378
159.6057, 81.61885
160.0878, 81.00911
160.5699, 80.39025
161.0521, 79.67264
161.5342, 78.82642
162.0163, 78.14208
162.4984, 77.88486
162.9805, 77.80447
163.4626, 77.58468
163.9448, 77.09003
164.4269, 76.44901
164.9090, 75.65720
165.3911, 74.66598
165.8732, 73.80578
166.3553, 73.32003
166.8375, 73.06480
167.3196, 72.80264
167.8017, 72.32043
168.2838, 71.85927
168.7659, 71.67361
169.2480, 71.89858
169.7302, 71.97578
170.2123, 71.26411
170.6944, 70.10031
171.1765, 69.25315
171.6586, 69.35419
172.1407, 69.83911
172.6229, 70.14458
173.1050, 70.14581
173.5871, 70.08306
174.0692, 70.11256
174.5513, 70.23603
175.0334, 70.46226
175.5156, 70.78400
175.9977, 71.21835
176.4798, 71.81591
176.9619, 72.66436
177.4440, 73.51875
177.9261, 74.02203
178.4083, 74.25379
178.8904, 74.54858
179.3725, 75.33873
179.8546, 76.32283
180.3367, 76.89132
180.8188, 76.86702
181.3010, 76.50844
181.7831, 76.05786
182.2652, 75.53654
182.7473, 75.08054
183.2294, 74.70081
183.7115, 74.45533
184.1937, 74.57922
184.6758, 75.29701
185.1579, 76.18439
185.6400, 76.41598
186.1221, 76.01639
186.6042, 75.62847
187.0864, 75.80164
187.5685, 76.43671
188.0506, 77.09684
188.5327, 77.71070
189.0148, 78.28332
189.4969, 78.84377
189.9791, 79.38890
190.4612, 79.94863
190.9433, 80.60070
191.4254, 81.32008
191.9075, 81.90479
192.3896, 82.18372
192.8718, 82.35934
193.3539, 83.15717
193.8360, 84.66103
194.3181, 86.18361
194.8002, 86.96640
195.2823, 87.03830
195.7645, 87.36360
196.2466, 88.15481
196.7287, 89.36512
197.2108, 90.91698
197.6929, 92.88248
198.1750, 94.84953
198.6572, 96.39870
199.1393, 97.50486
199.6214, 98.57461
200.1035, 99.67748
200.5856, 100.8156
201.0677, 101.9823
201.5499, 103.1965
202.0320, 104.3974
202.5141, 105.5250
202.9962, 106.5752
203.4783, 107.5783
203.9604, 108.4767
204.4426, 109.3135
204.9247, 110.4531
205.4068, 111.9077
205.8889, 113.6082
206.3710, 115.6083
206.8531, 118.0325
207.3353, 120.1031
207.8174, 121.4798
208.2995, 122.2470
208.7816, 123.5551
209.2637, 125.4571
209.7458, 127.7624
210.2280, 130.2913
210.7101, 133.0504
211.1922, 136.0142
211.6743, 139.2501
212.1564, 142.7179
212.6385, 146.0476
213.1207, 149.0888
213.6028, 152.1724
214.0849, 155.6311
214.5670, 159.4605
215.0491, 163.5679
215.5313, 167.9322
216.0134, 172.5737
216.4955, 177.4941
216.9776, 182.8346
217.4597, 188.3176
217.9418, 193.7664
218.4240, 199.1403
218.9061, 204.4512
219.3882, 209.7673
219.8703, 215.0457
220.3524, 220.0296
220.8345, 224.6873
221.3167, 229.0203
221.7988, 233.2129
222.2809, 237.6503
222.7630, 240.9580
223.2451, 242.7266
223.7272, 242.9577
224.2094, 242.5503
224.6915, 241.2810
225.1736, 239.6162
225.6557, 238.1111
226.1378, 237.0462
226.6199, 235.4710
227.1021, 233.0609
227.5842, 229.7901
228.0663, 226.8545
228.5484, 224.4508
229.0305, 222.1277
229.5126, 219.4425
229.9948, 216.2469
230.4769, 212.9846
230.9590, 209.5806
231.4411, 206.0503
231.9232, 203.0212
232.4053, 200.4499
232.8875, 198.3864
233.3696, 196.9628
233.8517, 196.6667
234.3338, 196.0396
234.8159, 194.7118
235.2980, 192.6940
235.7802, 191.0970
236.2623, 190.1339
236.7444, 189.3635
237.2265, 188.4236
237.7086, 187.2298
238.1907, 186.0363
238.6729, 184.8950
239.1550, 183.7994
239.6371, 182.6279
240.1192, 181.3609
240.6013, 180.0391
241.0834, 178.7118
241.5656, 177.4513
242.0477, 176.0582
242.5298, 174.4507
243.0119, 172.6561
243.4940, 171.0264
243.9761, 169.8973
244.4583, 168.5336
244.9404, 166.3260
245.4225, 162.6864
245.9046, 159.3904
246.3867, 156.7403
246.8688, 154.6191
247.3510, 152.2122
247.8331, 149.4298
248.3152, 146.4797
248.7973, 143.4549
249.2794, 140.1876
249.7615, 137.1936
250.2437, 134.6204
250.7258, 132.3621
251.2079, 129.9168
251.6900, 126.9776
252.1721, 124.2873
252.6542, 122.3619
253.1364, 121.7043
253.6185, 120.6384
254.1006, 118.8779
254.5827, 116.6661
255.0648, 114.9127
255.5469, 113.8131
256.0291, 112.8874
256.5112, 111.9124
256.9933, 110.8992
257.4754, 109.7839
257.9575, 108.4970
258.4396, 107.1250
258.9218, 105.9657
259.4039, 105.0869
259.8860, 104.2787
260.3681, 103.4454
260.8502, 102.5861
261.3323, 101.6711
261.8145, 100.6130
262.2966, 99.55267
262.7787, 98.79790
263.2608, 98.41895
263.7429, 98.19101
264.2250, 98.05546
264.7072, 98.06554
265.1893, 97.93552
265.6714, 97.61925
266.1535, 97.19820
266.6356, 96.81157
267.1177, 96.45181
267.5999, 96.13456
268.0820, 95.88492
268.5641, 95.71852
269.0462, 95.49113
269.5283, 95.20037
270.0104, 94.85142
270.4926, 94.40386
270.9747, 93.78833
271.4568, 93.31605
271.9389, 93.11504
272.4210, 93.19267
272.9031, 93.28691
273.3853, 93.41269
273.8674, 93.53183
274.3495, 93.63931
274.8316, 93.77772
275.3137, 93.68222
275.7958, 93.22424
276.2780, 92.43156
276.7601, 91.66519
277.2422, 90.91775
277.7243, 90.21044
278.2064, 89.56123
278.6885, 88.96829
279.1707, 88.46189
279.6528, 88.13683
280.1349, 87.90455
280.6170, 87.24978
281.0991, 86.10474
281.5812, 84.81142
282.0634, 83.65312
282.5455, 82.61592
283.0276, 81.68529
283.5097, 80.86484
283.9918, 80.14549
284.4739, 79.54333
284.9561, 79.08032
285.4382, 78.57285
285.9203, 77.83183
286.4024, 76.87988
286.8845, 75.99776
287.3666, 75.24479
287.8488, 74.56885
288.3309, 73.89998
288.8130, 73.23929
289.2951, 72.50471
289.7772, 71.49375
290.2593, 70.30603
290.7415, 69.50781
291.2236, 69.21777
291.7057, 69.20009
292.1878, 69.15498
292.6699, 69.07835
293.1520, 68.91241
293.6342, 68.50398
294.1163, 67.96711
294.5984, 67.74324
295.0805, 67.90134
295.5626, 68.16447
296.0447, 68.13555
296.5269, 67.88187
297.0090, 67.72940
297.4911, 67.90117
297.9732, 68.27299
298.4553, 68.57121
298.9374, 68.78526
299.4196, 68.98286
299.9017, 69.19238
300.3838, 69.43195
300.8659, 69.75275
301.3480, 70.18300
301.8301, 70.69891
302.3123, 71.28572
302.7944, 71.94590
303.2765, 72.61265
303.7586, 73.31872
304.2407, 73.98769
304.7228, 74.47265
305.2050, 74.52763
305.6871, 74.57677
306.1692, 75.16307
306.6513, 76.21248
307.1334, 77.25419
307.6155, 77.96215
308.0977, 78.49429
308.5798, 79.05545
309.0619, 79.71964
309.5440, 80.38912
310.0261, 81.05694
310.5082, 81.68168
310.9904, 82.13579
311.4725, 81.96340
311.9546, 81.80241
312.4367, 82.30398
312.9188, 83.74678
313.4009, 85.28511
313.8831, 86.57233
314.3652, 87.56900
314.8473, 88.22581
315.3294, 87.98013
315.8115, 87.78690
316.2936, 88.43344
316.7758, 90.16335
317.2579, 91.55318
317.7400, 91.85604
318.2221, 91.50755
318.7042, 91.07373
319.1863, 90.47469
319.6685, 90.05692
320.1506, 90.05677
320.6327, 90.48795
321.1148, 90.83860
321.5969, 90.85444
322.0790, 90.77564
322.5612, 90.80354
323.0433, 90.96765
323.5254, 91.25466
324.0075, 91.67909
324.4896, 92.23483
324.9717, 92.85938
325.4539, 93.68579
325.9360, 94.48759
326.4181, 95.12383
326.9002, 95.19189
327.3823, 95.59708
327.8644, 96.65411
328.3466, 98.12488
328.8287, 99.28028
329.3108, 100.1523
329.7929, 100.6655
330.2750, 100.6822
330.7571, 99.67990
331.2393, 99.38977
331.7214, 100.3566
332.2035, 101.8361
332.6856, 102.5803
333.1677, 102.0029
333.6498, 101.5489
334.1320, 101.6656
334.6141, 102.4476
335.0962, 103.0121
335.5783, 103.2316
336.0604, 103.3665
336.5425, 103.7232
337.0247, 104.4439
337.5068, 105.0112
337.9889, 105.2142
338.4710, 105.1383
338.9531, 105.6061
339.4352, 106.8377
339.9174, 108.1239
340.3995, 108.8749
340.8816, 109.0165
341.3637, 109.1242
341.8458, 109.2223
342.3279, 109.3664
342.8101, 109.7192
343.2922, 110.2897
343.7743, 110.9903
344.2564, 111.8216
344.7385, 112.7790
345.2206, 113.6662
345.7028, 114.5230
346.1849, 115.2017
346.6670, 115.3538
347.1491, 115.0153
347.6312, 114.7456
348.1133, 114.7979
348.5955, 115.1107
349.0776, 115.5343
349.5597, 116.0869
350.0418, 116.5888
350.5239, 116.7065
351.0060, 116.5956
351.4882, 116.7573
351.9703, 117.5006
352.4524, 118.4761
352.9345, 119.0515
353.4166, 119.2833
353.8987, 119.6777
354.3809, 120.5227
354.8630, 121.7875
355.3451, 123.4031
355.8272, 125.3308
356.3093, 127.6587
356.7914, 130.6778
357.2736, 134.2079
357.7557, 137.6893
358.2378, 140.7803
358.7199, 143.6841
359.2020, 146.4168
359.6841, 148.8813
360.1663, 151.7656
360.6484, 155.3630
361.1305, 159.6407
361.6126, 164.5534
362.0947, 170.6047
362.5768, 176.8318
363.0590, 182.5989
363.5411, 187.9102
364.0232, 194.0031
364.5053, 201.4934
364.9874, 209.8186
365.4695, 218.5418
365.9517, 227.6693
366.4338, 237.0911
366.9159, 246.5275
367.3980, 256.2032
367.8801, 267.0545
368.3622, 279.5326
368.8444, 292.8213
369.3265, 306.5927
369.8086, 321.1001
370.2907, 335.7405
370.7728, 351.1688
371.2549, 366.4953
371.7371, 380.3011
372.2192, 393.7083
372.7013, 404.0761
373.1834, 410.5841
373.6655, 413.1755
374.1476, 412.9118
374.6298, 409.7154
375.1119, 403.8236
375.5940, 395.1577
376.0761, 383.2605
376.5582, 370.2785
377.0403, 356.1848
377.5225, 341.3813
378.0046, 326.9008
378.4867, 313.0003
378.9688, 299.4777
379.4509, 286.1094
379.9330, 272.9932
380.4152, 260.6389
380.8973, 249.1870
381.3794, 238.5264
381.8615, 228.7640
382.3436, 219.7757
382.8257, 211.5556
383.3079, 203.9848
383.7900, 197.0833
384.2721, 190.6980
384.7542, 184.8695
385.2363, 179.4738
385.7184, 174.3104
386.2006, 169.4852
386.6827, 164.9904
387.1648, 160.8690
387.6469, 157.1192
388.1290, 153.7090
388.6111, 150.6471
389.0933, 147.8962
389.5754, 145.4564
390.0575, 143.2845
390.5396, 141.2760
391.0217, 139.3709
391.5038, 137.6992
391.9860, 136.3060
392.4681, 135.2122
392.9502, 134.4386
393.4323, 134.3145
393.9144, 134.2726
394.3965, 133.9068
394.8787, 133.1688
395.3608, 132.6275
395.8429, 132.6295
396.3250, 132.8457
396.8071, 132.9815
397.2892, 132.5803
397.7714, 132.5166
398.2535, 133.0849
398.7356, 134.1880
399.2177, 135.3451
399.6998, 136.3972
400.1819, 137.5865
400.6641, 139.0237
401.1462, 140.7875
401.6283, 142.6362
402.1104, 144.5684
402.5925, 146.5819
403.0746, 148.6960
403.5568, 150.8576
404.0389, 153.2314
404.5210, 156.0012
405.0031, 159.1678
405.4852, 161.7689
405.9673, 163.7357
406.4495, 165.2771
406.9316, 166.5337
407.4137, 167.4963
407.8958, 168.3660
408.3779, 169.3140
408.8600, 170.0503
409.3422, 169.8781
409.8243, 168.7873
410.3064, 166.9253
410.7885, 164.1887
411.2706, 160.6802
411.7527, 156.9380
412.2349, 152.9483
412.7170, 148.8051
413.1991, 144.6165
413.6812, 140.3695
414.1633, 136.1630
414.6454, 132.1176
415.1276, 128.0707
415.6097, 123.7244
416.0918, 119.1610
416.5739, 114.7023
417.0560, 110.3945
417.5381, 106.3912
418.0203, 102.9233
418.5024, 100.2220
418.9845, 97.59504
419.4666, 94.49281
419.9487, 91.17957
420.4308, 88.22574
420.9130, 85.89326
421.3951, 83.91013
421.8772, 82.19845
422.3593, 80.80248
422.8414, 79.35484
423.3235, 77.71654
423.8057, 76.02065
424.2878, 74.39148
424.7699, 72.53237
425.2520, 71.10367
425.7341, 70.43607
426.2162, 70.32079
426.6984, 69.97073
427.1805, 69.24971
427.6626, 68.45412
428.1447, 67.66966
428.6268, 66.87837
429.1089, 66.19907
429.5911, 65.70654
430.0732, 65.23763
430.5553, 64.50744
431.0374, 63.38262
431.5195, 62.54447
432.0016, 62.23514
432.4838, 62.31981
432.9659, 62.13173
433.4480, 61.63462
433.9301, 61.09065
434.4122, 60.72014
434.8943, 60.48849
435.3765, 60.10168
435.8586, 59.47714
436.3407, 58.86356
436.8228, 58.69526
437.3049, 58.87180
437.7870, 58.96521
438.2692, 58.60303
438.7513, 58.12736
439.2334, 58.09059
439.7155, 58.46981
440.1976, 58.86077
440.6797, 58.93517
441.1619, 58.86837
441.6440, 58.88716
442.1261, 59.12661
442.6082, 59.31183
443.0903, 59.18166
443.5724, 58.88036
444.0546, 58.71938
444.5367, 58.98331
445.0188, 59.27225
445.5009, 59.38700
445.9830, 59.28888
446.4651, 59.19042
446.9473, 58.98454
447.4294, 58.87044
447.9115, 59.01769
448.3936, 59.76930
448.8757, 60.37112
449.3578, 60.77658
449.8400, 60.99483
450.3221, 61.07518
450.8042, 60.99847
451.2863, 60.81400
451.7684, 60.51486
452.2505, 60.07352
452.7327, 59.69970
453.2148, 59.40791
453.6969, 59.16467
454.1790, 58.92850
454.6611, 58.69352
455.1432, 58.52954
455.6254, 58.45534
456.1075, 58.46159
456.5896, 58.57185
457.0717, 58.78286
457.5538, 58.93467
458.0359, 58.86320
458.5181, 58.66065
459.0002, 58.58315
459.4823, 58.68063
459.9644, 58.70605
460.4465, 58.22847
460.9286, 57.51831
461.4108, 57.10553
461.8929, 57.56438
462.3750, 58.07640
462.8571, 57.93744
463.3392, 57.27848
463.8214, 56.71261
464.3035, 56.52708
464.7856, 56.53268
465.2677, 56.67514
465.7498, 57.11736
466.2319, 57.21104
466.7141, 56.38574
467.1962, 55.25930
467.6783, 54.61435
468.1604, 55.11599
468.6425, 55.47969
469.1246, 55.43263
469.6068, 55.01255
470.0889, 54.67164
470.5710, 54.41671
471.0531, 54.23063
471.5352, 54.11335
472.0173, 54.08221
472.4995, 54.05864
472.9816, 54.05387
473.4637, 54.03877
473.9458, 53.92918
474.4279, 53.71165
474.9100, 53.61370
475.3922, 53.74880
475.8743, 54.03816
476.3564, 54.23271
476.8385, 54.33378
477.3206, 54.44828
477.8027, 54.67982
478.2849, 54.97884
478.7670, 55.24910
479.2491, 55.48266
479.7312, 55.66189
480.2133, 55.68174
480.6954, 55.64265
481.1776, 55.73289
481.6597, 56.00439
482.1418, 56.45139
482.6239, 57.21973
483.1060, 58.24112
483.5881, 59.03054
484.0703, 59.11626
484.5524, 59.11698
485.0345, 59.44032
485.5166, 60.33236
485.9987, 61.11654
486.4808, 61.66064
486.9630, 62.05529
487.4451, 62.41963
487.9272, 62.69385
488.4093, 63.02886
488.8914, 63.49649
489.3735, 64.07391
489.8557, 64.48408
490.3378, 64.63535
490.8199, 64.84004
491.3020, 65.34387
491.7841, 66.18828
492.2662, 66.82587
492.7484, 67.22110
493.2305, 67.44398
493.7126, 67.48058
494.1947, 67.36989
494.6768, 67.43704
495.1589, 67.90813
495.6411, 68.50368
496.1232, 68.64307
496.6053, 68.39551
497.0874, 68.21023
497.5695, 68.57243
498.0516, 69.05801
498.5338, 69.11018
499.0159, 68.59187
499.4980, 68.10164
499.9801, 67.99823
500.4622, 68.12773
500.9443, 68.30713
501.4265, 68.60607
501.9086, 68.81058
502.3907, 68.85880
502.8728, 68.76217
503.3549, 68.57320
503.8370, 68.02560
504.3192, 67.64244
504.8013, 67.67670
505.2834, 68.28166
505.7655, 68.62471
506.2476, 68.63878
506.7297, 68.46819
507.2119, 68.24454
507.6940, 67.97433
508.1761, 67.60220
508.6582, 67.05456
509.1403, 66.46371
509.6224, 66.17619
510.1046, 66.19758
510.5867, 66.28545
511.0688, 66.39339
511.5509, 66.47151
512.0330, 66.37777
512.5151, 66.11034
512.9973, 65.68188
513.4794, 65.02202
513.9615, 64.22702
514.4436, 63.41240
514.9257, 62.52193
515.4078, 61.81583
515.8900, 61.76980
516.3721, 62.02763
516.8542, 61.90668
517.3363, 60.79531
517.8184, 59.58470
518.3005, 58.58249
518.7827, 57.80565
519.2648, 57.26342
519.7469, 57.41873
520.2290, 57.45758
520.7111, 56.89531
521.1932, 55.30048
521.6754, 53.99953
522.1575, 53.00245
522.6396, 52.27806
523.1217, 51.82925
523.6038, 51.73339
524.0859, 51.62163
524.5681, 51.39632
525.0502, 51.09617
525.5323, 50.87934
526.0144, 50.75250
526.4965, 50.56856
526.9786, 50.15421
527.4608, 49.60711
527.9429, 49.24877
528.4250, 49.10669
528.9071, 49.00674
529.3892, 48.71955
529.8713, 48.37757
530.3535, 48.21992
530.8356, 48.45679
531.3177, 48.68854
531.7998, 48.64479
532.2819, 48.39466
532.7640, 48.10754
533.2462, 47.74999
533.7283, 47.44746
534.2104, 47.24821
534.6925, 47.15995
535.1746, 47.14219
535.6567, 47.33997
536.1389, 47.48883
536.6210, 47.40929
537.1031, 46.93050
537.5852, 46.62819
538.0673, 46.61906
538.5494, 46.68688
539.0316, 46.42159
539.5137, 45.75618
539.9958, 45.19848
540.4779, 44.89398
540.9600, 44.80474
541.4421, 44.88975
541.9243, 45.13909
542.4064, 45.33050
542.8885, 45.27885
543.3706, 45.07311
543.8527, 44.80453
544.3348, 44.46073
544.8170, 44.30748
545.2991, 44.83992
545.7812, 45.58301
546.2633, 45.93590
546.7454, 45.43582
547.2275, 44.88872
547.7097, 44.51393
548.1918, 44.33633
548.6739, 44.41694
549.1560, 45.07587
549.6381, 45.68658
550.1202, 46.05564
550.6024, 46.17909
551.0845, 46.21695
551.5666, 46.13263
552.0487, 46.01175
552.5308, 45.89985
553.0129, 45.78918
553.4951, 45.72536
553.9772, 45.71206
554.4593, 45.74099
554.9414, 45.84728
555.4235, 46.01618
555.9056, 46.05298
556.3878, 45.81178
556.8699, 45.51193
557.3520, 45.56647
557.8341, 45.90799
558.3162, 46.24563
558.7983, 46.44608
559.2805, 46.53943
559.7626, 46.51056
560.2447, 46.35710
560.7268, 46.25368
561.2089, 46.44984
561.6910, 46.63223
562.1732, 46.52601
562.6553, 45.70440
563.1374, 45.18735
563.6195, 45.32799
564.1016, 45.77548
564.5837, 46.00810
565.0659, 45.89694
565.5480, 45.81761
566.0301, 45.88545
566.5122, 46.04815
566.9943, 46.01171
567.4764, 45.73653
567.9586, 45.45478
568.4407, 45.32226
568.9228, 45.30930
569.4049, 45.22484
569.8870, 45.05714
570.3691, 44.91847
570.8513, 44.90585
571.3334, 45.00393
571.8155, 45.20876
572.2976, 45.58829
572.7797, 45.91172
573.2618, 45.90543
573.7440, 45.73743
574.2261, 45.71052
574.7082, 46.17330
575.1903, 46.56654
575.6724, 46.55882
576.1545, 46.21252
576.6367, 46.11374
577.1188, 46.63487
577.6009, 47.08846
578.0830, 47.15961
578.5651, 46.73096
579.0472, 46.53953
579.5294, 46.63296
580.0115, 46.87726
580.4936, 47.14705
580.9757, 47.44371
581.4578, 47.86541
581.9399, 48.49989
582.4221, 49.08997
582.9042, 49.13530
583.3863, 48.75767
583.8684, 48.46148
584.3505, 48.63801
584.8326, 48.86586
585.3148, 48.48427
585.7969, 47.66996
586.2790, 47.25299
586.7611, 48.17188
587.2432, 49.25538
587.7253, 49.63258
588.2075, 49.06968
588.6896, 48.78154
589.1717, 49.44414
589.6538, 50.17979
590.1359, 50.29327
590.6180, 49.22253
591.1002, 48.63948
591.5823, 48.81472
592.0644, 49.31484
592.5465, 49.41419
593.0286, 49.07123
593.5107, 48.61250
593.9929, 48.00305
594.4750, 47.44015
594.9571, 47.63213
595.4392, 48.49517
595.9213, 49.16039
596.4034, 48.91204
596.8856, 48.25498
597.3677, 47.86287
597.8498, 47.76540
598.3319, 47.71645
598.8140, 47.48746
599.2961, 47.28175
599.7783, 47.30214
600.2604, 47.73752
600.7425, 48.05898
601.2246, 48.02580
601.7067, 47.86299
602.1888, 47.86856
602.6710, 48.15249
603.1531, 48.43126
603.6352, 48.69973
604.1173, 48.92513
604.5994, 48.97290
605.0815, 48.80495
605.5637, 48.66677
606.0458, 48.67680
606.5279, 48.79913
607.0100, 48.92708
607.4921, 49.05755
607.9742, 49.10511
608.4564, 48.95415
608.9385, 48.69825
609.4206, 48.43327
609.9027, 48.14845
610.3848, 48.02306
610.8669, 48.34320
611.3491, 48.80197
611.8312, 49.07952
612.3133, 48.91380
612.7954, 48.80120
613.2775, 48.74838
613.7596, 48.82764
614.2418, 49.20280
614.7239, 50.21244
615.2060, 50.90710
615.6881, 50.95374
616.1702, 50.53553
616.6523, 50.55426
617.1345, 51.04765
617.6166, 51.74849
618.0987, 52.58955
618.5808, 53.52409
619.0629, 54.35725
619.5450, 55.08751
620.0272, 55.81248
620.5093, 56.42500
620.9914, 57.15548
621.4735, 58.38763
621.9556, 60.32747
622.4377, 62.24915
622.9199, 63.63933
623.4020, 64.86080
623.8841, 66.32714
624.3662, 68.21507
624.8483, 70.27171
625.3304, 72.57204
625.8126, 74.99717
626.2947, 77.28825
626.7768, 79.35294
627.2589, 81.43232
627.7410, 83.54131
628.2231, 85.72060
628.7053, 88.31477
629.1874, 91.36547
629.6695, 94.21999
630.1516, 96.49978
630.6337, 98.26303
631.1158, 99.61052
631.5980, 100.5372
632.0801, 101.3613
632.5622, 102.5297
633.0443, 103.6222
633.5264, 104.2269
634.0085, 104.3272
634.4907, 103.7432
634.9728, 102.0546
635.4549, 99.79604
635.9370, 97.59522
636.4191, 95.54185
636.9012, 93.49407
637.3834, 91.43958
637.8655, 89.39054
638.3476, 87.41403
638.8297, 85.50941
639.3118, 83.70842
639.7939, 82.00586
640.2761, 80.41837
640.7582, 79.13026
641.2403, 78.10249
641.7224, 76.98215
642.2045, 75.28275
642.6866, 73.45177
643.1688, 72.21221
643.6509, 71.57848
644.1330, 70.93631
644.6151, 69.71437
645.0972, 68.45940
645.5793, 67.65017
646.0615, 67.55855
646.5436, 67.41032
647.0257, 67.01869
647.5078, 66.56393
647.9899, 66.20076
648.4720, 65.91696
648.9542, 65.76656
649.4363, 65.81030
649.9184, 65.92228
650.4005, 65.83485
650.8826, 65.55254
651.3647, 65.33253
651.8469, 65.28533
652.3290, 65.32047
652.8111, 65.26355
653.2932, 65.14294
653.7753, 65.08116
654.2574, 65.19768
654.7396, 65.35557
655.2217, 65.45840
655.7038, 65.50285
656.1859, 65.52704
656.6680, 65.50611
657.1501, 65.49816
657.6323, 65.56066
658.1144, 65.74442
658.5965, 65.75140
659.0786, 65.44325
659.5607, 65.16426
660.0428, 65.36381
660.5250, 66.10023
661.0071, 66.14237
661.4892, 65.24469
661.9713, 64.10863
662.4534, 63.77095
662.9355, 63.93575
663.4177, 63.73441
663.8998, 62.72434
664.3819, 61.60027
664.8640, 61.07355
665.3461, 60.84817
665.8282, 60.33159
666.3104, 59.05502
666.7925, 57.72952
667.2746, 56.58795
667.7567, 55.60423
668.2388, 54.56186
668.7209, 53.29378
669.2031, 52.24012
669.6852, 51.61500
670.1673, 51.37774
670.6494, 50.96132
671.1315, 50.34536
671.6136, 49.69433
672.0958, 49.04524
672.5779, 48.45551
673.0600, 48.16102
673.5421, 48.18365
674.0242, 48.19519
674.5063, 47.85839
674.9885, 47.40829
675.4706, 47.12923
675.9527, 47.16213
676.4348, 47.11703
676.9169, 46.74479
677.3990, 46.28756
677.8812, 46.02614
678.3633, 46.15167
678.8454, 46.12406
679.3275, 45.78062
679.8096, 45.37608
680.2917, 45.43876
680.7739, 45.99870
681.2560, 46.56056
681.7381, 47.01564
682.2202, 47.34871
682.7023, 47.42231
683.1844, 47.31178
683.6666, 47.31374
684.1487, 47.59987
684.6308, 48.04659
685.1129, 48.58308
685.5950, 49.20013
686.0771, 49.88888
686.5593, 50.57581
687.0414, 51.38958
687.5235, 52.43258
688.0056, 53.72125
688.4877, 54.92118
688.9698, 55.92920
689.4520, 57.02574
689.9341, 58.37598
690.4162, 59.97555
690.8983, 61.86369
691.3804, 64.07692
691.8625, 66.46082
692.3447, 68.80177
692.8268, 71.18789
693.3089, 73.83018
693.7910, 76.77702
694.2731, 79.87187
694.7552, 82.95045
695.2374, 86.13889
695.7195, 89.58320
696.2016, 93.34766
696.6837, 97.33819
697.1658, 101.7971
697.6479, 106.3749
698.1301, 110.5024
698.6122, 113.9472
699.0943, 117.6004
699.5764, 121.6553
700.0585, 125.9983
700.5406, 130.6035
701.0228, 135.4266
701.5049, 140.0062
701.9870, 144.1313
702.4691, 147.9078
702.9512, 151.4638
703.4333, 154.8062
703.9155, 157.8823
704.3976, 160.6446
704.8797, 163.1988
705.3618, 165.7539
705.8439, 168.3058
706.3260, 170.0838
706.8082, 171.0554
707.2903, 171.2506
707.7724, 170.5650
708.2545, 168.9604
708.7366, 167.3929
709.2188, 165.9899
709.7009, 164.0256
710.1830, 160.6714
710.6651, 156.2843
711.1472, 152.0896
711.6293, 148.2391
712.1115, 144.0676
712.5936, 138.6375
713.0757, 132.7276
713.5578, 127.2860
714.0399, 122.5983
714.5220, 118.0081
715.0042, 113.3302
715.4863, 108.7194
715.9684, 104.2822
716.4505, 100.1783
716.9326, 95.94813
717.4147, 91.46143
717.8969, 87.01983
718.3790, 83.18244
718.8611, 79.90661
719.3432, 76.98161
719.8253, 74.38806
720.3074, 72.05013
720.7896, 69.88548
721.2717, 67.88354
721.7538, 65.96410
722.2359, 64.04592
722.7180, 62.26485
723.2001, 60.70543
723.6823, 59.35179
724.1644, 58.23266
724.6465, 57.61036
725.1286, 56.88566
725.6107, 55.84056
726.0928, 54.59208
726.5750, 53.71211
727.0571, 53.26237
727.5392, 52.87171
728.0213, 52.27773
728.5034, 51.63952
728.9855, 51.51706
729.4677, 51.83229
729.9498, 51.99718
730.4319, 51.28289
730.9140, 50.49568
731.3961, 50.41799
731.8782, 51.09035
732.3604, 51.61548
732.8425, 51.43876
733.3246, 51.30534
733.8067, 51.62563
734.2888, 52.49211
734.7709, 53.23708
735.2531, 53.84750
735.7352, 54.38209
736.2173, 54.91105
736.6994, 55.41466
737.1815, 55.70932
737.6636, 55.76459
738.1458, 55.85592
738.6279, 56.10020
739.1100, 56.58937
739.5921, 57.55939
740.0742, 59.25499
740.5563, 60.65809
741.0385, 61.07578
741.5206, 61.17108
742.0027, 61.59801
742.4848, 62.51878
742.9669, 63.48927
743.4490, 64.49892
743.9312, 65.56151
744.4133, 66.82800
744.8954, 68.28354
745.3775, 69.22606
745.8596, 69.35045
746.3417, 69.46726
746.8239, 70.77203
747.3060, 72.80708
747.7881, 74.70207
748.2702, 76.23349
748.7523, 77.42612
749.2344, 78.07236
749.7166, 78.43274
750.1987, 78.96010
750.6808, 79.81320
751.1629, 80.71584
751.6450, 81.76252
752.1271, 82.75664
752.6093, 83.20805
753.0914, 83.10903
753.5735, 82.62757
754.0556, 81.75146
754.5377, 80.62143
755.0198, 79.52792
755.5020, 78.40105
755.9841, 77.06171
756.4662, 75.24838
756.9483, 73.34435
757.4304, 71.48985
757.9125, 69.72311
758.3947, 68.04076
758.8768, 66.50954
759.3589, 64.99479
759.8410, 63.40911
760.3231, 61.82238
760.8052, 60.67800
761.2874, 60.06175
761.7695, 59.27655
762.2516, 57.79082
762.7337, 55.97477
763.2158, 54.69212
763.6979, 53.86213
764.1801, 53.09394
764.6622, 52.14256
765.1443, 51.17548
765.6264, 50.24471
766.1085, 49.36562
766.5906, 48.73363
767.0728, 48.73449
767.5549, 48.59249
768.0370, 47.92077
768.5191, 46.73679
769.0012, 46.02013
769.4833, 45.83725
769.9655, 45.75674
770.4476, 45.50494
770.9297, 45.14037
771.4118, 44.79181
771.8939, 44.46515
772.3760, 44.18007
772.8582, 43.97747
773.3403, 43.80601
773.8224, 43.62890
774.3045, 43.44118
774.7866, 43.26383
775.2687, 43.24070
775.7509, 43.07875
776.2330, 42.57593
776.7151, 41.67899
777.1972, 40.97297
777.6793, 40.48601
778.1614, 40.01187
778.6436, 39.36146
779.1257, 38.60201
779.6078, 37.91866
780.0899, 37.32592
780.5720, 36.67161
781.0541, 35.69768
781.5363, 34.70985
782.0184, 33.98525
782.5005, 33.61573
782.9826, 33.28749
783.4647, 33.07796
783.9468, 32.78432
784.4290, 32.21224
784.9111, 31.30052
785.3932, 30.62994
785.8753, 30.23804
786.3574, 29.96557
786.8395, 29.69391
787.3217, 29.42277
787.8038, 29.15006
788.2859, 28.88296
788.7680, 28.58829
789.2501, 28.14658
789.7322, 27.73074
790.2144, 27.50938
790.6965, 27.67566
791.1786, 27.63031
791.6607, 27.24743
792.1428, 26.79293
792.6249, 26.51605
793.1071, 26.42379
793.5892, 26.19687
794.0713, 25.78463
794.5534, 25.41642
795.0355, 25.37721
795.5176, 25.52609
795.9998, 25.63069
796.4819, 25.64965
796.9640, 25.62008
797.4461, 25.54282
797.9282, 25.43531
798.4103, 25.30648
798.8925, 25.10562
799.3746, 25.01095
799.8567, 25.09131
800.3388, 25.16735
800.8209, 25.00496
801.3030, 24.63250
801.7852, 24.40841
802.2673, 24.37487
802.7494, 24.44772
803.2315, 24.63684
803.7136, 24.83875
804.1957, 24.89127
804.6779, 24.70326
805.1600, 24.56684
805.6421, 24.64409
806.1242, 24.77753
806.6063, 24.83379
807.0884, 24.80856
807.5706, 24.68879
808.0527, 24.42337
808.5348, 24.18822
809.0169, 24.17571
809.4990, 24.35661
809.9811, 24.66140
810.4633, 25.11548
810.9454, 25.43504
811.4275, 25.22537
811.9096, 24.83953
812.3917, 24.66954
812.8738, 24.86686
813.3560, 25.06930
813.8381, 25.31152
814.3202, 25.46043
814.8023, 25.37562
815.2844, 25.00419
815.7665, 24.73443
816.2487, 24.59538
816.7308, 24.48935
817.2129, 24.29301
817.6950, 24.05643
818.1771, 23.88918
818.6592, 23.81246
819.1414, 23.77392
819.6235, 23.78282
820.1056, 23.78960
820.5877, 23.74349
821.0698, 23.58812
821.5519, 23.51127
822.0341, 23.53617
822.5162, 23.60673
822.9983, 23.69732
823.4804, 23.80547
823.9625, 23.85009
824.4446, 23.82336
824.9268, 23.78357
825.4089, 23.71479
825.8910, 23.69824
826.3731, 23.87974
826.8552, 24.31021
827.3373, 24.68061
827.8195, 24.82597
828.3016, 24.91953
828.7837, 25.07885
829.2658, 25.31733
829.7479, 25.55813
830.2300, 25.81849
830.7122, 26.01124
831.1943, 26.00179
831.6764, 25.86753
832.1585, 25.86233
832.6406, 25.99767
833.1227, 26.17690
833.6049, 26.35357
834.0870, 26.52827
834.5691, 26.71165
835.0512, 26.90806
835.5333, 27.07142
836.0154, 27.19818
836.4976, 27.29698
836.9797, 27.38336
837.4618, 27.45558
837.9439, 27.40235
838.4260, 27.21735
838.9081, 27.05937
839.3903, 27.08836
839.8724, 27.18730
840.3545, 27.17925
840.8366, 27.06970
841.3187, 26.99224
841.8008, 27.04681
842.2830, 27.11108
842.7651, 27.14625
843.2472, 27.14982
843.7293, 27.04027
844.2114, 26.76385
844.6935, 26.55871
845.1757, 26.61108
845.6578, 26.79363
846.1399, 26.63598
846.6220, 26.21344
847.1041, 25.95967
847.5862, 26.34605
848.0684, 26.79459
848.5505, 26.90797
849.0326, 26.72369
849.5147, 26.49584
849.9968, 26.04887
850.4789, 25.90622
850.9611, 26.36761
851.4432, 27.16321
851.9253, 27.24498
852.4074, 26.63842
852.8895, 26.21319
853.3716, 26.50952
853.8538, 26.97685
854.3359, 26.94210
854.8180, 26.55778
855.3001, 26.18764
855.7822, 25.83068
856.2643, 25.65950
856.7465, 25.85262
857.2286, 26.21824
857.7107, 26.43310
858.1928, 26.50384
858.6749, 26.36127
859.1570, 25.93193
859.6392, 25.40720
860.1213, 25.05352
860.6034, 24.86138
861.0855, 24.82506
861.5676, 25.03968
862.0497, 25.22567
862.5319, 25.22155
863.0140, 25.10334
863.4961, 24.97346
863.9782, 24.85761
864.4603, 24.69205
864.9424, 24.45785
865.4246, 24.19680
865.9067, 23.94488
866.3888, 23.70762
866.8709, 23.51768
867.3530, 23.39157
867.8351, 23.24311
868.3173, 22.88127
868.7994, 22.51876
869.2815, 22.42797
869.7636, 22.83830
870.2457, 22.96064
870.7278, 22.61396
871.2100, 22.10398
871.6921, 21.56076
872.1742, 20.97683
872.6563, 20.88047
873.1384, 21.31916
873.6205, 21.73633
874.1027, 21.60308
874.5848, 21.20679
875.0669, 20.87816
875.5490, 20.65059
876.0311, 20.51944
876.5132, 20.63507
876.9954, 20.69514
877.4775, 20.48304
877.9596, 20.01864
878.4417, 19.98584
878.9238, 20.47406
879.4059, 20.86379
879.8881, 20.67702
880.3702, 20.22260
880.8523, 20.18873
881.3344, 20.46684
881.8165, 20.59355
882.2986, 20.11991
882.7808, 19.65571
883.2629, 19.51108
883.7450, 19.62295
884.2271, 19.73254
884.7092, 19.85131
885.1913, 19.93541
885.6735, 19.97505
886.1556, 19.97148
886.6377, 19.93888
887.1198, 19.86744
887.6019, 19.70521
888.0840, 19.31467
888.5662, 19.01696
889.0483, 19.11766
889.5304, 19.41194
890.0125, 19.57306
890.4946, 19.50173
890.9767, 19.40550
891.4589, 19.26455
891.9410, 19.15176
892.4231, 19.19584
892.9052, 19.36566
893.3873, 19.45199
893.8694, 19.40738
894.3516, 19.38421
894.8337, 19.61289
895.3158, 19.87142
895.7979, 19.90441
896.2800, 19.55700
896.7621, 19.37152
897.2443, 19.50405
897.7264, 19.64050
898.2085, 19.53826
898.6906, 19.20871
899.1727, 19.03190
899.6548, 19.01034
900.1370, 18.98457
900.6191, 18.69416
901.1012, 18.43553
901.5833, 18.61570
902.0654, 19.19985
902.5475, 19.63968
903.0297, 19.69857
903.5118, 19.68285
903.9939, 19.65718
904.4760, 19.63116
904.9581, 19.65026
905.4402, 19.71496
905.9224, 19.81397
906.4045, 20.01281
906.8866, 20.16222
907.3687, 19.96901
907.8508, 19.59002
908.3329, 19.37798
908.8151, 19.67064
909.2972, 19.86923
909.7793, 19.75863
910.2614, 19.55070
910.7435, 19.62313
911.2256, 20.01700
911.7078, 20.11640
912.1899, 19.74277
912.6720, 19.36701
913.1541, 19.70724
913.6362, 20.36805
914.1183, 20.71775
914.6005, 20.51999
915.0826, 20.38832
915.5647, 20.55689
916.0468, 20.82928
916.5289, 21.10435
917.0110, 21.40277
917.4932, 21.50880
917.9753, 21.40009
918.4574, 21.28733
918.9395, 21.40404
919.4216, 21.58625
919.9037, 21.48862
920.3859, 21.15009
920.8680, 21.02841
921.3501, 21.56259
921.8322, 22.09270
922.3143, 22.31665
922.7964, 22.30717
923.2786, 22.42279
923.7607, 22.67763
924.2428, 22.96066
924.7249, 23.27430
925.2070, 23.53085
925.6891, 23.47654
926.1713, 23.25970
926.6534, 23.21148
927.1355, 23.65732
927.6176, 24.05326
928.0997, 24.22640
928.5818, 24.27894
929.0640, 24.31859
929.5461, 24.33697
930.0282, 24.40360
930.5103, 24.53624
930.9924, 24.66825
931.4745, 24.66241
931.9567, 24.62619
932.4388, 24.77693
932.9209, 25.18040
933.4030, 25.48713
933.8851, 25.45836
934.3672, 25.37645
934.8494, 25.39227
935.3315, 25.50683
935.8136, 25.72346
936.2957, 26.05416
936.7778, 26.38010
937.2599, 26.64565
937.7421, 26.85366
938.2242, 26.98945
938.7063, 27.06995
939.1884, 27.16337
939.6705, 27.31550
940.1526, 27.46370
940.6348, 27.59576
941.1169, 27.70904
941.5990, 27.77240
942.0811, 27.77460
942.5632, 27.86662
943.0453, 28.09891
943.5275, 28.39296
944.0096, 28.68478
944.4917, 28.96621
944.9738, 29.23133
945.4559, 29.50000
945.9380, 29.69825
946.4202, 29.71045
946.9023, 29.73162
947.3844, 29.89622
947.8665, 30.20941
948.3486, 30.63740
948.8307, 31.18999
949.3129, 31.69484
949.7950, 31.94845
950.2771, 32.12237
950.7592, 32.46529
951.2413, 32.95377
951.7234, 33.27947
952.2056, 33.12139
952.6877, 33.06297
953.1698, 33.28896
953.6519, 33.72470
954.1340, 34.09875
954.6161, 34.42029
955.0983, 34.86809
955.5804, 35.57918
956.0625, 36.29762
956.5446, 36.74622
957.0267, 37.03450
957.5089, 37.32724
957.9910, 37.64877
958.4731, 38.00260
958.9552, 38.39480
959.4373, 38.81036
959.9194, 39.30675
960.4016, 39.84793
960.8837, 40.03456
961.3658, 39.83003
961.8479, 39.72610
962.3300, 40.24199
962.8121, 40.91808
963.2943, 41.36207
963.7764, 41.54506
964.2585, 41.80714
964.7406, 42.20117
965.2227, 42.59961
965.7048, 42.98020
966.1870, 43.31481
966.6691, 43.52517
967.1512, 43.63206
967.6333, 43.72149
968.1154, 43.90198
968.5975, 43.98003
969.0797, 43.66213
969.5618, 43.24230
970.0439, 43.20783
970.5260, 43.82621
971.0081, 44.07348
971.4902, 43.78317
971.9724, 43.42814
972.4545, 43.63565
972.9366, 44.15191
973.4187, 44.38890
973.9008, 44.28742
974.3829, 44.04803
974.8651, 43.63205
975.3472, 43.23983
975.8293, 42.96979
976.3114, 42.81905
976.7935, 42.82715
977.2756, 43.04619
977.7578, 42.98431
978.2399, 42.19653
978.7220, 41.28925
979.2041, 41.34686
979.6862, 42.00121
980.1683, 42.45456
980.6505, 42.17792
981.1326, 42.01178
981.6147, 42.24027
982.0968, 42.52446
982.5789, 42.39985
983.0610, 41.86322
983.5432, 41.67450
984.0253, 41.92272
984.5074, 42.20098
984.9895, 42.12282
985.4716, 41.91057
985.9537, 41.80243
986.4359, 41.82519
986.9180, 41.73335
987.4001, 41.33830
987.8822, 41.11875
988.3643, 41.32690
988.8464, 41.79388
989.3286, 41.99281
989.8107, 41.95996
990.2928, 41.86708
990.7749, 41.75463
991.2570, 41.64974
991.7391, 41.53715
992.2213, 41.45758
992.7034, 41.46117
993.1855, 41.52035
993.6676, 41.75669
994.1497, 42.22415
994.6318, 42.71210
995.1140, 42.98392
995.5961, 43.12048
996.0782, 43.29075
996.5603, 43.50613
997.0424, 43.70137
997.5245, 43.77843
998.0067, 43.90464
998.4888, 44.22437
998.9709, 44.65563
999.4530, 44.78560
999.9351, 44.59236
1000.417, 44.48902
1000.899, 44.64577
1001.381, 44.89469
1001.864, 44.97906
1002.346, 45.03754
1002.828, 45.30687
1003.310, 46.13334
1003.792, 46.63122
1004.274, 46.65366
1004.756, 46.47889
1005.238, 46.22069
1005.721, 45.93471
1006.203, 46.11408
1006.685, 46.74735
1007.167, 47.42015
1007.649, 48.03814
1008.131, 48.42438
1008.613, 48.23469
1009.095, 47.63544
1009.577, 47.58471
1010.060, 48.30540
1010.542, 48.90911
1011.024, 49.17194
1011.506, 49.25939
1011.988, 49.37855
1012.470, 49.53572
1012.952, 49.75965
1013.434, 50.09530
1013.917, 50.36689
1014.399, 50.46105
1014.881, 50.49803
1015.363, 50.50978
1015.845, 50.49174
1016.327, 50.79558
1016.809, 51.42754
1017.291, 52.01075
1017.773, 52.32754
1018.256, 52.46211
1018.738, 52.50456
1019.220, 52.43785
1019.702, 52.19011
1020.184, 51.36134
1020.666, 51.04231
1021.148, 51.53046
1021.630, 52.30114
1022.112, 52.63278
1022.595, 52.59378
1023.077, 52.36238
1023.559, 51.95124
1024.041, 51.52003
1024.523, 51.00228
1025.005, 50.63920
1025.487, 50.68896
1025.969, 51.10685
1026.452, 51.28709
1026.934, 51.20220
1027.416, 51.10168
1027.898, 51.07377
1028.380, 51.11699
1028.862, 51.23597
1029.344, 51.42272
1029.826, 51.66392
1030.308, 52.16685
1030.791, 52.37923
1031.273, 52.02408
1031.755, 51.69993
1032.237, 52.16615
1032.719, 53.26817
1033.201, 53.69853
1033.683, 53.43757
1034.165, 53.30727
1034.647, 53.88616
1035.130, 54.75986
1035.612, 55.81461
1036.094, 56.95580
1036.576, 57.82231
1037.058, 58.34535
1037.540, 58.83184
1038.022, 59.34850
1038.504, 59.85869
1038.987, 60.13227
1039.469, 60.41872
1039.951, 61.18066
1040.433, 62.61039
1040.915, 64.15118
1041.397, 65.81197
1041.879, 67.36886
1042.361, 68.67441
1042.844, 69.75820
1043.326, 70.95327
1043.808, 72.24467
1044.290, 73.47920
1044.772, 74.13931
1045.254, 75.19310
1045.736, 77.84438
1046.218, 81.16948
1046.700, 83.30770
1047.183, 83.80833
1047.665, 84.48371
1048.147, 85.47706
1048.629, 86.63824
1049.111, 87.75134
1049.593, 88.96457
1050.075, 90.63883
1050.557, 92.77963
1051.040, 94.73124
1051.522, 95.94028
1052.004, 97.32276
1052.486, 99.25851
1052.968, 101.4562
1053.450, 103.0632
1053.932, 104.1492
1054.414, 105.1294
1054.896, 106.1352
1055.379, 107.0538
1055.861, 107.7032
1056.343, 108.3073
1056.825, 109.1416
1057.307, 110.3018
1057.789, 111.1858
1058.271, 111.8127
1058.753, 112.0567
1059.235, 111.6239
1059.718, 110.8919
1060.200, 110.3744
1060.682, 110.0186
1061.164, 109.6733
1061.646, 109.4542
1062.128, 109.0159
1062.610, 108.3981
1063.092, 107.4484
1063.574, 105.7052
1064.057, 103.4170
1064.539, 101.8118
1065.021, 101.0099
1065.503, 100.1171
1065.985, 98.48340
1066.467, 96.65614
1066.949, 94.91534
1067.431, 93.25674
1067.914, 91.51114
1068.396, 89.64458
1068.878, 88.05288
1069.360, 86.93945
1069.842, 85.86193
1070.324, 84.10503
1070.806, 82.14934
1071.288, 80.70493
1071.771, 80.17541
1072.253, 79.21213
1072.735, 77.55539
1073.217, 75.94907
1073.699, 74.84858
1074.181, 74.15089
1074.663, 73.68089
1075.145, 73.36697
1075.627, 72.97397
1076.110, 72.22794
1076.592, 71.58627
1077.074, 71.10690
1077.556, 70.86514
1078.038, 71.04935
1078.520, 71.65499
1079.002, 72.00650
1079.484, 72.04919
1079.967, 72.28986
1080.449, 73.43773
1080.931, 74.67100
1081.413, 75.32278
1081.895, 75.43457
1082.377, 75.57117
1082.859, 75.65458
1083.341, 76.14030
1083.823, 77.27497
1084.306, 78.45844
1084.788, 78.90422
1085.270, 78.81888
1085.752, 78.45231
1086.234, 77.80991
1086.716, 77.11871
1087.198, 76.42893
1087.680, 75.68118
1088.162, 74.81593
1088.645, 73.89268
1089.127, 73.07236
1089.609, 72.33730
1090.091, 71.61814
1090.573, 71.03563
1091.055, 70.22584
1091.537, 68.71361
1092.019, 67.11208
1092.501, 66.08621
1092.984, 65.69914
1093.466, 65.10599
1093.948, 64.29520
1094.430, 63.27919
1094.912, 61.85093
1095.394, 60.39683
1095.876, 59.28637
1096.358, 58.42588
1096.841, 57.49311
1097.323, 56.38142
1097.805, 55.50646
1098.287, 54.99355
1098.769, 54.49197
1099.251, 53.48819
1099.733, 52.28196
1100.215, 51.39020
1100.698, 50.85214
1101.180, 50.15154
1101.662, 49.09793
1102.144, 47.92357
1102.626, 46.56346
1103.108, 45.23695
1103.590, 44.65118
1104.072, 44.56435
1104.554, 44.23230
1105.037, 43.42334
1105.519, 42.50055
1106.001, 41.42793
1106.483, 40.51332
1106.965, 40.00779
1107.447, 39.87670
1107.929, 39.65193
1108.411, 39.33170
1108.894, 38.83496
1109.376, 37.98162
1109.858, 37.12896
1110.340, 36.55801
1110.822, 36.16845
1111.304, 35.80033
1111.786, 35.44380
1112.268, 35.11722
1112.750, 34.82165
1113.233, 34.56016
1113.715, 34.44703
1114.197, 34.28704
1114.679, 33.65718
1115.161, 32.74361
1115.643, 32.26006
1116.125, 32.69306
1116.607, 32.85549
1117.089, 32.54052
1117.572, 32.06519
1118.054, 31.85340
1118.536, 31.77350
1119.018, 31.52351
1119.500, 31.07963
1119.982, 30.67065
1120.464, 30.28440
1120.946, 30.09958
1121.428, 30.29206
1121.911, 30.61425
1122.393, 30.37746
1122.875, 29.72466
1123.357, 29.33662
1123.839, 29.44803
1124.321, 29.45366
1124.803, 28.85950
1125.285, 28.16243
1125.768, 27.68351
1126.250, 27.40376
1126.732, 27.18313
1127.214, 27.01393
1127.696, 26.65356
1128.178, 25.79333
1128.660, 25.08133
1129.142, 25.34290
1129.625, 25.91831
1130.107, 25.94599
1130.589, 25.23679
1131.071, 24.75372
1131.553, 24.51384
1132.035, 24.34344
1132.517, 24.18494
1132.999, 23.98983
1133.481, 23.69060
1133.964, 23.31355
1134.446, 22.91870
1134.928, 22.50045
1135.410, 22.08813
1135.892, 21.66873
1136.374, 21.28918
1136.856, 20.98147
1137.338, 20.75999
1137.821, 20.71595
1138.303, 20.81299
1138.785, 20.82061
1139.267, 20.53317
1139.749, 20.33857
1140.231, 20.34504
1140.713, 20.40303
1141.195, 20.26611
1141.677, 20.00403
1142.160, 19.81890
1142.642, 19.73723
1143.124, 19.63547
1143.606, 19.49847
1144.088, 19.26510
1144.570, 18.85546
1145.052, 18.37851
1145.534, 18.13369
1146.016, 18.10149
1146.499, 18.23067
1146.981, 18.56138
1147.463, 18.79099
1147.945, 18.65588
1148.427, 18.42430
1148.909, 18.28256
1149.391, 18.21633
1149.873, 18.06986
1150.355, 17.84793
1150.838, 17.68399
1151.320, 17.65756
1151.802, 17.64324
1152.284, 17.51554
1152.766, 17.36801
1153.248, 17.31231
1153.730, 17.36467
1154.212, 17.36087
1154.695, 17.29385
1155.177, 17.26999
1155.659, 17.41077
1156.141, 17.56079
1156.623, 17.52126
1157.105, 17.39901
1157.587, 17.40187
1158.069, 17.61523
1158.552, 17.73739
1159.034, 17.76159
1159.516, 17.70743
1159.998, 17.51609
1160.480, 17.30888
1160.962, 17.25968
1161.444, 17.32583
1161.926, 17.35254
1162.408, 17.26629
1162.891, 17.28086
1163.373, 17.46881
1163.855, 17.59132
1164.337, 17.25448
1164.819, 16.75300
1165.301, 16.59784
1165.783, 16.77541
1166.265, 16.90118
1166.748, 16.84547
1167.230, 16.79800
1167.712, 16.78396
1168.194, 16.80715
1168.676, 16.93440
1169.158, 17.08378
1169.640, 17.07537
1170.122, 16.88784
1170.604, 16.65791
1171.087, 16.30481
1171.569, 16.08552
1172.051, 16.07724
1172.533, 16.23068
1173.015, 16.54594
1173.497, 16.92892
1173.979, 17.10396
1174.461, 16.98953
1174.943, 16.84497
1175.426, 16.70408
1175.908, 16.63636
1176.390, 16.70768
1176.872, 16.84982
1177.354, 16.83109
1177.836, 16.68793
1178.318, 16.53178
1178.800, 16.35940
1179.282, 16.29593
1179.765, 16.52558
1180.247, 16.75609
1180.729, 16.80842
1181.211, 16.71646
1181.693, 16.67962
1182.175, 16.68183
1182.657, 16.63586
1183.139, 16.48867
1183.622, 16.31661
1184.104, 16.02440
1184.586, 15.84508
1185.068, 16.05106
1185.550, 16.60717
1186.032, 16.74001
1186.514, 16.49302
1186.996, 16.21557
1187.479, 15.98731
1187.961, 15.91111
1188.443, 16.20103
1188.925, 16.55837
1189.407, 16.67018
1189.889, 16.52974
1190.371, 16.28461
1190.853, 15.94879
1191.335, 15.75156
1191.818, 15.89685
1192.300, 16.15290
1192.782, 16.51581
1193.264, 16.83847
1193.746, 16.87700
1194.228, 16.61624
1194.710, 16.45731
1195.192, 16.42424
1195.675, 16.40738
1196.157, 16.25265
1196.639, 16.16540
1197.121, 16.39489
1197.603, 16.74891
1198.085, 16.80540
1198.567, 16.54810
1199.049, 16.34950
1199.531, 16.24676
1200.014, 16.20014
1200.496, 16.18862
1200.978, 16.21246
1201.460, 16.27748
1201.942, 16.37888
1202.424, 16.52386
1202.906, 16.71722
1203.388, 16.80506
1203.870, 16.75353
1204.353, 16.69366
1204.835, 16.83298
1205.317, 16.92502
1205.799, 16.66015
1206.281, 16.17601
1206.763, 16.04715
1207.245, 16.29150
1207.727, 16.41707
1208.209, 16.30166
1208.692, 16.15809
1209.174, 16.09311
1209.656, 16.14310
1210.138, 16.44257
1210.620, 16.90804
1211.102, 17.03743
1211.584, 16.81718
1212.066, 16.73373
1212.549, 16.96065
1213.031, 17.19933
1213.513, 17.21524
1213.995, 17.11358
1214.477, 16.93006
1214.959, 16.69483
1215.441, 16.63544
1215.923, 16.75276
1216.406, 16.95064
1216.888, 17.25928
1217.370, 17.44309
1217.852, 17.18469
1218.334, 16.79151
1218.816, 16.50474
1219.298, 16.33152
1219.780, 16.46648
1220.262, 16.90489
1220.745, 17.19369
1221.227, 17.12993
1221.709, 16.95148
1222.191, 16.68387
1222.673, 16.52007
1223.155, 16.72587
1223.637, 17.28979
1224.119, 17.35322
1224.602, 16.94835
1225.084, 16.66959
1225.566, 16.88244
1226.048, 17.11743
1226.530, 16.96694
1227.012, 16.73445
1227.494, 16.74578
1227.976, 17.00205
1228.458, 17.13792
1228.941, 17.15700
1229.423, 17.10220
1229.905, 16.91339
1230.387, 16.78026
1230.869, 16.85927
1231.351, 17.02064
1231.833, 17.14868
1232.315, 17.24319
1232.797, 17.28669
1233.280, 17.27997
1233.762, 17.23270
1234.244, 17.08707
1234.726, 16.98251
1235.208, 17.01047
1235.690, 17.09919
1236.172, 17.19696
1236.654, 17.30264
1237.136, 17.37518
1237.619, 17.41680
1238.101, 17.44653
1238.583, 17.48822
1239.065, 17.50204
1239.547, 17.43475
1240.029, 17.36646
1240.511, 17.36670
1240.993, 17.43152
1241.476, 17.56508
1241.958, 17.74509
1242.440, 17.84607
1242.922, 17.75614
1243.404, 17.64146
1243.886, 17.54746
1244.368, 17.45151
1244.850, 17.32416
1245.333, 17.17608
1245.815, 17.01049
1246.297, 16.85692
1246.779, 16.85504
1247.261, 17.26600
1247.743, 17.55559
1248.225, 17.59220
1248.707, 17.53625
1249.189, 17.53715
1249.672, 17.57938
1250.154, 17.62339
1250.636, 17.66746
1251.118, 17.70887
1251.600, 17.72274
1252.082, 17.77954
1252.564, 17.91543
1253.046, 18.03698
1253.529, 18.05200
1254.011, 17.98126
1254.493, 17.80854
1254.975, 17.57487
1255.457, 17.44972
1255.939, 17.54474
1256.421, 17.63659
1256.903, 17.69920
1257.385, 17.77611
1257.868, 17.87213
1258.350, 18.03445
1258.832, 18.47406
1259.314, 19.06620
1259.796, 19.24760
1260.278, 18.77304
1260.760, 18.42173
1261.242, 18.27860
1261.724, 18.20030
1262.207, 18.05962
1262.689, 17.90518
1263.171, 17.77735
1263.653, 17.68425
1264.135, 17.63633
1264.617, 17.63391
1265.099, 17.65764
1265.581, 17.70212
1266.063, 17.80879
1266.546, 18.04815
1267.028, 18.33377
1267.510, 18.67550
1267.992, 18.98252
1268.474, 19.00643
1268.956, 18.71160
1269.438, 18.62487
1269.920, 18.79440
1270.403, 18.97998
1270.885, 19.10180
1271.367, 19.07734
1271.849, 18.68575
1272.331, 18.20059
1272.813, 18.08503
1273.295, 18.30905
1273.777, 18.42059
1274.260, 18.39076
1274.742, 18.41478
1275.224, 18.70373
1275.706, 18.95562
1276.188, 19.06561
1276.670, 19.07104
1277.152, 18.96623
1277.634, 18.79740
1278.116, 18.77136
1278.599, 18.89091
1279.081, 19.04400
1279.563, 19.35588
1280.045, 19.42052
1280.527, 19.07378
1281.009, 18.62326
1281.491, 18.42417
1281.973, 18.43064
1282.456, 18.60864
1282.938, 18.91714
1283.420, 19.15675
1283.902, 19.29216
1284.384, 19.29569
1284.866, 19.12634
1285.348, 18.94451
1285.830, 18.96047
1286.313, 19.05011
1286.795, 19.06812
1287.277, 19.00944
1287.759, 18.87496
1288.241, 18.60823
1288.723, 18.49469
1289.205, 18.57428
1289.687, 18.73129
1290.169, 18.94688
1290.651, 19.12156
1291.134, 19.08274
1291.616, 18.94922
1292.098, 19.09544
1292.580, 19.57390
1293.062, 19.66844
1293.544, 19.32198
1294.026, 18.97428
1294.508, 18.99155
1294.990, 19.04726
1295.473, 18.94015
1295.955, 18.76395
1296.437, 18.60936
1296.919, 18.48870
1297.401, 18.54763
1297.883, 18.77856
1298.365, 19.00358
1298.847, 19.16482
1299.330, 19.25048
1299.812, 19.22415
1300.294, 19.18430
1300.776, 19.27601
1301.258, 19.43708
1301.740, 19.49580
1302.222, 19.46101
1302.704, 19.41257
1303.187, 19.36111
1303.669, 19.31948
1304.151, 19.28664
##END=



