##NAMES=Elbaite
##RRUFFID=R060566
##IDEAL CHEMISTRY=Na(Al_1.5_Li_1.5_)Al_6_(Si_6_O_18_)(BO_3_)_3_(OH)_3_OH
##LOCALITY=unknown
##OWNER=RRUFF
##SOURCE=Gemological Institute of America
##DESCRIPTION=Pink part of a slice of a tourmaline crystal perpendicular to its c-axis showing pink, colorless and green zones, see also R070563 (white) and R070564 (green)
##STATUS=The identification of this mineral has been confirmed by X-ray diffraction and chemical analysis
##URL=rruff.info/R060566
##MEASURED CHEMISTRY=(Na_0.63_[box]_0.34_Ca_0.03_)_Σ=1_(Al_1.59_Li_1.28_Fe^2+^_0.10_Mn_0.03_)_Σ=3_Al_6.00_(BO_3_)_3_[Si_6.00_O_18_]((OH)_3.47_F_0.53_)_Σ=4_ ; B and Li not measured but estimated by stoichiometry and charge balance
91.62726, 0.0000000E+00
92.10938, 21.91594
92.59149, 22.01520
93.07361, 21.93911
93.55573, 21.70703
94.03784, 21.56654
94.51996, 21.90821
95.00208, 22.56263
95.48419, 22.93948
95.96631, 22.83054
96.44843, 22.32218
96.93054, 21.51591
97.41266, 20.34768
97.89478, 19.26480
98.37689, 18.86969
98.85901, 19.17527
99.34113, 19.63295
99.82324, 20.20947
100.3054, 20.90007
100.7875, 20.90554
101.2696, 19.97096
101.7517, 18.67990
102.2338, 18.16455
102.7159, 18.65687
103.1981, 19.27471
103.6802, 19.52196
104.1623, 19.12697
104.6444, 19.32914
105.1265, 20.59512
105.6086, 22.45976
106.0908, 23.04294
106.5729, 21.15106
107.0550, 19.37237
107.5371, 19.28683
108.0192, 22.67956
108.5013, 25.08972
108.9835, 25.86632
109.4656, 25.05618
109.9477, 24.49357
110.4298, 23.92630
110.9119, 23.74772
111.3940, 24.21755
111.8762, 25.69213
112.3583, 27.45889
112.8404, 29.44238
113.3225, 31.63372
113.8046, 34.00495
114.2867, 37.12656
114.7689, 40.26534
115.2510, 42.60221
115.7331, 42.54491
116.2152, 42.85805
116.6973, 44.78915
117.1794, 48.81919
117.6616, 52.86166
118.1437, 56.35490
118.6258, 59.37862
119.1079, 61.94781
119.5900, 63.35326
120.0721, 64.78851
120.5543, 67.11998
121.0364, 70.73094
121.5185, 74.62101
122.0006, 78.17212
122.4827, 81.52060
122.9648, 85.11490
123.4470, 89.62695
123.9291, 94.33936
124.4112, 98.28090
124.8933, 100.6789
125.3754, 103.0728
125.8575, 107.2686
126.3397, 113.0322
126.8218, 118.9512
127.3039, 123.1832
127.7860, 126.8020
128.2681, 132.0727
128.7502, 140.4324
129.2324, 150.2358
129.7145, 158.7371
130.1966, 165.9775
130.6787, 172.3771
131.1608, 178.2729
131.6429, 183.6145
132.1251, 188.4144
132.6072, 192.5344
133.0893, 196.0951
133.5714, 199.7170
134.0535, 203.4629
134.5356, 206.9816
135.0178, 209.8156
135.4999, 211.9418
135.9820, 213.7366
136.4641, 215.1549
136.9462, 216.2266
137.4283, 217.8679
137.9105, 220.2476
138.3926, 222.9247
138.8747, 225.0493
139.3568, 226.4769
139.8389, 228.0327
140.3210, 230.1963
140.8032, 233.1826
141.2853, 235.5716
141.7674, 236.8706
142.2495, 237.8536
142.7316, 240.3151
143.2137, 244.1189
143.6959, 246.8477
144.1780, 248.6468
144.6601, 248.8588
145.1422, 249.9429
145.6243, 252.2047
146.1064, 255.3606
146.5886, 258.5599
147.0707, 262.4762
147.5528, 265.6986
148.0349, 267.4345
148.5170, 267.5130
148.9991, 266.4760
149.4813, 263.5681
149.9634, 259.1025
150.4455, 256.2990
150.9276, 257.0179
151.4097, 258.0757
151.8918, 257.5243
152.3740, 253.7390
152.8561, 250.2227
153.3382, 247.2646
153.8203, 244.8647
154.3024, 242.7680
154.7845, 241.8165
155.2667, 240.7307
155.7488, 238.5271
156.2309, 233.6152
156.7130, 229.0901
157.1951, 225.5435
157.6772, 223.0090
158.1594, 221.2283
158.6415, 220.4202
159.1236, 220.2398
159.6057, 220.3505
160.0878, 221.3449
160.5699, 222.0140
161.0521, 221.5079
161.5342, 219.5441
162.0163, 218.5707
162.4984, 219.9798
162.9805, 222.7168
163.4626, 225.4509
163.9448, 227.8610
164.4269, 230.0382
164.9090, 232.0021
165.3911, 233.7197
165.8732, 235.4378
166.3553, 237.2352
166.8375, 239.1201
167.3196, 241.1054
167.8017, 243.0257
168.2838, 245.1497
168.7659, 247.8242
169.2480, 251.2493
169.7302, 254.5735
170.2123, 257.1715
170.6944, 259.2455
171.1765, 261.2062
171.6586, 263.0623
172.1407, 265.0167
172.6229, 267.3793
173.1050, 270.3303
173.5871, 273.2885
174.0692, 275.7202
174.5513, 277.7251
175.0334, 279.5635
175.5156, 281.6549
175.9977, 283.6139
176.4798, 284.9268
176.9619, 285.6551
177.4440, 285.4882
177.9261, 283.7969
178.4083, 280.7948
178.8904, 277.3875
179.3725, 274.2848
179.8546, 271.1935
180.3367, 267.4420
180.8188, 262.5089
181.3010, 257.5800
181.7831, 254.3775
182.2652, 252.7992
182.7473, 251.8326
183.2294, 250.4561
183.7115, 249.0939
184.1937, 249.1676
184.6758, 251.5499
185.1579, 254.7588
185.6400, 256.0384
186.1221, 255.4544
186.6042, 254.8524
187.0864, 255.4661
187.5685, 257.2371
188.0506, 260.0105
188.5327, 264.1921
189.0148, 268.9899
189.4969, 272.6930
189.9791, 275.2404
190.4612, 277.7041
190.9433, 281.1859
191.4254, 285.5215
191.9075, 289.5083
192.3896, 292.6075
192.8718, 295.2844
193.3539, 299.2479
193.8360, 304.7042
194.3181, 310.1144
194.8002, 313.7613
195.2823, 315.7271
195.7645, 318.2715
196.2466, 322.0411
196.7287, 326.7485
197.2108, 331.3148
197.6929, 335.7405
198.1750, 339.9921
198.6572, 344.0732
199.1393, 347.9699
199.6214, 351.4868
200.1035, 354.2188
200.5856, 356.4787
201.0677, 360.1974
201.5499, 365.6588
202.0320, 371.6903
202.5141, 377.0781
202.9962, 381.7065
203.4783, 386.5823
203.9604, 391.6849
204.4426, 397.1533
204.9247, 404.4846
205.4068, 414.1174
205.8889, 424.3538
206.3710, 433.3175
206.8531, 440.6786
207.3353, 448.4713
207.8174, 457.0329
208.2995, 466.3843
208.7816, 476.9237
209.2637, 488.7279
209.7458, 501.3433
210.2280, 514.0639
210.7101, 526.5152
211.1922, 540.4705
211.6743, 556.6701
212.1564, 574.9016
212.6385, 593.2118
213.1207, 611.2931
213.6028, 629.6108
214.0849, 648.6136
214.5670, 668.1223
215.0491, 688.1543
215.5313, 708.0203
216.0134, 727.8507
216.4955, 752.0833
216.9776, 782.4362
217.4597, 815.1019
217.9418, 846.7557
218.4240, 876.7077
218.9061, 906.6393
219.3882, 937.2182
219.8703, 968.1949
220.3524, 998.5556
220.8345, 1029.559
221.3167, 1057.973
221.7988, 1081.166
222.2809, 1099.290
222.7630, 1111.409
223.2451, 1117.284
223.7272, 1116.956
224.2094, 1110.173
224.6915, 1096.046
225.1736, 1076.299
225.6557, 1052.718
226.1378, 1023.560
226.6199, 993.3684
227.1021, 962.4506
227.5842, 930.5294
228.0663, 901.0684
228.5484, 874.2697
229.0305, 849.3109
229.5126, 825.2175
229.9948, 801.3854
230.4769, 779.7131
230.9590, 760.3868
231.4411, 743.4918
231.9232, 728.5137
232.4053, 715.7568
232.8875, 704.3938
233.3696, 693.5410
233.8517, 682.5175
234.3338, 673.3809
234.8159, 666.7891
235.2980, 662.6514
235.7802, 658.7886
236.2623, 654.4614
236.7444, 651.2198
237.2265, 650.5762
237.7086, 654.0458
238.1907, 657.1340
238.6729, 658.7970
239.1550, 659.1959
239.6371, 661.1266
240.1192, 664.9359
240.6013, 669.8749
241.0834, 675.4648
241.5656, 682.1332
242.0477, 688.4802
242.5298, 694.3823
243.0119, 699.8242
243.4940, 704.7455
243.9761, 709.3668
244.4583, 713.1917
244.9404, 715.8576
245.4225, 717.2217
245.9046, 717.7288
246.3867, 717.5905
246.8688, 716.6975
247.3510, 714.1957
247.8331, 709.5530
248.3152, 703.9939
248.7973, 698.3708
249.2794, 693.1891
249.7615, 686.8219
250.2437, 679.1276
250.7258, 670.1608
251.2079, 660.0955
251.6900, 648.0785
252.1721, 636.1832
252.6542, 625.6341
253.1364, 617.1049
253.6185, 608.5135
254.1006, 599.5805
254.5827, 590.5617
255.0648, 582.4590
255.5469, 575.3566
256.0291, 569.1747
256.5112, 563.9595
256.9933, 559.9362
257.4754, 556.2538
257.9575, 552.7599
258.4396, 549.6199
258.9218, 547.4955
259.4039, 546.7667
259.8860, 546.3281
260.3681, 545.5687
260.8502, 544.1041
261.3323, 543.4059
261.8145, 543.3893
262.2966, 544.1939
262.7787, 546.3343
263.2608, 550.4094
263.7429, 554.5313
264.2250, 557.7919
264.7072, 559.7136
265.1893, 562.6341
265.6714, 566.9635
266.1535, 571.8926
266.6356, 575.9000
267.1177, 578.6953
267.5999, 581.4128
268.0820, 584.4470
268.5641, 587.8572
269.0462, 591.4625
269.5283, 595.6541
270.0104, 599.6292
270.4926, 602.4005
270.9747, 604.0558
271.4568, 604.3260
271.9389, 602.8514
272.4210, 599.5770
272.9031, 596.6161
273.3853, 594.2129
273.8674, 591.7040
274.3495, 588.2939
274.8316, 583.8587
275.3137, 579.1215
275.7958, 574.3331
276.2780, 569.4484
276.7601, 563.5539
277.2422, 556.4227
277.7243, 548.8333
278.2064, 541.7929
278.6885, 535.4565
279.1707, 528.1837
279.6528, 519.2069
280.1349, 508.9859
280.6170, 499.9859
281.0991, 492.3827
281.5812, 485.2861
282.0634, 478.0364
282.5455, 470.5345
283.0276, 463.3101
283.5097, 456.5045
283.9918, 450.0181
284.4739, 443.4713
284.9561, 436.8228
285.4382, 430.4149
285.9203, 424.4698
286.4024, 419.0253
286.8845, 413.9412
287.3666, 409.3322
287.8488, 404.9714
288.3309, 400.3119
288.8130, 395.3357
289.2951, 390.6217
289.7772, 386.6908
290.2593, 383.4348
290.7415, 380.1005
291.2236, 376.7591
291.7057, 373.0704
292.1878, 368.0614
292.6699, 361.8739
293.1520, 356.1994
293.6342, 352.2269
294.1163, 349.5583
294.5984, 347.1626
295.0805, 345.0572
295.5626, 342.8252
296.0447, 339.5449
296.5269, 335.4867
297.0090, 331.9497
297.4911, 330.0487
297.9732, 329.0385
298.4553, 327.0841
298.9374, 324.0621
299.4196, 321.2887
299.9017, 320.2705
300.3838, 320.6120
300.8659, 321.2669
301.3480, 321.7693
301.8301, 322.3712
302.3123, 323.5360
302.7944, 325.2564
303.2765, 327.0735
303.7586, 328.2620
304.2407, 329.3376
304.7228, 331.3185
305.2050, 334.9575
305.6871, 339.1963
306.1692, 342.9747
306.6513, 346.3472
307.1334, 349.2878
307.6155, 351.2216
308.0977, 352.9420
308.5798, 355.4901
309.0619, 359.3266
309.5440, 363.7089
310.0261, 368.1561
310.5082, 372.6838
310.9904, 377.3217
311.4725, 382.3211
311.9546, 387.3604
312.4367, 392.2204
312.9188, 396.9037
313.4009, 401.2391
313.8831, 405.4934
314.3652, 409.2491
314.8473, 411.7978
315.3294, 411.9390
315.8115, 411.4585
316.2936, 411.5135
316.7758, 412.3225
317.2579, 412.9499
317.7400, 412.8937
318.2221, 412.4571
318.7042, 412.0263
319.1863, 411.2813
319.6685, 410.9643
320.1506, 411.3569
320.6327, 412.4740
321.1148, 414.1700
321.5969, 416.1120
322.0790, 418.7416
322.5612, 422.4756
323.0433, 428.5621
323.5254, 434.5154
324.0075, 439.5485
324.4896, 443.8321
324.9717, 448.5343
325.4539, 454.5523
325.9360, 460.6177
326.4181, 465.9478
326.9002, 469.5207
327.3823, 473.6286
327.8644, 479.1363
328.3466, 485.3836
328.8287, 490.3434
329.3108, 493.3944
329.7929, 495.6833
330.2750, 497.4767
330.7571, 498.4738
331.2393, 499.7293
331.7214, 501.6682
332.2035, 503.7089
332.6856, 504.9156
333.1677, 505.2677
333.6498, 504.8022
334.1320, 503.1931
334.6141, 500.1963
335.0962, 498.2188
335.5783, 497.5782
336.0604, 497.6287
336.5425, 497.8018
337.0247, 498.3310
337.5068, 498.3545
337.9889, 497.4308
338.4710, 495.7607
338.9531, 495.0218
339.4352, 495.2899
339.9174, 496.3059
340.3995, 498.1500
340.8816, 501.0848
341.3637, 503.1805
341.8458, 503.8957
342.3279, 503.9057
342.8101, 505.0652
343.2922, 507.4613
343.7743, 510.3608
344.2564, 513.5190
344.7385, 516.9298
345.2206, 519.9056
345.7028, 522.3832
346.1849, 524.5604
346.6670, 526.2916
347.1491, 527.6715
347.6312, 530.1786
348.1133, 535.2001
348.5955, 541.9047
349.0776, 547.5724
349.5597, 552.2051
350.0418, 556.2771
350.5239, 559.7224
351.0060, 562.9186
351.4882, 566.9919
351.9703, 572.9222
352.4524, 579.4066
352.9345, 584.0987
353.4166, 587.1892
353.8987, 590.3897
354.3809, 594.7902
354.8630, 600.1320
355.3451, 605.8193
355.8272, 611.4186
356.3093, 618.0036
356.7914, 627.2306
357.2736, 638.3713
357.7557, 649.2321
358.2378, 657.7615
358.7199, 665.9169
359.2020, 674.8143
359.6841, 684.2929
360.1663, 696.2287
360.6484, 713.4699
361.1305, 733.4099
361.6126, 752.3936
362.0947, 767.2895
362.5768, 782.4770
363.0590, 800.2003
363.5411, 820.5165
364.0232, 841.6258
364.5053, 862.3590
364.9874, 883.9696
365.4695, 907.4326
365.9517, 932.2498
366.4338, 959.7381
366.9159, 991.8542
367.3980, 1027.416
367.8801, 1061.857
368.3622, 1091.161
368.8444, 1121.562
369.3265, 1155.900
369.8086, 1197.234
370.2907, 1237.455
370.7728, 1276.554
371.2549, 1314.451
371.7371, 1350.983
372.2192, 1388.654
372.7013, 1421.667
373.1834, 1448.801
373.6655, 1470.436
374.1476, 1484.242
374.6298, 1490.384
375.1119, 1488.269
375.5940, 1476.538
376.0761, 1453.916
376.5582, 1426.180
377.0403, 1393.706
377.5225, 1357.057
378.0046, 1316.103
378.4867, 1270.568
378.9688, 1224.652
379.4509, 1181.184
379.9330, 1140.564
380.4152, 1099.784
380.8973, 1058.694
381.3794, 1017.929
381.8615, 978.8658
382.3436, 941.0604
382.8257, 906.6651
383.3079, 876.3680
383.7900, 849.8606
384.2721, 825.4454
384.7542, 803.3317
385.2363, 782.3885
385.7184, 760.5540
386.2006, 738.9639
386.6827, 719.5372
387.1648, 703.4503
387.6469, 689.5717
388.1290, 676.3268
388.6111, 663.8747
389.0933, 652.7809
389.5754, 643.3669
390.0575, 635.4596
390.5396, 628.8290
391.0217, 623.5984
391.5038, 618.9407
391.9860, 613.8947
392.4681, 609.0428
392.9502, 605.3821
393.4323, 604.1320
393.9144, 603.6212
394.3965, 602.7776
394.8787, 601.4817
395.3608, 600.8539
395.8429, 601.5021
396.3250, 602.8900
396.8071, 604.5372
397.2892, 606.6947
397.7714, 608.7234
398.2535, 610.1148
398.7356, 611.1241
399.2177, 612.9631
399.6998, 616.3453
400.1819, 620.1097
400.6641, 623.8868
401.1462, 628.2897
401.6283, 631.4224
402.1104, 632.8350
402.5925, 633.1785
403.0746, 633.4348
403.5568, 633.6083
404.0389, 633.6523
404.5210, 633.3845
405.0031, 632.7999
405.4852, 633.2311
405.9673, 635.3939
406.4495, 637.2219
406.9316, 636.8672
407.4137, 634.1400
407.8958, 630.7946
408.3779, 627.1355
408.8600, 622.9561
409.3422, 617.4980
409.8243, 610.7206
410.3064, 603.7495
410.7885, 597.6453
411.2706, 591.9443
411.7527, 584.3084
412.2349, 574.3964
412.7170, 563.7708
413.1991, 554.5549
413.6812, 546.2175
414.1633, 537.3027
414.6454, 527.1609
415.1276, 516.2603
415.6097, 505.2131
416.0918, 494.0758
416.5739, 482.5606
417.0560, 469.6868
417.5381, 456.6554
418.0203, 444.9252
418.5024, 435.1660
418.9845, 425.8221
419.4666, 416.0477
419.9487, 406.0415
420.4308, 396.4098
420.9130, 386.9588
421.3951, 378.2017
421.8772, 370.4799
422.3593, 364.0270
422.8414, 357.4508
423.3235, 349.6919
423.8057, 342.0824
424.2878, 335.7767
424.7699, 331.9399
425.2520, 328.2478
425.7341, 324.4399
426.2162, 320.6281
426.6984, 317.0089
427.1805, 313.3824
427.6626, 310.2238
428.1447, 307.7244
428.6268, 306.0269
429.1089, 304.5401
429.5911, 303.2882
430.0732, 302.2003
430.5553, 301.1197
431.0374, 299.9663
431.5195, 299.1183
432.0016, 298.6148
432.4838, 298.4826
432.9659, 299.0428
433.4480, 300.4317
433.9301, 301.6487
434.4122, 301.6822
434.8943, 300.7546
435.3765, 300.5362
435.8586, 301.2975
436.3407, 302.4688
436.8228, 303.3272
437.3049, 303.9292
437.7870, 304.4901
438.2692, 305.0172
438.7513, 305.6123
439.2334, 306.4651
439.7155, 307.5660
440.1976, 308.7101
440.6797, 309.4686
441.1619, 310.2943
441.6440, 311.8668
442.1261, 314.8963
442.6082, 317.6439
443.0903, 318.9627
443.5724, 319.2560
444.0546, 319.3952
444.5367, 319.4309
445.0188, 319.6134
445.5009, 320.2114
445.9830, 321.3326
446.4651, 322.0240
446.9473, 321.6876
447.4294, 321.0587
447.9115, 320.7578
448.3936, 321.1126
448.8757, 321.4401
449.3578, 321.8708
449.8400, 322.2520
450.3221, 322.0685
450.8042, 321.1926
451.2863, 319.9596
451.7684, 318.4561
452.2505, 316.6517
452.7327, 314.8013
453.2148, 312.9395
453.6969, 311.0033
454.1790, 308.9651
454.6611, 306.8051
455.1432, 304.6165
455.6254, 302.4626
456.1075, 300.2755
456.5896, 297.9454
457.0717, 295.4511
457.5538, 292.8395
458.0359, 289.8891
458.5181, 286.8721
459.0002, 284.4237
459.4823, 282.6569
459.9644, 281.1867
460.4465, 279.7926
460.9286, 278.4242
461.4108, 277.0145
461.8929, 275.5238
462.3750, 273.9964
462.8571, 272.3710
463.3392, 270.6957
463.8214, 269.2610
464.3035, 268.2577
464.7856, 267.4924
465.2677, 266.8900
465.7498, 266.5699
466.2319, 266.0463
466.7141, 264.7775
467.1962, 263.3787
467.6783, 262.6240
468.1604, 263.6989
468.6425, 264.2112
469.1246, 263.4709
469.6068, 261.6144
470.0889, 260.2935
470.5710, 259.5838
471.0531, 259.3009
471.5352, 259.4185
472.0173, 260.0875
472.4995, 260.6127
472.9816, 260.9671
473.4637, 261.2012
473.9458, 261.2727
474.4279, 261.1500
474.9100, 261.4095
475.3922, 262.3844
475.8743, 263.8117
476.3564, 264.8854
476.8385, 265.6093
477.3206, 266.2451
477.8027, 266.7581
478.2849, 267.3522
478.7670, 268.6063
479.2491, 270.7519
479.7312, 272.8581
480.2133, 273.7613
480.6954, 274.0128
481.1776, 274.6459
481.6597, 276.5094
482.1418, 278.5355
482.6239, 279.8886
483.1060, 280.7013
483.5881, 281.9000
484.0703, 284.1296
484.5524, 286.6703
485.0345, 289.2049
485.5166, 292.0531
485.9987, 294.0275
486.4808, 293.7204
486.9630, 292.8528
487.4451, 293.8106
487.9272, 298.3745
488.4093, 302.2563
488.8914, 304.5079
489.3735, 305.3575
489.8557, 306.6541
490.3378, 308.5338
490.8199, 310.6003
491.3020, 312.8226
491.7841, 315.3017
492.2662, 316.5569
492.7484, 316.1520
493.2305, 315.5392
493.7126, 316.8388
494.1947, 319.8492
494.6768, 323.0841
495.1589, 326.2879
495.6411, 329.2060
496.1232, 331.0338
496.6053, 331.9541
497.0874, 333.0174
497.5695, 335.2669
498.0516, 337.8738
498.5338, 339.7210
499.0159, 340.4903
499.4980, 341.6421
499.9801, 343.8176
500.4622, 346.9662
500.9443, 351.0892
501.4265, 357.4287
501.9086, 363.3193
502.3907, 367.9721
502.8728, 371.5424
503.3549, 374.7779
503.8370, 376.9278
504.3192, 379.6074
504.8013, 383.6163
505.2834, 389.4565
505.7655, 394.3851
506.2476, 398.0405
506.7297, 401.1823
507.2119, 404.5436
507.6940, 408.1248
508.1761, 411.9016
508.6582, 416.0104
509.1403, 420.1688
509.6224, 423.5590
510.1046, 426.1571
510.5867, 428.8282
511.0688, 432.2783
511.5509, 436.1289
512.0330, 439.0869
512.5151, 441.1413
512.9973, 443.1579
513.4794, 446.1733
513.9615, 449.5906
514.4436, 452.3396
514.9257, 453.7940
515.4078, 455.4273
515.8900, 459.4027
516.3721, 464.2144
516.8542, 467.0010
517.3363, 465.0318
517.8184, 462.4027
518.3005, 460.8990
518.7827, 460.5583
519.2648, 459.8620
519.7469, 458.9254
520.2290, 457.2751
520.7111, 454.6318
521.1932, 450.7299
521.6754, 446.3954
522.1575, 441.4076
522.6396, 436.1294
523.1217, 431.0846
523.6038, 426.3325
524.0859, 421.5124
524.5681, 416.3856
525.0502, 411.2390
525.5323, 407.2106
526.0144, 404.3462
526.4965, 401.5067
526.9786, 397.3275
527.4608, 392.5699
527.9429, 389.8393
528.4250, 389.3844
528.9071, 389.4681
529.3892, 388.3536
529.8713, 386.6995
530.3535, 385.6018
530.8356, 385.4900
531.3177, 385.8529
531.7998, 386.1935
532.2819, 386.7538
532.7640, 388.0872
533.2462, 390.8479
533.7283, 394.0096
534.2104, 397.2819
534.6925, 400.6346
535.1746, 403.8495
535.6567, 407.0420
536.1389, 409.9710
536.6210, 412.4727
537.1031, 414.7982
537.5852, 416.1293
538.0673, 416.0677
538.5494, 415.3939
539.0316, 415.6114
539.5137, 416.9723
539.9958, 417.4785
540.4779, 416.2850
540.9600, 413.9655
541.4421, 412.4134
541.9243, 411.5866
542.4064, 410.3171
542.8885, 407.2149
543.3706, 403.2951
543.8527, 400.7369
544.3348, 399.8528
544.8170, 398.6291
545.2991, 395.1705
545.7812, 390.5637
546.2633, 386.1026
546.7454, 382.3096
547.2275, 378.6035
547.7097, 374.5943
548.1918, 370.4805
548.6739, 366.7939
549.1560, 363.6194
549.6381, 360.8771
550.1202, 358.8441
550.6024, 357.5645
551.0845, 355.4655
551.5666, 352.0948
552.0487, 348.5012
552.5308, 345.4292
553.0129, 342.9909
553.4951, 340.2130
553.9772, 336.7773
554.4593, 333.5959
554.9414, 332.3997
555.4235, 332.9840
555.9056, 332.9268
556.3878, 331.4305
556.8699, 329.0087
557.3520, 326.1704
557.8341, 323.0582
558.3162, 320.3447
558.7983, 318.9520
559.2805, 317.8173
559.7626, 315.8198
560.2447, 312.8766
560.7268, 309.9657
561.2089, 307.2642
561.6910, 304.9324
562.1732, 303.1477
562.6553, 302.7150
563.1374, 301.6485
563.6195, 299.1577
564.1016, 296.0571
564.5837, 293.5141
565.0659, 291.5199
565.5480, 290.1295
566.0301, 289.7592
566.5122, 290.0157
566.9943, 288.6319
567.4764, 285.2537
567.9586, 281.9984
568.4407, 280.2912
568.9228, 279.8643
569.4049, 279.1537
569.8870, 278.1112
570.3691, 277.0688
570.8513, 276.6130
571.3334, 276.3518
571.8155, 275.4420
572.2976, 273.3771
572.7797, 271.3535
573.2618, 270.3349
573.7440, 269.9648
574.2261, 269.5796
574.7082, 268.5465
575.1903, 267.8401
575.6724, 268.1225
576.1545, 269.2496
576.6367, 269.9166
577.1188, 269.9150
577.6009, 269.5224
578.0830, 268.7711
578.5651, 267.5770
579.0472, 266.4879
579.5294, 265.4826
580.0115, 264.6028
580.4936, 263.7469
580.9757, 262.8960
581.4578, 262.8387
581.9399, 263.9093
582.4221, 265.2865
582.9042, 265.5814
583.3863, 265.0317
583.8684, 264.6302
584.3505, 265.0664
584.8326, 265.6515
585.3148, 265.4889
585.7969, 264.7539
586.2790, 264.2639
586.7611, 264.9183
587.2432, 265.6027
587.7253, 265.5280
588.2075, 264.5041
588.6896, 263.4472
589.1717, 262.4250
589.6538, 261.5018
590.1359, 260.7068
590.6180, 259.9235
591.1002, 259.5534
591.5823, 259.9233
592.0644, 260.4319
592.5465, 260.0274
593.0286, 258.6235
593.5107, 256.9054
593.9929, 254.7907
594.4750, 252.7136
594.9571, 252.2139
595.4392, 253.1168
595.9213, 253.5628
596.4034, 251.7751
596.8856, 249.1880
597.3677, 247.9363
597.8498, 248.0958
598.3319, 248.1053
598.8140, 246.6071
599.2961, 244.7414
599.7783, 243.5480
600.2604, 243.6673
600.7425, 243.4470
601.2246, 242.0737
601.7067, 240.3188
602.1888, 239.2254
602.6710, 239.2827
603.1531, 239.1846
603.6352, 238.8061
604.1173, 238.1374
604.5994, 237.0670
605.0815, 235.5238
605.5637, 234.0014
606.0458, 232.5115
606.5279, 231.2311
607.0100, 231.1903
607.4921, 232.3570
607.9742, 233.1534
608.4564, 231.9144
608.9385, 229.7227
609.4206, 228.2150
609.9027, 227.6432
610.3848, 227.2438
610.8669, 226.5019
611.3491, 225.6907
611.8312, 225.0930
612.3133, 225.0609
612.7954, 224.8759
613.2775, 224.2885
613.7596, 223.4798
614.2418, 222.7743
614.7239, 222.1324
615.2060, 221.6855
615.6881, 221.6047
616.1702, 221.7265
616.6523, 221.0616
617.1345, 219.4194
617.6166, 218.1331
618.0987, 218.2328
618.5808, 219.3251
619.0629, 219.8742
619.5450, 219.8685
620.0272, 219.7464
620.5093, 219.5264
620.9914, 219.5429
621.4735, 220.3799
621.9556, 222.3529
622.4377, 224.3317
622.9199, 225.6168
623.4020, 226.6219
623.8841, 227.8202
624.3662, 229.2840
624.8483, 230.9995
625.3304, 233.1571
625.8126, 235.5273
626.2947, 237.5459
626.7768, 238.8591
627.2589, 240.6125
627.7410, 243.2969
628.2231, 246.6807
628.7053, 249.4174
629.1874, 251.4500
629.6695, 253.7279
630.1516, 257.0204
630.6337, 260.9720
631.1158, 264.7462
631.5980, 268.2819
632.0801, 272.1391
632.5622, 277.0073
633.0443, 282.2873
633.5264, 287.3175
634.0085, 291.8917
634.4907, 296.4715
634.9728, 301.3001
635.4549, 306.1915
635.9370, 310.8997
636.4191, 315.3095
636.9012, 319.6613
637.3834, 323.7765
637.8655, 327.9064
638.3476, 332.6561
638.8297, 338.1779
639.3118, 343.5129
639.7939, 348.3575
640.2761, 352.7867
640.7582, 357.0137
641.2403, 361.0705
641.7224, 364.6140
642.2045, 367.5014
642.6866, 369.8175
643.1688, 371.6766
643.6509, 373.1000
644.1330, 373.9142
644.6151, 373.9523
645.0972, 373.4016
645.5793, 372.4756
646.0615, 371.4593
646.5436, 369.4400
647.0257, 365.8696
647.5078, 361.4470
647.9899, 356.7188
648.4720, 351.4199
648.9542, 346.4165
649.4363, 341.8235
649.9184, 337.4679
650.4005, 332.7875
650.8826, 327.8065
651.3647, 322.9288
651.8469, 318.1826
652.3290, 313.6535
652.8111, 309.5533
653.2932, 305.7606
653.7753, 302.0363
654.2574, 298.5209
654.7396, 294.7435
655.2217, 290.2810
655.7038, 285.1530
656.1859, 280.0080
656.6680, 274.9508
657.1501, 269.9288
657.6323, 264.9832
658.1144, 260.1540
658.5965, 255.0982
659.0786, 249.4689
659.5607, 244.0548
660.0428, 239.4614
660.5250, 235.6985
661.0071, 232.7400
661.4892, 230.7366
661.9713, 229.1059
662.4534, 227.2576
662.9355, 225.1931
663.4177, 222.8738
663.8998, 220.1296
664.3819, 217.4102
664.8640, 214.8818
665.3461, 212.6833
665.8282, 211.0366
666.3104, 210.6220
666.7925, 210.1427
667.2746, 208.9999
667.7567, 207.3532
668.2388, 206.1810
668.7209, 205.6971
669.2031, 205.3526
669.6852, 204.9818
670.1673, 204.5835
670.6494, 204.1984
671.1315, 203.8427
671.6136, 203.3674
672.0958, 202.2945
672.5779, 201.0395
673.0600, 200.9923
673.5421, 202.2598
674.0242, 203.6098
674.5063, 204.0725
674.9885, 204.0918
675.4706, 204.1240
675.9527, 204.2395
676.4348, 204.4259
676.9169, 204.7698
677.3990, 205.1372
677.8812, 205.3987
678.3633, 205.7801
678.8454, 205.6139
679.3275, 204.6396
679.8096, 203.2905
680.2917, 202.4147
680.7739, 202.0681
681.2560, 201.5778
681.7381, 200.6897
682.2202, 199.6464
682.7023, 198.8620
683.1844, 198.3231
683.6666, 198.0034
684.1487, 197.7650
684.6308, 197.8316
685.1129, 198.3975
685.5950, 199.4324
686.0771, 200.7769
686.5593, 202.3157
687.0414, 204.1936
687.5235, 206.5917
688.0056, 209.5479
688.4877, 212.2519
688.9698, 214.4198
689.4520, 216.8245
689.9341, 219.9024
690.4162, 223.6434
690.8983, 228.3418
691.3804, 234.1641
691.8625, 240.1591
692.3447, 245.0205
692.8268, 249.3802
693.3089, 254.5250
693.7910, 260.7087
694.2731, 267.4814
694.7552, 274.6994
695.2374, 282.2614
695.7195, 290.0457
696.2016, 297.5569
696.6837, 305.8855
697.1658, 315.2214
697.6479, 325.4449
698.1301, 336.5537
698.6122, 348.9044
699.0943, 361.0182
699.5764, 372.3480
700.0585, 383.5325
700.5406, 396.5596
701.0228, 411.2847
701.5049, 426.1920
701.9870, 440.6148
702.4691, 454.8533
702.9512, 469.0524
703.4333, 483.4144
703.9155, 498.3586
704.3976, 515.5302
704.8797, 532.2520
705.3618, 547.0861
705.8439, 559.9769
706.3260, 572.1073
706.8082, 584.1485
707.2903, 594.9554
707.7724, 603.9422
708.2545, 611.2082
708.7366, 616.4653
709.2188, 619.6863
709.7009, 620.9833
710.1830, 620.3171
710.6651, 617.7858
711.1472, 613.6642
711.6293, 607.9793
712.1115, 600.7194
712.5936, 591.5790
713.0757, 580.9061
713.5578, 569.1589
714.0399, 556.2427
714.5220, 542.5478
715.0042, 527.6784
715.4863, 512.5198
715.9684, 497.7634
716.4505, 483.4424
716.9326, 469.8566
717.4147, 457.4628
717.8969, 445.3940
718.3790, 432.0951
718.8611, 417.5741
719.3432, 404.5681
719.8253, 394.0082
720.3074, 384.7233
720.7896, 374.9622
721.2717, 365.1962
721.7538, 356.2645
722.2359, 349.2905
722.7180, 342.5698
723.2001, 335.0803
723.6823, 327.2042
724.1644, 320.4109
724.6465, 315.3192
725.1286, 310.8165
725.6107, 306.6860
726.0928, 302.9991
726.5750, 300.1421
727.0571, 298.2907
727.5392, 296.4239
728.0213, 293.6087
728.5034, 290.5557
728.9855, 289.4534
729.4677, 290.0880
729.9498, 290.8464
730.4319, 290.5065
730.9140, 289.9503
731.3961, 289.8480
731.8782, 290.2449
732.3604, 291.0050
732.8425, 291.9214
733.3246, 293.3576
733.8067, 295.6015
734.2888, 298.8506
734.7709, 301.5464
735.2531, 303.3546
735.7352, 305.5085
736.2173, 309.2338
736.6994, 314.2700
737.1815, 318.7515
737.6636, 322.4864
738.1458, 326.6693
738.6279, 332.6912
739.1100, 339.6389
739.5921, 346.1798
740.0742, 351.7436
740.5563, 358.1293
741.0385, 366.3764
741.5206, 375.5931
742.0027, 384.9635
742.4848, 394.0063
742.9669, 403.8680
743.4490, 414.9403
743.9312, 426.3575
744.4133, 437.2126
744.8954, 447.5128
745.3775, 457.5055
745.8596, 467.2398
746.3417, 476.7880
746.8239, 486.4883
747.3060, 496.0789
747.7881, 505.1253
748.2702, 514.5395
748.7523, 521.6418
749.2344, 524.6793
749.7166, 524.6440
750.1987, 523.2175
750.6808, 520.2953
751.1629, 516.5917
751.6450, 512.7003
752.1271, 507.7997
752.6093, 499.6558
753.0914, 488.0640
753.5735, 475.9219
754.0556, 464.3469
754.5377, 452.8643
755.0198, 440.8400
755.5020, 428.3919
755.9841, 416.3042
756.4662, 404.8256
756.9483, 393.7813
757.4304, 382.9202
757.9125, 372.4091
758.3947, 362.1066
758.8768, 351.8909
759.3589, 342.1278
759.8410, 332.9611
760.3231, 324.4189
760.8052, 316.4483
761.2874, 309.0981
761.7695, 302.1319
762.2516, 295.3267
762.7337, 288.7376
763.2158, 282.4953
763.6979, 276.5195
764.1801, 270.6604
764.6622, 264.6428
765.1443, 258.8408
765.6264, 253.3429
766.1085, 248.1877
766.5906, 243.9317
767.0728, 241.7493
767.5549, 239.2688
768.0370, 235.3393
768.5191, 230.0119
769.0012, 226.2139
769.4833, 224.1958
769.9655, 222.3996
770.4476, 219.3899
770.9297, 215.8951
771.4118, 213.9599
771.8939, 213.5495
772.3760, 213.2805
772.8582, 212.1454
773.3403, 210.8499
773.8224, 209.9728
774.3045, 209.6234
774.7866, 209.1920
775.2687, 208.6140
775.7509, 207.8995
776.2330, 206.9682
776.7151, 205.7538
777.1972, 205.1284
777.6793, 205.2632
778.1614, 205.0248
778.6436, 203.3392
779.1257, 200.5980
779.6078, 197.6853
780.0899, 194.6609
780.5720, 191.3830
781.0541, 187.6442
781.5363, 183.6346
782.0184, 179.4834
782.5005, 175.0686
782.9826, 170.9946
783.4647, 167.5536
783.9468, 164.1686
784.4290, 160.3871
784.9111, 156.1077
785.3932, 151.9963
785.8753, 147.9970
786.3574, 144.7160
786.8395, 143.4216
787.3217, 143.1534
787.8038, 141.6961
788.2859, 138.6330
788.7680, 135.7283
789.2501, 134.1417
789.7322, 133.1605
790.2144, 132.1649
790.6965, 131.0386
791.1786, 130.0185
791.6607, 129.3047
792.1428, 128.4697
792.6249, 127.0112
793.1071, 124.8833
793.5892, 123.2184
794.0713, 122.0858
794.5534, 121.3565
795.0355, 121.2994
795.5176, 121.4162
795.9998, 120.6515
796.4819, 118.5523
796.9640, 116.9006
797.4461, 117.1513
797.9282, 117.8994
798.4103, 117.8251
798.8925, 116.4061
799.3746, 115.1059
799.8567, 113.9532
800.3388, 112.8962
800.8209, 111.8689
801.3030, 110.8857
801.7852, 110.2251
802.2673, 109.9736
802.7494, 109.6012
803.2315, 108.1798
803.7136, 106.4778
804.1957, 105.6356
804.6779, 106.1846
805.1600, 106.5354
805.6421, 106.0265
806.1242, 105.1420
806.6063, 104.2861
807.0884, 103.3624
807.5706, 102.7739
808.0527, 102.6216
808.5348, 102.5509
809.0169, 101.9806
809.4990, 101.1246
809.9811, 101.0869
810.4633, 102.1425
810.9454, 103.0451
811.4275, 102.4152
811.9096, 101.2533
812.3917, 100.6393
812.8738, 100.8857
813.3560, 101.3880
813.8381, 102.4704
814.3202, 103.4137
814.8023, 103.5182
815.2844, 102.5510
815.7665, 102.2163
816.2487, 102.6696
816.7308, 103.3469
817.2129, 103.7960
817.6950, 104.0118
818.1771, 103.9229
818.6592, 103.4823
819.1414, 103.0367
819.6235, 102.7905
820.1056, 102.6314
820.5877, 102.4508
821.0698, 102.1573
821.5519, 102.0160
822.0341, 101.8268
822.5162, 102.0884
822.9983, 103.5695
823.4804, 106.1910
823.9625, 107.6594
824.4446, 107.8178
824.9268, 107.4554
825.4089, 106.8533
825.8910, 106.3734
826.3731, 106.6028
826.8552, 107.7062
827.3373, 108.7645
827.8195, 109.7080
828.3016, 110.2771
828.7837, 110.2027
829.2658, 109.2474
829.7479, 109.0265
830.2300, 109.7080
830.7122, 110.5760
831.1943, 111.0631
831.6764, 111.2711
832.1585, 111.4995
832.6406, 111.7644
833.1227, 112.0138
833.6049, 112.2788
834.0870, 112.4612
834.5691, 112.3631
835.0512, 111.8805
835.5333, 111.9467
836.0154, 113.1346
836.4976, 114.1786
836.9797, 114.3457
837.4618, 113.6631
837.9439, 113.2919
838.4260, 113.2334
838.9081, 113.3367
839.3903, 113.7243
839.8724, 114.0860
840.3545, 113.8009
840.8366, 112.9375
841.3187, 112.3965
841.8008, 112.7416
842.2830, 113.3625
842.7651, 114.1017
843.2472, 114.9317
843.7293, 115.3809
844.2114, 115.3738
844.6935, 115.2361
845.1757, 115.0803
845.6578, 114.9278
846.1399, 114.8744
846.6220, 114.8955
847.1041, 114.8519
847.5862, 114.2138
848.0684, 113.8770
848.5505, 114.7324
849.0326, 116.5325
849.5147, 117.9401
849.9968, 118.5846
850.4789, 119.1316
850.9611, 119.8362
851.4432, 120.5271
851.9253, 120.3635
852.4074, 119.3846
852.8895, 118.9017
853.3716, 119.5429
853.8538, 120.8770
854.3359, 122.8692
854.8180, 125.1430
855.3001, 126.7774
855.7822, 126.7108
856.2643, 126.8306
856.7465, 127.8218
857.2286, 129.2768
857.7107, 130.4755
858.1928, 131.3776
858.6749, 132.2471
859.1570, 133.1798
859.6392, 134.0364
860.1213, 134.3730
860.6034, 134.4517
861.0855, 134.9363
861.5676, 136.1407
862.0497, 137.6075
862.5319, 139.5313
863.0140, 141.4037
863.4961, 142.3952
863.9782, 141.7112
864.4603, 141.7895
864.9424, 142.9315
865.4246, 144.5476
865.9067, 145.9880
866.3888, 147.2619
866.8709, 148.5047
867.3530, 149.7424
867.8351, 150.8765
868.3173, 151.8147
868.7994, 152.6368
869.2815, 153.4739
869.7636, 154.5075
870.2457, 155.0627
870.7278, 154.7932
871.2100, 154.4000
871.6921, 154.3376
872.1742, 154.6059
872.6563, 155.3460
873.1384, 156.6140
873.6205, 157.6126
874.1027, 157.4313
874.5848, 156.7183
875.0669, 156.2459
875.5490, 156.0872
876.0311, 156.1126
876.5132, 156.8577
876.9954, 157.1860
877.4775, 156.3488
877.9596, 154.4108
878.4417, 153.4749
878.9238, 153.7193
879.4059, 153.9128
879.8881, 153.2461
880.3702, 152.1295
880.8523, 151.5079
881.3344, 151.2169
881.8165, 150.5541
882.2986, 148.7442
882.7808, 146.8969
883.2629, 145.6635
883.7450, 144.8494
884.2271, 143.6301
884.7092, 141.6837
885.1913, 140.3259
885.6735, 140.1458
886.1556, 140.4221
886.6377, 139.4324
887.1198, 137.5399
887.6019, 135.9849
888.0840, 135.4400
888.5662, 135.0229
889.0483, 134.1257
889.5304, 133.0096
890.0125, 132.1099
890.4946, 131.6682
890.9767, 131.0868
891.4589, 130.3396
891.9410, 129.4229
892.4231, 128.0730
892.9052, 126.4465
893.3873, 125.7212
893.8694, 126.2247
894.3516, 126.5976
894.8337, 125.4109
895.3158, 123.6524
895.7979, 122.2917
896.2800, 121.5812
896.7621, 121.0291
897.2443, 120.7184
897.7264, 120.3783
898.2085, 119.8707
898.6906, 119.1963
899.1727, 118.2152
899.6548, 116.9343
900.1370, 115.5895
900.6191, 114.0139
901.1012, 112.7160
901.5833, 112.6019
902.0654, 113.5463
902.5475, 113.8333
903.0297, 112.3563
903.5118, 110.8803
903.9939, 109.9698
904.4760, 109.4902
904.9581, 108.7511
905.4402, 107.7461
905.9224, 106.9481
906.4045, 106.6539
906.8866, 106.5284
907.3687, 106.0177
907.8508, 105.3556
908.3329, 105.0737
908.8151, 105.8114
909.2972, 106.3815
909.7793, 106.5447
910.2614, 106.4177
910.7435, 106.1413
911.2256, 105.7091
911.7078, 105.1441
912.1899, 104.3532
912.6720, 103.7928
913.1541, 104.4261
913.6362, 105.5026
914.1183, 105.7594
914.6005, 104.6129
915.0826, 103.8078
915.5647, 104.1520
916.0468, 104.8295
916.5289, 105.3077
917.0110, 105.5515
917.4932, 105.7988
917.9753, 106.0167
918.4574, 106.5025
918.9395, 107.8098
919.4216, 109.3728
919.9037, 110.2458
920.3859, 110.4644
920.8680, 110.6959
921.3501, 111.1928
921.8322, 111.8005
922.3143, 112.5067
922.7964, 113.2700
923.2786, 113.8548
923.7607, 114.2047
924.2428, 114.8713
924.7249, 116.2621
925.2070, 117.7997
925.6891, 118.3306
926.1713, 118.2831
926.6534, 118.6060
927.1355, 119.9443
927.6176, 121.3734
928.0997, 122.8762
928.5818, 124.2105
929.0640, 124.9132
929.5461, 124.7647
930.0282, 125.4991
930.5103, 127.4785
930.9924, 129.5246
931.4745, 129.9977
931.9567, 129.7224
932.4388, 130.1338
932.9209, 131.5594
933.4030, 132.7549
933.8851, 132.8656
934.3672, 132.9172
934.8494, 133.4914
935.3315, 134.6062
935.8136, 135.8956
936.2957, 137.3831
936.7778, 138.8340
937.2599, 140.2251
937.7421, 141.4329
938.2242, 142.1757
938.7063, 142.5562
939.1884, 142.9940
939.6705, 143.6644
940.1526, 144.4184
940.6348, 145.3240
941.1169, 146.2369
941.5990, 146.7238
942.0811, 146.7281
942.5632, 147.0149
943.0453, 147.8393
943.5275, 148.8039
944.0096, 149.4097
944.4917, 149.8360
944.9738, 150.3821
945.4559, 151.1838
945.9380, 151.9553
946.4202, 152.3242
946.9023, 152.9152
947.3844, 154.3758
947.8665, 156.8456
948.3486, 158.3543
948.8307, 158.8435
949.3129, 159.0014
949.7950, 159.1941
950.2771, 159.4720
950.7592, 159.8521
951.2413, 160.3510
951.7234, 161.0796
952.2056, 162.5076
952.6877, 163.6292
953.1698, 163.9646
953.6519, 163.8665
954.1340, 164.6356
954.6161, 166.2409
955.0983, 167.7793
955.5804, 168.8572
956.0625, 169.8863
956.5446, 171.4553
957.0267, 173.1903
957.5089, 174.5188
957.9910, 174.7224
958.4731, 175.4063
958.9552, 176.8376
959.4373, 178.4793
959.9194, 179.7951
960.4016, 180.8273
960.8837, 181.9725
961.3658, 183.2464
961.8479, 184.5657
962.3300, 185.8812
962.8121, 187.1837
963.2943, 188.4400
963.7764, 189.6533
964.2585, 190.8568
964.7406, 191.9113
965.2227, 193.2437
965.7048, 195.1238
966.1870, 197.3063
966.6691, 199.3355
967.1512, 201.1792
967.6333, 202.6141
968.1154, 203.0062
968.5975, 203.7298
969.0797, 205.9225
969.5618, 208.8240
970.0439, 211.3457
970.5260, 213.4488
971.0081, 215.0760
971.4902, 216.1328
971.9724, 216.9336
972.4545, 217.7179
972.9366, 218.5183
973.4187, 219.3255
973.9008, 220.1369
974.3829, 221.2051
974.8651, 223.0376
975.3472, 224.7919
975.8293, 225.9555
976.3114, 226.5890
976.7935, 227.4041
977.2756, 228.4468
977.7578, 229.3197
978.2399, 229.7741
978.7220, 230.0621
979.2041, 230.5151
979.6862, 231.1020
980.1683, 231.7505
980.6505, 232.5689
981.1326, 233.2957
981.6147, 234.1193
982.0968, 234.6397
982.5789, 233.9754
983.0610, 232.1132
983.5432, 232.1594
984.0253, 234.5398
984.5074, 236.9318
984.9895, 237.2647
985.4716, 236.6017
985.9537, 235.8282
986.4359, 235.0303
986.9180, 234.5367
987.4001, 234.6344
987.8822, 234.5732
988.3643, 234.0045
988.8464, 233.1297
989.3286, 232.5587
989.8107, 232.2634
990.2928, 232.1177
990.7749, 232.3144
991.2570, 232.2916
991.7391, 231.5423
992.2213, 230.4090
992.7034, 229.3324
993.1855, 228.1326
993.6676, 227.6456
994.1497, 228.1254
994.6318, 228.6006
995.1140, 227.8159
995.5961, 226.3814
996.0782, 225.6386
996.5603, 225.6523
997.0424, 225.5369
997.5245, 224.7366
998.0067, 223.8495
998.4888, 223.2297
998.9709, 222.7611
999.4530, 221.7249
999.9351, 220.0744
1000.417, 218.8464
1000.899, 218.5239
1001.381, 218.5051
1001.864, 218.1681
1002.346, 217.6009
1002.828, 216.9549
1003.310, 216.4125
1003.792, 215.4665
1004.274, 213.7036
1004.756, 212.0869
1005.238, 211.4311
1005.721, 211.6606
1006.203, 212.4293
1006.685, 213.6591
1007.167, 214.4609
1007.649, 213.9984
1008.131, 213.0954
1008.613, 212.0935
1009.095, 211.1045
1009.577, 210.4814
1010.060, 210.2075
1010.542, 210.4033
1011.024, 211.1990
1011.506, 212.2532
1011.988, 213.3477
1012.470, 214.2229
1012.952, 214.1265
1013.434, 212.4287
1013.917, 211.2673
1014.399, 212.0985
1014.881, 213.2076
1015.363, 213.3196
1015.845, 212.4041
1016.327, 212.7783
1016.809, 214.4682
1017.291, 216.1629
1017.773, 216.8577
1018.256, 217.2975
1018.738, 218.5042
1019.220, 220.0787
1019.702, 220.7782
1020.184, 219.1904
1020.666, 218.8314
1021.148, 220.5143
1021.630, 222.9308
1022.112, 223.8628
1022.595, 223.8838
1023.077, 225.1320
1023.559, 228.0519
1024.041, 230.7132
1024.523, 231.4781
1025.005, 231.9828
1025.487, 233.4892
1025.969, 235.9125
1026.452, 237.6475
1026.934, 238.6838
1027.416, 239.0409
1027.898, 238.2613
1028.380, 237.4018
1028.862, 238.2360
1029.344, 240.0581
1029.826, 241.5435
1030.308, 242.3125
1030.791, 242.6007
1031.273, 242.0168
1031.755, 241.5606
1032.237, 242.6019
1032.719, 244.8193
1033.201, 245.6488
1033.683, 245.0291
1034.165, 244.0858
1034.647, 242.8720
1035.130, 242.2488
1035.612, 243.2996
1036.094, 245.5688
1036.576, 246.5843
1037.058, 245.9643
1037.540, 245.6837
1038.022, 246.2168
1038.504, 247.2834
1038.987, 248.4072
1039.469, 249.8128
1039.951, 252.0792
1040.433, 255.6824
1040.915, 258.6886
1041.397, 260.1485
1041.879, 261.5102
1042.361, 263.6495
1042.844, 266.4190
1043.326, 268.5091
1043.808, 270.0837
1044.290, 272.5647
1044.772, 277.7013
1045.254, 283.0480
1045.736, 287.0650
1046.218, 290.2552
1046.700, 293.6297
1047.183, 297.0548
1047.665, 301.3019
1048.147, 306.5318
1048.629, 311.9409
1049.111, 316.4867
1049.593, 320.7808
1050.075, 325.8135
1050.557, 331.6627
1051.040, 337.9164
1051.522, 345.0317
1052.004, 351.6816
1052.486, 357.2523
1052.968, 362.1506
1053.450, 367.5641
1053.932, 373.4013
1054.414, 379.0915
1054.896, 384.4013
1055.379, 389.7485
1055.861, 396.0951
1056.343, 402.2583
1056.825, 407.0016
1057.307, 410.1844
1057.789, 412.6951
1058.271, 414.3564
1058.753, 416.4168
1059.235, 420.4487
1059.718, 424.8612
1060.200, 427.2769
1060.682, 428.1017
1061.164, 428.4976
1061.646, 428.4330
1062.128, 428.5490
1062.610, 429.2635
1063.092, 429.6964
1063.574, 428.3534
1064.057, 425.7016
1064.539, 424.0664
1065.021, 423.6805
1065.503, 422.7772
1065.985, 419.9820
1066.467, 416.5718
1066.949, 413.0571
1067.431, 409.5663
1067.914, 406.3546
1068.396, 403.3983
1068.878, 401.0265
1069.360, 399.5547
1069.842, 398.0479
1070.324, 395.0005
1070.806, 391.4233
1071.288, 388.7832
1071.771, 387.8720
1072.253, 386.1231
1072.735, 383.2245
1073.217, 380.0026
1073.699, 376.9235
1074.181, 373.9356
1074.663, 370.9054
1075.145, 367.8253
1075.627, 364.7800
1076.110, 361.8882
1076.592, 358.8791
1077.074, 355.5008
1077.556, 352.0893
1078.038, 349.2530
1078.520, 346.9544
1079.002, 343.4390
1079.484, 338.5833
1079.967, 333.7443
1080.449, 329.8945
1080.931, 326.6277
1081.413, 324.0901
1081.895, 321.9852
1082.377, 318.4659
1082.859, 312.9030
1083.341, 308.4510
1083.823, 306.0386
1084.306, 304.5464
1084.788, 303.1526
1085.270, 301.3658
1085.752, 298.1555
1086.234, 292.9337
1086.716, 288.7114
1087.198, 286.5948
1087.680, 284.5516
1088.162, 281.6534
1088.645, 278.1556
1089.127, 274.5902
1089.609, 271.0318
1090.091, 267.7382
1090.573, 265.1195
1091.055, 262.2997
1091.537, 258.8016
1092.019, 254.9539
1092.501, 250.9907
1092.984, 246.8206
1093.466, 243.6670
1093.948, 241.5527
1094.430, 239.1198
1094.912, 235.2569
1095.394, 230.7605
1095.876, 225.8339
1096.358, 220.8636
1096.841, 217.0482
1097.323, 214.8248
1097.805, 212.5186
1098.287, 209.9588
1098.769, 207.2164
1099.251, 204.3135
1099.733, 201.3149
1100.215, 198.3579
1100.698, 195.4376
1101.180, 192.2789
1101.662, 188.2997
1102.144, 184.8294
1102.626, 182.3010
1103.108, 180.3866
1103.590, 178.5832
1104.072, 176.7928
1104.554, 174.7106
1105.037, 172.1987
1105.519, 169.6696
1106.001, 166.9626
1106.483, 164.7066
1106.965, 163.5111
1107.447, 163.2614
1107.929, 162.2332
1108.411, 160.4667
1108.894, 158.4339
1109.376, 156.2643
1109.858, 154.0824
1110.340, 151.7996
1110.822, 149.6927
1111.304, 148.1408
1111.786, 147.3842
1112.268, 146.3612
1112.750, 145.0470
1113.233, 143.5765
1113.715, 141.9890
1114.197, 140.3392
1114.679, 138.3928
1115.161, 136.3750
1115.643, 135.1161
1116.125, 135.4729
1116.607, 135.2007
1117.089, 133.9137
1117.572, 132.2000
1118.054, 130.8327
1118.536, 129.5848
1119.018, 127.7733
1119.500, 125.3689
1119.982, 123.5216
1120.464, 123.0786
1120.946, 122.8310
1121.428, 122.5920
1121.911, 122.1607
1122.393, 120.7611
1122.875, 118.6785
1123.357, 117.2868
1123.839, 117.0752
1124.321, 116.7271
1124.803, 115.1434
1125.285, 113.4671
1125.768, 112.5104
1126.250, 112.1740
1126.732, 111.3905
1127.214, 110.1840
1127.696, 109.1641
1128.178, 108.6267
1128.660, 108.2917
1129.142, 108.2259
1129.625, 108.0743
1130.107, 107.2641
1130.589, 105.4788
1131.071, 104.6365
1131.553, 104.8554
1132.035, 105.0457
1132.517, 104.3691
1132.999, 103.3588
1133.481, 102.6578
1133.964, 102.1214
1134.446, 101.4220
1134.928, 100.5092
1135.410, 99.32703
1135.892, 97.69801
1136.374, 96.29903
1136.856, 96.03628
1137.338, 96.36853
1137.821, 96.47195
1138.303, 96.30156
1138.785, 95.89878
1139.267, 95.11095
1139.749, 94.29098
1140.231, 93.46117
1140.713, 92.68936
1141.195, 92.05923
1141.677, 91.56536
1142.160, 91.28899
1142.642, 91.24491
1143.124, 90.86526
1143.606, 89.34055
1144.088, 88.07362
1144.570, 87.68015
1145.052, 87.83025
1145.534, 87.60477
1146.016, 87.09246
1146.499, 86.89075
1146.981, 87.28414
1147.463, 87.32125
1147.945, 86.15480
1148.427, 84.65250
1148.909, 83.26527
1149.391, 82.05320
1149.873, 81.73792
1150.355, 82.25761
1150.838, 82.37998
1151.320, 81.47720
1151.802, 80.35691
1152.284, 79.40315
1152.766, 78.73063
1153.248, 78.56803
1153.730, 79.02097
1154.212, 78.81927
1154.695, 77.89726
1155.177, 77.22318
1155.659, 77.68748
1156.141, 78.30746
1156.623, 78.00203
1157.105, 77.21936
1157.587, 76.81702
1158.069, 77.14132
1158.552, 76.94067
1159.034, 76.12251
1159.516, 75.18285
1159.998, 74.42181
1160.480, 73.83086
1160.962, 73.39346
1161.444, 73.11565
1161.926, 73.05399
1162.408, 73.41353
1162.891, 73.53736
1163.373, 73.37123
1163.855, 72.94213
1164.337, 71.96883
1164.819, 70.91181
1165.301, 70.62764
1165.783, 71.06674
1166.265, 71.39906
1166.748, 71.36229
1167.230, 71.33611
1167.712, 71.41637
1168.194, 71.47485
1168.676, 71.21555
1169.158, 70.82951
1169.640, 70.84863
1170.122, 71.33559
1170.604, 71.38020
1171.087, 70.04736
1171.569, 69.10342
1172.051, 69.10494
1172.533, 69.64558
1173.015, 69.99120
1173.497, 70.17105
1173.979, 70.22234
1174.461, 70.10994
1174.943, 70.15883
1175.426, 70.69466
1175.908, 71.20044
1176.390, 71.52974
1176.872, 71.64452
1177.354, 71.34063
1177.836, 70.71522
1178.318, 70.06107
1178.800, 69.37316
1179.282, 68.97400
1179.765, 69.17428
1180.247, 69.57064
1180.729, 69.98627
1181.211, 70.39543
1181.693, 70.68192
1182.175, 70.83725
1182.657, 70.81265
1183.139, 70.48770
1183.622, 70.16176
1184.104, 69.87939
1184.586, 69.75345
1185.068, 69.98043
1185.550, 70.52330
1186.032, 70.54822
1186.514, 70.10651
1186.996, 69.61753
1187.479, 69.20580
1187.961, 68.93377
1188.443, 68.86867
1188.925, 68.94267
1189.407, 69.14687
1189.889, 69.49048
1190.371, 69.46654
1190.853, 69.08904
1191.335, 68.82908
1191.818, 69.20127
1192.300, 69.53397
1192.782, 69.36783
1193.264, 68.95737
1193.746, 68.61910
1194.228, 68.34387
1194.710, 68.47971
1195.192, 69.04194
1195.675, 69.47279
1196.157, 69.07870
1196.639, 68.71909
1197.121, 69.12671
1197.603, 69.91081
1198.085, 70.30004
1198.567, 70.29674
1199.049, 69.73127
1199.531, 68.54965
1200.014, 67.68606
1200.496, 68.19333
1200.978, 68.99263
1201.460, 69.37956
1201.942, 69.43806
1202.424, 69.48263
1202.906, 69.51930
1203.388, 69.34052
1203.870, 68.88276
1204.353, 68.52079
1204.835, 68.85055
1205.317, 69.16574
1205.799, 68.64815
1206.281, 67.62644
1206.763, 67.50267
1207.245, 68.32070
1207.727, 68.87157
1208.209, 68.88386
1208.692, 68.66014
1209.174, 68.20725
1209.656, 67.83758
1210.138, 67.94041
1210.620, 67.73068
1211.102, 67.67308
1211.584, 67.92927
1212.066, 67.77213
1212.549, 68.22598
1213.031, 68.68327
1213.513, 68.55727
1213.995, 68.25768
1214.477, 68.11569
1214.959, 68.13137
1215.441, 68.28061
1215.923, 68.56684
1216.406, 68.76961
1216.888, 68.81432
1217.370, 68.76167
1217.852, 68.57967
1218.334, 68.38515
1218.816, 68.26814
1219.298, 68.22991
1219.780, 68.40950
1220.262, 68.80186
1220.745, 68.91608
1221.227, 68.38680
1221.709, 67.94893
1222.191, 68.33010
1222.673, 68.97633
1223.155, 69.37525
1223.637, 69.52043
1224.119, 69.47752
1224.602, 69.25906
1225.084, 69.11706
1225.566, 69.24988
1226.048, 69.33438
1226.530, 69.00230
1227.012, 68.61562
1227.494, 68.52577
1227.976, 68.73427
1228.458, 68.70924
1228.941, 68.55813
1229.423, 69.80241
1229.905, 74.27889
1230.387, 78.67057
1230.869, 81.47742
1231.351, 82.77547
1231.833, 82.36089
1232.315, 80.25845
1232.797, 79.97334
1233.280, 81.31076
1233.762, 82.48593
1234.244, 82.39802
1234.726, 82.13387
1235.208, 82.21958
1235.690, 82.39025
1236.172, 82.83045
1236.654, 83.45219
1237.136, 80.39189
1237.619, 74.42505
1238.101, 70.97221
1238.583, 75.51330
1239.065, 80.02357
1239.547, 81.61111
1240.029, 81.64143
1240.511, 81.15668
1240.993, 80.11250
1241.476, 77.62652
1241.958, 74.04965
1242.440, 71.45347
1242.922, 71.66667
1243.404, 71.94118
1243.886, 71.52117
1244.368, 70.81341
1244.850, 70.07455
1245.333, 69.38028
1245.815, 69.16316
1246.297, 69.34731
1246.779, 69.50526
1247.261, 69.28838
1247.743, 69.25839
1248.225, 69.59115
1248.707, 70.00683
1249.189, 70.19023
1249.672, 70.23972
1250.154, 70.54272
1250.636, 71.01420
1251.118, 71.20899
1251.600, 70.43467
1252.082, 70.20592
1252.564, 70.87835
1253.046, 71.74357
1253.529, 72.05233
1254.011, 72.02806
1254.493, 72.04420
1254.975, 72.12132
1255.457, 72.27415
1255.939, 72.79228
1256.421, 72.77697
1256.903, 71.96661
1257.385, 71.20200
1257.868, 71.45580
1258.350, 72.18626
1258.832, 72.75160
1259.314, 73.08426
1259.796, 72.99485
1260.278, 72.20957
1260.760, 71.79676
1261.242, 71.90525
1261.724, 72.14500
1262.207, 72.07039
1262.689, 71.99149
1263.171, 72.35434
1263.653, 73.01393
1264.135, 73.42593
1264.617, 73.55873
1265.099, 73.46595
1265.581, 73.12373
1266.063, 72.84905
1266.546, 72.87564
1267.028, 73.12170
1267.510, 73.68819
1267.992, 74.37989
1268.474, 74.69209
1268.956, 74.58680
1269.438, 74.56601
1269.920, 74.67184
1270.403, 74.96200
1270.885, 75.95776
1271.367, 76.64937
1271.849, 75.99685
1272.331, 74.84543
1272.813, 74.62160
1273.295, 75.23471
1273.777, 75.25272
1274.260, 74.59731
1274.742, 74.19846
1275.224, 75.04421
1275.706, 75.71939
1276.188, 75.56633
1276.670, 75.10204
1277.152, 74.95972
1277.634, 75.13998
1278.116, 75.88173
1278.599, 77.09452
1279.081, 77.78807
1279.563, 77.28300
1280.045, 76.46207
1280.527, 75.34741
1281.009, 74.33440
1281.491, 73.99944
1281.973, 74.12874
1282.456, 74.28097
1282.938, 74.44454
1283.420, 74.75425
1283.902, 75.31348
1284.384, 75.90717
1284.866, 76.52959
1285.348, 77.11506
1285.830, 77.73619
1286.313, 78.16029
1286.795, 77.97751
1287.277, 77.28596
1287.759, 76.57606
1288.241, 75.85194
1288.723, 75.22778
1289.205, 74.68875
1289.687, 74.43900
1290.169, 74.94700
1290.651, 75.55732
1291.134, 75.64169
1291.616, 75.35249
1292.098, 75.14530
1292.580, 74.99960
1293.062, 75.26460
1293.544, 75.96939
1294.026, 76.65603
1294.508, 77.19144
1294.990, 77.40076
1295.473, 76.99312
1295.955, 76.29858
1296.437, 75.55434
1296.919, 74.84054
1297.401, 75.05528
1297.883, 76.15964
1298.365, 77.14872
1298.847, 77.59361
1299.330, 77.68029
1299.812, 77.38248
1300.294, 76.93380
1300.776, 76.51537
1301.258, 76.18616
1301.740, 76.17297
1302.222, 76.41335
1302.704, 76.58645
1303.187, 76.49689
1303.669, 76.43272
1304.151, 76.40440
##END=



