##NAMES=Ellenbergerite
##RRUFFID=R070395
##IDEAL CHEMISTRY=Mg_6_(Mg,Ti^4+^,Zr^4+^,[box])_2_(Al,Mg)_6_Si_8_O_28_(OH)_10_
##LOCALITY=Case Parigi, Martiniana Po, Varaita Valley, Dora Maira Massif, Cuneo Province, Piedmont, Italy
##OWNER=RRUFF
##SOURCE=Michael Scott
##DESCRIPTION=Purple grain associated with a white platy chlorite mineral
##STATUS=The identification of this mineral has been confirmed by single-crystal X-ray diffraction.
##URL=rruff.info/R070395
148.6976, 26879.42
149.1797, 27259.55
149.6618, 27678.41
150.1439, 28072.36
150.6261, 28414.78
151.1082, 28751.69
151.5903, 29091.38
152.0724, 29434.14
152.5545, 29777.98
153.0366, 30142.03
153.5188, 30504.67
154.0009, 30822.13
154.4830, 31065.70
154.9651, 31282.73
155.4472, 31496.19
155.9293, 31710.67
156.4115, 31918.32
156.8936, 32124.13
157.3757, 32324.09
157.8578, 32507.74
158.3399, 32673.67
158.8221, 32821.05
159.3042, 32950.90
159.7863, 33037.88
160.2684, 33132.17
160.7505, 33258.99
161.2326, 33414.26
161.7148, 33557.44
162.1969, 33638.53
162.6790, 33712.62
163.1611, 33831.63
163.6432, 34064.63
164.1253, 34306.57
164.6075, 34499.35
165.0896, 34640.80
165.5717, 34774.83
166.0538, 34913.08
166.5359, 35061.72
167.0180, 35229.54
167.5002, 35443.90
167.9823, 35665.38
168.4644, 35863.89
168.9465, 36035.65
169.4286, 36195.45
169.9107, 36354.51
170.3929, 36508.86
170.8750, 36654.27
171.3571, 36802.18
171.8392, 36932.46
172.3213, 37009.73
172.8034, 37011.54
173.2856, 37017.10
173.7677, 37114.80
174.2498, 37283.18
174.7319, 37446.58
175.2140, 37566.38
175.6961, 37651.07
176.1783, 37708.84
176.6604, 37732.40
177.1425, 37744.01
177.6246, 37759.20
178.1067, 37780.61
178.5888, 37826.78
179.0710, 37931.81
179.5531, 38070.79
180.0352, 38186.21
180.5173, 38257.11
180.9994, 38304.28
181.4815, 38352.33
181.9637, 38402.02
182.4458, 38463.70
182.9279, 38559.18
183.4100, 38677.95
183.8921, 38780.91
184.3742, 38847.32
184.8564, 38895.16
185.3385, 38965.84
185.8206, 39061.29
186.3027, 39163.51
186.7848, 39255.54
187.2669, 39338.46
187.7491, 39424.22
188.2312, 39525.98
188.7133, 39633.84
189.1954, 39708.02
189.6775, 39743.48
190.1596, 39765.65
190.6418, 39801.16
191.1239, 39849.92
191.6060, 39911.66
192.0881, 39996.54
192.5702, 40099.92
193.0524, 40178.13
193.5345, 40226.38
194.0166, 40261.49
194.4987, 40308.07
194.9808, 40366.89
195.4629, 40425.86
195.9451, 40470.35
196.4272, 40501.68
196.9093, 40568.81
197.3914, 40684.64
197.8735, 40818.45
198.3556, 40908.36
198.8378, 40947.99
199.3199, 40982.52
199.8020, 41041.32
200.2841, 41126.98
200.7662, 41187.01
201.2483, 41208.87
201.7305, 41212.13
202.2126, 41247.96
202.6947, 41323.51
203.1768, 41404.98
203.6589, 41473.61
204.1410, 41527.86
204.6232, 41574.01
205.1053, 41607.32
205.5874, 41635.17
206.0695, 41685.82
206.5516, 41767.42
207.0337, 41850.43
207.5159, 41917.35
207.9980, 41967.16
208.4801, 41996.72
208.9622, 41992.48
209.4443, 41967.87
209.9264, 41994.99
210.4086, 42092.61
210.8907, 42204.66
211.3728, 42288.79
211.8549, 42342.02
212.3370, 42377.82
212.8191, 42389.35
213.3013, 42381.96
213.7834, 42405.31
214.2655, 42472.04
214.7476, 42549.48
215.2297, 42605.09
215.7118, 42625.02
216.1940, 42663.86
216.6761, 42735.80
217.1582, 42839.38
217.6403, 42938.41
218.1224, 43039.52
218.6045, 43125.81
219.0867, 43177.93
219.5688, 43183.74
220.0509, 43182.50
220.5330, 43179.09
221.0151, 43173.21
221.4972, 43177.15
221.9794, 43195.86
222.4615, 43218.84
222.9436, 43229.84
223.4257, 43206.98
223.9078, 43219.43
224.3899, 43294.88
224.8721, 43441.85
225.3542, 43550.57
225.8363, 43607.05
226.3184, 43639.54
226.8005, 43684.93
227.2827, 43759.72
227.7648, 43814.38
228.2469, 43827.82
228.7290, 43790.75
229.2111, 43785.64
229.6932, 43825.36
230.1754, 43886.64
230.6575, 43937.72
231.1396, 43962.82
231.6217, 44006.32
232.1038, 44093.21
232.5859, 44242.94
233.0681, 44325.21
233.5502, 44298.41
234.0323, 44233.95
234.5144, 44241.08
234.9965, 44369.48
235.4786, 44485.54
235.9608, 44545.81
236.4429, 44536.11
236.9250, 44533.09
237.4071, 44535.04
237.8892, 44544.85
238.3713, 44568.34
238.8535, 44612.50
239.3356, 44658.66
239.8177, 44701.09
240.2998, 44738.96
240.7819, 44776.17
241.2640, 44811.29
241.7462, 44847.14
242.2283, 44890.43
242.7104, 44950.47
243.1925, 45002.31
243.6746, 45032.73
244.1567, 45027.68
244.6389, 45053.85
245.1210, 45135.46
245.6031, 45233.79
246.0852, 45275.65
246.5673, 45229.74
247.0494, 45180.50
247.5316, 45156.21
248.0137, 45160.76
248.4958, 45177.66
248.9779, 45208.55
249.4600, 45250.91
249.9421, 45301.07
250.4243, 45366.20
250.9064, 45426.89
251.3885, 45473.92
251.8706, 45500.32
252.3527, 45536.88
252.8348, 45584.59
253.3170, 45641.66
253.7991, 45707.18
254.2812, 45788.94
254.7633, 45862.99
255.2454, 45921.39
255.7275, 45963.70
256.2097, 45986.96
256.6918, 45977.34
257.1739, 45957.92
257.6560, 45977.09
258.1381, 46058.36
258.6202, 46129.63
259.1024, 46157.64
259.5845, 46125.13
260.0666, 46119.77
260.5487, 46145.04
261.0308, 46194.96
261.5129, 46268.37
261.9951, 46383.79
262.4772, 46476.73
262.9593, 46514.76
263.4414, 46484.23
263.9235, 46464.98
264.4056, 46458.20
264.8878, 46461.45
265.3699, 46466.99
265.8520, 46468.40
266.3341, 46490.77
266.8162, 46551.09
267.2983, 46657.13
267.7805, 46750.40
268.2626, 46834.48
268.7447, 46900.76
269.2268, 46930.64
269.7089, 46917.06
270.1910, 46892.11
270.6732, 46861.50
271.1553, 46822.53
271.6374, 46806.20
272.1195, 46812.83
272.6016, 46841.70
273.0837, 46898.70
273.5659, 46991.12
274.0480, 47075.70
274.5301, 47137.59
275.0122, 47176.17
275.4943, 47195.18
275.9764, 47186.69
276.4586, 47173.56
276.9407, 47192.88
277.4228, 47247.60
277.9049, 47306.77
278.3870, 47363.22
278.8691, 47416.31
279.3513, 47447.68
279.8334, 47452.71
280.3155, 47447.93
280.7976, 47452.40
281.2798, 47466.04
281.7619, 47491.09
282.2440, 47537.63
282.7261, 47600.25
283.2082, 47627.91
283.6903, 47610.66
284.1725, 47595.08
284.6546, 47652.95
285.1367, 47780.55
285.6188, 47892.93
286.1009, 47957.66
286.5830, 47982.55
287.0652, 47997.40
287.5473, 48000.89
288.0294, 48001.39
288.5115, 48004.81
288.9936, 48011.86
289.4757, 48027.50
289.9579, 48050.25
290.4400, 48083.49
290.9221, 48145.62
291.4042, 48239.04
291.8863, 48331.21
292.3684, 48389.87
292.8506, 48419.04
293.3327, 48437.13
293.8148, 48447.67
294.2969, 48452.16
294.7790, 48446.27
295.2611, 48429.98
295.7433, 48427.21
296.2254, 48479.52
296.7075, 48564.55
297.1896, 48615.93
297.6717, 48599.13
298.1538, 48553.67
298.6360, 48533.96
299.1181, 48539.09
299.6002, 48560.45
300.0823, 48600.63
300.5644, 48651.47
301.0465, 48697.33
301.5287, 48730.29
302.0108, 48761.35
302.4929, 48809.63
302.9750, 48870.93
303.4571, 48918.36
303.9392, 48917.33
304.4214, 48896.83
304.9035, 48898.23
305.3856, 48942.25
305.8677, 48993.06
306.3498, 49022.32
306.8319, 49032.51
307.3141, 49032.68
307.7962, 48999.42
308.2783, 48971.98
308.7604, 49000.05
309.2425, 49125.84
309.7246, 49236.11
310.2068, 49230.30
310.6889, 49149.00
311.1710, 49097.67
311.6531, 49149.40
312.1352, 49236.96
312.6173, 49314.93
313.0995, 49377.96
313.5816, 49422.89
314.0637, 49431.73
314.5458, 49422.52
315.0279, 49429.38
315.5100, 49492.46
315.9922, 49554.60
316.4743, 49578.62
316.9564, 49547.95
317.4385, 49530.14
317.9206, 49550.23
318.4027, 49595.89
318.8849, 49649.84
319.3670, 49742.76
319.8491, 49812.18
320.3312, 49812.29
320.8133, 49718.52
321.2954, 49687.93
321.7776, 49809.31
322.2597, 49985.94
322.7418, 50114.68
323.2239, 50166.87
323.7060, 50183.73
324.1881, 50159.48
324.6703, 50089.21
325.1524, 50042.73
325.6345, 50035.22
326.1166, 50048.37
326.5987, 50067.26
327.0808, 50078.28
327.5630, 50111.22
328.0451, 50184.65
328.5272, 50295.32
329.0093, 50372.98
329.4914, 50405.26
329.9735, 50414.26
330.4557, 50410.60
330.9378, 50372.25
331.4199, 50361.58
331.9020, 50399.91
332.3841, 50472.35
332.8662, 50501.51
333.3484, 50458.40
333.8305, 50415.51
334.3126, 50415.82
334.7947, 50476.74
335.2768, 50526.46
335.7589, 50557.33
336.2411, 50577.26
336.7232, 50611.75
337.2053, 50670.57
337.6874, 50714.58
338.1695, 50713.47
338.6516, 50657.60
339.1338, 50648.33
339.6159, 50703.72
340.0980, 50780.25
340.5801, 50793.46
341.0622, 50735.19
341.5443, 50690.50
342.0265, 50696.57
342.5086, 50748.91
342.9907, 50811.69
343.4728, 50887.62
343.9549, 50961.19
344.4370, 51016.78
344.9192, 51053.86
345.4013, 51066.86
345.8834, 51037.33
346.3655, 50986.56
346.8476, 50971.67
347.3297, 50993.09
347.8119, 51035.48
348.2940, 51099.07
348.7761, 51174.16
349.2582, 51230.64
349.7403, 51260.37
350.2225, 51268.78
350.7046, 51251.90
351.1867, 51213.73
351.6688, 51186.49
352.1509, 51207.15
352.6331, 51249.95
353.1152, 51272.18
353.5973, 51250.21
354.0794, 51232.21
354.5615, 51271.71
355.0436, 51352.83
355.5258, 51427.25
356.0079, 51476.32
356.4900, 51502.69
356.9721, 51504.42
357.4542, 51474.96
357.9363, 51442.22
358.4185, 51404.00
358.9006, 51374.97
359.3827, 51380.49
359.8648, 51470.45
360.3469, 51565.81
360.8290, 51624.07
361.3112, 51637.70
361.7933, 51643.49
362.2754, 51653.83
362.7575, 51662.30
363.2396, 51661.93
363.7217, 51612.63
364.2039, 51592.81
364.6860, 51645.03
365.1681, 51770.68
365.6502, 51853.50
366.1323, 51847.58
366.6144, 51815.28
367.0966, 51799.16
367.5787, 51788.08
368.0608, 51809.89
368.5429, 51896.18
369.0250, 52026.48
369.5071, 52092.23
369.9893, 52051.82
370.4714, 51995.29
370.9535, 51962.84
371.4356, 51953.24
371.9177, 51974.68
372.3998, 52046.12
372.8820, 52139.29
373.3641, 52185.51
373.8462, 52165.49
374.3283, 52148.58
374.8104, 52165.44
375.2925, 52220.00
375.7747, 52261.76
376.2568, 52285.97
376.7389, 52307.49
377.2210, 52354.67
377.7031, 52430.95
378.1852, 52481.89
378.6674, 52480.19
379.1495, 52440.50
379.6316, 52421.81
380.1137, 52424.18
380.5958, 52448.44
381.0779, 52511.87
381.5601, 52604.36
382.0422, 52670.69
382.5243, 52695.59
383.0064, 52694.20
383.4885, 52682.89
383.9706, 52663.79
384.4528, 52653.41
384.9349, 52672.93
385.4170, 52705.95
385.8991, 52723.81
386.3812, 52718.95
386.8633, 52710.08
387.3455, 52715.75
387.8276, 52730.85
388.3097, 52743.83
388.7918, 52735.84
389.2739, 52731.65
389.7560, 52756.55
390.2382, 52814.97
390.7203, 52871.59
391.2024, 52902.98
391.6845, 52923.39
392.1666, 52949.61
392.6487, 52990.36
393.1309, 53034.77
393.6130, 53076.41
394.0951, 53116.20
394.5772, 53163.83
395.0593, 53241.59
395.5414, 53315.56
396.0236, 53363.77
396.5057, 53375.55
396.9878, 53370.59
397.4699, 53330.06
397.9520, 53271.17
398.4341, 53248.76
398.9163, 53297.11
399.3984, 53346.36
399.8805, 53368.02
400.3626, 53344.18
400.8447, 53345.73
401.3268, 53375.42
401.8090, 53428.49
402.2911, 53505.14
402.7732, 53620.13
403.2553, 53717.93
403.7374, 53781.21
404.2195, 53811.62
404.7017, 53837.55
405.1838, 53857.60
405.6659, 53877.23
406.1480, 53903.89
406.6301, 53937.91
407.1122, 53961.52
407.5944, 53964.43
408.0765, 53962.59
408.5586, 54004.94
409.0407, 54090.61
409.5228, 54164.58
410.0049, 54169.38
410.4871, 54133.39
410.9692, 54142.09
411.4513, 54211.32
411.9334, 54296.65
412.4155, 54342.30
412.8976, 54362.82
413.3798, 54398.18
413.8619, 54492.84
414.3440, 54597.06
414.8261, 54656.57
415.3082, 54670.42
415.7903, 54673.82
416.2725, 54683.25
416.7546, 54697.71
417.2367, 54716.38
417.7188, 54740.44
418.2009, 54766.71
418.6830, 54787.29
419.1652, 54807.13
419.6473, 54843.51
420.1294, 54932.93
420.6115, 55018.05
421.0937, 55068.34
421.5758, 55069.51
422.0579, 55055.52
422.5400, 55000.96
423.0221, 54939.93
423.5042, 54927.72
423.9864, 54992.86
424.4685, 55078.01
424.9506, 55201.27
425.4327, 55373.54
425.9148, 55408.22
426.3969, 55214.17
426.8791, 54986.48
427.3612, 54904.59
427.8433, 55019.09
428.3254, 55122.75
428.8075, 55192.57
429.2896, 55229.89
429.7718, 55232.45
430.2539, 55195.39
430.7360, 55150.20
431.2181, 55108.29
431.7002, 55070.92
432.1823, 55056.47
432.6645, 55066.25
433.1466, 55097.84
433.6287, 55172.26
434.1108, 55275.36
434.5929, 55335.07
435.0750, 55301.53
435.5572, 55213.98
436.0393, 55123.81
436.5214, 55032.58
437.0035, 54973.13
437.4856, 54995.02
437.9677, 55058.12
438.4499, 55105.84
438.9320, 55115.86
439.4141, 55120.74
439.8962, 55140.62
440.3783, 55173.05
440.8604, 55212.27
441.3426, 55268.81
441.8247, 55321.05
442.3068, 55359.04
442.7889, 55383.05
443.2710, 55386.04
443.7531, 55340.43
444.2353, 55282.84
444.7174, 55252.96
445.1995, 55292.73
445.6816, 55321.20
446.1637, 55316.17
446.6458, 55282.09
447.1280, 55266.99
447.6101, 55278.51
448.0922, 55300.65
448.5743, 55327.06
449.0564, 55365.40
449.5385, 55385.06
450.0207, 55373.42
450.5028, 55353.45
450.9849, 55374.01
451.4670, 55443.44
451.9491, 55510.64
452.4312, 55560.23
452.9134, 55591.69
453.3955, 55600.43
453.8776, 55584.92
454.3597, 55557.77
454.8418, 55525.98
455.3239, 55491.57
455.8061, 55464.27
456.2882, 55446.79
456.7703, 55436.04
457.2524, 55418.30
457.7345, 55400.06
458.2166, 55407.98
458.6988, 55503.29
459.1809, 55610.38
459.6630, 55632.13
460.1451, 55547.13
460.6272, 55464.95
461.1093, 55466.00
461.5915, 55507.09
462.0736, 55534.67
462.5557, 55524.64
463.0378, 55504.38
463.5199, 55470.57
464.0020, 55428.63
464.4842, 55415.55
464.9663, 55480.81
465.4484, 55546.21
465.9305, 55568.60
466.4126, 55509.49
466.8947, 55472.71
467.3769, 55464.66
467.8590, 55476.09
468.3411, 55492.97
468.8232, 55517.23
469.3053, 55543.85
469.7874, 55576.78
470.2696, 55614.42
470.7517, 55619.83
471.2338, 55581.27
471.7159, 55546.55
472.1980, 55563.82
472.6801, 55631.89
473.1623, 55691.38
473.6444, 55733.30
474.1265, 55765.11
474.6086, 55806.73
475.0907, 55853.85
475.5728, 55878.50
476.0550, 55832.38
476.5371, 55765.96
477.0192, 55775.02
477.5013, 55863.65
477.9834, 55950.79
478.4655, 55969.38
478.9477, 55950.37
479.4298, 55930.88
479.9119, 55833.19
480.3940, 55959.96
480.8761, 56038.80
481.3582, 56072.27
481.8404, 55924.50
482.3225, 56010.76
482.8046, 56003.23
483.2867, 55991.86
483.7688, 56111.07
484.2509, 55989.66
484.7331, 56106.79
485.2152, 56128.71
485.6973, 56194.20
486.1794, 56182.88
486.6615, 56249.49
487.1436, 56269.47
487.6258, 56254.17
488.1079, 56259.01
488.5900, 56290.94
489.0721, 56323.76
489.5542, 56339.38
490.0363, 56337.61
490.5185, 56353.25
491.0006, 56392.00
491.4827, 56431.73
491.9648, 56432.38
492.4470, 56403.20
492.9291, 56395.71
493.4112, 56434.62
493.8933, 56498.61
494.3754, 56569.59
494.8575, 56643.12
495.3397, 56687.09
495.8218, 56653.61
496.3039, 56592.99
496.7860, 56560.60
497.2681, 56568.12
497.7502, 56587.93
498.2324, 56613.19
498.7145, 56639.62
499.1966, 56661.87
499.6787, 56669.85
500.1608, 56681.74
500.6429, 56704.85
501.1251, 56738.54
501.6072, 56770.89
502.0893, 56802.82
502.5714, 56832.12
503.0535, 56856.04
503.5356, 56865.28
504.0178, 56894.26
504.4999, 56958.67
504.9820, 57028.20
505.4641, 57056.17
505.9462, 57037.38
506.4283, 57001.11
506.9105, 56940.78
507.3926, 56872.83
507.8747, 56874.83
508.3568, 56950.31
508.8389, 57031.79
509.3210, 57070.14
509.8032, 57076.53
510.2853, 57075.99
510.7674, 57066.36
511.2495, 57072.70
511.7316, 57146.72
512.2137, 57254.64
512.6959, 57326.77
513.1780, 57311.97
513.6601, 57271.01
514.1422, 57230.18
514.6243, 57192.79
515.1064, 57177.00
515.5886, 57212.34
516.0707, 57255.87
516.5528, 57277.58
517.0349, 57248.42
517.5170, 57250.65
517.9991, 57318.64
518.4813, 57411.82
518.9634, 57478.75
519.4455, 57504.56
519.9276, 57530.19
520.4097, 57568.34
520.8918, 57613.91
521.3740, 57633.78
521.8561, 57621.46
522.3382, 57604.90
522.8203, 57607.71
523.3024, 57627.63
523.7845, 57616.66
524.2667, 57562.65
524.7488, 57514.14
525.2309, 57544.16
525.7130, 57632.14
526.1951, 57705.25
526.6772, 57730.07
527.1594, 57736.46
527.6415, 57758.25
528.1236, 57792.00
528.6057, 57823.07
529.0878, 57848.77
529.5699, 57864.57
530.0521, 57863.47
530.5342, 57840.11
531.0163, 57820.44
531.4984, 57815.55
531.9805, 57817.20
532.4626, 57816.60
532.9448, 57795.30
533.4269, 57793.02
533.9090, 57822.30
534.3911, 57874.69
534.8732, 57915.61
535.3553, 57940.06
535.8375, 57963.24
536.3196, 57991.75
536.8017, 58026.30
537.2838, 58059.57
537.7659, 58092.87
538.2480, 58121.55
538.7302, 58146.23
539.2123, 58164.61
539.6944, 58153.41
540.1765, 58092.16
540.6586, 58027.52
541.1407, 58033.42
541.6229, 58093.93
542.1050, 58151.59
542.5871, 58172.95
543.0692, 58179.40
543.5513, 58184.79
544.0334, 58190.09
544.5156, 58205.36
544.9977, 58247.74
545.4798, 58294.91
545.9619, 58327.57
546.4440, 58317.91
546.9261, 58329.65
547.4083, 58399.33
547.8904, 58490.39
548.3725, 58535.02
548.8546, 58507.81
549.3367, 58475.25
549.8188, 58445.45
550.3010, 58420.84
550.7831, 58438.78
551.2652, 58512.88
551.7473, 58584.30
552.2294, 58603.20
552.7115, 58575.73
553.1937, 58563.79
553.6758, 58574.57
554.1579, 58591.22
554.6400, 58595.30
555.1221, 58588.53
555.6042, 58575.08
556.0864, 58546.16
556.5685, 58521.48
557.0506, 58504.93
557.5327, 58504.54
558.0148, 58551.31
558.4969, 58747.77
558.9791, 58930.47
559.4612, 58981.53
559.9433, 58859.59
560.4254, 58759.69
560.9075, 58726.65
561.3896, 58725.88
561.8718, 58726.07
562.3539, 58728.59
562.8360, 58728.68
563.3181, 58719.63
563.8002, 58710.94
564.2823, 58732.66
564.7645, 58794.62
565.2466, 58841.99
565.7287, 58851.84
566.2108, 58829.14
566.6929, 58787.39
567.1750, 58725.54
567.6572, 58676.54
568.1393, 58662.14
568.6214, 58682.14
569.1035, 58750.82
569.5856, 58886.83
570.0677, 59005.85
570.5499, 59025.38
571.0320, 58985.38
571.5141, 58949.56
571.9962, 58926.98
572.4783, 58927.11
572.9604, 58985.25
573.4426, 59081.28
573.9247, 59113.61
574.4068, 58972.20
574.8889, 58849.92
575.3710, 58829.73
575.8531, 58937.22
576.3353, 59010.75
576.8174, 59034.61
577.2995, 59046.77
577.7816, 59091.45
578.2637, 59174.26
578.7458, 59223.39
579.2280, 59221.49
579.7101, 59194.27
580.1922, 59176.72
580.6743, 59170.86
581.1564, 59187.98
581.6385, 59254.62
582.1207, 59335.88
582.6028, 59390.72
583.0849, 59419.06
583.5670, 59424.22
584.0491, 59379.46
584.5313, 59330.50
585.0134, 59316.72
585.4955, 59356.32
585.9776, 59390.65
586.4597, 59397.84
586.9418, 59395.02
587.4240, 59400.90
587.9061, 59409.38
588.3882, 59439.48
588.8703, 59514.79
589.3524, 59607.19
589.8345, 59621.74
590.3167, 59534.82
590.7988, 59461.12
591.2809, 59459.77
591.7630, 59514.55
592.2451, 59543.66
592.7272, 59546.49
593.2094, 59538.56
593.6915, 59527.48
594.1736, 59515.91
594.6557, 59504.54
595.1378, 59489.07
595.6199, 59493.96
596.1021, 59566.14
596.5842, 59662.81
597.0663, 59723.16
597.5485, 59677.05
598.0306, 59643.19
598.5127, 59666.12
598.9948, 59734.45
599.4769, 59798.09
599.9590, 59882.48
600.4412, 59927.43
600.9233, 59894.57
601.4054, 59774.43
601.8875, 59732.14
602.3696, 59791.73
602.8517, 59871.13
603.3339, 59893.13
603.8160, 59863.63
604.2981, 59862.80
604.7802, 59906.32
605.2623, 59955.89
605.7444, 59954.61
606.2266, 59918.80
606.7087, 59892.73
607.1908, 59903.08
607.6729, 59918.17
608.1550, 59900.96
608.6371, 59865.44
609.1193, 59856.53
609.6014, 59915.15
610.0835, 59985.22
610.5656, 60042.51
611.0477, 60085.19
611.5298, 60116.34
612.0120, 60135.93
612.4941, 60144.34
612.9762, 60136.72
613.4583, 60101.38
613.9404, 60097.74
614.4225, 60141.93
614.9047, 60194.12
615.3868, 60185.23
615.8689, 60121.18
616.3510, 60082.72
616.8331, 60102.38
617.3152, 60147.88
617.7974, 60176.29
618.2795, 60188.82
618.7616, 60191.94
619.2437, 60184.80
619.7258, 60172.88
620.2079, 60146.69
620.6901, 60107.01
621.1722, 60108.33
621.6543, 60234.88
622.1364, 60363.01
622.6185, 60403.30
623.1006, 60285.57
623.5828, 60228.80
624.0649, 60258.34
624.5470, 60325.61
625.0291, 60376.80
625.5112, 60411.73
625.9933, 60426.80
626.4755, 60409.44
626.9576, 60387.75
627.4397, 60432.54
627.9218, 60535.05
628.4039, 60628.51
628.8860, 60682.92
629.3682, 60707.91
629.8503, 60704.31
630.3324, 60676.68
630.8145, 60657.86
631.2966, 60668.43
631.7787, 60693.82
632.2609, 60728.88
632.7430, 60779.88
633.2251, 60812.56
633.7072, 60800.94
634.1893, 60779.77
634.6714, 60778.68
635.1536, 60810.59
635.6357, 60834.59
636.1178, 60848.25
636.5999, 60851.97
637.0820, 60837.24
637.5641, 60802.44
638.0463, 60792.24
638.5284, 60825.09
639.0105, 60887.77
639.4926, 60969.74
639.9747, 61065.09
640.4568, 61137.48
640.9390, 61146.20
641.4211, 61134.99
641.9032, 61145.63
642.3853, 61180.97
642.8674, 61214.87
643.3495, 61244.37
643.8317, 61263.69
644.3138, 61267.79
644.7959, 61242.79
645.2780, 61226.21
645.7601, 61207.18
646.2422, 61205.97
646.7244, 61262.96
647.2065, 61399.98
647.6886, 61472.00
648.1707, 61432.07
648.6528, 61344.29
649.1349, 61349.22
649.6171, 61432.93
650.0992, 61496.76
650.5813, 61462.74
651.0634, 61403.55
651.5455, 61412.42
652.0276, 61479.39
652.5098, 61550.83
652.9919, 61618.13
653.4740, 61665.52
653.9561, 61681.71
654.4382, 61663.27
654.9203, 61627.11
655.4025, 61542.53
655.8846, 61467.54
656.3667, 61447.53
656.8488, 61510.93
657.3309, 61539.11
657.8130, 61514.77
658.2952, 61478.66
658.7773, 61500.54
659.2594, 61573.75
659.7415, 61613.94
660.2236, 61589.16
660.7057, 61537.84
661.1879, 61502.47
661.6700, 61484.48
662.1521, 61488.64
662.6342, 61548.34
663.1163, 61604.04
663.5984, 61609.52
664.0806, 61571.08
664.5627, 61546.64
665.0448, 61559.10
665.5269, 61581.51
666.0090, 61610.88
666.4911, 61654.13
666.9733, 61643.33
667.4554, 61552.48
667.9375, 61459.09
668.4196, 61440.25
668.9017, 61492.42
669.3839, 61496.79
669.8660, 61432.78
670.3481, 61367.45
670.8302, 61397.82
671.3123, 61484.30
671.7944, 61539.58
672.2766, 61519.62
672.7587, 61488.40
673.2408, 61488.68
673.7229, 61507.57
674.2050, 61519.83
674.6871, 61502.55
675.1693, 61495.32
675.6514, 61520.77
676.1335, 61568.70
676.6156, 61582.62
677.0977, 61548.69
677.5798, 61511.88
678.0620, 61487.54
678.5441, 61476.25
679.0262, 61492.82
679.5083, 61539.24
679.9904, 61583.25
680.4725, 61601.31
680.9547, 61598.85
681.4368, 61573.04
681.9189, 61518.25
682.4010, 61493.46
682.8831, 61590.76
683.3652, 61712.95
683.8474, 61757.14
684.3295, 61625.88
684.8116, 61534.46
685.2937, 61548.76
685.7758, 61603.92
686.2579, 61616.62
686.7401, 61573.24
687.2222, 61520.32
687.7043, 61452.09
688.1864, 61392.71
688.6685, 61414.12
689.1506, 61511.54
689.6328, 61608.29
690.1149, 61673.88
690.5970, 61717.19
691.0791, 61755.52
691.5612, 61785.69
692.0433, 61791.24
692.5255, 61728.64
693.0076, 61666.67
693.4897, 61655.45
693.9718, 61703.71
694.4539, 61739.80
694.9360, 61752.71
695.4182, 61752.18
695.9003, 61742.26
696.3824, 61722.30
696.8645, 61690.73
697.3466, 61638.32
697.8287, 61598.44
698.3109, 61620.83
698.7930, 61692.26
699.2751, 61741.43
699.7572, 61752.91
700.2393, 61749.79
700.7214, 61750.07
701.2036, 61753.38
701.6857, 61758.85
702.1678, 61754.21
702.6499, 61765.65
703.1320, 61824.94
703.6141, 61907.03
704.0963, 61947.78
704.5784, 61919.52
705.0605, 61889.50
705.5426, 61875.46
706.0247, 61870.21
706.5068, 61835.59
706.9890, 61766.66
707.4711, 61708.11
707.9532, 61671.46
708.4353, 61664.95
708.9174, 61732.22
709.3995, 61865.33
709.8817, 61984.14
710.3638, 62023.15
710.8459, 62029.33
711.3280, 62047.55
711.8101, 62087.14
712.2922, 62098.01
712.7744, 62057.68
713.2565, 61989.23
713.7386, 61902.17
714.2207, 61763.76
714.7028, 61696.80
715.1849, 61720.43
715.6671, 61781.25
716.1492, 61823.67
716.6313, 61848.83
717.1134, 61874.22
717.5955, 61902.05
718.0776, 61932.55
718.5598, 61974.68
719.0419, 62018.18
719.5240, 62042.75
720.0061, 62032.59
720.4882, 62012.72
720.9703, 61978.86
721.4525, 61944.58
721.9346, 61941.07
722.4167, 62012.78
722.8988, 62061.96
723.3809, 62061.21
723.8630, 62025.41
724.3452, 62014.93
724.8273, 62032.34
725.3094, 62056.90
725.7915, 62084.54
726.2736, 62110.27
726.7557, 62119.53
727.2379, 62113.57
727.7200, 62102.35
728.2021, 62073.50
728.6842, 62055.47
729.1663, 62090.03
729.6484, 62182.77
730.1306, 62229.62
730.6127, 62131.02
731.0948, 62037.02
731.5769, 62039.31
732.0590, 62175.80
732.5411, 62247.25
733.0233, 62240.09
733.5054, 62198.31
733.9875, 62143.52
734.4696, 62082.68
734.9517, 62079.27
735.4338, 62148.33
735.9160, 62225.49
736.3981, 62247.42
736.8802, 62234.61
737.3623, 62215.14
737.8444, 62188.07
738.3266, 62171.79
738.8087, 62162.04
739.2908, 62171.01
739.7729, 62221.39
740.2551, 62370.38
740.7372, 62454.56
741.2193, 62437.34
741.7014, 62360.68
742.1835, 62303.45
742.6656, 62265.97
743.1478, 62257.40
743.6299, 62295.19
744.1120, 62344.97
744.5941, 62347.19
745.0762, 62314.70
745.5583, 62287.44
746.0405, 62271.42
746.5226, 62279.12
747.0047, 62337.93
747.4868, 62434.79
747.9689, 62493.30
748.4510, 62467.72
748.9332, 62450.15
749.4153, 62474.73
749.8974, 62536.24
750.3795, 62573.48
750.8616, 62584.53
751.3438, 62585.46
751.8259, 62581.59
752.3080, 62575.91
752.7901, 62576.96
753.2722, 62584.50
753.7543, 62590.54
754.2365, 62576.91
754.7186, 62568.36
755.2007, 62590.38
755.6828, 62653.19
756.1649, 62702.55
756.6470, 62752.80
757.1292, 62766.74
757.6113, 62701.54
758.0934, 62515.48
758.5755, 62452.43
759.0576, 62536.66
759.5397, 62661.43
760.0219, 62712.99
760.5040, 62713.66
760.9861, 62735.93
761.4682, 62795.30
761.9503, 62852.18
762.4324, 62869.08
762.9146, 62868.74
763.3967, 62879.07
763.8788, 62923.25
764.3609, 62951.64
764.8430, 62970.97
765.3251, 62961.61
765.8073, 62881.07
766.2894, 62689.48
766.7715, 62593.05
767.2536, 62642.75
767.7357, 62757.98
768.2178, 62802.86
768.7000, 62794.46
769.1821, 62806.12
769.6642, 62880.51
770.1463, 62952.84
770.6284, 62959.03
771.1105, 62923.99
771.5927, 62895.92
772.0748, 62898.15
772.5569, 62898.80
773.0390, 62885.61
773.5211, 62866.56
774.0032, 62858.05
774.4854, 62854.33
774.9675, 62889.16
775.4496, 62998.36
775.9317, 63130.08
776.4138, 63136.14
776.8959, 63036.84
777.3781, 62942.61
777.8602, 62908.86
778.3423, 62906.73
778.8244, 62917.70
779.3065, 62940.27
779.7886, 62969.95
780.2708, 63011.56
780.7529, 63054.38
781.2350, 63105.90
781.7171, 63160.85
782.1992, 63156.52
782.6813, 63072.37
783.1635, 63011.17
783.6456, 63042.54
784.1277, 63134.67
784.6098, 63182.79
785.0919, 63190.39
785.5740, 63194.15
786.0562, 63221.69
786.5383, 63252.87
787.0204, 63265.45
787.5025, 63258.59
787.9846, 63266.52
788.4667, 63330.67
788.9489, 63378.29
789.4310, 63369.38
789.9131, 63298.87
790.3952, 63272.45
790.8773, 63297.02
791.3594, 63334.49
791.8416, 63354.64
792.3237, 63365.99
792.8058, 63387.18
793.2879, 63419.53
793.7700, 63470.81
794.2521, 63599.05
794.7343, 63713.26
795.2164, 63720.87
795.6985, 63578.73
796.1806, 63480.98
796.6627, 63456.49
797.1448, 63470.19
797.6270, 63514.46
798.1091, 63599.89
798.5912, 63619.26
799.0733, 63561.30
799.5554, 63495.21
800.0375, 63502.20
800.5197, 63545.66
801.0018, 63547.75
801.4839, 63491.96
801.9660, 63446.87
802.4481, 63454.14
802.9302, 63490.24
803.4124, 63539.21
803.8945, 63618.64
804.3766, 63663.59
804.8587, 63658.32
805.3408, 63639.29
805.8229, 63632.16
806.3051, 63637.05
806.7872, 63686.96
807.2693, 63793.79
807.7514, 63890.63
808.2335, 63891.45
808.7156, 63844.09
809.1978, 63824.08
809.6799, 63857.81
810.1620, 63883.09
810.6441, 63852.95
811.1262, 63814.24
811.6083, 63814.22
812.0905, 63872.66
812.5726, 63930.34
813.0547, 63995.99
813.5368, 64040.76
814.0189, 64004.23
814.5010, 63906.55
814.9832, 63871.52
815.4653, 63926.39
815.9474, 64010.55
816.4295, 64103.43
816.9116, 64178.19
817.3937, 64194.07
817.8759, 64088.56
818.3580, 64027.50
818.8401, 64086.40
819.3222, 64177.40
819.8043, 64223.14
820.2864, 64220.34
820.7686, 64173.57
821.2507, 64064.86
821.7328, 63968.93
822.2149, 64019.02
822.6970, 64156.92
823.1791, 64228.80
823.6613, 64180.84
824.1434, 64125.13
824.6255, 64122.14
825.1076, 64158.33
825.5897, 64218.75
826.0718, 64353.94
826.5540, 64434.95
827.0361, 64445.11
827.5182, 64421.39
828.0003, 64401.33
828.4824, 64385.18
828.9645, 64385.09
829.4467, 64405.77
829.9288, 64430.76
830.4109, 64437.82
830.8930, 64437.88
831.3751, 64448.64
831.8572, 64478.59
832.3394, 64510.29
832.8215, 64549.73
833.3036, 64581.13
833.7857, 64583.21
834.2678, 64531.30
834.7499, 64525.95
835.2321, 64583.59
835.7142, 64664.82
836.1963, 64726.43
836.6784, 64770.70
837.1605, 64806.38
837.6426, 64837.74
838.1248, 64847.50
838.6069, 64785.68
839.0890, 64712.23
839.5711, 64695.82
840.0532, 64782.46
840.5353, 64871.48
841.0175, 64973.98
841.4996, 65058.09
841.9817, 65082.04
842.4638, 65043.17
842.9459, 65011.91
843.4280, 64992.75
843.9102, 64992.81
844.3923, 65042.79
844.8744, 65109.89
845.3565, 65131.42
845.8386, 65075.60
846.3207, 65048.25
846.8029, 65136.54
847.2850, 65243.35
847.7671, 65276.21
848.2492, 65177.16
848.7313, 65174.87
849.2134, 65307.87
849.6956, 65439.33
850.1777, 65393.72
850.6598, 65230.39
851.1419, 65170.79
851.6240, 65249.99
852.1061, 65340.09
852.5883, 65324.27
853.0704, 65286.20
853.5525, 65316.36
854.0346, 65477.79
854.5167, 65540.80
854.9988, 65417.51
855.4810, 65292.93
855.9631, 65320.25
856.4452, 65503.08
856.9273, 65602.63
857.4094, 65609.63
857.8915, 65581.66
858.3737, 65539.36
858.8558, 65506.82
859.3379, 65526.93
859.8200, 65608.97
860.3021, 65673.19
860.7842, 65689.83
861.2664, 65677.12
861.7485, 65637.65
862.2306, 65564.77
862.7127, 65529.65
863.1948, 65533.75
863.6769, 65568.09
864.1591, 65653.98
864.6412, 65759.13
865.1233, 65796.40
865.6054, 65768.92
866.0875, 65749.66
866.5696, 65809.47
867.0518, 65868.69
867.5339, 65870.36
868.0160, 65807.30
868.4981, 65758.13
868.9802, 65717.87
869.4623, 65703.12
869.9445, 65734.79
870.4266, 65797.84
870.9087, 65811.89
871.3908, 65782.72
871.8729, 65769.12
872.3550, 65821.27
872.8372, 65892.42
873.3193, 65945.17
873.8014, 65981.84
874.2835, 66019.87
874.7656, 66098.24
875.2477, 66132.91
875.7299, 66083.74
876.2120, 65978.73
876.6941, 65927.62
877.1762, 65930.37
877.6583, 65942.00
878.1404, 65936.31
878.6226, 65936.40
879.1047, 65987.00
879.5869, 66068.09
880.0690, 66129.27
880.5511, 66143.59
881.0332, 66143.71
881.5153, 66117.32
881.9974, 66089.85
882.4796, 66124.84
882.9617, 66239.02
883.4438, 66321.22
883.9259, 66343.80
884.4080, 66324.53
884.8901, 66245.41
885.3723, 66149.30
885.8544, 66142.73
886.3365, 66325.41
886.8186, 66501.38
887.3007, 66584.33
887.7828, 66607.85
888.2650, 66618.80
888.7471, 66614.60
889.2292, 66606.92
889.7113, 66594.14
890.1934, 66583.86
890.6755, 66578.12
891.1577, 66582.79
891.6398, 66620.63
892.1219, 66700.47
892.6040, 66788.25
893.0861, 66862.66
893.5682, 66931.47
894.0504, 67003.98
894.5325, 67092.99
895.0146, 67154.69
895.4967, 67189.38
895.9788, 67196.25
896.4609, 67154.88
896.9431, 67078.43
897.4252, 67047.73
897.9073, 67067.36
898.3894, 67125.54
898.8715, 67262.52
899.3536, 67399.46
899.8358, 67457.48
900.3179, 67420.62
900.8000, 67418.31
901.2821, 67503.57
901.7642, 67565.40
902.2463, 67539.03
902.7285, 67441.54
903.2106, 67401.20
903.6927, 67416.84
904.1748, 67449.24
904.6569, 67493.29
905.1390, 67528.55
905.6212, 67519.26
906.1033, 67478.98
906.5854, 67466.73
907.0675, 67538.13
907.5496, 67591.93
908.0317, 67597.63
908.5139, 67572.09
908.9960, 67564.43
909.4781, 67574.77
909.9602, 67595.09
910.4423, 67623.42
910.9244, 67658.77
911.4066, 67729.86
911.8887, 67801.41
912.3708, 67808.93
912.8529, 67602.06
913.3350, 67498.25
913.8171, 67634.38
914.2993, 67840.30
914.7814, 67876.05
915.2635, 67726.30
915.7456, 67605.76
916.2277, 67542.56
916.7098, 67523.59
917.1920, 67568.70
917.6741, 67634.98
918.1562, 67656.09
918.6383, 67607.73
919.1204, 67552.54
919.6025, 67483.38
920.0847, 67435.59
920.5668, 67439.47
921.0489, 67505.17
921.5310, 67549.00
922.0131, 67568.73
922.4952, 67583.96
922.9774, 67631.02
923.4595, 67673.49
923.9416, 67639.59
924.4237, 67531.79
924.9058, 67445.69
925.3879, 67434.37
925.8701, 67437.23
926.3522, 67421.13
926.8343, 67392.77
927.3164, 67424.44
927.7985, 67527.95
928.2806, 67580.42
928.7628, 67479.01
929.2449, 67337.72
929.7270, 67353.92
930.2091, 67478.39
930.6912, 67578.28
931.1733, 67567.30
931.6555, 67560.80
932.1376, 67619.93
932.6197, 67692.85
933.1018, 67676.02
933.5839, 67550.16
934.0660, 67485.75
934.5482, 67526.28
935.0303, 67596.11
935.5124, 67595.34
935.9945, 67555.78
936.4766, 67533.50
936.9587, 67546.20
937.4409, 67563.17
937.9230, 67572.80
938.4051, 67584.68
938.8872, 67607.23
939.3693, 67643.18
939.8514, 67677.18
940.3336, 67709.98
940.8157, 67732.91
941.2978, 67716.83
941.7799, 67697.41
942.2620, 67740.27
942.7441, 67844.31
943.2263, 67928.55
943.7084, 67950.84
944.1905, 67954.91
944.6726, 67952.27
945.1547, 67946.21
945.6368, 67967.46
946.1190, 68019.41
946.6011, 68042.42
947.0832, 67996.57
947.5653, 67922.05
948.0474, 67852.13
948.5295, 67796.72
949.0117, 67778.80
949.4938, 67828.08
949.9759, 67890.38
950.4580, 67969.96
950.9401, 68045.66
951.4222, 68076.70
951.9044, 68062.22
952.3865, 68070.49
952.8686, 68117.90
953.3507, 68163.41
953.8328, 68146.11
954.3149, 68109.04
954.7971, 68110.93
955.2792, 68176.32
955.7613, 68229.55
956.2434, 68270.15
956.7255, 68282.21
957.2076, 68237.90
957.6898, 68140.45
958.1719, 68124.55
958.6540, 68188.80
959.1361, 68248.65
959.6182, 68209.66
960.1003, 68168.20
960.5825, 68232.83
961.0646, 68385.04
961.5467, 68499.16
962.0288, 68551.45
962.5109, 68560.33
962.9930, 68510.97
963.4752, 68436.32
963.9573, 68415.64
964.4394, 68445.33
964.9215, 68512.00
965.4036, 68649.77
965.8857, 68744.68
966.3679, 68638.65
966.8500, 68462.98
967.3321, 68393.25
967.8142, 68552.84
968.2963, 68633.34
968.7784, 68606.04
969.2606, 68553.81
969.7427, 68565.01
970.2248, 68621.52
970.7069, 68662.77
971.1890, 68683.89
971.6711, 68683.09
972.1533, 68631.77
972.6354, 68580.63
973.1175, 68558.70
973.5996, 68568.06
974.0817, 68620.34
974.5638, 68729.90
975.0460, 68832.70
975.5281, 68911.17
976.0102, 68958.77
976.4923, 68936.90
976.9744, 68871.35
977.4565, 68837.95
977.9387, 68905.26
978.4208, 68968.76
978.9029, 68995.39
979.3850, 68995.23
979.8671, 68971.30
980.3492, 68911.73
980.8314, 68907.69
981.3135, 68978.87
981.7956, 69062.57
982.2777, 69085.62
982.7598, 69079.80
983.2419, 69096.02
983.7241, 69147.02
984.2062, 69174.73
984.6883, 69120.34
985.1704, 69081.41
985.6525, 69102.68
986.1346, 69179.75
986.6168, 69288.73
987.0989, 69426.91
987.5810, 69509.61
988.0631, 69436.78
988.5452, 69329.18
989.0273, 69299.90
989.5095, 69326.78
989.9916, 69352.77
990.4737, 69348.58
990.9558, 69377.35
991.4379, 69466.87
991.9200, 69562.55
992.4022, 69563.71
992.8843, 69493.06
993.3664, 69448.96
993.8485, 69451.84
994.3306, 69469.68
994.8127, 69477.56
995.2949, 69492.82
995.7770, 69537.57
996.2591, 69619.66
996.7412, 69675.70
997.2233, 69704.54
997.7054, 69709.51
998.1876, 69674.20
998.6697, 69623.69
999.1518, 69611.37
999.6339, 69633.20
1000.116, 69672.25
1000.598, 69763.73
1001.080, 69821.20
1001.562, 69786.99
1002.044, 69713.66
1002.527, 69690.19
1003.009, 69718.05
1003.491, 69787.98
1003.973, 69909.33
1004.455, 70020.87
1004.937, 70038.95
1005.419, 70012.88
1005.901, 70006.30
1006.384, 70039.73
1006.866, 70050.88
1007.348, 70017.93
1007.830, 69985.22
1008.312, 69987.53
1008.794, 70012.99
1009.276, 69970.71
1009.758, 69871.87
1010.240, 69807.74
1010.723, 69856.98
1011.205, 69932.69
1011.687, 70000.85
1012.169, 70050.81
1012.651, 70051.27
1013.133, 69961.36
1013.615, 69950.63
1014.097, 70061.91
1014.580, 70213.16
1015.062, 70307.22
1015.544, 70352.95
1016.026, 70363.63
1016.508, 70338.77
1016.990, 70294.81
1017.472, 70190.84
1017.954, 70116.02
1018.436, 70131.13
1018.919, 70230.79
1019.401, 70301.01
1019.883, 70341.75
1020.365, 70366.17
1020.847, 70354.24
1021.329, 70352.58
1021.811, 70445.97
1022.293, 70583.49
1022.776, 70639.55
1023.258, 70530.91
1023.740, 70433.39
1024.222, 70354.42
1024.704, 70308.07
1025.186, 70326.42
1025.668, 70394.38
1026.150, 70470.74
1026.632, 70553.20
1027.115, 70599.47
1027.597, 70532.88
1028.079, 70464.71
1028.561, 70476.39
1029.043, 70564.32
1029.525, 70643.32
1030.007, 70709.74
1030.489, 70791.19
1030.972, 70938.26
1031.454, 71063.90
1031.936, 71016.59
1032.418, 70859.29
1032.900, 70728.08
1033.382, 70645.42
1033.864, 70625.59
1034.346, 70693.42
1034.828, 70787.14
1035.311, 70831.58
1035.793, 70836.61
1036.275, 70869.43
1036.757, 70935.88
1037.239, 70998.95
1037.721, 71022.53
1038.203, 71041.93
1038.685, 71092.43
1039.167, 71167.66
1039.650, 71191.23
1040.132, 71144.49
1040.614, 71131.22
1041.096, 71202.64
1041.578, 71297.53
1042.060, 71307.43
1042.542, 71270.53
1043.024, 71258.29
1043.507, 71296.73
1043.989, 71353.24
1044.471, 71440.23
1044.953, 71522.28
1045.435, 71581.36
1045.917, 71615.43
1046.399, 71566.83
1046.881, 71441.13
1047.364, 71367.05
1047.846, 71481.46
1048.328, 71631.26
1048.810, 71735.28
1049.292, 71784.51
1049.774, 71766.61
1050.256, 71652.62
1050.738, 71572.28
1051.220, 71548.63
1051.703, 71576.01
1052.185, 71698.21
1052.667, 71848.10
1053.149, 71896.98
1053.631, 71792.30
1054.113, 71717.91
1054.595, 71744.76
1055.077, 71787.84
1055.559, 71801.27
1056.042, 71793.15
1056.524, 71830.67
1057.006, 71907.21
1057.488, 71968.74
1057.970, 71970.33
1058.452, 71963.66
1058.934, 71980.85
1059.416, 72012.40
1059.899, 72037.71
1060.381, 72050.01
1060.863, 72082.02
1061.345, 72141.15
1061.827, 72200.29
1062.309, 72218.18
1062.791, 72225.44
1063.273, 72282.63
1063.755, 72392.73
1064.238, 72458.35
1064.720, 72415.41
1065.202, 72370.50
1065.684, 72344.27
1066.166, 72344.34
1066.648, 72418.82
1067.130, 72545.68
1067.612, 72629.23
1068.094, 72637.73
1068.577, 72598.50
1069.059, 72443.77
1069.541, 72307.80
1070.023, 72335.47
1070.505, 72572.44
1070.987, 72703.45
1071.469, 72722.43
1071.951, 72711.73
1072.434, 72733.64
1072.916, 72753.94
1073.398, 72718.44
1073.880, 72644.72
1074.362, 72595.95
1074.844, 72584.23
1075.326, 72601.46
1075.808, 72654.83
1076.291, 72722.97
1076.773, 72780.38
1077.255, 72828.07
1077.737, 72876.70
1078.219, 72929.59
1078.701, 72937.29
1079.183, 72785.73
1079.665, 72675.26
1080.147, 72723.35
1080.630, 72897.01
1081.112, 73006.76
1081.594, 73053.55
1082.076, 73062.36
1082.558, 73020.24
1083.040, 72986.66
1083.522, 73047.97
1084.004, 73135.32
1084.486, 73146.30
1084.969, 73013.13
1085.451, 72978.73
1085.933, 73066.03
1086.415, 73166.74
1086.897, 73185.13
1087.379, 73168.16
1087.861, 73210.48
1088.343, 73295.79
1088.826, 73348.06
1089.308, 73293.98
1089.790, 73263.79
1090.272, 73275.45
1090.754, 73327.23
1091.236, 73453.72
1091.718, 73624.74
1092.200, 73678.92
1092.682, 73582.77
1093.165, 73503.96
1093.647, 73583.85
1094.129, 73681.09
1094.611, 73689.55
1095.093, 73629.05
1095.575, 73668.82
1096.057, 73814.79
1096.539, 73910.32
1097.022, 73878.99
1097.504, 73807.81
1097.986, 73761.74
1098.468, 73741.71
1098.950, 73754.86
1099.432, 73829.74
1099.914, 73853.45
1100.396, 73805.15
1100.879, 73771.93
1101.361, 73842.29
1101.843, 73959.19
1102.325, 74009.61
1102.807, 74007.51
1103.289, 74008.23
1103.771, 74048.97
1104.253, 74072.36
1104.735, 74073.84
1105.218, 74049.10
1105.700, 73946.13
1106.182, 73803.20
1106.664, 73845.05
1107.146, 74099.84
1107.628, 74322.29
1108.110, 74347.57
1108.592, 74313.24
1109.074, 74279.02
1109.557, 74251.11
1110.039, 74254.05
1110.521, 74288.33
1111.003, 74319.76
1111.485, 74340.98
1111.967, 74347.58
1112.449, 74312.43
1112.931, 74273.30
1113.414, 74277.86
1113.896, 74343.71
1114.378, 74375.68
1114.860, 74360.98
1115.342, 74369.24
1115.824, 74460.03
1116.306, 74580.21
1116.788, 74655.73
1117.271, 74692.77
1117.753, 74705.95
1118.235, 74675.65
1118.717, 74653.78
1119.199, 74637.98
1119.681, 74641.31
1120.163, 74686.48
1120.645, 74759.76
1121.127, 74829.88
1121.609, 74892.84
1122.092, 74926.72
1122.574, 74897.80
1123.056, 74862.48
1123.538, 74822.80
1124.020, 74800.79
1124.502, 74851.91
1124.984, 74967.66
1125.466, 75093.94
1125.949, 75228.55
1126.431, 75290.16
1126.913, 75103.93
1127.395, 74923.95
1127.877, 74972.77
1128.359, 75213.83
1128.841, 75349.38
1129.323, 75375.28
1129.806, 75365.52
1130.288, 75319.94
1130.770, 75307.83
1131.252, 75460.61
1131.734, 75660.69
1132.216, 75744.64
1132.698, 75660.02
1133.180, 75586.74
1133.662, 75524.26
1134.145, 75477.28
1134.627, 75429.11
1135.109, 75410.90
1135.591, 75520.11
1136.073, 75697.30
1136.555, 75789.13
1137.037, 75652.39
1137.519, 75576.73
1138.001, 75585.69
1138.484, 75644.70
1138.966, 75750.00
1139.448, 75869.36
1139.930, 75891.17
1140.412, 75827.24
1140.894, 75828.45
1141.376, 76088.63
1141.858, 76246.16
1142.341, 76169.48
1142.823, 75985.34
1143.305, 75916.55
1143.787, 75945.43
1144.269, 75995.95
1144.751, 76056.88
1145.233, 76121.84
1145.715, 76234.18
1146.198, 76297.65
1146.680, 76231.02
1147.162, 76078.93
1147.644, 76072.17
1148.126, 76199.20
1148.608, 76299.17
1149.090, 76309.21
1149.572, 76313.68
1150.054, 76391.86
1150.536, 76483.64
1151.019, 76533.07
1151.501, 76537.65
1151.983, 76515.53
1152.465, 76465.08
1152.947, 76426.45
1153.429, 76430.42
1153.911, 76445.65
1154.393, 76424.39
1154.876, 76399.36
1155.358, 76433.05
1155.840, 76543.88
1156.322, 76668.06
1156.804, 76812.54
1157.286, 76925.98
1157.768, 76949.16
1158.250, 76930.02
1158.733, 76910.27
1159.215, 76899.19
1159.697, 76928.91
1160.179, 77052.56
1160.661, 77100.23
1161.143, 77030.79
1161.625, 76942.74
1162.107, 76959.65
1162.589, 77030.84
1163.072, 77070.45
1163.554, 77073.82
1164.036, 77086.47
1164.518, 77126.53
1165.000, 77165.55
1165.482, 77199.27
1165.964, 77224.88
1166.446, 77228.05
1166.928, 77220.91
1167.411, 77239.48
1167.893, 77298.63
1168.375, 77320.99
1168.857, 77239.71
1169.339, 77168.59
1169.821, 77149.71
1170.303, 77172.27
1170.785, 77204.73
1171.268, 77251.26
1171.750, 77334.14
1172.232, 77486.86
1172.714, 77605.16
1173.196, 77636.09
1173.678, 77624.78
1174.160, 77570.48
1174.642, 77492.28
1175.125, 77559.34
1175.607, 77740.21
1176.089, 77858.02
1176.571, 77778.81
1177.053, 77686.70
1177.535, 77651.12
1178.017, 77649.43
1178.499, 77664.43
1178.981, 77696.20
1179.464, 77755.14
1179.946, 77837.09
1180.428, 77875.90
1180.910, 77757.46
1181.392, 77664.09
1181.874, 77721.81
1182.356, 77852.77
1182.838, 77936.52
1183.320, 77971.53
1183.803, 78031.18
1184.285, 78122.52
1184.767, 78199.44
1185.249, 78225.36
1185.731, 78227.83
1186.213, 78203.09
1186.695, 78173.12
1187.177, 78205.24
1187.660, 78305.45
1188.142, 78373.70
1188.624, 78391.09
1189.106, 78393.09
1189.588, 78402.73
1190.070, 78416.38
1190.552, 78437.05
1191.034, 78460.84
1191.516, 78457.38
1191.999, 78421.55
1192.481, 78407.05
1192.963, 78426.60
1193.445, 78473.52
1193.927, 78586.57
1194.409, 78692.79
1194.891, 78694.63
1195.373, 78584.38
1195.855, 78558.66
1196.338, 78625.73
1196.820, 78708.30
1197.302, 78790.76
1197.784, 78844.97
1198.266, 78787.74
1198.748, 78711.12
1199.230, 78757.09
1199.712, 78976.23
1200.195, 79049.87
1200.677, 78959.20
1201.159, 78851.30
1201.641, 78777.27
1202.123, 78760.23
1202.605, 78881.97
1203.087, 79059.63
1203.569, 79156.77
1204.052, 79140.60
1204.534, 79095.43
1205.016, 79011.92
1205.498, 78953.41
1205.980, 78976.63
1206.462, 79037.29
1206.944, 79091.49
1207.426, 79142.27
1207.908, 79196.22
1208.391, 79255.55
1208.873, 79319.66
1209.355, 79393.95
1209.837, 79446.70
1210.319, 79420.42
1210.801, 79381.21
1211.283, 79421.00
1211.765, 79514.50
1212.247, 79561.01
1212.730, 79533.12
1213.212, 79523.34
1213.694, 79541.63
1214.176, 79576.73
1214.658, 79638.58
1215.140, 79696.84
1215.622, 79719.51
1216.104, 79705.84
1216.587, 79657.56
1217.069, 79547.59
1217.551, 79501.16
1218.033, 79540.59
1218.515, 79639.54
1218.997, 79856.36
1219.479, 80057.16
1219.961, 80043.92
1220.443, 79823.82
1220.926, 79724.05
1221.408, 79774.86
1221.890, 79890.55
1222.372, 80078.72
1222.854, 80228.75
1223.336, 80144.55
1223.818, 79988.45
1224.300, 79951.74
1224.782, 80063.13
1225.265, 80164.57
1225.747, 80262.16
1226.229, 80310.32
1226.711, 80280.48
1227.193, 80235.93
1227.675, 80240.77
1228.157, 80282.22
1228.639, 80366.05
1229.122, 80501.96
1229.604, 80513.17
1230.086, 80370.44
1230.568, 80308.24
1231.050, 80459.84
1231.532, 80639.65
1232.014, 80609.38
1232.496, 80495.95
1232.979, 80457.98
1233.461, 80514.95
1233.943, 80581.57
1234.425, 80658.80
1234.907, 80731.36
1235.389, 80797.70
1235.871, 80846.96
1236.353, 80851.22
1236.835, 80842.92
1237.318, 80870.38
1237.800, 80943.23
1238.282, 80981.58
1238.764, 80983.39
1239.246, 80987.78
1239.728, 81039.05
1240.210, 81072.62
1240.692, 80989.78
1241.175, 80880.04
1241.657, 80869.19
1242.139, 80975.50
1242.621, 81078.03
1243.103, 81177.98
1243.585, 81248.87
1244.067, 81283.09
1244.549, 81275.94
1245.031, 81158.18
1245.514, 81035.98
1245.996, 81069.32
1246.478, 81279.03
1246.960, 81378.95
1247.442, 81369.63
1247.924, 81360.32
1248.406, 81459.24
1248.888, 81535.29
1249.370, 81459.98
1249.853, 81352.79
1250.335, 81386.04
1250.817, 81553.11
1251.299, 81657.48
1251.781, 81694.00
1252.263, 81723.82
1252.745, 81789.43
1253.227, 81850.91
1253.710, 81890.20
1254.192, 81916.05
1254.674, 81939.41
1255.156, 81958.91
1255.638, 81960.87
1256.120, 81946.18
1256.602, 81934.55
1257.084, 81953.30
1257.567, 81952.80
1258.049, 81899.24
1258.531, 81842.63
1259.013, 81855.96
1259.495, 81925.61
1259.977, 82014.58
1260.459, 82115.95
1260.941, 82194.30
1261.423, 82245.06
1261.906, 82242.03
1262.388, 82146.33
1262.870, 82052.20
1263.352, 82140.66
1263.834, 82322.25
1264.316, 82372.80
1264.798, 82283.88
1265.280, 82224.93
1265.762, 82261.51
1266.245, 82313.52
1266.727, 82377.57
1267.209, 82428.02
1267.691, 82408.04
1268.173, 82360.90
1268.655, 82360.86
1269.137, 82412.09
1269.619, 82460.93
1270.102, 82487.07
1270.584, 82552.13
1271.066, 82680.11
1271.548, 82811.13
1272.030, 82872.81
1272.512, 82889.49
1272.994, 82878.15
1273.476, 82843.13
1273.958, 82814.92
1274.441, 82788.02
1274.923, 82806.59
1275.405, 82890.00
1275.887, 82976.57
1276.369, 83004.15
1276.851, 83002.21
1277.333, 82973.66
1277.815, 82935.73
1278.297, 83002.60
1278.780, 83182.48
1279.262, 83262.46
1279.744, 83174.41
1280.226, 83096.17
1280.708, 83220.87
1281.190, 83363.11
1281.672, 83360.78
1282.154, 83270.28
1282.637, 83315.23
1283.119, 83479.04
1283.601, 83596.75
1284.083, 83628.91
1284.565, 83656.34
1285.047, 83793.30
1285.529, 83854.42
1286.011, 83712.30
1286.494, 83467.05
1286.976, 83429.05
1287.458, 83534.55
1287.940, 83556.53
1288.422, 83433.70
1288.904, 83355.13
1289.386, 83420.72
1289.868, 83506.86
1290.350, 83580.88
1290.833, 83643.27
1291.315, 83695.17
1291.797, 83735.42
1292.279, 83758.45
1292.761, 83760.66
1293.243, 83766.87
1293.725, 83771.91
1294.207, 83808.00
1294.689, 83904.67
1295.172, 83992.93
1295.654, 83926.06
1296.136, 83814.36
1296.618, 83828.94
1297.100, 84009.47
1297.582, 84049.77
1298.064, 83922.57
1298.546, 83827.84
1299.029, 83825.52
1299.511, 83884.77
1299.993, 84053.48
1300.475, 84208.20
1300.957, 84187.34
1301.439, 84025.34
1301.921, 83950.38
1302.403, 83960.20
1302.885, 83994.16
1303.368, 84040.51
1303.850, 84085.60
1304.332, 84110.11
1304.814, 84141.21
1305.296, 84206.74
1305.778, 84286.01
1306.260, 84282.82
1306.742, 84226.43
1307.224, 84244.78
1307.707, 84384.46
1308.189, 84510.91
1308.671, 84590.70
1309.153, 84611.55
1309.635, 84554.79
1310.117, 84451.05
1310.599, 84328.71
1311.081, 84220.71
1311.564, 84209.45
1312.046, 84325.44
1312.528, 84417.95
1313.010, 84473.88
1313.492, 84493.23
1313.974, 84457.91
1314.456, 84429.91
1314.938, 84540.09
##END=



