##NAMES=Elpasolite
##RRUFFID=R061029
##IDEAL CHEMISTRY=K_2_NaAlF_6_
##LOCALITY=Le Cetine mine, Rosia, Siena Province, Tuscany, Italy
##OWNER=RRUFF
##SOURCE=Michael Scott
##DESCRIPTION=Colorless cubic crystals associated with colorless blades of gypsum
##STATUS=The identification of this mineral has been confirmed only by single crystal X-ray diffraction.
##URL=rruff.info/R061029
180.3460, 5649.788
180.8281, 5676.986
181.3103, 5730.234
181.7924, 5796.371
182.2745, 5836.468
182.7566, 5827.887
183.2387, 5835.453
183.7208, 5892.820
184.2030, 5977.813
184.6851, 6045.936
185.1672, 6076.315
185.6493, 6084.917
186.1314, 6113.740
186.6135, 6170.940
187.0957, 6227.541
187.5778, 6271.352
188.0599, 6308.571
188.5420, 6350.463
189.0241, 6399.973
189.5062, 6459.542
189.9884, 6541.046
190.4705, 6668.078
190.9526, 6765.786
191.4347, 6790.142
191.9168, 6770.062
192.3989, 6763.232
192.8811, 6791.559
193.3632, 6843.038
193.8453, 6895.367
194.3274, 6954.487
194.8095, 7002.458
195.2916, 7023.882
195.7738, 7031.123
196.2559, 7050.566
196.7380, 7094.168
197.2201, 7147.574
197.7022, 7179.439
198.1843, 7183.160
198.6665, 7190.853
199.1486, 7216.497
199.6307, 7251.928
200.1128, 7282.813
200.5949, 7304.144
201.0770, 7319.445
201.5592, 7335.050
202.0413, 7353.057
202.5234, 7365.009
203.0055, 7368.369
203.4876, 7364.057
203.9697, 7352.431
204.4519, 7332.482
204.9340, 7308.554
205.4161, 7287.754
205.8982, 7270.385
206.3803, 7253.058
206.8624, 7238.568
207.3446, 7222.625
207.8267, 7196.145
208.3088, 7154.988
208.7909, 7110.928
209.2730, 7083.585
209.7551, 7076.062
210.2373, 7062.480
210.7194, 7032.257
211.2015, 6994.724
211.6836, 6962.292
212.1657, 6937.647
212.6478, 6917.724
213.1300, 6899.087
213.6121, 6881.522
214.0942, 6866.437
214.5763, 6856.162
215.0584, 6847.642
215.5405, 6837.623
216.0227, 6825.531
216.5048, 6812.384
216.9869, 6800.561
217.4690, 6790.913
217.9511, 6773.750
218.4332, 6733.086
218.9154, 6692.789
219.3975, 6682.942
219.8796, 6707.098
220.3617, 6733.691
220.8438, 6731.844
221.3259, 6697.681
221.8081, 6662.931
222.2902, 6619.582
222.7723, 6581.984
223.2544, 6566.018
223.7365, 6571.447
224.2186, 6579.636
224.7008, 6575.016
225.1829, 6556.374
225.6650, 6538.632
226.1471, 6519.252
226.6292, 6502.641
227.1113, 6493.818
227.5935, 6491.759
228.0756, 6489.830
228.5577, 6483.571
229.0398, 6472.771
229.5219, 6458.933
230.0040, 6431.339
230.4862, 6410.723
230.9683, 6414.897
231.4504, 6437.333
231.9325, 6454.025
232.4146, 6448.484
232.8967, 6423.827
233.3789, 6407.668
233.8610, 6403.671
234.3431, 6402.462
234.8252, 6404.537
235.3073, 6406.965
235.7894, 6402.129
236.2716, 6384.436
236.7537, 6358.448
237.2358, 6344.560
237.7179, 6348.388
238.2000, 6355.649
238.6821, 6364.894
239.1643, 6375.352
239.6464, 6386.337
240.1285, 6397.700
240.6106, 6408.616
241.0927, 6416.640
241.5748, 6427.635
242.0570, 6428.458
242.5391, 6405.902
243.0212, 6377.392
243.5033, 6366.503
243.9854, 6381.252
244.4675, 6406.104
244.9497, 6411.546
245.4318, 6374.240
245.9139, 6353.112
246.3960, 6361.234
246.8781, 6377.805
247.3602, 6384.636
247.8424, 6377.660
248.3245, 6365.422
248.8066, 6359.852
249.2887, 6365.024
249.7708, 6367.079
250.2529, 6361.530
250.7351, 6356.434
251.2172, 6356.560
251.6993, 6362.456
252.1814, 6372.602
252.6635, 6386.532
253.1456, 6406.762
253.6278, 6417.557
254.1099, 6409.556
254.5920, 6401.786
255.0741, 6403.210
255.5562, 6412.638
256.0384, 6424.197
256.5205, 6434.020
257.0026, 6442.230
257.4847, 6442.252
257.9668, 6421.458
258.4489, 6404.956
258.9311, 6400.082
259.4132, 6404.213
259.8953, 6411.880
260.3774, 6420.080
260.8595, 6428.626
261.3416, 6436.895
261.8238, 6449.007
262.3059, 6454.828
262.7880, 6444.533
263.2701, 6429.718
263.7522, 6426.547
264.2343, 6443.824
264.7165, 6470.740
265.1986, 6481.162
265.6807, 6469.359
266.1628, 6452.334
266.6449, 6426.371
267.1270, 6401.260
267.6092, 6384.612
268.0913, 6378.689
268.5734, 6383.161
269.0555, 6403.813
269.5376, 6448.285
270.0197, 6473.996
270.5019, 6453.309
270.9840, 6423.564
271.4661, 6405.370
271.9482, 6401.512
272.4303, 6402.914
272.9124, 6399.206
273.3946, 6390.680
273.8767, 6394.542
274.3588, 6428.155
274.8409, 6457.165
275.3230, 6451.953
275.8051, 6418.599
276.2873, 6392.518
276.7694, 6399.756
277.2515, 6431.603
277.7336, 6459.769
278.2157, 6484.639
278.6978, 6501.692
279.1800, 6505.049
279.6621, 6498.536
280.1442, 6490.275
280.6263, 6481.672
281.1084, 6473.508
281.5905, 6465.464
282.0727, 6456.813
282.5548, 6453.893
283.0369, 6462.860
283.5190, 6480.192
284.0011, 6498.110
284.4832, 6521.915
284.9654, 6539.524
285.4475, 6537.939
285.9296, 6519.718
286.4117, 6499.970
286.8938, 6482.132
287.3759, 6470.279
287.8581, 6473.988
288.3402, 6501.709
288.8223, 6526.148
289.3044, 6538.080
289.7865, 6538.715
290.2686, 6527.186
290.7508, 6501.008
291.2329, 6471.576
291.7150, 6458.263
292.1971, 6465.382
292.6792, 6473.012
293.1613, 6483.485
293.6435, 6490.712
294.1256, 6483.236
294.6077, 6460.421
295.0898, 6440.322
295.5719, 6443.396
296.0540, 6475.283
296.5362, 6502.361
297.0183, 6523.042
297.5004, 6540.435
297.9825, 6558.100
298.4646, 6574.481
298.9467, 6582.872
299.4289, 6576.358
299.9110, 6556.364
300.3931, 6553.414
300.8752, 6590.001
301.3573, 6617.896
301.8394, 6618.762
302.3216, 6605.462
302.8037, 6597.151
303.2858, 6603.264
303.7679, 6621.303
304.2500, 6644.852
304.7321, 6679.938
305.2143, 6711.306
305.6964, 6741.970
306.1785, 6766.325
306.6606, 6779.300
307.1427, 6779.830
307.6248, 6771.366
308.1070, 6755.809
308.5891, 6728.929
309.0712, 6711.744
309.5533, 6710.602
310.0354, 6715.718
310.5175, 6725.644
310.9997, 6738.721
311.4818, 6750.634
311.9639, 6753.102
312.4460, 6748.632
312.9281, 6763.703
313.4102, 6813.853
313.8924, 6859.692
314.3745, 6872.324
314.8566, 6868.234
315.3387, 6878.754
315.8208, 6918.528
316.3029, 6979.468
316.7851, 7052.650
317.2672, 7140.423
317.7493, 7225.780
318.2314, 7297.438
318.7135, 7364.013
319.1956, 7436.121
319.6778, 7513.473
320.1599, 7600.212
320.6420, 7702.734
321.1241, 7818.825
321.6062, 7937.034
322.0883, 8050.904
322.5705, 8170.064
323.0526, 8315.052
323.5347, 8492.092
324.0168, 8651.872
324.4989, 8809.086
324.9810, 8928.959
325.4632, 8965.972
325.9453, 8912.795
326.4274, 8786.416
326.9095, 8590.744
327.3916, 8315.201
327.8737, 8063.369
328.3559, 7832.191
328.8380, 7627.821
329.3201, 7458.061
329.8022, 7319.943
330.2843, 7204.779
330.7664, 7108.456
331.2486, 7030.219
331.7307, 6966.475
332.2128, 6920.083
332.6949, 6885.690
333.1770, 6870.571
333.6591, 6864.244
334.1413, 6857.389
334.6234, 6846.260
335.1055, 6828.463
335.5876, 6797.050
336.0697, 6737.813
336.5518, 6697.483
337.0340, 6688.491
337.5161, 6686.833
337.9982, 6680.069
338.4803, 6666.877
338.9624, 6651.496
339.4445, 6636.242
339.9267, 6621.196
340.4088, 6612.555
340.8909, 6616.069
341.3730, 6618.308
341.8551, 6609.780
342.3372, 6596.818
342.8194, 6591.611
343.3015, 6603.421
343.7836, 6620.752
344.2657, 6621.125
344.7478, 6600.870
345.2299, 6585.744
345.7121, 6590.823
346.1942, 6603.221
346.6763, 6607.313
347.1584, 6599.958
347.6405, 6591.890
348.1227, 6589.403
348.6048, 6591.770
349.0869, 6597.057
349.5690, 6605.329
350.0511, 6615.165
350.5332, 6627.087
351.0154, 6641.377
351.4975, 6647.899
351.9796, 6637.882
352.4617, 6624.013
352.9438, 6619.333
353.4259, 6623.610
353.9081, 6626.480
354.3902, 6619.760
354.8723, 6604.810
355.3544, 6597.047
355.8365, 6604.026
356.3186, 6608.047
356.8008, 6605.192
357.2829, 6595.998
357.7650, 6577.030
358.2471, 6546.889
358.7292, 6517.923
359.2113, 6516.500
359.6935, 6570.395
360.1756, 6601.030
360.6577, 6599.353
361.1398, 6585.153
361.6219, 6567.740
362.1040, 6549.731
362.5862, 6531.757
363.0683, 6512.551
363.5504, 6492.308
364.0325, 6484.011
364.5146, 6492.321
364.9967, 6507.277
365.4789, 6536.386
365.9610, 6566.610
366.4431, 6575.252
366.9252, 6547.263
367.4073, 6505.508
367.8894, 6485.712
368.3716, 6490.004
368.8537, 6494.646
369.3358, 6487.567
369.8179, 6481.539
370.3000, 6490.833
370.7821, 6516.934
371.2643, 6548.200
371.7464, 6585.520
372.2285, 6622.286
372.7106, 6643.874
373.1927, 6647.168
373.6748, 6640.738
374.1570, 6629.232
374.6391, 6612.970
375.1212, 6602.185
375.6033, 6594.903
376.0854, 6595.302
376.5675, 6610.137
377.0497, 6635.354
377.5318, 6660.039
378.0139, 6679.179
378.4960, 6692.556
378.9781, 6699.400
379.4602, 6693.143
379.9424, 6688.362
380.4245, 6687.911
380.9066, 6687.595
381.3887, 6681.274
381.8708, 6669.168
382.3529, 6659.438
382.8351, 6660.786
383.3172, 6673.671
383.7993, 6694.829
384.2814, 6747.816
384.7635, 6784.419
385.2456, 6776.501
385.7278, 6742.537
386.2099, 6717.826
386.6920, 6722.538
387.1741, 6741.634
387.6562, 6745.637
388.1383, 6732.700
388.6205, 6713.098
389.1026, 6682.076
389.5847, 6651.125
390.0668, 6633.688
390.5489, 6632.136
391.0310, 6629.369
391.5132, 6609.507
391.9953, 6581.528
392.4774, 6567.443
392.9595, 6571.909
393.4416, 6582.746
393.9237, 6592.063
394.4059, 6599.189
394.8880, 6599.016
395.3701, 6582.031
395.8522, 6566.252
396.3343, 6563.683
396.8164, 6570.665
397.2986, 6576.378
397.7807, 6575.258
398.2628, 6572.184
398.7449, 6579.264
399.2270, 6611.225
399.7091, 6631.682
400.1913, 6645.519
400.6734, 6644.936
401.1555, 6614.694
401.6376, 6559.777
402.1197, 6507.141
402.6018, 6481.456
403.0840, 6482.185
403.5661, 6488.612
404.0482, 6508.912
404.5303, 6523.868
405.0124, 6524.477
405.4945, 6517.858
405.9767, 6514.561
406.4588, 6519.748
406.9409, 6524.167
407.4230, 6511.398
407.9051, 6481.737
408.3872, 6464.520
408.8694, 6471.208
409.3515, 6487.599
409.8336, 6501.570
410.3157, 6513.071
410.7978, 6517.124
411.2799, 6502.788
411.7621, 6485.149
412.2442, 6483.326
412.7263, 6497.460
413.2084, 6515.021
413.6905, 6529.396
414.1726, 6540.214
414.6548, 6545.718
415.1369, 6535.436
415.6190, 6533.573
416.1011, 6557.315
416.5832, 6586.615
417.0653, 6592.898
417.5475, 6570.644
418.0296, 6543.527
418.5117, 6543.119
418.9938, 6577.104
419.4759, 6600.436
419.9580, 6603.880
420.4402, 6605.726
420.9223, 6615.562
421.4044, 6627.865
421.8865, 6630.476
422.3686, 6615.103
422.8507, 6591.687
423.3329, 6580.265
423.8150, 6582.815
424.2971, 6584.841
424.7792, 6582.384
425.2613, 6577.729
425.7434, 6572.971
426.2256, 6568.209
426.7077, 6563.265
427.1898, 6553.107
427.6719, 6544.604
428.1540, 6554.935
428.6361, 6585.762
429.1183, 6606.717
429.6004, 6591.435
430.0825, 6547.489
430.5646, 6527.109
431.0467, 6549.605
431.5288, 6569.784
432.0110, 6572.636
432.4931, 6566.284
432.9752, 6561.945
433.4573, 6562.839
433.9394, 6564.341
434.4215, 6559.386
434.9037, 6544.918
435.3858, 6537.035
435.8679, 6537.927
436.3500, 6543.240
436.8321, 6558.075
437.3142, 6575.522
437.7964, 6581.262
438.2785, 6565.033
438.7606, 6540.849
439.2427, 6538.180
439.7248, 6561.343
440.2069, 6575.105
440.6891, 6563.431
441.1712, 6544.298
441.6533, 6534.156
442.1354, 6533.167
442.6175, 6538.228
443.0996, 6557.075
443.5818, 6576.671
444.0639, 6573.611
444.5460, 6548.027
445.0281, 6529.196
445.5102, 6538.759
445.9923, 6569.339
446.4745, 6584.132
446.9566, 6576.345
447.4387, 6564.218
447.9208, 6545.479
448.4029, 6526.816
448.8850, 6516.166
449.3672, 6514.708
449.8493, 6516.886
450.3314, 6517.711
450.8135, 6517.618
451.2956, 6510.435
451.7777, 6485.088
452.2599, 6466.433
452.7420, 6468.434
453.2241, 6479.582
453.7062, 6482.425
454.1883, 6469.540
454.6704, 6452.160
455.1526, 6441.703
455.6347, 6438.101
456.1168, 6442.877
456.5989, 6460.739
457.0811, 6479.483
457.5632, 6485.765
458.0453, 6481.292
458.5274, 6474.968
459.0095, 6465.310
459.4916, 6457.001
459.9738, 6454.430
460.4559, 6456.411
460.9380, 6460.853
461.4201, 6467.891
461.9022, 6471.908
462.3843, 6458.836
462.8665, 6403.669
463.3486, 6376.262
463.8307, 6392.454
464.3128, 6421.291
464.7949, 6451.845
465.2770, 6478.018
465.7592, 6490.329
466.2413, 6479.412
466.7234, 6451.786
467.2055, 6427.949
467.6876, 6405.060
468.1697, 6394.602
468.6519, 6416.306
469.1340, 6442.558
469.6161, 6444.775
470.0982, 6418.892
470.5803, 6396.647
471.0624, 6403.516
471.5446, 6422.939
472.0267, 6424.457
472.5088, 6405.130
472.9909, 6381.893
473.4730, 6363.478
473.9551, 6351.018
474.4373, 6352.729
474.9194, 6375.782
475.4015, 6401.145
475.8836, 6436.200
476.3657, 6465.995
476.8478, 6470.188
477.3300, 6447.285
477.8121, 6417.230
478.2942, 6402.132
478.7763, 6402.399
479.2584, 6391.717
479.7405, 6354.960
480.2227, 6329.333
480.7048, 6334.349
481.1869, 6353.261
481.6690, 6363.977
482.1511, 6359.216
482.6332, 6353.104
483.1154, 6359.470
483.5975, 6375.567
484.0796, 6392.574
484.5617, 6410.857
485.0438, 6422.505
485.5259, 6417.379
486.0081, 6396.524
486.4902, 6383.766
486.9723, 6381.088
487.4544, 6384.652
487.9365, 6399.179
488.4186, 6416.981
488.9008, 6424.182
489.3829, 6416.559
489.8650, 6404.545
490.3471, 6403.265
490.8292, 6415.423
491.3113, 6424.829
491.7935, 6431.988
492.2756, 6435.591
492.7577, 6435.276
493.2398, 6431.094
493.7219, 6421.308
494.2040, 6402.882
494.6862, 6386.970
495.1683, 6393.645
495.6504, 6419.168
496.1325, 6428.134
496.6146, 6409.401
497.0967, 6381.387
497.5789, 6360.371
498.0610, 6346.035
498.5431, 6336.101
499.0252, 6333.941
499.5073, 6332.604
499.9894, 6327.336
500.4716, 6320.156
500.9537, 6314.838
501.4358, 6312.841
501.9179, 6314.194
502.4000, 6318.937
502.8821, 6327.003
503.3643, 6338.831
503.8464, 6370.995
504.3285, 6390.165
504.8106, 6373.492
505.2927, 6336.644
505.7748, 6309.142
506.2570, 6304.165
506.7391, 6311.417
507.2212, 6321.845
507.7033, 6334.681
508.1854, 6339.505
508.6675, 6330.980
509.1497, 6320.647
509.6318, 6322.420
510.1139, 6335.552
510.5960, 6342.598
511.0781, 6333.173
511.5602, 6326.053
512.0424, 6336.810
512.5245, 6356.297
513.0066, 6363.785
513.4887, 6351.772
513.9708, 6335.908
514.4529, 6342.832
514.9351, 6381.799
515.4172, 6405.165
515.8993, 6397.918
516.3814, 6389.941
516.8635, 6394.290
517.3456, 6404.786
517.8278, 6409.829
518.3099, 6404.403
518.7920, 6394.523
519.2741, 6385.253
519.7562, 6376.841
520.2383, 6369.440
520.7205, 6361.969
521.2026, 6359.813
521.6847, 6370.570
522.1668, 6394.356
522.6489, 6410.868
523.1310, 6416.929
523.6132, 6419.139
524.0953, 6416.810
524.5774, 6413.471
525.0595, 6414.601
525.5416, 6421.651
526.0237, 6430.680
526.5059, 6437.817
526.9880, 6443.439
527.4701, 6442.309
527.9522, 6428.974
528.4343, 6416.836
528.9164, 6405.471
529.3986, 6400.472
529.8807, 6415.015
530.3628, 6459.145
530.8449, 6493.847
531.3270, 6476.055
531.8091, 6429.730
532.2913, 6409.650
532.7734, 6424.615
533.2555, 6450.534
533.7376, 6470.011
534.2197, 6483.415
534.7018, 6494.571
535.1840, 6503.106
535.6661, 6509.884
536.1482, 6515.377
536.6303, 6518.771
537.1124, 6515.757
537.5945, 6507.925
538.0767, 6505.467
538.5588, 6517.244
539.0409, 6542.024
539.5230, 6577.623
540.0051, 6630.344
540.4872, 6671.944
540.9694, 6685.617
541.4515, 6685.602
541.9336, 6686.407
542.4157, 6686.385
542.8978, 6702.387
543.3799, 6747.190
543.8621, 6806.966
544.3442, 6868.145
544.8263, 6930.342
545.3084, 6996.580
545.7905, 7067.534
546.2726, 7147.182
546.7548, 7246.141
547.2369, 7371.134
547.7190, 7502.851
548.2011, 7622.533
548.6832, 7764.741
549.1653, 7954.300
549.6475, 8182.388
550.1296, 8420.893
550.6117, 8651.710
551.0938, 8890.033
551.5759, 9155.031
552.0580, 9445.996
552.5402, 9746.129
553.0223, 10049.28
553.5044, 10364.00
553.9865, 10701.99
554.4686, 11065.19
554.9507, 11428.94
555.4329, 11820.46
555.9150, 12181.08
556.3971, 12514.61
556.8792, 12792.86
557.3613, 12985.37
557.8434, 13080.63
558.3256, 13072.51
558.8077, 12954.36
559.2898, 12726.06
559.7719, 12377.20
560.2540, 11865.25
560.7361, 11311.89
561.2183, 10742.85
561.7004, 10179.30
562.1825, 9652.863
562.6646, 9156.524
563.1467, 8728.973
563.6288, 8405.313
564.1110, 8149.002
564.5931, 7915.214
565.0752, 7696.948
565.5573, 7498.297
566.0394, 7321.447
566.5215, 7167.056
567.0037, 7039.761
567.4858, 6949.758
567.9679, 6870.918
568.4500, 6800.995
568.9321, 6740.504
569.4142, 6689.492
569.8964, 6648.612
570.3785, 6621.661
570.8606, 6620.990
571.3427, 6623.105
571.8248, 6587.414
572.3069, 6520.145
572.7891, 6467.733
573.2712, 6445.843
573.7533, 6434.773
574.2354, 6410.629
574.7175, 6370.354
575.1996, 6345.354
575.6818, 6350.772
576.1639, 6353.271
576.6460, 6334.202
577.1281, 6308.236
577.6102, 6297.227
578.0923, 6306.109
578.5745, 6318.907
579.0566, 6317.279
579.5387, 6303.186
580.0208, 6294.145
580.5029, 6291.506
580.9850, 6289.389
581.4672, 6285.270
581.9493, 6279.798
582.4314, 6273.455
582.9135, 6264.649
583.3956, 6260.814
583.8777, 6269.028
584.3599, 6279.324
584.8420, 6281.342
585.3241, 6277.060
585.8062, 6276.765
586.2883, 6286.642
586.7704, 6299.091
587.2526, 6296.467
587.7347, 6274.314
588.2168, 6254.064
588.6989, 6231.654
589.1810, 6218.479
589.6631, 6226.924
590.1453, 6248.028
590.6274, 6260.333
591.1095, 6253.114
591.5916, 6245.064
592.0737, 6253.294
592.5558, 6268.476
593.0380, 6272.596
593.5201, 6262.703
594.0022, 6246.620
594.4843, 6229.348
594.9664, 6212.175
595.4485, 6206.146
595.9307, 6219.621
596.4128, 6231.085
596.8949, 6233.211
597.3770, 6236.058
597.8591, 6253.836
598.3412, 6282.016
598.8234, 6295.229
599.3055, 6266.841
599.7876, 6226.113
600.2697, 6216.780
600.7518, 6232.474
601.2339, 6237.063
601.7161, 6217.381
602.1982, 6193.717
602.6803, 6191.163
603.1624, 6212.684
603.6445, 6231.748
604.1266, 6250.569
604.6088, 6264.576
605.0909, 6269.520
605.5730, 6270.682
606.0551, 6274.610
606.5372, 6282.397
607.0193, 6289.043
607.5015, 6288.023
607.9836, 6282.825
608.4657, 6284.257
608.9478, 6292.765
609.4299, 6300.108
609.9120, 6303.545
610.3942, 6302.536
610.8763, 6294.274
611.3584, 6272.580
611.8405, 6264.013
612.3226, 6284.320
612.8047, 6302.535
613.2869, 6298.801
613.7690, 6283.003
614.2511, 6274.030
614.7332, 6278.829
615.2153, 6286.942
615.6974, 6285.101
616.1796, 6274.824
616.6617, 6266.337
617.1438, 6259.642
617.6259, 6257.537
618.1080, 6264.284
618.5901, 6275.458
619.0723, 6278.987
619.5544, 6269.869
620.0365, 6266.335
620.5186, 6277.624
621.0007, 6290.082
621.4828, 6293.283
621.9650, 6289.176
622.4471, 6284.810
622.9292, 6283.758
623.4113, 6283.289
623.8934, 6278.300
624.3755, 6268.808
624.8577, 6261.208
625.3398, 6256.280
625.8219, 6252.803
626.3040, 6247.670
626.7861, 6243.958
627.2682, 6250.494
627.7504, 6273.536
628.2325, 6295.648
628.7146, 6319.529
629.1967, 6335.130
629.6788, 6327.736
630.1609, 6302.490
630.6431, 6278.530
631.1252, 6267.173
631.6073, 6264.069
632.0894, 6261.165
632.5715, 6258.490
633.0536, 6255.087
633.5358, 6249.169
634.0179, 6245.544
634.5000, 6252.117
634.9821, 6263.881
635.4642, 6264.038
635.9464, 6237.364
636.4285, 6220.259
636.9106, 6238.618
637.3927, 6263.028
637.8748, 6254.220
638.3569, 6218.363
638.8391, 6200.618
639.3212, 6234.611
639.8033, 6293.469
640.2854, 6309.185
640.7675, 6276.256
641.2496, 6250.203
641.7318, 6240.985
642.2139, 6238.868
642.6960, 6239.562
643.1781, 6241.569
643.6602, 6239.059
644.1423, 6223.289
644.6245, 6214.264
645.1066, 6223.109
645.5887, 6239.309
646.0708, 6257.036
646.5529, 6272.008
647.0350, 6271.393
647.5172, 6241.307
647.9993, 6203.134
648.4814, 6220.895
648.9635, 6303.133
649.4456, 6349.057
649.9277, 6331.263
650.4099, 6290.361
650.8920, 6250.884
651.3741, 6214.898
651.8562, 6191.264
652.3383, 6183.284
652.8204, 6184.146
653.3026, 6195.521
653.7847, 6212.349
654.2668, 6235.160
654.7489, 6259.373
655.2310, 6270.986
655.7131, 6258.655
656.1953, 6232.798
656.6774, 6212.939
657.1595, 6198.933
657.6416, 6197.469
658.1237, 6214.033
658.6058, 6233.943
659.0880, 6249.549
659.5701, 6258.828
660.0522, 6253.060
660.5343, 6213.260
661.0164, 6184.005
661.4985, 6173.541
661.9807, 6178.141
662.4628, 6205.626
662.9449, 6246.310
663.4270, 6271.136
663.9091, 6259.841
664.3912, 6232.351
664.8734, 6224.689
665.3555, 6234.441
665.8376, 6230.270
666.3197, 6203.345
666.8018, 6176.994
667.2839, 6169.186
667.7661, 6176.715
668.2482, 6182.760
668.7303, 6197.962
669.2124, 6196.762
669.6945, 6155.851
670.1766, 6115.995
670.6588, 6110.405
671.1409, 6130.529
671.6230, 6147.394
672.1051, 6147.329
672.5872, 6138.593
673.0693, 6126.745
673.5515, 6114.294
674.0336, 6112.889
674.5157, 6124.599
674.9978, 6136.744
675.4799, 6140.168
675.9620, 6138.513
676.4442, 6144.328
676.9263, 6170.777
677.4084, 6182.173
677.8905, 6165.465
678.3726, 6147.946
678.8547, 6147.099
679.3369, 6154.967
679.8190, 6153.135
680.3011, 6133.256
680.7832, 6114.500
681.2653, 6117.997
681.7474, 6131.273
682.2296, 6128.165
682.7117, 6108.879
683.1938, 6094.934
683.6759, 6098.844
684.1580, 6111.322
684.6401, 6111.209
685.1223, 6090.154
685.6044, 6085.097
686.0865, 6110.044
686.5686, 6133.917
687.0507, 6147.753
687.5328, 6152.060
688.0150, 6144.440
688.4971, 6122.146
688.9792, 6105.901
689.4613, 6114.156
689.9434, 6126.456
690.4255, 6119.841
690.9077, 6099.397
691.3898, 6081.844
691.8719, 6073.850
692.3540, 6072.051
692.8361, 6072.050
693.3182, 6073.833
693.8004, 6079.983
694.2825, 6093.132
694.7646, 6102.831
695.2467, 6100.848
695.7288, 6096.792
696.2109, 6106.416
696.6931, 6131.090
697.1752, 6145.720
697.6573, 6140.920
698.1394, 6131.061
698.6215, 6115.660
699.1036, 6103.209
699.5858, 6109.621
700.0679, 6135.102
700.5500, 6158.104
701.0321, 6159.082
701.5142, 6144.525
701.9963, 6128.122
702.4785, 6110.037
702.9606, 6098.927
703.4427, 6098.612
703.9248, 6101.269
704.4069, 6098.884
704.8890, 6091.667
705.3712, 6086.402
705.8533, 6089.780
706.3354, 6086.051
706.8175, 6062.469
707.2996, 6039.669
707.7817, 6034.352
708.2639, 6044.718
708.7460, 6059.797
709.2281, 6077.333
709.7102, 6092.218
710.1923, 6100.065
710.6744, 6101.308
711.1566, 6093.705
711.6387, 6078.169
712.1208, 6066.475
712.6029, 6066.973
713.0850, 6076.156
713.5671, 6085.888
714.0493, 6100.135
714.5314, 6100.526
715.0135, 6072.097
715.4956, 6047.813
715.9777, 6050.386
716.4598, 6067.046
716.9420, 6074.069
717.4241, 6063.403
717.9062, 6061.471
718.3883, 6090.652
718.8704, 6121.250
719.3525, 6126.863
719.8347, 6113.495
720.3168, 6094.797
720.7989, 6076.569
721.2810, 6067.572
721.7631, 6089.950
722.2452, 6133.980
722.7274, 6135.133
723.2095, 6087.654
723.6916, 6052.130
724.1737, 6053.869
724.6558, 6075.131
725.1379, 6094.742
725.6201, 6114.323
726.1022, 6120.456
726.5843, 6100.552
727.0664, 6084.558
727.5485, 6085.206
728.0306, 6089.288
728.5128, 6080.512
728.9949, 6060.489
729.4770, 6048.791
729.9591, 6060.844
730.4412, 6079.798
730.9233, 6092.231
731.4055, 6097.439
731.8876, 6089.674
732.3697, 6069.589
732.8518, 6054.090
733.3339, 6057.234
733.8160, 6072.269
734.2982, 6074.905
734.7803, 6059.308
735.2624, 6057.435
735.7445, 6084.055
736.2266, 6107.489
736.7087, 6104.628
737.1909, 6084.585
737.6730, 6064.846
738.1551, 6037.868
738.6372, 6032.315
739.1193, 6081.231
739.6014, 6129.269
740.0836, 6131.837
740.5657, 6105.711
741.0478, 6086.478
741.5299, 6086.526
742.0120, 6094.270
742.4941, 6105.063
742.9763, 6113.145
743.4584, 6098.396
743.9405, 6062.750
744.4226, 6034.476
744.9047, 6023.434
745.3868, 6025.942
745.8690, 6039.247
746.3511, 6063.664
746.8332, 6085.013
747.3153, 6107.639
747.7974, 6119.810
748.2795, 6111.564
748.7617, 6098.468
749.2438, 6090.103
749.7259, 6086.832
750.2080, 6087.650
750.6901, 6097.538
751.1722, 6104.201
751.6544, 6102.543
752.1365, 6093.640
752.6186, 6069.782
753.1007, 6038.659
753.5828, 6028.017
754.0649, 6055.082
754.5471, 6096.123
755.0292, 6117.819
755.5113, 6121.238
755.9934, 6108.133
756.4755, 6076.285
756.9576, 6055.291
757.4398, 6063.889
757.9219, 6085.443
758.4040, 6088.828
758.8861, 6067.869
759.3682, 6053.294
759.8503, 6041.324
760.3325, 6040.768
760.8146, 6065.841
761.2967, 6095.793
761.7788, 6107.712
762.2609, 6100.501
762.7430, 6092.312
763.2252, 6091.932
763.7073, 6091.449
764.1894, 6078.679
764.6715, 6064.810
765.1536, 6070.954
765.6357, 6097.012
766.1179, 6123.846
766.6000, 6138.991
767.0821, 6143.278
767.5642, 6135.496
768.0463, 6116.491
768.5284, 6098.120
769.0106, 6080.311
769.4927, 6074.246
769.9748, 6091.251
770.4569, 6119.875
770.9390, 6131.569
771.4211, 6116.297
771.9033, 6109.750
772.3854, 6117.933
772.8675, 6127.716
773.3496, 6135.807
773.8317, 6142.538
774.3138, 6149.130
774.7960, 6155.668
775.2781, 6159.073
775.7602, 6162.055
776.2423, 6157.406
776.7244, 6131.232
777.2065, 6097.084
777.6887, 6076.560
778.1708, 6073.277
778.6529, 6077.040
779.1350, 6079.792
779.6171, 6085.378
780.0992, 6106.218
780.5814, 6140.316
781.0635, 6162.614
781.5456, 6168.296
782.0277, 6169.568
782.5098, 6174.826
782.9919, 6180.603
783.4741, 6177.234
783.9562, 6161.039
784.4383, 6144.807
784.9204, 6118.054
785.4025, 6103.949
785.8846, 6118.470
786.3668, 6145.492
786.8489, 6167.590
787.3310, 6182.887
787.8131, 6189.668
788.2952, 6182.750
788.7773, 6171.930
789.2595, 6156.578
789.7416, 6144.584
790.2237, 6153.517
790.7058, 6179.957
791.1879, 6193.821
791.6700, 6170.124
792.1522, 6133.176
792.6343, 6124.493
793.1164, 6137.094
793.5985, 6140.172
794.0806, 6129.744
794.5627, 6122.175
795.0449, 6128.498
795.5270, 6140.352
796.0091, 6137.620
796.4912, 6114.600
796.9733, 6104.502
797.4554, 6118.057
797.9376, 6124.415
798.4197, 6098.354
798.9018, 6067.939
799.3839, 6074.060
799.8660, 6117.901
800.3481, 6145.196
800.8303, 6141.503
801.3124, 6128.947
801.7945, 6104.154
802.2766, 6082.364
802.7587, 6083.049
803.2408, 6101.337
803.7230, 6112.296
804.2051, 6100.548
804.6872, 6087.758
805.1693, 6098.117
805.6514, 6120.105
806.1335, 6135.129
806.6157, 6141.387
807.0978, 6139.690
807.5799, 6130.217
808.0620, 6119.552
808.5441, 6117.588
809.0262, 6123.708
809.5084, 6129.644
809.9905, 6135.341
810.4726, 6141.239
810.9547, 6148.611
811.4368, 6153.383
811.9189, 6149.282
812.4011, 6137.225
812.8832, 6134.464
813.3653, 6149.658
813.8474, 6161.315
814.3295, 6167.331
814.8116, 6169.912
815.2938, 6172.776
815.7759, 6172.746
816.2580, 6160.867
816.7401, 6131.054
817.2222, 6107.036
817.7043, 6098.916
818.1865, 6100.565
818.6686, 6111.699
819.1507, 6127.360
819.6328, 6142.592
820.1149, 6154.804
820.5970, 6157.075
821.0792, 6136.971
821.5613, 6109.760
822.0434, 6105.265
822.5255, 6117.106
823.0076, 6120.636
823.4897, 6111.222
823.9719, 6096.764
824.4540, 6081.719
824.9361, 6068.885
825.4182, 6067.251
825.9003, 6078.954
826.3824, 6085.271
826.8646, 6084.111
827.3467, 6080.604
827.8289, 6074.728
828.3110, 6070.215
828.7931, 6075.080
829.2752, 6092.596
829.7573, 6097.128
830.2394, 6078.154
830.7216, 6060.470
831.2037, 6047.127
831.6858, 6039.014
832.1679, 6036.790
832.6500, 6040.239
833.1321, 6049.722
833.6143, 6072.013
834.0964, 6085.626
834.5785, 6071.451
835.0606, 6049.644
835.5427, 6039.196
836.0248, 6038.146
836.5070, 6037.260
836.9891, 6033.473
837.4712, 6032.474
837.9533, 6049.366
838.4354, 6068.362
838.9175, 6047.290
839.3997, 5998.042
839.8818, 5973.190
840.3639, 5984.932
840.8460, 6006.061
841.3281, 6014.796
841.8102, 6015.348
842.2924, 6021.608
842.7745, 6035.216
843.2566, 6038.018
843.7387, 6025.380
844.2208, 6011.911
844.7029, 6005.252
845.1851, 6001.541
845.6672, 5993.943
846.1493, 5981.563
846.6314, 5969.813
847.1135, 5945.793
847.5956, 5939.354
848.0778, 5969.434
848.5599, 6008.446
849.0420, 6043.899
849.5241, 6069.506
850.0062, 6063.007
850.4883, 5987.873
850.9705, 5939.135
851.4526, 5982.166
851.9347, 6037.288
852.4168, 6034.395
852.8989, 5996.137
853.3810, 5977.119
853.8632, 5992.869
854.3453, 6011.535
854.8274, 6006.212
855.3095, 5992.519
855.7916, 5989.470
856.2737, 5993.788
856.7559, 5998.197
857.2380, 6000.881
857.7201, 6001.480
858.2022, 5999.458
858.6843, 5996.358
859.1664, 5994.905
859.6486, 5995.013
860.1307, 5996.361
860.6128, 5998.952
861.0949, 6003.400
861.5770, 6011.850
862.0591, 6013.835
862.5413, 5990.478
863.0234, 5942.196
863.5055, 5926.564
863.9876, 5958.309
864.4697, 5982.046
864.9518, 5982.065
865.4340, 5978.421
865.9161, 5989.626
866.3982, 6009.406
866.8803, 6012.948
867.3624, 5988.732
867.8445, 5973.119
868.3267, 5970.691
868.8088, 5973.346
869.2909, 5980.490
869.7730, 5989.295
870.2551, 5998.789
870.7372, 6008.096
871.2194, 6009.452
871.7015, 5994.205
872.1836, 5977.517
872.6657, 5963.729
873.1478, 5954.612
873.6299, 5953.087
874.1121, 5957.596
874.5942, 5965.244
875.0763, 5975.521
875.5584, 5980.521
876.0405, 5962.259
876.5226, 5942.032
877.0048, 5958.059
877.4869, 5997.124
877.9690, 6022.676
878.4511, 6025.311
878.9332, 6015.419
879.4153, 5998.958
879.8975, 5981.195
880.3796, 5975.031
880.8617, 5978.394
881.3438, 5978.393
881.8259, 5973.689
882.3080, 5968.938
882.7902, 5966.236
883.2723, 5966.362
883.7544, 5970.972
884.2365, 5980.044
884.7186, 5989.972
885.2007, 6003.736
885.6829, 6004.042
886.1650, 5979.543
886.6471, 5956.554
887.1292, 5959.467
887.6113, 5980.153
888.0934, 5986.810
888.5756, 5968.984
889.0577, 5959.286
889.5398, 5957.457
890.0219, 5964.087
890.5040, 5989.250
890.9861, 6016.454
891.4683, 6026.316
891.9504, 6018.583
892.4325, 6007.740
892.9146, 5988.254
893.3967, 5976.166
893.8788, 5983.962
894.3610, 5993.246
894.8431, 5991.185
895.3252, 5979.595
895.8073, 5960.335
896.2894, 5931.293
896.7715, 5919.027
897.2537, 5953.903
897.7358, 5992.683
898.2179, 6000.766
898.7000, 5993.190
899.1821, 5994.138
899.6642, 6004.829
900.1464, 6009.855
900.6285, 5999.986
901.1106, 5983.580
901.5927, 5964.831
902.0748, 5947.585
902.5569, 5933.428
903.0391, 5926.576
903.5212, 5943.744
904.0033, 5988.536
904.4854, 6032.825
904.9675, 6050.308
905.4496, 6047.793
905.9318, 6037.027
906.4139, 6019.676
906.8960, 6002.488
907.3781, 5986.798
907.8602, 5976.863
908.3423, 5975.030
908.8245, 5981.079
909.3066, 5996.760
909.7887, 6021.315
910.2708, 6043.873
910.7529, 6066.073
911.2350, 6066.266
911.7172, 6033.889
912.1993, 5997.396
912.6814, 5980.853
913.1635, 5979.827
913.6456, 5978.282
914.1277, 5975.414
914.6099, 5974.826
915.0920, 5975.506
915.5741, 5981.701
916.0562, 6000.494
916.5383, 6019.520
917.0204, 6021.535
917.5026, 6006.674
917.9847, 5998.396
918.4668, 6006.792
918.9489, 6005.887
919.4310, 5985.101
919.9131, 5963.441
920.3953, 5946.260
920.8774, 5936.503
921.3595, 5942.735
921.8416, 5969.604
922.3237, 5984.157
922.8058, 5968.124
923.2880, 5956.768
923.7701, 5969.546
924.2522, 5985.283
924.7343, 5978.507
925.2164, 5959.063
925.6985, 5963.454
926.1807, 6011.913
926.6628, 6044.447
927.1449, 6014.402
927.6270, 5985.374
928.1091, 6011.458
928.5912, 6058.479
929.0734, 6076.612
929.5555, 6062.995
930.0376, 6051.418
930.5197, 6062.642
931.0018, 6070.475
931.4839, 6045.585
931.9661, 6015.316
932.4482, 6018.057
932.9303, 6039.056
933.4124, 6036.985
933.8945, 6002.768
934.3766, 5971.316
934.8588, 5970.170
935.3409, 5984.314
935.8230, 6003.936
936.3051, 6022.065
936.7872, 6021.977
937.2693, 6006.652
937.7515, 5997.385
938.2336, 6003.583
938.7157, 6005.563
939.1978, 5966.383
939.6799, 5913.839
940.1620, 5920.510
940.6442, 5968.787
941.1263, 5992.785
941.6084, 5982.306
942.0905, 5971.622
942.5726, 5983.042
943.0547, 6000.050
943.5369, 5991.746
944.0190, 5964.540
944.5011, 5949.939
944.9832, 5948.175
945.4653, 5952.851
945.9474, 5962.240
946.4296, 5972.772
946.9117, 5981.300
947.3938, 5989.021
947.8759, 6000.238
948.3580, 6014.806
948.8401, 6022.950
949.3223, 6023.617
949.8044, 6023.694
950.2865, 6026.054
950.7686, 6027.009
951.2507, 6021.233
951.7328, 6011.233
952.2150, 6012.866
952.6971, 6028.846
953.1792, 6038.333
953.6613, 6038.610
954.1434, 6034.410
954.6255, 6026.558
955.1077, 6018.259
955.5898, 6013.543
956.0719, 6012.471
956.5540, 6020.908
957.0361, 6048.564
957.5182, 6053.480
958.0004, 6015.306
958.4825, 5983.430
958.9646, 5990.290
959.4467, 6019.270
959.9288, 6039.968
960.4109, 6052.094
960.8931, 6057.551
961.3752, 6051.320
961.8573, 6047.931
962.3394, 6050.482
962.8215, 6056.346
963.3036, 6068.564
963.7858, 6081.145
964.2679, 6075.865
964.7500, 6040.901
965.2321, 6026.349
965.7142, 6049.076
966.1964, 6068.798
966.6785, 6073.840
967.1606, 6073.874
967.6427, 6078.663
968.1248, 6084.987
968.6069, 6078.904
969.0891, 6043.434
969.5712, 6034.106
970.0533, 6078.294
970.5354, 6118.413
971.0175, 6137.436
971.4996, 6141.430
971.9818, 6129.644
972.4639, 6106.896
972.9460, 6095.792
973.4281, 6101.979
973.9102, 6113.846
974.3923, 6147.396
974.8745, 6165.729
975.3566, 6135.195
975.8387, 6091.334
976.3208, 6076.218
976.8029, 6089.935
977.2850, 6104.849
977.7672, 6121.974
978.2493, 6130.213
978.7314, 6116.566
979.2135, 6104.837
979.6956, 6106.221
980.1777, 6119.284
980.6599, 6148.745
981.1420, 6191.875
981.6241, 6214.699
982.1062, 6188.692
982.5883, 6168.581
983.0704, 6172.129
983.5526, 6185.658
984.0347, 6202.732
984.5168, 6222.038
984.9989, 6247.790
985.4810, 6279.210
985.9631, 6292.058
986.4453, 6264.143
986.9274, 6235.099
987.4095, 6214.742
987.8916, 6204.477
988.3737, 6216.426
988.8558, 6234.749
989.3380, 6226.698
989.8201, 6186.563
990.3022, 6159.951
990.7843, 6168.098
991.2664, 6188.375
991.7485, 6225.768
992.2307, 6257.512
992.7128, 6261.722
993.1949, 6245.732
993.6770, 6222.235
994.1591, 6193.823
994.6412, 6180.632
995.1234, 6203.197
995.6055, 6228.065
996.0876, 6237.551
996.5697, 6241.928
997.0518, 6248.425
997.5339, 6258.601
998.0161, 6276.696
998.4982, 6304.406
998.9803, 6320.139
999.4624, 6294.343
999.9445, 6277.725
1000.427, 6313.829
1000.909, 6359.572
1001.391, 6367.749
1001.873, 6350.672
1002.355, 6348.148
1002.837, 6371.541
1003.319, 6393.235
1003.801, 6399.446
1004.284, 6402.611
1004.766, 6406.293
1005.248, 6413.353
1005.730, 6431.548
1006.212, 6454.438
1006.694, 6465.265
1007.176, 6458.937
1007.658, 6450.766
1008.141, 6446.789
1008.623, 6443.822
1009.105, 6444.440
1009.587, 6441.724
1010.069, 6424.936
1010.551, 6399.674
1011.033, 6381.300
1011.515, 6374.530
1011.997, 6367.198
1012.480, 6341.116
1012.962, 6328.869
1013.444, 6360.768
1013.926, 6404.358
1014.408, 6433.611
1014.890, 6445.928
1015.372, 6439.220
1015.854, 6409.702
1016.336, 6392.351
1016.819, 6409.543
1017.301, 6431.043
1017.783, 6444.233
1018.265, 6452.789
1018.747, 6463.188
1019.229, 6471.569
1019.711, 6464.322
1020.193, 6435.488
1020.676, 6420.066
1021.158, 6441.601
1021.640, 6464.015
1022.122, 6471.260
1022.604, 6472.975
1023.086, 6477.401
1023.568, 6483.427
1024.050, 6486.753
1024.532, 6486.409
1025.015, 6485.389
1025.497, 6479.947
1025.979, 6479.971
1026.461, 6489.791
1026.943, 6505.723
1027.425, 6529.313
1027.907, 6555.436
1028.389, 6575.779
1028.871, 6589.715
1029.354, 6592.440
1029.836, 6567.893
1030.318, 6552.544
1030.800, 6563.657
1031.282, 6580.839
1031.764, 6589.715
1032.246, 6594.305
1032.728, 6603.060
1033.211, 6616.872
1033.693, 6633.499
1034.175, 6660.450
1034.657, 6679.241
1035.139, 6681.146
1035.621, 6679.309
1036.103, 6681.366
1036.585, 6685.181
1037.068, 6685.732
1037.550, 6682.077
1038.032, 6684.499
1038.514, 6688.854
1038.996, 6705.999
1039.478, 6752.302
1039.960, 6793.770
1040.442, 6817.038
1040.924, 6823.001
1041.406, 6804.890
1041.889, 6761.762
1042.371, 6751.345
1042.853, 6796.412
1043.335, 6828.293
1043.817, 6832.363
1044.299, 6838.149
1044.781, 6862.664
1045.263, 6891.825
1045.746, 6908.010
1046.228, 6911.984
1046.710, 6910.846
1047.192, 6899.176
1047.674, 6899.012
1048.156, 6913.846
1048.638, 6935.458
1049.120, 6961.769
1049.603, 6991.978
1050.085, 7027.694
1050.567, 7065.307
1051.049, 7083.157
1051.531, 7075.176
1052.013, 7081.566
1052.495, 7105.791
1052.977, 7137.826
1053.459, 7176.881
1053.942, 7211.642
1054.424, 7230.810
1054.906, 7238.759
1055.388, 7249.182
1055.870, 7262.203
1056.352, 7263.894
1056.834, 7252.287
1057.316, 7270.063
1057.798, 7331.616
1058.281, 7387.913
1058.763, 7399.793
1059.245, 7390.631
1059.727, 7412.952
1060.209, 7459.495
1060.691, 7474.719
1061.173, 7463.024
1061.655, 7473.460
1062.138, 7515.426
1062.620, 7559.325
1063.102, 7587.526
1063.584, 7607.108
1064.066, 7630.036
1064.548, 7651.746
1065.030, 7650.253
1065.512, 7637.255
1065.995, 7656.087
1066.477, 7707.921
1066.959, 7761.167
1067.441, 7801.369
1067.923, 7831.645
1068.405, 7848.006
1068.887, 7863.082
1069.369, 7895.393
1069.851, 7940.419
1070.333, 7995.070
1070.816, 8053.775
1071.298, 8103.862
1071.780, 8141.261
1072.262, 8172.676
1072.744, 8202.191
1073.226, 8228.495
1073.708, 8245.410
1074.190, 8262.720
1074.673, 8292.542
1075.155, 8331.604
1075.637, 8372.817
1076.119, 8414.194
1076.601, 8453.724
1077.083, 8488.868
1077.565, 8525.484
1078.047, 8564.088
1078.530, 8607.750
1079.012, 8659.218
1079.494, 8716.777
1079.976, 8785.854
1080.458, 8859.998
1080.940, 8908.137
1081.422, 8906.618
1081.904, 8922.189
1082.386, 8983.263
1082.869, 9049.188
1083.351, 9102.738
1083.833, 9153.746
1084.315, 9212.951
1084.797, 9277.245
1085.279, 9336.709
1085.761, 9391.440
1086.243, 9438.513
1086.726, 9465.584
1087.208, 9505.864
1087.690, 9571.548
1088.172, 9642.919
1088.654, 9709.492
1089.136, 9772.854
1089.618, 9834.293
1090.100, 9893.519
1090.583, 9963.584
1091.065, 10051.31
1091.547, 10120.35
1092.029, 10157.76
1092.511, 10209.17
1092.993, 10298.61
1093.475, 10401.60
1093.957, 10491.32
1094.439, 10569.75
1094.922, 10649.60
1095.404, 10730.25
1095.886, 10789.14
1096.368, 10825.32
1096.850, 10867.23
1097.332, 10923.82
1097.814, 10995.04
1098.296, 11082.41
1098.778, 11176.91
1099.261, 11259.63
1099.743, 11336.30
1100.225, 11429.40
1100.707, 11531.57
1101.189, 11612.64
1101.671, 11670.95
1102.153, 11732.79
1102.635, 11811.83
1103.118, 11898.39
1103.600, 11977.04
1104.082, 12063.16
1104.564, 12190.24
1105.046, 12329.45
1105.528, 12431.53
1106.010, 12505.86
1106.492, 12591.18
1106.974, 12698.58
1107.457, 12812.10
1107.939, 12928.04
1108.421, 13039.59
1108.903, 13141.26
1109.385, 13238.20
1109.867, 13334.70
1110.349, 13429.29
1110.831, 13507.33
1111.313, 13576.12
1111.796, 13690.42
1112.278, 13888.63
1112.760, 14077.05
1113.242, 14252.54
1113.724, 14398.33
1114.206, 14476.68
1114.688, 14551.68
1115.170, 14686.12
1115.653, 14856.09
1116.135, 14993.58
1116.617, 15088.84
1117.099, 15209.03
1117.581, 15368.72
1118.063, 15511.54
1118.545, 15623.29
1119.027, 15726.24
1119.510, 15823.32
1119.992, 15945.74
1120.474, 16148.27
1120.956, 16410.58
1121.438, 16607.09
1121.920, 16740.43
1122.402, 16884.61
1122.884, 17045.78
1123.366, 17230.71
1123.849, 17440.81
1124.331, 17638.52
1124.813, 17789.19
1125.295, 17925.00
1125.777, 18114.90
1126.259, 18323.96
1126.741, 18453.78
1127.223, 18537.66
1127.705, 18681.34
1128.188, 18887.35
1128.670, 19080.33
1129.152, 19225.75
1129.634, 19350.02
1130.116, 19454.62
1130.598, 19568.78
1131.080, 19719.17
1131.562, 19891.91
1132.045, 20092.44
1132.527, 20296.20
1133.009, 20446.52
1133.491, 20540.94
1133.973, 20666.14
1134.455, 20901.27
1134.937, 21086.91
1135.419, 21132.44
1135.901, 21181.39
1136.384, 21320.29
1136.866, 21481.27
1137.348, 21582.24
1137.830, 21645.15
1138.312, 21752.31
1138.794, 21926.81
1139.276, 22045.63
1139.758, 22089.36
1140.240, 22130.07
1140.723, 22179.85
1141.205, 22236.26
1141.687, 22302.94
1142.169, 22361.75
1142.651, 22386.96
1143.133, 22381.24
1143.615, 22352.00
1144.097, 22301.60
1144.580, 22260.71
1145.062, 22229.06
1145.544, 22177.27
1146.026, 22096.98
1146.508, 22008.12
1146.990, 21925.24
1147.472, 21842.45
1147.954, 21764.01
1148.437, 21672.39
1148.919, 21534.25
1149.401, 21364.82
1149.883, 21195.09
1150.365, 21025.04
1150.847, 20833.32
1151.329, 20613.71
1151.811, 20398.41
1152.293, 20218.75
1152.776, 20031.37
1153.258, 19812.62
1153.740, 19578.53
1154.222, 19325.87
1154.704, 19073.16
1155.186, 18853.22
1155.668, 18662.05
1156.150, 18450.57
1156.632, 18192.65
1157.115, 17958.41
1157.597, 17760.21
1158.079, 17562.22
1158.561, 17357.58
1159.043, 17145.89
1159.525, 16924.72
1160.007, 16699.84
1160.489, 16479.50
1160.972, 16265.97
1161.454, 16073.80
1161.936, 15902.72
1162.418, 15720.88
1162.900, 15525.87
1163.382, 15352.81
1163.864, 15212.85
1164.346, 15074.69
1164.828, 14913.18
1165.311, 14739.54
1165.793, 14559.43
1166.275, 14384.07
1166.757, 14230.33
1167.239, 14097.80
1167.721, 13991.63
1168.203, 13903.51
1168.685, 13812.19
1169.167, 13710.29
1169.650, 13599.45
1170.132, 13451.53
1170.614, 13334.41
1171.096, 13308.53
1171.578, 13293.29
1172.060, 13228.47
1172.542, 13142.90
1173.024, 13080.28
1173.507, 13038.49
1173.989, 12981.84
1174.471, 12894.24
1174.953, 12839.32
1175.435, 12829.80
1175.917, 12820.53
1176.399, 12804.10
1176.881, 12774.96
1177.364, 12724.15
1177.846, 12678.95
1178.328, 12687.44
1178.810, 12729.45
1179.292, 12711.64
1179.774, 12649.24
1180.256, 12637.78
1180.738, 12673.86
1181.220, 12695.79
1181.703, 12688.38
1182.185, 12678.23
1182.667, 12680.01
1183.149, 12695.95
1183.631, 12733.26
1184.113, 12780.80
1184.595, 12830.31
1185.077, 12880.91
1185.559, 12930.48
1186.042, 12980.96
1186.524, 13033.79
1187.006, 13089.75
1187.488, 13162.95
1187.970, 13281.29
1188.452, 13377.64
1188.934, 13431.31
1189.416, 13476.34
1189.899, 13516.85
1190.381, 13561.82
1190.863, 13611.17
1191.345, 13678.13
1191.827, 13798.65
1192.309, 13972.04
1192.791, 14104.81
1193.273, 14195.81
1193.755, 14316.76
1194.238, 14475.49
1194.720, 14623.86
1195.202, 14744.00
1195.684, 14856.35
1196.166, 14977.56
1196.648, 15103.02
1197.130, 15216.71
1197.612, 15338.55
1198.094, 15496.39
1198.577, 15684.53
1199.059, 15901.53
1199.541, 16135.79
1200.023, 16362.73
1200.505, 16576.75
1200.987, 16792.43
1201.469, 17008.85
1201.951, 17237.29
1202.434, 17500.49
1202.916, 17751.60
1203.398, 17945.39
1203.880, 18133.69
1204.362, 18358.20
1204.844, 18615.74
1205.326, 18902.51
1205.808, 19220.37
1206.291, 19533.89
1206.773, 19841.73
1207.255, 20164.91
1207.737, 20508.31
1208.219, 20863.64
1208.701, 21228.69
1209.183, 21600.11
1209.665, 21976.98
1210.147, 22343.18
1210.630, 22641.47
1211.112, 22930.62
1211.594, 23318.03
1212.076, 23754.13
1212.558, 24152.74
1213.040, 24509.34
1213.522, 24854.98
1214.004, 25197.39
1214.486, 25532.53
1214.969, 25847.07
1215.451, 26169.93
1215.933, 26510.95
1216.415, 26859.27
1216.897, 27231.36
1217.379, 27587.71
1217.861, 27895.40
1218.343, 28165.07
1218.826, 28419.81
1219.308, 28660.05
1219.790, 28905.27
1220.272, 29156.86
1220.754, 29389.54
1221.236, 29601.22
1221.718, 29783.31
1222.200, 29932.86
1222.682, 30049.63
1223.165, 30130.61
1223.647, 30193.30
1224.129, 30249.85
1224.611, 30308.36
1225.093, 30406.46
1225.575, 30493.00
1226.057, 30479.82
1226.539, 30401.21
1227.021, 30357.16
1227.504, 30363.21
1227.986, 30333.53
1228.468, 30223.38
1228.950, 30119.57
1229.432, 30052.28
1229.914, 29957.90
1230.396, 29820.86
1230.878, 29643.64
1231.361, 29416.53
1231.843, 29174.08
1232.325, 28972.28
1232.807, 28804.88
1233.289, 28652.05
1233.771, 28506.94
1234.253, 28332.77
1234.735, 28126.41
1235.218, 27875.50
1235.700, 27588.46
1236.182, 27325.81
1236.664, 27124.25
1237.146, 26901.32
1237.628, 26555.51
1238.110, 26212.61
1238.592, 25981.67
1239.074, 25771.63
1239.557, 25497.58
1240.039, 25197.83
1240.521, 24939.34
1241.003, 24716.43
1241.485, 24462.96
1241.967, 24167.62
1242.449, 23885.52
1242.931, 23621.43
1243.413, 23348.38
1243.896, 23059.76
1244.378, 22787.35
1244.860, 22548.10
1245.342, 22307.31
1245.824, 22027.18
1246.306, 21736.21
1246.788, 21475.36
1247.270, 21236.59
1247.753, 21025.56
1248.235, 20815.19
1248.717, 20537.60
1249.199, 20222.79
1249.681, 19972.88
1250.163, 19810.22
1250.645, 19634.80
1251.127, 19397.91
1251.609, 19171.82
1252.092, 18976.59
1252.574, 18782.64
1253.056, 18585.14
1253.538, 18378.18
1254.020, 18152.81
1254.502, 17924.78
1254.984, 17718.62
1255.466, 17533.52
1255.948, 17372.71
1256.431, 17229.77
1256.913, 17064.72
1257.395, 16882.68
##END=



