##NAMES=Elpidite
##RRUFFID=R060214
##IDEAL CHEMISTRY=Na_2_Zr^4+^Si_6_O_15_&#183;3H_2_O
##LOCALITY=Mont Saint-Hilaire, Rouville County, Quebec, Canada
##OWNER=RRUFF
##SOURCE=Royal Ontario Museum
##DESCRIPTION=White columnar aggregate of elongated acicular crystals
##STATUS=The identification of this mineral has been confirmed by X-ray diffraction.
##URL=rruff.info/R060214
129.6832, 82.09196
130.1653, 81.74749
130.6474, 81.37594
131.1296, 81.55698
131.6117, 82.21322
132.0938, 83.03097
132.5759, 83.89745
133.0580, 85.05319
133.5401, 86.93729
134.0223, 89.56037
134.5044, 92.70157
134.9865, 96.26490
135.4686, 100.2827
135.9507, 104.5465
136.4328, 109.0229
136.9150, 113.8136
137.3971, 119.1095
137.8792, 124.9178
138.3613, 131.2985
138.8434, 138.3436
139.3255, 146.0404
139.8077, 154.2911
140.2898, 163.3142
140.7719, 172.9396
141.2540, 182.3392
141.7361, 191.2661
142.2182, 200.2007
142.7004, 209.6983
143.1825, 220.0017
143.6646, 230.1938
144.1467, 240.4114
144.6288, 250.9850
145.1109, 258.4798
145.5931, 262.5769
146.0752, 263.9164
146.5573, 263.0953
147.0394, 258.7603
147.5215, 254.1833
148.0036, 249.9920
148.4858, 245.8919
148.9679, 243.0977
149.4500, 241.7751
149.9321, 241.6989
150.4142, 242.5442
150.8963, 244.3162
151.3785, 247.0411
151.8606, 250.7286
152.3427, 255.5825
152.8248, 261.0280
153.3069, 267.3096
153.7890, 274.1701
154.2712, 280.2941
154.7533, 284.5352
155.2354, 288.5594
155.7175, 292.5780
156.1996, 296.9109
156.6817, 300.5103
157.1639, 302.8594
157.6460, 304.4096
158.1281, 306.0641
158.6102, 308.1602
159.0923, 310.3029
159.5744, 312.2939
160.0566, 313.9346
160.5387, 315.6551
161.0208, 317.4058
161.5029, 319.2869
161.9850, 321.5961
162.4671, 324.5330
162.9493, 327.8722
163.4314, 331.4885
163.9135, 335.6288
164.3956, 339.6991
164.8777, 343.2134
165.3598, 346.3747
165.8420, 350.0337
166.3241, 354.8679
166.8062, 360.2374
167.2883, 365.6158
167.7704, 371.4954
168.2525, 376.6813
168.7346, 380.2213
169.2168, 382.3056
169.6989, 384.1451
170.1810, 387.0459
170.6631, 389.9388
171.1452, 391.5529
171.6273, 391.2496
172.1095, 389.6796
172.5916, 387.3102
173.0737, 384.1471
173.5558, 380.1529
174.0379, 375.2893
174.5201, 369.6065
175.0022, 363.0889
175.4843, 355.4135
175.9664, 347.0204
176.4485, 338.7304
176.9306, 330.4668
177.4128, 321.7192
177.8949, 311.5807
178.3770, 300.6534
178.8591, 290.0399
179.3412, 279.9181
179.8233, 270.4576
180.3055, 261.9868
180.7876, 254.4497
181.2697, 247.5162
181.7518, 240.9228
182.2339, 234.6496
182.7160, 228.3950
183.1982, 221.7493
183.6803, 215.1175
184.1624, 209.6235
184.6445, 205.4057
185.1266, 201.5834
185.6087, 197.0065
186.0909, 191.8297
186.5730, 187.1291
187.0551, 183.5969
187.5372, 180.9168
188.0193, 177.7557
188.5014, 173.9602
188.9836, 170.3136
189.4657, 167.8591
189.9478, 166.5266
190.4299, 165.3012
190.9120, 163.7117
191.3941, 161.8401
191.8763, 160.0502
192.3584, 158.3196
192.8405, 156.7746
193.3226, 155.6245
193.8047, 154.8765
194.2868, 154.1638
194.7690, 153.2294
195.2511, 152.1126
195.7332, 151.3419
196.2153, 151.0106
196.6974, 150.8475
197.1795, 150.3608
197.6617, 149.5190
198.1438, 148.7627
198.6259, 148.3887
199.1080, 148.3980
199.5901, 148.0993
200.0722, 147.3326
200.5544, 146.4885
201.0365, 146.4079
201.5186, 147.2138
202.0007, 147.9745
202.4828, 148.2709
202.9649, 148.0843
203.4471, 147.6188
203.9292, 146.7271
204.4113, 145.7340
204.8934, 145.3965
205.3755, 145.9104
205.8576, 146.2932
206.3398, 145.9954
206.8219, 144.8858
207.3040, 144.0341
207.7861, 143.6300
208.2682, 143.3328
208.7503, 142.3232
209.2325, 140.3760
209.7146, 138.4715
210.1967, 137.0752
210.6788, 136.2752
211.1609, 135.5477
211.6430, 134.8376
212.1252, 134.2335
212.6073, 134.0012
213.0894, 134.2863
213.5715, 134.5650
214.0536, 134.5369
214.5357, 134.0296
215.0179, 133.9008
215.5000, 134.3211
215.9821, 135.0116
216.4642, 135.3140
216.9463, 135.0572
217.4284, 134.7714
217.9105, 134.6539
218.3927, 134.6885
218.8748, 134.9554
219.3569, 135.5131
219.8390, 136.2685
220.3211, 137.0114
220.8032, 137.6557
221.2854, 138.4563
221.7675, 139.5842
222.2496, 141.1890
222.7317, 142.5779
223.2138, 143.5295
223.6959, 144.3704
224.1781, 145.9134
224.6602, 148.5164
225.1423, 151.1776
225.6244, 153.4319
226.1065, 155.1773
226.5886, 156.9129
227.0708, 158.6498
227.5529, 160.3851
228.0350, 162.1243
228.5171, 163.9010
228.9992, 165.6591
229.4813, 167.4036
229.9635, 169.1882
230.4456, 170.7700
230.9277, 172.0608
231.4098, 173.1801
231.8919, 174.3308
232.3740, 175.3279
232.8562, 176.6451
233.3383, 178.4515
233.8204, 180.7924
234.3025, 183.4655
234.7846, 186.4046
235.2667, 189.7159
235.7489, 193.5474
236.2310, 198.0060
236.7131, 202.7887
237.1952, 207.8468
237.6773, 213.0536
238.1594, 218.7002
238.6416, 224.6309
239.1237, 231.0981
239.6058, 238.5517
240.0879, 247.5721
240.5700, 256.7820
241.0521, 265.7464
241.5343, 274.2076
242.0164, 283.2201
242.4985, 293.0170
242.9806, 303.2037
243.4627, 313.3380
243.9448, 323.9987
244.4270, 333.6013
244.9091, 341.5766
245.3912, 347.6982
245.8733, 353.5675
246.3554, 359.7516
246.8375, 365.2739
247.3197, 368.8231
247.8018, 369.9849
248.2839, 369.9056
248.7660, 368.7968
249.2481, 366.6168
249.7302, 363.6103
250.2124, 359.3438
250.6945, 354.6427
251.1766, 350.3761
251.6587, 346.6542
252.1408, 343.1734
252.6229, 339.9273
253.1051, 336.9121
253.5872, 333.9224
254.0693, 331.2270
254.5514, 328.2185
255.0335, 324.2764
255.5156, 319.4018
255.9978, 313.7070
256.4799, 307.3378
256.9620, 300.2504
257.4441, 291.5533
257.9262, 280.6426
258.4083, 268.9167
258.8904, 257.6448
259.3726, 246.5406
259.8547, 236.3895
260.3368, 227.5050
260.8189, 219.7545
261.3010, 212.4918
261.7831, 205.6315
262.2653, 199.4039
262.7474, 194.1096
263.2295, 189.8161
263.7116, 186.1323
264.1937, 182.9785
264.6758, 180.3846
265.1580, 178.5441
265.6401, 177.9760
266.1222, 177.2118
266.6043, 175.1397
267.0864, 171.3505
267.5685, 167.6726
268.0507, 164.3198
268.5328, 161.1741
269.0149, 157.7159
269.4970, 153.7824
269.9791, 149.8330
270.4612, 145.9632
270.9434, 142.1057
271.4255, 138.7825
271.9076, 136.0740
272.3897, 133.8515
272.8718, 131.7404
273.3539, 129.6993
273.8361, 127.8973
274.3182, 126.3987
274.8003, 125.1972
275.2824, 124.4560
275.7645, 124.4032
276.2466, 124.5571
276.7288, 123.7897
277.2109, 121.8682
277.6930, 120.1803
278.1751, 119.4640
278.6572, 119.7601
279.1393, 120.0617
279.6215, 120.3413
280.1036, 120.6824
280.5857, 121.1905
281.0678, 121.8590
281.5499, 122.7485
282.0320, 123.9695
282.5142, 125.4902
282.9963, 126.7275
283.4784, 127.5892
283.9605, 128.4514
284.4426, 129.7858
284.9247, 131.5975
285.4069, 133.6222
285.8890, 135.8776
286.3711, 138.2748
286.8532, 140.4109
287.3353, 142.2316
287.8174, 144.0963
288.2996, 146.5305
288.7817, 149.4696
289.2638, 152.0552
289.7459, 154.0792
290.2280, 155.5806
290.7101, 156.7997
291.1923, 157.7576
291.6744, 158.1189
292.1565, 157.4195
292.6386, 155.8101
293.1207, 154.0437
293.6028, 152.2431
294.0850, 150.4016
294.5671, 148.2993
295.0492, 145.9618
295.5313, 143.8379
296.0134, 142.3244
296.4955, 141.2943
296.9777, 140.3484
297.4598, 139.3394
297.9419, 138.6043
298.4240, 138.6922
298.9061, 139.5279
299.3882, 140.7336
299.8704, 142.1626
300.3525, 143.7886
300.8346, 145.6224
301.3167, 147.6794
301.7988, 149.8418
302.2809, 152.2143
302.7631, 154.6377
303.2452, 156.7108
303.7273, 158.5589
304.2094, 159.7915
304.6915, 159.6902
305.1736, 158.1587
305.6558, 156.0338
306.1379, 154.0753
306.6200, 152.0439
307.1021, 149.5020
307.5842, 146.1261
308.0663, 142.2246
308.5485, 137.8609
309.0306, 133.0711
309.5127, 128.3113
309.9948, 123.7603
310.4769, 119.4628
310.9590, 115.4853
311.4412, 111.6704
311.9233, 108.2999
312.4054, 105.8516
312.8875, 104.1309
313.3696, 102.2333
313.8517, 99.29700
314.3339, 96.17364
314.8160, 93.60227
315.2981, 92.02448
315.7802, 90.65739
316.2623, 89.14117
316.7444, 87.54552
317.2266, 86.02522
317.7087, 84.46049
318.1908, 83.13765
318.6729, 82.25721
319.1550, 81.96733
319.6371, 81.80188
320.1193, 81.77181
320.6014, 81.74047
321.0835, 81.48203
321.5656, 80.56161
322.0477, 79.71450
322.5298, 79.32571
323.0120, 79.54720
323.4941, 79.55941
323.9762, 79.01073
324.4583, 78.23690
324.9404, 77.60123
325.4225, 77.12038
325.9047, 76.82150
326.3868, 76.86313
326.8689, 77.26416
327.3510, 77.33627
327.8331, 76.69389
328.3152, 75.91120
328.7974, 75.38518
329.2795, 75.29115
329.7616, 75.25695
330.2437, 75.30738
330.7258, 75.41561
331.2079, 75.41066
331.6901, 74.92542
332.1722, 74.68971
332.6543, 75.10519
333.1364, 76.69884
333.6185, 77.96273
334.1006, 78.74850
334.5828, 79.23207
335.0649, 79.81043
335.5470, 80.56335
336.0291, 81.28037
336.5112, 81.90341
336.9933, 82.46287
337.4755, 82.78036
337.9576, 82.79888
338.4397, 82.63920
338.9218, 82.41161
339.4039, 82.05354
339.8860, 81.87325
340.3681, 82.03383
340.8503, 82.49808
341.3324, 82.72143
341.8145, 82.66714
342.2966, 82.48312
342.7787, 82.18824
343.2608, 81.76216
343.7430, 81.74070
344.2251, 82.35716
344.7072, 83.35661
345.1893, 84.00532
345.6714, 84.29809
346.1535, 84.37473
346.6357, 84.02000
347.1178, 83.40549
347.5999, 83.71711
348.0820, 85.31179
348.5641, 87.33276
349.0462, 88.31129
349.5284, 88.39262
350.0105, 88.70661
350.4926, 89.92797
350.9747, 91.79617
351.4568, 93.86635
351.9389, 96.14904
352.4211, 98.28566
352.9032, 99.68714
353.3853, 100.6220
353.8674, 101.7425
354.3495, 103.4881
354.8316, 105.4371
355.3138, 107.1595
355.7959, 108.6578
356.2780, 109.9426
356.7601, 111.0583
357.2422, 111.9664
357.7243, 112.6077
358.2065, 112.8552
358.6886, 112.9920
359.1707, 113.4801
359.6528, 114.0679
360.1349, 113.9956
360.6170, 112.2865
361.0992, 110.1711
361.5813, 108.5216
362.0634, 107.5902
362.5455, 106.7743
363.0276, 105.8208
363.5097, 104.8354
363.9919, 103.9756
364.4740, 103.2912
364.9561, 102.7366
365.4382, 102.3017
365.9203, 101.9857
366.4024, 101.7682
366.8846, 101.6737
367.3667, 101.6581
367.8488, 101.6856
368.3309, 101.7568
368.8130, 101.8674
369.2951, 102.1152
369.7773, 102.4508
370.2594, 102.5260
370.7415, 101.8718
371.2236, 101.3927
371.7057, 101.5119
372.1878, 102.5368
372.6700, 103.5896
373.1521, 104.7199
373.6342, 105.8491
374.1163, 106.8165
374.5984, 107.5814
375.0805, 108.2412
375.5627, 108.7806
376.0448, 109.1759
376.5269, 109.7844
377.0090, 110.6833
377.4911, 111.6668
377.9732, 112.5802
378.4554, 113.4455
378.9375, 114.0312
379.4196, 114.1968
379.9017, 114.0866
380.3838, 114.2519
380.8659, 114.7156
381.3481, 115.2687
381.8302, 115.7226
382.3123, 116.1090
382.7944, 116.6643
383.2765, 117.4402
383.7586, 118.3408
384.2408, 119.2696
384.7229, 120.2146
385.2050, 121.1504
385.6871, 121.9375
386.1692, 122.7239
386.6513, 123.9395
387.1335, 125.6051
387.6156, 127.2166
388.0977, 128.3733
388.5798, 129.1250
389.0619, 129.5631
389.5440, 129.5827
390.0262, 129.4244
390.5083, 129.5613
390.9904, 129.8199
391.4725, 129.3820
391.9546, 127.6592
392.4367, 125.1016
392.9189, 121.9406
393.4010, 117.9581
393.8831, 114.0928
394.3652, 110.7656
394.8473, 107.9005
395.3294, 105.3534
395.8116, 103.4501
396.2937, 101.5633
396.7758, 99.22631
397.2579, 96.30318
397.7400, 94.10171
398.2221, 93.32725
398.7043, 93.16394
399.1864, 92.95468
399.6685, 92.78807
400.1506, 92.39567
400.6327, 91.53726
401.1148, 90.36695
401.5970, 89.63029
402.0791, 89.62338
402.5612, 89.71426
403.0433, 89.57284
403.5254, 88.92524
404.0075, 88.85375
404.4897, 89.60233
404.9718, 90.71765
405.4539, 91.46277
405.9360, 91.66917
406.4181, 92.05204
406.9002, 92.85999
407.3824, 94.04219
407.8645, 95.13265
408.3466, 96.06969
408.8287, 97.14880
409.3108, 98.55786
409.7929, 100.2996
410.2751, 102.6588
410.7572, 105.9414
411.2393, 109.4512
411.7214, 111.6293
412.2035, 112.6205
412.6856, 113.6892
413.1678, 115.6542
413.6499, 118.1963
414.1320, 120.5288
414.6141, 122.5917
415.0962, 124.9468
415.5783, 128.3682
416.0605, 132.4499
416.5426, 136.4952
417.0247, 140.2557
417.5068, 143.8912
417.9889, 147.6078
418.4710, 151.3429
418.9532, 154.9018
419.4353, 158.0938
419.9174, 161.0787
420.3995, 163.9648
420.8816, 166.8869
421.3637, 169.4857
421.8459, 171.4393
422.3280, 173.0113
422.8101, 174.6312
423.2922, 177.2652
423.7743, 179.1162
424.2564, 179.2862
424.7386, 177.6305
425.2207, 176.2637
425.7028, 175.6816
426.1849, 175.2477
426.6670, 174.5281
427.1491, 173.0252
427.6313, 172.0438
428.1134, 171.7994
428.5955, 172.0978
429.0776, 172.4137
429.5597, 172.7143
430.0418, 173.1047
430.5240, 173.5163
431.0061, 173.8918
431.4882, 175.1542
431.9703, 177.5985
432.4524, 180.2653
432.9345, 182.0468
433.4167, 182.9181
433.8988, 183.6857
434.3809, 184.6677
434.8630, 185.5228
435.3451, 185.3336
435.8272, 184.1181
436.3094, 182.4267
436.7915, 180.4575
437.2736, 178.2902
437.7557, 176.1660
438.2378, 174.1074
438.7199, 172.0171
439.2020, 169.8590
439.6841, 167.5950
440.1663, 165.1464
440.6484, 162.7353
441.1305, 159.9271
441.6126, 156.1087
442.0947, 151.4379
442.5768, 146.9728
443.0590, 143.0334
443.5411, 139.6611
444.0232, 136.8717
444.5053, 134.6128
444.9874, 133.0512
445.4695, 132.9937
445.9517, 133.5405
446.4338, 133.2366
446.9159, 130.9421
447.3980, 128.6243
447.8801, 126.7209
448.3622, 125.2303
448.8444, 124.2912
449.3265, 124.2019
449.8086, 124.4048
450.2907, 124.5260
450.7728, 124.4142
451.2549, 124.5468
451.7371, 124.8841
452.2192, 125.5177
452.7013, 126.7067
453.1834, 128.5342
453.6655, 130.5693
454.1476, 132.5595
454.6298, 134.5413
455.1119, 136.9825
455.5940, 139.8170
456.0761, 143.3515
456.5582, 148.0342
457.0403, 153.7230
457.5225, 159.6193
458.0046, 165.4452
458.4867, 171.3957
458.9688, 177.3067
459.4509, 183.3988
459.9330, 190.3302
460.4152, 199.4493
460.8973, 209.2413
461.3794, 217.5168
461.8615, 224.2367
462.3436, 231.1646
462.8257, 239.6228
463.3079, 248.9535
463.7900, 258.3987
464.2721, 267.4317
464.7542, 277.0652
465.2363, 287.8309
465.7184, 299.5326
466.2006, 311.6139
466.6827, 323.5312
467.1648, 336.1619
467.6469, 349.7907
468.1290, 364.5337
468.6111, 379.8536
469.0933, 396.2167
469.5754, 412.9369
470.0575, 429.7946
470.5396, 447.5239
471.0217, 463.8929
471.5038, 478.9117
471.9860, 492.4378
472.4681, 504.4958
472.9502, 515.5089
473.4323, 523.6765
473.9144, 528.6953
474.3965, 530.5262
474.8787, 526.3687
475.3608, 516.0286
475.8429, 500.8023
476.3250, 481.5449
476.8071, 458.5347
477.2892, 432.7359
477.7714, 403.6261
478.2535, 373.4689
478.7356, 344.9071
479.2177, 317.9611
479.6998, 293.3946
480.1819, 271.6167
480.6641, 252.0667
481.1462, 234.4919
481.6283, 218.7809
482.1104, 204.8042
482.5925, 192.6447
483.0746, 182.1137
483.5568, 172.9810
484.0389, 165.9391
484.5210, 159.5926
485.0031, 153.6947
485.4852, 148.2523
485.9673, 143.0851
486.4495, 137.8412
486.9316, 133.2556
487.4137, 129.6225
487.8958, 127.0678
488.3779, 124.8140
488.8600, 122.9078
489.3422, 121.2290
489.8243, 119.6581
490.3064, 118.2231
490.7885, 116.8249
491.2706, 115.3873
491.7527, 114.0327
492.2349, 113.0275
492.7170, 112.3872
493.1991, 112.0111
493.6812, 111.8260
494.1633, 111.8658
494.6454, 112.3546
495.1276, 113.3057
495.6097, 114.3872
496.0918, 115.2204
496.5739, 115.9666
497.0560, 116.9295
497.5381, 118.2175
498.0203, 119.6888
498.5024, 121.1866
498.9845, 122.7769
499.4666, 124.6462
499.9487, 127.1605
500.4308, 129.7305
500.9130, 131.8967
501.3951, 133.6385
501.8772, 135.7082
502.3593, 138.7127
502.8414, 141.8453
503.3235, 144.5919
503.8057, 146.2592
504.2878, 148.4232
504.7699, 150.9082
505.2520, 153.9811
505.7341, 158.2248
506.2162, 164.3672
506.6984, 170.1974
507.1805, 174.9908
507.6626, 178.8782
508.1447, 183.1339
508.6268, 187.8246
509.1089, 192.6248
509.5911, 197.3583
510.0732, 202.0179
510.5553, 206.6489
511.0374, 211.3625
511.5195, 215.6220
512.0016, 218.6341
512.4838, 220.6086
512.9659, 222.1982
513.4480, 223.8371
513.9301, 225.0634
514.4122, 225.0983
514.8943, 224.1746
515.3765, 223.2722
515.8586, 222.6729
516.3407, 222.4899
516.8228, 222.6996
517.3049, 223.1981
517.7870, 224.6462
518.2692, 227.0935
518.7513, 230.6650
519.2334, 235.4798
519.7155, 242.5552
520.1976, 249.7038
520.6797, 256.3952
521.1619, 262.9794
521.6440, 270.4005
522.1261, 278.5998
522.6082, 287.6018
523.0903, 297.4647
523.5724, 308.1973
524.0546, 319.3848
524.5367, 330.8818
525.0188, 343.0716
525.5009, 356.1998
525.9830, 370.3770
526.4651, 386.2928
526.9473, 404.4991
527.4294, 423.5646
527.9115, 441.3006
528.3936, 457.9127
528.8757, 474.4620
529.3578, 491.5356
529.8400, 508.4787
530.3221, 524.9811
530.8042, 540.7700
531.2863, 555.1567
531.7684, 568.5746
532.2505, 579.7313
532.7327, 587.7860
533.2148, 593.0023
533.6969, 593.7631
534.1790, 589.4716
534.6611, 580.5318
535.1432, 567.4384
535.6254, 548.6384
536.1075, 527.3395
536.5896, 503.4514
537.0717, 477.3272
537.5538, 451.2238
538.0359, 424.6408
538.5181, 398.7280
539.0002, 373.3865
539.4823, 348.7522
539.9644, 326.1257
540.4465, 305.5192
540.9286, 286.8337
541.4108, 270.4188
541.8929, 255.8680
542.3750, 242.0071
542.8571, 228.4981
543.3392, 216.0286
543.8214, 205.5124
544.3035, 196.6440
544.7856, 188.3013
545.2677, 179.9498
545.7498, 171.9789
546.2319, 164.6340
546.7141, 157.9526
547.1962, 152.1246
547.6783, 147.7340
548.1604, 143.8551
548.6425, 139.9042
549.1246, 135.8004
549.6068, 131.7676
550.0889, 127.7439
550.5710, 123.8442
551.0531, 120.1566
551.5352, 116.6088
552.0173, 113.4280
552.4995, 110.7212
552.9816, 108.3745
553.4637, 106.1572
553.9458, 104.0719
554.4279, 102.0925
554.9100, 100.1148
555.3922, 98.23874
555.8743, 97.02532
556.3564, 96.48559
556.8385, 95.88425
557.3206, 94.44034
557.8027, 92.59459
558.2849, 91.12044
558.7670, 90.20186
559.2491, 89.32082
559.7312, 87.93075
560.2133, 86.38615
560.6954, 85.17418
561.1776, 84.64102
561.6597, 84.29386
562.1418, 84.11550
562.6239, 84.02062
563.1060, 83.71326
563.5881, 82.98647
564.0703, 82.20227
564.5524, 81.44424
565.0345, 80.71702
565.5166, 80.02445
565.9987, 79.31734
566.4808, 78.72788
566.9630, 78.44883
567.4451, 78.52748
567.9272, 78.23649
568.4093, 77.42960
568.8914, 76.47579
569.3735, 75.90453
569.8557, 75.65366
570.3378, 75.39588
570.8199, 75.00281
571.3020, 74.56712
571.7841, 74.20193
572.2662, 73.89931
572.7484, 73.63151
573.2305, 73.49003
573.7126, 73.29534
574.1947, 72.89757
574.6768, 72.28005
575.1589, 71.62014
575.6411, 70.79317
576.1232, 70.07003
576.6053, 69.66520
577.0874, 69.85435
577.5695, 69.94241
578.0516, 69.98521
578.5338, 69.88932
579.0159, 69.41348
579.4980, 68.35479
579.9801, 67.70486
580.4622, 67.84525
580.9443, 68.44286
581.4265, 68.43900
581.9086, 67.83538
582.3907, 67.10859
582.8728, 66.36358
583.3549, 65.72386
583.8370, 65.52985
584.3192, 65.77676
584.8013, 66.01476
585.2834, 65.90287
585.7655, 65.60405
586.2476, 65.29094
586.7297, 64.98782
587.2118, 64.69980
587.6939, 64.42866
588.1760, 64.17065
588.6581, 63.92109
589.1403, 63.54799
589.6224, 63.34484
590.1045, 63.45094
590.5866, 63.75372
591.0687, 63.88270
591.5508, 63.80855
592.0330, 63.61787
592.5151, 63.28713
592.9972, 62.84138
593.4793, 62.57012
593.9614, 62.47740
594.4435, 62.53001
594.9257, 62.81794
595.4078, 63.23297
595.8899, 63.42979
596.3720, 63.34917
596.8541, 63.19237
597.3362, 63.15344
597.8184, 63.15984
598.3005, 63.09515
598.7826, 62.84210
599.2647, 62.62095
599.7468, 62.43240
600.2289, 62.35366
600.7111, 62.55663
601.1932, 63.56813
601.6753, 64.34688
602.1574, 64.44674
602.6395, 63.93775
603.1216, 63.87255
603.6038, 64.47063
604.0859, 65.10777
604.5680, 65.40622
605.0501, 65.33060
605.5322, 65.46201
606.0143, 65.79006
606.4965, 66.37673
606.9786, 67.67287
607.4607, 69.31931
607.9428, 69.95088
608.4249, 68.95796
608.9070, 67.93434
609.3892, 68.86601
609.8713, 70.89550
610.3534, 72.44524
610.8355, 72.44150
611.3176, 72.18935
611.7997, 72.07629
612.2819, 72.16603
612.7640, 72.66342
613.2461, 74.05598
613.7282, 75.41886
614.2103, 76.42879
614.6924, 77.04742
615.1746, 77.77701
615.6567, 78.65269
616.1388, 79.55977
616.6209, 80.44960
617.1030, 81.31998
617.5851, 82.15665
618.0673, 82.99403
618.5494, 83.64023
619.0315, 83.78802
619.5136, 83.54504
619.9957, 83.21058
620.4778, 82.86520
620.9600, 82.43870
621.4421, 81.75905
621.9242, 80.95321
622.4063, 80.29051
622.8884, 80.02983
623.3705, 79.77310
623.8527, 79.31119
624.3348, 78.68114
624.8169, 78.16452
625.2990, 77.91159
625.7811, 77.64359
626.2632, 77.28561
626.7454, 76.83927
627.2275, 76.22417
627.7096, 75.37760
628.1917, 74.52683
628.6738, 73.88799
629.1559, 73.43806
629.6381, 72.85934
630.1202, 72.08578
630.6023, 71.37673
631.0844, 71.02869
631.5665, 70.95461
632.0486, 70.97283
632.5308, 71.02394
633.0129, 71.16413
633.4950, 71.52266
633.9771, 71.98675
634.4592, 72.34673
634.9413, 72.31747
635.4235, 72.40215
635.9056, 72.92302
636.3877, 73.76708
636.8698, 74.11736
637.3519, 73.43733
637.8340, 73.14053
638.3162, 73.97482
638.7983, 75.91488
639.2804, 77.21720
639.7625, 77.82091
640.2446, 78.17718
640.7267, 78.52589
641.2089, 78.91761
641.6910, 79.54549
642.1731, 80.44492
642.6552, 81.41119
643.1373, 82.39048
643.6194, 83.26607
644.1016, 83.84713
644.5837, 83.87968
645.0658, 83.95857
645.5479, 84.38457
646.0300, 85.00451
646.5121, 85.55912
646.9943, 86.10607
647.4764, 86.46667
647.9585, 86.51955
648.4406, 86.37514
648.9227, 86.55112
649.4048, 87.26923
649.8870, 87.50365
650.3691, 86.74736
650.8512, 85.18896
651.3333, 83.53842
651.8154, 81.80202
652.2975, 80.02760
652.7797, 77.94721
653.2618, 75.96387
653.7439, 74.70992
654.2260, 74.25816
654.7081, 73.96579
655.1902, 73.73605
655.6724, 73.33926
656.1545, 72.51338
656.6366, 70.80469
657.1187, 69.48801
657.6008, 68.99834
658.0829, 68.84029
658.5651, 68.50980
659.0472, 67.93613
659.5293, 67.36379
660.0114, 66.77137
660.4935, 66.25663
660.9756, 66.13727
661.4578, 66.38506
661.9399, 66.42979
662.4220, 66.08829
662.9041, 65.40665
663.3862, 64.11304
663.8683, 62.44019
664.3505, 61.28032
664.8326, 61.52301
665.3147, 62.14280
665.7968, 62.58072
666.2789, 62.79805
666.7610, 62.72344
667.2432, 61.91686
667.7253, 61.18724
668.2074, 60.97171
668.6895, 61.41893
669.1716, 61.63054
669.6537, 61.52292
670.1359, 61.34400
670.6180, 61.31212
671.1001, 61.42152
671.5822, 61.50375
672.0643, 61.54505
672.5464, 61.55064
673.0286, 61.57722
673.5107, 61.56660
673.9928, 61.37907
674.4749, 60.89914
674.9570, 60.38545
675.4391, 59.99804
675.9213, 59.70221
676.4034, 59.44202
676.8855, 59.05039
677.3676, 58.87746
677.8497, 59.22150
678.3318, 59.83444
678.8140, 59.97520
679.2961, 59.40461
679.7782, 58.92341
680.2603, 58.78905
680.7424, 58.95244
681.2245, 59.26073
681.7067, 59.71715
682.1888, 60.06401
682.6709, 60.12667
683.1530, 59.98170
683.6351, 59.67503
684.1172, 59.22978
684.5994, 58.89484
685.0815, 58.97944
685.5636, 59.13668
686.0457, 59.05766
686.5278, 58.59880
687.0099, 58.32898
687.4921, 58.41526
687.9742, 58.68126
688.4563, 59.02742
688.9384, 59.49065
689.4205, 59.95411
689.9026, 60.49339
690.3848, 60.88311
690.8669, 60.64363
691.3490, 59.87761
691.8311, 59.50409
692.3132, 59.82362
692.7953, 60.36459
693.2775, 60.51954
693.7596, 60.48528
694.2417, 60.66304
694.7238, 61.54252
695.2059, 62.32981
695.6880, 62.54352
696.1702, 62.38845
696.6523, 62.44755
697.1344, 62.70289
697.6165, 63.32193
698.0986, 64.47781
698.5807, 66.04905
699.0629, 67.36406
699.5450, 68.41729
700.0271, 69.30379
700.5092, 69.97978
700.9913, 70.54620
701.4734, 71.43758
701.9556, 72.62416
702.4377, 73.69252
702.9198, 74.07129
703.4019, 74.35094
703.8840, 75.14494
704.3661, 76.51827
704.8483, 78.12377
705.3304, 79.93813
705.8125, 81.86040
706.2946, 83.87019
706.7767, 86.11807
707.2589, 87.99089
707.7410, 89.30943
708.2231, 90.48489
708.7052, 91.91582
709.1873, 93.60896
709.6694, 95.30408
710.1516, 97.02077
710.6337, 98.57863
711.1158, 99.60451
711.5979, 100.3314
712.0800, 101.3048
712.5621, 102.9006
713.0443, 104.2773
713.5264, 104.9597
714.0085, 105.0419
714.4906, 104.6769
714.9727, 103.8807
715.4548, 102.6406
715.9370, 100.7786
716.4191, 98.54980
716.9012, 96.45316
717.3833, 94.54440
717.8654, 92.63622
718.3475, 90.67342
718.8297, 88.67745
719.3118, 86.59256
719.7939, 84.46844
720.2760, 82.57874
720.7581, 81.27272
721.2402, 80.15437
721.7224, 78.83085
722.2045, 77.33457
722.6866, 75.82743
723.1687, 74.16384
723.6508, 72.70086
724.1329, 71.71194
724.6151, 71.20982
725.0972, 70.57218
725.5793, 69.78498
726.0614, 68.88554
726.5435, 67.72286
727.0256, 66.34548
727.5078, 65.96664
727.9899, 66.66330
728.4720, 67.32753
728.9541, 66.99124
729.4362, 66.04182
729.9183, 65.03692
730.4005, 64.02298
730.8826, 63.35170
731.3647, 63.54215
731.8468, 63.97571
732.3289, 64.13071
732.8110, 63.77067
733.2932, 63.56120
733.7753, 63.70823
734.2574, 63.86752
734.7395, 63.71847
735.2216, 63.19323
735.7037, 62.76080
736.1859, 62.44928
736.6680, 62.23457
737.1501, 62.14544
737.6322, 62.13085
738.1143, 62.03363
738.5964, 61.81976
739.0786, 61.51508
739.5607, 61.05663
740.0428, 60.54626
740.5249, 60.13061
741.0070, 59.98138
741.4891, 59.76167
741.9713, 59.22128
742.4534, 58.65625
742.9355, 58.56386
743.4176, 59.15336
743.8997, 59.52788
744.3818, 59.41967
744.8640, 59.14645
745.3461, 59.52300
745.8282, 60.41519
746.3103, 60.95125
746.7924, 60.68316
747.2745, 60.05360
747.7567, 59.30755
748.2388, 58.55520
748.7209, 58.08176
749.2030, 58.25826
749.6851, 58.44756
750.1672, 58.32613
750.6494, 58.02183
751.1315, 58.08010
751.6136, 58.77228
752.0957, 59.18500
752.5778, 58.86749
753.0599, 58.10133
753.5421, 58.09585
754.0242, 58.80376
754.5063, 59.40174
754.9884, 59.09850
755.4705, 58.61525
755.9526, 59.01130
756.4348, 60.12757
756.9169, 61.07133
757.3990, 61.18184
757.8811, 61.23895
758.3632, 61.76659
758.8453, 62.77711
759.3275, 63.17797
759.8096, 62.53269
760.2917, 62.05813
760.7738, 62.43861
761.2559, 63.56109
761.7380, 64.36787
762.2202, 64.85014
762.7023, 65.16496
763.1844, 65.24411
763.6665, 65.31552
764.1486, 65.75513
764.6307, 66.57463
765.1129, 67.44613
765.5950, 68.35826
766.0771, 69.14675
766.5592, 69.64077
767.0413, 69.73063
767.5234, 70.05450
768.0056, 70.64880
768.4877, 71.42349
768.9698, 72.39668
769.4519, 73.56225
769.9340, 74.42074
770.4161, 74.93102
770.8983, 75.45797
771.3804, 76.41528
771.8625, 77.56686
772.3446, 78.60292
772.8267, 79.48679
773.3088, 80.12022
773.7910, 80.19862
774.2731, 80.17524
774.7552, 80.44622
775.2373, 81.29354
775.7194, 81.71444
776.2015, 81.56855
776.6837, 81.20266
777.1658, 80.95186
777.6479, 80.80544
778.1300, 80.24504
778.6121, 79.15639
779.0942, 78.19595
779.5764, 78.49175
780.0585, 79.16698
780.5406, 78.80335
781.0227, 76.93015
781.5048, 74.88308
781.9869, 72.93523
782.4691, 71.30686
782.9512, 70.27510
783.4332, 70.32429
783.9153, 69.89382
784.3975, 68.79406
784.8796, 67.53535
785.3617, 66.69419
785.8438, 66.24308
786.3259, 65.79021
786.8080, 65.30446
787.2902, 64.70304
787.7723, 63.53218
788.2544, 60.53165
788.7365, 61.11884
789.2186, 61.35405
789.7007, 61.25622
790.1829, 59.82771
790.6650, 60.11748
791.1471, 60.28162
791.6292, 60.55316
792.1113, 60.44200
792.5934, 59.71452
793.0756, 58.91759
793.5577, 58.84019
794.0398, 59.35137
794.5219, 59.61919
795.0040, 59.47472
795.4861, 59.18177
795.9683, 58.85900
796.4504, 58.59397
796.9325, 58.52364
797.4146, 58.87333
797.8967, 59.05008
798.3788, 58.68359
798.8610, 58.20783
799.3431, 58.04426
799.8252, 58.20549
800.3073, 58.69680
800.7894, 59.64426
801.2715, 60.60032
801.7537, 60.82572
802.2358, 60.55074
802.7179, 60.61717
803.2000, 61.26435
803.6821, 62.03813
804.1642, 62.73043
804.6464, 63.28852
805.1285, 63.63453
805.6106, 63.44817
806.0927, 63.57039
806.5748, 64.25311
807.0569, 65.10133
807.5391, 65.62953
808.0212, 65.73473
808.5033, 66.42256
808.9854, 67.93580
809.4675, 69.54580
809.9496, 70.21182
810.4318, 70.31607
810.9139, 70.68969
811.3960, 71.57705
811.8781, 72.55451
812.3602, 73.56098
812.8423, 74.44450
813.3245, 75.02155
813.8066, 75.06606
814.2887, 75.19352
814.7708, 75.55013
815.2529, 75.78352
815.7350, 75.42536
816.2172, 74.50599
816.6993, 73.59966
817.1814, 72.76820
817.6635, 72.05137
818.1456, 71.67436
818.6277, 71.37797
819.1099, 70.77609
819.5920, 69.70110
820.0741, 68.61050
820.5562, 67.56158
821.0383, 66.63371
821.5204, 65.91853
822.0026, 65.61956
822.4847, 64.80255
822.9668, 63.19631
823.4489, 61.06528
823.9310, 61.80795
824.4131, 62.19866
824.8953, 62.25629
825.3774, 60.98333
825.8595, 61.42857
826.3416, 61.18522
826.8237, 60.91365
827.3058, 61.60072
827.7880, 60.52127
828.2701, 61.19314
828.7522, 61.16592
829.2343, 61.45865
829.7164, 61.05856
830.1985, 60.87245
830.6807, 61.37938
831.1628, 61.50258
831.6449, 60.38072
832.1270, 60.65557
832.6091, 61.27494
833.0912, 61.68750
833.5734, 61.82885
834.0555, 61.75216
834.5376, 61.21114
835.0197, 60.66782
835.5018, 60.49603
835.9839, 60.79218
836.4661, 60.75679
836.9482, 60.22448
837.4303, 59.76221
837.9124, 59.84666
838.3945, 60.34594
838.8766, 60.62054
839.3588, 60.66827
839.8409, 60.60173
840.3230, 60.37753
840.8051, 60.16712
841.2872, 60.17952
841.7693, 60.42284
842.2515, 60.52337
842.7336, 60.19942
843.2157, 59.96222
843.6978, 60.04356
844.1799, 60.41061
844.6620, 60.64405
845.1442, 60.74005
845.6263, 60.72601
846.1084, 60.45316
846.5905, 60.16225
847.0726, 60.38432
847.5547, 60.98933
848.0369, 61.36053
848.5190, 61.03331
849.0011, 59.43618
849.4832, 60.19208
849.9653, 60.59600
850.4474, 60.66687
850.9296, 59.40711
851.4117, 59.86558
851.8938, 59.63546
852.3759, 59.37711
852.8580, 60.07740
853.3401, 59.01119
853.8223, 59.69627
854.3044, 59.68227
854.7865, 60.02479
855.2686, 60.16004
855.7507, 60.35742
856.2328, 60.36510
856.7150, 59.84520
857.1971, 59.54988
857.6792, 59.62929
858.1613, 59.95963
858.6434, 60.35516
859.1255, 60.80503
859.6077, 61.07645
860.0898, 61.04894
860.5719, 60.93659
861.0540, 60.98140
861.5361, 61.11298
862.0182, 61.22518
862.5004, 61.45820
862.9825, 61.40863
863.4646, 60.51704
863.9467, 59.56321
864.4288, 59.48557
864.9109, 60.53180
865.3931, 61.16592
865.8752, 61.20217
866.3573, 60.96550
866.8394, 60.80887
867.3215, 60.68284
867.8036, 60.46321
868.2858, 60.10620
868.7679, 59.77570
869.2500, 59.44234
869.7321, 59.24677
870.2142, 59.37012
870.6964, 59.97593
871.1785, 60.30570
871.6606, 60.28576
872.1427, 60.16218
872.6248, 60.10711
873.1069, 60.11367
873.5891, 60.20097
874.0712, 60.36504
874.5533, 60.42065
875.0354, 60.08914
875.5175, 59.70229
875.9996, 59.53952
876.4818, 59.63075
876.9639, 59.68553
877.4460, 59.70758
877.9281, 59.63822
878.4102, 59.37647
878.8923, 58.99217
879.3745, 58.97693
879.8566, 59.31446
880.3387, 59.73410
880.8208, 60.31059
881.3029, 60.71840
881.7850, 60.38902
882.2672, 59.56927
882.7493, 59.10445
883.2314, 59.75420
883.7135, 60.16194
884.1956, 59.83671
884.6777, 59.13678
885.1599, 59.12341
885.6420, 59.85371
886.1241, 60.31441
886.6062, 60.11012
887.0883, 59.70455
887.5704, 59.79731
888.0526, 60.14954
888.5347, 60.30488
889.0168, 59.87135
889.4989, 59.57615
889.9810, 59.78245
890.4631, 60.15953
890.9453, 60.33484
891.4274, 60.25311
891.9095, 60.23134
892.3916, 60.32336
892.8737, 60.37330
893.3558, 59.98487
893.8380, 59.47193
894.3201, 59.65662
894.8022, 60.79827
895.2843, 61.54051
895.7664, 60.54716
896.2485, 59.37521
896.7307, 59.33367
897.2128, 60.70757
897.6949, 61.39583
898.1770, 61.22493
898.6591, 60.92971
899.1412, 61.04686
899.6234, 61.41922
900.1055, 61.48292
900.5876, 61.29518
901.0697, 61.36788
901.5518, 62.41951
902.0339, 63.44818
902.5161, 63.84466
902.9982, 63.62816
903.4803, 63.29529
903.9624, 62.73222
904.4445, 62.33504
904.9266, 62.20358
905.4088, 62.34230
905.8909, 62.97131
906.3730, 63.93256
906.8551, 64.55608
907.3372, 64.44746
907.8193, 64.10098
908.3015, 63.60948
908.7836, 63.16644
909.2657, 63.11979
909.7478, 63.68530
910.2299, 64.34756
910.7120, 65.21880
911.1942, 65.93285
911.6763, 65.80924
912.1584, 65.04776
912.6405, 64.77476
913.1226, 65.22274
913.6047, 65.67171
914.0869, 65.35999
914.5690, 64.90052
915.0511, 64.91416
915.5332, 65.66586
916.0153, 66.12872
916.4974, 66.08942
916.9796, 66.06828
917.4617, 66.46764
917.9438, 67.19460
918.4259, 67.59277
918.9080, 67.67031
919.3901, 67.53565
919.8723, 66.98897
920.3544, 66.48501
920.8365, 66.40829
921.3186, 66.70998
921.8007, 67.05460
922.2828, 67.31115
922.7650, 67.77112
923.2471, 68.63610
923.7292, 69.63094
924.2113, 70.00082
924.6934, 69.81638
925.1755, 69.57280
925.6577, 69.38551
926.1398, 69.29765
926.6219, 69.36560
927.1040, 69.55116
927.5861, 69.79932
928.0682, 69.97525
928.5504, 70.45611
929.0325, 71.47448
929.5146, 72.45174
929.9967, 72.65468
930.4788, 72.20184
930.9609, 72.01575
931.4431, 72.17360
931.9252, 72.55012
932.4073, 73.41641
932.8894, 74.19508
933.3715, 74.19003
933.8536, 73.25706
934.3358, 73.01663
934.8179, 74.02623
935.3000, 74.94752
935.7821, 75.12328
936.2642, 74.79148
936.7463, 74.97410
937.2285, 75.60964
937.7106, 76.25051
938.1927, 76.67920
938.6748, 77.01920
939.1569, 77.26822
939.6390, 77.50798
940.1212, 77.94035
940.6033, 78.87717
941.0854, 79.47110
941.5675, 79.50069
942.0496, 79.35215
942.5317, 79.72186
943.0139, 80.45930
943.4960, 80.73122
943.9781, 80.29817
944.4602, 80.01768
944.9423, 80.62943
945.4244, 81.63881
945.9066, 82.70000
946.3887, 83.89684
946.8708, 84.50709
947.3529, 84.26452
947.8350, 84.05797
948.3171, 84.59354
948.7993, 85.60470
949.2814, 85.87460
949.7635, 85.54314
950.2456, 85.58665
950.7277, 87.07941
951.2098, 88.62833
951.6920, 89.26184
952.1741, 89.26322
952.6562, 89.78713
953.1383, 91.06483
953.6204, 92.29626
954.1025, 93.36858
954.5847, 94.23289
955.0668, 94.66196
955.5489, 94.84018
956.0310, 95.23756
956.5131, 95.95132
956.9952, 96.96098
957.4774, 98.44188
957.9595, 100.0927
958.4416, 101.6697
958.9237, 103.1686
959.4058, 104.5603
959.8879, 105.7956
960.3701, 107.0928
960.8522, 108.6184
961.3343, 110.3332
961.8164, 112.0749
962.2985, 113.8765
962.7806, 115.8852
963.2628, 118.2704
963.7449, 120.7683
964.2270, 123.2463
964.7091, 125.7844
965.1912, 128.6427
965.6733, 131.8534
966.1555, 134.8984
966.6376, 137.3483
967.1197, 140.3643
967.6018, 145.6888
968.0839, 152.5669
968.5660, 159.6916
969.0482, 166.8474
969.5303, 174.1451
970.0124, 181.5036
970.4945, 189.2675
970.9766, 197.7278
971.4587, 206.8093
971.9409, 216.9905
972.4230, 228.2489
972.9051, 240.2328
973.3872, 252.6028
973.8693, 265.6311
974.3514, 279.2821
974.8336, 293.5790
975.3157, 309.1099
975.7978, 325.3453
976.2799, 343.6437
976.7620, 364.4634
977.2441, 387.4164
977.7263, 411.8539
978.2084, 437.8029
978.6905, 464.3656
979.1726, 491.4950
979.6547, 518.6839
980.1368, 545.8885
980.6190, 572.7831
981.1010, 599.2081
981.5831, 626.3196
982.0652, 649.7529
982.5474, 669.1385
983.0295, 685.7719
983.5116, 700.2070
983.9937, 712.6011
984.4758, 722.3768
984.9579, 729.9612
985.4401, 738.0471
985.9222, 746.4323
986.4043, 757.3232
986.8864, 772.2031
987.3685, 790.4146
987.8506, 810.3347
988.3328, 831.5394
988.8149, 856.2853
989.2970, 885.5450
989.7791, 917.3416
990.2612, 950.6902
990.7433, 984.1739
991.2255, 1015.841
991.7076, 1045.456
992.1897, 1071.636
992.6718, 1094.449
993.1539, 1112.934
993.6360, 1126.094
994.1182, 1133.960
994.6003, 1138.495
995.0824, 1139.683
995.5645, 1137.159
996.0466, 1128.232
996.5287, 1117.600
997.0109, 1108.720
997.4930, 1101.592
997.9751, 1095.524
998.4572, 1089.385
998.9393, 1086.034
999.4214, 1085.859
999.9036, 1088.778
1000.386, 1095.335
1000.868, 1104.882
1001.350, 1116.227
1001.832, 1129.832
1002.314, 1140.410
1002.796, 1144.965
1003.278, 1144.677
1003.760, 1140.512
1004.243, 1132.805
1004.725, 1119.321
1005.207, 1099.799
1005.689, 1075.205
1006.171, 1043.873
1006.653, 1009.198
1007.135, 974.5596
1007.617, 940.4262
1008.100, 907.0753
1008.582, 875.7877
1009.064, 844.2127
1009.546, 811.2762
1010.028, 778.6511
1010.510, 748.6537
1010.992, 721.2012
1011.474, 694.3297
1011.956, 667.5198
1012.439, 642.4447
1012.921, 619.6790
1013.403, 599.8326
1013.885, 583.8698
1014.367, 572.0311
1014.849, 561.5927
1015.331, 552.8779
1015.813, 544.5643
1016.296, 536.5891
1016.778, 528.3620
1017.260, 518.3055
1017.742, 506.8492
1018.224, 495.0246
1018.706, 483.5909
1019.188, 471.2189
1019.670, 457.8773
1020.152, 442.9904
1020.635, 425.8589
1021.117, 406.0111
1021.599, 386.3110
1022.081, 366.7140
1022.563, 347.3488
1023.045, 327.6738
1023.527, 308.7357
1024.009, 291.7902
1024.492, 276.7620
1024.974, 262.7857
1025.456, 249.5828
1025.938, 237.7772
1026.420, 227.7259
1026.902, 219.0679
1027.384, 211.6040
1027.866, 205.0648
1028.349, 198.2156
1028.831, 190.6710
1029.313, 183.4682
1029.795, 177.4702
1030.277, 171.8725
1030.759, 165.9553
1031.241, 159.6190
1031.723, 153.7654
1032.205, 148.3998
1032.688, 143.1603
1033.170, 137.5787
1033.652, 132.2121
1034.134, 128.0858
1034.616, 124.8908
1035.098, 121.7587
1035.580, 118.1671
1036.062, 114.9615
1036.544, 112.3526
1037.027, 110.0137
1037.509, 107.5820
1037.991, 105.0751
1038.473, 102.7223
1038.955, 100.5227
1039.437, 98.65160
1039.919, 97.54624
1040.401, 96.53831
1040.884, 95.08426
1041.366, 93.25215
1041.848, 91.67097
1042.330, 90.38810
1042.812, 89.19319
1043.294, 88.00117
1043.776, 86.89177
1044.258, 85.98803
1044.740, 85.20926
1045.223, 84.40708
1045.705, 83.50929
1046.187, 82.66689
1046.669, 81.86315
1047.151, 81.17255
1047.633, 80.69474
1048.115, 80.39624
1048.597, 80.06239
1049.079, 79.68327
1049.562, 79.20637
1050.044, 78.38112
1050.526, 77.66760
1051.008, 77.59180
1051.490, 77.76558
1051.972, 77.29199
1052.454, 75.82292
1052.936, 75.15244
1053.419, 75.61800
1053.901, 76.20810
1054.383, 75.59466
1054.865, 74.54710
1055.347, 74.26456
1055.829, 74.84645
1056.311, 75.04900
1056.793, 74.11002
1057.276, 73.33276
1057.758, 73.13120
1058.240, 73.32432
1058.722, 73.56100
1059.204, 73.77544
1059.686, 73.61131
1060.168, 72.75801
1060.650, 72.06703
1061.132, 72.29423
1061.615, 72.75481
1062.097, 72.80613
1062.579, 72.39132
1063.061, 71.91649
1063.543, 71.34976
1064.025, 71.07948
1064.507, 71.74914
1064.989, 72.56153
1065.471, 72.17719
1065.954, 71.16045
1066.436, 70.92957
1066.918, 72.67883
1067.400, 73.96378
1067.882, 74.58070
1068.364, 74.76357
1068.846, 74.50117
1069.328, 74.05326
1069.811, 74.40705
1070.293, 75.59323
1070.775, 76.50194
1071.257, 76.04009
1071.739, 75.70605
1072.221, 76.24598
1072.703, 77.41207
1073.185, 78.54887
1073.667, 79.63609
1074.150, 80.36739
1074.632, 80.51371
1075.114, 80.77772
1075.596, 81.88702
1076.078, 83.43116
1076.560, 85.04321
1077.042, 86.74409
1077.524, 88.03307
1078.006, 88.72617
1078.489, 89.65189
1078.971, 91.32587
1079.453, 93.43351
1079.935, 95.37556
1080.417, 97.22719
1080.899, 99.17170
1081.381, 101.3579
1081.863, 103.5283
1082.345, 105.6481
1082.828, 107.7435
1083.310, 109.6663
1083.792, 111.5161
1084.274, 114.1582
1084.756, 117.5611
1085.238, 120.8533
1085.720, 123.6586
1086.202, 126.0271
1086.685, 127.8114
1087.167, 129.2063
1087.649, 130.6812
1088.131, 132.2827
1088.613, 133.4475
1089.095, 134.0101
1089.577, 134.5119
1090.059, 135.9184
1090.542, 137.3015
1091.024, 137.5816
1091.506, 136.5730
1091.988, 135.5034
1092.470, 134.5204
1092.952, 133.2957
1093.434, 131.7535
1093.916, 129.8409
1094.398, 127.2006
1094.880, 124.1303
1095.363, 121.4166
1095.845, 119.4409
1096.327, 117.2597
1096.809, 114.4085
1097.291, 111.5714
1097.773, 109.1537
1098.255, 107.1121
1098.737, 105.3104
1099.220, 103.7011
1099.702, 101.9287
1100.184, 99.62996
1100.666, 97.31857
1101.148, 95.15786
1101.630, 93.16787
1102.112, 91.41760
1102.594, 89.93082
1103.077, 88.40233
1103.559, 86.80087
1104.041, 85.22079
1104.523, 83.76768
1105.005, 82.32682
1105.487, 80.59061
1105.969, 78.70139
1106.451, 77.50372
1106.933, 77.40849
1107.416, 76.83887
1107.898, 75.35635
1108.380, 73.76083
1108.862, 73.16689
1109.344, 73.13125
1109.826, 72.98338
1110.308, 72.63586
1110.790, 72.05259
1111.272, 70.97545
1111.755, 70.05049
1112.237, 69.53864
1112.719, 69.26938
1113.201, 68.70329
1113.683, 67.98396
1114.165, 67.59541
1114.647, 67.79158
1115.129, 67.98133
1115.612, 68.07613
1116.094, 67.88455
1116.576, 67.13445
1117.058, 65.89294
1117.540, 65.39462
1118.022, 65.59060
1118.504, 65.87521
1118.986, 65.90172
1119.469, 65.95757
1119.951, 66.36845
1120.433, 66.86405
1120.915, 67.01752
1121.397, 66.69035
1121.879, 66.66322
1122.361, 66.98942
1122.843, 67.24458
1123.325, 66.97158
1123.807, 66.56282
1124.290, 66.34305
1124.772, 66.34000
1125.254, 66.66294
1125.736, 67.61880
1126.218, 68.07235
1126.700, 67.77402
1127.182, 67.33163
1127.664, 67.36926
1128.147, 67.77430
1128.629, 68.45772
1129.111, 69.38274
1129.593, 70.17513
1130.075, 70.67554
1130.557, 71.08559
1131.039, 71.38546
1131.521, 71.70454
1132.004, 72.39009
1132.486, 73.29488
1132.968, 73.94359
1133.450, 74.18110
1133.932, 74.67510
1134.414, 76.15014
1134.896, 77.47957
1135.378, 77.96937
1135.860, 77.93796
1136.343, 78.87623
1136.825, 80.62918
1137.307, 82.16685
1137.789, 83.01252
1138.271, 83.94572
1138.753, 85.47207
1139.235, 87.28678
1139.717, 89.04944
1140.199, 90.76476
1140.682, 92.74448
1141.164, 94.96977
1141.646, 97.28074
1142.128, 99.57153
1142.610, 101.9031
1143.092, 104.1422
1143.574, 106.5108
1144.056, 109.3359
1144.539, 112.6927
1145.021, 116.3621
1145.503, 120.3667
1145.985, 124.3849
1146.467, 128.0395
1146.949, 131.6337
1147.431, 135.4511
1147.913, 139.4696
1148.396, 143.6993
1148.878, 148.1863
1149.360, 152.6914
1149.842, 157.2623
1150.324, 161.7659
1150.806, 166.0096
1151.288, 170.0758
1151.770, 173.9070
1152.252, 177.5992
1152.734, 181.9291
1153.217, 187.3547
1153.699, 192.9543
1154.181, 198.6563
1154.663, 204.2385
1155.145, 209.6599
1155.627, 214.7298
1156.109, 219.1391
1156.591, 222.8493
1157.074, 225.5662
1157.556, 227.6020
1158.038, 228.0062
1158.520, 226.4727
1159.002, 223.1804
1159.484, 218.2924
1159.966, 211.9853
1160.448, 204.6702
1160.931, 196.3139
1161.413, 187.6129
1161.895, 178.6604
1162.377, 169.9204
1162.859, 161.6007
1163.341, 153.7000
1163.823, 146.1834
1164.305, 139.0732
1164.787, 132.4530
1165.270, 126.4169
1165.752, 120.8617
1166.234, 116.0471
1166.716, 111.5264
1167.198, 106.8951
1167.680, 102.1976
1168.162, 98.28639
1168.644, 95.11234
1169.126, 92.55515
1169.609, 90.88013
1170.091, 89.25782
1170.573, 87.17265
1171.055, 84.86214
1171.537, 82.58611
1172.019, 80.31881
1172.501, 78.25373
1172.983, 76.42101
1173.466, 74.76800
1173.948, 73.32176
1174.430, 72.01954
1174.912, 70.98080
1175.394, 69.99401
1175.876, 68.58961
1176.358, 66.60776
1176.840, 65.47161
1177.323, 65.27414
1177.805, 65.18294
1178.287, 64.60498
1178.769, 63.84347
1179.251, 62.99685
1179.733, 62.20341
1180.215, 61.81060
1180.697, 61.94758
1181.179, 61.82699
1181.661, 61.34975
1182.144, 60.85260
1182.626, 60.72273
1183.108, 60.64432
1183.590, 60.28172
1184.072, 59.68235
1184.554, 59.13220
1185.036, 58.63379
1185.518, 58.21545
1186.001, 57.87054
1186.483, 57.63988
1186.965, 57.72534
1187.447, 57.83755
1187.929, 57.57990
1188.411, 56.97862
1188.893, 56.66074
1189.375, 56.77043
1189.858, 56.71986
1190.340, 56.33856
1190.822, 55.89899
1191.304, 55.71577
1191.786, 55.67648
1192.268, 55.65643
1192.750, 55.64200
1193.232, 55.67985
1193.714, 55.86313
1194.197, 55.75287
1194.679, 55.10866
1195.161, 54.40133
1195.643, 54.39384
1196.125, 54.68559
1196.607, 54.71937
1197.089, 54.37040
1197.571, 54.05827
1198.053, 53.81224
1198.536, 53.56641
1199.018, 53.25422
1199.500, 53.00114
1199.982, 53.15518
1200.464, 53.43622
1200.946, 53.34837
1201.428, 52.62526
1201.910, 52.31363
1202.393, 52.51642
1202.875, 52.96928
1203.357, 53.83287
1203.839, 54.47558
1204.321, 53.36604
1204.803, 51.43653
1205.285, 50.31604
1205.767, 50.68551
1206.250, 50.97003
1206.732, 51.10250
1207.214, 51.20947
1207.696, 51.44701
1208.178, 51.61203
1208.660, 51.09642
1209.142, 50.30389
1209.624, 50.02888
1210.106, 50.90364
1210.589, 51.37262
1211.071, 51.35966
1211.553, 51.12474
1212.035, 50.67278
1212.517, 50.23194
1212.999, 50.28011
1213.481, 50.61128
1213.963, 50.78297
1214.445, 50.59534
1214.928, 50.37294
1215.410, 50.08437
1215.892, 49.85670
1216.374, 49.78825
1216.856, 49.83801
1217.338, 49.93695
1217.820, 50.10042
1218.302, 50.37666
1218.785, 50.99758
1219.267, 51.25868
1219.749, 51.04983
1220.231, 50.80112
1220.713, 51.07739
1221.195, 51.38124
1221.677, 50.81376
1222.159, 49.66565
1222.641, 48.81104
1223.124, 48.43767
1223.606, 48.28106
1224.088, 48.35866
1224.570, 48.50902
1225.052, 48.72081
1225.534, 48.82841
1226.016, 48.32208
1226.498, 47.50905
1226.980, 47.55140
1227.463, 49.05078
1227.945, 49.93098
1228.427, 49.98648
1228.909, 49.61347
1229.391, 48.79858
1229.873, 48.04092
1230.355, 48.09930
1230.837, 48.74398
1231.320, 49.05262
1231.802, 48.90569
1232.284, 48.62793
1232.766, 48.21619
1233.248, 47.90817
1233.730, 48.03783
1234.212, 48.30076
1234.694, 48.47028
1235.177, 48.49902
1235.659, 48.21016
1236.141, 47.42725
1236.623, 47.34101
1237.105, 48.18657
1237.587, 49.04285
1238.069, 49.08326
1238.551, 48.74070
1239.033, 48.21058
1239.516, 47.62464
1239.998, 47.39304
1240.480, 47.55537
1240.962, 47.79926
1241.444, 48.10600
1241.926, 48.25340
1242.408, 47.78683
1242.890, 47.33244
1243.372, 47.46235
1243.855, 47.98875
1244.337, 48.38817
1244.819, 48.66415
1245.301, 48.52005
1245.783, 47.88386
1246.265, 47.31022
1246.747, 47.32306
1247.229, 47.46782
1247.712, 47.47467
1248.194, 47.38126
1248.676, 47.21285
1249.158, 46.99180
1249.640, 47.09463
1250.122, 47.59040
1250.604, 48.08156
1251.086, 48.50947
1251.568, 48.60569
1252.051, 48.13492
1252.533, 47.33000
1253.015, 46.55163
1253.497, 45.86901
1253.979, 45.72811
1254.461, 46.21225
1254.943, 46.89745
1255.425, 48.11998
1255.907, 48.74380
1256.390, 48.13647
1256.872, 46.95844
1257.354, 46.49900
1257.836, 46.59239
1258.318, 46.70465
1258.800, 46.75684
1259.282, 46.80346
1259.764, 46.89936
1260.247, 46.92891
1260.729, 46.78513
1261.211, 46.68021
1261.693, 47.16461
1262.175, 47.91883
1262.657, 48.24615
1263.139, 48.04974
1263.621, 47.63978
1264.104, 46.84237
1264.586, 46.31958
1265.068, 46.24737
1265.550, 46.46936
1266.032, 46.95277
1266.514, 47.47757
1266.996, 47.74904
1267.478, 47.72125
1267.960, 47.18595
1268.443, 45.78817
1268.925, 45.07806
1269.407, 45.54298
1269.889, 46.39087
1270.371, 46.82450
1270.853, 46.99259
1271.335, 47.02515
1271.817, 46.94055
1272.299, 46.86651
1272.782, 46.82294
1273.264, 46.61638
1273.746, 46.13535
1274.228, 45.83888
1274.710, 46.43056
1275.192, 47.17839
1275.674, 47.43543
1276.156, 47.27522
1276.639, 47.06503
1277.121, 46.80519
1277.603, 46.73602
1278.085, 46.93190
1278.567, 47.07433
1279.049, 46.68542
1279.531, 46.42516
1280.013, 46.88647
1280.495, 47.67663
1280.978, 47.67726
1281.460, 47.03079
1281.942, 46.63974
1282.424, 46.65800
1282.906, 46.78010
1283.388, 46.96268
1283.870, 47.05413
1284.352, 46.92755
1284.834, 46.77113
1285.317, 47.03337
1285.799, 47.55389
1286.281, 47.93572
1286.763, 48.12724
1287.245, 48.08961
1287.727, 47.50933
1288.209, 47.21386
1288.691, 47.51406
1289.173, 47.88902
1289.656, 47.38473
1290.138, 46.55971
1290.620, 46.42088
1291.102, 47.00817
1291.584, 47.31495
1292.066, 47.13964
1292.548, 46.99879
1293.030, 46.97734
1293.513, 47.05458
1293.995, 47.44480
1294.477, 47.74048
1294.959, 47.25113
1295.441, 46.19641
1295.923, 46.08219
1296.405, 47.04796
1296.887, 47.71621
1297.370, 47.88470
1297.852, 47.72197
1298.334, 46.97997
1298.816, 46.34188
1299.298, 46.46495
1299.780, 46.94732
1300.262, 47.06089
1300.744, 46.83841
1301.226, 46.64901
1301.708, 46.53135
1302.191, 46.45012
1302.673, 46.27505
1303.155, 46.25928
1303.637, 46.42302
1304.119, 46.74430
##END=



