##NAMES=Elpidite
##RRUFFID=R060200
##IDEAL CHEMISTRY=Na_2_Zr^4+^Si_6_O_15_&#183;3H_2_O
##LOCALITY=Poudrette Quarry, Mont Saint-Hilaire, Rouville County, Quebec, Canada
##OWNER=RRUFF
##SOURCE=Royal Ontario Museum
##DESCRIPTION=Tan colored columnar aggregate of elongated prismatic fibers
##STATUS=The identification of this mineral has been confirmed by single-crystal X-ray diffraction.
##URL=rruff.info/R060200
91.82715, 125.0263
92.30927, 126.3941
92.79138, 126.3867
93.27350, 123.8807
93.75562, 120.3092
94.23773, 116.5151
94.71985, 112.7085
95.20197, 108.7955
95.68408, 104.6313
96.16620, 100.5268
96.64832, 96.69685
97.13043, 93.08903
97.61255, 90.03194
98.09467, 88.14841
98.57678, 87.93308
99.05890, 87.25540
99.54102, 85.63334
100.0231, 83.69249
100.5052, 82.01801
100.9874, 80.91374
101.4695, 80.19434
101.9516, 78.99174
102.4337, 75.68507
102.9158, 73.50683
103.3979, 73.39408
103.8801, 74.78596
104.3622, 76.68777
104.8443, 78.40250
105.3264, 79.97803
105.8085, 80.65768
106.2906, 80.58076
106.7728, 79.71837
107.2549, 77.53508
107.7370, 74.14624
108.2191, 70.86385
108.7012, 69.33304
109.1833, 69.68380
109.6655, 69.74018
110.1476, 68.74721
110.6297, 67.41768
111.1118, 66.99049
111.5939, 68.07008
112.0760, 69.34164
112.5582, 69.20241
113.0403, 67.78910
113.5224, 66.47609
114.0045, 66.15266
114.4866, 66.77730
114.9688, 67.55412
115.4509, 68.66513
115.9330, 69.62027
116.4151, 70.05435
116.8972, 69.92259
117.3793, 69.56943
117.8615, 69.46165
118.3436, 69.74665
118.8257, 69.91924
119.3078, 69.82453
119.7899, 69.66599
120.2720, 69.68480
120.7542, 69.96888
121.2363, 70.30992
121.7184, 70.10585
122.2005, 68.07038
122.6826, 66.89366
123.1647, 67.52685
123.6468, 69.00394
124.1290, 69.87565
124.6111, 69.24583
125.0932, 67.35446
125.5753, 66.24858
126.0574, 66.35867
126.5395, 66.60526
127.0217, 66.71500
127.5038, 66.63875
127.9859, 66.19892
128.4680, 65.05709
128.9501, 63.40097
129.4323, 62.31951
129.9144, 62.40563
130.3965, 62.78429
130.8786, 62.40527
131.3607, 61.05482
131.8428, 59.79691
132.3250, 59.67887
132.8071, 60.22446
133.2892, 60.63586
133.7713, 60.47337
134.2534, 59.89869
134.7355, 59.43769
135.2177, 58.99540
135.6998, 58.84361
136.1819, 59.15395
136.6640, 59.82869
137.1461, 60.62756
137.6282, 61.40921
138.1104, 62.18274
138.5925, 62.83373
139.0746, 63.04151
139.5567, 63.39186
140.0388, 64.18615
140.5209, 65.38582
141.0031, 66.73208
141.4852, 67.93786
141.9673, 69.00871
142.4494, 69.89001
142.9315, 70.66225
143.4136, 71.23524
143.8958, 71.47646
144.3779, 71.37673
144.8600, 71.14365
145.3421, 71.13786
145.8242, 71.75018
146.3063, 71.81390
146.7885, 70.36468
147.2706, 68.63311
147.7527, 68.38246
148.2348, 70.41236
148.7169, 73.45335
149.1990, 74.86658
149.6812, 74.48926
150.1633, 73.80294
150.6454, 72.98244
151.1275, 72.20438
151.6096, 72.13282
152.0917, 73.36299
152.5739, 75.10947
153.0560, 76.13847
153.5381, 76.31444
154.0202, 76.18653
154.5023, 76.06979
154.9844, 75.95447
155.4665, 76.05086
155.9487, 76.60775
156.4308, 77.33712
156.9129, 78.07441
157.3950, 78.80839
157.8771, 79.42077
158.3592, 79.60709
158.8414, 79.00047
159.3235, 78.92698
159.8056, 80.41076
160.2877, 82.17454
160.7698, 82.95348
161.2519, 82.14417
161.7341, 80.40723
162.2162, 79.72020
162.6983, 81.13479
163.1804, 82.25477
163.6625, 82.69340
164.1446, 82.67343
164.6268, 82.40587
165.1089, 81.98479
165.5910, 81.48735
166.0731, 81.42079
166.5552, 82.46915
167.0373, 83.20407
167.5195, 83.23385
168.0016, 82.73856
168.4837, 82.05257
168.9658, 81.35339
169.4479, 80.66257
169.9300, 80.31983
170.4122, 80.90230
170.8943, 81.21662
171.3764, 80.71117
171.8585, 79.44753
172.3406, 77.72122
172.8227, 75.50719
173.3049, 72.98666
173.7870, 71.30940
174.2691, 71.01820
174.7512, 71.17451
175.2333, 71.16478
175.7154, 70.97072
176.1976, 70.48851
176.6797, 69.60485
177.1618, 68.35554
177.6439, 66.82053
178.1260, 64.62861
178.6081, 62.29662
179.0903, 60.58511
179.5724, 59.60383
180.0545, 58.96370
180.5366, 58.68475
181.0187, 58.54185
181.5008, 58.14838
181.9830, 57.14501
182.4651, 55.78734
182.9472, 54.93766
183.4293, 55.08022
183.9114, 54.97792
184.3935, 53.71087
184.8757, 51.89735
185.3578, 50.63193
185.8399, 50.82306
186.3220, 52.28852
186.8041, 53.04777
187.2862, 52.28871
187.7684, 51.63389
188.2505, 51.89934
188.7326, 52.64040
189.2147, 52.87112
189.6968, 51.66102
190.1789, 48.91393
190.6611, 47.29241
191.1432, 47.94343
191.6253, 48.59361
192.1074, 48.49659
192.5895, 47.76448
193.0716, 46.84539
193.5538, 46.06752
194.0359, 45.35630
194.5180, 45.48817
195.0001, 47.25269
195.4822, 48.94372
195.9643, 49.71852
196.4465, 49.62441
196.9286, 49.22314
197.4107, 49.01355
197.8928, 49.03225
198.3749, 48.94550
198.8570, 48.68916
199.3392, 48.38814
199.8213, 47.94941
200.3034, 47.42236
200.7855, 47.27881
201.2676, 48.17090
201.7497, 50.15235
202.2319, 51.29353
202.7140, 50.96871
203.1961, 50.09736
203.6782, 49.49531
204.1603, 49.25102
204.6424, 49.10945
205.1246, 48.84286
205.6067, 48.48240
206.0888, 48.17921
206.5709, 47.79802
207.0530, 47.55349
207.5351, 47.81395
208.0173, 48.70335
208.4994, 49.73077
208.9815, 50.53176
209.4636, 51.18367
209.9457, 51.82823
210.4278, 52.87466
210.9100, 53.90916
211.3921, 53.82656
211.8742, 52.05501
212.3563, 50.34883
212.8384, 49.66073
213.3205, 49.74742
213.8027, 50.26534
214.2848, 51.31567
214.7669, 52.65466
215.2490, 53.28559
215.7311, 52.57716
216.2132, 52.14329
216.6954, 53.05499
217.1775, 54.63509
217.6596, 55.69012
218.1417, 55.35646
218.6238, 53.90381
219.1059, 52.90625
219.5881, 52.38285
220.0702, 52.39190
220.5523, 53.47920
221.0344, 55.00650
221.5165, 55.91220
221.9986, 55.35880
222.4808, 53.56766
222.9629, 52.63501
223.4450, 53.65041
223.9271, 54.44128
224.4092, 54.25965
224.8913, 53.57071
225.3735, 53.21056
225.8556, 53.76228
226.3377, 55.13260
226.8198, 56.31043
227.3019, 57.55822
227.7840, 58.31147
228.2662, 57.86068
228.7483, 56.86076
229.2304, 56.55504
229.7125, 57.84338
230.1946, 60.48383
230.6767, 61.77022
231.1589, 60.54461
231.6410, 59.35634
232.1231, 58.67157
232.6052, 58.48061
233.0873, 58.72670
233.5694, 59.42431
234.0516, 60.48602
234.5337, 61.26795
235.0158, 61.25147
235.4979, 61.57781
235.9800, 63.02166
236.4621, 65.07187
236.9443, 66.61412
237.4264, 66.99537
237.9085, 66.43542
238.3906, 65.94431
238.8727, 64.86164
239.3548, 64.53252
239.8370, 66.08966
240.3191, 68.80908
240.8012, 70.83568
241.2833, 71.11418
241.7654, 70.25796
242.2475, 70.12193
242.7297, 70.98337
243.2118, 71.96786
243.6939, 72.86990
244.1760, 73.62753
244.6581, 73.98352
245.1402, 73.67213
245.6224, 73.08846
246.1045, 73.03259
246.5866, 73.61910
247.0687, 74.33092
247.5508, 75.32774
248.0329, 76.33867
248.5151, 76.25126
248.9972, 74.19155
249.4793, 71.44313
249.9614, 69.98672
250.4435, 69.99203
250.9256, 70.01165
251.4078, 69.01696
251.8899, 67.28476
252.3720, 66.03721
252.8541, 65.75253
253.3362, 65.87751
253.8183, 65.90093
254.3005, 65.82783
254.7826, 65.44762
255.2647, 64.42631
255.7468, 62.91172
256.2289, 61.69538
256.7110, 61.13054
257.1931, 60.60700
257.6753, 59.62787
258.1574, 58.24129
258.6395, 56.74931
259.1216, 55.23341
259.6037, 53.73599
260.0858, 52.50927
260.5680, 51.77485
261.0501, 51.05936
261.5322, 50.01788
262.0143, 48.73936
262.4964, 47.49628
262.9785, 46.39590
263.4607, 45.45721
263.9428, 44.79351
264.4249, 44.57848
264.9070, 44.40985
265.3891, 44.19801
265.8712, 43.88383
266.3534, 43.30135
266.8355, 42.06986
267.3176, 40.52036
267.7997, 40.26717
268.2818, 42.67877
268.7639, 44.27185
269.2461, 43.12774
269.7282, 40.62207
270.2103, 38.80127
270.6924, 38.84666
271.1745, 40.18525
271.6566, 40.94490
272.1388, 40.80194
272.6209, 40.58607
273.1030, 40.56376
273.5851, 40.59148
274.0672, 40.48354
274.5493, 40.14365
275.0315, 39.68423
275.5136, 39.38799
275.9957, 39.32628
276.4778, 39.30345
276.9599, 39.42894
277.4420, 39.49779
277.9242, 39.20840
278.4063, 38.46033
278.8884, 37.63270
279.3705, 37.44275
279.8526, 38.11098
280.3347, 38.99817
280.8169, 40.40093
281.2990, 41.72898
281.7811, 42.50716
282.2632, 42.63540
282.7453, 42.39252
283.2274, 42.17763
283.7096, 42.04995
284.1917, 41.79470
284.6738, 41.18906
285.1559, 40.63749
285.6380, 40.33170
286.1201, 40.31905
286.6023, 40.59583
287.0844, 41.30125
287.5665, 42.76013
288.0486, 43.28801
288.5307, 42.27260
289.0128, 40.96135
289.4950, 39.62678
289.9771, 38.44829
290.4592, 37.71431
290.9413, 37.77127
291.4234, 38.70943
291.9055, 39.23301
292.3877, 38.90015
292.8698, 38.60193
293.3519, 38.57593
293.8340, 38.81205
294.3161, 39.31987
294.7982, 40.19812
295.2804, 41.34711
295.7625, 41.41782
296.2446, 38.97575
296.7267, 36.94989
297.2088, 35.85189
297.6909, 35.52713
298.1731, 35.83675
298.6552, 36.74078
299.1373, 37.99276
299.6194, 38.64305
300.1015, 38.04737
300.5836, 37.57931
301.0658, 37.14104
301.5479, 36.96899
302.0300, 37.56154
302.5121, 39.07722
302.9942, 40.81510
303.4763, 41.25658
303.9585, 38.83177
304.4406, 37.45398
304.9227, 38.12061
305.4048, 39.17584
305.8869, 39.19277
306.3690, 37.89322
306.8512, 36.10741
307.3333, 34.96673
307.8154, 34.65571
308.2975, 34.57744
308.7796, 34.97541
309.2617, 35.37031
309.7439, 35.47041
310.2260, 35.26725
310.7081, 34.93480
311.1902, 34.66563
311.6723, 34.50897
312.1544, 34.01266
312.6366, 32.63802
313.1187, 31.49659
313.6008, 31.09734
314.0829, 31.30165
314.5650, 31.68926
315.0471, 31.95409
315.5293, 32.12040
316.0114, 32.51378
316.4935, 33.88323
316.9756, 34.64568
317.4577, 34.11211
317.9398, 32.83337
318.4220, 31.55491
318.9041, 30.64380
319.3862, 30.10641
319.8683, 29.96826
320.3504, 30.59352
320.8326, 31.19772
321.3147, 31.97002
321.7968, 32.59338
322.2789, 32.65619
322.7610, 32.05389
323.2431, 31.16919
323.7253, 30.65412
324.2074, 30.66374
324.6895, 30.77570
325.1716, 30.95835
325.6537, 31.24929
326.1358, 31.77334
326.6180, 32.48600
327.1001, 33.14521
327.5822, 33.48829
328.0643, 33.47134
328.5464, 33.34456
329.0285, 32.99327
329.5107, 32.65705
329.9928, 32.38057
330.4749, 32.19915
330.9570, 32.15456
331.4391, 32.26856
331.9212, 32.54698
332.4034, 33.08244
332.8855, 34.65503
333.3676, 35.63531
333.8497, 35.15983
334.3318, 34.03572
334.8139, 33.51718
335.2961, 34.25410
335.7782, 35.66253
336.2603, 35.97010
336.7424, 34.00319
337.2245, 32.66026
337.7066, 32.29517
338.1888, 32.49900
338.6709, 33.02046
339.1530, 33.75069
339.6351, 34.55890
340.1172, 35.34807
340.5993, 36.45311
341.0815, 36.62712
341.5636, 34.96381
342.0457, 33.25260
342.5278, 32.42033
343.0099, 32.50362
343.4920, 33.07203
343.9742, 33.81369
344.4563, 34.75404
344.9384, 35.39323
345.4205, 35.71825
345.9026, 35.71474
346.3847, 35.00368
346.8669, 33.99218
347.3490, 33.46420
347.8311, 33.99675
348.3132, 35.17822
348.7953, 35.25797
349.2774, 33.06345
349.7596, 31.59577
350.2417, 31.85691
350.7238, 32.79952
351.2059, 33.34124
351.6880, 33.11716
352.1701, 32.64594
352.6523, 32.89814
353.1344, 34.28813
353.6165, 35.12059
354.0986, 34.61684
354.5807, 33.98758
355.0628, 34.04808
355.5450, 34.77736
356.0271, 35.47212
356.5092, 35.40906
356.9913, 34.56247
357.4734, 33.73701
357.9555, 32.66970
358.4377, 31.95536
358.9198, 31.98539
359.4019, 32.52472
359.8840, 33.09029
360.3661, 33.38200
360.8482, 33.51983
361.3304, 33.95083
361.8125, 34.96132
362.2946, 35.61231
362.7767, 35.65969
363.2588, 35.18520
363.7409, 33.98141
364.2231, 31.83554
364.7052, 29.84882
365.1873, 29.72811
365.6694, 31.72245
366.1515, 33.27209
366.6336, 33.61919
367.1158, 33.43831
367.5979, 33.14054
368.0800, 32.76293
368.5621, 32.33601
369.0442, 31.72382
369.5263, 31.03450
370.0085, 30.87844
370.4906, 31.59914
370.9727, 32.31649
371.4548, 32.35804
371.9369, 31.95219
372.4190, 31.58134
372.9012, 31.26341
373.3833, 31.18506
373.8654, 31.90527
374.3475, 33.57556
374.8296, 34.70326
375.3117, 34.18262
375.7939, 32.82733
376.2760, 31.81140
376.7581, 31.23025
377.2402, 31.01022
377.7223, 31.39246
378.2044, 32.17791
378.6866, 32.41637
379.1687, 31.62811
379.6508, 30.56951
380.1329, 30.30084
380.6150, 30.79476
381.0971, 31.07883
381.5793, 30.44749
382.0614, 29.58801
382.5435, 29.62792
383.0256, 30.73439
383.5077, 31.86741
383.9898, 32.17598
384.4720, 31.74967
384.9541, 31.50054
385.4362, 31.53891
385.9183, 31.68415
386.4004, 31.93673
386.8825, 32.22811
387.3647, 32.30266
387.8468, 31.98905
388.3289, 31.46821
388.8110, 31.23832
389.2931, 31.51089
389.7752, 31.56368
390.2574, 31.06085
390.7395, 30.34302
391.2216, 29.73800
391.7037, 29.33225
392.1858, 29.22208
392.6679, 29.59560
393.1501, 30.62407
393.6322, 31.21391
394.1143, 31.37288
394.5964, 31.13517
395.0785, 30.25016
395.5606, 28.94507
396.0428, 27.79963
396.5249, 27.17159
397.0070, 27.01835
397.4891, 27.10799
397.9712, 27.85575
398.4533, 28.34416
398.9355, 28.28481
399.4176, 28.00511
399.8997, 27.89295
400.3818, 28.05755
400.8639, 28.27746
401.3460, 28.21631
401.8282, 27.79479
402.3103, 27.29889
402.7924, 26.13843
403.2745, 25.43141
403.7566, 26.09594
404.2387, 27.77324
404.7209, 29.36457
405.2030, 30.04670
405.6851, 29.90849
406.1672, 29.56178
406.6493, 28.81234
407.1314, 28.13136
407.6136, 27.47720
408.0957, 27.00461
408.5778, 26.91020
409.0599, 27.26685
409.5420, 27.90014
410.0241, 28.76144
410.5063, 30.04359
410.9884, 30.48778
411.4705, 29.19484
411.9526, 27.57395
412.4347, 26.01795
412.9168, 24.73721
413.3990, 24.30282
413.8811, 25.58698
414.3632, 28.08050
414.8453, 29.94670
415.3274, 31.19569
415.8095, 31.77806
416.2917, 30.98282
416.7738, 29.70915
417.2559, 29.24677
417.7380, 30.21241
418.2201, 31.41100
418.7022, 31.51484
419.1844, 30.66333
419.6665, 30.26318
420.1486, 30.99051
420.6307, 31.98684
421.1128, 32.03878
421.5949, 31.15549
422.0771, 30.53287
422.5592, 30.74676
423.0413, 31.40293
423.5234, 32.03751
424.0055, 32.60137
424.4876, 33.04289
424.9698, 33.30346
425.4519, 33.39259
425.9340, 33.44898
426.4161, 33.43975
426.8982, 33.43354
427.3803, 33.52729
427.8625, 33.64088
428.3446, 33.60735
428.8267, 33.36312
429.3088, 32.95109
429.7909, 32.40348
430.2730, 31.47012
430.7552, 31.02608
431.2373, 31.60422
431.7194, 32.27929
432.2015, 32.34672
432.6836, 31.82559
433.1657, 31.10655
433.6479, 30.42179
434.1300, 29.82380
434.6121, 30.04121
435.0942, 32.60182
435.5763, 34.20873
436.0584, 33.56972
436.5406, 32.03087
437.0227, 31.21488
437.5048, 31.66222
437.9869, 32.59524
438.4690, 32.72195
438.9511, 31.63665
439.4333, 31.06606
439.9154, 31.90906
440.3975, 32.48855
440.8796, 31.60959
441.3617, 29.78215
441.8438, 28.47793
442.3260, 28.77430
442.8081, 30.22643
443.2902, 31.46178
443.7723, 32.64489
444.2544, 33.19373
444.7365, 32.19356
445.2187, 30.85549
445.7008, 30.30301
446.1829, 30.77890
446.6650, 31.63045
447.1471, 32.45371
447.6292, 33.21238
448.1114, 33.72681
448.5935, 33.99963
449.0756, 33.95487
449.5577, 33.33693
450.0398, 32.32723
450.5219, 31.44531
451.0041, 30.74974
451.4862, 30.29990
451.9683, 30.15720
452.4504, 30.31524
452.9325, 30.74426
453.4146, 31.44607
453.8968, 32.39449
454.3789, 33.68578
454.8610, 35.63655
455.3431, 36.90521
455.8252, 36.64161
456.3073, 35.84225
456.7895, 35.46704
457.2716, 35.68544
457.7537, 36.41660
458.2358, 37.70670
458.7179, 39.55873
459.2000, 40.77359
459.6822, 40.86025
460.1643, 40.98936
460.6464, 41.58054
461.1285, 42.37993
461.6106, 42.95355
462.0927, 43.15052
462.5748, 43.26568
463.0569, 43.81677
463.5391, 44.99136
464.0212, 46.08905
464.5033, 47.20946
464.9854, 48.16446
465.4675, 48.69002
465.9496, 48.96983
466.4318, 49.46974
466.9139, 50.54696
467.3960, 51.98495
467.8781, 53.14932
468.3602, 54.08483
468.8423, 54.63228
469.3245, 54.21978
469.8066, 53.73177
470.2887, 53.97094
470.7708, 55.03791
471.2529, 56.18510
471.7350, 57.04229
472.2172, 57.53799
472.6993, 57.20226
473.1814, 55.67619
473.6635, 54.25724
474.1456, 54.30718
474.6277, 55.11457
475.1099, 55.05128
475.5920, 53.34123
476.0741, 51.37656
476.5562, 50.23781
477.0383, 49.63802
477.5204, 48.68879
478.0026, 47.09167
478.4847, 45.11992
478.9668, 43.10580
479.4489, 40.99556
479.9310, 39.10575
480.4131, 37.27296
480.8953, 35.82431
481.3774, 35.11015
481.8595, 35.00251
482.3416, 35.13860
482.8237, 35.33979
483.3058, 35.51924
483.7880, 35.38258
484.2701, 34.86743
484.7522, 34.08548
485.2343, 32.61506
485.7164, 31.19149
486.1985, 30.38496
486.6807, 30.23548
487.1628, 30.42471
487.6449, 30.69034
488.1270, 31.03642
488.6091, 31.55571
489.0912, 32.58983
489.5734, 33.23454
490.0555, 33.26750
490.5376, 32.80762
491.0197, 31.72370
491.5018, 29.92117
491.9839, 28.46148
492.4661, 28.76621
492.9482, 30.60996
493.4303, 32.02840
493.9124, 32.84360
494.3945, 33.02454
494.8766, 32.01285
495.3588, 30.30424
495.8409, 29.28096
496.3230, 29.82444
496.8051, 30.65574
497.2872, 30.59824
497.7693, 29.89960
498.2515, 29.47549
498.7336, 29.67471
499.2157, 30.27192
499.6978, 30.94485
500.1799, 31.70520
500.6620, 32.50428
501.1442, 34.01600
501.6263, 35.00643
502.1084, 34.04921
502.5905, 31.72112
503.0726, 29.96538
503.5547, 30.02040
504.0369, 31.33870
504.5190, 32.00079
505.0011, 31.28684
505.4832, 31.05592
505.9653, 31.61004
506.4474, 32.47807
506.9296, 33.43109
507.4117, 34.38107
507.8938, 35.25194
508.3759, 36.06354
508.8580, 36.74176
509.3401, 36.77385
509.8223, 35.91771
510.3044, 34.94080
510.7865, 33.36521
511.2686, 32.20326
511.7507, 32.95753
512.2328, 36.05605
512.7150, 38.76556
513.1971, 38.42995
513.6792, 36.11920
514.1613, 35.07935
514.6434, 35.90025
515.1255, 36.98332
515.6077, 37.07531
516.0898, 36.43595
516.5719, 36.25669
517.0540, 36.71034
517.5361, 37.46668
518.0182, 38.66496
518.5004, 39.99310
518.9825, 40.87015
519.4646, 41.14606
519.9467, 41.17814
520.4288, 41.35933
520.9109, 41.67714
521.3931, 42.25311
521.8752, 43.26784
522.3573, 44.30668
522.8394, 45.31617
523.3215, 46.22681
523.8036, 46.96105
524.2858, 47.48329
524.7679, 47.81031
525.2500, 47.87825
525.7321, 47.57742
526.2142, 47.56293
526.6964, 47.83513
527.1785, 48.46694
527.6606, 49.76667
528.1427, 51.42002
528.6248, 52.72439
529.1069, 53.23989
529.5891, 53.52419
530.0712, 54.56750
530.5533, 56.28399
531.0354, 57.12318
531.5175, 56.40376
531.9996, 55.05140
532.4818, 54.23574
532.9639, 53.90882
533.4460, 53.13147
533.9281, 50.93032
534.4102, 48.86684
534.8923, 48.61120
535.3745, 49.61105
535.8566, 49.87206
536.3387, 48.42136
536.8208, 45.96022
537.3029, 43.92163
537.7850, 42.44598
538.2672, 41.10686
538.7493, 40.08254
539.2314, 39.02878
539.7135, 37.61725
540.1956, 36.00035
540.6777, 34.57797
541.1599, 33.59547
541.6420, 32.93204
542.1241, 32.34121
542.6062, 31.91980
543.0883, 31.24217
543.5704, 29.77851
544.0526, 28.41324
544.5347, 27.88485
545.0168, 28.02938
545.4989, 27.97058
545.9810, 27.10926
546.4631, 25.84776
546.9453, 24.68026
547.4274, 23.61233
547.9095, 23.01852
548.3916, 23.22313
548.8737, 23.77439
549.3558, 23.85165
549.8380, 23.39771
550.3201, 23.00712
550.8022, 23.05691
551.2843, 23.00546
551.7664, 22.17107
552.2485, 20.78362
552.7307, 19.71132
553.2128, 19.45007
553.6949, 19.80334
554.1770, 20.25155
554.6591, 21.05265
555.1412, 21.46829
555.6234, 21.23731
556.1055, 20.88535
556.5876, 20.82371
557.0697, 20.93525
557.5518, 20.74304
558.0339, 19.83243
558.5161, 18.62810
558.9982, 18.17085
559.4803, 18.58235
559.9624, 19.01342
560.4445, 19.18793
560.9266, 19.35430
561.4088, 19.86010
561.8909, 20.65425
562.3730, 21.15158
562.8551, 20.93504
563.3372, 20.45949
563.8193, 20.09252
564.3015, 19.87148
564.7836, 20.00757
565.2657, 20.70032
565.7478, 21.46810
566.2299, 21.35620
566.7120, 19.73085
567.1942, 18.77869
567.6763, 18.83654
568.1584, 19.25321
568.6405, 19.90498
569.1226, 20.59390
569.6047, 20.96800
570.0869, 20.82820
570.5690, 20.42731
571.0511, 20.27008
571.5332, 20.38320
572.0153, 20.65043
572.4974, 21.48469
572.9796, 22.03193
573.4617, 21.57872
573.9438, 20.48462
574.4259, 19.71461
574.9080, 19.78238
575.3901, 20.15164
575.8723, 20.32695
576.3544, 20.29699
576.8365, 19.97260
577.3186, 19.30001
577.8007, 18.39916
578.2828, 17.26045
578.7650, 15.86243
579.2471, 15.08803
579.7292, 14.88305
580.2113, 15.39323
580.6934, 17.44838
581.1755, 20.04246
581.6577, 21.53210
582.1398, 21.37789
582.6219, 20.38060
583.1040, 19.51300
583.5861, 18.73915
584.0682, 18.39812
584.5504, 19.07275
585.0325, 19.47595
585.5146, 18.68335
585.9967, 17.63053
586.4788, 17.68462
586.9609, 19.27585
587.4431, 21.06988
587.9252, 21.98103
588.4073, 22.06662
588.8894, 21.27280
589.3715, 19.31650
589.8536, 17.82946
590.3358, 18.33138
590.8179, 20.06016
591.3000, 20.28118
591.7821, 17.86670
592.2642, 16.00119
592.7463, 16.00563
593.2285, 16.88470
593.7106, 17.70848
594.1927, 18.28296
594.6748, 18.60710
595.1569, 18.62998
595.6390, 18.45000
596.1212, 18.62955
596.6033, 19.61098
597.0854, 20.17243
597.5675, 19.92246
598.0496, 19.45135
598.5317, 19.07755
599.0139, 18.86638
599.4960, 18.85853
599.9781, 19.22915
600.4602, 19.70732
600.9423, 19.79744
601.4244, 19.49802
601.9066, 18.90947
602.3887, 17.92759
602.8708, 16.86010
603.3529, 15.94383
603.8350, 15.11972
604.3171, 15.22896
604.7993, 17.41129
605.2814, 19.58849
605.7635, 20.35837
606.2456, 20.13075
606.7277, 19.88840
607.2098, 20.00824
607.6920, 20.20012
608.1741, 19.96447
608.6562, 19.13663
609.1383, 18.79044
609.6204, 19.46293
610.1025, 20.00803
610.5847, 20.03745
611.0668, 19.74589
611.5489, 19.34370
612.0310, 18.87690
612.5131, 18.52848
612.9952, 18.54352
613.4774, 18.81435
613.9595, 18.94361
614.4416, 18.85787
614.9237, 18.95709
615.4058, 19.67986
615.8879, 20.69825
616.3701, 20.93375
616.8522, 19.99030
617.3343, 19.17425
617.8164, 18.45838
618.2985, 18.18224
618.7806, 19.07854
619.2628, 20.79249
619.7449, 21.98805
620.2270, 21.76589
620.7091, 20.62315
621.1912, 19.95572
621.6733, 19.90466
622.1555, 19.90979
622.6376, 20.01813
623.1197, 20.06181
623.6018, 19.93819
624.0839, 19.67506
624.5660, 19.32484
625.0482, 18.75654
625.5303, 18.35293
626.0124, 18.73652
626.4945, 19.63529
626.9766, 20.04985
627.4587, 19.71224
627.9409, 19.18262
628.4230, 18.94741
628.9051, 19.00711
629.3872, 19.27698
629.8693, 20.04104
630.3514, 20.62072
630.8336, 20.81807
631.3157, 20.79937
631.7978, 20.60043
632.2799, 20.32002
632.7620, 20.30658
633.2441, 20.99766
633.7263, 22.10594
634.2084, 22.43198
634.6905, 21.81297
635.1726, 21.00650
635.6547, 19.70137
636.1368, 18.80854
636.6190, 19.63161
637.1011, 22.00036
637.5832, 23.52176
638.0653, 22.65829
638.5474, 21.35690
639.0295, 21.39436
639.5117, 22.27794
639.9938, 22.55653
640.4759, 21.73450
640.9580, 20.70149
641.4401, 20.73254
641.9222, 22.05963
642.4044, 22.26999
642.8865, 19.88079
643.3686, 18.09920
643.8507, 17.73657
644.3328, 18.23977
644.8149, 19.25938
645.2971, 20.62688
645.7792, 21.71299
646.2613, 21.91927
646.7434, 21.47781
647.2255, 20.67352
647.7076, 19.47341
648.1898, 19.19073
648.6719, 20.76029
649.1540, 23.05039
649.6361, 24.08155
650.1182, 23.61527
650.6003, 23.24602
651.0825, 23.29917
651.5646, 23.27829
652.0467, 22.75889
652.5288, 21.99898
653.0109, 21.43799
653.4930, 21.24368
653.9752, 21.36357
654.4573, 21.94592
654.9394, 23.02233
655.4215, 23.05978
655.9036, 21.24969
656.3857, 19.99471
656.8679, 21.17350
657.3500, 23.11911
657.8321, 23.96087
658.3142, 23.43126
658.7963, 22.65811
659.2784, 21.64338
659.7606, 20.97853
660.2427, 21.82138
660.7248, 23.75028
661.2069, 24.84426
661.6890, 24.14249
662.1711, 22.56600
662.6533, 21.77890
663.1354, 22.04761
663.6175, 22.15648
664.0996, 21.71671
664.5817, 21.54645
665.0638, 22.13141
665.5460, 23.04956
666.0281, 23.79639
666.5102, 24.24209
666.9923, 24.32376
667.4744, 23.62337
667.9565, 22.59211
668.4387, 22.50033
668.9208, 23.42892
669.4029, 24.17072
669.8850, 24.03113
670.3671, 23.43559
670.8492, 23.24883
671.3314, 23.59390
671.8135, 24.05058
672.2956, 25.01826
672.7777, 25.68729
673.2598, 25.29668
673.7419, 24.40384
674.2241, 23.94239
674.7062, 24.26124
675.1883, 25.00957
675.6704, 25.95760
676.1525, 27.04165
676.6346, 27.57266
677.1168, 27.41779
677.5989, 27.08054
678.0810, 26.53338
678.5631, 26.12534
679.0452, 26.67291
679.5273, 28.54068
680.0095, 29.47243
680.4916, 27.85358
680.9737, 26.04221
681.4558, 25.97902
681.9379, 27.15301
682.4200, 28.19512
682.9022, 28.53768
683.3843, 28.46269
683.8664, 28.27745
684.3485, 27.95126
684.8306, 27.99852
685.3127, 28.58136
685.7949, 29.25063
686.2770, 30.09533
686.7591, 30.78132
687.2412, 30.83688
687.7233, 30.18071
688.2054, 29.53870
688.6876, 28.95919
689.1697, 28.74601
689.6518, 29.51277
690.1339, 30.95620
690.6160, 32.11935
691.0981, 32.62355
691.5803, 32.62279
692.0624, 32.23008
692.5445, 31.32424
693.0266, 31.07596
693.5087, 31.85062
693.9908, 32.81292
694.4730, 34.01661
694.9551, 35.12194
695.4372, 35.79362
695.9193, 35.98812
696.4014, 35.90068
696.8835, 35.29300
697.3657, 34.69000
697.8478, 35.00768
698.3299, 36.03588
698.8120, 36.71088
699.2941, 36.65308
699.7762, 36.16406
700.2584, 35.49409
700.7405, 34.55554
701.2226, 34.54897
701.7047, 36.54238
702.1868, 38.16517
702.6689, 38.72359
703.1511, 38.90971
703.6332, 39.47528
704.1153, 40.41842
704.5974, 41.10415
705.0795, 41.11565
705.5616, 40.62976
706.0438, 39.52647
706.5259, 38.01600
707.0080, 37.72636
707.4901, 39.35413
707.9722, 40.98163
708.4543, 40.35261
708.9365, 37.54327
709.4186, 36.55912
709.9007, 39.65443
710.3828, 41.47252
710.8649, 40.24354
711.3470, 38.15040
711.8292, 36.82970
712.3113, 36.41784
712.7934, 36.48235
713.2755, 36.92628
713.7576, 37.40019
714.2397, 37.15331
714.7219, 36.34756
715.2040, 36.32677
715.6861, 37.55227
716.1682, 38.48716
716.6503, 37.56435
717.1324, 35.30579
717.6146, 34.69356
718.0967, 37.81540
718.5788, 39.48694
719.0609, 38.14958
719.5430, 36.20824
720.0251, 35.20292
720.5073, 35.04925
720.9894, 35.09261
721.4715, 35.04507
721.9536, 34.93647
722.4357, 34.87646
722.9178, 34.81237
723.4000, 34.34716
723.8821, 33.36208
724.3642, 32.51892
724.8463, 32.33363
725.3284, 32.45921
725.8105, 31.90918
726.2927, 29.94931
726.7748, 29.17733
727.2569, 30.81333
727.7390, 32.57485
728.2211, 33.31740
728.7032, 33.27519
729.1854, 32.81586
729.6675, 32.10088
730.1496, 31.58410
730.6317, 32.07729
731.1138, 33.17092
731.5959, 33.21488
732.0781, 32.11272
732.5602, 30.94864
733.0423, 30.08881
733.5244, 29.48067
734.0065, 29.06883
734.4886, 28.87862
734.9708, 28.76360
735.4529, 28.80981
735.9350, 28.82781
736.4171, 28.65472
736.8992, 28.47662
737.3813, 28.55858
737.8635, 28.89696
738.3456, 29.20534
738.8277, 29.30080
739.3098, 29.20107
739.7919, 28.86298
740.2740, 28.30871
740.7562, 27.93211
741.2383, 27.89509
741.7204, 27.79607
742.2025, 27.17623
742.6846, 26.11809
743.1667, 25.53187
743.6489, 25.83982
744.1310, 25.99174
744.6131, 25.74125
745.0952, 25.40796
745.5773, 25.00192
746.0594, 24.73193
746.5416, 25.21511
747.0237, 26.93483
747.5058, 28.52864
747.9879, 27.86720
748.4700, 25.64814
748.9521, 24.59110
749.4343, 25.02336
749.9164, 25.59145
750.3985, 25.56963
750.8806, 25.10705
751.3627, 24.51148
751.8448, 23.65821
752.3270, 23.00515
752.8091, 22.15598
753.2912, 21.92694
753.7733, 23.31494
754.2554, 25.19761
754.7375, 26.03975
755.2197, 25.52969
755.7018, 24.68162
756.1839, 24.16918
756.6660, 23.83533
757.1481, 23.43029
757.6302, 22.96453
758.1124, 22.44465
758.5945, 21.83957
759.0766, 21.51435
759.5587, 21.96670
760.0408, 23.16933
760.5229, 23.90512
761.0051, 23.99438
761.4872, 23.86774
761.9693, 23.41275
762.4514, 22.92399
762.9335, 22.50604
763.4156, 22.23058
763.8978, 22.27839
764.3799, 22.84414
764.8620, 23.49900
765.3441, 23.98284
765.8262, 24.28311
766.3083, 24.36921
766.7905, 24.24313
767.2726, 23.87256
767.7547, 23.18761
768.2368, 22.48212
768.7189, 22.56569
769.2010, 23.82921
769.6832, 24.39334
770.1653, 23.77118
770.6474, 23.11462
771.1295, 22.86472
771.6116, 22.88163
772.0938, 23.01831
772.5759, 23.26147
773.0580, 23.58277
773.5401, 24.27225
774.0222, 24.75846
774.5043, 24.26898
774.9865, 23.31092
775.4686, 23.04094
775.9507, 23.69000
776.4328, 24.24571
776.9149, 23.57816
777.3970, 22.09543
777.8792, 21.83799
778.3613, 23.12001
778.8434, 23.88456
779.3255, 23.50158
779.8076, 22.77245
780.2897, 22.24398
780.7719, 21.92452
781.2540, 21.87754
781.7361, 22.43486
782.2182, 22.73287
782.7003, 22.42446
783.1824, 21.89463
783.6646, 21.46142
784.1467, 21.07146
784.6288, 20.43641
785.1109, 19.41921
785.5930, 18.47033
786.0751, 18.13742
786.5573, 18.33461
787.0394, 18.77886
787.5215, 19.46499
788.0036, 20.20909
788.4857, 21.04949
788.9678, 21.61786
789.4500, 21.26056
789.9321, 19.78376
790.4142, 18.92850
790.8963, 18.82595
791.3784, 19.14493
791.8605, 20.51232
792.3427, 21.75757
792.8248, 21.63862
793.3069, 20.34591
793.7890, 19.18948
794.2711, 18.74805
794.7532, 18.75269
795.2354, 19.11397
795.7175, 19.68343
796.1996, 20.26442
796.6817, 20.77595
797.1638, 20.80622
797.6459, 20.04449
798.1281, 18.92097
798.6102, 18.47014
799.0923, 18.91660
799.5744, 19.05116
800.0565, 18.47378
800.5386, 18.21880
801.0208, 19.20709
801.5029, 20.49954
801.9850, 21.02820
802.4671, 20.71995
802.9492, 20.13507
803.4313, 18.83321
803.9135, 17.93503
804.3956, 18.28394
804.8777, 19.39689
805.3598, 20.89750
805.8419, 22.48746
806.3240, 23.36384
806.8062, 22.72616
807.2883, 21.41318
807.7704, 21.45942
808.2525, 22.77569
808.7346, 23.29409
809.2167, 22.56378
809.6989, 21.70837
810.1810, 21.56226
810.6631, 21.74029
811.1452, 21.07159
811.6273, 18.44249
812.1094, 17.57921
812.5916, 20.27520
813.0737, 22.67899
813.5558, 22.99387
814.0379, 22.20553
814.5200, 21.60560
815.0021, 21.42990
815.4843, 21.19344
815.9664, 20.42738
816.4485, 19.58682
816.9306, 19.22264
817.4127, 19.20504
817.8948, 19.16947
818.3770, 19.05122
818.8591, 19.12871
819.3412, 19.67133
819.8233, 20.46646
820.3054, 20.79619
820.7875, 20.54786
821.2697, 20.34516
821.7518, 20.26857
822.2339, 20.18940
822.7160, 19.87275
823.1981, 19.57487
823.6802, 19.85290
824.1624, 20.91131
824.6445, 21.61279
825.1266, 21.52547
825.6087, 21.24610
826.0908, 21.04759
826.5729, 20.88833
827.0551, 20.74090
827.5372, 20.56231
828.0193, 20.15627
828.5014, 19.15880
828.9835, 18.15584
829.4656, 18.47361
829.9478, 19.74697
830.4299, 19.98654
830.9120, 18.80849
831.3941, 17.96166
831.8762, 18.76033
832.3583, 20.52227
832.8404, 21.37061
833.3225, 20.86061
833.8046, 20.71680
834.2867, 21.29695
834.7689, 21.77781
835.2510, 21.97251
835.7331, 21.85452
836.2152, 21.19483
836.6973, 20.00078
837.1794, 19.25828
837.6616, 19.39379
838.1437, 19.95234
838.6258, 21.06511
839.1079, 22.21126
839.5900, 22.59487
840.0721, 22.24359
840.5543, 21.80649
841.0364, 21.66714
841.5185, 21.77404
842.0006, 22.23280
842.4827, 22.92531
842.9648, 23.02975
843.4470, 22.44764
843.9291, 21.51011
844.4112, 20.24095
844.8933, 19.03343
845.3754, 18.58023
845.8575, 18.99582
846.3397, 19.45339
846.8218, 20.23985
847.3039, 20.66779
847.7860, 20.38726
848.2681, 19.88417
848.7502, 19.41327
849.2324, 19.06486
849.7145, 19.06686
850.1966, 19.59307
850.6787, 20.28901
851.1608, 21.27874
851.6429, 22.10472
852.1251, 22.05477
852.6072, 21.36847
853.0893, 20.85126
853.5714, 20.85177
854.0535, 21.11234
854.5356, 21.47953
855.0178, 21.84528
855.4999, 21.50142
855.9820, 20.41803
856.4641, 19.92702
856.9462, 20.52386
857.4283, 21.46180
857.9105, 22.10192
858.3926, 22.42238
858.8747, 22.21509
859.3568, 20.65473
859.8389, 20.01913
860.3210, 21.38747
860.8032, 22.66942
861.2853, 22.68627
861.7674, 21.99885
862.2495, 21.54586
862.7316, 21.48358
863.2137, 21.63839
863.6959, 22.18442
864.1780, 22.67800
864.6601, 22.67401
865.1422, 22.42098
865.6243, 22.34130
866.1064, 22.50513
866.5886, 22.71070
867.0707, 22.80471
867.5528, 22.87011
868.0349, 23.08499
868.5170, 23.41868
868.9991, 23.77417
869.4813, 24.15648
869.9634, 23.98808
870.4455, 22.72997
870.9276, 21.35728
871.4097, 21.82504
871.8918, 24.57566
872.3740, 26.08929
872.8561, 25.70344
873.3382, 25.16438
873.8203, 24.75868
874.3024, 24.50841
874.7845, 24.42313
875.2667, 24.51029
875.7488, 24.80898
876.2309, 25.44012
876.7130, 26.08743
877.1951, 26.91965
877.6772, 27.47900
878.1594, 26.96984
878.6415, 25.96701
879.1236, 25.85847
879.6057, 27.03803
880.0878, 28.16381
880.5699, 27.51239
881.0521, 26.25842
881.5342, 27.06153
882.0163, 29.25705
882.4984, 29.82236
882.9805, 28.11444
883.4626, 26.38145
883.9448, 26.46446
884.4269, 27.63728
884.9090, 27.68926
885.3911, 26.35044
885.8732, 25.43707
886.3553, 25.12619
886.8375, 25.05134
887.3196, 25.20101
887.8017, 25.36753
888.2838, 25.29026
888.7659, 24.98013
889.2480, 24.28459
889.7302, 22.31706
890.2123, 21.13101
890.6944, 21.97376
891.1765, 23.16000
891.6586, 23.28198
892.1407, 22.57127
892.6229, 21.99698
893.1050, 21.91283
893.5871, 21.84585
894.0692, 21.42010
894.5513, 20.89110
895.0334, 20.60722
895.5156, 20.46164
895.9977, 20.16606
896.4798, 19.64143
896.9619, 18.94374
897.4440, 17.97845
897.9261, 17.10200
898.4083, 17.33680
898.8904, 18.58929
899.3725, 19.97083
899.8546, 21.43067
900.3367, 22.14246
900.8188, 21.48370
901.3010, 20.10509
901.7831, 19.24360
902.2652, 18.95489
902.7473, 18.83422
903.2294, 19.04801
903.7115, 19.13562
904.1937, 18.86822
904.6758, 18.52113
905.1579, 18.38440
905.6400, 18.37852
906.1221, 18.13822
906.6042, 17.27743
907.0864, 16.81964
907.5685, 17.23419
908.0506, 17.92059
908.5327, 18.71741
909.0148, 19.40070
909.4969, 19.71082
909.9791, 19.58093
910.4612, 19.08056
910.9433, 17.73960
911.4254, 16.55515
911.9075, 16.88938
912.3896, 18.06224
912.8718, 18.76737
913.3539, 18.84541
913.8360, 18.72335
914.3181, 18.63441
914.8002, 18.55906
915.2823, 18.51022
915.7645, 18.46291
916.2466, 18.20635
916.7287, 17.73098
917.2108, 17.10838
917.6929, 16.24917
918.1750, 15.76598
918.6572, 16.41541
919.1393, 17.91013
919.6214, 18.54301
920.1035, 17.89178
920.5856, 17.40212
921.0677, 17.15523
921.5499, 17.07946
922.0320, 17.30772
922.5141, 17.60188
922.9962, 17.57424
923.4783, 17.18496
923.9604, 17.04853
924.4426, 17.54935
924.9247, 17.92546
925.4068, 17.94175
925.8889, 17.71443
926.3710, 17.20656
926.8531, 16.56584
927.3353, 16.06041
927.8174, 15.74394
928.2995, 15.83113
928.7816, 17.07039
929.2637, 18.28990
929.7458, 17.94378
930.2280, 16.65565
930.7101, 15.69810
931.1922, 15.39096
931.6743, 15.57405
932.1564, 16.16975
932.6385, 17.05122
933.1207, 18.29749
933.6028, 19.66395
934.0849, 19.97967
934.5670, 19.18036
935.0491, 18.02720
935.5313, 16.80280
936.0134, 15.76157
936.4955, 15.25512
936.9776, 15.22832
937.4597, 14.99957
937.9418, 14.28857
938.4240, 14.70090
938.9061, 17.13601
939.3882, 19.36512
939.8703, 19.90079
940.3524, 19.34268
940.8345, 18.94641
941.3167, 18.68031
941.7988, 18.69629
942.2809, 19.13763
942.7630, 19.65903
943.2451, 20.61944
943.7272, 21.26250
944.2094, 20.70155
944.6915, 19.27881
945.1736, 18.17639
945.6557, 17.61526
946.1378, 17.45895
946.6199, 18.10907
947.1021, 18.69300
947.5842, 18.30770
948.0663, 17.59151
948.5484, 17.51912
949.0305, 18.22799
949.5126, 19.22300
949.9948, 20.43870
950.4769, 21.41558
950.9590, 21.68344
951.4411, 21.43361
951.9232, 20.75310
952.4053, 19.85108
952.8875, 19.36301
953.3696, 19.50803
953.8517, 19.73222
954.3338, 19.38542
954.8159, 18.73559
955.2980, 18.55167
955.7802, 18.75624
956.2623, 18.83491
956.7444, 18.69925
957.2265, 18.32913
957.7086, 17.66278
958.1907, 16.98008
958.6729, 16.75258
959.1550, 16.98114
959.6371, 17.90205
960.1192, 19.94746
960.6013, 20.74310
961.0834, 19.09680
961.5656, 17.37763
962.0477, 17.70580
962.5298, 19.41972
963.0119, 20.22025
963.4940, 19.78854
963.9761, 19.24554
964.4583, 18.23826
964.9404, 17.59240
965.4225, 17.50308
965.9046, 17.91221
966.3867, 19.15370
966.8688, 20.97539
967.3510, 21.86687
967.8331, 20.54380
968.3152, 20.17656
968.7973, 22.52695
969.2794, 24.89324
969.7615, 25.40678
970.2437, 25.02227
970.7258, 25.06252
971.2079, 25.76682
971.6900, 26.92022
972.1721, 29.02468
972.6542, 30.72098
973.1364, 30.55738
973.6185, 29.98938
974.1006, 30.67003
974.5827, 32.34798
975.0648, 34.13831
975.5469, 35.72478
976.0291, 37.01355
976.5112, 37.72693
976.9933, 38.28661
977.4754, 39.37095
977.9575, 40.72007
978.4396, 41.63169
978.9218, 42.15350
979.4039, 43.05896
979.8860, 44.74313
980.3681, 46.71775
980.8502, 48.50056
981.3323, 50.00828
981.8145, 50.71008
982.2966, 50.72790
982.7787, 51.10069
983.2608, 52.05235
983.7429, 53.30968
984.2250, 54.71715
984.7072, 56.19111
985.1893, 57.77234
985.6714, 59.49883
986.1535, 59.56399
986.6356, 57.51873
987.1177, 56.51003
987.5999, 57.59217
988.0820, 59.41019
988.5641, 60.98053
989.0462, 62.21981
989.5283, 62.73049
990.0104, 62.03669
990.4926, 62.18296
990.9747, 63.67110
991.4568, 65.05482
991.9389, 66.00520
992.4210, 66.49870
992.9031, 66.29720
993.3853, 65.54660
993.8674, 65.24866
994.3495, 65.80764
994.8316, 66.13319
995.3137, 66.66318
995.7958, 66.41624
996.2780, 64.01881
996.7601, 61.31297
997.2422, 60.65598
997.7243, 61.85192
998.2064, 62.24601
998.6885, 60.80718
999.1707, 59.37194
999.6528, 58.17094
1000.135, 57.34600
1000.617, 57.26124
1001.099, 57.47234
1001.581, 57.31935
1002.063, 56.74273
1002.545, 56.23480
1003.028, 56.03781
1003.510, 55.90210
1003.992, 55.73440
1004.474, 55.52938
1004.956, 55.49294
1005.438, 55.34505
1005.920, 54.47970
1006.402, 52.80336
1006.885, 50.94782
1007.367, 49.25028
1007.849, 47.63964
1008.331, 45.86634
1008.813, 44.26329
1009.295, 43.51220
1009.777, 43.35740
1010.259, 42.86060
1010.741, 41.72590
1011.224, 40.64231
1011.706, 40.41267
1012.188, 40.36871
1012.670, 39.39716
1013.152, 37.84473
1013.634, 36.39205
1014.116, 35.17616
1014.598, 34.25842
1015.081, 33.67184
1015.563, 33.48090
1016.045, 34.04782
1016.527, 34.82732
1017.009, 34.26409
1017.491, 32.64655
1017.973, 31.27819
1018.455, 30.35680
1018.937, 29.62519
1019.420, 28.94212
1019.902, 28.56232
1020.384, 29.09350
1020.866, 30.12889
1021.348, 29.52225
1021.830, 27.33398
1022.312, 25.33522
1022.794, 23.81176
1023.276, 22.43772
1023.759, 20.94323
1024.241, 19.91658
1024.723, 20.53824
1025.205, 22.61489
1025.687, 23.23185
1026.169, 22.22704
1026.651, 21.01465
1027.133, 19.72952
1027.616, 18.83064
1028.098, 18.70198
1028.580, 18.88764
1029.062, 18.55222
1029.544, 17.67640
1030.026, 16.89399
1030.508, 16.06848
1030.990, 15.89357
1031.473, 16.80766
1031.955, 17.65689
1032.437, 17.71101
1032.919, 17.25010
1033.401, 16.75923
1033.883, 16.21620
1034.365, 15.87255
1034.847, 15.70240
1035.329, 15.84521
1035.812, 16.89089
1036.294, 17.36453
1036.776, 15.94004
1037.258, 13.58613
1037.740, 12.13936
1038.222, 11.63913
1038.704, 11.78695
1039.186, 13.28748
1039.668, 14.28699
1040.151, 14.42919
1040.633, 14.06922
1041.115, 12.92556
1041.597, 11.60841
1042.079, 11.39610
1042.561, 12.48287
1043.043, 13.36021
1043.525, 14.16847
1044.008, 14.51664
1044.490, 14.05640
1044.972, 13.40981
1045.454, 12.64416
1045.936, 12.06962
1046.418, 12.41131
1046.900, 13.86101
1047.382, 14.67851
1047.865, 13.98358
1048.347, 13.62366
1048.829, 14.70254
1049.311, 15.54497
1049.793, 14.55115
1050.275, 12.79488
1050.757, 12.26508
1051.239, 13.22368
1051.721, 13.99139
1052.203, 14.23060
1052.686, 14.26255
1053.168, 14.16902
1053.650, 13.89976
1054.132, 13.14728
1054.614, 12.31873
1055.096, 12.17004
1055.578, 12.78519
1056.060, 13.20689
1056.543, 12.99560
1057.025, 12.81771
1057.507, 12.87693
1057.989, 13.04933
1058.471, 13.44832
1058.953, 13.80118
1059.435, 13.54824
1059.917, 12.67836
1060.400, 12.18743
1060.882, 12.79969
1061.364, 13.27999
1061.846, 13.24163
1062.328, 12.86576
1062.810, 11.80920
1063.292, 10.74868
1063.774, 10.92883
1064.256, 12.31780
1064.739, 13.15453
1065.221, 12.11810
1065.703, 11.63316
1066.185, 13.58004
1066.667, 15.51395
1067.149, 15.36024
1067.631, 14.25228
1068.113, 13.99156
1068.595, 14.66372
1069.078, 15.01430
1069.560, 14.36938
1070.042, 13.86305
1070.524, 14.03647
1071.006, 14.48771
1071.488, 15.25307
1071.970, 15.92522
1072.452, 16.06982
1072.935, 15.62760
1073.417, 14.56948
1073.899, 12.47653
1074.381, 11.01097
1074.863, 11.34561
1075.345, 12.14754
1075.827, 12.88001
1076.309, 13.30861
1076.792, 12.91868
1077.274, 12.00458
1077.756, 11.69208
1078.238, 12.44521
1078.720, 13.26784
1079.202, 13.99704
1079.684, 14.30410
1080.166, 13.54626
1080.648, 12.59139
1081.130, 12.48990
1081.613, 13.02830
1082.095, 13.31730
1082.577, 13.09222
1083.059, 12.78675
1083.541, 12.16933
1084.023, 12.03453
1084.505, 13.37553
1084.987, 14.96170
1085.469, 15.58433
1085.952, 15.45226
1086.434, 15.30462
1086.916, 15.31751
1087.398, 15.04655
1087.880, 14.03301
1088.362, 13.04692
1088.844, 12.31371
1089.326, 11.89663
1089.809, 11.81070
1090.291, 12.09302
1090.773, 13.13350
1091.255, 14.88259
1091.737, 15.68072
1092.219, 13.89425
1092.701, 12.50153
1093.183, 12.99465
1093.666, 13.93155
1094.148, 14.53446
1094.630, 14.75664
1095.112, 14.48009
1095.594, 13.80727
1096.076, 13.43709
1096.558, 13.85686
1097.040, 14.02888
1097.522, 13.07878
1098.005, 12.39550
1098.487, 13.20683
1098.969, 14.42971
1099.451, 14.70331
1099.933, 14.15089
1100.415, 13.87038
1100.897, 14.29279
1101.379, 14.39619
1101.861, 13.45591
1102.344, 12.72679
1102.826, 12.95553
1103.308, 13.45395
1103.790, 13.76812
1104.272, 13.78084
1104.754, 13.15763
1105.236, 11.58311
1105.718, 10.79917
1106.201, 12.10081
1106.683, 12.87718
1107.165, 11.69282
1107.647, 10.41771
1108.129, 10.28708
1108.611, 11.02246
1109.093, 12.30939
1109.575, 14.22511
1110.057, 15.05253
1110.540, 13.27428
1111.022, 12.42160
1111.504, 14.04784
1111.986, 15.51199
1112.468, 15.13088
1112.950, 14.07799
1113.432, 14.06487
1113.914, 15.00556
1114.396, 15.23301
1114.879, 14.18363
1115.361, 13.37233
1115.843, 12.43122
1116.325, 12.31460
1116.807, 14.13090
1117.289, 16.09401
1117.771, 16.47291
1118.253, 15.61801
1118.736, 14.84751
1119.218, 14.07526
1119.700, 13.69322
1120.182, 13.90547
1120.664, 14.09396
1121.146, 14.20550
1121.628, 14.05864
1122.110, 13.33991
1122.593, 12.46683
1123.075, 12.34581
1123.557, 13.02295
1124.039, 13.77267
1124.521, 14.82323
1125.003, 15.00019
1125.485, 13.81355
1125.967, 12.71434
1126.449, 12.38628
1126.932, 12.70304
1127.414, 13.61430
1127.896, 14.96977
1128.378, 15.72747
1128.860, 15.82716
1129.342, 15.97702
1129.824, 16.28743
1130.306, 16.04803
1130.788, 14.90353
1131.271, 13.86828
1131.753, 13.97505
1132.235, 14.65841
1132.717, 14.34418
1133.199, 13.13271
1133.681, 12.51217
1134.163, 12.48686
1134.645, 12.19931
1135.128, 11.46380
1135.610, 11.27117
1136.092, 12.30035
1136.574, 13.66169
1137.056, 13.90922
1137.538, 14.63041
1138.020, 15.03281
1138.502, 15.01089
1138.984, 15.34764
1139.467, 14.90175
1139.949, 14.70865
1140.431, 15.16659
1140.913, 15.49850
1141.395, 14.74995
1141.877, 13.86735
1142.359, 14.83855
1142.841, 16.59859
1143.323, 16.79540
1143.806, 15.78956
1144.288, 15.03464
1144.770, 14.89441
1145.252, 15.01764
1145.734, 15.22118
1146.216, 15.49982
1146.698, 15.86026
1147.180, 16.28173
1147.663, 16.64581
1148.145, 17.11067
1148.627, 18.11247
1149.109, 19.45064
1149.591, 20.47733
1150.073, 20.98415
1150.555, 20.91169
1151.037, 19.62591
1151.520, 18.49192
1152.002, 18.53486
1152.484, 19.00055
1152.966, 19.32026
1153.448, 19.46949
1153.930, 19.53846
1154.412, 19.53230
1154.894, 19.33011
1155.376, 18.49702
1155.859, 18.24833
1156.341, 19.43128
1156.823, 20.70831
1157.305, 21.70603
1157.787, 22.22151
1158.269, 21.87333
1158.751, 20.91470
1159.233, 20.21319
1159.715, 19.99726
1160.198, 19.39829
1160.680, 17.92357
1161.162, 16.70949
1161.644, 16.24810
1162.126, 15.68332
1162.608, 14.12578
1163.090, 12.54725
1163.572, 12.63873
1164.055, 14.27295
1164.537, 14.56346
1165.019, 12.84707
1165.501, 11.96107
1165.983, 12.42625
1166.465, 12.51076
1166.947, 11.37810
1167.429, 10.42161
1167.911, 11.02683
1168.394, 10.30387
1168.876, 12.39453
1169.358, 10.95193
1169.840, 11.20267
1170.322, 13.18348
1170.804, 13.86782
1171.286, 12.67296
1171.768, 11.91837
1172.250, 12.85665
1172.733, 14.10950
1173.215, 13.95363
1173.697, 14.05698
1174.179, 12.64775
1174.661, 12.72609
1175.143, 11.80612
1175.625, 10.21575
1176.107, 9.889502
1176.590, 11.21044
1177.072, 12.69547
1177.554, 13.44397
1178.036, 13.65908
1178.518, 13.35362
1179.000, 12.82090
1179.482, 12.37086
1179.964, 12.01283
1180.447, 11.76112
1180.929, 11.58585
1181.411, 11.40283
1181.893, 11.18832
1182.375, 11.02904
1182.857, 11.40525
1183.339, 11.27369
1183.821, 8.942352
1184.303, 6.996671
1184.786, 8.176129
1185.268, 10.63025
1185.750, 11.84378
1186.232, 11.66539
1186.714, 10.86571
1187.196, 8.974456
1187.678, 8.287957
1188.160, 10.55781
1188.642, 12.23209
1189.125, 11.29324
1189.607, 10.42560
1190.089, 12.17575
1190.571, 14.70169
1191.053, 14.61655
1191.535, 11.95535
1192.017, 10.42047
1192.499, 10.19386
1192.982, 10.70115
1193.464, 12.36117
1193.946, 13.17922
1194.428, 12.20285
1194.910, 10.99225
1195.392, 10.89530
1195.874, 11.57969
1196.356, 12.48449
1196.839, 13.53144
1197.321, 13.33898
1197.803, 12.01699
1198.285, 11.18780
1198.767, 11.09218
1199.249, 11.13354
1199.731, 11.04512
1200.213, 11.09631
1200.695, 11.63891
1201.177, 12.29868
1201.660, 12.46739
1202.142, 12.29560
1202.624, 11.99535
1203.106, 11.64082
1203.588, 11.28973
1204.070, 11.00257
1204.552, 11.00945
1205.034, 11.45125
1205.517, 11.73405
1205.999, 11.37246
1206.481, 10.78801
1206.963, 9.896498
1207.445, 9.280051
1207.927, 9.731750
1208.409, 10.74372
1208.891, 11.53105
1209.374, 11.94361
1209.856, 11.81804
1210.338, 10.50981
1210.820, 9.920364
1211.302, 10.92565
1211.784, 11.92667
1212.266, 12.79350
1212.748, 13.00796
1213.230, 11.73401
1213.713, 9.875470
1214.195, 9.263860
1214.677, 9.913390
1215.159, 10.09698
1215.641, 9.550489
1216.123, 9.896722
1216.605, 11.59456
1217.087, 12.29415
1217.569, 10.97304
1218.052, 9.592022
1218.534, 9.877472
1219.016, 11.09192
1219.498, 11.91100
1219.980, 12.33960
1220.462, 12.22376
1220.944, 11.73747
1221.426, 11.76181
1221.909, 12.24403
1222.391, 12.20152
1222.873, 11.31335
1223.355, 10.42033
1223.837, 10.10527
1224.319, 10.21289
1224.801, 10.99740
1225.283, 11.74135
1225.766, 11.24475
1226.248, 10.40081
1226.730, 10.95260
1227.212, 12.42641
1227.694, 12.63438
1228.176, 10.88899
1228.658, 9.656311
1229.140, 9.926784
1229.622, 10.56694
1230.104, 11.91099
1230.587, 12.76524
1231.069, 12.01921
1231.551, 10.78780
1232.033, 10.27417
1232.515, 10.33946
1232.997, 10.46010
1233.479, 10.62811
1233.961, 10.96951
1234.444, 11.69353
1234.926, 11.64697
1235.408, 10.43965
1235.890, 9.351644
1236.372, 8.951564
1236.854, 9.390828
1237.336, 11.08298
1237.818, 13.17690
1238.301, 13.26002
1238.783, 11.91378
1239.265, 11.32481
1239.747, 11.41374
1240.229, 11.51959
1240.711, 11.49549
1241.193, 11.31400
1241.675, 10.97260
1242.157, 10.90264
1242.640, 11.73684
1243.122, 12.59014
1243.604, 12.78335
1244.086, 12.54767
1244.568, 11.71681
1245.050, 10.86067
1245.532, 10.90135
1246.014, 11.67901
1246.496, 12.23151
1246.979, 12.34649
1247.461, 12.33901
1247.943, 12.29628
1248.425, 12.07281
1248.907, 11.23725
1249.389, 10.80837
1249.871, 11.51382
1250.353, 12.48924
1250.836, 12.79495
1251.318, 12.59196
1251.800, 12.42227
1252.282, 12.27510
1252.764, 12.39063
1253.246, 12.77627
1253.728, 12.89078
1254.210, 12.65629
1254.693, 12.71669
1255.175, 13.35666
1255.657, 13.77988
1256.139, 13.10005
1256.621, 12.11387
1257.103, 12.03276
1257.585, 12.44001
1258.067, 12.93889
1258.549, 13.26327
1259.031, 12.73186
1259.514, 11.65848
1259.996, 11.31629
1260.478, 12.07173
1260.960, 12.52117
1261.442, 11.61391
1261.924, 10.95112
1262.406, 11.59479
1262.888, 11.99964
1263.371, 11.05375
1263.853, 9.716599
1264.335, 8.833985
1264.817, 8.358764
1265.299, 8.184605
1265.781, 8.318528
1266.263, 8.540211
1266.745, 8.681925
1267.228, 10.11640
1267.710, 13.28588
1268.192, 15.06021
1268.674, 14.28659
1269.156, 12.79547
1269.638, 11.97105
1270.120, 11.58777
1270.602, 11.28798
1271.084, 11.15432
1271.567, 11.47489
1272.049, 12.05723
1272.531, 12.61158
1273.013, 13.01671
1273.495, 13.06045
1273.977, 12.73520
1274.459, 12.26832
1274.941, 11.61580
1275.423, 11.35449
1275.906, 12.09803
1276.388, 12.84597
1276.870, 13.24194
1277.352, 13.32916
1277.834, 13.14606
1278.316, 12.67150
1278.798, 11.59397
1279.280, 11.82812
1279.763, 10.08229
1280.245, 11.92564
1280.727, 13.00661
1281.209, 13.33981
1281.691, 12.44193
1282.173, 10.05253
1282.655, 8.590692
1283.137, 9.296911
1283.620, 10.97047
1284.102, 12.63322
1284.584, 13.63270
1285.066, 12.99628
##END=



