##NAMES=Emeleusite
##RRUFFID=R061034
##IDEAL CHEMISTRY=Na_2_LiFe^3+^Si_6_O_15_
##LOCALITY=Igdlutalig, Ilimaussaq, Greenland
##OWNER=RRUFF
##SOURCE=Michael Scott
##DESCRIPTION=Light pink massive associated with albite and aegirine, co-type specimen
##STATUS=The identification of this mineral has been confirmed by X-ray diffraction and chemical analysis
##URL=rruff.info/R061034
##MEASURED CHEMISTRY=(Na_1.57_K_0.43_)_Σ=2_Li_1.00_(Fe^3+^_0.77_Al_0.18_Ti_0.02_Mg_0.02_)_Σ=1_Si_6.00_O_15_; (lighter areas) Li estimated by difference; dark: albite
145.1515, 3953.652
145.6336, 4103.398
146.1157, 4256.511
146.5979, 4413.498
147.0800, 4567.692
147.5621, 4711.632
148.0442, 4849.642
148.5263, 4966.880
149.0084, 5068.734
149.4906, 5150.287
149.9727, 5206.351
150.4548, 5236.482
150.9369, 5245.956
151.4190, 5241.271
151.9011, 5213.459
152.3833, 5187.178
152.8654, 5161.207
153.3475, 5137.667
153.8296, 5118.420
154.3117, 5103.987
154.7938, 5093.630
155.2760, 5086.059
155.7581, 5079.994
156.2402, 5079.402
156.7223, 5081.887
157.2044, 5090.375
157.6865, 5106.506
158.1687, 5130.917
158.6508, 5165.006
159.1329, 5211.350
159.6150, 5281.115
160.0971, 5350.326
160.5792, 5420.882
161.0614, 5489.855
161.5435, 5554.102
162.0256, 5612.131
162.5077, 5664.691
162.9898, 5713.280
163.4719, 5751.118
163.9541, 5792.523
164.4362, 5838.473
164.9183, 5887.842
165.4004, 5940.450
165.8825, 5996.713
166.3646, 6053.322
166.8468, 6102.351
167.3289, 6140.072
167.8110, 6174.851
168.2931, 6203.318
168.7752, 6230.342
169.2573, 6266.016
169.7395, 6316.037
170.2216, 6369.693
170.7037, 6396.469
171.1858, 6373.343
171.6679, 6356.292
172.1500, 6358.673
172.6322, 6371.066
173.1143, 6379.328
173.5964, 6377.284
174.0785, 6368.214
174.5606, 6360.632
175.0427, 6347.896
175.5249, 6345.118
176.0070, 6362.732
176.4891, 6391.212
176.9712, 6414.724
177.4533, 6426.004
177.9354, 6429.196
178.4176, 6435.265
178.8997, 6439.025
179.3818, 6451.884
179.8639, 6484.351
180.3460, 6527.102
180.8281, 6561.329
181.3103, 6577.388
181.7924, 6583.844
182.2745, 6606.223
182.7566, 6657.102
183.2387, 6699.624
183.7208, 6714.742
184.2030, 6714.622
184.6851, 6722.873
185.1672, 6749.904
185.6493, 6789.004
186.1314, 6824.457
186.6135, 6858.143
187.0957, 6885.912
187.5778, 6903.848
188.0599, 6915.077
188.5420, 6927.221
189.0241, 6944.720
189.5062, 6961.957
189.9884, 6963.518
190.4705, 6943.352
190.9526, 6924.593
191.4347, 6912.160
191.9168, 6906.329
192.3989, 6908.728
192.8811, 6921.410
193.3632, 6939.926
193.8453, 6954.367
194.3274, 6962.506
194.8095, 6973.152
195.2916, 6992.511
195.7738, 7016.083
196.2559, 7035.239
196.7380, 7047.031
197.2201, 7053.034
197.7022, 7053.360
198.1843, 7042.372
198.6665, 7042.010
199.1486, 7067.390
199.6307, 7106.687
200.1128, 7137.680
200.5949, 7151.540
201.0770, 7157.995
201.5592, 7174.861
202.0413, 7203.247
202.5234, 7233.066
203.0055, 7261.666
203.4876, 7289.790
203.9697, 7320.379
204.4519, 7355.676
204.9340, 7389.332
205.4161, 7406.902
205.8982, 7404.063
206.3803, 7409.213
206.8624, 7442.005
207.3446, 7483.894
207.8267, 7502.801
208.3088, 7487.748
208.7909, 7460.570
209.2730, 7453.390
209.7551, 7468.448
210.2373, 7483.317
210.7194, 7503.259
211.2015, 7517.154
211.6836, 7501.902
212.1657, 7449.085
212.6478, 7392.586
213.1300, 7381.237
213.6121, 7421.202
214.0942, 7451.171
214.5763, 7448.702
215.0584, 7437.391
215.5405, 7447.034
216.0227, 7483.697
216.5048, 7527.865
216.9869, 7558.433
217.4690, 7574.234
217.9511, 7587.033
218.4332, 7594.473
218.9154, 7601.428
219.3975, 7613.670
219.8796, 7631.929
220.3617, 7650.868
220.8438, 7664.392
221.3259, 7671.711
221.8081, 7684.422
222.2902, 7709.993
222.7723, 7736.318
223.2544, 7754.054
223.7365, 7762.414
224.2186, 7764.488
224.7008, 7760.465
225.1829, 7750.079
225.6650, 7749.301
226.1471, 7763.761
226.6292, 7782.948
227.1113, 7802.529
227.5935, 7821.269
228.0756, 7835.262
228.5577, 7839.684
229.0398, 7835.314
229.5219, 7840.154
230.0040, 7859.035
230.4862, 7881.596
230.9683, 7904.555
231.4504, 7927.084
231.9325, 7946.987
232.4146, 7962.093
232.8967, 7973.430
233.3789, 7990.737
233.8610, 8027.798
234.3431, 8055.291
234.8252, 8051.063
235.3073, 8028.799
235.7894, 8022.421
236.2716, 8053.159
236.7537, 8109.410
237.2358, 8139.563
237.7179, 8116.061
238.2000, 8102.784
238.6821, 8122.048
239.1643, 8159.014
239.6464, 8190.751
240.1285, 8207.221
240.6106, 8211.863
241.0927, 8213.530
241.5748, 8194.922
242.0570, 8195.247
242.5391, 8239.080
243.0212, 8295.296
243.5033, 8323.717
243.9854, 8310.672
244.4675, 8278.926
244.9497, 8271.007
245.4318, 8308.722
245.9139, 8338.710
246.3960, 8352.996
246.8781, 8364.110
247.3602, 8384.605
247.8424, 8416.568
248.3245, 8450.877
248.8066, 8474.688
249.2887, 8482.259
249.7708, 8491.814
250.2529, 8500.947
250.7351, 8513.223
251.2172, 8530.775
251.6993, 8553.679
252.1814, 8581.277
252.6635, 8614.146
253.1456, 8655.396
253.6278, 8685.452
254.1099, 8694.900
254.5920, 8703.021
255.0741, 8716.967
255.5562, 8737.086
256.0384, 8761.726
256.5205, 8790.999
257.0026, 8825.165
257.4847, 8849.186
257.9668, 8852.242
258.4489, 8855.591
258.9311, 8863.488
259.4132, 8875.784
259.8953, 8890.560
260.3774, 8905.934
260.8595, 8923.460
261.3416, 8953.226
261.8238, 9014.791
262.3059, 9062.200
262.7880, 9078.250
263.2701, 9078.015
263.7522, 9079.222
264.2343, 9089.781
264.7165, 9107.429
265.1986, 9127.686
265.6807, 9153.837
266.1628, 9175.725
266.6449, 9184.120
267.1270, 9191.815
267.6092, 9213.480
268.0913, 9253.833
268.5734, 9296.108
269.0555, 9312.853
269.5376, 9296.407
270.0197, 9289.530
270.5019, 9310.396
270.9840, 9336.940
271.4661, 9356.906
271.9482, 9368.592
272.4303, 9377.722
272.9124, 9392.105
273.3946, 9411.427
273.8767, 9419.047
274.3588, 9406.781
274.8409, 9388.343
275.3230, 9362.298
275.8051, 9333.921
276.2873, 9328.874
276.7694, 9381.669
277.2515, 9472.143
277.7336, 9528.170
278.2157, 9532.886
278.6978, 9530.287
279.1800, 9552.721
279.6621, 9591.539
280.1442, 9627.083
280.6263, 9641.245
281.1084, 9653.019
281.5905, 9695.132
282.0727, 9771.703
282.5548, 9849.204
283.0369, 9910.147
283.5190, 9957.658
284.0011, 9997.543
284.4832, 10022.72
284.9654, 10049.19
285.4475, 10092.56
285.9296, 10150.30
286.4117, 10205.37
286.8938, 10250.15
287.3759, 10287.28
287.8581, 10324.56
288.3402, 10368.82
288.8223, 10400.34
289.3044, 10401.32
289.7865, 10384.70
290.2686, 10378.74
290.7508, 10394.29
291.2329, 10415.92
291.7150, 10417.89
292.1971, 10396.08
292.6792, 10370.44
293.1613, 10343.27
293.6435, 10313.51
294.1256, 10275.66
294.6077, 10229.86
295.0898, 10189.04
295.5719, 10166.92
296.0540, 10166.35
296.5362, 10174.58
297.0183, 10197.46
297.5004, 10222.89
297.9825, 10247.89
298.4646, 10269.92
298.9467, 10282.23
299.4289, 10277.29
299.9110, 10256.88
300.3931, 10258.99
300.8752, 10307.42
301.3573, 10350.97
301.8394, 10372.29
302.3216, 10382.56
302.8037, 10402.62
303.2858, 10443.63
303.7679, 10493.52
304.2500, 10516.66
304.7321, 10490.22
305.2143, 10472.55
305.6964, 10468.54
306.1785, 10474.92
306.6606, 10493.21
307.1427, 10522.43
307.6248, 10551.72
308.1070, 10562.92
308.5891, 10548.66
309.0712, 10546.08
309.5533, 10572.24
310.0354, 10598.89
310.5175, 10611.81
310.9997, 10611.88
311.4818, 10609.54
311.9639, 10611.81
312.4460, 10618.60
312.9281, 10630.08
313.4102, 10652.67
313.8924, 10669.89
314.3745, 10667.27
314.8566, 10654.89
315.3387, 10652.88
315.8208, 10678.02
316.3029, 10711.91
316.7851, 10716.79
317.2672, 10685.60
317.7493, 10670.39
318.2314, 10711.64
318.7135, 10776.72
319.1956, 10817.61
319.6778, 10820.52
320.1599, 10818.03
320.6420, 10836.78
321.1241, 10871.44
321.6062, 10895.79
322.0883, 10896.29
322.5705, 10891.76
323.0526, 10913.03
323.5347, 10961.79
324.0168, 11011.86
324.4989, 11060.83
324.9810, 11104.64
325.4632, 11136.91
325.9453, 11156.68
326.4274, 11169.13
326.9095, 11176.22
327.3916, 11176.63
327.8737, 11192.87
328.3559, 11245.64
328.8380, 11295.20
329.3201, 11316.00
329.8022, 11313.34
330.2843, 11307.32
330.7664, 11310.45
331.2486, 11320.79
331.7307, 11326.94
332.2128, 11322.32
332.6949, 11321.65
333.1770, 11326.76
333.6591, 11337.07
334.1413, 11354.66
334.6234, 11379.86
335.1055, 11405.23
335.5876, 11414.52
336.0697, 11389.52
336.5518, 11390.79
337.0340, 11441.75
337.5161, 11498.33
337.9982, 11538.10
338.4803, 11558.39
338.9624, 11565.83
339.4445, 11562.14
339.9267, 11547.83
340.4088, 11543.41
340.8909, 11555.66
341.3730, 11569.02
341.8551, 11569.16
342.3372, 11566.77
342.8194, 11583.43
343.3015, 11638.10
343.7836, 11704.25
344.2657, 11730.17
344.7478, 11707.63
345.2299, 11694.15
345.7121, 11717.65
346.1942, 11758.48
346.6763, 11794.86
347.1584, 11824.97
347.6405, 11850.67
348.1227, 11874.47
348.6048, 11895.05
349.0869, 11906.54
349.5690, 11904.94
350.0511, 11901.11
350.5332, 11907.25
351.0154, 11922.81
351.4975, 11944.57
351.9796, 11980.57
352.4617, 12016.99
352.9438, 12039.75
353.4259, 12049.05
353.9081, 12054.74
354.3902, 12063.37
354.8723, 12074.67
355.3544, 12085.39
355.8365, 12096.05
356.3186, 12105.74
356.8008, 12116.97
357.2829, 12126.42
357.7650, 12126.77
358.2471, 12115.07
358.7292, 12100.07
359.2113, 12099.69
359.6935, 12126.95
360.1756, 12145.44
360.6577, 12147.07
361.1398, 12147.59
361.6219, 12156.51
362.1040, 12174.63
362.5862, 12198.21
363.0683, 12227.20
363.5504, 12261.28
364.0325, 12277.82
364.5146, 12257.64
364.9967, 12245.69
365.4789, 12263.59
365.9610, 12298.06
366.4431, 12326.66
366.9252, 12336.67
367.4073, 12344.03
367.8894, 12378.50
368.3716, 12443.37
368.8537, 12498.92
369.3358, 12529.67
369.8179, 12546.32
370.3000, 12557.97
370.7821, 12563.52
371.2643, 12576.71
371.7464, 12612.31
372.2285, 12659.42
372.7106, 12695.34
373.1927, 12716.00
373.6748, 12729.39
374.1570, 12741.63
374.6391, 12752.63
375.1212, 12762.48
375.6033, 12765.76
376.0854, 12772.72
376.5675, 12794.52
377.0497, 12825.89
377.5318, 12850.69
378.0139, 12860.25
378.4960, 12858.87
378.9781, 12859.47
379.4602, 12866.33
379.9424, 12869.76
380.4245, 12863.09
380.9066, 12856.88
381.3887, 12861.00
381.8708, 12876.88
382.3529, 12899.14
382.8351, 12925.93
383.3172, 12960.85
383.7993, 12969.88
384.2814, 12915.00
384.7635, 12872.94
385.2456, 12874.47
385.7278, 12906.01
386.2099, 12940.68
386.6920, 12965.00
387.1741, 12985.34
387.6562, 13017.14
388.1383, 13064.36
388.6205, 13103.30
389.1026, 13118.03
389.5847, 13126.29
390.0668, 13146.55
390.5489, 13181.27
391.0310, 13214.51
391.5132, 13233.76
391.9953, 13244.65
392.4774, 13258.79
392.9595, 13277.31
393.4416, 13302.57
393.9237, 13340.64
394.4059, 13390.14
394.8880, 13428.50
395.3701, 13444.11
395.8522, 13458.01
396.3343, 13481.02
396.8164, 13511.95
397.2986, 13549.10
397.7807, 13593.08
398.2628, 13636.98
398.7449, 13664.14
399.2270, 13660.96
399.7091, 13659.52
400.1913, 13662.67
400.6734, 13665.41
401.1555, 13660.36
401.6376, 13649.37
402.1197, 13644.03
402.6018, 13656.55
403.0840, 13686.59
403.5661, 13712.35
404.0482, 13733.07
404.5303, 13750.76
405.0124, 13761.83
405.4945, 13772.32
405.9767, 13793.01
406.4588, 13831.03
406.9409, 13867.96
407.4230, 13872.94
407.9051, 13846.55
408.3872, 13839.61
408.8694, 13876.76
409.3515, 13922.08
409.8336, 13931.20
410.3157, 13906.46
410.7978, 13897.97
411.2799, 13930.46
411.7621, 13983.50
412.2442, 14035.63
412.7263, 14085.07
413.2084, 14135.50
413.6905, 14191.09
414.1726, 14249.02
414.6548, 14295.47
415.1369, 14323.86
415.6190, 14350.62
416.1011, 14380.27
416.5832, 14409.41
417.0653, 14434.08
417.5475, 14453.24
418.0296, 14468.20
418.5117, 14481.24
418.9938, 14493.68
419.4759, 14497.88
419.9580, 14470.26
420.4402, 14458.39
420.9223, 14483.52
421.4044, 14535.90
421.8865, 14597.69
422.3686, 14662.72
422.8507, 14725.79
423.3329, 14775.38
423.8150, 14809.95
424.2971, 14840.70
424.7792, 14862.36
425.2613, 14888.18
425.7434, 14930.96
426.2256, 14991.02
426.7077, 15058.03
427.1898, 15137.11
427.6719, 15215.58
428.1540, 15268.35
428.6361, 15292.85
429.1183, 15317.87
429.6004, 15363.15
430.0825, 15426.68
430.5646, 15493.15
431.0467, 15582.18
431.5288, 15650.85
432.0110, 15675.86
432.4931, 15677.06
432.9752, 15683.00
433.4573, 15701.43
433.9394, 15716.59
434.4215, 15706.33
434.9037, 15664.83
435.3858, 15621.98
435.8679, 15551.59
436.3500, 15506.20
436.8321, 15526.04
437.3142, 15583.02
437.7964, 15622.10
438.2785, 15613.76
438.7606, 15577.48
439.2427, 15542.24
439.7248, 15504.83
440.2069, 15492.01
440.6891, 15525.95
441.1712, 15574.85
441.6533, 15609.16
442.1354, 15628.48
442.6175, 15638.66
443.0996, 15623.20
443.5818, 15609.10
444.0639, 15643.42
444.5460, 15725.93
445.0281, 15803.48
445.5102, 15841.59
445.9923, 15846.97
446.4745, 15852.26
446.9566, 15854.81
447.4387, 15860.63
447.9208, 15871.74
448.4029, 15886.31
448.8850, 15902.59
449.3672, 15920.25
449.8493, 15940.42
450.3314, 15965.63
450.8135, 15997.01
451.2956, 16020.46
451.7777, 16025.60
452.2599, 16035.83
452.7420, 16065.79
453.2241, 16102.83
453.7062, 16127.24
454.1884, 16130.04
454.6705, 16127.06
455.1526, 16142.07
455.6347, 16172.66
456.1168, 16183.16
456.5989, 16155.58
457.0811, 16123.76
457.5632, 16127.59
458.0453, 16161.08
458.5274, 16186.79
459.0095, 16194.12
459.4916, 16193.41
459.9738, 16183.37
460.4559, 16170.69
460.9380, 16178.94
461.4201, 16222.02
461.9022, 16280.99
462.3843, 16312.23
462.8665, 16280.11
463.3486, 16283.45
463.8307, 16356.67
464.3128, 16434.41
464.7949, 16471.65
465.2770, 16473.75
465.7592, 16473.68
466.2413, 16494.66
466.7234, 16531.21
467.2055, 16562.41
467.6876, 16582.94
468.1697, 16614.07
468.6519, 16678.19
469.1340, 16746.75
469.6161, 16788.63
470.0982, 16799.03
470.5803, 16819.21
471.0624, 16876.29
471.5446, 16956.74
472.0267, 17042.33
472.5088, 17131.41
472.9909, 17208.47
473.4730, 17256.40
473.9551, 17283.77
474.4373, 17346.25
474.9194, 17490.94
475.4015, 17604.92
475.8836, 17644.77
476.3657, 17654.66
476.8478, 17679.73
477.3300, 17730.16
477.8121, 17794.43
478.2942, 17870.52
478.7763, 17960.27
479.2584, 17980.23
479.7405, 17887.63
480.2227, 17784.15
480.7048, 17700.55
481.1869, 17627.80
481.6690, 17553.04
482.1511, 17470.44
482.6332, 17397.20
483.1154, 17354.20
483.5975, 17334.93
484.0796, 17314.19
484.5617, 17286.99
485.0438, 17260.43
485.5259, 17235.70
486.0081, 17215.14
486.4902, 17219.08
486.9723, 17268.11
487.4544, 17319.60
487.9365, 17365.01
488.4186, 17397.78
488.9008, 17399.06
489.3829, 17364.43
489.8650, 17326.81
490.3471, 17336.42
490.8292, 17406.46
491.3113, 17457.57
491.7935, 17473.20
492.2756, 17486.23
492.7577, 17507.33
493.2398, 17533.19
493.7219, 17557.95
494.2040, 17579.71
494.6862, 17598.51
495.1683, 17607.19
495.6504, 17608.96
496.1325, 17636.00
496.6146, 17703.51
497.0967, 17778.49
497.5789, 17820.29
498.0610, 17832.95
498.5431, 17872.46
499.0252, 17969.43
499.5073, 18069.62
499.9894, 18136.52
500.4716, 18184.77
500.9537, 18247.13
501.4358, 18336.06
501.9179, 18434.55
502.4000, 18512.68
502.8821, 18555.54
503.3643, 18629.40
503.8464, 18773.74
504.3285, 18910.10
504.8106, 19008.35
505.2927, 19078.51
505.7748, 19144.78
506.2570, 19218.86
506.7391, 19287.44
507.2212, 19337.16
507.7033, 19367.69
508.1854, 19371.13
508.6675, 19345.24
509.1497, 19292.73
509.6318, 19206.13
510.1139, 19086.97
510.5960, 18981.68
511.0781, 18884.47
511.5602, 18811.71
512.0424, 18789.76
512.5245, 18795.41
513.0066, 18784.23
513.4887, 18739.62
513.9708, 18680.34
514.4529, 18634.31
514.9351, 18603.41
515.4172, 18577.66
515.8993, 18547.14
516.3814, 18533.08
516.8635, 18557.93
517.3456, 18601.30
517.8278, 18627.76
518.3099, 18622.15
518.7920, 18602.07
519.2741, 18577.43
519.7562, 18552.30
520.2383, 18551.46
520.7205, 18585.35
521.2026, 18624.65
521.6847, 18639.28
522.1668, 18628.85
522.6489, 18631.69
523.1310, 18663.33
523.6132, 18690.98
524.0953, 18697.33
524.5774, 18693.11
525.0595, 18693.71
525.5416, 18703.99
526.0237, 18719.48
526.5059, 18734.76
526.9880, 18749.79
527.4701, 18767.79
527.9522, 18792.83
528.4343, 18815.56
528.9164, 18831.04
529.3986, 18842.98
529.8807, 18857.41
530.3628, 18877.44
530.8449, 18893.67
531.3270, 18889.63
531.8091, 18878.22
532.2913, 18891.56
532.7734, 18934.91
533.2555, 18984.68
533.7376, 19022.03
534.2197, 19048.47
534.7018, 19080.23
535.1840, 19123.89
535.6661, 19163.32
536.1482, 19192.86
536.6303, 19218.38
537.1124, 19247.77
537.5945, 19280.51
538.0767, 19306.42
538.5588, 19313.14
539.0409, 19305.46
539.5230, 19310.06
540.0051, 19331.63
540.4872, 19349.12
540.9694, 19344.91
541.4515, 19338.79
541.9336, 19356.52
542.4157, 19401.37
542.8978, 19453.50
543.3799, 19525.82
543.8621, 19589.01
544.3442, 19601.18
544.8263, 19570.62
545.3084, 19544.27
545.7905, 19549.07
546.2726, 19575.68
546.7548, 19600.13
547.2369, 19631.59
547.7190, 19641.95
548.2011, 19599.45
548.6832, 19565.09
549.1653, 19581.94
549.6475, 19636.26
550.1296, 19682.90
550.6117, 19692.41
551.0938, 19692.94
551.5759, 19730.96
552.0580, 19801.44
552.5402, 19855.39
553.0223, 19877.99
553.5044, 19885.01
553.9865, 19887.91
554.4686, 19885.16
554.9507, 19907.45
555.4329, 19980.31
555.9150, 20050.74
556.3971, 20096.61
556.8792, 20126.10
557.3613, 20154.51
557.8434, 20186.06
558.3256, 20210.30
558.8077, 20207.00
559.2898, 20175.37
559.7719, 20171.59
560.2540, 20208.58
560.7361, 20248.72
561.2183, 20270.68
561.7004, 20285.88
562.1825, 20309.36
562.6646, 20345.14
563.1467, 20381.06
563.6288, 20416.37
564.1110, 20445.88
564.5931, 20460.35
565.0752, 20460.50
565.5573, 20456.15
566.0394, 20452.86
566.5215, 20452.06
567.0037, 20460.17
567.4858, 20486.16
567.9679, 20505.33
568.4500, 20509.35
568.9321, 20512.88
569.4142, 20525.03
569.8964, 20545.24
570.3785, 20568.75
570.8606, 20596.48
571.3427, 20622.53
571.8248, 20634.79
572.3069, 20635.78
572.7891, 20644.82
573.2712, 20670.08
573.7533, 20695.06
574.2354, 20694.00
574.7175, 20659.72
575.1996, 20670.06
575.6818, 20764.93
576.1639, 20855.95
576.6460, 20909.02
577.1281, 20941.09
577.6102, 20973.97
578.0923, 21014.40
578.5745, 21059.91
579.0566, 21116.09
579.5387, 21178.92
580.0208, 21205.76
580.5029, 21182.86
580.9850, 21170.27
581.4672, 21205.31
581.9493, 21263.34
582.4314, 21295.52
582.9135, 21290.97
583.3956, 21299.56
583.8777, 21354.35
584.3599, 21413.61
584.8420, 21439.57
585.3241, 21435.39
585.8062, 21419.62
586.2883, 21400.97
586.7704, 21386.99
587.2526, 21396.93
587.7347, 21438.91
588.2168, 21472.80
588.6989, 21485.79
589.1810, 21501.85
589.6631, 21543.35
590.1453, 21596.94
590.6274, 21629.87
591.1095, 21621.68
591.5916, 21612.47
592.0737, 21635.05
592.5558, 21674.40
593.0380, 21700.64
593.5201, 21709.03
594.0022, 21717.72
594.4843, 21743.92
594.9664, 21783.51
595.4485, 21801.74
595.9307, 21767.09
596.4128, 21761.91
596.8949, 21816.93
597.3770, 21886.15
597.8591, 21941.93
598.3412, 21980.06
598.8234, 22000.92
599.3055, 21986.61
599.7876, 21969.73
600.2697, 22001.60
600.7518, 22073.47
601.2339, 22138.81
601.7161, 22182.98
602.1982, 22217.59
602.6803, 22256.17
603.1624, 22299.16
603.6445, 22342.87
604.1266, 22405.05
604.6088, 22446.86
605.0909, 22431.20
605.5730, 22403.93
606.0551, 22422.70
606.5372, 22496.89
607.0193, 22580.87
607.5015, 22644.14
607.9836, 22685.62
608.4657, 22691.72
608.9478, 22659.83
609.4299, 22648.50
609.9120, 22686.40
610.3942, 22753.91
610.8763, 22821.52
611.3584, 22900.54
611.8405, 22940.13
612.3226, 22907.91
612.8047, 22867.94
613.2869, 22844.21
613.7690, 22838.57
614.2511, 22850.96
614.7332, 22881.48
615.2153, 22923.69
615.6974, 22976.63
616.1796, 23037.34
616.6617, 23078.68
617.1438, 23093.76
617.6259, 23115.83
618.1080, 23173.39
618.5901, 23245.51
619.0723, 23274.94
619.5544, 23237.97
620.0365, 23222.09
620.5186, 23259.72
621.0007, 23307.42
621.4828, 23328.45
621.9650, 23332.75
622.4471, 23354.63
622.9292, 23412.60
623.4113, 23480.15
623.8934, 23510.10
624.3755, 23502.58
624.8577, 23507.28
625.3398, 23532.24
625.8219, 23561.94
626.3040, 23584.37
626.7861, 23604.62
627.2682, 23638.09
627.7504, 23697.67
628.2325, 23747.97
628.7146, 23779.15
629.1967, 23797.40
629.6788, 23799.03
630.1609, 23791.90
630.6431, 23798.10
631.1252, 23831.89
631.6073, 23881.20
632.0894, 23920.30
632.5715, 23947.43
633.0536, 23988.64
633.5358, 24063.27
634.0179, 24122.91
634.5000, 24112.91
634.9821, 24058.56
635.4642, 24042.13
635.9464, 24086.49
636.4285, 24142.39
636.9106, 24218.66
637.3927, 24282.03
637.8748, 24286.14
638.3569, 24239.64
638.8391, 24195.50
639.3212, 24188.13
639.8033, 24206.12
640.2854, 24222.70
640.7675, 24236.84
641.2496, 24259.93
641.7318, 24300.08
642.2139, 24339.25
642.6960, 24362.47
643.1781, 24372.92
643.6602, 24380.69
644.1423, 24380.91
644.6245, 24386.80
645.1066, 24411.99
645.5887, 24439.81
646.0708, 24447.27
646.5529, 24437.62
647.0350, 24436.34
647.5172, 24462.78
647.9993, 24504.53
648.4814, 24527.54
648.9635, 24528.70
649.4456, 24544.81
649.9277, 24586.31
650.4099, 24637.19
650.8920, 24692.77
651.3741, 24747.89
651.8562, 24780.19
652.3383, 24766.23
652.8204, 24756.78
653.3026, 24765.93
653.7847, 24786.59
654.2668, 24814.49
654.7489, 24846.90
655.2310, 24878.96
655.7131, 24906.51
656.1953, 24933.34
656.6774, 24973.55
657.1595, 25028.06
657.6416, 25056.97
658.1237, 25043.28
658.6058, 25026.00
659.0880, 25037.75
659.5701, 25074.23
660.0522, 25105.20
660.5343, 25123.62
661.0164, 25146.51
661.4985, 25196.12
661.9807, 25238.15
662.4628, 25229.32
662.9449, 25182.60
663.4270, 25153.56
663.9091, 25179.96
664.3912, 25227.78
664.8734, 25233.27
665.3555, 25201.44
665.8376, 25196.24
666.3197, 25235.45
666.8018, 25271.38
667.2839, 25259.39
667.7661, 25213.86
668.2482, 25212.09
668.7303, 25284.07
669.2124, 25353.81
669.6945, 25422.86
670.1766, 25480.34
670.6588, 25511.73
671.1409, 25525.04
671.6230, 25542.28
672.1051, 25574.28
672.5872, 25612.50
673.0693, 25660.40
673.5515, 25707.28
674.0336, 25694.27
674.5157, 25609.13
674.9978, 25553.02
675.4799, 25599.43
675.9620, 25718.55
676.4442, 25810.46
676.9263, 25874.32
677.4084, 25910.61
677.8905, 25898.94
678.3726, 25882.36
678.8547, 25879.96
679.3369, 25889.51
679.8190, 25903.24
680.3011, 25918.13
680.7832, 25939.12
681.2653, 25975.01
681.7474, 26018.00
682.2296, 26052.13
682.7117, 26077.29
683.1938, 26105.94
683.6759, 26146.21
684.1580, 26188.31
684.6401, 26210.79
685.1223, 26206.21
685.6044, 26206.29
686.0865, 26203.19
686.5686, 26215.52
687.0507, 26265.98
687.5328, 26328.66
688.0150, 26363.94
688.4971, 26361.43
688.9792, 26365.28
689.4613, 26411.00
689.9434, 26461.85
690.4255, 26470.51
690.9077, 26452.28
691.3898, 26455.14
691.8719, 26498.07
692.3540, 26562.46
692.8361, 26628.41
693.3182, 26695.99
693.8004, 26745.44
694.2825, 26774.28
694.7646, 26790.12
695.2467, 26781.41
695.7288, 26772.05
696.2109, 26799.17
696.6931, 26865.38
697.1752, 26919.24
697.6573, 26944.65
698.1394, 26964.46
698.6215, 26989.41
699.1036, 27016.35
699.5858, 27044.54
700.0679, 27071.41
700.5500, 27084.54
701.0321, 27065.83
701.5142, 27030.43
701.9963, 27019.58
702.4785, 27032.97
702.9606, 27041.32
703.4427, 27032.56
703.9248, 27031.16
704.4069, 27065.91
704.8890, 27135.47
705.3712, 27191.04
705.8533, 27235.88
706.3354, 27262.73
706.8175, 27252.67
707.2996, 27238.86
707.7817, 27246.54
708.2639, 27274.31
708.7460, 27307.67
709.2281, 27340.24
709.7102, 27375.13
710.1923, 27421.47
710.6744, 27470.83
711.1566, 27498.43
711.6387, 27503.24
712.1208, 27517.56
712.6029, 27564.84
713.0850, 27633.35
713.5671, 27691.14
714.0493, 27734.90
714.5314, 27779.28
715.0135, 27841.73
715.4956, 27882.74
715.9777, 27864.89
716.4598, 27817.27
716.9420, 27787.25
717.4241, 27777.26
717.9062, 27795.59
718.3883, 27869.81
718.8704, 27952.91
719.3525, 28008.07
719.8347, 28039.15
720.3168, 28055.82
720.7989, 28062.83
721.2810, 28077.22
721.7631, 28130.27
722.2452, 28211.83
722.7274, 28262.00
723.2095, 28278.40
723.6916, 28278.38
724.1737, 28260.69
724.6558, 28244.27
725.1379, 28256.31
725.6201, 28300.94
726.1022, 28345.10
726.5843, 28396.11
727.0664, 28438.12
727.5485, 28468.76
728.0306, 28488.33
728.5128, 28494.39
728.9949, 28488.95
729.4770, 28481.29
729.9591, 28463.87
730.4412, 28460.82
730.9233, 28515.53
731.4055, 28600.36
731.8876, 28640.66
732.3697, 28627.54
732.8518, 28629.34
733.3339, 28704.25
733.8160, 28821.56
734.2982, 28873.71
734.7803, 28837.07
735.2624, 28838.23
735.7445, 28920.15
736.2266, 28996.03
736.7087, 28990.35
737.1909, 28942.87
737.6730, 28945.60
738.1551, 29030.50
738.6372, 29096.65
739.1193, 29102.73
739.6014, 29100.01
740.0836, 29125.95
740.5657, 29170.39
741.0478, 29207.11
741.5299, 29227.38
742.0120, 29247.27
742.4941, 29289.29
742.9763, 29341.11
743.4584, 29369.34
743.9405, 29374.86
744.4226, 29377.62
744.9047, 29382.57
745.3868, 29399.58
745.8690, 29443.50
746.3511, 29515.04
746.8332, 29578.33
747.3153, 29635.53
747.7974, 29680.61
748.2795, 29704.62
748.7617, 29722.93
749.2438, 29744.77
749.7259, 29770.78
750.2080, 29802.12
750.6901, 29859.71
751.1722, 29894.56
751.6544, 29846.02
752.1365, 29784.46
752.6186, 29801.74
753.1007, 29888.63
753.5828, 29972.86
754.0649, 30014.40
754.5471, 30035.10
755.0292, 30064.11
755.5113, 30101.48
755.9934, 30152.20
756.4755, 30218.80
756.9576, 30275.09
757.4398, 30307.94
757.9219, 30322.22
758.4040, 30322.43
758.8861, 30295.67
759.3682, 30306.97
759.8503, 30387.05
760.3325, 30469.21
760.8146, 30547.02
761.2967, 30613.09
761.7788, 30657.74
762.2609, 30681.16
762.7430, 30698.69
763.2252, 30697.29
763.7073, 30711.17
764.1894, 30786.92
764.6715, 30884.10
765.1536, 30936.13
765.6357, 30937.56
766.1179, 30927.38
766.6000, 30931.73
767.0821, 30946.06
767.5642, 30951.56
768.0463, 30951.16
768.5284, 31012.38
769.0106, 31159.84
769.4927, 31276.37
769.9748, 31281.68
770.4569, 31215.31
770.9390, 31168.95
771.4211, 31134.23
771.9033, 31143.49
772.3854, 31249.80
772.8675, 31337.98
773.3496, 31352.08
773.8317, 31336.41
774.3138, 31349.04
774.7960, 31397.34
775.2781, 31439.04
775.7602, 31448.83
776.2423, 31452.25
776.7244, 31459.65
777.2065, 31477.75
777.6887, 31527.93
778.1708, 31606.24
778.6529, 31667.69
779.1350, 31672.93
779.6171, 31651.83
780.0992, 31666.71
780.5814, 31715.51
781.0635, 31781.92
781.5456, 31868.18
782.0277, 31931.76
782.5098, 31936.64
782.9919, 31908.70
783.4741, 31918.25
783.9562, 31979.38
784.4383, 32040.86
784.9204, 32119.75
785.4025, 32176.97
785.8846, 32171.30
786.3668, 32150.77
786.8489, 32185.86
787.3310, 32284.89
787.8131, 32354.06
788.2952, 32325.80
788.7773, 32296.54
789.2595, 32332.36
789.7416, 32400.89
790.2237, 32465.65
790.7058, 32515.01
791.1879, 32538.79
791.6700, 32520.20
792.1522, 32494.67
792.6343, 32536.36
793.1164, 32623.38
793.5985, 32650.70
794.0806, 32605.39
794.5627, 32567.55
795.0449, 32586.54
795.5270, 32640.38
796.0091, 32680.56
796.4912, 32702.01
796.9733, 32732.84
797.4554, 32775.95
797.9376, 32821.99
798.4197, 32870.58
798.9018, 32917.32
799.3839, 32957.84
799.8660, 32992.04
800.3481, 33017.22
800.8303, 33017.45
801.3124, 33027.28
801.7945, 33074.51
802.2766, 33125.73
802.7587, 33148.09
803.2408, 33142.77
803.7230, 33129.37
804.2051, 33113.54
804.6872, 33103.52
805.1693, 33089.75
805.6514, 33094.91
806.1335, 33184.56
806.6157, 33341.25
807.0978, 33458.74
807.5799, 33486.54
808.0620, 33479.08
808.5441, 33525.16
809.0262, 33616.68
809.5084, 33624.95
809.9905, 33531.89
810.4726, 33471.57
810.9547, 33486.63
811.4368, 33551.37
811.9189, 33654.38
812.4011, 33790.45
812.8832, 33870.38
813.3653, 33850.42
813.8474, 33838.61
814.3295, 33848.55
814.8116, 33863.64
815.2938, 33877.08
815.7759, 33887.91
816.2580, 33895.04
816.7401, 33897.83
817.2222, 33899.57
817.7043, 33902.93
818.1865, 33905.09
818.6686, 33906.87
819.1507, 33905.01
819.6328, 33888.31
820.1149, 33857.00
820.5970, 33834.95
821.0792, 33839.13
821.5613, 33867.05
822.0434, 33932.11
822.5255, 34018.72
823.0076, 34053.87
823.4897, 34026.51
823.9719, 34018.58
824.4540, 34094.16
824.9362, 34209.68
825.4183, 34247.68
825.9004, 34195.57
826.3825, 34157.79
826.8646, 34137.20
827.3467, 34135.70
827.8289, 34159.64
828.3110, 34198.02
828.7931, 34238.39
829.2752, 34284.54
829.7573, 34305.69
830.2394, 34278.32
830.7216, 34257.61
831.2037, 34252.22
831.6858, 34260.64
832.1679, 34283.03
832.6500, 34317.82
833.1321, 34363.65
833.6143, 34434.31
834.0964, 34484.14
834.5785, 34473.50
835.0606, 34443.38
835.5427, 34435.50
836.0248, 34442.34
836.5070, 34428.70
836.9891, 34384.87
837.4712, 34362.54
837.9533, 34445.03
838.4354, 34568.02
838.9175, 34587.04
839.3997, 34527.42
839.8818, 34496.91
840.3639, 34521.52
840.8460, 34569.50
841.3281, 34617.05
841.8102, 34663.63
842.2924, 34710.20
842.7745, 34758.66
843.2566, 34785.61
843.7387, 34782.88
844.2208, 34776.91
844.7029, 34775.02
845.1851, 34783.89
845.6672, 34816.00
846.1493, 34873.62
846.6314, 34939.11
847.1135, 35045.37
847.5956, 35115.06
848.0778, 35103.75
848.5599, 35073.36
849.0420, 35076.43
849.5241, 35106.30
850.0062, 35123.68
850.4883, 35108.23
850.9705, 35101.50
851.4526, 35129.86
851.9347, 35162.98
852.4168, 35172.52
852.8989, 35169.58
853.3810, 35181.09
853.8632, 35214.46
854.3453, 35248.10
854.8274, 35264.27
855.3095, 35272.63
855.7916, 35281.09
856.2737, 35292.43
856.7559, 35312.80
857.2380, 35343.10
857.7201, 35382.13
858.2022, 35431.55
858.6843, 35478.47
859.1664, 35491.64
859.6486, 35476.46
860.1307, 35479.39
860.6128, 35504.36
861.0949, 35533.73
861.5770, 35559.86
862.0591, 35587.88
862.5413, 35629.36
863.0234, 35684.05
863.5055, 35695.91
863.9876, 35642.56
864.4697, 35608.32
864.9518, 35611.40
865.4340, 35636.52
865.9161, 35677.07
866.3982, 35730.46
866.8803, 35788.25
867.3624, 35877.36
867.8445, 35915.79
868.3267, 35838.60
868.8088, 35781.96
869.2909, 35828.77
869.7730, 35912.61
870.2551, 35945.42
870.7372, 35921.79
871.2194, 35914.57
871.7015, 35957.16
872.1836, 36011.99
872.6657, 36061.82
873.1478, 36112.97
873.6299, 36179.07
874.1121, 36252.18
874.5942, 36311.91
875.0763, 36349.76
875.5584, 36369.86
876.0405, 36367.36
876.5226, 36354.50
877.0048, 36333.87
877.4869, 36319.64
877.9690, 36360.09
878.4511, 36459.40
878.9332, 36551.37
879.4153, 36579.22
879.8975, 36569.74
880.3796, 36574.16
880.8617, 36591.95
881.3438, 36620.44
881.8259, 36659.61
882.3080, 36703.52
882.7902, 36748.84
883.2723, 36801.47
883.7544, 36877.79
884.2365, 36976.99
884.7186, 37015.55
885.2007, 36978.68
885.6829, 36943.03
886.1650, 36920.18
886.6471, 36916.30
887.1292, 36939.71
887.6113, 36984.72
888.0934, 37030.96
888.5756, 37089.60
889.0577, 37124.33
889.5398, 37115.93
890.0219, 37106.88
890.5040, 37104.64
890.9861, 37114.23
891.4683, 37143.50
891.9504, 37192.25
892.4325, 37246.84
892.9146, 37310.36
893.3967, 37372.75
893.8788, 37455.82
894.3610, 37514.33
894.8431, 37502.63
895.3252, 37442.82
895.8073, 37372.40
896.2894, 37294.24
896.7715, 37267.85
897.2537, 37376.07
897.7358, 37492.07
898.2179, 37503.55
898.7000, 37471.14
899.1821, 37488.50
899.6642, 37561.38
900.1464, 37636.75
900.6285, 37688.93
901.1106, 37721.21
901.5927, 37717.64
902.0748, 37707.44
902.5569, 37750.57
903.0391, 37831.73
903.5212, 37887.35
904.0033, 37897.35
904.4854, 37897.70
904.9675, 37921.57
905.4496, 37961.92
905.9318, 38003.58
906.4139, 38047.24
906.8960, 38100.80
907.3781, 38164.31
907.8602, 38216.84
908.3423, 38245.43
908.8245, 38261.85
909.3066, 38285.68
909.7887, 38316.17
910.2708, 38342.74
910.7529, 38364.95
911.2350, 38385.93
911.7172, 38407.23
912.1993, 38424.79
912.6814, 38435.93
913.1635, 38439.99
913.6456, 38431.96
914.1277, 38404.92
914.6099, 38394.18
915.0920, 38413.90
915.5741, 38418.13
916.0562, 38360.03
916.5383, 38311.36
917.0204, 38380.22
917.5026, 38566.12
917.9847, 38672.77
918.4668, 38621.95
918.9489, 38615.73
919.4310, 38722.19
919.9131, 38822.87
920.3953, 38855.27
920.8774, 38841.02
921.3595, 38807.01
921.8416, 38744.90
922.3237, 38731.66
922.8058, 38811.90
923.2880, 38899.20
923.7701, 38982.67
924.2522, 39046.60
924.7343, 39067.22
925.2164, 39057.96
925.6985, 39062.66
926.1807, 39099.96
926.6628, 39123.06
927.1449, 39072.46
927.6270, 39044.73
928.1091, 39135.16
928.5912, 39270.60
929.0734, 39347.56
929.5555, 39359.50
930.0376, 39372.55
930.5197, 39416.95
931.0018, 39473.16
931.4839, 39543.62
931.9661, 39605.37
932.4482, 39628.11
932.9303, 39622.10
933.4124, 39599.80
933.8945, 39571.58
934.3766, 39586.44
934.8588, 39729.34
935.3409, 39878.26
935.8230, 39863.66
936.3051, 39758.41
936.7872, 39676.36
937.2693, 39639.46
937.7515, 39673.51
938.2336, 39789.12
938.7157, 39887.30
939.1978, 39812.20
939.6799, 39660.70
940.1620, 39663.22
940.6442, 39780.06
941.1263, 39874.73
941.6084, 39920.31
942.0905, 39935.63
942.5726, 39929.08
943.0547, 39926.81
943.5369, 39992.64
944.0190, 40103.11
944.5011, 40129.43
944.9832, 40075.70
945.4653, 40033.94
945.9474, 40029.79
946.4296, 40055.79
946.9117, 40108.57
947.3938, 40178.87
947.8759, 40241.34
948.3580, 40296.04
948.8401, 40364.60
949.3223, 40452.83
949.8044, 40493.22
950.2865, 40451.16
950.7686, 40393.22
951.2507, 40388.99
951.7328, 40435.07
952.2150, 40524.91
952.6971, 40673.98
953.1792, 40760.56
953.6613, 40760.68
954.1434, 40742.31
954.6255, 40734.85
955.1077, 40731.86
955.5898, 40719.51
956.0719, 40698.73
956.5540, 40730.58
957.0361, 40851.89
957.5182, 40906.01
958.0004, 40826.13
958.4825, 40769.21
958.9646, 40841.66
959.4467, 40984.59
959.9288, 41093.07
960.4109, 41170.78
960.8931, 41180.95
961.3752, 41058.58
961.8573, 40995.05
962.3394, 41061.16
962.8215, 41150.87
963.3036, 41187.83
963.7858, 41193.48
964.2679, 41226.68
964.7500, 41299.93
965.2321, 41359.35
965.7142, 41413.38
966.1964, 41441.29
966.6785, 41415.08
967.1606, 41380.74
967.6427, 41364.34
968.1248, 41369.54
968.6069, 41413.15
969.0891, 41529.49
969.5712, 41606.91
970.0533, 41612.30
970.5354, 41612.93
971.0175, 41619.16
971.4996, 41640.73
971.9818, 41701.43
972.4639, 41789.21
972.9460, 41841.63
973.4281, 41828.78
973.9102, 41823.45
974.3923, 41836.25
974.8745, 41857.36
975.3566, 41892.36
975.8387, 41926.21
976.3208, 41940.36
976.8029, 41935.43
977.2850, 41928.91
977.7672, 41908.14
978.2493, 41911.05
978.7314, 41962.15
979.2135, 42021.75
979.6956, 42081.12
980.1777, 42127.77
980.6599, 42139.79
981.1420, 42118.45
981.6241, 42105.14
982.1062, 42106.45
982.5883, 42124.12
983.0704, 42169.55
983.5526, 42221.09
984.0347, 42277.73
984.5168, 42324.11
984.9989, 42328.51
985.4810, 42289.08
985.9631, 42268.45
986.4453, 42281.17
986.9274, 42324.03
987.4095, 42436.59
987.8916, 42539.86
988.3737, 42543.11
988.8558, 42503.25
989.3380, 42546.88
989.8201, 42696.27
990.3022, 42787.66
990.7843, 42704.56
991.2664, 42620.68
991.7485, 42606.30
992.2307, 42632.30
992.7128, 42699.86
993.1949, 42778.36
993.6770, 42804.14
994.1591, 42762.24
994.6412, 42744.86
995.1234, 42810.70
995.6055, 42885.63
996.0876, 42925.54
996.5697, 42962.11
997.0518, 43017.85
997.5339, 43096.69
998.0161, 43211.24
998.4982, 43366.50
998.9803, 43488.29
999.4624, 43523.47
999.9445, 43537.94
1000.427, 43540.75
1000.909, 43562.08
1001.391, 43660.29
1001.873, 43794.46
1002.355, 43856.17
1002.837, 43811.70
1003.319, 43787.11
1003.801, 43871.52
1004.284, 43953.07
1004.766, 43949.88
1005.248, 43928.03
1005.730, 43956.91
1006.212, 44025.25
1006.694, 44094.74
1007.176, 44158.54
1007.658, 44190.78
1008.141, 44160.79
1008.623, 44119.75
1009.105, 44089.72
1009.587, 44068.21
1010.069, 44027.30
1010.551, 43996.36
1011.033, 44068.15
1011.515, 44282.76
1011.997, 44432.88
1012.480, 44371.51
1012.962, 44294.25
1013.444, 44323.28
1013.926, 44372.07
1014.408, 44339.04
1014.890, 44253.06
1015.372, 44208.35
1015.854, 44231.24
1016.336, 44253.85
1016.819, 44240.69
1017.301, 44232.23
1017.783, 44271.70
1018.265, 44305.61
1018.747, 44257.88
1019.229, 44169.01
1019.711, 44149.21
1020.193, 44229.98
1020.676, 44304.79
1021.158, 44345.40
1021.640, 44363.55
1022.122, 44328.88
1022.604, 44305.61
1023.086, 44376.49
1023.568, 44496.54
1024.050, 44549.04
1024.532, 44502.96
1025.015, 44484.30
1025.497, 44557.82
1025.979, 44624.14
1026.461, 44634.93
1026.943, 44635.38
1027.425, 44648.59
1027.907, 44682.97
1028.389, 44764.77
1028.871, 44907.98
1029.354, 44992.84
1029.836, 44954.13
1030.318, 44910.43
1030.800, 44879.43
1031.282, 44870.84
1031.764, 44896.79
1032.246, 44947.43
1032.728, 45011.96
1033.211, 45094.08
1033.693, 45143.44
1034.175, 45137.05
1034.657, 45123.03
1035.139, 45100.05
1035.621, 45084.24
1036.103, 45080.52
1036.585, 45092.75
1037.068, 45133.04
1037.550, 45205.46
1038.032, 45261.47
1038.514, 45284.50
1038.996, 45313.45
1039.478, 45380.71
1039.960, 45419.74
1040.442, 45358.09
1040.924, 45274.04
1041.406, 45297.78
1041.889, 45431.85
1042.371, 45487.76
1042.853, 45395.00
1043.335, 45365.47
1043.817, 45449.79
1044.299, 45545.93
1044.781, 45626.19
1045.263, 45671.47
1045.746, 45640.31
1046.228, 45543.93
1046.710, 45524.02
1047.192, 45616.61
1047.674, 45682.29
1048.156, 45709.98
1048.638, 45714.98
1049.120, 45694.10
1049.603, 45672.79
1050.085, 45682.31
1050.567, 45714.75
1051.049, 45724.52
1051.531, 45701.42
1052.013, 45715.97
1052.495, 45780.63
1052.977, 45835.43
1053.459, 45857.98
1053.942, 45868.30
1054.424, 45881.11
1054.906, 45902.25
1055.388, 45968.02
1055.870, 46080.91
1056.352, 46072.94
1056.834, 45930.50
1057.316, 45872.88
1057.798, 45967.08
1058.281, 46084.13
1058.763, 46127.80
1059.245, 46125.47
1059.727, 46123.83
1060.209, 46126.20
1060.691, 46168.70
1061.173, 46243.25
1061.655, 46256.01
1062.138, 46191.80
1062.620, 46139.82
1063.102, 46155.22
1063.584, 46202.40
1064.066, 46231.84
1064.548, 46251.51
1065.030, 46289.45
1065.512, 46335.52
1065.995, 46345.23
1066.477, 46321.93
1066.959, 46320.91
1067.441, 46367.95
1067.923, 46438.81
1068.405, 46524.59
1068.887, 46603.88
1069.369, 46637.97
1069.851, 46645.41
1070.333, 46648.97
1070.816, 46659.58
1071.298, 46702.84
1071.780, 46783.85
1072.262, 46856.89
1072.744, 46881.21
1073.226, 46894.57
1073.708, 46933.07
1074.191, 46978.02
1074.673, 47013.55
1075.155, 47036.09
1075.637, 47036.00
1076.119, 47016.11
1076.601, 47008.01
1077.083, 47030.83
1077.565, 47058.62
1078.047, 47084.16
1078.530, 47102.49
1079.012, 47099.27
1079.494, 47093.28
1079.976, 47106.77
1080.458, 47141.48
1080.940, 47193.25
1081.422, 47275.11
1081.904, 47337.70
1082.386, 47375.22
1082.869, 47384.24
1083.351, 47335.46
1083.833, 47282.38
1084.315, 47270.05
1084.797, 47293.69
1085.279, 47336.97
1085.761, 47412.56
1086.243, 47460.21
1086.726, 47456.74
1087.208, 47462.66
1087.690, 47496.40
1088.172, 47529.50
1088.654, 47536.72
1089.136, 47538.10
1089.618, 47567.01
1090.100, 47622.92
1090.583, 47715.42
1091.065, 47867.31
1091.547, 47961.11
1092.029, 47964.61
1092.511, 47979.33
1092.993, 48059.79
1093.475, 48144.88
1093.957, 48159.14
1094.439, 48122.08
1094.922, 48114.60
1095.404, 48136.34
1095.886, 48159.02
1096.368, 48181.30
1096.850, 48233.65
1097.332, 48325.76
1097.814, 48405.03
1098.296, 48427.03
1098.778, 48420.79
1099.261, 48436.53
1099.743, 48467.11
1100.225, 48499.41
1100.707, 48526.64
1101.189, 48525.74
1101.671, 48495.13
1102.153, 48449.32
1102.635, 48395.32
1103.118, 48344.88
1103.600, 48288.45
1104.082, 48262.22
1104.564, 48345.10
1105.046, 48467.02
1105.528, 48520.80
1106.010, 48514.42
1106.492, 48495.93
1106.974, 48481.85
1107.457, 48496.66
1107.939, 48571.41
1108.421, 48653.80
1108.903, 48721.38
1109.385, 48776.62
1109.867, 48818.87
1110.349, 48850.84
1110.831, 48871.97
1111.313, 48884.63
1111.796, 48905.52
1112.278, 48952.38
1112.760, 48976.66
1113.242, 48907.74
1113.724, 48894.83
1114.206, 49057.31
1114.688, 49240.84
1115.170, 49318.93
1115.653, 49315.93
1116.135, 49290.50
1116.617, 49237.63
1117.099, 49194.48
1117.581, 49157.19
1118.063, 49143.61
1118.545, 49158.33
1119.027, 49196.70
1119.510, 49262.25
1119.992, 49336.25
1120.474, 49394.57
1120.956, 49436.18
1121.438, 49446.52
1121.920, 49426.64
1122.402, 49442.90
1122.884, 49498.72
1123.366, 49530.24
1123.849, 49516.34
1124.331, 49515.36
1124.813, 49580.74
1125.295, 49665.41
1125.777, 49686.88
1126.259, 49669.96
1126.741, 49662.39
1127.223, 49667.63
1127.705, 49703.12
1128.188, 49756.83
1128.670, 49760.80
1129.152, 49681.09
1129.634, 49623.12
1130.116, 49698.92
1130.598, 49799.99
1131.080, 49850.14
1131.562, 49863.89
1132.045, 49842.44
1132.527, 49806.07
1133.009, 49780.72
1133.491, 49773.66
1133.973, 49806.28
1134.455, 49935.86
1134.937, 50024.01
1135.419, 50017.86
1135.901, 49984.64
1136.384, 49909.49
1136.866, 49859.39
1137.348, 49933.02
1137.830, 50085.55
1138.312, 50165.41
1138.794, 50150.86
1139.276, 50150.55
1139.758, 50169.05
1140.240, 50189.81
1140.723, 50213.33
1141.205, 50226.98
1141.687, 50222.57
1142.169, 50206.39
1142.651, 50180.13
1143.133, 50155.28
1143.615, 50218.76
1144.097, 50354.06
1144.580, 50327.67
1145.062, 50144.98
1145.544, 50073.61
1146.026, 50191.91
1146.508, 50357.71
1146.990, 50477.57
1147.472, 50535.06
1147.954, 50454.34
1148.437, 50336.02
1148.919, 50347.84
1149.401, 50437.91
1149.883, 50523.80
1150.365, 50580.38
1150.847, 50572.24
1151.329, 50487.08
1151.811, 50431.87
1152.293, 50497.11
1152.776, 50565.46
1153.258, 50558.40
1153.740, 50552.09
1154.222, 50621.27
1154.704, 50717.18
1155.186, 50758.80
1155.668, 50749.27
1156.150, 50767.89
1156.632, 50852.70
1157.115, 50893.39
1157.597, 50858.55
1158.079, 50836.73
1158.561, 50855.41
1159.043, 50878.30
1159.525, 50875.70
1160.007, 50870.96
1160.489, 50912.57
1160.972, 50992.75
1161.454, 51024.36
1161.936, 51009.13
1162.418, 51042.23
1162.900, 51130.80
1163.382, 51206.28
1163.864, 51243.57
1164.346, 51233.49
1164.828, 51155.95
1165.311, 51075.36
1165.793, 51105.41
1166.275, 51179.87
1166.757, 51178.42
1167.239, 51138.79
1167.721, 51136.54
1168.203, 51178.50
1168.685, 51249.91
1169.167, 51346.99
1169.650, 51414.51
1170.132, 51417.07
1170.614, 51393.04
1171.096, 51322.62
1171.578, 51272.46
1172.060, 51326.27
1172.542, 51404.94
1173.024, 51372.64
1173.507, 51251.93
1173.989, 51247.75
1174.471, 51428.60
1174.953, 51531.15
1175.435, 51523.48
1175.917, 51522.39
1176.399, 51556.72
1176.881, 51591.85
1177.364, 51607.03
1177.846, 51609.11
1178.328, 51605.18
1178.810, 51599.23
1179.292, 51609.82
1179.774, 51634.60
1180.256, 51661.43
1180.738, 51689.37
1181.220, 51731.54
1181.703, 51783.86
1182.185, 51777.84
1182.667, 51655.63
1183.149, 51563.09
1183.631, 51701.76
1184.113, 51877.01
1184.595, 51869.44
1185.077, 51799.35
1185.559, 51810.88
1186.042, 51891.18
1186.524, 51993.66
1187.006, 52105.64
1187.488, 52161.23
1187.970, 52097.56
1188.452, 52049.54
1188.934, 52050.38
1189.416, 52046.90
1189.899, 51997.80
1190.381, 51971.66
1190.863, 52040.11
1191.345, 52153.40
1191.827, 52189.49
1192.309, 52150.57
1192.791, 52171.79
1193.273, 52254.59
1193.755, 52335.56
1194.238, 52406.39
1194.720, 52450.36
1195.202, 52462.46
1195.684, 52480.83
1196.166, 52541.86
1196.648, 52607.66
1197.130, 52627.07
1197.612, 52616.43
1198.094, 52568.61
1198.577, 52525.85
1199.059, 52574.58
1199.541, 52689.16
1200.023, 52772.66
1200.505, 52799.14
1200.987, 52811.83
1201.469, 52819.28
1201.951, 52826.50
1202.434, 52849.77
1202.916, 52855.68
1203.398, 52809.14
1203.880, 52754.69
1204.362, 52723.41
1204.844, 52721.04
1205.326, 52772.63
1205.808, 52886.62
1206.291, 52930.63
1206.773, 52900.45
1207.255, 52849.62
1207.737, 52785.16
1208.219, 52755.50
1208.701, 52780.07
1209.183, 52832.66
1209.665, 52895.83
1210.147, 52951.49
1210.630, 52958.17
1211.112, 52948.47
1211.594, 52975.45
1212.076, 53023.25
1212.558, 53061.38
1213.040, 53089.88
1213.522, 53123.01
1214.004, 53164.38
1214.486, 53212.93
1214.969, 53277.46
1215.451, 53335.05
1215.933, 53385.15
1216.415, 53420.41
1216.897, 53434.81
1217.379, 53436.87
1217.861, 53432.18
1218.343, 53421.98
1218.826, 53406.50
1219.308, 53385.86
1219.790, 53383.64
1220.272, 53400.21
1220.754, 53417.73
1221.236, 53434.94
1221.718, 53476.70
1222.200, 53550.16
1222.682, 53621.47
1223.165, 53666.16
1223.647, 53690.68
1224.129, 53686.38
1224.611, 53681.48
1225.093, 53732.93
1225.575, 53790.28
1226.057, 53764.11
1226.539, 53690.14
1227.021, 53673.14
1227.504, 53729.13
1227.986, 53761.52
1228.468, 53709.20
1228.950, 53699.80
1229.432, 53767.27
1229.914, 53847.88
1230.396, 53950.75
1230.878, 54010.26
1231.361, 53965.82
1231.843, 53883.72
1232.325, 53878.60
1232.807, 53930.20
1233.289, 53923.45
1233.771, 53873.81
1234.253, 53879.32
1234.735, 53937.81
1235.218, 54015.78
1235.700, 54093.94
1236.182, 54118.20
1236.664, 54052.65
1237.146, 54004.40
1237.628, 54072.88
1238.110, 54166.26
1238.592, 54248.26
1239.074, 54299.21
1239.557, 54268.95
1240.039, 54218.68
1240.521, 54254.84
1241.003, 54362.43
1241.485, 54408.21
1241.967, 54385.13
1242.449, 54314.48
1242.931, 54157.09
1243.413, 54147.80
1243.896, 54351.57
1244.378, 54482.55
1244.860, 54404.20
1245.342, 54286.09
1245.824, 54294.43
1246.306, 54364.70
1246.788, 54403.55
1247.270, 54417.89
1247.753, 54398.07
1248.235, 54375.30
1248.717, 54416.19
1249.199, 54501.61
1249.681, 54562.29
1250.163, 54581.42
1250.645, 54585.88
1251.127, 54583.95
1251.609, 54568.59
1252.092, 54520.88
1252.574, 54486.09
1253.056, 54490.31
1253.538, 54486.93
1254.020, 54429.71
1254.502, 54374.93
1254.984, 54424.02
1255.466, 54549.84
1255.948, 54623.77
1256.431, 54652.27
1256.913, 54670.20
1257.395, 54679.13
1257.877, 54656.88
1258.359, 54613.48
1258.841, 54623.58
1259.323, 54722.06
1259.805, 54837.70
1260.288, 54941.09
1260.770, 55019.40
1261.252, 55056.14
1261.734, 55075.43
1262.216, 55076.17
1262.698, 55082.91
1263.180, 55146.73
1263.662, 55229.39
1264.145, 55213.75
1264.627, 55091.39
1265.109, 55086.74
##END=



